time,x,y,z,ax,ay,az,q
1569919416,329.617,71.2143,-2.23242,177.034,6.41602,-146.162,972
1569919416,329.617,71.2143,-2.23242,177.034,6.41602,-146.162,972
1569919416,329.617,71.2143,-2.23242,177.034,6.41602,-146.162,972
1569919416,329.617,71.2143,-2.23242,177.034,6.41602,-146.162,972
1569919416,329.617,71.2143,-2.23242,177.034,6.41602,-146.162,972
1569919416,329.617,71.2143,-2.23242,177.034,6.41602,-146.162,972
1569919416,329.617,71.2143,-2.23242,177.034,6.41602,-146.162,972
1569919416,329.617,71.2143,-2.23242,177.034,6.41602,-146.162,972
1569919416,329.617,71.2143,-2.23242,177.034,6.41602,-146.162,972
1569919416,329.617,71.2143,-2.23242,177.034,6.41602,-146.162,972
1569919416,329.617,71.2143,-2.23242,177.034,6.41602,-146.162,972
1569919416,329.617,71.2143,-2.1208,177.034,6.41602,-146.162,972
1569919416,329.505,71.2143,-2.1208,177.034,6.41602,-146.162,972
1569919416,329.505,71.2143,-2.1208,177.034,6.41602,-146.162,972
1569919416,329.505,71.2143,-2.1208,177.034,6.41602,-146.162,972
1569919416,329.505,71.2143,-2.1208,177.034,6.41602,-146.162,972
1569919416,329.505,71.2143,-2.1208,177.034,6.41602,-146.162,972
1569919416,329.505,71.2143,-2.1208,177.034,6.41602,-146.184,972
1569919416,329.505,71.2143,-2.1208,177.034,6.41602,-146.184,972
1569919416,329.505,71.2143,-2.1208,177.034,6.41602,-146.184,972
1569919416,329.505,71.2143,-2.1208,177.034,6.41602,-146.184,972
1569919416,329.505,71.2143,-2.1208,177.034,6.41602,-146.184,972
1569919416,329.505,71.2143,-2.1208,177.034,6.41602,-146.184,968
1569919416,329.505,71.2143,-2.1208,177.034,6.41602,-146.184,968
1569919416,329.505,71.2143,-2.1208,177.034,6.41602,-146.162,968
1569919416,329.505,71.2143,-2.1208,177.034,6.41602,-146.162,968
1569919416,329.505,71.2143,-2.23242,177.034,6.41602,-146.162,968
1569919416,329.505,71.2143,-2.23242,177.034,6.41602,-146.162,968
1569919416,329.505,71.2143,-2.23242,177.034,6.41602,-146.162,968
1569919417,329.505,71.2143,-2.23242,177.034,6.41602,-146.162,964
1569919417,329.505,71.2143,-2.23242,177.034,6.41602,-146.162,964
1569919417,329.505,71.2143,-2.23242,177.034,6.41602,-146.162,964
1569919417,329.505,71.2143,-2.23242,177.034,6.41602,-146.162,964
1569919417,329.505,71.2143,-2.23242,177.034,6.41602,-146.162,964
1569919417,329.505,71.2143,-2.23242,177.034,6.41602,-146.162,964
1569919417,329.505,71.2143,-2.23242,177.034,6.41602,-146.162,964
1569919417,329.505,71.2143,-2.1208,177.034,6.41602,-146.162,964
1569919417,329.505,71.2143,-2.1208,177.034,6.41602,-146.14,964
1569919417,329.505,71.2143,-2.1208,177.034,6.41602,-146.14,964
1569919417,329.505,71.2143,-2.1208,177.034,6.41602,-146.14,964
1569919417,329.505,71.2143,-2.1208,177.034,6.41602,-146.14,964
1569919417,329.505,71.2143,-2.1208,177.034,6.41602,-146.14,964
1569919417,329.505,71.2143,-2.1208,177.034,6.41602,-146.14,964
1569919417,329.505,71.2143,-2.1208,177.034,6.41602,-146.14,964
1569919417,329.505,71.2143,-2.1208,177.034,6.41602,-146.14,964
1569919417,329.505,71.2143,-2.1208,177.034,6.41602,-146.14,964
1569919417,329.505,71.2143,-2.1208,177.034,6.41602,-146.14,964
1569919417,329.505,71.2143,-2.1208,177.034,6.41602,-146.14,964
1569919417,329.505,71.2143,-2.23242,177.034,6.41602,-146.14,964
1569919417,329.505,71.2143,-2.23242,177.034,6.41602,-146.14,964
1569919417,329.505,71.2143,-2.23242,177.034,6.41602,-146.14,964
1569919417,329.505,71.2143,-2.23242,177.034,6.41602,-146.14,964
1569919417,329.505,71.2143,-2.23242,177.034,6.41602,-146.14,964
1569919417,329.505,71.2143,-2.23242,177.034,6.41602,-146.14,964
1569919417,329.505,71.2143,-2.23242,177.034,6.39404,-146.14,964
1569919417,329.505,71.2143,-2.23242,177.034,6.39404,-146.14,964
1569919417,329.505,71.2143,-2.23242,177.034,6.39404,-146.14,964
1569919417,329.505,71.2143,-2.23242,177.034,6.39404,-146.14,964
1569919417,329.505,71.2143,-2.23242,177.034,6.39404,-146.14,964
1569919417,329.505,71.2143,-2.23242,177.034,6.39404,-146.14,964
1569919417,329.505,71.2143,-2.23242,177.034,6.39404,-146.14,964
1569919417,329.505,71.2143,-2.23242,177.034,6.39404,-146.14,968
1569919417,329.505,71.2143,-2.23242,177.034,6.39404,-146.14,968
1569919417,329.505,71.2143,-2.23242,177.034,6.39404,-146.14,968
1569919417,329.505,71.2143,-2.23242,177.034,6.37207,-146.14,968
1569919417,329.505,71.2143,-2.23242,177.034,6.37207,-146.14,968
1569919417,329.505,71.2143,-2.23242,177.034,6.37207,-146.14,968
1569919417,329.505,71.2143,-2.23242,177.034,6.37207,-146.14,968
1569919417,329.505,71.2143,-2.23242,177.034,6.37207,-146.14,968
1569919417,329.505,71.2143,-2.23242,177.034,6.37207,-146.14,972
1569919417,329.617,71.2143,-2.23242,177.034,6.37207,-146.14,972
1569919417,329.505,71.2143,-2.23242,177.034,6.37207,-146.14,972
1569919417,329.505,71.2143,-2.23242,177.034,6.37207,-146.14,972
1569919417,329.505,71.2143,-2.23242,177.034,6.37207,-146.14,972
1569919417,329.505,71.2143,-2.23242,177.034,6.37207,-146.14,972
1569919417,329.505,71.2143,-2.23242,177.034,6.37207,-146.14,972
1569919417,329.505,71.2143,-2.23242,177.034,6.37207,-146.14,972
1569919417,329.505,71.2143,-2.23242,177.034,6.37207,-146.14,972
1569919417,329.505,71.2143,-2.23242,177.034,6.37207,-146.14,972
1569919417,329.505,71.2143,-2.23242,177.034,6.37207,-146.14,972
1569919417,329.505,71.2143,-2.23242,177.034,6.37207,-146.14,972
1569919417,329.505,71.2143,-2.23242,177.056,6.37207,-146.14,972
1569919417,329.505,71.2143,-2.23242,177.056,6.39404,-146.14,972
1569919417,329.505,71.2143,-2.23242,177.056,6.39404,-146.14,972
1569919417,329.505,71.2143,-2.23242,177.056,6.39404,-146.14,972
1569919417,329.505,71.3259,-2.23242,177.056,6.39404,-146.14,972
1569919417,329.617,71.3259,-2.23242,177.056,6.39404,-146.14,972
1569919417,329.617,71.3259,-2.23242,177.056,6.39404,-146.14,972
1569919417,329.617,71.3259,-2.23242,177.056,6.39404,-146.14,976
1569919417,329.617,71.3259,-2.23242,177.056,6.39404,-146.14,976
1569919417,329.617,71.3259,-2.23242,177.056,6.39404,-146.14,976
1569919417,329.617,71.3259,-2.23242,177.056,6.39404,-146.14,976
1569919417,329.617,71.3259,-2.23242,177.056,6.39404,-146.14,976
1569919417,329.617,71.3259,-2.23242,177.056,6.39404,-146.14,980
1569919417,329.617,71.3259,-2.23242,177.056,6.39404,-146.14,980
1569919417,329.617,71.3259,-2.23242,177.056,6.39404,-146.14,980
1569919417,329.505,71.3259,-2.23242,177.056,6.39404,-146.14,980
1569919417,329.505,71.3259,-2.23242,177.056,6.39404,-146.162,980
1569919417,329.505,71.3259,-2.23242,177.056,6.39404,-146.162,980
1569919417,329.505,71.3259,-2.23242,177.056,6.39404,-146.162,980
1569919417,329.505,71.3259,-2.23242,177.056,6.39404,-146.162,980
1569919417,329.505,71.3259,-2.23242,177.056,6.39404,-146.162,980
1569919417,329.505,71.3259,-2.23242,177.056,6.39404,-146.162,980
1569919417,329.505,71.3259,-2.23242,177.056,6.39404,-146.162,980
1569919417,329.505,71.3259,-2.23242,177.056,6.39404,-146.162,980
1569919417,329.505,71.3259,-2.23242,177.056,6.39404,-146.162,980
1569919417,329.505,71.3259,-2.23242,177.056,6.39404,-146.14,976
1569919417,329.505,71.3259,-2.23242,177.056,6.39404,-146.14,976
1569919417,329.505,71.3259,-2.23242,177.056,6.39404,-146.14,976
1569919417,329.505,71.3259,-2.23242,177.056,6.39404,-146.14,976
1569919417,329.505,71.3259,-2.23242,177.056,6.39404,-146.14,976
1569919417,329.505,71.3259,-2.23242,177.056,6.39404,-146.14,976
1569919417,329.505,71.3259,-2.23242,177.056,6.39404,-146.14,976
1569919417,329.505,71.3259,-2.23242,177.056,6.39404,-146.14,976
1569919417,329.505,71.3259,-2.23242,177.056,6.39404,-146.162,972
1569919417,329.505,71.3259,-2.23242,177.056,6.39404,-146.162,972
1569919417,329.505,71.3259,-2.23242,177.056,6.39404,-146.162,972
1569919417,329.505,71.3259,-2.23242,177.056,6.39404,-146.162,972
1569919417,329.617,71.3259,-2.23242,177.056,6.39404,-146.162,972
1569919417,329.617,71.3259,-2.23242,177.056,6.39404,-146.162,972
1569919417,329.617,71.3259,-2.23242,177.056,6.39404,-146.162,972
1569919417,329.617,71.3259,-2.23242,177.056,6.39404,-146.162,972
1569919417,329.617,71.3259,-2.23242,177.034,6.39404,-146.162,972
1569919417,329.617,71.2143,-2.23242,177.034,6.39404,-146.162,972
1569919417,329.617,71.2143,-2.23242,177.034,6.41602,-146.162,972
1569919417,329.617,71.2143,-2.23242,177.034,6.41602,-146.162,972
1569919417,329.617,71.2143,-2.23242,177.034,6.39404,-146.162,972
1569919417,329.617,71.2143,-2.23242,177.034,6.39404,-146.162,972
1569919417,329.617,71.2143,-2.23242,177.034,6.39404,-146.162,972
1569919418,329.617,71.2143,-2.23242,177.034,6.39404,-146.162,972
1569919418,329.617,71.2143,-2.23242,177.034,6.39404,-146.162,976
1569919418,329.617,71.2143,-2.23242,177.034,6.39404,-146.162,976
1569919418,329.617,71.2143,-2.23242,177.034,6.39404,-146.162,976
1569919418,329.617,71.2143,-2.23242,177.034,6.39404,-146.162,976
1569919418,329.617,71.2143,-2.23242,177.034,6.39404,-146.162,976
1569919418,329.617,71.2143,-2.23242,177.034,6.39404,-146.162,976
1569919418,329.617,71.2143,-2.23242,177.034,6.39404,-146.162,976
1569919418,329.617,71.2143,-2.23242,177.034,6.39404,-146.162,976
1569919418,329.617,71.2143,-2.23242,177.034,6.39404,-146.162,976
1569919418,329.617,71.2143,-2.23242,177.034,6.39404,-146.162,976
1569919418,329.617,71.2143,-2.23242,177.034,6.39404,-146.162,976
1569919418,329.617,71.2143,-2.23242,177.034,6.39404,-146.162,980
1569919418,329.617,71.2143,-2.23242,177.034,6.39404,-146.162,980
1569919418,329.617,71.2143,-2.23242,177.034,6.39404,-146.162,980
1569919418,329.505,71.2143,-2.23242,177.034,6.39404,-146.162,980
1569919418,329.505,71.2143,-2.23242,177.034,6.39404,-146.162,980
1569919418,329.505,71.2143,-2.23242,177.034,6.39404,-146.162,980
1569919418,329.505,71.2143,-2.23242,177.034,6.41602,-146.162,980
1569919418,329.505,71.2143,-2.23242,177.034,6.41602,-146.162,980
1569919418,329.505,71.2143,-2.23242,177.034,6.41602,-146.162,980
1569919418,329.505,71.2143,-2.23242,177.056,6.41602,-146.162,984
1569919418,329.505,71.2143,-2.23242,177.056,6.41602,-146.162,984
1569919418,329.505,71.2143,-2.23242,177.034,6.41602,-146.162,984
1569919418,329.505,71.2143,-2.23242,177.034,6.41602,-146.162,984
1569919418,329.505,71.2143,-2.23242,177.034,6.41602,-146.162,984
1569919418,329.505,71.2143,-2.23242,177.034,6.41602,-146.162,984
1569919418,329.617,71.2143,-2.23242,177.034,6.41602,-146.162,984
1569919418,329.505,71.2143,-2.23242,177.034,6.39404,-146.162,984
1569919418,329.505,71.2143,-2.23242,177.034,6.39404,-146.162,984
1569919418,329.505,71.2143,-2.23242,177.034,6.39404,-146.162,984
1569919418,329.505,71.2143,-2.23242,177.034,6.39404,-146.162,984
1569919418,329.505,71.2143,-2.23242,177.034,6.39404,-146.162,984
1569919418,329.505,71.2143,-2.23242,177.034,6.39404,-146.162,984
1569919418,329.505,71.2143,-2.23242,177.034,6.39404,-146.162,984
1569919418,329.505,71.2143,-2.23242,177.034,6.39404,-146.162,980
1569919418,329.505,71.2143,-2.23242,177.034,6.39404,-146.162,980
1569919418,329.505,71.2143,-2.23242,177.034,6.39404,-146.162,980
1569919418,329.505,71.2143,-2.23242,177.034,6.39404,-146.162,980
1569919418,329.505,71.2143,-2.23242,177.034,6.39404,-146.162,980
1569919418,329.505,71.2143,-2.23242,177.034,6.39404,-146.162,980
1569919418,329.505,71.2143,-2.23242,177.034,6.39404,-146.162,980
1569919418,329.505,71.2143,-2.23242,177.034,6.39404,-146.162,980
1569919418,329.505,71.2143,-2.23242,177.034,6.39404,-146.162,980
1569919418,329.505,71.2143,-2.23242,177.034,6.39404,-146.162,980
1569919418,329.505,71.2143,-2.23242,177.034,6.39404,-146.162,980
1569919418,329.505,71.2143,-2.23242,177.034,6.39404,-146.162,980
1569919418,329.505,71.2143,-2.23242,177.034,6.39404,-146.162,980
1569919418,329.505,71.2143,-2.23242,177.034,6.39404,-146.162,980
1569919418,329.617,71.2143,-2.23242,177.034,6.39404,-146.162,980
1569919418,329.617,71.2143,-2.23242,177.034,6.39404,-146.162,980
1569919418,329.617,71.2143,-2.23242,177.034,6.39404,-146.162,980
1569919418,329.617,71.2143,-2.23242,177.034,6.39404,-146.162,976
1569919418,329.617,71.2143,-2.23242,177.034,6.39404,-146.162,976
1569919418,329.505,71.2143,-2.23242,177.034,6.39404,-146.162,976
1569919418,329.505,71.2143,-2.23242,177.034,6.39404,-146.162,976
1569919418,329.505,71.2143,-2.23242,177.034,6.39404,-146.162,976
1569919418,329.505,71.2143,-2.23242,177.034,6.39404,-146.162,976
1569919418,329.505,71.2143,-2.23242,177.034,6.39404,-146.162,976
1569919418,329.505,71.2143,-2.23242,177.034,6.39404,-146.162,972
1569919418,329.505,71.2143,-2.23242,177.034,6.39404,-146.162,972
1569919418,329.505,71.2143,-2.23242,177.034,6.39404,-146.162,972
1569919418,329.505,71.2143,-2.23242,177.034,6.39404,-146.162,972
1569919418,329.505,71.2143,-2.23242,177.034,6.39404,-146.162,972
1569919418,329.505,71.2143,-2.23242,177.034,6.39404,-146.162,972
1569919418,329.505,71.2143,-2.23242,177.034,6.39404,-146.162,972
1569919418,329.505,71.2143,-2.23242,177.034,6.39404,-146.162,972
1569919418,329.505,71.2143,-2.23242,177.034,6.39404,-146.162,972
1569919418,329.505,71.2143,-2.23242,177.034,6.39404,-146.162,968
1569919418,329.505,71.2143,-2.23242,177.034,6.39404,-146.162,968
1569919418,329.505,71.2143,-2.23242,177.034,6.39404,-146.162,968
1569919418,329.505,71.2143,-2.23242,177.034,6.39404,-146.162,968
1569919418,329.505,71.2143,-2.23242,177.034,6.39404,-146.162,968
1569919418,329.505,71.2143,-2.23242,177.034,6.39404,-146.162,968
1569919418,329.617,71.2143,-2.23242,177.034,6.39404,-146.162,968
1569919418,329.617,71.2143,-2.23242,177.034,6.39404,-146.162,968
1569919418,329.505,71.2143,-2.23242,177.034,6.39404,-146.162,968
1569919418,329.505,71.2143,-2.23242,177.034,6.39404,-146.162,968
1569919418,329.505,71.2143,-2.23242,177.034,6.39404,-146.162,968
1569919418,329.617,71.2143,-2.23242,177.034,6.41602,-146.162,968
1569919418,329.617,71.2143,-2.23242,177.034,6.41602,-146.162,968
1569919418,329.617,71.2143,-2.23242,177.034,6.41602,-146.162,968
1569919418,329.617,71.2143,-2.23242,177.034,6.41602,-146.162,968
1569919418,329.617,71.2143,-2.23242,177.034,6.41602,-146.162,968
1569919418,329.617,71.2143,-2.23242,177.034,6.41602,-146.162,972
1569919418,329.617,71.2143,-2.23242,177.034,6.41602,-146.162,972
1569919418,329.617,71.2143,-2.23242,177.034,6.41602,-146.162,972
1569919418,329.617,71.2143,-2.23242,177.034,6.41602,-146.162,972
1569919418,329.617,71.2143,-2.23242,177.034,6.41602,-146.162,972
1569919418,329.617,71.2143,-2.23242,177.034,6.41602,-146.162,972
1569919418,329.617,71.2143,-2.23242,177.034,6.41602,-146.162,976
1569919418,329.617,71.2143,-2.23242,177.034,6.41602,-146.162,976
1569919418,329.617,71.2143,-2.23242,177.034,6.41602,-146.162,976
1569919418,329.617,71.2143,-2.23242,177.034,6.41602,-146.162,976
1569919418,329.505,71.2143,-2.23242,177.034,6.41602,-146.162,976
1569919418,329.505,71.2143,-2.23242,177.034,6.41602,-146.14,972
1569919418,329.505,71.2143,-2.23242,177.034,6.41602,-146.14,972
1569919418,329.505,71.2143,-2.23242,177.034,6.41602,-146.14,972
1569919418,329.505,71.2143,-2.23242,177.034,6.41602,-146.14,972
1569919418,329.505,71.2143,-2.23242,177.034,6.41602,-146.14,972
1569919419,329.505,71.2143,-2.23242,177.034,6.41602,-146.14,972
1569919419,329.505,71.2143,-2.23242,177.034,6.41602,-146.14,972
1569919419,329.505,71.2143,-2.23242,177.034,6.41602,-146.162,968
1569919419,329.505,71.2143,-2.23242,177.034,6.41602,-146.162,968
1569919419,329.505,71.2143,-2.23242,177.034,6.41602,-146.162,968
1569919419,329.505,71.2143,-2.23242,177.034,6.41602,-146.162,968
1569919419,329.505,71.2143,-2.23242,177.034,6.41602,-146.162,968
1569919419,329.505,71.2143,-2.23242,177.034,6.41602,-146.162,968
1569919419,329.505,71.2143,-2.23242,177.034,6.41602,-146.162,968
1569919419,329.505,71.2143,-2.23242,177.034,6.39404,-146.162,968
1569919419,329.505,71.2143,-2.23242,177.034,6.39404,-146.162,968
1569919419,329.505,71.2143,-2.23242,177.034,6.39404,-146.162,968
1569919419,329.505,71.2143,-2.23242,177.034,6.39404,-146.162,968
1569919419,329.505,71.2143,-2.23242,177.034,6.39404,-146.162,968
1569919419,329.505,71.2143,-2.23242,177.034,6.39404,-146.162,968
1569919419,329.505,71.2143,-2.23242,177.034,6.39404,-146.162,968
1569919419,329.505,71.2143,-2.23242,177.034,6.39404,-146.14,968
1569919419,329.505,71.2143,-2.23242,177.034,6.39404,-146.14,964
1569919419,329.505,71.2143,-2.23242,177.034,6.39404,-146.14,964
1569919419,329.505,71.2143,-2.23242,177.034,6.39404,-146.14,964
1569919419,329.505,71.2143,-2.23242,177.034,6.39404,-146.14,964
1569919419,329.505,71.2143,-2.23242,177.034,6.39404,-146.14,964
1569919419,329.617,71.2143,-2.23242,177.034,6.39404,-146.14,964
1569919419,329.617,71.2143,-2.23242,177.034,6.39404,-146.14,964
1569919419,329.617,71.2143,-2.23242,177.034,6.39404,-146.14,968
1569919419,329.617,71.2143,-2.23242,177.034,6.39404,-146.14,968
1569919419,329.617,71.2143,-2.23242,177.034,6.39404,-146.14,968
1569919419,329.617,71.2143,-2.23242,177.034,6.39404,-146.14,968
1569919419,329.617,71.2143,-2.23242,177.034,6.39404,-146.14,968
1569919419,329.617,71.2143,-2.23242,177.034,6.39404,-146.14,968
1569919419,329.617,71.2143,-2.23242,177.034,6.39404,-146.14,968
1569919419,329.617,71.2143,-2.23242,177.034,6.39404,-146.14,968
1569919419,329.617,71.2143,-2.23242,177.034,6.39404,-146.14,968
1569919419,329.617,71.2143,-2.23242,177.034,6.39404,-146.14,968
1569919419,329.617,71.2143,-2.23242,177.034,6.39404,-146.14,968
1569919419,329.617,71.2143,-2.23242,177.034,6.39404,-146.14,968
1569919419,329.617,71.2143,-2.23242,177.034,6.39404,-146.14,968
1569919419,329.617,71.2143,-2.23242,177.034,6.39404,-146.14,968
1569919419,329.617,71.2143,-2.23242,177.034,6.39404,-146.14,968
1569919419,329.617,71.2143,-2.23242,177.034,6.39404,-146.14,968
1569919419,329.617,71.2143,-2.23242,177.034,6.39404,-146.14,968
1569919419,329.617,71.2143,-2.23242,177.034,6.39404,-146.14,968
1569919419,329.617,71.2143,-2.23242,177.034,6.39404,-146.14,968
1569919419,329.617,71.2143,-2.23242,177.034,6.39404,-146.14,968
1569919419,329.617,71.2143,-2.23242,177.056,6.39404,-146.14,968
1569919419,329.617,71.3259,-2.23242,177.056,6.39404,-146.14,968
1569919419,329.617,71.3259,-2.23242,177.056,6.39404,-146.14,968
1569919419,329.617,71.3259,-2.23242,177.056,6.39404,-146.162,968
1569919419,329.617,71.3259,-2.23242,177.056,6.39404,-146.162,968
1569919419,329.617,71.3259,-2.23242,177.056,6.39404,-146.162,968
1569919419,329.617,71.3259,-2.23242,177.056,6.39404,-146.162,968
1569919419,329.617,71.3259,-2.23242,177.056,6.39404,-146.162,968
1569919419,329.617,71.3259,-2.23242,177.056,6.39404,-146.162,972
1569919419,329.617,71.3259,-2.23242,177.056,6.39404,-146.162,972
1569919419,329.617,71.3259,-2.23242,177.056,6.39404,-146.162,972
1569919419,329.617,71.2143,-2.23242,177.056,6.41602,-146.162,972
1569919419,329.617,71.2143,-2.23242,177.034,6.41602,-146.162,972
1569919419,329.617,71.2143,-2.23242,177.034,6.41602,-146.162,972
1569919419,329.617,71.2143,-2.23242,177.034,6.41602,-146.162,972
1569919419,329.617,71.2143,-2.1208,177.034,6.41602,-146.162,972
1569919419,329.617,71.2143,-2.1208,177.034,6.41602,-146.162,972
1569919419,329.505,71.2143,-2.1208,177.034,6.41602,-146.162,972
1569919419,329.505,71.2143,-2.1208,177.034,6.41602,-146.162,972
1569919419,329.505,71.2143,-2.1208,177.034,6.41602,-146.162,972
1569919419,329.505,71.2143,-2.1208,177.034,6.41602,-146.162,972
1569919419,329.505,71.2143,-2.1208,177.034,6.41602,-146.162,968
1569919419,329.505,71.2143,-2.1208,177.034,6.41602,-146.162,968
1569919419,329.505,71.2143,-2.1208,177.034,6.41602,-146.162,968
1569919419,329.505,71.2143,-2.1208,177.034,6.41602,-146.162,968
1569919419,329.505,71.2143,-2.23242,177.034,6.41602,-146.162,968
1569919419,329.505,71.2143,-2.23242,177.034,6.41602,-146.162,968
1569919419,329.505,71.2143,-2.23242,177.034,6.41602,-146.162,968
1569919419,329.505,71.2143,-2.23242,177.034,6.41602,-146.162,968
1569919419,329.505,71.2143,-2.23242,177.034,6.39404,-146.162,968
1569919419,329.617,71.2143,-2.23242,177.034,6.39404,-146.14,968
1569919419,329.617,71.2143,-2.23242,177.034,6.39404,-146.14,968
1569919419,329.617,71.2143,-2.23242,177.056,6.39404,-146.14,968
1569919419,329.617,71.2143,-2.23242,177.034,6.39404,-146.14,968
1569919419,329.617,71.2143,-2.23242,177.034,6.39404,-146.14,968
1569919419,329.617,71.2143,-2.23242,177.056,6.39404,-146.14,968
1569919419,329.617,71.2143,-2.23242,177.056,6.39404,-146.14,968
1569919419,329.617,71.2143,-2.23242,177.056,6.39404,-146.14,972
1569919419,329.617,71.2143,-2.23242,177.056,6.39404,-146.14,972
1569919419,329.617,71.2143,-2.23242,177.056,6.39404,-146.14,972
1569919419,329.617,71.2143,-2.23242,177.056,6.39404,-146.14,972
1569919419,329.617,71.2143,-2.23242,177.056,6.39404,-146.162,972
1569919419,329.617,71.2143,-2.23242,177.056,6.39404,-146.162,972
1569919419,329.617,71.2143,-2.23242,177.056,6.39404,-146.162,976
1569919419,329.617,71.2143,-2.23242,177.034,6.39404,-146.162,976
1569919419,329.617,71.2143,-2.23242,177.034,6.39404,-146.162,976
1569919419,329.617,71.2143,-2.23242,177.034,6.39404,-146.162,976
1569919419,329.617,71.2143,-2.23242,177.034,6.39404,-146.162,976
1569919419,329.617,71.2143,-2.23242,177.034,6.39404,-146.162,976
1569919419,329.617,71.2143,-2.23242,177.034,6.39404,-146.162,976
1569919419,329.617,71.2143,-2.23242,177.034,6.39404,-146.162,976
1569919419,329.617,71.2143,-2.23242,177.034,6.39404,-146.162,980
1569919419,329.617,71.2143,-2.23242,177.034,6.39404,-146.162,980
1569919419,329.617,71.2143,-2.23242,177.034,6.39404,-146.162,980
1569919419,329.617,71.2143,-2.23242,177.034,6.39404,-146.162,980
1569919419,329.617,71.2143,-2.23242,177.034,6.39404,-146.162,980
1569919419,329.617,71.2143,-2.23242,177.034,6.39404,-146.162,980
1569919420,329.617,71.2143,-2.23242,177.034,6.39404,-146.162,980
1569919420,329.617,71.2143,-2.23242,177.034,6.39404,-146.162,980
1569919420,329.617,71.2143,-2.23242,177.034,6.39404,-146.162,980
1569919420,329.617,71.2143,-2.23242,177.034,6.39404,-146.162,980
1569919420,329.505,71.2143,-2.23242,177.056,6.39404,-146.162,980
1569919420,329.505,71.2143,-2.23242,177.056,6.39404,-146.162,980
1569919420,329.505,71.2143,-2.23242,177.056,6.39404,-146.162,980
1569919420,329.505,71.2143,-2.23242,177.056,6.39404,-146.162,980
1569919420,329.505,71.2143,-2.23242,177.056,6.39404,-146.162,980
1569919420,329.505,71.2143,-2.23242,177.056,6.39404,-146.162,980
1569919420,329.505,71.3259,-2.23242,177.056,6.39404,-146.162,980
1569919420,329.505,71.3259,-2.23242,177.056,6.39404,-146.162,980
1569919420,329.505,71.3259,-2.23242,177.056,6.39404,-146.162,984
1569919420,329.505,71.3259,-2.23242,177.056,6.39404,-146.162,984
1569919420,329.505,71.3259,-2.23242,177.056,6.39404,-146.162,984
1569919420,329.505,71.2143,-2.23242,177.056,6.39404,-146.162,984
1569919420,329.505,71.2143,-2.23242,177.056,6.39404,-146.162,984
1569919420,329.505,71.2143,-2.23242,177.056,6.39404,-146.162,984
1569919420,329.505,71.2143,-2.23242,177.056,6.39404,-146.162,984
1569919420,329.505,71.2143,-2.23242,177.056,6.39404,-146.162,984
1569919420,329.505,71.2143,-2.23242,177.056,6.39404,-146.162,984
1569919420,329.505,71.2143,-2.23242,177.056,6.39404,-146.162,984
1569919420,329.505,71.2143,-2.23242,177.056,6.41602,-146.162,984
1569919420,329.505,71.2143,-2.23242,177.056,6.41602,-146.162,984
1569919420,329.505,71.2143,-2.23242,177.056,6.41602,-146.162,984
1569919420,329.505,71.2143,-2.23242,177.056,6.41602,-146.162,984
1569919420,329.505,71.2143,-2.23242,177.056,6.41602,-146.162,984
1569919420,329.505,71.2143,-2.23242,177.056,6.41602,-146.162,984
1569919420,329.505,71.2143,-2.23242,177.056,6.39404,-146.162,984
1569919420,329.505,71.2143,-2.23242,177.056,6.39404,-146.162,984
1569919420,329.505,71.2143,-2.23242,177.056,6.39404,-146.162,984
1569919420,329.505,71.2143,-2.23242,177.056,6.39404,-146.162,984
1569919420,329.505,71.2143,-2.23242,177.056,6.39404,-146.162,988
1569919420,329.505,71.2143,-2.23242,177.056,6.39404,-146.162,988
1569919420,329.505,71.2143,-2.23242,177.034,6.39404,-146.162,988
1569919420,329.505,71.2143,-2.23242,177.034,6.39404,-146.162,988
1569919420,329.505,71.2143,-2.23242,177.034,6.39404,-146.162,988
1569919420,329.505,71.2143,-2.23242,177.034,6.39404,-146.162,988
1569919420,329.505,71.2143,-2.23242,177.034,6.39404,-146.162,988
1569919420,329.505,71.2143,-2.23242,177.034,6.39404,-146.162,988
1569919420,329.505,71.2143,-2.23242,177.034,6.39404,-146.162,988
1569919420,329.505,71.2143,-2.23242,177.034,6.39404,-146.162,988
1569919420,329.505,71.2143,-2.23242,177.034,6.39404,-146.162,988
1569919420,329.505,71.2143,-2.23242,177.034,6.39404,-146.162,988
1569919420,329.505,71.2143,-2.23242,177.034,6.39404,-146.162,988
1569919420,329.617,71.2143,-2.23242,177.034,6.39404,-146.162,988
1569919420,329.617,71.2143,-2.23242,177.034,6.39404,-146.162,988
1569919420,329.617,71.2143,-2.23242,177.034,6.39404,-146.162,988
1569919420,329.617,71.2143,-2.23242,177.034,6.39404,-146.162,988
1569919420,329.617,71.2143,-2.23242,177.034,6.39404,-146.162,988
1569919420,329.617,71.2143,-2.23242,177.034,6.39404,-146.162,988
1569919420,329.617,71.2143,-2.23242,177.034,6.39404,-146.184,988
1569919420,329.617,71.2143,-2.23242,177.034,6.39404,-146.184,988
1569919420,329.617,71.2143,-2.23242,177.034,6.39404,-146.162,988
1569919420,329.505,71.2143,-2.23242,177.034,6.39404,-146.162,988
1569919420,329.505,71.2143,-2.23242,177.034,6.39404,-146.162,988
1569919420,329.505,71.2143,-2.23242,177.034,6.39404,-146.162,988
1569919420,329.505,71.2143,-2.23242,177.034,6.39404,-146.162,984
1569919420,329.505,71.2143,-2.23242,177.034,6.39404,-146.162,984
1569919420,329.505,71.2143,-2.23242,177.034,6.39404,-146.162,984
1569919420,329.505,71.2143,-2.23242,177.034,6.39404,-146.162,984
1569919420,329.505,71.2143,-2.23242,177.034,6.39404,-146.162,984
1569919420,329.505,71.2143,-2.23242,177.034,6.39404,-146.162,984
1569919420,329.505,71.2143,-2.23242,177.034,6.39404,-146.162,984
1569919420,329.505,71.2143,-2.23242,177.034,6.39404,-146.162,984
1569919420,329.505,71.2143,-2.23242,177.034,6.39404,-146.162,984
1569919420,329.505,71.2143,-2.23242,177.034,6.39404,-146.162,984
1569919420,329.505,71.2143,-2.23242,177.034,6.39404,-146.162,984
1569919420,329.505,71.2143,-2.23242,177.034,6.39404,-146.162,984
1569919420,329.505,71.2143,-2.23242,177.034,6.39404,-146.162,980
1569919420,329.505,71.2143,-2.23242,177.034,6.39404,-146.162,980
1569919420,329.505,71.2143,-2.23242,177.034,6.39404,-146.162,980
1569919420,329.505,71.2143,-2.23242,177.034,6.39404,-146.162,976
1569919420,329.505,71.2143,-2.23242,177.034,6.39404,-146.162,976
1569919420,329.505,71.2143,-2.23242,177.034,6.39404,-146.162,976
1569919420,329.505,71.2143,-2.23242,177.034,6.39404,-146.162,976
1569919420,329.505,71.2143,-2.23242,177.034,6.39404,-146.162,972
1569919420,329.505,71.2143,-2.23242,177.034,6.39404,-146.162,972
1569919420,329.505,71.2143,-2.23242,177.034,6.39404,-146.162,972
1569919420,329.505,71.2143,-2.23242,177.034,6.39404,-146.162,972
1569919420,329.505,71.2143,-2.23242,177.034,6.39404,-146.162,972
1569919420,329.505,71.2143,-2.23242,177.034,6.39404,-146.162,972
1569919420,329.505,71.2143,-2.23242,177.034,6.39404,-146.162,972
1569919420,329.505,71.2143,-2.23242,177.034,6.39404,-146.162,968
1569919420,329.505,71.2143,-2.23242,177.034,6.39404,-146.162,968
1569919420,329.505,71.2143,-2.23242,177.034,6.39404,-146.162,968
1569919420,329.505,71.2143,-2.23242,177.034,6.39404,-146.162,968
1569919420,329.505,71.2143,-2.23242,177.034,6.41602,-146.184,968
1569919420,329.505,71.2143,-2.23242,177.034,6.41602,-146.184,968
1569919420,329.505,71.2143,-2.23242,177.034,6.41602,-146.184,968
1569919420,329.505,71.2143,-2.23242,177.034,6.41602,-146.184,968
1569919420,329.505,71.2143,-2.23242,177.034,6.41602,-146.184,964
1569919420,329.505,71.2143,-2.23242,177.034,6.41602,-146.184,964
1569919420,329.505,71.2143,-2.23242,177.034,6.41602,-146.184,964
1569919420,329.505,71.2143,-2.23242,177.034,6.41602,-146.184,964
1569919420,329.505,71.2143,-2.23242,177.034,6.41602,-146.184,964
1569919420,329.505,71.2143,-2.23242,177.034,6.41602,-146.184,964
1569919420,329.505,71.2143,-2.23242,177.034,6.41602,-146.184,964
1569919420,329.505,71.2143,-2.23242,177.034,6.41602,-146.184,968
1569919420,329.505,71.2143,-2.23242,177.034,6.41602,-146.184,968
1569919421,329.505,71.2143,-2.23242,177.034,6.39404,-146.184,968
1569919421,329.505,71.2143,-2.23242,177.034,6.39404,-146.184,968
1569919421,329.505,71.2143,-2.23242,177.034,6.39404,-146.184,968
1569919421,329.505,71.2143,-2.23242,177.034,6.39404,-146.184,968
1569919421,329.505,71.2143,-2.23242,177.034,6.39404,-146.162,972
1569919421,329.505,71.2143,-2.23242,177.034,6.39404,-146.162,972
1569919421,329.505,71.2143,-2.23242,177.034,6.39404,-146.162,972
1569919421,329.505,71.3259,-2.23242,177.034,6.39404,-146.162,972
1569919421,329.505,71.3259,-2.23242,177.056,6.39404,-146.162,972
1569919421,329.505,71.3259,-2.23242,177.056,6.39404,-146.162,972
1569919421,329.617,71.3259,-2.23242,177.056,6.39404,-146.162,976
1569919421,329.617,71.3259,-2.23242,177.056,6.39404,-146.162,976
1569919421,329.617,71.3259,-2.23242,177.056,6.39404,-146.162,976
1569919421,329.617,71.3259,-2.23242,177.056,6.39404,-146.162,976
1569919421,329.617,71.3259,-2.23242,177.056,6.39404,-146.162,976
1569919421,329.617,71.3259,-2.23242,177.056,6.39404,-146.162,976
1569919421,329.617,71.3259,-2.23242,177.056,6.37207,-146.162,976
1569919421,329.617,71.3259,-2.23242,177.056,6.37207,-146.162,976
1569919421,329.617,71.3259,-2.23242,177.056,6.37207,-146.162,976
1569919421,329.617,71.3259,-2.23242,177.056,6.37207,-146.162,976
1569919421,329.617,71.3259,-2.23242,177.056,6.37207,-146.162,976
1569919421,329.617,71.3259,-2.23242,177.056,6.39404,-146.162,976
1569919421,329.617,71.3259,-2.23242,177.056,6.39404,-146.162,980
1569919421,329.617,71.3259,-2.23242,177.056,6.39404,-146.162,980
1569919421,329.617,71.3259,-2.23242,177.056,6.39404,-146.162,980
1569919421,329.617,71.3259,-2.23242,177.056,6.39404,-146.162,980
1569919421,329.617,71.3259,-2.23242,177.056,6.39404,-146.162,980
1569919421,329.617,71.3259,-2.23242,177.056,6.39404,-146.162,980
1569919421,329.617,71.3259,-2.23242,177.056,6.39404,-146.162,980
1569919421,329.617,71.3259,-2.23242,177.056,6.39404,-146.162,980
1569919421,329.617,71.3259,-2.23242,177.056,6.39404,-146.162,980
1569919421,329.617,71.3259,-2.23242,177.056,6.39404,-146.162,980
1569919421,329.617,71.3259,-2.23242,177.056,6.39404,-146.162,980
1569919421,329.617,71.3259,-2.23242,177.056,6.39404,-146.162,980
1569919421,329.617,71.3259,-2.23242,177.056,6.39404,-146.162,980
1569919421,329.617,71.3259,-2.23242,177.056,6.39404,-146.162,980
1569919421,329.617,71.3259,-2.23242,177.056,6.39404,-146.162,980
1569919421,329.617,71.3259,-2.23242,177.056,6.39404,-146.162,984
1569919421,329.617,71.3259,-2.23242,177.056,6.39404,-146.162,984
1569919421,329.617,71.3259,-2.23242,177.056,6.39404,-146.162,984
1569919421,329.617,71.3259,-2.23242,177.056,6.39404,-146.162,984
1569919421,329.617,71.3259,-2.23242,177.056,6.39404,-146.162,984
1569919421,329.617,71.3259,-2.23242,177.056,6.39404,-146.162,984
1569919421,329.617,71.3259,-2.23242,177.056,6.39404,-146.162,984
1569919421,329.617,71.3259,-2.23242,177.056,6.39404,-146.162,984
1569919421,329.617,71.3259,-2.23242,177.056,6.39404,-146.162,980
1569919421,329.617,71.3259,-2.23242,177.056,6.39404,-146.162,980
1569919421,329.617,71.3259,-2.23242,177.056,6.39404,-146.162,980
1569919421,329.617,71.3259,-2.23242,177.056,6.39404,-146.162,980
1569919421,329.617,71.3259,-2.23242,177.056,6.39404,-146.162,980
1569919421,329.617,71.3259,-2.23242,177.056,6.39404,-146.162,980
1569919421,329.617,71.3259,-2.23242,177.056,6.39404,-146.162,980
1569919421,329.617,71.3259,-2.23242,177.056,6.39404,-146.162,980
1569919421,329.617,71.3259,-2.23242,177.056,6.39404,-146.162,980
1569919421,329.617,71.3259,-2.23242,177.056,6.39404,-146.162,976
1569919421,329.617,71.3259,-2.23242,177.056,6.37207,-146.162,976
1569919421,329.617,71.3259,-2.23242,177.056,6.37207,-146.162,976
1569919421,329.617,71.3259,-2.23242,177.056,6.39404,-146.162,976
1569919421,329.617,71.2143,-2.23242,177.056,6.39404,-146.162,976
1569919421,329.617,71.2143,-2.23242,177.056,6.39404,-146.162,976
1569919421,329.617,71.2143,-2.23242,177.056,6.39404,-146.162,976
1569919421,329.617,71.2143,-2.23242,177.056,6.39404,-146.162,976
1569919421,329.505,71.2143,-2.23242,177.056,6.39404,-146.162,972
1569919421,329.505,71.2143,-2.23242,177.034,6.39404,-146.162,972
1569919421,329.505,71.2143,-2.23242,177.034,6.39404,-146.162,972
1569919421,329.505,71.2143,-2.23242,177.034,6.39404,-146.162,972
1569919421,329.505,71.2143,-2.23242,177.034,6.39404,-146.184,972
1569919421,329.505,71.2143,-2.23242,177.034,6.39404,-146.184,972
1569919421,329.505,71.2143,-2.23242,177.034,6.39404,-146.184,968
1569919421,329.505,71.2143,-2.23242,177.034,6.39404,-146.184,968
1569919425,314.102,87.5109,-2.67891,176.792,6.54785,-146.909,784
1569919425,314.102,87.5109,-2.67891,176.792,6.54785,-146.909,784
1569919425,314.102,87.5109,-2.67891,176.792,6.54785,-146.909,784
1569919425,314.102,87.5109,-2.67891,176.792,6.54785,-146.909,784
1569919425,314.102,87.5109,-2.67891,176.792,6.54785,-146.909,784
1569919425,314.102,87.5109,-2.67891,176.792,6.54785,-146.909,784
1569919425,314.102,87.5109,-2.67891,176.792,6.54785,-146.909,784
1569919425,314.102,87.5109,-2.67891,176.792,6.54785,-146.909,788
1569919425,314.102,87.5109,-2.67891,176.792,6.54785,-146.909,788
1569919425,314.102,87.5109,-2.56729,176.814,6.54785,-146.909,788
1569919425,314.102,87.5109,-2.56729,176.814,6.54785,-146.909,788
1569919425,314.102,87.5109,-2.56729,176.814,6.54785,-146.909,788
1569919425,314.102,87.5109,-2.56729,176.792,6.54785,-146.909,788
1569919425,314.102,87.5109,-2.56729,176.792,6.54785,-146.909,788
1569919425,314.102,87.5109,-2.56729,176.792,6.54785,-146.909,788
1569919425,314.102,87.5109,-2.56729,176.792,6.54785,-146.909,788
1569919425,314.102,87.5109,-2.56729,176.792,6.54785,-146.909,788
1569919425,314.102,87.5109,-2.56729,176.792,6.54785,-146.909,788
1569919425,314.102,87.5109,-2.56729,176.792,6.54785,-146.909,788
1569919425,314.102,87.5109,-2.67891,176.792,6.54785,-146.909,788
1569919425,314.102,87.3993,-2.67891,176.792,6.54785,-146.909,788
1569919425,314.102,87.3993,-2.67891,176.792,6.54785,-146.909,788
1569919426,314.102,87.3993,-2.67891,176.792,6.52588,-146.909,788
1569919426,314.102,87.3993,-2.67891,176.792,6.52588,-146.909,788
1569919426,314.102,87.3993,-2.67891,176.792,6.52588,-146.909,788
1569919426,314.102,87.3993,-2.67891,176.792,6.52588,-146.909,788
1569919426,314.102,87.3993,-2.67891,176.792,6.52588,-146.909,788
1569919426,314.102,87.3993,-2.67891,176.792,6.52588,-146.909,788
1569919426,314.102,87.3993,-2.67891,176.792,6.52588,-146.909,788
1569919426,314.102,87.3993,-2.67891,176.792,6.54785,-146.909,788
1569919426,314.102,87.3993,-2.67891,176.792,6.54785,-146.909,788
1569919426,314.102,87.3993,-2.67891,176.77,6.54785,-146.909,788
1569919426,314.102,87.3993,-2.67891,176.77,6.54785,-146.909,788
1569919426,314.102,87.3993,-2.67891,176.77,6.54785,-146.909,788
1569919426,314.102,87.3993,-2.67891,176.77,6.54785,-146.909,788
1569919426,314.102,87.3993,-2.67891,176.77,6.54785,-146.909,788
1569919426,314.102,87.3993,-2.67891,176.77,6.54785,-146.909,788
1569919426,314.102,87.3993,-2.67891,176.77,6.54785,-146.909,788
1569919426,314.102,87.3993,-2.67891,176.77,6.54785,-146.909,788
1569919426,314.102,87.3993,-2.67891,176.792,6.54785,-146.909,788
1569919426,314.102,87.3993,-2.67891,176.792,6.54785,-146.909,788
1569919426,314.102,87.3993,-2.67891,176.792,6.54785,-146.909,792
1569919426,314.102,87.3993,-2.67891,176.792,6.54785,-146.909,792
1569919426,314.102,87.3993,-2.67891,176.792,6.54785,-146.909,792
1569919426,314.102,87.3993,-2.67891,176.792,6.54785,-146.909,792
1569919426,314.102,87.3993,-2.67891,176.792,6.54785,-146.909,792
1569919426,314.102,87.3993,-2.67891,176.792,6.54785,-146.909,792
1569919426,314.102,87.3993,-2.67891,176.792,6.54785,-146.909,792
1569919426,314.102,87.5109,-2.67891,176.792,6.54785,-146.909,792
1569919426,314.102,87.5109,-2.67891,176.792,6.54785,-146.909,792
1569919426,314.102,87.5109,-2.67891,176.792,6.54785,-146.909,796
1569919426,314.102,87.5109,-2.67891,176.792,6.54785,-146.909,796
1569919426,314.102,87.5109,-2.67891,176.792,6.54785,-146.909,796
1569919426,314.102,87.3993,-2.67891,176.792,6.54785,-146.909,796
1569919426,314.102,87.3993,-2.67891,176.792,6.54785,-146.909,796
1569919426,314.102,87.3993,-2.67891,176.792,6.54785,-146.909,796
1569919426,314.102,87.3993,-2.67891,176.792,6.54785,-146.909,796
1569919426,314.102,87.5109,-2.67891,176.792,6.54785,-146.909,796
1569919426,314.102,87.5109,-2.67891,176.792,6.54785,-146.909,796
1569919426,314.102,87.5109,-2.67891,176.792,6.54785,-146.909,800
1569919426,314.102,87.5109,-2.67891,176.792,6.52588,-146.909,800
1569919426,314.102,87.5109,-2.67891,176.792,6.52588,-146.909,800
1569919426,314.102,87.5109,-2.67891,176.792,6.52588,-146.909,800
1569919426,314.102,87.5109,-2.67891,176.792,6.52588,-146.909,800
1569919426,314.102,87.3993,-2.67891,176.792,6.52588,-146.909,800
1569919426,314.102,87.3993,-2.67891,176.792,6.52588,-146.909,800
1569919426,314.102,87.3993,-2.67891,176.792,6.52588,-146.909,800
1569919426,314.102,87.3993,-2.67891,176.792,6.52588,-146.909,800
1569919426,314.102,87.3993,-2.67891,176.792,6.52588,-146.909,800
1569919426,314.102,87.3993,-2.67891,176.792,6.52588,-146.909,800
1569919426,314.102,87.3993,-2.67891,176.792,6.52588,-146.909,800
1569919426,314.102,87.3993,-2.67891,176.792,6.52588,-146.909,800
1569919426,314.102,87.3993,-2.67891,176.792,6.52588,-146.909,800
1569919426,314.102,87.3993,-2.67891,176.792,6.52588,-146.909,800
1569919426,314.102,87.3993,-2.67891,176.792,6.52588,-146.909,800
1569919426,314.102,87.3993,-2.67891,176.792,6.52588,-146.909,800
1569919426,314.102,87.3993,-2.67891,176.792,6.52588,-146.909,800
1569919426,314.102,87.3993,-2.67891,176.792,6.52588,-146.909,800
1569919426,314.102,87.3993,-2.67891,176.792,6.52588,-146.909,800
1569919426,314.102,87.3993,-2.67891,176.792,6.52588,-146.909,800
1569919426,314.102,87.3993,-2.67891,176.792,6.52588,-146.909,800
1569919426,314.102,87.3993,-2.67891,176.792,6.52588,-146.909,800
1569919426,314.102,87.3993,-2.67891,176.792,6.52588,-146.909,800
1569919426,314.102,87.3993,-2.67891,176.792,6.52588,-146.909,796
1569919426,314.102,87.3993,-2.67891,176.77,6.52588,-146.909,796
1569919426,314.102,87.3993,-2.67891,176.77,6.52588,-146.909,796
1569919426,314.102,87.3993,-2.67891,176.77,6.52588,-146.909,796
1569919426,314.102,87.3993,-2.67891,176.77,6.52588,-146.909,796
1569919426,314.102,87.3993,-2.67891,176.792,6.52588,-146.909,796
1569919426,314.102,87.3993,-2.67891,176.792,6.52588,-146.909,796
1569919426,314.102,87.3993,-2.67891,176.792,6.52588,-146.909,796
1569919426,314.102,87.3993,-2.67891,176.792,6.52588,-146.909,796
1569919426,314.102,87.3993,-2.67891,176.792,6.52588,-146.909,796
1569919426,314.102,87.3993,-2.67891,176.792,6.52588,-146.909,796
1569919426,314.102,87.3993,-2.67891,176.792,6.52588,-146.909,796
1569919426,314.102,87.3993,-2.67891,176.792,6.52588,-146.909,796
1569919426,314.102,87.3993,-2.67891,176.792,6.54785,-146.909,796
1569919426,314.102,87.3993,-2.67891,176.792,6.54785,-146.909,796
1569919426,314.102,87.3993,-2.67891,176.792,6.54785,-146.909,796
1569919426,314.102,87.3993,-2.67891,176.792,6.54785,-146.909,796
1569919426,314.102,87.3993,-2.67891,176.792,6.54785,-146.909,796
1569919426,314.102,87.3993,-2.67891,176.792,6.54785,-146.909,796
1569919426,314.102,87.3993,-2.67891,176.792,6.54785,-146.909,796
1569919426,314.102,87.3993,-2.67891,176.792,6.54785,-146.909,796
1569919426,314.102,87.3993,-2.67891,176.792,6.54785,-146.909,796
1569919426,314.102,87.3993,-2.67891,176.792,6.54785,-146.909,796
1569919426,314.102,87.3993,-2.67891,176.792,6.52588,-146.909,796
1569919426,314.102,87.3993,-2.67891,176.792,6.52588,-146.909,796
1569919426,314.102,87.3993,-2.67891,176.792,6.52588,-146.909,796
1569919426,314.102,87.3993,-2.67891,176.792,6.52588,-146.909,796
1569919426,314.102,87.3993,-2.67891,176.792,6.52588,-146.909,796
1569919426,314.102,87.3993,-2.67891,176.77,6.52588,-146.909,796
1569919426,314.102,87.3993,-2.67891,176.77,6.52588,-146.909,796
1569919426,314.102,87.3993,-2.67891,176.77,6.52588,-146.909,796
1569919426,314.102,87.3993,-2.67891,176.77,6.52588,-146.909,796
1569919426,314.102,87.3993,-2.67891,176.77,6.52588,-146.909,796
1569919426,314.102,87.3993,-2.67891,176.77,6.52588,-146.909,796
1569919426,314.102,87.3993,-2.67891,176.77,6.52588,-146.909,796
1569919426,314.102,87.3993,-2.67891,176.77,6.52588,-146.909,796
1569919426,314.102,87.3993,-2.67891,176.77,6.52588,-146.909,796
1569919426,314.102,87.3993,-2.67891,176.77,6.52588,-146.909,796
1569919427,314.102,87.3993,-2.67891,176.77,6.52588,-146.909,796
1569919427,314.102,87.3993,-2.67891,176.77,6.52588,-146.909,796
1569919427,314.102,87.3993,-2.67891,176.77,6.52588,-146.909,796
1569919427,314.102,87.3993,-2.67891,176.77,6.52588,-146.909,796
1569919427,314.102,87.3993,-2.67891,176.77,6.52588,-146.909,796
1569919427,314.102,87.3993,-2.67891,176.77,6.52588,-146.909,792
1569919427,314.102,87.3993,-2.67891,176.77,6.52588,-146.909,792
1569919427,314.102,87.3993,-2.67891,176.77,6.52588,-146.909,792
1569919427,314.102,87.3993,-2.67891,176.77,6.52588,-146.909,792
1569919427,314.102,87.3993,-2.67891,176.77,6.52588,-146.909,792
1569919427,314.102,87.3993,-2.67891,176.77,6.52588,-146.909,792
1569919427,314.102,87.3993,-2.67891,176.77,6.52588,-146.909,792
1569919427,314.102,87.3993,-2.67891,176.77,6.52588,-146.909,792
1569919427,314.102,87.3993,-2.67891,176.77,6.52588,-146.909,792
1569919427,314.102,87.3993,-2.67891,176.77,6.52588,-146.909,792
1569919427,314.102,87.3993,-2.67891,176.77,6.54785,-146.909,792
1569919427,314.102,87.3993,-2.67891,176.77,6.54785,-146.909,792
1569919427,314.102,87.3993,-2.67891,176.77,6.54785,-146.909,792
1569919427,314.102,87.3993,-2.67891,176.77,6.54785,-146.909,792
1569919427,314.102,87.3993,-2.67891,176.77,6.54785,-146.909,792
1569919427,314.102,87.3993,-2.67891,176.77,6.54785,-146.909,792
1569919427,314.102,87.3993,-2.67891,176.77,6.54785,-146.909,792
1569919427,314.102,87.3993,-2.67891,176.77,6.54785,-146.909,792
1569919427,314.102,87.3993,-2.67891,176.77,6.54785,-146.909,792
1569919427,314.102,87.3993,-2.67891,176.77,6.54785,-146.909,792
1569919427,314.102,87.3993,-2.67891,176.77,6.54785,-146.909,792
1569919427,314.102,87.3993,-2.67891,176.77,6.54785,-146.909,792
1569919427,314.102,87.3993,-2.67891,176.77,6.54785,-146.909,788
1569919427,314.102,87.3993,-2.67891,176.77,6.54785,-146.909,788
1569919427,314.102,87.3993,-2.67891,176.77,6.54785,-146.909,788
1569919427,314.102,87.3993,-2.67891,176.77,6.54785,-146.909,788
1569919427,314.102,87.3993,-2.67891,176.77,6.54785,-146.909,788
1569919427,314.102,87.3993,-2.67891,176.77,6.54785,-146.887,788
1569919427,314.102,87.3993,-2.67891,176.77,6.54785,-146.887,784
1569919427,313.99,87.3993,-2.67891,176.77,6.54785,-146.887,784
1569919427,313.99,87.3993,-2.67891,176.77,6.54785,-146.887,784
1569919427,313.99,87.3993,-2.67891,176.77,6.54785,-146.887,784
1569919427,313.99,87.3993,-2.67891,176.77,6.54785,-146.887,784
1569919427,313.99,87.3993,-2.56729,176.77,6.54785,-146.887,784
1569919427,313.99,87.3993,-2.56729,176.77,6.54785,-146.887,784
1569919427,313.99,87.3993,-2.56729,176.77,6.54785,-146.887,784
1569919427,313.99,87.3993,-2.56729,176.77,6.54785,-146.887,784
1569919427,313.99,87.3993,-2.56729,176.77,6.54785,-146.887,784
1569919427,313.99,87.3993,-2.56729,176.77,6.54785,-146.909,784
1569919427,313.99,87.3993,-2.56729,176.77,6.54785,-146.909,784
1569919427,313.99,87.3993,-2.67891,176.77,6.54785,-146.909,784
1569919427,313.99,87.3993,-2.67891,176.77,6.54785,-146.909,784
1569919427,313.99,87.3993,-2.67891,176.77,6.54785,-146.909,784
1569919427,313.99,87.3993,-2.67891,176.77,6.54785,-146.909,784
1569919427,313.99,87.3993,-2.67891,176.77,6.54785,-146.909,784
1569919427,313.99,87.3993,-2.67891,176.77,6.54785,-146.909,784
1569919427,313.99,87.3993,-2.67891,176.77,6.54785,-146.909,784
1569919427,314.102,87.3993,-2.67891,176.77,6.54785,-146.909,784
1569919427,314.102,87.3993,-2.67891,176.77,6.54785,-146.909,784
1569919427,314.102,87.3993,-2.67891,176.77,6.54785,-146.909,780
1569919427,314.102,87.3993,-2.67891,176.77,6.54785,-146.909,780
1569919427,314.102,87.3993,-2.67891,176.77,6.54785,-146.909,780
1569919427,314.102,87.3993,-2.67891,176.77,6.54785,-146.909,780
1569919427,314.102,87.3993,-2.67891,176.77,6.54785,-146.909,780
1569919427,314.102,87.3993,-2.67891,176.77,6.54785,-146.909,780
1569919427,314.102,87.3993,-2.67891,176.77,6.54785,-146.909,780
1569919427,314.102,87.3993,-2.67891,176.792,6.54785,-146.909,780
1569919427,314.102,87.3993,-2.67891,176.792,6.54785,-146.909,780
1569919427,314.102,87.3993,-2.67891,176.792,6.54785,-146.909,780
1569919427,314.102,87.3993,-2.67891,176.792,6.54785,-146.909,780
1569919427,314.102,87.3993,-2.56729,176.792,6.54785,-146.909,780
1569919427,314.102,87.3993,-2.56729,176.792,6.54785,-146.909,780
1569919427,314.102,87.3993,-2.67891,176.792,6.54785,-146.909,780
1569919427,314.102,87.3993,-2.67891,176.792,6.54785,-146.909,780
1569919427,314.102,87.3993,-2.67891,176.792,6.54785,-146.909,780
1569919427,314.102,87.3993,-2.67891,176.792,6.54785,-146.909,780
1569919427,314.102,87.3993,-2.67891,176.792,6.54785,-146.909,780
1569919427,314.102,87.3993,-2.67891,176.792,6.54785,-146.909,780
1569919427,314.102,87.3993,-2.67891,176.77,6.54785,-146.909,780
1569919427,314.102,87.3993,-2.67891,176.77,6.54785,-146.909,780
1569919427,314.102,87.3993,-2.67891,176.77,6.54785,-146.909,780
1569919427,314.102,87.3993,-2.67891,176.77,6.54785,-146.909,780
1569919427,314.102,87.3993,-2.67891,176.77,6.54785,-146.909,780
1569919427,314.102,87.3993,-2.67891,176.77,6.54785,-146.909,780
1569919427,314.102,87.3993,-2.67891,176.77,6.54785,-146.909,780
1569919427,314.102,87.3993,-2.67891,176.77,6.54785,-146.909,780
1569919427,314.102,87.3993,-2.67891,176.77,6.54785,-146.909,780
1569919427,314.102,87.3993,-2.67891,176.77,6.54785,-146.909,780
1569919427,314.102,87.3993,-2.67891,176.77,6.54785,-146.909,780
1569919427,314.102,87.3993,-2.67891,176.77,6.54785,-146.909,780
1569919427,314.102,87.3993,-2.67891,176.77,6.54785,-146.909,780
1569919427,314.102,87.3993,-2.67891,176.77,6.54785,-146.909,780
1569919427,314.102,87.3993,-2.67891,176.77,6.54785,-146.909,780
1569919427,314.102,87.3993,-2.67891,176.77,6.52588,-146.909,780
1569919427,314.102,87.3993,-2.67891,176.77,6.52588,-146.909,780
1569919427,314.102,87.3993,-2.67891,176.77,6.52588,-146.909,780
1569919427,314.102,87.3993,-2.67891,176.77,6.52588,-146.909,780
1569919427,314.102,87.3993,-2.67891,176.77,6.52588,-146.909,780
1569919427,314.102,87.3993,-2.67891,176.792,6.52588,-146.909,780
1569919427,314.102,87.3993,-2.67891,176.792,6.52588,-146.909,780
1569919427,314.102,87.3993,-2.67891,176.792,6.54785,-146.909,780
1569919427,314.102,87.3993,-2.67891,176.792,6.54785,-146.909,780
1569919427,314.102,87.3993,-2.67891,176.792,6.54785,-146.909,780
1569919427,314.102,87.3993,-2.67891,176.792,6.54785,-146.909,780
1569919427,314.102,87.3993,-2.67891,176.792,6.54785,-146.909,780
1569919428,314.102,87.3993,-2.67891,176.792,6.54785,-146.909,780
1569919428,314.102,87.3993,-2.67891,176.792,6.54785,-146.909,776
1569919428,314.102,87.3993,-2.67891,176.792,6.54785,-146.909,776
1569919428,314.102,87.3993,-2.67891,176.792,6.54785,-146.909,776
1569919428,314.102,87.3993,-2.67891,176.792,6.54785,-146.909,776
1569919428,314.102,87.3993,-2.67891,176.792,6.54785,-146.909,776
1569919428,314.102,87.3993,-2.67891,176.792,6.54785,-146.909,776
1569919428,314.102,87.3993,-2.67891,176.792,6.54785,-146.909,776
1569919428,314.102,87.3993,-2.67891,176.792,6.52588,-146.909,776
1569919428,314.102,87.3993,-2.67891,176.792,6.52588,-146.909,776
1569919428,314.102,87.3993,-2.67891,176.792,6.52588,-146.909,776
1569919428,314.102,87.3993,-2.67891,176.792,6.52588,-146.909,776
1569919428,314.102,87.3993,-2.67891,176.792,6.52588,-146.909,776
1569919428,314.102,87.3993,-2.67891,176.792,6.52588,-146.909,776
1569919428,314.102,87.3993,-2.67891,176.792,6.52588,-146.909,776
1569919428,314.102,87.3993,-2.67891,176.792,6.52588,-146.909,780
1569919428,314.102,87.3993,-2.67891,176.792,6.52588,-146.909,780
1569919428,314.102,87.3993,-2.67891,176.792,6.52588,-146.909,780
1569919428,314.102,87.3993,-2.67891,176.792,6.52588,-146.909,780
1569919428,314.102,87.3993,-2.67891,176.792,6.52588,-146.909,780
1569919428,314.102,87.3993,-2.67891,176.792,6.52588,-146.909,780
1569919428,314.102,87.3993,-2.67891,176.792,6.52588,-146.909,780
1569919428,314.102,87.3993,-2.67891,176.792,6.52588,-146.909,780
1569919428,314.102,87.3993,-2.67891,176.792,6.52588,-146.909,784
1569919428,314.102,87.3993,-2.67891,176.792,6.52588,-146.909,784
1569919428,314.102,87.3993,-2.67891,176.792,6.52588,-146.909,784
1569919428,314.102,87.3993,-2.67891,176.792,6.54785,-146.909,784
1569919428,314.102,87.3993,-2.67891,176.792,6.54785,-146.909,784
1569919428,314.102,87.3993,-2.67891,176.792,6.54785,-146.909,784
1569919428,314.102,87.3993,-2.67891,176.792,6.54785,-146.909,784
1569919428,314.102,87.3993,-2.67891,176.792,6.54785,-146.909,784
1569919428,314.102,87.3993,-2.67891,176.792,6.54785,-146.931,784
1569919428,314.102,87.3993,-2.67891,176.792,6.52588,-146.931,784
1569919428,314.102,87.3993,-2.67891,176.792,6.52588,-146.931,784
1569919428,314.102,87.3993,-2.67891,176.792,6.52588,-146.931,784
1569919428,314.102,87.3993,-2.67891,176.792,6.52588,-146.931,784
1569919428,314.102,87.3993,-2.67891,176.792,6.52588,-146.931,784
1569919428,314.102,87.3993,-2.67891,176.792,6.52588,-146.931,784
1569919428,314.102,87.3993,-2.67891,176.792,6.52588,-146.931,784
1569919428,314.102,87.3993,-2.67891,176.792,6.52588,-146.931,788
1569919428,314.102,87.3993,-2.67891,176.792,6.52588,-146.931,788
1569919428,314.102,87.3993,-2.67891,176.792,6.52588,-146.931,788
1569919428,314.102,87.3993,-2.67891,176.792,6.52588,-146.931,788
1569919428,314.102,87.5109,-2.67891,176.792,6.52588,-146.931,788
1569919428,314.102,87.5109,-2.67891,176.792,6.52588,-146.931,788
1569919428,314.102,87.5109,-2.67891,176.792,6.52588,-146.931,792
1569919428,314.102,87.5109,-2.67891,176.792,6.52588,-146.931,792
1569919428,314.102,87.5109,-2.67891,176.792,6.52588,-146.931,792
1569919428,314.102,87.5109,-2.67891,176.792,6.52588,-146.931,792
1569919428,314.102,87.5109,-2.67891,176.792,6.52588,-146.931,792
1569919428,314.102,87.5109,-2.67891,176.792,6.52588,-146.931,792
1569919428,314.102,87.5109,-2.67891,176.792,6.52588,-146.931,792
1569919428,314.102,87.5109,-2.67891,176.792,6.52588,-146.931,792
1569919428,314.102,87.5109,-2.67891,176.792,6.52588,-146.931,796
1569919428,314.102,87.5109,-2.67891,176.792,6.52588,-146.931,796
1569919428,314.102,87.3993,-2.67891,176.792,6.50391,-146.931,796
1569919428,314.102,87.3993,-2.67891,176.792,6.50391,-146.931,796
1569919428,314.102,87.3993,-2.67891,176.792,6.50391,-146.931,796
1569919428,314.102,87.3993,-2.67891,176.792,6.50391,-146.931,796
1569919428,314.102,87.3993,-2.67891,176.792,6.50391,-146.931,796
1569919428,314.102,87.3993,-2.67891,176.792,6.50391,-146.931,796
1569919428,314.102,87.3993,-2.67891,176.792,6.50391,-146.931,800
1569919428,314.102,87.3993,-2.67891,176.792,6.52588,-146.909,800
1569919428,314.102,87.3993,-2.67891,176.792,6.52588,-146.909,800
1569919428,314.102,87.3993,-2.67891,176.792,6.52588,-146.909,800
1569919428,314.102,87.3993,-2.67891,176.792,6.52588,-146.909,800
1569919428,314.102,87.3993,-2.67891,176.792,6.52588,-146.909,800
1569919428,314.102,87.3993,-2.67891,176.77,6.52588,-146.909,800
1569919428,314.102,87.3993,-2.67891,176.77,6.52588,-146.909,800
1569919428,314.102,87.3993,-2.67891,176.77,6.52588,-146.909,800
1569919428,314.102,87.3993,-2.67891,176.77,6.52588,-146.909,800
1569919428,314.102,87.3993,-2.67891,176.77,6.52588,-146.909,800
1569919428,314.102,87.3993,-2.67891,176.77,6.52588,-146.909,800
1569919428,314.102,87.3993,-2.67891,176.77,6.52588,-146.909,800
1569919428,314.102,87.3993,-2.67891,176.77,6.52588,-146.909,800
1569919428,314.102,87.3993,-2.67891,176.77,6.52588,-146.909,800
1569919428,314.102,87.3993,-2.67891,176.77,6.52588,-146.909,800
1569919428,314.102,87.3993,-2.67891,176.77,6.52588,-146.909,800
1569919428,314.102,87.3993,-2.67891,176.77,6.52588,-146.909,796
1569919428,314.102,87.3993,-2.67891,176.792,6.52588,-146.909,796
1569919428,314.102,87.3993,-2.67891,176.792,6.52588,-146.909,796
1569919428,314.102,87.3993,-2.67891,176.792,6.52588,-146.909,796
1569919428,314.102,87.3993,-2.67891,176.792,6.52588,-146.909,796
1569919428,314.102,87.3993,-2.67891,176.792,6.52588,-146.909,796
1569919428,314.102,87.3993,-2.67891,176.77,6.52588,-146.909,796
1569919428,314.102,87.3993,-2.67891,176.77,6.52588,-146.909,796
1569919428,314.102,87.3993,-2.67891,176.77,6.52588,-146.909,796
1569919428,314.102,87.3993,-2.67891,176.792,6.52588,-146.909,796
1569919428,314.102,87.3993,-2.67891,176.792,6.52588,-146.909,796
1569919428,314.102,87.3993,-2.67891,176.792,6.52588,-146.909,796
1569919428,314.102,87.3993,-2.67891,176.792,6.52588,-146.909,796
1569919428,314.102,87.3993,-2.67891,176.792,6.52588,-146.909,796
1569919428,314.102,87.3993,-2.67891,176.792,6.52588,-146.909,796
1569919428,314.102,87.3993,-2.67891,176.792,6.52588,-146.909,796
1569919428,314.102,87.3993,-2.67891,176.792,6.52588,-146.909,796
1569919428,314.102,87.3993,-2.67891,176.792,6.52588,-146.909,796
1569919428,314.102,87.3993,-2.67891,176.792,6.52588,-146.909,796
1569919428,314.102,87.3993,-2.67891,176.792,6.52588,-146.909,796
1569919428,314.102,87.3993,-2.67891,176.792,6.52588,-146.909,796
1569919428,314.102,87.3993,-2.67891,176.792,6.52588,-146.909,796
1569919429,314.102,87.3993,-2.79053,176.792,6.52588,-146.909,796
1569919429,314.102,87.3993,-2.79053,176.77,6.50391,-146.909,800
1569919429,314.102,87.3993,-2.79053,176.77,6.50391,-146.909,800
1569919429,314.102,87.3993,-2.79053,176.77,6.50391,-146.909,800
1569919429,314.102,87.3993,-2.79053,176.77,6.50391,-146.909,800
1569919429,314.102,87.3993,-2.79053,176.77,6.50391,-146.909,800
1569919429,314.102,87.3993,-2.79053,176.77,6.50391,-146.909,800
1569919429,314.102,87.3993,-2.79053,176.77,6.50391,-146.909,800
1569919429,314.102,87.3993,-2.79053,176.77,6.50391,-146.909,800
1569919429,314.102,87.3993,-2.79053,176.77,6.50391,-146.909,800
1569919429,314.102,87.3993,-2.79053,176.77,6.50391,-146.909,800
1569919429,314.102,87.3993,-2.79053,176.792,6.50391,-146.909,800
1569919429,314.102,87.3993,-2.79053,176.792,6.50391,-146.909,800
1569919429,314.102,87.3993,-2.79053,176.792,6.50391,-146.909,800
1569919429,314.102,87.3993,-2.79053,176.792,6.50391,-146.909,800
1569919429,314.102,87.3993,-2.67891,176.792,6.50391,-146.909,800
1569919429,314.102,87.5109,-2.67891,176.792,6.50391,-146.909,800
1569919429,314.102,87.5109,-2.67891,176.792,6.52588,-146.909,800
1569919429,314.102,87.5109,-2.67891,176.792,6.52588,-146.909,800
1569919429,314.102,87.5109,-2.67891,176.792,6.52588,-146.909,800
1569919429,314.102,87.5109,-2.67891,176.792,6.52588,-146.909,800
1569919429,314.102,87.5109,-2.67891,176.792,6.52588,-146.909,800
1569919429,314.102,87.5109,-2.67891,176.792,6.52588,-146.909,800
1569919429,314.102,87.5109,-2.67891,176.792,6.52588,-146.909,800
1569919429,314.102,87.5109,-2.67891,176.792,6.52588,-146.909,800
1569919429,314.102,87.5109,-2.67891,176.792,6.52588,-146.909,800
1569919429,314.102,87.5109,-2.67891,176.792,6.52588,-146.909,800
1569919429,314.102,87.5109,-2.67891,176.792,6.52588,-146.909,800
1569919429,314.102,87.3993,-2.67891,176.792,6.54785,-146.909,800
1569919429,314.102,87.3993,-2.67891,176.792,6.54785,-146.909,796
1569919429,314.102,87.3993,-2.67891,176.792,6.54785,-146.909,796
1569919429,314.102,87.3993,-2.67891,176.792,6.54785,-146.909,796
1569919429,314.102,87.3993,-2.67891,176.792,6.54785,-146.909,796
1569919429,314.102,87.3993,-2.67891,176.77,6.54785,-146.887,796
1569919429,314.102,87.3993,-2.67891,176.77,6.54785,-146.887,796
1569919429,314.102,87.3993,-2.67891,176.77,6.54785,-146.887,792
1569919429,314.102,87.3993,-2.67891,176.77,6.54785,-146.887,792
1569919429,314.102,87.3993,-2.67891,176.77,6.54785,-146.887,792
1569919429,314.102,87.3993,-2.67891,176.77,6.54785,-146.887,792
1569919429,314.102,87.3993,-2.67891,176.77,6.52588,-146.887,792
1569919429,314.102,87.3993,-2.67891,176.77,6.52588,-146.887,788
1569919429,314.102,87.3993,-2.67891,176.792,6.52588,-146.887,788
1569919429,314.102,87.3993,-2.67891,176.792,6.52588,-146.887,788
1569919429,314.102,87.3993,-2.67891,176.792,6.52588,-146.887,788
1569919429,314.102,87.3993,-2.67891,176.792,6.52588,-146.887,788
1569919429,314.102,87.3993,-2.67891,176.792,6.52588,-146.887,788
1569919429,314.102,87.3993,-2.67891,176.792,6.52588,-146.887,788
1569919429,314.102,87.3993,-2.67891,176.792,6.52588,-146.887,788
1569919429,314.102,87.3993,-2.67891,176.792,6.52588,-146.887,788
1569919429,314.102,87.3993,-2.67891,176.792,6.52588,-146.887,788
1569919429,313.99,87.3993,-2.67891,176.792,6.52588,-146.887,788
1569919429,313.99,87.3993,-2.67891,176.792,6.52588,-146.887,788
1569919429,313.99,87.3993,-2.67891,176.792,6.52588,-146.887,788
1569919429,313.99,87.3993,-2.67891,176.792,6.52588,-146.887,788
1569919429,313.99,87.3993,-2.67891,176.792,6.52588,-146.887,784
1569919429,313.99,87.3993,-2.67891,176.792,6.52588,-146.887,784
1569919429,313.99,87.3993,-2.67891,176.792,6.52588,-146.887,784
1569919429,313.99,87.3993,-2.67891,176.792,6.52588,-146.887,784
1569919429,313.99,87.3993,-2.67891,176.792,6.52588,-146.887,784
1569919429,313.99,87.3993,-2.67891,176.792,6.52588,-146.887,784
1569919429,313.99,87.3993,-2.67891,176.792,6.52588,-146.887,784
1569919429,313.99,87.3993,-2.67891,176.792,6.52588,-146.887,784
1569919429,313.99,87.3993,-2.67891,176.792,6.52588,-146.887,784
1569919429,314.102,87.3993,-2.67891,176.792,6.52588,-146.887,784
1569919429,313.99,87.3993,-2.67891,176.792,6.52588,-146.887,784
1569919429,313.99,87.3993,-2.67891,176.792,6.52588,-146.887,780
1569919429,313.99,87.3993,-2.67891,176.792,6.52588,-146.887,780
1569919429,313.99,87.3993,-2.67891,176.792,6.52588,-146.887,780
1569919429,314.102,87.3993,-2.67891,176.792,6.52588,-146.887,780
1569919429,314.102,87.3993,-2.67891,176.792,6.52588,-146.887,780
1569919429,314.102,87.3993,-2.67891,176.792,6.52588,-146.909,780
1569919429,314.102,87.3993,-2.67891,176.792,6.52588,-146.909,780
1569919429,314.102,87.3993,-2.67891,176.792,6.52588,-146.909,780
1569919429,314.102,87.3993,-2.67891,176.792,6.52588,-146.909,780
1569919429,314.102,87.3993,-2.67891,176.792,6.52588,-146.909,780
1569919429,314.102,87.3993,-2.67891,176.77,6.52588,-146.909,780
1569919429,314.102,87.3993,-2.67891,176.77,6.52588,-146.909,780
1569919429,314.102,87.3993,-2.67891,176.77,6.52588,-146.909,780
1569919429,314.102,87.3993,-2.67891,176.77,6.52588,-146.909,784
1569919429,314.102,87.3993,-2.67891,176.77,6.52588,-146.909,784
1569919429,314.102,87.3993,-2.67891,176.77,6.52588,-146.909,784
1569919429,314.102,87.3993,-2.67891,176.77,6.52588,-146.909,784
1569919429,314.102,87.3993,-2.67891,176.77,6.52588,-146.909,784
1569919429,314.102,87.3993,-2.67891,176.77,6.52588,-146.909,784
1569919429,314.102,87.3993,-2.67891,176.77,6.52588,-146.909,784
1569919429,314.102,87.3993,-2.67891,176.77,6.52588,-146.909,788
1569919429,314.102,87.3993,-2.67891,176.77,6.52588,-146.909,788
1569919429,314.102,87.3993,-2.67891,176.77,6.52588,-146.909,788
1569919429,314.102,87.3993,-2.67891,176.77,6.52588,-146.909,788
1569919429,314.102,87.3993,-2.67891,176.77,6.52588,-146.909,792
1569919429,314.102,87.3993,-2.67891,176.77,6.52588,-146.909,792
1569919429,314.102,87.3993,-2.67891,176.77,6.52588,-146.909,792
1569919429,314.102,87.3993,-2.67891,176.77,6.52588,-146.909,792
1569919429,314.102,87.3993,-2.67891,176.77,6.52588,-146.909,796
1569919429,314.102,87.3993,-2.67891,176.77,6.52588,-146.909,796
1569919429,314.102,87.3993,-2.67891,176.77,6.52588,-146.909,796
1569919429,314.102,87.3993,-2.67891,176.77,6.52588,-146.909,796
1569919429,314.102,87.3993,-2.67891,176.77,6.52588,-146.909,796
1569919429,314.102,87.3993,-2.67891,176.77,6.52588,-146.909,796
1569919429,314.102,87.3993,-2.67891,176.77,6.52588,-146.909,796
1569919429,314.102,87.3993,-2.67891,176.77,6.52588,-146.909,796
1569919430,314.102,87.3993,-2.67891,176.77,6.52588,-146.909,796
1569919430,314.102,87.3993,-2.67891,176.77,6.52588,-146.909,796
1569919430,314.102,87.3993,-2.67891,176.77,6.52588,-146.909,796
1569919430,314.102,87.3993,-2.67891,176.77,6.52588,-146.909,796
1569919430,314.102,87.3993,-2.67891,176.77,6.52588,-146.909,796
1569919430,314.102,87.3993,-2.67891,176.77,6.52588,-146.909,796
1569919430,314.102,87.3993,-2.67891,176.77,6.52588,-146.909,796
1569919430,314.102,87.3993,-2.67891,176.77,6.50391,-146.909,796
1569919430,314.102,87.3993,-2.67891,176.77,6.50391,-146.909,796
1569919430,314.102,87.3993,-2.67891,176.77,6.50391,-146.909,796
1569919430,314.102,87.3993,-2.67891,176.77,6.50391,-146.909,796
1569919430,314.102,87.3993,-2.67891,176.77,6.50391,-146.909,796
1569919430,314.102,87.3993,-2.67891,176.77,6.50391,-146.909,796
1569919430,314.102,87.3993,-2.67891,176.77,6.50391,-146.909,796
1569919430,314.102,87.3993,-2.67891,176.77,6.50391,-146.909,796
1569919430,314.102,87.3993,-2.67891,176.77,6.50391,-146.909,792
1569919430,314.102,87.3993,-2.67891,176.77,6.50391,-146.909,792
1569919430,314.102,87.3993,-2.67891,176.77,6.50391,-146.909,792
1569919430,314.102,87.3993,-2.67891,176.77,6.50391,-146.909,792
1569919430,314.102,87.3993,-2.67891,176.77,6.50391,-146.909,792
1569919430,314.102,87.3993,-2.79053,176.77,6.50391,-146.887,792
1569919430,314.102,87.3993,-2.79053,176.77,6.50391,-146.887,792
1569919430,314.102,87.3993,-2.79053,176.77,6.50391,-146.887,792
1569919430,314.102,87.3993,-2.79053,176.77,6.50391,-146.887,792
1569919430,314.102,87.3993,-2.79053,176.77,6.50391,-146.887,792
1569919430,314.102,87.3993,-2.79053,176.77,6.50391,-146.887,792
1569919430,314.102,87.3993,-2.79053,176.77,6.50391,-146.887,792
1569919430,314.102,87.3993,-2.79053,176.77,6.50391,-146.887,792
1569919430,314.102,87.3993,-2.79053,176.77,6.50391,-146.887,792
1569919430,314.102,87.3993,-2.79053,176.77,6.50391,-146.909,792
1569919430,314.102,87.3993,-2.79053,176.77,6.50391,-146.909,792
1569919430,314.102,87.3993,-2.67891,176.77,6.50391,-146.909,788
1569919430,314.102,87.3993,-2.67891,176.77,6.50391,-146.909,788
1569919430,313.99,87.3993,-2.67891,176.77,6.50391,-146.909,788
1569919430,313.99,87.3993,-2.67891,176.77,6.50391,-146.909,788
1569919430,313.99,87.3993,-2.67891,176.77,6.50391,-146.909,788
1569919430,313.99,87.3993,-2.67891,176.77,6.50391,-146.909,788
1569919430,313.99,87.3993,-2.67891,176.77,6.52588,-146.909,788
1569919430,313.99,87.3993,-2.67891,176.77,6.52588,-146.909,788
1569919430,313.99,87.3993,-2.67891,176.77,6.52588,-146.909,788
1569919430,313.99,87.3993,-2.67891,176.77,6.52588,-146.909,788
1569919430,313.99,87.3993,-2.67891,176.77,6.52588,-146.909,788
1569919430,313.99,87.3993,-2.67891,176.77,6.52588,-146.909,788
1569919430,314.102,87.3993,-2.67891,176.77,6.52588,-146.909,784
1569919430,314.102,87.3993,-2.67891,176.77,6.52588,-146.909,784
1569919430,314.102,87.3993,-2.67891,176.77,6.52588,-146.909,784
1569919430,314.102,87.3993,-2.67891,176.77,6.52588,-146.909,784
1569919430,314.102,87.3993,-2.67891,176.77,6.52588,-146.909,784
1569919430,314.102,87.3993,-2.67891,176.77,6.52588,-146.909,784
1569919430,314.102,87.3993,-2.67891,176.77,6.52588,-146.909,784
1569919430,314.102,87.3993,-2.67891,176.77,6.52588,-146.909,784
1569919430,314.102,87.3993,-2.67891,176.77,6.52588,-146.909,784
1569919430,314.102,87.3993,-2.67891,176.77,6.52588,-146.909,784
1569919430,314.102,87.3993,-2.67891,176.77,6.52588,-146.909,784
1569919430,314.102,87.3993,-2.67891,176.77,6.52588,-146.909,784
1569919430,314.102,87.3993,-2.67891,176.77,6.52588,-146.909,784
1569919430,314.102,87.3993,-2.67891,176.77,6.52588,-146.909,784
1569919430,314.102,87.3993,-2.67891,176.77,6.52588,-146.909,784
1569919430,314.102,87.3993,-2.67891,176.77,6.52588,-146.909,784
1569919430,314.102,87.3993,-2.67891,176.77,6.52588,-146.909,784
1569919430,314.102,87.3993,-2.67891,176.77,6.52588,-146.909,784
1569919430,314.102,87.3993,-2.67891,176.77,6.52588,-146.909,784
1569919430,314.102,87.3993,-2.67891,176.77,6.52588,-146.909,784
1569919430,314.102,87.3993,-2.67891,176.748,6.52588,-146.909,784
1569919430,314.102,87.3993,-2.67891,176.748,6.52588,-146.909,784
1569919430,314.102,87.3993,-2.67891,176.748,6.52588,-146.909,788
1569919430,314.102,87.3993,-2.67891,176.748,6.52588,-146.909,788
1569919430,314.102,87.3993,-2.67891,176.748,6.52588,-146.909,788
1569919430,314.102,87.3993,-2.67891,176.748,6.52588,-146.909,788
1569919430,314.102,87.3993,-2.67891,176.77,6.52588,-146.909,788
1569919430,314.102,87.3993,-2.67891,176.77,6.52588,-146.909,788
1569919430,314.102,87.3993,-2.67891,176.77,6.52588,-146.909,784
1569919430,314.102,87.3993,-2.67891,176.77,6.52588,-146.909,784
1569919430,314.102,87.3993,-2.67891,176.77,6.52588,-146.909,784
1569919430,314.102,87.3993,-2.67891,176.77,6.52588,-146.909,784
1569919430,314.102,87.3993,-2.67891,176.77,6.52588,-146.909,784
1569919430,314.102,87.3993,-2.67891,176.77,6.52588,-146.909,784
1569919430,314.102,87.3993,-2.67891,176.77,6.52588,-146.909,784
1569919434,290.773,111.509,-4.12998,176.44,5.97656,-147.327,496
1569919434,290.773,111.509,-4.12998,176.44,5.97656,-147.327,496
1569919434,290.773,111.509,-4.12998,176.418,5.97656,-147.327,496
1569919434,290.773,111.509,-4.12998,176.418,5.97656,-147.327,496
1569919434,290.773,111.509,-4.12998,176.418,5.97656,-147.327,496
1569919434,290.773,111.509,-4.12998,176.418,5.97656,-147.327,496
1569919434,290.773,111.509,-4.12998,176.418,5.97656,-147.327,496
1569919434,290.773,111.509,-4.12998,176.418,5.97656,-147.327,496
1569919434,290.773,111.509,-4.12998,176.418,5.97656,-147.327,496
1569919434,290.773,111.509,-4.12998,176.418,5.97656,-147.327,496
1569919434,290.773,111.509,-4.12998,176.418,5.97656,-147.327,496
1569919434,290.773,111.509,-4.12998,176.418,5.97656,-147.327,496
1569919434,290.773,111.509,-4.12998,176.418,5.97656,-147.327,496
1569919434,290.773,111.509,-4.12998,176.418,5.97656,-147.327,496
1569919434,290.773,111.509,-4.12998,176.418,5.97656,-147.327,496
1569919434,290.773,111.509,-4.12998,176.418,5.95459,-147.327,496
1569919434,290.773,111.509,-4.12998,176.418,5.95459,-147.327,492
1569919434,290.773,111.509,-4.12998,176.418,5.95459,-147.327,492
1569919434,290.773,111.509,-4.12998,176.418,5.95459,-147.327,492
1569919434,290.773,111.509,-4.12998,176.418,5.95459,-147.327,492
1569919434,290.773,111.509,-4.12998,176.418,5.97656,-147.327,492
1569919434,290.773,111.509,-4.12998,176.418,5.97656,-147.327,492
1569919434,290.773,111.509,-4.12998,176.418,5.97656,-147.327,492
1569919434,290.773,111.509,-4.12998,176.418,5.97656,-147.327,492
1569919434,290.773,111.509,-4.12998,176.418,5.97656,-147.327,492
1569919434,290.773,111.509,-4.12998,176.44,5.97656,-147.327,492
1569919434,290.773,111.621,-4.12998,176.44,5.97656,-147.327,492
1569919434,290.773,111.621,-4.12998,176.44,5.97656,-147.327,492
1569919434,290.773,111.621,-4.01836,176.44,5.97656,-147.327,492
1569919434,290.773,111.621,-4.01836,176.44,5.97656,-147.327,492
1569919434,290.773,111.509,-4.01836,176.418,5.97656,-147.327,492
1569919434,290.773,111.509,-4.01836,176.418,5.97656,-147.327,492
1569919434,290.773,111.509,-4.01836,176.418,5.97656,-147.327,492
1569919434,290.773,111.509,-4.01836,176.418,5.97656,-147.327,496
1569919434,290.773,111.509,-4.01836,176.418,5.97656,-147.327,496
1569919434,290.773,111.509,-4.12998,176.418,5.97656,-147.327,496
1569919434,290.773,111.509,-4.12998,176.418,5.97656,-147.327,496
1569919434,290.773,111.509,-4.12998,176.418,5.97656,-147.327,496
1569919434,290.773,111.509,-4.12998,176.418,5.97656,-147.327,496
1569919434,290.773,111.509,-4.12998,176.418,5.97656,-147.327,496
1569919434,290.773,111.509,-4.12998,176.418,5.97656,-147.327,500
1569919434,290.773,111.509,-4.12998,176.418,5.97656,-147.327,500
1569919434,290.773,111.509,-4.12998,176.418,5.97656,-147.327,500
1569919434,290.773,111.509,-4.12998,176.418,5.97656,-147.327,500
1569919434,290.773,111.509,-4.12998,176.418,5.97656,-147.327,500
1569919434,290.773,111.509,-4.12998,176.418,5.97656,-147.327,500
1569919434,290.773,111.509,-4.12998,176.418,5.95459,-147.327,500
1569919434,290.773,111.509,-4.12998,176.418,5.95459,-147.327,500
1569919434,290.773,111.509,-4.12998,176.418,5.95459,-147.327,500
1569919434,290.773,111.509,-4.12998,176.418,5.95459,-147.327,500
1569919434,290.773,111.509,-4.12998,176.418,5.95459,-147.327,500
1569919434,290.773,111.509,-4.12998,176.418,5.95459,-147.327,500
1569919434,290.773,111.509,-4.12998,176.418,5.95459,-147.349,500
1569919434,290.773,111.509,-4.12998,176.418,5.95459,-147.349,500
1569919434,290.773,111.509,-4.12998,176.418,5.95459,-147.349,500
1569919435,290.773,111.509,-4.12998,176.418,5.95459,-147.349,500
1569919435,290.773,111.509,-4.12998,176.418,5.95459,-147.349,500
1569919435,290.773,111.509,-4.12998,176.418,5.95459,-147.349,500
1569919435,290.773,111.509,-4.12998,176.418,5.95459,-147.349,500
1569919435,290.773,111.509,-4.12998,176.418,5.95459,-147.349,500
1569919435,290.773,111.509,-4.12998,176.418,5.95459,-147.349,500
1569919435,290.773,111.509,-4.12998,176.418,5.95459,-147.349,500
1569919435,290.773,111.509,-4.12998,176.418,5.95459,-147.349,500
1569919435,290.885,111.509,-4.12998,176.418,5.95459,-147.349,500
1569919435,290.773,111.509,-4.12998,176.418,5.95459,-147.349,500
1569919435,290.773,111.509,-4.12998,176.44,5.95459,-147.349,500
1569919435,290.773,111.509,-4.12998,176.44,5.95459,-147.349,500
1569919435,290.773,111.509,-4.12998,176.44,5.95459,-147.349,500
1569919435,290.773,111.621,-4.12998,176.44,5.95459,-147.349,500
1569919435,290.773,111.621,-4.12998,176.44,5.95459,-147.349,500
1569919435,290.773,111.621,-4.12998,176.44,5.95459,-147.349,500
1569919435,290.773,111.621,-4.12998,176.44,5.95459,-147.349,500
1569919435,290.773,111.621,-4.12998,176.44,5.95459,-147.349,500
1569919435,290.773,111.621,-4.12998,176.44,5.95459,-147.327,500
1569919435,290.773,111.621,-4.12998,176.44,5.95459,-147.327,500
1569919435,290.773,111.621,-4.12998,176.44,5.95459,-147.327,500
1569919435,290.773,111.621,-4.12998,176.44,5.95459,-147.327,500
1569919435,290.773,111.621,-4.12998,176.44,5.95459,-147.327,500
1569919435,290.773,111.621,-4.12998,176.44,5.95459,-147.327,500
1569919435,290.773,111.621,-4.12998,176.44,5.95459,-147.327,500
1569919435,290.773,111.621,-4.12998,176.462,5.95459,-147.327,500
1569919435,290.773,111.621,-4.12998,176.462,5.95459,-147.327,500
1569919435,290.773,111.621,-4.12998,176.462,5.95459,-147.327,500
1569919435,290.773,111.621,-4.12998,176.462,5.95459,-147.327,504
1569919435,290.773,111.621,-4.12998,176.462,5.95459,-147.327,504
1569919435,290.773,111.621,-4.12998,176.462,5.95459,-147.327,504
1569919435,290.773,111.621,-4.12998,176.462,5.95459,-147.327,504
1569919435,290.885,111.621,-4.12998,176.462,5.97656,-147.327,504
1569919435,290.885,111.621,-4.12998,176.462,5.97656,-147.327,504
1569919435,290.885,111.621,-4.12998,176.462,5.97656,-147.327,504
1569919435,290.885,111.621,-4.12998,176.462,5.97656,-147.327,508
1569919435,290.885,111.621,-4.12998,176.462,5.97656,-147.327,508
1569919435,290.885,111.621,-4.12998,176.462,5.97656,-147.327,508
1569919435,290.885,111.621,-4.12998,176.462,5.97656,-147.327,508
1569919435,290.885,111.621,-4.12998,176.462,5.97656,-147.327,508
1569919435,290.885,111.621,-4.12998,176.44,5.97656,-147.327,508
1569919435,290.885,111.621,-4.12998,176.44,5.97656,-147.327,508
1569919435,290.885,111.621,-4.12998,176.44,5.97656,-147.327,508
1569919435,290.885,111.621,-4.12998,176.44,5.97656,-147.327,508
1569919435,290.773,111.621,-4.12998,176.44,5.97656,-147.327,508
1569919435,290.773,111.621,-4.12998,176.44,5.97656,-147.327,508
1569919435,290.773,111.621,-4.12998,176.44,5.97656,-147.327,508
1569919435,290.773,111.621,-4.12998,176.44,5.97656,-147.327,508
1569919435,290.773,111.621,-4.12998,176.44,5.97656,-147.327,508
1569919435,290.773,111.621,-4.12998,176.44,5.97656,-147.327,508
1569919435,290.885,111.621,-4.12998,176.44,5.97656,-147.327,508
1569919435,290.885,111.621,-4.12998,176.44,5.97656,-147.327,508
1569919435,290.885,111.621,-4.12998,176.44,5.97656,-147.327,508
1569919435,290.885,111.621,-4.12998,176.44,5.97656,-147.327,508
1569919435,290.885,111.621,-4.01836,176.44,5.97656,-147.327,508
1569919435,290.885,111.621,-4.01836,176.44,5.97656,-147.327,508
1569919435,290.885,111.621,-4.12998,176.44,5.97656,-147.327,508
1569919435,290.885,111.621,-4.12998,176.44,5.97656,-147.327,508
1569919435,290.885,111.621,-4.12998,176.44,5.97656,-147.327,508
1569919435,290.885,111.621,-4.12998,176.44,5.97656,-147.327,508
1569919435,290.885,111.621,-4.12998,176.44,5.97656,-147.327,512
1569919435,290.885,111.621,-4.12998,176.44,5.97656,-147.327,512
1569919435,290.885,111.621,-4.12998,176.44,5.97656,-147.349,512
1569919435,290.885,111.621,-4.12998,176.44,5.97656,-147.349,512
1569919435,290.885,111.621,-4.12998,176.44,5.97656,-147.349,512
1569919435,290.885,111.621,-4.12998,176.44,5.97656,-147.349,512
1569919435,290.885,111.621,-4.12998,176.44,5.97656,-147.349,512
1569919435,290.885,111.621,-4.12998,176.44,5.97656,-147.349,512
1569919435,290.885,111.621,-4.12998,176.44,5.97656,-147.349,512
1569919435,290.885,111.621,-4.12998,176.44,5.97656,-147.349,512
1569919435,290.885,111.621,-4.12998,176.44,5.97656,-147.349,512
1569919435,290.885,111.621,-4.12998,176.44,5.97656,-147.349,512
1569919435,290.773,111.621,-4.12998,176.44,5.95459,-147.349,512
1569919435,290.773,111.621,-4.12998,176.44,5.95459,-147.349,512
1569919435,290.773,111.621,-4.12998,176.44,5.95459,-147.349,512
1569919435,290.773,111.621,-4.12998,176.44,5.95459,-147.349,512
1569919435,290.773,111.621,-4.12998,176.44,5.97656,-147.349,512
1569919435,290.773,111.621,-4.12998,176.44,5.97656,-147.349,508
1569919435,290.773,111.621,-4.12998,176.44,5.97656,-147.349,508
1569919435,290.773,111.621,-4.12998,176.44,5.97656,-147.349,508
1569919435,290.773,111.621,-4.12998,176.44,5.97656,-147.349,508
1569919435,290.773,111.621,-4.12998,176.44,5.97656,-147.349,508
1569919435,290.773,111.621,-4.01836,176.418,5.97656,-147.349,508
1569919435,290.773,111.621,-4.01836,176.418,5.97656,-147.349,504
1569919435,290.773,111.621,-4.01836,176.418,5.97656,-147.349,504
1569919435,290.773,111.621,-4.01836,176.418,5.97656,-147.349,504
1569919435,290.773,111.621,-4.01836,176.418,5.97656,-147.349,504
1569919435,290.773,111.621,-4.01836,176.418,5.97656,-147.349,504
1569919435,290.885,111.509,-4.01836,176.418,5.97656,-147.349,504
1569919435,290.885,111.509,-4.01836,176.418,5.97656,-147.349,504
1569919435,290.885,111.509,-4.01836,176.418,5.97656,-147.349,504
1569919435,290.885,111.621,-4.01836,176.418,5.97656,-147.349,504
1569919435,290.885,111.621,-4.01836,176.418,5.97656,-147.349,504
1569919435,290.885,111.621,-4.01836,176.418,5.97656,-147.349,504
1569919435,290.885,111.621,-4.01836,176.418,5.97656,-147.349,504
1569919435,290.885,111.621,-4.01836,176.44,5.97656,-147.349,504
1569919435,290.885,111.621,-4.01836,176.44,5.97656,-147.349,504
1569919435,290.885,111.621,-4.01836,176.44,5.97656,-147.349,504
1569919435,290.885,111.621,-4.01836,176.44,5.97656,-147.349,504
1569919435,290.885,111.621,-4.01836,176.44,5.99854,-147.327,504
1569919436,290.885,111.621,-4.01836,176.44,5.99854,-147.327,504
1569919436,290.885,111.621,-4.01836,176.44,5.99854,-147.327,504
1569919436,290.885,111.621,-4.01836,176.44,5.99854,-147.327,504
1569919436,290.885,111.621,-4.01836,176.44,5.99854,-147.327,504
1569919436,290.885,111.621,-4.01836,176.44,5.99854,-147.327,504
1569919436,290.885,111.621,-4.01836,176.44,5.99854,-147.327,504
1569919436,290.885,111.621,-4.01836,176.44,5.99854,-147.327,504
1569919436,290.885,111.621,-4.01836,176.44,5.99854,-147.327,504
1569919436,290.885,111.621,-4.01836,176.44,5.99854,-147.327,504
1569919436,290.885,111.621,-4.01836,176.44,5.99854,-147.327,504
1569919436,290.885,111.621,-4.01836,176.44,5.99854,-147.327,504
1569919436,290.885,111.621,-4.01836,176.44,5.99854,-147.327,504
1569919436,290.885,111.621,-4.01836,176.44,5.99854,-147.327,504
1569919436,290.885,111.621,-4.01836,176.44,5.99854,-147.327,504
1569919436,290.773,111.621,-4.01836,176.44,5.99854,-147.327,504
1569919436,290.773,111.621,-4.01836,176.44,5.99854,-147.327,500
1569919436,290.773,111.621,-4.01836,176.44,5.99854,-147.327,500
1569919436,290.773,111.621,-4.01836,176.44,5.99854,-147.327,500
1569919436,290.773,111.621,-4.01836,176.44,5.99854,-147.327,500
1569919436,290.773,111.621,-4.01836,176.44,5.99854,-147.327,500
1569919436,290.773,111.621,-4.01836,176.44,5.99854,-147.327,496
1569919436,290.773,111.621,-4.01836,176.44,5.99854,-147.327,496
1569919436,290.773,111.621,-4.01836,176.44,5.99854,-147.327,496
1569919436,290.773,111.621,-4.01836,176.44,5.99854,-147.327,496
1569919436,290.773,111.621,-4.01836,176.44,5.99854,-147.327,496
1569919436,290.773,111.509,-4.01836,176.44,5.99854,-147.327,492
1569919436,290.773,111.509,-4.01836,176.44,5.99854,-147.327,492
1569919436,290.773,111.509,-4.01836,176.418,5.99854,-147.327,492
1569919436,290.773,111.509,-4.01836,176.418,5.99854,-147.327,492
1569919436,290.773,111.509,-4.01836,176.418,5.99854,-147.327,492
1569919436,290.773,111.621,-4.01836,176.44,5.99854,-147.327,492
1569919436,290.773,111.621,-4.01836,176.44,5.99854,-147.327,492
1569919436,290.773,111.621,-4.01836,176.44,5.99854,-147.327,492
1569919436,290.773,111.621,-4.01836,176.44,5.99854,-147.327,492
1569919436,290.773,111.621,-4.01836,176.44,5.99854,-147.327,492
1569919436,290.773,111.621,-4.01836,176.44,5.99854,-147.349,492
1569919436,290.773,111.621,-4.01836,176.44,5.99854,-147.349,492
1569919436,290.773,111.621,-4.01836,176.44,5.99854,-147.349,492
1569919436,290.773,111.621,-4.01836,176.44,5.99854,-147.349,492
1569919436,290.773,111.621,-4.01836,176.44,5.99854,-147.349,492
1569919436,290.773,111.621,-4.01836,176.44,5.99854,-147.349,492
1569919436,290.773,111.621,-4.01836,176.44,5.99854,-147.349,492
1569919436,290.773,111.621,-4.01836,176.44,5.99854,-147.349,492
1569919436,290.773,111.621,-4.01836,176.44,5.99854,-147.349,496
1569919436,290.773,111.621,-4.01836,176.44,5.99854,-147.349,496
1569919436,290.773,111.621,-4.01836,176.44,5.99854,-147.349,496
1569919436,290.773,111.621,-4.01836,176.44,5.97656,-147.349,496
1569919436,290.773,111.621,-4.01836,176.44,5.97656,-147.349,496
1569919436,290.885,111.621,-4.01836,176.44,5.97656,-147.349,496
1569919436,290.885,111.621,-4.01836,176.44,5.97656,-147.349,496
1569919436,290.885,111.621,-4.01836,176.418,5.97656,-147.349,500
1569919436,290.885,111.621,-4.01836,176.418,5.97656,-147.349,500
1569919436,290.885,111.621,-4.01836,176.418,5.97656,-147.349,500
1569919436,290.885,111.621,-4.01836,176.44,5.97656,-147.349,500
1569919436,290.885,111.621,-4.01836,176.44,5.97656,-147.349,500
1569919436,290.885,111.621,-4.01836,176.44,5.97656,-147.349,500
1569919436,290.885,111.621,-4.01836,176.44,5.97656,-147.349,500
1569919436,290.885,111.621,-4.01836,176.44,5.99854,-147.349,500
1569919436,290.773,111.621,-4.01836,176.44,5.99854,-147.349,500
1569919436,290.773,111.621,-4.01836,176.44,5.99854,-147.349,500
1569919436,290.773,111.621,-4.01836,176.44,5.99854,-147.349,500
1569919436,290.773,111.621,-4.01836,176.44,5.99854,-147.349,500
1569919436,290.773,111.621,-4.01836,176.44,5.99854,-147.349,500
1569919436,290.773,111.621,-4.01836,176.44,5.99854,-147.349,500
1569919436,290.773,111.621,-4.01836,176.44,5.99854,-147.349,500
1569919436,290.773,111.621,-4.01836,176.44,5.97656,-147.349,500
1569919436,290.773,111.621,-4.01836,176.44,5.97656,-147.349,500
1569919436,290.773,111.621,-4.01836,176.44,5.97656,-147.349,500
1569919436,290.773,111.621,-4.01836,176.44,5.97656,-147.349,500
1569919436,290.773,111.621,-4.01836,176.44,5.97656,-147.349,500
1569919436,290.773,111.621,-4.01836,176.44,5.97656,-147.349,500
1569919436,290.773,111.621,-4.01836,176.44,5.97656,-147.349,500
1569919436,290.773,111.621,-4.01836,176.44,5.97656,-147.349,500
1569919436,290.773,111.621,-4.01836,176.44,5.97656,-147.349,500
1569919436,290.773,111.621,-4.01836,176.44,5.97656,-147.349,500
1569919436,290.773,111.621,-4.01836,176.44,5.97656,-147.327,500
1569919436,290.773,111.621,-4.01836,176.44,5.97656,-147.327,500
1569919436,290.773,111.621,-4.01836,176.44,5.97656,-147.327,500
1569919436,290.773,111.621,-4.01836,176.44,5.97656,-147.327,500
1569919436,290.773,111.621,-4.01836,176.44,5.97656,-147.327,500
1569919436,290.773,111.621,-4.01836,176.44,5.97656,-147.349,504
1569919436,290.773,111.621,-4.01836,176.44,5.97656,-147.349,504
1569919436,290.773,111.621,-4.01836,176.44,5.97656,-147.349,504
1569919436,290.773,111.621,-4.01836,176.44,5.97656,-147.349,504
1569919436,290.773,111.621,-4.01836,176.44,5.97656,-147.349,504
1569919436,290.773,111.621,-4.01836,176.44,5.97656,-147.327,504
1569919436,290.773,111.621,-4.01836,176.44,5.97656,-147.327,504
1569919436,290.773,111.621,-4.01836,176.44,5.97656,-147.327,504
1569919436,290.773,111.621,-4.01836,176.44,5.97656,-147.327,504
1569919436,290.773,111.621,-4.01836,176.44,5.97656,-147.327,504
1569919436,290.773,111.621,-4.01836,176.44,5.97656,-147.327,504
1569919436,290.773,111.621,-4.01836,176.44,5.97656,-147.327,504
1569919436,290.773,111.621,-4.01836,176.44,5.97656,-147.327,504
1569919436,290.773,111.621,-4.01836,176.44,5.97656,-147.327,500
1569919436,290.773,111.621,-4.01836,176.44,5.97656,-147.327,500
1569919436,290.773,111.621,-4.01836,176.44,5.97656,-147.327,500
1569919436,290.773,111.621,-4.01836,176.44,5.97656,-147.327,500
1569919436,290.773,111.621,-4.01836,176.44,5.97656,-147.327,500
1569919436,290.773,111.621,-4.01836,176.44,5.97656,-147.327,500
1569919436,290.773,111.621,-4.01836,176.44,5.97656,-147.327,500
1569919437,290.773,111.621,-4.01836,176.44,5.97656,-147.327,500
1569919437,290.773,111.621,-4.01836,176.44,5.97656,-147.327,500
1569919437,290.773,111.621,-4.01836,176.44,5.97656,-147.327,500
1569919437,290.773,111.621,-4.01836,176.44,5.97656,-147.327,500
1569919437,290.773,111.621,-4.01836,176.44,5.97656,-147.327,500
1569919437,290.773,111.621,-4.01836,176.44,5.97656,-147.327,500
1569919437,290.773,111.621,-4.12998,176.44,5.97656,-147.327,500
1569919437,290.773,111.621,-4.12998,176.44,5.97656,-147.327,500
1569919437,290.773,111.621,-4.12998,176.44,5.97656,-147.327,500
1569919437,290.773,111.621,-4.12998,176.44,5.97656,-147.327,500
1569919437,290.773,111.621,-4.12998,176.44,5.97656,-147.327,500
1569919437,290.773,111.621,-4.12998,176.44,5.95459,-147.327,500
1569919437,290.773,111.621,-4.12998,176.44,5.95459,-147.327,500
1569919437,290.773,111.621,-4.12998,176.44,5.95459,-147.327,500
1569919437,290.773,111.621,-4.12998,176.44,5.95459,-147.327,500
1569919437,290.773,111.621,-4.12998,176.44,5.95459,-147.327,500
1569919437,290.773,111.621,-4.12998,176.44,5.95459,-147.327,500
1569919437,290.773,111.621,-4.12998,176.44,5.95459,-147.327,500
1569919437,290.773,111.621,-4.12998,176.44,5.95459,-147.327,500
1569919437,290.773,111.621,-4.12998,176.44,5.95459,-147.327,500
1569919437,290.773,111.621,-4.12998,176.44,5.97656,-147.327,500
1569919437,290.773,111.621,-4.12998,176.44,5.97656,-147.327,500
1569919437,290.773,111.621,-4.12998,176.44,5.97656,-147.327,500
1569919437,290.773,111.621,-4.12998,176.44,5.97656,-147.327,500
1569919437,290.773,111.621,-4.12998,176.44,5.97656,-147.327,500
1569919437,290.773,111.621,-4.12998,176.44,5.97656,-147.327,500
1569919437,290.773,111.621,-4.12998,176.44,5.97656,-147.327,500
1569919437,290.773,111.621,-4.12998,176.44,5.97656,-147.327,500
1569919437,290.773,111.621,-4.12998,176.44,5.97656,-147.327,500
1569919437,290.773,111.621,-4.12998,176.44,5.97656,-147.327,500
1569919437,290.773,111.621,-4.12998,176.44,5.95459,-147.327,500
1569919437,290.773,111.621,-4.12998,176.44,5.95459,-147.327,500
1569919437,290.773,111.621,-4.12998,176.44,5.95459,-147.327,500
1569919437,290.773,111.621,-4.12998,176.44,5.95459,-147.327,500
1569919437,290.773,111.621,-4.12998,176.44,5.95459,-147.327,500
1569919437,290.773,111.621,-4.12998,176.44,5.95459,-147.349,500
1569919437,290.773,111.621,-4.12998,176.44,5.95459,-147.349,500
1569919437,290.773,111.621,-4.12998,176.44,5.95459,-147.349,500
1569919437,290.773,111.621,-4.12998,176.44,5.95459,-147.349,500
1569919437,290.773,111.621,-4.12998,176.44,5.95459,-147.349,500
1569919437,290.773,111.621,-4.12998,176.44,5.95459,-147.349,504
1569919437,290.773,111.621,-4.12998,176.44,5.97656,-147.349,504
1569919437,290.773,111.621,-4.12998,176.44,5.97656,-147.349,504
1569919437,290.773,111.621,-4.12998,176.44,5.97656,-147.349,504
1569919437,290.773,111.621,-4.12998,176.44,5.97656,-147.349,504
1569919437,290.773,111.621,-4.12998,176.44,5.97656,-147.349,504
1569919437,290.773,111.621,-4.12998,176.44,5.97656,-147.349,504
1569919437,290.773,111.621,-4.12998,176.44,5.97656,-147.349,504
1569919437,290.773,111.621,-4.12998,176.44,5.97656,-147.349,504
1569919437,290.773,111.621,-4.12998,176.44,5.97656,-147.349,504
1569919437,290.773,111.621,-4.12998,176.44,5.97656,-147.349,504
1569919437,290.773,111.621,-4.12998,176.44,5.97656,-147.349,504
1569919437,290.773,111.621,-4.12998,176.44,5.95459,-147.349,504
1569919437,290.773,111.621,-4.12998,176.44,5.95459,-147.349,504
1569919437,290.773,111.621,-4.12998,176.44,5.95459,-147.349,504
1569919437,290.773,111.621,-4.12998,176.44,5.95459,-147.349,504
1569919437,290.773,111.621,-4.12998,176.44,5.95459,-147.327,504
1569919437,290.773,111.621,-4.12998,176.44,5.95459,-147.327,504
1569919437,290.773,111.621,-4.12998,176.44,5.95459,-147.327,504
1569919437,290.773,111.621,-4.12998,176.44,5.95459,-147.327,504
1569919437,290.773,111.621,-4.12998,176.462,5.97656,-147.327,504
1569919437,290.773,111.621,-4.12998,176.462,5.97656,-147.327,500
1569919437,290.773,111.621,-4.12998,176.462,5.97656,-147.327,500
1569919437,290.773,111.621,-4.12998,176.462,5.97656,-147.327,500
1569919437,290.773,111.621,-4.12998,176.462,5.97656,-147.327,500
1569919437,290.773,111.621,-4.12998,176.462,5.97656,-147.327,500
1569919437,290.773,111.621,-4.12998,176.462,5.97656,-147.327,500
1569919437,290.773,111.621,-4.12998,176.462,5.97656,-147.327,500
1569919437,290.773,111.621,-4.12998,176.462,5.97656,-147.327,500
1569919437,290.773,111.621,-4.12998,176.462,5.97656,-147.327,500
1569919437,290.773,111.621,-4.12998,176.462,5.97656,-147.327,500
1569919437,290.773,111.621,-4.12998,176.462,5.97656,-147.327,500
1569919437,290.773,111.621,-4.12998,176.44,5.97656,-147.327,500
1569919437,290.773,111.621,-4.12998,176.44,5.97656,-147.327,500
1569919437,290.773,111.621,-4.12998,176.44,5.97656,-147.327,500
1569919437,290.773,111.621,-4.12998,176.44,5.97656,-147.327,500
1569919437,290.773,111.621,-4.12998,176.44,5.97656,-147.327,500
1569919437,290.773,111.621,-4.12998,176.44,5.97656,-147.327,500
1569919437,290.773,111.621,-4.12998,176.44,5.97656,-147.327,500
1569919437,290.773,111.621,-4.12998,176.44,5.97656,-147.327,500
1569919437,290.773,111.621,-4.12998,176.44,5.97656,-147.327,500
1569919437,290.773,111.621,-4.12998,176.44,5.97656,-147.327,500
1569919437,290.773,111.621,-4.12998,176.44,5.97656,-147.327,500
1569919437,290.773,111.621,-4.12998,176.44,5.97656,-147.327,496
1569919437,290.773,111.621,-4.12998,176.44,5.97656,-147.327,496
1569919437,290.773,111.621,-4.12998,176.44,5.97656,-147.327,496
1569919437,290.773,111.621,-4.12998,176.44,5.97656,-147.327,496
1569919437,290.773,111.621,-4.12998,176.44,5.97656,-147.327,500
1569919437,290.773,111.621,-4.12998,176.44,5.97656,-147.327,500
1569919437,290.773,111.621,-4.12998,176.44,5.97656,-147.327,500
1569919437,290.773,111.621,-4.12998,176.44,5.97656,-147.327,500
1569919437,290.773,111.621,-4.12998,176.44,5.97656,-147.327,500
1569919437,290.773,111.621,-4.12998,176.44,5.97656,-147.327,500
1569919437,290.773,111.621,-4.12998,176.44,5.97656,-147.327,500
1569919437,290.773,111.621,-4.12998,176.44,5.97656,-147.327,500
1569919437,290.773,111.621,-4.12998,176.44,5.97656,-147.327,500
1569919437,290.773,111.621,-4.12998,176.44,5.97656,-147.327,500
1569919437,290.773,111.621,-4.12998,176.44,5.97656,-147.327,500
1569919437,290.773,111.621,-4.12998,176.44,5.97656,-147.327,500
1569919437,290.773,111.621,-4.12998,176.44,5.97656,-147.327,500
1569919438,290.773,111.621,-4.12998,176.44,5.97656,-147.327,500
1569919438,290.773,111.621,-4.12998,176.44,5.97656,-147.327,500
1569919438,290.773,111.621,-4.12998,176.44,5.97656,-147.327,500
1569919438,290.773,111.621,-4.12998,176.44,5.97656,-147.327,500
1569919438,290.773,111.621,-4.12998,176.44,5.97656,-147.327,500
1569919438,290.773,111.621,-4.12998,176.44,5.97656,-147.327,500
1569919438,290.773,111.621,-4.12998,176.44,5.97656,-147.327,500
1569919438,290.773,111.621,-4.12998,176.44,5.97656,-147.327,500
1569919438,290.773,111.621,-4.12998,176.44,5.97656,-147.327,500
1569919438,290.773,111.621,-4.12998,176.44,5.97656,-147.327,500
1569919438,290.885,111.621,-4.12998,176.44,5.97656,-147.327,500
1569919438,290.885,111.621,-4.12998,176.44,5.97656,-147.327,504
1569919438,290.885,111.621,-4.12998,176.44,5.97656,-147.327,504
1569919438,290.885,111.621,-4.12998,176.44,5.97656,-147.327,504
1569919438,290.885,111.621,-4.12998,176.44,5.97656,-147.327,504
1569919438,290.885,111.621,-4.12998,176.44,5.97656,-147.327,504
1569919438,290.885,111.621,-4.12998,176.44,5.97656,-147.327,504
1569919438,290.885,111.621,-4.12998,176.44,5.97656,-147.327,508
1569919438,290.885,111.621,-4.12998,176.44,5.97656,-147.327,508
1569919438,290.885,111.621,-4.12998,176.44,5.97656,-147.327,508
1569919438,290.885,111.621,-4.12998,176.44,5.97656,-147.327,508
1569919438,290.885,111.621,-4.12998,176.44,5.97656,-147.327,508
1569919438,290.885,111.621,-4.12998,176.44,5.97656,-147.327,508
1569919438,290.885,111.621,-4.12998,176.44,5.97656,-147.327,508
1569919438,290.885,111.621,-4.12998,176.44,5.97656,-147.327,508
1569919438,290.885,111.621,-4.12998,176.44,5.97656,-147.327,508
1569919438,290.885,111.621,-4.12998,176.44,5.97656,-147.327,508
1569919438,290.885,111.621,-4.12998,176.44,5.97656,-147.327,512
1569919438,290.885,111.621,-4.12998,176.44,5.97656,-147.327,512
1569919438,290.885,111.621,-4.12998,176.44,5.97656,-147.327,512
1569919438,290.885,111.621,-4.12998,176.44,5.97656,-147.327,512
1569919438,290.885,111.621,-4.12998,176.44,5.97656,-147.327,512
1569919438,290.885,111.621,-4.12998,176.44,5.97656,-147.327,512
1569919438,290.773,111.621,-4.12998,176.44,5.97656,-147.327,512
1569919438,290.773,111.621,-4.12998,176.462,5.97656,-147.327,512
1569919438,290.773,111.621,-4.12998,176.462,5.97656,-147.327,512
1569919438,290.773,111.621,-4.12998,176.462,5.97656,-147.327,512
1569919438,290.773,111.621,-4.12998,176.462,5.97656,-147.327,512
1569919438,290.773,111.621,-4.12998,176.462,5.97656,-147.327,508
1569919438,290.773,111.621,-4.12998,176.462,5.97656,-147.327,508
1569919438,290.773,111.621,-4.12998,176.462,5.97656,-147.327,508
1569919438,290.773,111.621,-4.12998,176.462,5.97656,-147.327,508
1569919438,290.773,111.621,-4.12998,176.462,5.97656,-147.327,508
1569919438,290.773,111.621,-4.01836,176.462,5.97656,-147.327,508
1569919438,290.773,111.621,-4.01836,176.462,5.97656,-147.327,504
1569919438,290.773,111.621,-4.01836,176.462,5.97656,-147.327,504
1569919438,290.773,111.621,-4.01836,176.44,5.97656,-147.327,504
1569919438,290.773,111.621,-4.01836,176.44,5.97656,-147.327,504
1569919438,290.773,111.621,-4.01836,176.44,5.97656,-147.327,504
1569919438,290.773,111.621,-4.12998,176.44,5.97656,-147.327,504
1569919438,290.773,111.621,-4.12998,176.44,5.97656,-147.327,504
1569919438,290.773,111.621,-4.12998,176.44,5.97656,-147.327,504
1569919438,290.773,111.621,-4.12998,176.44,5.97656,-147.327,504
1569919438,290.773,111.621,-4.12998,176.44,5.97656,-147.327,504
1569919438,290.773,111.621,-4.12998,176.44,5.97656,-147.327,504
1569919438,290.773,111.621,-4.12998,176.44,5.97656,-147.327,504
1569919438,290.773,111.621,-4.12998,176.44,5.97656,-147.327,504
1569919438,290.773,111.621,-4.12998,176.44,5.97656,-147.327,504
1569919438,290.773,111.621,-4.12998,176.44,5.97656,-147.327,504
1569919438,290.773,111.621,-4.12998,176.44,5.97656,-147.327,504
1569919438,290.773,111.621,-4.12998,176.44,5.97656,-147.327,504
1569919438,290.773,111.621,-4.12998,176.44,5.97656,-147.349,504
1569919438,290.773,111.621,-4.12998,176.44,5.97656,-147.349,504
1569919438,290.773,111.621,-4.12998,176.44,5.97656,-147.349,504
1569919438,290.773,111.621,-4.12998,176.44,5.97656,-147.349,504
1569919438,290.773,111.621,-4.12998,176.44,5.97656,-147.349,504
1569919438,290.773,111.621,-4.12998,176.44,5.97656,-147.349,504
1569919438,290.773,111.621,-4.12998,176.44,5.97656,-147.349,504
1569919438,290.773,111.621,-4.12998,176.44,5.97656,-147.349,504
1569919438,290.773,111.621,-4.01836,176.44,5.97656,-147.349,504
1569919438,290.773,111.621,-4.01836,176.44,5.97656,-147.349,504
1569919438,290.885,111.621,-4.01836,176.44,5.97656,-147.349,504
1569919438,290.885,111.621,-4.01836,176.44,5.97656,-147.349,504
1569919438,290.885,111.621,-4.01836,176.44,5.97656,-147.349,504
1569919438,290.885,111.621,-4.01836,176.418,5.97656,-147.349,504
1569919438,290.885,111.621,-4.01836,176.418,5.97656,-147.349,504
1569919438,290.885,111.621,-4.01836,176.418,5.97656,-147.349,504
1569919438,290.885,111.621,-4.01836,176.418,5.97656,-147.349,504
1569919438,290.885,111.621,-4.01836,176.418,5.97656,-147.349,504
1569919438,290.885,111.621,-4.01836,176.418,5.97656,-147.349,500
1569919438,290.885,111.621,-4.01836,176.418,5.97656,-147.349,500
1569919438,290.773,111.621,-4.01836,176.418,5.97656,-147.349,500
1569919438,290.773,111.621,-4.01836,176.418,5.97656,-147.349,500
1569919438,290.773,111.621,-4.01836,176.418,5.97656,-147.349,500
1569919438,290.773,111.621,-4.01836,176.418,5.97656,-147.349,500
1569919438,290.773,111.621,-4.01836,176.418,5.97656,-147.349,500
1569919438,290.773,111.621,-4.01836,176.44,5.97656,-147.349,500
1569919438,290.773,111.621,-4.01836,176.44,5.97656,-147.349,500
1569919438,290.773,111.621,-4.01836,176.44,5.97656,-147.349,500
1569919438,290.773,111.621,-4.01836,176.44,5.97656,-147.349,500
1569919438,290.773,111.621,-4.12998,176.44,5.97656,-147.349,500
1569919438,290.773,111.621,-4.12998,176.44,5.97656,-147.349,500
1569919438,290.773,111.621,-4.12998,176.44,5.97656,-147.349,500
1569919438,290.773,111.621,-4.12998,176.44,5.95459,-147.349,500
1569919438,290.773,111.621,-4.12998,176.44,5.95459,-147.349,500
1569919438,290.773,111.621,-4.12998,176.44,5.95459,-147.349,500
1569919438,290.773,111.621,-4.12998,176.44,5.95459,-147.349,500
1569919438,290.773,111.621,-4.12998,176.44,5.95459,-147.349,500
1569919438,290.773,111.621,-4.12998,176.44,5.95459,-147.349,500
1569919438,290.773,111.621,-4.12998,176.44,5.95459,-147.349,500
1569919439,290.773,111.621,-4.12998,176.44,5.95459,-147.349,500
1569919439,290.773,111.621,-4.12998,176.44,5.95459,-147.349,500
1569919439,290.773,111.621,-4.12998,176.44,5.95459,-147.349,500
1569919439,290.773,111.621,-4.12998,176.44,5.95459,-147.349,500
1569919439,290.773,111.621,-4.12998,176.44,5.95459,-147.349,500
1569919439,290.773,111.621,-4.12998,176.44,5.95459,-147.349,500
1569919439,290.773,111.621,-4.12998,176.44,5.95459,-147.349,500
1569919439,290.773,111.621,-4.12998,176.44,5.95459,-147.349,500
1569919439,290.773,111.621,-4.12998,176.418,5.97656,-147.349,500
1569919439,290.773,111.621,-4.12998,176.418,5.97656,-147.349,500
1569919439,290.773,111.621,-4.12998,176.418,5.97656,-147.349,500
1569919439,290.773,111.621,-4.12998,176.418,5.97656,-147.349,500
1569919439,290.773,111.509,-4.12998,176.418,5.97656,-147.327,496
1569919439,290.773,111.509,-4.12998,176.418,5.97656,-147.327,496
1569919439,290.773,111.509,-4.12998,176.418,5.97656,-147.327,496
1569919439,290.773,111.509,-4.12998,176.418,5.97656,-147.327,496
1569919439,290.773,111.509,-4.12998,176.418,5.97656,-147.327,496
1569919439,290.773,111.509,-4.12998,176.418,5.97656,-147.327,496
1569919439,290.773,111.509,-4.12998,176.418,5.95459,-147.327,496
1569919439,290.773,111.509,-4.12998,176.418,5.95459,-147.327,496
1569919439,290.773,111.509,-4.12998,176.418,5.97656,-147.327,496
1569919439,290.773,111.509,-4.12998,176.418,5.97656,-147.327,496
1569919439,290.773,111.509,-4.12998,176.418,5.97656,-147.327,496
1569919439,290.773,111.509,-4.12998,176.418,5.97656,-147.327,496
1569919439,290.773,111.509,-4.12998,176.418,5.97656,-147.327,496
1569919439,290.773,111.509,-4.12998,176.44,5.97656,-147.327,496
1569919439,290.773,111.621,-4.12998,176.44,5.97656,-147.327,492
1569919439,290.773,111.621,-4.12998,176.44,5.97656,-147.327,492
1569919439,290.773,111.621,-4.12998,176.44,5.97656,-147.327,492
1569919439,290.773,111.621,-4.12998,176.44,5.97656,-147.327,492
1569919439,290.773,111.621,-4.12998,176.44,5.97656,-147.327,492
1569919439,290.773,111.621,-4.12998,176.44,5.97656,-147.327,492
1569919439,290.773,111.621,-4.12998,176.44,5.97656,-147.327,492
1569919439,290.773,111.621,-4.12998,176.44,5.97656,-147.327,492
1569919439,290.773,111.621,-4.01836,176.44,5.97656,-147.349,492
1569919439,290.773,111.621,-4.01836,176.44,5.97656,-147.349,492
1569919439,290.773,111.621,-4.01836,176.44,5.97656,-147.349,492
1569919439,290.773,111.621,-4.01836,176.44,5.97656,-147.349,492
1569919439,290.773,111.621,-4.01836,176.44,5.97656,-147.349,492
1569919439,290.773,111.621,-4.01836,176.418,5.97656,-147.349,492
1569919439,290.773,111.621,-4.01836,176.418,5.97656,-147.349,492
1569919439,290.773,111.621,-4.01836,176.418,5.97656,-147.349,492
1569919439,290.773,111.621,-4.01836,176.418,5.97656,-147.349,496
1569919439,290.773,111.621,-4.01836,176.418,5.97656,-147.349,496
1569919439,290.773,111.621,-4.01836,176.418,5.97656,-147.349,496
1569919444,252.599,152.028,-6.58564,176.001,4.81201,-147.217,80
1569919444,252.599,152.028,-6.58564,176.001,4.81201,-147.217,80
1569919444,252.599,152.028,-6.58564,176.001,4.81201,-147.217,80
1569919444,252.599,152.028,-6.58564,176.001,4.81201,-147.217,80
1569919444,252.599,152.028,-6.58564,176.001,4.81201,-147.217,80
1569919444,252.599,152.028,-6.58564,176.001,4.81201,-147.217,80
1569919444,252.599,152.028,-6.58564,176.001,4.81201,-147.217,80
1569919444,252.599,152.028,-6.58564,176.001,4.81201,-147.217,80
1569919444,252.599,152.028,-6.58564,176.001,4.81201,-147.239,80
1569919444,252.599,152.028,-6.58564,176.001,4.81201,-147.239,80
1569919444,252.599,152.028,-6.58564,176.001,4.81201,-147.239,80
1569919444,252.599,152.028,-6.58564,176.001,4.81201,-147.239,80
1569919444,252.599,152.028,-6.58564,176.001,4.81201,-147.239,80
1569919444,252.599,152.028,-6.58564,176.001,4.81201,-147.239,80
1569919444,252.599,152.028,-6.58564,176.001,4.81201,-147.239,76
1569919444,252.599,152.028,-6.58564,176.001,4.81201,-147.239,76
1569919444,252.599,152.028,-6.58564,176.001,4.81201,-147.239,76
1569919444,252.599,152.028,-6.58564,176.001,4.81201,-147.239,76
1569919444,252.599,152.028,-6.58564,176.001,4.81201,-147.239,76
1569919444,252.599,152.028,-6.58564,176.001,4.81201,-147.239,76
1569919444,252.599,152.028,-6.58564,176.001,4.81201,-147.239,76
1569919444,252.599,152.028,-6.58564,176.001,4.81201,-147.239,76
1569919444,252.599,152.028,-6.58564,176.001,4.81201,-147.239,76
1569919444,252.599,152.028,-6.58564,176.001,4.81201,-147.239,76
1569919444,252.599,152.028,-6.58564,176.001,4.81201,-147.239,76
1569919444,252.599,152.028,-6.58564,176.001,4.81201,-147.239,76
1569919444,252.599,152.028,-6.58564,176.001,4.81201,-147.239,76
1569919444,252.599,152.028,-6.58564,176.001,4.81201,-147.239,76
1569919444,252.599,152.028,-6.58564,176.001,4.81201,-147.239,76
1569919444,252.599,152.028,-6.58564,176.001,4.81201,-147.239,76
1569919444,252.599,152.028,-6.58564,176.001,4.81201,-147.239,76
1569919444,252.599,152.028,-6.58564,176.001,4.81201,-147.239,76
1569919444,252.599,152.028,-6.58564,176.001,4.81201,-147.239,76
1569919444,252.599,152.028,-6.58564,176.001,4.81201,-147.239,76
1569919444,252.599,152.028,-6.58564,176.001,4.81201,-147.239,76
1569919444,252.599,152.028,-6.58564,176.001,4.81201,-147.239,76
1569919444,252.599,152.028,-6.58564,176.001,4.81201,-147.239,76
1569919444,252.599,152.028,-6.58564,176.001,4.81201,-147.239,76
1569919444,252.599,152.028,-6.58564,176.001,4.81201,-147.239,76
1569919444,252.599,152.028,-6.58564,176.001,4.81201,-147.239,76
1569919444,252.599,152.028,-6.58564,175.979,4.81201,-147.239,76
1569919444,252.599,152.028,-6.58564,175.979,4.81201,-147.239,76
1569919444,252.599,152.028,-6.58564,175.979,4.81201,-147.239,76
1569919444,252.599,152.028,-6.58564,175.979,4.79004,-147.239,76
1569919444,252.599,152.028,-6.58564,175.979,4.79004,-147.239,76
1569919444,252.599,152.028,-6.58564,175.979,4.79004,-147.239,76
1569919444,252.599,152.028,-6.58564,175.979,4.81201,-147.239,76
1569919444,252.599,152.028,-6.58564,175.979,4.81201,-147.239,76
1569919444,252.599,152.028,-6.58564,175.979,4.81201,-147.239,76
1569919444,252.599,152.028,-6.58564,176.001,4.81201,-147.239,80
1569919444,252.599,152.028,-6.58564,176.001,4.81201,-147.239,80
1569919444,252.599,152.028,-6.58564,176.001,4.81201,-147.239,80
1569919444,252.599,152.028,-6.58564,176.001,4.81201,-147.239,80
1569919444,252.599,152.028,-6.58564,176.001,4.81201,-147.239,80
1569919444,252.599,152.028,-6.58564,176.001,4.81201,-147.239,80
1569919444,252.599,152.028,-6.58564,176.001,4.81201,-147.239,80
1569919444,252.599,152.028,-6.58564,176.001,4.81201,-147.239,80
1569919444,252.599,152.028,-6.58564,176.001,4.81201,-147.239,80
1569919444,252.599,152.028,-6.58564,176.001,4.81201,-147.239,80
1569919444,252.599,152.028,-6.58564,176.001,4.81201,-147.239,80
1569919444,252.599,152.028,-6.58564,176.001,4.81201,-147.239,80
1569919444,252.599,152.028,-6.58564,176.001,4.81201,-147.239,80
1569919444,252.599,152.028,-6.58564,176.001,4.81201,-147.239,80
1569919444,252.599,152.028,-6.58564,176.001,4.81201,-147.239,80
1569919444,252.599,152.028,-6.58564,176.001,4.81201,-147.239,80
1569919444,252.599,152.028,-6.58564,176.001,4.81201,-147.239,80
1569919444,252.599,152.028,-6.58564,176.001,4.81201,-147.239,80
1569919444,252.599,152.028,-6.58564,176.001,4.81201,-147.239,80
1569919444,252.599,152.028,-6.58564,176.001,4.81201,-147.239,80
1569919444,252.599,152.028,-6.58564,176.001,4.81201,-147.239,80
1569919444,252.599,152.028,-6.58564,176.001,4.81201,-147.239,80
1569919444,252.599,152.028,-6.58564,176.001,4.81201,-147.239,84
1569919444,252.599,152.028,-6.69727,176.001,4.81201,-147.239,84
1569919444,252.599,152.028,-6.69727,176.001,4.81201,-147.239,84
1569919444,252.599,152.028,-6.69727,176.001,4.79004,-147.239,84
1569919444,252.599,152.028,-6.69727,176.001,4.79004,-147.239,84
1569919444,252.599,152.028,-6.69727,176.001,4.79004,-147.239,84
1569919444,252.599,152.028,-6.69727,176.001,4.79004,-147.239,84
1569919444,252.599,152.028,-6.69727,176.001,4.79004,-147.239,84
1569919444,252.599,152.028,-6.69727,176.001,4.81201,-147.239,84
1569919444,252.599,152.028,-6.58564,176.001,4.81201,-147.239,84
1569919444,252.599,152.028,-6.58564,176.001,4.81201,-147.239,84
1569919444,252.599,152.028,-6.58564,176.001,4.81201,-147.239,84
1569919444,252.599,152.028,-6.58564,176.001,4.81201,-147.239,84
1569919444,252.599,152.028,-6.58564,176.001,4.81201,-147.239,84
1569919444,252.599,152.028,-6.58564,176.001,4.81201,-147.239,80
1569919444,252.599,152.028,-6.58564,176.001,4.81201,-147.239,80
1569919444,252.599,152.028,-6.58564,176.001,4.81201,-147.239,80
1569919444,252.599,152.028,-6.58564,176.001,4.81201,-147.239,80
1569919444,252.599,152.028,-6.58564,176.001,4.81201,-147.239,80
1569919444,252.599,152.028,-6.58564,176.001,4.81201,-147.239,80
1569919444,252.599,152.028,-6.58564,176.001,4.81201,-147.239,80
1569919444,252.599,152.028,-6.58564,176.001,4.81201,-147.239,80
1569919444,252.599,152.028,-6.58564,176.001,4.81201,-147.239,80
1569919445,252.599,152.028,-6.58564,176.001,4.81201,-147.239,80
1569919445,252.599,152.028,-6.58564,176.001,4.81201,-147.239,80
1569919445,252.599,152.028,-6.58564,176.001,4.81201,-147.239,80
1569919445,252.599,152.028,-6.58564,176.001,4.81201,-147.239,80
1569919445,252.599,152.028,-6.58564,176.001,4.81201,-147.239,80
1569919445,252.599,152.028,-6.58564,176.001,4.81201,-147.239,80
1569919445,252.599,152.028,-6.58564,176.001,4.81201,-147.239,80
1569919445,252.599,152.028,-6.58564,176.001,4.81201,-147.239,84
1569919445,252.599,152.028,-6.58564,176.001,4.81201,-147.239,84
1569919445,252.599,152.028,-6.58564,176.001,4.81201,-147.239,84
1569919445,252.599,152.028,-6.58564,176.001,4.81201,-147.239,84
1569919445,252.599,152.028,-6.58564,176.001,4.81201,-147.239,84
1569919445,252.599,152.028,-6.58564,176.001,4.81201,-147.239,84
1569919445,252.599,152.028,-6.58564,176.001,4.81201,-147.239,84
1569919445,252.599,152.028,-6.58564,176.001,4.81201,-147.239,84
1569919445,252.599,152.028,-6.58564,176.001,4.81201,-147.239,88
1569919445,252.599,152.028,-6.58564,176.001,4.81201,-147.239,88
1569919445,252.599,152.028,-6.58564,176.001,4.81201,-147.239,88
1569919445,252.599,152.028,-6.58564,176.001,4.81201,-147.239,88
1569919445,252.599,152.028,-6.69727,176.001,4.81201,-147.239,88
1569919445,252.599,152.028,-6.69727,176.001,4.81201,-147.239,88
1569919445,252.599,152.028,-6.69727,176.001,4.81201,-147.239,88
1569919445,252.599,152.028,-6.69727,176.001,4.81201,-147.239,88
1569919445,252.599,152.028,-6.69727,176.001,4.81201,-147.239,88
1569919445,252.599,152.028,-6.69727,176.001,4.81201,-147.239,88
1569919445,252.599,152.028,-6.69727,176.001,4.81201,-147.239,88
1569919445,252.599,152.028,-6.69727,176.001,4.81201,-147.239,88
1569919445,252.599,152.028,-6.69727,176.001,4.81201,-147.239,88
1569919445,252.599,152.028,-6.69727,176.001,4.81201,-147.239,88
1569919445,252.599,152.028,-6.69727,176.001,4.81201,-147.239,88
1569919445,252.599,152.028,-6.69727,176.001,4.81201,-147.239,88
1569919445,252.599,152.028,-6.69727,176.001,4.81201,-147.239,84
1569919445,252.599,152.028,-6.69727,176.001,4.81201,-147.239,84
1569919445,252.599,152.028,-6.69727,176.001,4.81201,-147.239,84
1569919445,252.599,152.028,-6.69727,176.001,4.81201,-147.239,84
1569919445,252.599,152.028,-6.69727,176.001,4.81201,-147.239,84
1569919445,252.599,152.028,-6.69727,176.001,4.81201,-147.239,84
1569919445,252.599,152.028,-6.69727,176.001,4.81201,-147.239,84
1569919445,252.599,152.028,-6.69727,176.001,4.81201,-147.239,84
1569919445,252.599,152.028,-6.69727,176.001,4.81201,-147.239,84
1569919445,252.599,152.028,-6.69727,176.001,4.81201,-147.239,84
1569919445,252.599,152.028,-6.69727,176.001,4.81201,-147.239,84
1569919445,252.599,152.028,-6.69727,176.001,4.81201,-147.239,84
1569919445,252.599,152.028,-6.69727,176.001,4.81201,-147.239,84
1569919445,252.599,152.028,-6.69727,176.001,4.81201,-147.239,80
1569919445,252.599,152.028,-6.58564,176.001,4.81201,-147.239,80
1569919445,252.599,152.028,-6.58564,176.001,4.81201,-147.239,80
1569919445,252.599,152.028,-6.58564,176.001,4.81201,-147.239,80
1569919445,252.599,152.028,-6.58564,176.001,4.81201,-147.239,80
1569919445,252.599,152.028,-6.58564,176.001,4.81201,-147.239,80
1569919445,252.599,152.028,-6.58564,176.001,4.81201,-147.239,80
1569919445,252.599,152.028,-6.58564,176.001,4.81201,-147.239,80
1569919445,252.599,152.028,-6.58564,176.001,4.81201,-147.239,80
1569919445,252.599,152.028,-6.58564,176.001,4.81201,-147.239,80
1569919445,252.599,152.028,-6.69727,176.001,4.81201,-147.239,80
1569919445,252.599,152.028,-6.69727,176.001,4.81201,-147.239,80
1569919445,252.599,152.028,-6.69727,176.001,4.81201,-147.239,80
1569919445,252.599,152.028,-6.69727,176.001,4.81201,-147.239,80
1569919445,252.599,152.028,-6.69727,176.001,4.81201,-147.239,80
1569919445,252.599,152.028,-6.69727,176.001,4.81201,-147.239,80
1569919445,252.599,152.028,-6.69727,176.001,4.81201,-147.239,80
1569919445,252.599,152.028,-6.69727,176.001,4.81201,-147.239,80
1569919445,252.599,152.028,-6.69727,176.023,4.81201,-147.239,80
1569919445,252.599,152.028,-6.69727,176.023,4.81201,-147.239,80
1569919445,252.599,152.028,-6.69727,176.023,4.81201,-147.239,80
1569919445,252.599,152.028,-6.69727,176.023,4.81201,-147.239,80
1569919445,252.599,152.028,-6.69727,176.023,4.81201,-147.239,80
1569919445,252.599,152.028,-6.58564,176.023,4.81201,-147.239,80
1569919445,252.599,152.028,-6.58564,176.023,4.81201,-147.239,80
1569919445,252.599,152.028,-6.58564,176.023,4.81201,-147.239,80
1569919445,252.599,152.028,-6.58564,176.023,4.81201,-147.239,76
1569919445,252.599,152.028,-6.58564,176.023,4.81201,-147.239,76
1569919445,252.599,152.028,-6.58564,176.023,4.81201,-147.239,76
1569919445,252.599,152.028,-6.58564,176.023,4.81201,-147.239,76
1569919445,252.599,152.028,-6.58564,176.023,4.81201,-147.239,76
1569919445,252.599,152.028,-6.58564,176.023,4.81201,-147.239,76
1569919445,252.599,152.028,-6.58564,176.023,4.81201,-147.239,76
1569919445,252.599,152.028,-6.58564,176.001,4.81201,-147.239,76
1569919445,252.599,152.028,-6.58564,176.001,4.81201,-147.239,76
1569919445,252.599,152.028,-6.58564,176.001,4.81201,-147.239,76
1569919445,252.599,152.028,-6.58564,176.001,4.81201,-147.239,76
1569919445,252.599,152.028,-6.58564,176.001,4.81201,-147.239,76
1569919445,252.599,152.028,-6.58564,176.001,4.81201,-147.239,76
1569919445,252.599,152.028,-6.58564,176.001,4.81201,-147.239,76
1569919445,252.599,152.028,-6.58564,176.001,4.81201,-147.239,76
1569919445,252.599,152.028,-6.58564,176.023,4.81201,-147.239,76
1569919445,252.599,152.028,-6.58564,176.023,4.81201,-147.239,76
1569919445,252.599,152.028,-6.58564,176.023,4.81201,-147.239,76
1569919445,252.599,152.028,-6.58564,176.023,4.81201,-147.239,76
1569919445,252.599,152.028,-6.58564,176.001,4.81201,-147.239,76
1569919445,252.599,152.028,-6.58564,176.001,4.81201,-147.239,76
1569919445,252.599,152.028,-6.58564,176.001,4.81201,-147.239,76
1569919445,252.599,152.028,-6.58564,176.001,4.81201,-147.239,76
1569919445,252.599,152.028,-6.58564,176.001,4.81201,-147.239,76
1569919445,252.599,152.028,-6.58564,176.001,4.81201,-147.239,76
1569919445,252.599,152.028,-6.58564,176.001,4.81201,-147.239,76
1569919445,252.599,152.028,-6.58564,176.001,4.81201,-147.239,76
1569919445,252.599,152.028,-6.58564,176.001,4.81201,-147.239,76
1569919445,252.599,152.028,-6.58564,176.001,4.81201,-147.239,76
1569919445,252.599,152.028,-6.58564,176.001,4.81201,-147.239,76
1569919446,252.599,152.028,-6.58564,176.001,4.81201,-147.239,80
1569919446,252.599,152.028,-6.58564,176.001,4.81201,-147.239,80
1569919446,252.599,152.028,-6.58564,176.001,4.81201,-147.239,80
1569919446,252.599,152.028,-6.58564,176.001,4.81201,-147.239,80
1569919446,252.599,152.028,-6.58564,176.001,4.81201,-147.239,80
1569919446,252.599,152.028,-6.58564,176.001,4.81201,-147.239,80
1569919446,252.599,152.028,-6.58564,176.001,4.81201,-147.239,80
1569919446,252.599,152.028,-6.58564,176.001,4.81201,-147.239,84
1569919446,252.599,152.028,-6.58564,176.001,4.81201,-147.239,84
1569919446,252.599,152.028,-6.58564,176.001,4.81201,-147.239,84
1569919446,252.599,152.028,-6.58564,176.001,4.81201,-147.239,84
1569919446,252.599,152.028,-6.58564,176.001,4.81201,-147.239,84
1569919446,252.599,152.028,-6.58564,176.001,4.81201,-147.239,84
1569919446,252.599,152.028,-6.58564,176.001,4.81201,-147.239,84
1569919446,252.599,152.028,-6.58564,176.001,4.81201,-147.239,84
1569919446,252.599,152.028,-6.58564,176.001,4.81201,-147.239,84
1569919446,252.599,152.028,-6.58564,176.001,4.81201,-147.239,84
1569919446,252.599,152.028,-6.58564,176.001,4.81201,-147.239,84
1569919446,252.599,152.028,-6.69727,176.001,4.81201,-147.239,84
1569919446,252.599,152.028,-6.69727,176.001,4.81201,-147.239,84
1569919446,252.599,152.028,-6.69727,176.001,4.81201,-147.239,80
1569919446,252.599,152.028,-6.69727,176.001,4.81201,-147.239,80
1569919446,252.599,152.028,-6.69727,176.001,4.81201,-147.239,80
1569919446,252.599,152.028,-6.69727,176.001,4.81201,-147.239,80
1569919446,252.599,152.028,-6.69727,176.001,4.81201,-147.239,80
1569919446,252.599,152.028,-6.69727,176.001,4.81201,-147.239,80
1569919446,252.599,152.028,-6.69727,176.001,4.81201,-147.239,80
1569919446,252.599,152.028,-6.69727,176.001,4.81201,-147.239,80
1569919446,252.599,152.028,-6.58564,176.001,4.81201,-147.239,80
1569919446,252.599,152.028,-6.58564,176.001,4.81201,-147.239,80
1569919446,252.599,152.028,-6.58564,176.001,4.81201,-147.239,80
1569919446,252.599,152.028,-6.58564,176.001,4.81201,-147.239,80
1569919446,252.599,152.028,-6.58564,176.001,4.81201,-147.239,80
1569919446,252.599,152.028,-6.58564,176.001,4.81201,-147.239,80
1569919446,252.599,152.028,-6.58564,176.001,4.81201,-147.239,76
1569919446,252.599,152.028,-6.58564,176.001,4.81201,-147.239,76
1569919446,252.599,152.028,-6.58564,176.001,4.81201,-147.239,76
1569919446,252.599,152.028,-6.58564,176.001,4.81201,-147.239,76
1569919446,252.599,152.028,-6.58564,176.001,4.81201,-147.239,76
1569919446,252.599,152.028,-6.58564,176.001,4.81201,-147.239,76
1569919446,252.599,152.028,-6.58564,176.001,4.81201,-147.239,76
1569919446,252.599,152.028,-6.58564,176.001,4.81201,-147.239,76
1569919446,252.599,152.028,-6.58564,176.001,4.81201,-147.239,80
1569919446,252.599,152.028,-6.58564,176.001,4.81201,-147.239,80
1569919446,252.599,152.028,-6.58564,176.001,4.81201,-147.239,80
1569919446,252.599,152.028,-6.58564,176.001,4.81201,-147.239,80
1569919446,252.599,152.028,-6.58564,176.001,4.83398,-147.239,80
1569919446,252.599,152.028,-6.58564,176.001,4.83398,-147.239,80
1569919446,252.599,152.028,-6.58564,176.001,4.83398,-147.239,80
1569919446,252.599,152.028,-6.58564,176.001,4.83398,-147.239,80
1569919446,252.599,152.028,-6.58564,176.001,4.83398,-147.239,80
1569919446,252.599,152.028,-6.58564,176.001,4.83398,-147.239,84
1569919446,252.599,152.028,-6.58564,176.001,4.83398,-147.239,84
1569919446,252.599,152.028,-6.58564,176.001,4.81201,-147.239,84
1569919446,252.599,152.028,-6.58564,176.001,4.81201,-147.239,84
1569919446,252.599,152.028,-6.58564,176.001,4.81201,-147.239,84
1569919446,252.599,152.028,-6.58564,176.001,4.81201,-147.239,84
1569919446,252.599,152.028,-6.58564,176.001,4.81201,-147.239,84
1569919446,252.599,152.028,-6.58564,176.001,4.81201,-147.239,84
1569919446,252.599,152.028,-6.58564,176.001,4.81201,-147.239,84
1569919446,252.599,152.028,-6.58564,176.001,4.81201,-147.239,84
1569919446,252.599,152.028,-6.58564,176.001,4.81201,-147.239,80
1569919446,252.599,152.028,-6.58564,176.001,4.81201,-147.239,80
1569919446,252.599,152.028,-6.58564,176.001,4.81201,-147.239,80
1569919446,252.599,152.028,-6.58564,176.001,4.81201,-147.239,80
1569919446,252.599,152.028,-6.58564,176.001,4.81201,-147.239,80
1569919446,252.599,152.028,-6.58564,176.001,4.81201,-147.239,80
1569919446,252.599,152.028,-6.58564,176.001,4.81201,-147.239,84
1569919446,252.599,152.028,-6.58564,176.001,4.81201,-147.239,84
1569919446,252.599,152.028,-6.58564,176.001,4.81201,-147.239,84
1569919446,252.599,152.028,-6.58564,176.001,4.81201,-147.239,84
1569919446,252.599,152.028,-6.58564,176.001,4.81201,-147.239,84
1569919446,252.599,152.028,-6.58564,176.001,4.81201,-147.239,84
1569919446,252.599,152.028,-6.58564,176.001,4.81201,-147.239,84
1569919446,252.599,152.028,-6.58564,175.979,4.81201,-147.239,84
1569919446,252.599,152.028,-6.58564,175.979,4.81201,-147.239,84
1569919446,252.599,152.028,-6.58564,175.979,4.81201,-147.239,84
1569919446,252.599,152.028,-6.58564,175.979,4.81201,-147.239,84
1569919446,252.599,152.028,-6.58564,175.979,4.81201,-147.239,84
1569919446,252.599,152.028,-6.58564,175.979,4.81201,-147.239,84
1569919446,252.599,152.028,-6.58564,175.979,4.81201,-147.239,84
1569919446,252.599,152.028,-6.58564,175.979,4.81201,-147.239,84
1569919446,252.599,152.028,-6.58564,175.979,4.81201,-147.239,84
1569919446,252.599,152.028,-6.58564,175.979,4.81201,-147.239,84
1569919446,252.599,152.028,-6.58564,175.979,4.81201,-147.239,84
1569919446,252.599,152.028,-6.58564,175.979,4.81201,-147.239,84
1569919446,252.599,152.028,-6.58564,175.979,4.81201,-147.239,84
1569919446,252.599,152.028,-6.58564,176.001,4.81201,-147.239,84
1569919446,252.599,152.028,-6.58564,176.001,4.81201,-147.239,84
1569919446,252.599,152.028,-6.58564,176.001,4.81201,-147.239,84
1569919446,252.599,152.028,-6.58564,176.001,4.81201,-147.239,84
1569919446,252.599,152.028,-6.58564,176.001,4.81201,-147.239,84
1569919446,252.599,152.028,-6.58564,176.001,4.81201,-147.239,84
1569919446,252.599,152.028,-6.58564,176.001,4.81201,-147.239,84
1569919446,252.599,152.028,-6.58564,176.001,4.81201,-147.239,84
1569919446,252.599,152.028,-6.58564,176.001,4.81201,-147.239,84
1569919446,252.599,152.028,-6.58564,176.001,4.81201,-147.239,84
1569919446,252.599,152.028,-6.58564,176.001,4.81201,-147.239,84
1569919446,252.599,152.028,-6.58564,176.001,4.81201,-147.239,84
1569919446,252.599,152.028,-6.58564,176.001,4.81201,-147.239,84
1569919447,252.599,152.028,-6.58564,176.001,4.81201,-147.239,84
1569919447,252.599,152.028,-6.58564,176.001,4.81201,-147.239,84
1569919447,252.599,152.028,-6.58564,176.001,4.81201,-147.239,84
1569919447,252.599,152.028,-6.58564,176.001,4.81201,-147.239,84
1569919447,252.599,152.028,-6.58564,176.001,4.81201,-147.239,84
1569919447,252.599,152.028,-6.58564,176.001,4.81201,-147.239,84
1569919447,252.599,152.028,-6.58564,176.001,4.81201,-147.239,84
1569919447,252.599,152.028,-6.58564,176.001,4.81201,-147.239,84
1569919447,252.599,152.028,-6.58564,176.001,4.81201,-147.239,84
1569919447,252.599,152.028,-6.58564,176.001,4.81201,-147.239,88
1569919447,252.599,152.028,-6.58564,176.001,4.81201,-147.239,88
1569919447,252.599,152.028,-6.58564,176.001,4.81201,-147.239,88
1569919447,252.599,152.028,-6.58564,176.001,4.81201,-147.239,88
1569919447,252.599,152.028,-6.69727,176.001,4.81201,-147.239,88
1569919447,252.599,152.028,-6.69727,176.001,4.81201,-147.239,84
1569919447,252.599,152.028,-6.58564,176.001,4.81201,-147.239,84
1569919447,252.599,152.028,-6.58564,176.001,4.81201,-147.239,84
1569919447,252.599,152.028,-6.58564,176.001,4.81201,-147.239,84
1569919447,252.599,152.028,-6.58564,176.001,4.81201,-147.239,84
1569919447,252.599,152.028,-6.58564,176.001,4.81201,-147.239,84
1569919447,252.599,152.028,-6.58564,176.001,4.81201,-147.239,84
1569919447,252.599,152.028,-6.58564,176.001,4.81201,-147.239,84
1569919447,252.599,152.028,-6.58564,176.001,4.81201,-147.239,84
1569919447,252.599,152.028,-6.58564,176.001,4.81201,-147.239,84
1569919447,252.599,152.028,-6.58564,176.001,4.81201,-147.239,84
1569919447,252.599,152.028,-6.58564,176.001,4.81201,-147.239,84
1569919447,252.599,152.028,-6.58564,176.001,4.81201,-147.239,80
1569919447,252.599,152.028,-6.58564,176.001,4.81201,-147.239,80
1569919447,252.599,152.028,-6.58564,176.001,4.81201,-147.239,80
1569919447,252.599,152.028,-6.58564,176.001,4.81201,-147.239,80
1569919447,252.599,152.028,-6.58564,176.001,4.81201,-147.239,80
1569919447,252.599,152.028,-6.58564,176.001,4.81201,-147.239,80
1569919447,252.599,152.028,-6.58564,176.001,4.81201,-147.239,80
1569919447,252.599,152.028,-6.58564,176.001,4.81201,-147.239,80
1569919447,252.599,152.028,-6.58564,176.001,4.81201,-147.239,80
1569919447,252.599,152.028,-6.58564,176.001,4.81201,-147.239,80
1569919447,252.599,152.028,-6.58564,176.001,4.81201,-147.239,80
1569919447,252.599,152.028,-6.58564,176.001,4.81201,-147.239,80
1569919447,252.599,152.028,-6.58564,176.001,4.81201,-147.239,80
1569919447,252.599,152.028,-6.58564,176.001,4.81201,-147.239,80
