time,x,y,z,ax,ay,az,q
1569922259,407.863,-54.3595,-2.67891,178.835,4.98779,-144.382,1744
1569922259,407.863,-54.3595,-2.67891,178.835,4.98779,-144.382,1744
1569922259,407.863,-54.3595,-2.67891,178.835,4.98779,-144.382,1744
1569922259,407.863,-54.3595,-2.67891,178.835,4.98779,-144.382,1744
1569922259,407.863,-54.3595,-2.67891,178.835,4.98779,-144.382,1744
1569922259,407.863,-54.3595,-2.67891,178.835,4.98779,-144.382,1744
1569922259,407.863,-54.3595,-2.67891,178.835,4.98779,-144.382,1744
1569922259,407.863,-54.3595,-2.67891,178.835,4.98779,-144.382,1748
1569922259,407.863,-54.3595,-2.67891,178.857,4.98779,-144.382,1748
1569922259,407.863,-54.3595,-2.56729,178.857,4.98779,-144.382,1748
1569922259,407.863,-54.3595,-2.56729,178.857,4.98779,-144.382,1748
1569922259,407.863,-54.3595,-2.56729,178.857,4.98779,-144.382,1748
1569922259,407.863,-54.3595,-2.56729,178.857,4.98779,-144.382,1748
1569922259,407.863,-54.3595,-2.56729,178.835,4.98779,-144.382,1748
1569922259,407.863,-54.3595,-2.56729,178.835,4.98779,-144.382,1752
1569922259,407.863,-54.3595,-2.56729,178.835,4.98779,-144.382,1752
1569922259,407.863,-54.3595,-2.56729,178.835,4.98779,-144.382,1752
1569922259,407.863,-54.3595,-2.56729,178.835,4.98779,-144.382,1752
1569922259,407.863,-54.3595,-2.56729,178.835,4.98779,-144.382,1752
1569922259,407.863,-54.3595,-2.56729,178.835,4.98779,-144.382,1756
1569922259,407.863,-54.3595,-2.56729,178.835,4.98779,-144.382,1756
1569922259,407.863,-54.3595,-2.56729,178.835,4.98779,-144.382,1756
1569922259,407.863,-54.3595,-2.56729,178.835,4.98779,-144.36,1756
1569922259,407.863,-54.3595,-2.56729,178.835,4.98779,-144.36,1756
1569922259,407.863,-54.3595,-2.56729,178.835,4.98779,-144.36,1756
1569922259,407.863,-54.3595,-2.56729,178.835,4.98779,-144.36,1756
1569922259,407.863,-54.3595,-2.56729,178.835,4.98779,-144.36,1756
1569922259,407.863,-54.3595,-2.56729,178.835,4.98779,-144.36,1756
1569922259,407.863,-54.3595,-2.56729,178.835,4.98779,-144.36,1760
1569922259,407.863,-54.3595,-2.56729,178.835,4.98779,-144.36,1760
1569922259,407.863,-54.3595,-2.56729,178.835,4.98779,-144.36,1760
1569922259,407.863,-54.3595,-2.56729,178.835,4.98779,-144.36,1760
1569922259,407.863,-54.3595,-2.56729,178.835,4.98779,-144.36,1764
1569922259,407.863,-54.3595,-2.56729,178.835,4.98779,-144.36,1764
1569922259,407.863,-54.3595,-2.56729,178.835,4.98779,-144.36,1764
1569922259,407.863,-54.3595,-2.56729,178.835,4.98779,-144.36,1764
1569922259,407.863,-54.3595,-2.56729,178.835,4.98779,-144.36,1764
1569922259,407.863,-54.3595,-2.56729,178.835,4.98779,-144.36,1764
1569922259,407.863,-54.3595,-2.56729,178.835,4.98779,-144.36,1764
1569922259,407.863,-54.3595,-2.56729,178.813,4.98779,-144.36,1764
1569922259,407.863,-54.3595,-2.56729,178.813,4.98779,-144.36,1764
1569922259,407.863,-54.3595,-2.56729,178.813,4.98779,-144.36,1764
1569922259,407.863,-54.3595,-2.56729,178.835,4.98779,-144.36,1764
1569922259,407.863,-54.3595,-2.56729,178.835,4.98779,-144.36,1764
1569922259,407.863,-54.3595,-2.56729,178.835,4.98779,-144.36,1760
1569922259,407.863,-54.3595,-2.56729,178.835,4.98779,-144.36,1760
1569922259,407.863,-54.3595,-2.56729,178.835,4.98779,-144.36,1760
1569922259,407.863,-54.3595,-2.56729,178.835,4.98779,-144.36,1760
1569922259,407.863,-54.3595,-2.56729,178.857,4.98779,-144.36,1760
1569922259,407.863,-54.3595,-2.67891,178.857,4.98779,-144.36,1756
1569922259,407.863,-54.3595,-2.67891,178.857,4.98779,-144.36,1756
1569922259,407.863,-54.2479,-2.67891,178.857,4.98779,-144.36,1756
1569922259,407.863,-54.2479,-2.67891,178.857,4.96582,-144.338,1756
1569922259,407.863,-54.2479,-2.67891,178.879,4.96582,-144.338,1752
1569922259,407.863,-54.2479,-2.67891,178.879,4.96582,-144.338,1752
1569922259,407.863,-54.2479,-2.67891,178.879,4.96582,-144.338,1752
1569922259,407.863,-54.2479,-2.67891,178.879,4.96582,-144.338,1752
1569922259,407.863,-54.2479,-2.67891,178.879,4.96582,-144.338,1748
1569922259,407.863,-54.2479,-2.67891,178.879,4.96582,-144.338,1748
1569922259,407.863,-54.2479,-2.67891,178.879,4.96582,-144.36,1748
1569922259,407.863,-54.2479,-2.67891,178.879,4.96582,-144.36,1748
1569922259,407.863,-54.2479,-2.67891,178.879,4.96582,-144.36,1744
1569922259,407.863,-54.2479,-2.67891,178.879,4.98779,-144.36,1744
1569922259,407.863,-54.2479,-2.67891,178.879,4.98779,-144.36,1744
1569922259,407.975,-54.2479,-2.67891,178.879,4.98779,-144.36,1744
1569922259,407.975,-54.2479,-2.67891,178.879,4.98779,-144.36,1744
1569922259,407.975,-54.2479,-2.67891,178.879,4.98779,-144.36,1744
1569922259,407.975,-54.2479,-2.67891,178.879,4.98779,-144.338,1744
1569922259,407.975,-54.2479,-2.67891,178.879,4.98779,-144.338,1744
1569922259,407.975,-54.2479,-2.67891,178.879,4.98779,-144.338,1744
1569922259,407.975,-54.2479,-2.67891,178.879,4.98779,-144.338,1744
1569922259,407.975,-54.2479,-2.67891,178.879,4.98779,-144.338,1744
1569922259,407.975,-54.2479,-2.67891,178.879,4.98779,-144.338,1748
1569922259,407.975,-54.2479,-2.67891,178.879,4.96582,-144.338,1748
1569922259,407.975,-54.2479,-2.67891,178.879,4.96582,-144.338,1748
1569922259,407.975,-54.2479,-2.67891,178.879,4.96582,-144.338,1748
1569922259,407.975,-54.2479,-2.67891,178.879,4.96582,-144.338,1748
1569922259,407.975,-54.2479,-2.67891,178.857,4.96582,-144.338,1748
1569922259,407.975,-54.2479,-2.67891,178.857,4.96582,-144.338,1748
1569922259,407.975,-54.2479,-2.67891,178.857,4.96582,-144.338,1752
1569922259,407.975,-54.3595,-2.67891,178.857,4.96582,-144.338,1752
1569922259,407.975,-54.3595,-2.67891,178.857,4.96582,-144.338,1752
1569922259,407.975,-54.3595,-2.67891,178.857,4.96582,-144.338,1752
1569922259,407.975,-54.3595,-2.67891,178.857,4.96582,-144.338,1752
1569922259,407.975,-54.3595,-2.67891,178.857,4.96582,-144.338,1752
1569922259,407.975,-54.3595,-2.67891,178.857,4.96582,-144.338,1752
1569922259,407.975,-54.3595,-2.67891,178.857,4.96582,-144.338,1752
1569922259,407.975,-54.3595,-2.67891,178.857,4.96582,-144.338,1748
1569922259,407.975,-54.3595,-2.67891,178.857,4.96582,-144.338,1748
1569922259,407.975,-54.3595,-2.67891,178.857,4.96582,-144.338,1748
1569922259,407.975,-54.3595,-2.67891,178.857,4.96582,-144.338,1748
1569922259,407.975,-54.3595,-2.67891,178.857,4.96582,-144.338,1748
1569922260,407.975,-54.3595,-2.67891,178.857,4.96582,-144.338,1748
1569922260,407.975,-54.3595,-2.67891,178.857,4.96582,-144.338,1748
1569922260,407.975,-54.3595,-2.67891,178.879,4.98779,-144.338,1748
1569922260,407.975,-54.3595,-2.67891,178.879,4.98779,-144.338,1748
1569922260,407.975,-54.3595,-2.67891,178.857,4.98779,-144.338,1748
1569922260,407.975,-54.3595,-2.67891,178.857,4.98779,-144.338,1752
1569922260,407.975,-54.3595,-2.67891,178.857,4.98779,-144.338,1752
1569922260,407.975,-54.3595,-2.67891,178.879,4.98779,-144.338,1752
1569922260,407.975,-54.3595,-2.67891,178.879,4.98779,-144.338,1752
1569922260,407.975,-54.3595,-2.67891,178.879,4.98779,-144.338,1756
1569922260,407.975,-54.3595,-2.67891,178.879,4.98779,-144.338,1756
1569922260,407.975,-54.3595,-2.67891,178.879,4.98779,-144.338,1756
1569922260,407.975,-54.3595,-2.67891,178.879,4.98779,-144.338,1760
1569922260,407.975,-54.3595,-2.56729,178.879,4.98779,-144.338,1760
1569922260,407.863,-54.3595,-2.56729,178.857,4.98779,-144.338,1760
1569922260,407.863,-54.3595,-2.56729,178.857,4.98779,-144.338,1760
1569922260,407.863,-54.3595,-2.56729,178.857,4.98779,-144.338,1760
1569922260,407.863,-54.3595,-2.56729,178.857,4.98779,-144.338,1760
1569922260,407.863,-54.3595,-2.56729,178.857,4.98779,-144.338,1760
1569922260,407.863,-54.3595,-2.56729,178.857,4.98779,-144.338,1760
1569922260,407.863,-54.3595,-2.56729,178.857,4.98779,-144.338,1760
1569922260,407.863,-54.3595,-2.56729,178.857,4.98779,-144.338,1760
1569922260,407.863,-54.3595,-2.56729,178.857,4.98779,-144.338,1756
1569922260,407.863,-54.3595,-2.56729,178.857,4.98779,-144.338,1756
1569922260,407.863,-54.3595,-2.56729,178.857,4.98779,-144.36,1756
1569922260,407.752,-54.3595,-2.67891,178.857,4.98779,-144.36,1756
1569922260,407.752,-54.3595,-2.67891,178.857,4.98779,-144.36,1752
1569922260,407.752,-54.3595,-2.67891,178.857,4.98779,-144.36,1752
1569922260,407.752,-54.3595,-2.67891,178.857,4.98779,-144.36,1752
1569922260,407.752,-54.3595,-2.67891,178.857,4.98779,-144.36,1748
1569922260,407.752,-54.3595,-2.67891,178.857,4.98779,-144.36,1748
1569922260,407.752,-54.3595,-2.67891,178.857,4.98779,-144.36,1744
1569922260,407.752,-54.3595,-2.67891,178.857,4.96582,-144.36,1744
1569922260,407.752,-54.3595,-2.67891,178.857,4.96582,-144.36,1740
1569922260,407.752,-54.3595,-2.67891,178.857,4.96582,-144.36,1740
1569922260,407.752,-54.3595,-2.67891,178.857,4.96582,-144.36,1736
1569922260,407.752,-54.3595,-2.67891,178.857,4.96582,-144.36,1736
1569922260,407.752,-54.3595,-2.67891,178.857,4.96582,-144.36,1736
1569922260,407.752,-54.3595,-2.67891,178.857,4.96582,-144.36,1732
1569922260,407.752,-54.3595,-2.67891,178.857,4.96582,-144.36,1732
1569922260,407.752,-54.3595,-2.67891,178.857,4.96582,-144.36,1732
1569922260,407.752,-54.3595,-2.67891,178.857,4.96582,-144.36,1732
1569922260,407.752,-54.3595,-2.67891,178.857,4.96582,-144.36,1732
1569922260,407.752,-54.3595,-2.67891,178.857,4.96582,-144.36,1732
1569922260,407.752,-54.3595,-2.67891,178.857,4.96582,-144.36,1732
1569922260,407.752,-54.3595,-2.67891,178.857,4.96582,-144.36,1732
1569922260,407.752,-54.3595,-2.67891,178.857,4.96582,-144.36,1728
1569922260,407.752,-54.3595,-2.67891,178.857,4.96582,-144.338,1728
1569922260,407.752,-54.3595,-2.67891,178.857,4.96582,-144.338,1728
1569922260,407.752,-54.3595,-2.67891,178.857,4.96582,-144.36,1728
1569922260,407.752,-54.3595,-2.67891,178.857,4.96582,-144.36,1728
1569922260,407.752,-54.3595,-2.67891,178.857,4.96582,-144.36,1728
1569922260,407.752,-54.3595,-2.67891,178.857,4.96582,-144.36,1728
1569922260,407.863,-54.3595,-2.67891,178.857,4.96582,-144.36,1728
1569922260,407.863,-54.3595,-2.67891,178.857,4.96582,-144.36,1728
1569922260,407.863,-54.3595,-2.67891,178.857,4.96582,-144.36,1728
1569922260,407.863,-54.3595,-2.67891,178.857,4.96582,-144.36,1728
1569922260,407.863,-54.3595,-2.67891,178.857,4.98779,-144.36,1724
1569922260,407.863,-54.3595,-2.67891,178.857,4.98779,-144.36,1724
1569922260,407.863,-54.3595,-2.67891,178.857,4.98779,-144.36,1724
1569922260,407.863,-54.3595,-2.67891,178.857,4.98779,-144.36,1724
1569922260,407.863,-54.3595,-2.67891,178.857,4.98779,-144.36,1724
1569922260,407.863,-54.3595,-2.67891,178.857,4.98779,-144.36,1724
1569922260,407.863,-54.3595,-2.67891,178.857,4.98779,-144.36,1724
1569922260,407.863,-54.3595,-2.67891,178.857,4.98779,-144.36,1724
1569922260,407.863,-54.3595,-2.67891,178.857,4.98779,-144.36,1724
1569922260,407.863,-54.3595,-2.67891,178.857,4.98779,-144.36,1724
1569922260,407.863,-54.3595,-2.67891,178.857,4.96582,-144.36,1728
1569922260,407.863,-54.3595,-2.67891,178.857,4.96582,-144.36,1728
1569922260,407.863,-54.3595,-2.67891,178.857,4.96582,-144.36,1728
1569922260,407.863,-54.3595,-2.67891,178.879,4.96582,-144.36,1728
1569922260,407.863,-54.3595,-2.67891,178.879,4.96582,-144.36,1732
1569922260,407.863,-54.3595,-2.67891,178.879,4.96582,-144.36,1732
1569922260,407.863,-54.3595,-2.67891,178.879,4.96582,-144.36,1732
1569922260,407.863,-54.3595,-2.67891,178.879,4.96582,-144.36,1736
1569922260,407.863,-54.3595,-2.67891,178.879,4.96582,-144.36,1736
1569922260,407.863,-54.2479,-2.67891,178.879,4.96582,-144.36,1736
1569922260,407.863,-54.2479,-2.67891,178.879,4.96582,-144.36,1736
1569922260,407.863,-54.2479,-2.67891,178.879,4.98779,-144.36,1736
1569922260,407.863,-54.2479,-2.67891,178.879,4.98779,-144.36,1736
1569922260,407.863,-54.2479,-2.67891,178.857,4.98779,-144.36,1736
1569922260,407.863,-54.2479,-2.67891,178.857,4.98779,-144.36,1736
1569922260,407.863,-54.2479,-2.67891,178.857,4.98779,-144.36,1732
1569922260,407.863,-54.2479,-2.67891,178.857,4.98779,-144.36,1732
1569922260,407.863,-54.3595,-2.67891,178.857,4.98779,-144.36,1732
1569922260,407.863,-54.3595,-2.67891,178.857,4.98779,-144.36,1732
1569922260,407.863,-54.3595,-2.67891,178.857,4.98779,-144.36,1732
1569922260,407.863,-54.3595,-2.67891,178.835,4.98779,-144.36,1732
1569922260,407.863,-54.3595,-2.67891,178.835,4.98779,-144.36,1732
1569922260,407.863,-54.3595,-2.67891,178.835,4.98779,-144.36,1732
1569922260,407.863,-54.3595,-2.67891,178.835,4.98779,-144.36,1732
1569922260,407.863,-54.3595,-2.67891,178.835,4.98779,-144.36,1732
1569922260,407.863,-54.3595,-2.67891,178.835,4.98779,-144.36,1732
1569922260,407.863,-54.3595,-2.56729,178.835,4.98779,-144.36,1732
1569922260,407.863,-54.3595,-2.56729,178.835,4.98779,-144.382,1732
1569922260,407.863,-54.3595,-2.56729,178.835,4.98779,-144.382,1732
1569922260,407.863,-54.3595,-2.56729,178.835,5.00977,-144.382,1732
1569922260,407.863,-54.3595,-2.56729,178.835,5.00977,-144.382,1728
1569922260,407.863,-54.3595,-2.56729,178.835,5.00977,-144.382,1728
1569922260,407.863,-54.3595,-2.56729,178.835,5.00977,-144.382,1728
1569922261,407.863,-54.3595,-2.56729,178.835,5.00977,-144.382,1728
1569922261,407.863,-54.3595,-2.56729,178.813,5.00977,-144.382,1728
1569922261,407.863,-54.3595,-2.56729,178.813,4.98779,-144.382,1728
1569922261,407.863,-54.3595,-2.56729,178.813,4.98779,-144.382,1728
1569922261,407.863,-54.3595,-2.56729,178.835,4.98779,-144.382,1724
1569922261,407.863,-54.3595,-2.56729,178.835,4.98779,-144.382,1724
1569922261,407.863,-54.3595,-2.56729,178.835,4.98779,-144.382,1724
1569922261,407.863,-54.3595,-2.56729,178.835,4.98779,-144.382,1724
1569922261,407.863,-54.3595,-2.56729,178.813,4.98779,-144.382,1724
1569922261,407.863,-54.3595,-2.56729,178.813,4.98779,-144.382,1724
1569922261,407.863,-54.3595,-2.56729,178.813,4.98779,-144.382,1724
1569922261,407.863,-54.3595,-2.56729,178.813,4.98779,-144.382,1724
1569922261,407.863,-54.3595,-2.56729,178.813,4.98779,-144.382,1720
1569922261,407.863,-54.3595,-2.56729,178.813,4.98779,-144.382,1720
1569922261,407.863,-54.3595,-2.56729,178.813,4.98779,-144.382,1720
1569922261,407.863,-54.3595,-2.56729,178.813,4.98779,-144.382,1720
1569922261,407.863,-54.3595,-2.56729,178.813,4.98779,-144.382,1720
1569922261,407.863,-54.3595,-2.56729,178.813,4.98779,-144.382,1724
1569922261,407.863,-54.3595,-2.56729,178.813,4.98779,-144.382,1724
1569922261,407.863,-54.3595,-2.56729,178.813,4.98779,-144.382,1724
1569922261,407.863,-54.4711,-2.56729,178.813,4.98779,-144.382,1724
1569922261,407.863,-54.4711,-2.56729,178.813,4.98779,-144.382,1724
1569922261,407.863,-54.4711,-2.56729,178.813,4.98779,-144.36,1728
1569922261,407.863,-54.4711,-2.56729,178.813,4.98779,-144.36,1728
1569922261,407.863,-54.4711,-2.56729,178.813,4.98779,-144.36,1728
1569922261,407.863,-54.4711,-2.56729,178.813,4.98779,-144.36,1728
1569922261,407.863,-54.4711,-2.56729,178.813,5.00977,-144.36,1732
1569922261,407.863,-54.4711,-2.56729,178.813,5.00977,-144.36,1732
1569922261,407.863,-54.4711,-2.56729,178.813,5.00977,-144.36,1732
1569922261,407.863,-54.4711,-2.56729,178.813,5.00977,-144.36,1732
1569922261,407.863,-54.4711,-2.56729,178.813,5.00977,-144.36,1736
1569922261,407.863,-54.4711,-2.56729,178.813,5.00977,-144.36,1736
1569922261,407.863,-54.4711,-2.56729,178.813,5.00977,-144.36,1736
1569922261,407.863,-54.4711,-2.56729,178.835,5.00977,-144.36,1736
1569922261,407.863,-54.3595,-2.56729,178.835,5.00977,-144.36,1736
1569922261,407.863,-54.3595,-2.56729,178.835,5.00977,-144.36,1732
1569922261,407.863,-54.3595,-2.56729,178.835,5.00977,-144.36,1732
1569922261,407.863,-54.3595,-2.56729,178.835,5.00977,-144.36,1732
1569922261,407.863,-54.3595,-2.56729,178.835,5.00977,-144.36,1732
1569922261,407.863,-54.3595,-2.56729,178.835,5.00977,-144.338,1732
1569922261,407.863,-54.3595,-2.56729,178.835,5.00977,-144.338,1732
1569922261,407.863,-54.3595,-2.56729,178.835,5.00977,-144.338,1728
1569922261,407.863,-54.3595,-2.56729,178.835,5.00977,-144.338,1728
1569922261,407.863,-54.3595,-2.56729,178.835,5.00977,-144.338,1728
1569922261,407.863,-54.3595,-2.56729,178.835,5.00977,-144.338,1728
1569922261,407.863,-54.3595,-2.56729,178.835,5.00977,-144.338,1728
1569922261,407.863,-54.3595,-2.56729,178.835,5.00977,-144.338,1728
1569922261,407.863,-54.3595,-2.45566,178.835,5.00977,-144.338,1728
1569922261,407.863,-54.3595,-2.45566,178.835,5.00977,-144.338,1728
1569922261,407.863,-54.3595,-2.45566,178.835,5.03174,-144.338,1728
1569922261,407.863,-54.3595,-2.45566,178.835,5.03174,-144.338,1728
1569922261,407.863,-54.3595,-2.45566,178.835,5.03174,-144.338,1728
1569922261,407.863,-54.3595,-2.45566,178.835,5.03174,-144.338,1728
1569922261,407.863,-54.3595,-2.45566,178.835,5.03174,-144.338,1728
1569922261,407.863,-54.3595,-2.45566,178.835,5.03174,-144.338,1728
1569922261,407.863,-54.3595,-2.45566,178.835,5.03174,-144.338,1728
1569922261,407.863,-54.3595,-2.45566,178.835,5.03174,-144.338,1728
1569922261,407.863,-54.3595,-2.45566,178.835,5.03174,-144.338,1728
1569922261,407.863,-54.3595,-2.45566,178.835,5.03174,-144.338,1728
1569922261,407.863,-54.3595,-2.45566,178.835,5.03174,-144.338,1728
1569922261,407.863,-54.3595,-2.45566,178.835,5.03174,-144.338,1728
1569922261,407.975,-54.3595,-2.45566,178.835,5.00977,-144.338,1728
1569922261,407.975,-54.3595,-2.56729,178.835,5.00977,-144.338,1728
1569922261,407.975,-54.4711,-2.56729,178.835,5.00977,-144.338,1728
1569922261,407.975,-54.4711,-2.56729,178.835,5.00977,-144.338,1728
1569922261,407.975,-54.4711,-2.56729,178.835,5.00977,-144.338,1728
1569922261,407.975,-54.4711,-2.56729,178.835,5.00977,-144.338,1728
1569922261,407.863,-54.4711,-2.56729,178.835,5.00977,-144.338,1728
1569922261,407.863,-54.3595,-2.56729,178.835,5.00977,-144.338,1728
1569922261,407.863,-54.3595,-2.56729,178.835,5.00977,-144.338,1724
1569922261,407.863,-54.3595,-2.56729,178.835,5.00977,-144.338,1724
1569922261,407.863,-54.3595,-2.56729,178.835,5.00977,-144.338,1724
1569922261,407.863,-54.3595,-2.56729,178.835,5.00977,-144.338,1724
1569922261,407.863,-54.3595,-2.56729,178.835,5.00977,-144.338,1720
1569922261,407.863,-54.3595,-2.56729,178.835,5.00977,-144.338,1720
1569922261,407.863,-54.3595,-2.56729,178.835,5.00977,-144.338,1720
1569922261,407.863,-54.3595,-2.56729,178.835,5.00977,-144.338,1720
1569922261,407.863,-54.4711,-2.56729,178.835,5.00977,-144.338,1716
1569922261,407.863,-54.4711,-2.56729,178.835,5.00977,-144.338,1716
1569922261,407.863,-54.4711,-2.56729,178.835,5.00977,-144.338,1716
1569922261,407.863,-54.4711,-2.56729,178.835,5.00977,-144.36,1716
1569922261,407.863,-54.4711,-2.56729,178.835,5.00977,-144.36,1716
1569922261,407.863,-54.4711,-2.56729,178.813,5.00977,-144.36,1716
1569922261,407.863,-54.4711,-2.56729,178.813,5.00977,-144.36,1716
1569922261,407.863,-54.4711,-2.45566,178.813,5.03174,-144.36,1712
1569922261,407.863,-54.4711,-2.45566,178.813,5.03174,-144.36,1712
1569922261,407.863,-54.4711,-2.45566,178.813,5.03174,-144.36,1712
1569922261,407.863,-54.4711,-2.45566,178.813,5.03174,-144.36,1712
1569922261,407.863,-54.4711,-2.45566,178.813,5.03174,-144.36,1712
1569922261,407.863,-54.4711,-2.56729,178.835,5.00977,-144.36,1712
1569922261,407.863,-54.4711,-2.56729,178.835,5.00977,-144.36,1708
1569922261,407.863,-54.4711,-2.56729,178.835,5.00977,-144.36,1708
1569922261,407.863,-54.4711,-2.56729,178.835,5.00977,-144.36,1708
1569922261,407.863,-54.4711,-2.56729,178.835,5.00977,-144.36,1708
1569922261,407.863,-54.4711,-2.56729,178.835,5.00977,-144.36,1708
1569922261,407.863,-54.4711,-2.56729,178.835,5.00977,-144.36,1708
1569922261,407.863,-54.4711,-2.56729,178.835,5.00977,-144.36,1708
1569922261,407.863,-54.4711,-2.56729,178.835,5.00977,-144.36,1712
1569922261,407.863,-54.4711,-2.56729,178.835,5.00977,-144.36,1712
1569922261,407.863,-54.4711,-2.56729,178.835,5.00977,-144.36,1712
1569922262,407.863,-54.4711,-2.56729,178.835,5.00977,-144.36,1712
1569922262,407.863,-54.4711,-2.56729,178.835,5.00977,-144.36,1712
1569922262,407.863,-54.4711,-2.56729,178.835,5.00977,-144.338,1712
1569922262,407.863,-54.4711,-2.56729,178.835,5.00977,-144.338,1712
1569922262,407.863,-54.4711,-2.56729,178.835,5.00977,-144.338,1716
1569922262,407.863,-54.4711,-2.56729,178.835,5.00977,-144.338,1716
1569922262,407.863,-54.4711,-2.56729,178.835,5.00977,-144.338,1716
1569922262,407.863,-54.4711,-2.56729,178.835,5.00977,-144.338,1716
1569922262,407.863,-54.4711,-2.56729,178.835,5.00977,-144.338,1716
1569922262,407.863,-54.4711,-2.56729,178.835,5.00977,-144.338,1716
1569922262,407.863,-54.4711,-2.56729,178.835,5.00977,-144.338,1720
1569922262,407.863,-54.4711,-2.56729,178.835,5.00977,-144.338,1720
1569922262,407.863,-54.4711,-2.56729,178.835,5.00977,-144.338,1720
1569922262,407.863,-54.4711,-2.56729,178.835,5.00977,-144.338,1720
1569922262,407.863,-54.4711,-2.56729,178.835,5.00977,-144.338,1724
1569922262,407.863,-54.4711,-2.56729,178.835,5.00977,-144.338,1724
1569922262,407.863,-54.4711,-2.56729,178.835,5.00977,-144.338,1724
1569922262,407.863,-54.4711,-2.56729,178.835,5.00977,-144.338,1728
1569922262,407.863,-54.4711,-2.56729,178.835,5.00977,-144.36,1728
1569922262,407.863,-54.4711,-2.56729,178.835,5.00977,-144.36,1728
1569922262,407.863,-54.4711,-2.56729,178.835,5.00977,-144.36,1728
1569922262,407.863,-54.4711,-2.56729,178.835,5.00977,-144.36,1728
1569922262,407.863,-54.4711,-2.56729,178.835,4.98779,-144.338,1732
1569922262,407.863,-54.4711,-2.67891,178.835,4.98779,-144.338,1732
1569922262,407.863,-54.4711,-2.67891,178.835,4.98779,-144.338,1732
1569922262,407.863,-54.4711,-2.67891,178.835,4.98779,-144.338,1728
1569922262,407.863,-54.4711,-2.67891,178.835,4.98779,-144.338,1728
1569922262,407.863,-54.3595,-2.67891,178.835,4.96582,-144.338,1728
1569922262,407.863,-54.3595,-2.67891,178.835,4.96582,-144.338,1728
1569922262,407.863,-54.3595,-2.67891,178.835,4.96582,-144.338,1728
1569922262,407.863,-54.3595,-2.67891,178.835,4.96582,-144.338,1728
1569922262,407.863,-54.3595,-2.67891,178.835,4.96582,-144.36,1728
1569922262,407.863,-54.3595,-2.67891,178.835,4.96582,-144.36,1728
1569922262,407.863,-54.3595,-2.67891,178.835,4.96582,-144.36,1728
1569922262,407.863,-54.3595,-2.67891,178.835,4.96582,-144.36,1728
1569922262,407.863,-54.3595,-2.67891,178.835,4.96582,-144.36,1728
1569922262,407.863,-54.3595,-2.67891,178.835,4.96582,-144.36,1728
1569922262,407.863,-54.3595,-2.67891,178.835,4.96582,-144.36,1728
1569922262,407.863,-54.3595,-2.67891,178.835,4.96582,-144.36,1728
1569922262,407.863,-54.3595,-2.67891,178.835,4.96582,-144.36,1728
1569922262,407.863,-54.3595,-2.67891,178.835,4.96582,-144.36,1728
1569922262,407.863,-54.3595,-2.67891,178.835,4.96582,-144.36,1728
1569922262,407.863,-54.3595,-2.67891,178.835,4.96582,-144.36,1728
1569922262,407.863,-54.3595,-2.67891,178.835,4.96582,-144.338,1724
1569922262,407.863,-54.3595,-2.67891,178.835,4.96582,-144.338,1724
1569922262,407.863,-54.3595,-2.67891,178.835,4.96582,-144.338,1724
1569922262,407.863,-54.3595,-2.67891,178.835,4.96582,-144.338,1724
1569922262,407.863,-54.3595,-2.67891,178.835,4.96582,-144.338,1724
1569922262,407.863,-54.3595,-2.67891,178.835,4.96582,-144.338,1724
1569922262,407.863,-54.4711,-2.67891,178.835,4.96582,-144.338,1724
1569922262,407.863,-54.4711,-2.67891,178.835,4.96582,-144.338,1724
1569922262,407.863,-54.4711,-2.67891,178.835,4.96582,-144.338,1724
1569922262,407.863,-54.4711,-2.67891,178.813,4.96582,-144.338,1724
1569922262,407.863,-54.4711,-2.67891,178.813,4.96582,-144.36,1724
1569922262,407.863,-54.4711,-2.67891,178.813,4.96582,-144.36,1724
1569922262,407.863,-54.4711,-2.67891,178.813,4.96582,-144.36,1724
1569922262,407.863,-54.4711,-2.67891,178.813,4.96582,-144.36,1724
1569922262,407.863,-54.4711,-2.67891,178.813,4.96582,-144.36,1724
1569922262,407.863,-54.4711,-2.67891,178.813,4.96582,-144.36,1724
1569922262,407.863,-54.4711,-2.67891,178.813,4.96582,-144.36,1724
1569922262,407.863,-54.4711,-2.67891,178.813,4.96582,-144.36,1724
1569922262,407.863,-54.4711,-2.67891,178.813,4.96582,-144.338,1724
1569922262,407.863,-54.4711,-2.67891,178.835,4.96582,-144.338,1728
1569922262,407.863,-54.4711,-2.67891,178.835,4.96582,-144.338,1728
1569922262,407.863,-54.4711,-2.67891,178.835,4.96582,-144.338,1728
1569922262,407.863,-54.4711,-2.67891,178.835,4.96582,-144.338,1728
1569922262,407.975,-54.4711,-2.67891,178.835,4.96582,-144.338,1728
1569922262,407.975,-54.4711,-2.67891,178.835,4.98779,-144.338,1728
1569922262,407.975,-54.4711,-2.67891,178.835,4.98779,-144.338,1732
1569922262,407.975,-54.4711,-2.67891,178.835,4.98779,-144.338,1732
1569922262,407.975,-54.4711,-2.67891,178.835,4.98779,-144.338,1732
1569922262,407.975,-54.4711,-2.67891,178.835,4.98779,-144.338,1732
1569922262,407.975,-54.4711,-2.67891,178.835,4.98779,-144.36,1736
1569922262,407.975,-54.4711,-2.67891,178.835,4.98779,-144.36,1736
1569922262,407.975,-54.4711,-2.67891,178.835,4.98779,-144.36,1736
1569922262,407.975,-54.3595,-2.67891,178.835,4.98779,-144.36,1736
1569922262,407.975,-54.4711,-2.67891,178.835,4.98779,-144.36,1740
1569922262,407.975,-54.4711,-2.67891,178.835,4.96582,-144.36,1740
1569922262,407.975,-54.4711,-2.67891,178.835,4.96582,-144.36,1740
1569922262,407.975,-54.4711,-2.67891,178.835,4.96582,-144.36,1740
1569922262,407.975,-54.4711,-2.67891,178.835,4.96582,-144.36,1740
1569922262,407.975,-54.4711,-2.67891,178.835,4.96582,-144.36,1740
1569922262,407.975,-54.4711,-2.67891,178.835,4.96582,-144.36,1740
1569922262,407.863,-54.4711,-2.67891,178.813,4.96582,-144.36,1740
1569922262,407.863,-54.4711,-2.67891,178.813,4.98779,-144.36,1740
1569922262,407.863,-54.4711,-2.67891,178.813,4.98779,-144.36,1740
1569922262,407.863,-54.4711,-2.67891,178.813,4.98779,-144.36,1740
1569922262,407.863,-54.4711,-2.67891,178.813,4.98779,-144.36,1740
1569922262,407.863,-54.4711,-2.67891,178.813,4.98779,-144.36,1740
1569922262,407.863,-54.4711,-2.67891,178.813,4.98779,-144.36,1740
1569922262,407.863,-54.4711,-2.67891,178.813,4.98779,-144.36,1740
1569922262,407.863,-54.4711,-2.67891,178.813,4.98779,-144.36,1740
1569922262,407.863,-54.4711,-2.67891,178.813,4.98779,-144.36,1740
1569922262,407.863,-54.4711,-2.67891,178.813,4.98779,-144.36,1740
1569922262,407.975,-54.4711,-2.67891,178.813,4.98779,-144.36,1740
1569922262,407.975,-54.4711,-2.67891,178.813,4.98779,-144.36,1740
1569922262,407.975,-54.4711,-2.67891,178.835,4.98779,-144.36,1740
1569922262,407.975,-54.4711,-2.67891,178.835,4.98779,-144.36,1740
1569922262,407.975,-54.4711,-2.67891,178.835,4.98779,-144.36,1740
1569922262,407.975,-54.4711,-2.67891,178.835,4.98779,-144.36,1740
1569922262,407.975,-54.4711,-2.67891,178.835,4.98779,-144.36,1744
1569922263,407.975,-54.4711,-2.67891,178.835,4.98779,-144.36,1744
1569922263,407.975,-54.4711,-2.67891,178.835,4.98779,-144.36,1744
1569922263,407.975,-54.4711,-2.67891,178.835,4.98779,-144.36,1740
1569922263,407.975,-54.4711,-2.67891,178.835,4.98779,-144.36,1740
1569922263,407.975,-54.4711,-2.67891,178.835,4.98779,-144.36,1740
1569922263,407.975,-54.3595,-2.67891,178.857,4.98779,-144.36,1740
1569922263,407.863,-54.3595,-2.67891,178.857,4.98779,-144.36,1740
1569922263,407.863,-54.3595,-2.67891,178.857,4.98779,-144.36,1740
1569922263,407.863,-54.3595,-2.67891,178.857,4.98779,-144.36,1736
1569922263,407.863,-54.3595,-2.67891,178.857,4.98779,-144.36,1736
1569922263,407.975,-54.3595,-2.67891,178.857,4.98779,-144.36,1736
1569922263,407.863,-54.3595,-2.67891,178.857,4.98779,-144.36,1736
1569922263,407.863,-54.3595,-2.67891,178.835,4.98779,-144.36,1736
1569922263,407.863,-54.4711,-2.67891,178.835,4.98779,-144.36,1736
1569922263,407.863,-54.4711,-2.67891,178.835,4.98779,-144.36,1736
1569922263,407.863,-54.4711,-2.67891,178.835,4.98779,-144.36,1736
1569922263,407.863,-54.4711,-2.67891,178.835,4.98779,-144.36,1736
1569922263,407.863,-54.4711,-2.67891,178.813,4.98779,-144.36,1736
1569922263,407.863,-54.4711,-2.67891,178.813,4.98779,-144.382,1736
1569922263,407.863,-54.4711,-2.67891,178.813,4.98779,-144.382,1736
1569922263,407.863,-54.4711,-2.67891,178.813,4.98779,-144.382,1736
1569922263,407.863,-54.4711,-2.67891,178.813,4.98779,-144.382,1736
1569922263,407.863,-54.4711,-2.67891,178.813,4.98779,-144.382,1736
1569922263,407.863,-54.4711,-2.67891,178.813,4.98779,-144.382,1736
1569922263,407.975,-54.4711,-2.67891,178.813,4.98779,-144.382,1736
1569922263,407.975,-54.4711,-2.67891,178.813,4.98779,-144.382,1736
1569922263,407.975,-54.4711,-2.67891,178.813,4.98779,-144.382,1736
1569922263,407.975,-54.4711,-2.67891,178.813,4.98779,-144.382,1736
1569922263,407.975,-54.4711,-2.67891,178.813,4.98779,-144.36,1732
1569922263,407.975,-54.4711,-2.67891,178.813,4.98779,-144.36,1732
1569922263,407.863,-54.4711,-2.67891,178.813,4.98779,-144.36,1732
1569922263,407.863,-54.4711,-2.67891,178.813,4.98779,-144.36,1732
1569922263,407.863,-54.4711,-2.67891,178.813,4.98779,-144.36,1732
1569922263,407.863,-54.4711,-2.67891,178.813,4.98779,-144.36,1732
1569922263,407.863,-54.4711,-2.67891,178.813,4.98779,-144.36,1732
1569922263,407.863,-54.4711,-2.67891,178.813,4.98779,-144.36,1732
1569922263,407.863,-54.4711,-2.67891,178.813,4.98779,-144.36,1732
1569922263,407.863,-54.4711,-2.67891,178.813,4.98779,-144.36,1728
1569922263,407.863,-54.4711,-2.67891,178.813,4.98779,-144.36,1728
1569922263,407.863,-54.4711,-2.67891,178.813,4.98779,-144.36,1728
1569922263,407.863,-54.4711,-2.67891,178.813,4.98779,-144.36,1732
1569922263,407.863,-54.4711,-2.67891,178.813,4.98779,-144.36,1732
1569922263,407.863,-54.4711,-2.67891,178.813,4.98779,-144.36,1732
1569922263,407.863,-54.4711,-2.67891,178.813,4.98779,-144.36,1732
1569922263,407.863,-54.4711,-2.67891,178.813,4.98779,-144.36,1732
1569922263,407.863,-54.4711,-2.67891,178.813,4.98779,-144.36,1732
1569922263,407.863,-54.4711,-2.67891,178.813,4.98779,-144.36,1732
1569922263,407.863,-54.4711,-2.67891,178.813,4.98779,-144.36,1736
1569922263,407.863,-54.4711,-2.56729,178.813,4.98779,-144.36,1736
1569922263,407.863,-54.4711,-2.56729,178.813,4.98779,-144.36,1736
1569922263,407.863,-54.4711,-2.56729,178.813,5.00977,-144.36,1736
1569922263,407.863,-54.4711,-2.56729,178.813,5.00977,-144.36,1736
1569922263,407.863,-54.4711,-2.56729,178.813,5.00977,-144.36,1736
1569922263,407.863,-54.4711,-2.56729,178.813,5.00977,-144.36,1736
1569922263,407.975,-54.4711,-2.56729,178.813,5.00977,-144.36,1740
1569922263,407.975,-54.4711,-2.56729,178.813,5.00977,-144.36,1740
1569922263,407.975,-54.4711,-2.56729,178.813,5.00977,-144.36,1740
1569922263,407.975,-54.4711,-2.56729,178.813,5.00977,-144.36,1740
1569922263,407.975,-54.4711,-2.56729,178.813,4.98779,-144.36,1740
1569922263,407.975,-54.4711,-2.56729,178.813,4.98779,-144.36,1740
1569922263,407.975,-54.5827,-2.56729,178.813,4.98779,-144.36,1744
1569922263,407.975,-54.5827,-2.56729,178.813,4.98779,-144.36,1744
1569922263,407.975,-54.5827,-2.56729,178.813,4.98779,-144.36,1744
1569922263,407.975,-54.5827,-2.56729,178.813,4.98779,-144.36,1744
1569922263,407.975,-54.5827,-2.56729,178.792,4.98779,-144.36,1748
1569922263,407.975,-54.5827,-2.67891,178.792,4.98779,-144.36,1748
1569922263,407.975,-54.5827,-2.67891,178.792,4.98779,-144.36,1748
1569922263,407.975,-54.5827,-2.67891,178.792,4.98779,-144.36,1748
1569922263,407.975,-54.5827,-2.67891,178.792,4.98779,-144.36,1748
1569922263,407.975,-54.5827,-2.67891,178.792,4.98779,-144.36,1748
1569922263,407.975,-54.5827,-2.67891,178.792,4.98779,-144.36,1748
1569922263,407.975,-54.5827,-2.67891,178.792,4.98779,-144.36,1748
1569922263,407.975,-54.5827,-2.67891,178.792,4.98779,-144.36,1748
1569922263,407.975,-54.5827,-2.67891,178.792,4.98779,-144.36,1748
1569922263,407.975,-54.5827,-2.67891,178.792,4.98779,-144.36,1748
1569922263,407.975,-54.5827,-2.67891,178.792,4.98779,-144.36,1744
1569922263,407.975,-54.5827,-2.67891,178.792,4.98779,-144.36,1744
1569922263,407.863,-54.4711,-2.67891,178.792,4.98779,-144.36,1744
1569922263,407.863,-54.4711,-2.67891,178.813,4.98779,-144.36,1744
1569922263,407.863,-54.4711,-2.67891,178.813,4.98779,-144.36,1744
1569922263,407.863,-54.4711,-2.67891,178.813,4.98779,-144.36,1744
1569922263,407.863,-54.4711,-2.67891,178.813,4.98779,-144.36,1744
1569922263,407.863,-54.4711,-2.67891,178.835,4.98779,-144.36,1744
1569922263,407.863,-54.4711,-2.67891,178.835,4.98779,-144.36,1744
1569922263,407.863,-54.4711,-2.67891,178.835,4.98779,-144.36,1740
1569922263,407.863,-54.4711,-2.67891,178.835,4.98779,-144.36,1740
1569922263,407.863,-54.4711,-2.67891,178.835,4.98779,-144.36,1740
1569922263,407.863,-54.4711,-2.67891,178.835,4.98779,-144.36,1740
1569922263,407.863,-54.3595,-2.67891,178.835,4.98779,-144.36,1740
1569922263,407.863,-54.3595,-2.67891,178.835,4.98779,-144.36,1740
1569922263,407.863,-54.3595,-2.67891,178.835,4.98779,-144.36,1740
1569922263,407.863,-54.3595,-2.67891,178.835,4.98779,-144.338,1740
1569922263,407.863,-54.3595,-2.67891,178.835,4.98779,-144.338,1740
1569922263,407.863,-54.3595,-2.67891,178.835,4.98779,-144.338,1740
1569922263,407.863,-54.3595,-2.67891,178.835,4.98779,-144.338,1740
1569922263,407.863,-54.3595,-2.67891,178.835,4.98779,-144.338,1740
1569922263,407.863,-54.3595,-2.67891,178.857,4.98779,-144.338,1740
1569922263,407.863,-54.3595,-2.67891,178.857,4.98779,-144.338,1740
1569922263,407.863,-54.3595,-2.67891,178.857,4.98779,-144.338,1736
1569922263,407.863,-54.3595,-2.67891,178.857,4.98779,-144.338,1736
1569922264,407.863,-54.2479,-2.67891,178.857,4.98779,-144.338,1736
1569922264,407.863,-54.2479,-2.67891,178.857,4.98779,-144.338,1736
1569922264,407.863,-54.3595,-2.67891,178.857,4.98779,-144.338,1736
1569922264,407.863,-54.3595,-2.56729,178.857,4.98779,-144.338,1736
1569922264,407.863,-54.3595,-2.56729,178.857,4.98779,-144.338,1732
1569922264,407.863,-54.3595,-2.56729,178.857,4.98779,-144.338,1732
1569922264,407.863,-54.3595,-2.56729,178.857,4.98779,-144.338,1732
1569922267,391.79,-38.1744,-1.67432,178.528,5.71289,-145.151,1652
1569922267,391.79,-38.1744,-1.67432,178.528,5.71289,-145.151,1652
1569922267,391.79,-38.1744,-1.67432,178.528,5.71289,-145.151,1656
1569922267,391.79,-38.1744,-1.67432,178.528,5.71289,-145.151,1656
1569922267,391.79,-38.1744,-1.67432,178.528,5.71289,-145.151,1656
1569922267,391.79,-38.1744,-1.67432,178.528,5.71289,-145.129,1656
1569922267,391.79,-38.1744,-1.78594,178.528,5.71289,-145.129,1656
1569922267,391.79,-38.1744,-1.78594,178.528,5.71289,-145.129,1656
1569922267,391.79,-38.1744,-1.78594,178.528,5.71289,-145.129,1656
1569922267,391.79,-38.1744,-1.78594,178.528,5.71289,-145.129,1656
1569922267,391.902,-38.1744,-1.78594,178.528,5.71289,-145.129,1656
1569922267,391.902,-38.1744,-1.78594,178.55,5.71289,-145.129,1656
1569922267,391.902,-38.1744,-1.78594,178.55,5.71289,-145.129,1656
1569922267,391.902,-38.1744,-1.78594,178.528,5.69092,-145.129,1652
1569922267,391.902,-38.1744,-1.78594,178.528,5.69092,-145.129,1652
1569922267,391.902,-38.1744,-1.78594,178.528,5.69092,-145.129,1652
1569922267,391.902,-38.1744,-1.78594,178.528,5.69092,-145.129,1652
1569922267,391.902,-38.1744,-1.78594,178.528,5.69092,-145.129,1652
1569922267,391.902,-38.286,-1.78594,178.528,5.69092,-145.129,1652
1569922267,391.902,-38.286,-1.78594,178.528,5.69092,-145.129,1652
1569922267,391.902,-38.286,-1.78594,178.528,5.69092,-145.151,1652
1569922267,391.902,-38.286,-1.78594,178.528,5.69092,-145.151,1652
1569922267,391.902,-38.286,-1.78594,178.528,5.69092,-145.151,1652
1569922268,391.79,-38.286,-1.78594,178.528,5.69092,-145.151,1652
1569922268,391.79,-38.286,-1.78594,178.528,5.69092,-145.151,1652
1569922268,391.79,-38.286,-1.78594,178.528,5.69092,-145.151,1652
1569922268,391.79,-38.286,-1.89756,178.506,5.66895,-145.129,1652
1569922268,391.79,-38.286,-1.89756,178.506,5.66895,-145.129,1652
1569922268,391.79,-38.286,-1.89756,178.506,5.66895,-145.129,1652
1569922268,391.79,-38.286,-1.89756,178.506,5.66895,-145.129,1652
1569922268,391.79,-38.286,-1.89756,178.506,5.66895,-145.129,1652
1569922268,391.79,-38.286,-1.89756,178.506,5.66895,-145.129,1652
1569922268,391.79,-38.286,-1.89756,178.506,5.66895,-145.129,1652
1569922268,391.79,-38.286,-1.89756,178.506,5.66895,-145.129,1652
1569922268,391.79,-38.286,-1.89756,178.506,5.66895,-145.129,1652
1569922268,391.79,-38.286,-1.89756,178.506,5.66895,-145.129,1648
1569922268,391.79,-38.286,-1.89756,178.506,5.66895,-145.129,1648
1569922268,391.902,-38.286,-1.89756,178.506,5.66895,-145.129,1648
1569922268,391.902,-38.286,-1.78594,178.484,5.66895,-145.129,1648
1569922268,391.902,-38.286,-1.78594,178.484,5.66895,-145.129,1648
1569922268,391.902,-38.3977,-1.78594,178.484,5.69092,-145.129,1648
1569922268,391.902,-38.3977,-1.78594,178.484,5.69092,-145.129,1648
1569922268,391.902,-38.3977,-1.78594,178.484,5.69092,-145.129,1648
1569922268,391.902,-38.3977,-1.78594,178.484,5.69092,-145.129,1648
1569922268,391.902,-38.3977,-1.78594,178.484,5.69092,-145.129,1648
1569922268,391.902,-38.3977,-1.78594,178.484,5.69092,-145.129,1648
1569922268,391.902,-38.3977,-1.78594,178.484,5.69092,-145.129,1648
1569922268,391.902,-38.3977,-1.78594,178.484,5.69092,-145.129,1648
1569922268,391.79,-38.3977,-1.78594,178.484,5.69092,-145.107,1652
1569922268,391.79,-38.3977,-1.78594,178.484,5.69092,-145.107,1652
1569922268,391.79,-38.3977,-1.78594,178.506,5.69092,-145.107,1652
1569922268,391.79,-38.286,-1.78594,178.506,5.69092,-145.107,1652
1569922268,391.79,-38.286,-1.78594,178.506,5.69092,-145.107,1648
1569922268,391.79,-38.286,-1.78594,178.506,5.69092,-145.107,1648
1569922268,391.79,-38.286,-1.78594,178.506,5.69092,-145.107,1648
1569922268,391.79,-38.286,-1.78594,178.506,5.69092,-145.107,1648
1569922268,391.79,-38.286,-1.78594,178.506,5.69092,-145.129,1648
1569922268,391.79,-38.286,-1.78594,178.506,5.69092,-145.129,1648
1569922268,391.79,-38.286,-1.78594,178.506,5.69092,-145.129,1648
1569922268,391.79,-38.286,-1.78594,178.506,5.71289,-145.129,1648
1569922268,391.79,-38.286,-1.67432,178.528,5.71289,-145.129,1648
1569922268,391.79,-38.286,-1.67432,178.528,5.71289,-145.129,1648
1569922268,391.79,-38.286,-1.67432,178.528,5.71289,-145.129,1648
1569922268,391.79,-38.286,-1.67432,178.528,5.71289,-145.129,1648
1569922268,391.79,-38.286,-1.67432,178.528,5.71289,-145.129,1648
1569922268,391.79,-38.286,-1.78594,178.528,5.71289,-145.129,1648
1569922268,391.79,-38.286,-1.78594,178.528,5.69092,-145.151,1648
1569922268,391.79,-38.286,-1.78594,178.528,5.69092,-145.151,1648
1569922268,391.79,-38.286,-1.78594,178.528,5.69092,-145.151,1648
1569922268,391.79,-38.286,-1.78594,178.528,5.69092,-145.151,1648
1569922268,391.79,-38.286,-1.78594,178.528,5.69092,-145.151,1648
1569922268,391.79,-38.286,-1.78594,178.528,5.69092,-145.151,1648
1569922268,391.79,-38.286,-1.78594,178.528,5.69092,-145.151,1648
1569922268,391.79,-38.286,-1.78594,178.528,5.69092,-145.151,1648
1569922268,391.79,-38.286,-1.78594,178.528,5.69092,-145.151,1648
1569922268,391.79,-38.286,-1.78594,178.528,5.69092,-145.151,1648
1569922268,391.79,-38.286,-1.78594,178.528,5.69092,-145.151,1648
1569922268,391.79,-38.286,-1.78594,178.528,5.69092,-145.151,1648
1569922268,391.79,-38.286,-1.78594,178.528,5.69092,-145.151,1648
1569922268,391.79,-38.286,-1.78594,178.528,5.69092,-145.151,1648
1569922268,391.79,-38.286,-1.78594,178.528,5.69092,-145.151,1652
1569922268,391.79,-38.286,-1.78594,178.528,5.69092,-145.151,1652
1569922268,391.79,-38.286,-1.78594,178.528,5.69092,-145.151,1652
1569922268,391.79,-38.286,-1.78594,178.528,5.69092,-145.151,1652
1569922268,391.79,-38.286,-1.78594,178.528,5.69092,-145.151,1652
1569922268,391.79,-38.286,-1.78594,178.528,5.69092,-145.151,1652
1569922268,391.79,-38.286,-1.78594,178.528,5.69092,-145.151,1656
1569922268,391.79,-38.286,-1.78594,178.528,5.69092,-145.151,1656
1569922268,391.79,-38.286,-1.78594,178.528,5.69092,-145.151,1656
1569922268,391.79,-38.1744,-1.78594,178.528,5.69092,-145.151,1656
1569922268,391.79,-38.1744,-1.78594,178.528,5.69092,-145.151,1656
1569922268,391.79,-38.286,-1.78594,178.528,5.69092,-145.151,1656
1569922268,391.79,-38.286,-1.78594,178.528,5.69092,-145.151,1656
1569922268,391.79,-38.286,-1.78594,178.528,5.69092,-145.151,1660
1569922268,391.79,-38.286,-1.78594,178.528,5.69092,-145.151,1660
1569922268,391.79,-38.286,-1.78594,178.506,5.69092,-145.151,1656
1569922268,391.79,-38.286,-1.78594,178.506,5.69092,-145.129,1656
1569922268,391.79,-38.286,-1.78594,178.506,5.69092,-145.129,1656
1569922268,391.79,-38.286,-1.78594,178.506,5.69092,-145.129,1656
1569922268,391.79,-38.286,-1.78594,178.506,5.69092,-145.129,1656
1569922268,391.79,-38.286,-1.78594,178.506,5.69092,-145.129,1656
1569922268,391.79,-38.286,-1.78594,178.506,5.71289,-145.129,1656
1569922268,391.79,-38.286,-1.78594,178.506,5.71289,-145.129,1656
1569922268,391.79,-38.286,-1.78594,178.506,5.71289,-145.129,1652
1569922268,391.79,-38.286,-1.78594,178.506,5.71289,-145.129,1652
1569922268,391.79,-38.286,-1.78594,178.506,5.71289,-145.129,1652
1569922268,391.79,-38.286,-1.78594,178.506,5.71289,-145.129,1652
1569922268,391.79,-38.286,-1.78594,178.506,5.71289,-145.129,1652
1569922268,391.79,-38.286,-1.78594,178.506,5.71289,-145.129,1652
1569922268,391.79,-38.286,-1.78594,178.506,5.71289,-145.129,1652
1569922268,391.79,-38.286,-1.67432,178.506,5.71289,-145.129,1652
1569922268,391.79,-38.286,-1.67432,178.506,5.71289,-145.107,1652
1569922268,391.79,-38.286,-1.67432,178.506,5.71289,-145.107,1652
1569922268,391.678,-38.286,-1.67432,178.506,5.71289,-145.107,1652
1569922268,391.678,-38.286,-1.67432,178.506,5.71289,-145.107,1648
1569922268,391.678,-38.286,-1.67432,178.506,5.71289,-145.107,1648
1569922268,391.678,-38.286,-1.67432,178.506,5.71289,-145.107,1648
1569922268,391.678,-38.286,-1.67432,178.506,5.71289,-145.107,1648
1569922268,391.678,-38.286,-1.67432,178.506,5.71289,-145.129,1644
1569922268,391.678,-38.286,-1.67432,178.506,5.71289,-145.129,1644
1569922268,391.678,-38.286,-1.67432,178.506,5.71289,-145.129,1644
1569922268,391.678,-38.286,-1.67432,178.506,5.71289,-145.129,1640
1569922268,391.678,-38.286,-1.67432,178.506,5.71289,-145.129,1640
1569922269,391.678,-38.286,-1.78594,178.506,5.71289,-145.129,1640
1569922269,391.678,-38.286,-1.78594,178.506,5.71289,-145.129,1640
1569922269,391.678,-38.286,-1.78594,178.506,5.71289,-145.129,1640
1569922269,391.678,-38.286,-1.78594,178.506,5.71289,-145.129,1636
1569922269,391.678,-38.286,-1.78594,178.506,5.69092,-145.129,1636
1569922269,391.678,-38.286,-1.78594,178.506,5.69092,-145.129,1636
1569922269,391.678,-38.286,-1.78594,178.506,5.69092,-145.129,1636
1569922269,391.678,-38.286,-1.78594,178.484,5.69092,-145.129,1636
1569922269,391.678,-38.3977,-1.78594,178.484,5.69092,-145.129,1640
1569922269,391.678,-38.3977,-1.78594,178.484,5.69092,-145.129,1640
1569922269,391.678,-38.3977,-1.78594,178.484,5.69092,-145.129,1640
1569922269,391.678,-38.3977,-1.78594,178.484,5.69092,-145.129,1640
1569922269,391.678,-38.3977,-1.89756,178.484,5.69092,-145.129,1640
1569922269,391.678,-38.286,-1.89756,178.484,5.66895,-145.129,1640
1569922269,391.678,-38.286,-1.89756,178.506,5.66895,-145.129,1640
1569922269,391.678,-38.286,-1.89756,178.506,5.66895,-145.129,1640
1569922269,391.678,-38.286,-1.89756,178.506,5.66895,-145.129,1640
1569922269,391.678,-38.286,-1.89756,178.506,5.66895,-145.129,1640
1569922269,391.678,-38.286,-1.89756,178.506,5.66895,-145.129,1640
1569922269,391.678,-38.286,-1.78594,178.506,5.66895,-145.129,1640
1569922269,391.678,-38.286,-1.78594,178.506,5.69092,-145.129,1640
1569922269,391.678,-38.286,-1.78594,178.506,5.69092,-145.129,1640
1569922269,391.678,-38.286,-1.78594,178.506,5.69092,-145.129,1640
1569922269,391.678,-38.286,-1.78594,178.506,5.69092,-145.129,1640
1569922269,391.79,-38.286,-1.78594,178.506,5.69092,-145.129,1640
1569922269,391.79,-38.286,-1.78594,178.506,5.69092,-145.129,1640
1569922269,391.79,-38.286,-1.78594,178.506,5.69092,-145.129,1640
1569922269,391.79,-38.286,-1.78594,178.506,5.69092,-145.129,1640
1569922269,391.79,-38.286,-1.78594,178.506,5.69092,-145.129,1640
1569922269,391.79,-38.286,-1.78594,178.506,5.69092,-145.129,1640
1569922269,391.79,-38.286,-1.78594,178.506,5.69092,-145.129,1640
1569922269,391.79,-38.286,-1.78594,178.506,5.69092,-145.151,1640
1569922269,391.79,-38.286,-1.78594,178.506,5.69092,-145.151,1640
1569922269,391.79,-38.286,-1.78594,178.506,5.69092,-145.151,1640
1569922269,391.79,-38.286,-1.78594,178.506,5.69092,-145.151,1640
1569922269,391.79,-38.286,-1.78594,178.506,5.69092,-145.151,1640
1569922269,391.79,-38.286,-1.78594,178.506,5.69092,-145.151,1640
1569922269,391.79,-38.286,-1.78594,178.506,5.69092,-145.151,1640
1569922269,391.79,-38.286,-1.78594,178.506,5.69092,-145.151,1636
1569922269,391.79,-38.286,-1.78594,178.506,5.69092,-145.151,1640
1569922269,391.79,-38.286,-1.78594,178.506,5.69092,-145.151,1640
1569922269,391.79,-38.286,-1.78594,178.506,5.69092,-145.151,1640
1569922269,391.79,-38.286,-1.78594,178.506,5.69092,-145.151,1640
1569922269,391.79,-38.286,-1.78594,178.506,5.69092,-145.173,1640
1569922269,391.79,-38.286,-1.78594,178.506,5.69092,-145.173,1640
1569922269,391.79,-38.286,-1.78594,178.506,5.69092,-145.173,1640
1569922269,391.79,-38.286,-1.78594,178.506,5.69092,-145.173,1640
1569922269,391.79,-38.286,-1.78594,178.506,5.69092,-145.173,1640
1569922269,391.79,-38.286,-1.89756,178.506,5.69092,-145.173,1640
1569922269,391.79,-38.286,-1.89756,178.506,5.69092,-145.173,1640
1569922269,391.79,-38.286,-1.89756,178.506,5.69092,-145.173,1644
1569922269,391.79,-38.286,-1.89756,178.506,5.69092,-145.173,1644
1569922269,391.79,-38.286,-1.89756,178.506,5.69092,-145.173,1644
1569922269,391.79,-38.286,-1.78594,178.506,5.69092,-145.173,1640
1569922269,391.79,-38.286,-1.78594,178.506,5.69092,-145.173,1640
1569922269,391.79,-38.286,-1.78594,178.506,5.69092,-145.173,1640
1569922269,391.79,-38.286,-1.78594,178.506,5.69092,-145.173,1640
1569922269,391.79,-38.286,-1.78594,178.506,5.69092,-145.173,1640
1569922269,391.79,-38.286,-1.78594,178.506,5.69092,-145.173,1640
1569922269,391.79,-38.286,-1.78594,178.506,5.69092,-145.173,1640
1569922269,391.79,-38.286,-1.78594,178.506,5.69092,-145.151,1640
1569922269,391.79,-38.286,-1.78594,178.506,5.69092,-145.151,1636
1569922269,391.79,-38.286,-1.78594,178.506,5.69092,-145.151,1636
1569922269,391.79,-38.286,-1.78594,178.506,5.69092,-145.151,1636
1569922269,391.79,-38.286,-1.78594,178.506,5.66895,-145.151,1636
1569922269,391.79,-38.286,-1.78594,178.506,5.66895,-145.151,1636
1569922269,391.79,-38.286,-1.78594,178.506,5.66895,-145.151,1636
1569922269,391.79,-38.286,-1.78594,178.506,5.66895,-145.151,1636
1569922269,391.79,-38.286,-1.78594,178.506,5.66895,-145.151,1636
1569922269,391.79,-38.286,-1.78594,178.506,5.66895,-145.151,1636
1569922269,391.79,-38.286,-1.78594,178.506,5.66895,-145.151,1636
1569922269,391.79,-38.286,-1.78594,178.506,5.66895,-145.151,1636
1569922269,391.79,-38.286,-1.78594,178.506,5.69092,-145.151,1636
1569922269,391.79,-38.286,-1.78594,178.506,5.69092,-145.173,1636
1569922269,391.79,-38.286,-1.78594,178.506,5.69092,-145.173,1636
1569922269,391.79,-38.286,-1.78594,178.506,5.69092,-145.173,1636
1569922269,391.79,-38.286,-1.78594,178.506,5.69092,-145.151,1636
1569922269,391.79,-38.286,-1.78594,178.506,5.69092,-145.151,1636
1569922269,391.79,-38.286,-1.78594,178.506,5.69092,-145.151,1640
1569922269,391.79,-38.286,-1.78594,178.506,5.69092,-145.151,1640
1569922269,391.79,-38.286,-1.78594,178.506,5.69092,-145.151,1640
1569922269,391.79,-38.286,-1.78594,178.506,5.69092,-145.151,1640
1569922269,391.79,-38.286,-1.78594,178.506,5.69092,-145.151,1640
1569922269,391.79,-38.286,-1.78594,178.506,5.69092,-145.151,1636
1569922269,391.79,-38.286,-1.78594,178.506,5.69092,-145.151,1636
1569922269,391.79,-38.286,-1.78594,178.506,5.69092,-145.151,1636
1569922269,391.79,-38.286,-1.78594,178.506,5.69092,-145.151,1636
1569922269,391.79,-38.286,-1.78594,178.506,5.69092,-145.151,1636
1569922269,391.79,-38.286,-1.78594,178.506,5.69092,-145.151,1636
1569922269,391.79,-38.286,-1.78594,178.506,5.69092,-145.151,1640
1569922269,391.79,-38.286,-1.78594,178.506,5.69092,-145.151,1640
1569922269,391.79,-38.286,-1.78594,178.506,5.69092,-145.151,1640
1569922269,391.79,-38.286,-1.78594,178.506,5.69092,-145.151,1640
1569922269,391.79,-38.286,-1.78594,178.506,5.69092,-145.151,1636
1569922269,391.79,-38.286,-1.78594,178.506,5.69092,-145.151,1636
1569922269,391.79,-38.286,-1.78594,178.506,5.69092,-145.151,1636
1569922269,391.79,-38.286,-1.78594,178.506,5.69092,-145.151,1636
1569922269,391.79,-38.286,-1.78594,178.506,5.69092,-145.151,1636
1569922269,391.79,-38.286,-1.78594,178.506,5.69092,-145.151,1636
1569922269,391.79,-38.286,-1.78594,178.506,5.69092,-145.151,1636
1569922270,391.79,-38.286,-1.78594,178.506,5.69092,-145.151,1636
1569922270,391.79,-38.286,-1.78594,178.506,5.69092,-145.151,1636
1569922270,391.79,-38.286,-1.78594,178.506,5.69092,-145.151,1636
1569922270,391.79,-38.286,-1.78594,178.506,5.69092,-145.151,1636
1569922270,391.79,-38.286,-1.78594,178.506,5.69092,-145.151,1636
1569922270,391.79,-38.286,-1.78594,178.506,5.69092,-145.151,1636
1569922270,391.79,-38.286,-1.78594,178.506,5.69092,-145.151,1636
1569922270,391.79,-38.286,-1.78594,178.506,5.66895,-145.151,1636
1569922270,391.79,-38.286,-1.78594,178.506,5.66895,-145.151,1640
1569922270,391.79,-38.286,-1.78594,178.506,5.66895,-145.151,1640
1569922270,391.79,-38.286,-1.78594,178.506,5.66895,-145.151,1640
1569922270,391.79,-38.286,-1.78594,178.506,5.66895,-145.151,1640
1569922270,391.79,-38.286,-1.78594,178.506,5.66895,-145.151,1644
1569922270,391.79,-38.286,-1.78594,178.506,5.66895,-145.151,1644
1569922270,391.79,-38.286,-1.78594,178.506,5.66895,-145.151,1644
1569922270,391.79,-38.286,-1.78594,178.506,5.66895,-145.151,1644
1569922270,391.79,-38.286,-1.78594,178.506,5.66895,-145.151,1648
1569922270,391.79,-38.286,-1.78594,178.506,5.66895,-145.151,1648
1569922270,391.79,-38.286,-1.78594,178.506,5.66895,-145.151,1648
1569922270,391.79,-38.286,-1.78594,178.506,5.66895,-145.151,1648
1569922270,391.79,-38.286,-1.78594,178.506,5.66895,-145.151,1648
1569922270,391.79,-38.286,-1.78594,178.506,5.66895,-145.151,1652
1569922270,391.79,-38.286,-1.78594,178.506,5.66895,-145.151,1652
1569922270,391.79,-38.286,-1.78594,178.506,5.66895,-145.151,1652
1569922270,391.79,-38.286,-1.78594,178.506,5.66895,-145.129,1652
1569922270,391.79,-38.286,-1.78594,178.506,5.66895,-145.129,1652
1569922270,391.79,-38.286,-1.78594,178.506,5.66895,-145.129,1652
1569922270,391.79,-38.286,-1.78594,178.506,5.66895,-145.151,1656
1569922270,391.79,-38.286,-1.78594,178.506,5.66895,-145.151,1656
1569922270,391.79,-38.286,-1.78594,178.506,5.66895,-145.151,1656
1569922270,391.79,-38.286,-1.78594,178.506,5.66895,-145.151,1656
1569922270,391.79,-38.286,-1.78594,178.506,5.66895,-145.151,1656
1569922270,391.79,-38.286,-1.78594,178.506,5.66895,-145.151,1656
1569922270,391.79,-38.286,-1.78594,178.506,5.66895,-145.151,1656
1569922270,391.79,-38.286,-1.78594,178.506,5.66895,-145.151,1656
1569922270,391.79,-38.286,-1.78594,178.506,5.66895,-145.151,1656
1569922270,391.79,-38.286,-1.78594,178.506,5.66895,-145.151,1656
1569922270,391.678,-38.286,-1.78594,178.506,5.66895,-145.151,1656
1569922270,391.678,-38.286,-1.78594,178.506,5.66895,-145.151,1656
1569922270,391.678,-38.286,-1.78594,178.506,5.66895,-145.151,1656
1569922270,391.678,-38.286,-1.78594,178.506,5.66895,-145.151,1656
1569922270,391.678,-38.286,-1.78594,178.506,5.66895,-145.151,1656
1569922270,391.678,-38.286,-1.78594,178.506,5.66895,-145.151,1652
1569922270,391.678,-38.286,-1.78594,178.506,5.66895,-145.151,1652
1569922270,391.678,-38.286,-1.78594,178.506,5.66895,-145.151,1652
1569922270,391.678,-38.286,-1.78594,178.506,5.66895,-145.151,1652
1569922270,391.678,-38.286,-1.78594,178.506,5.66895,-145.151,1652
1569922270,391.678,-38.286,-1.89756,178.506,5.66895,-145.151,1652
1569922270,391.678,-38.286,-1.89756,178.484,5.66895,-145.151,1652
1569922270,391.678,-38.286,-1.89756,178.484,5.66895,-145.151,1652
1569922270,391.678,-38.286,-1.89756,178.484,5.66895,-145.151,1648
1569922270,391.678,-38.286,-1.89756,178.484,5.66895,-145.151,1648
1569922270,391.678,-38.286,-1.89756,178.484,5.66895,-145.151,1648
1569922270,391.678,-38.286,-1.89756,178.484,5.66895,-145.151,1648
1569922270,391.678,-38.286,-1.89756,178.484,5.66895,-145.151,1648
1569922270,391.678,-38.3977,-1.89756,178.484,5.66895,-145.151,1648
1569922270,391.678,-38.3977,-1.89756,178.484,5.66895,-145.151,1648
1569922270,391.678,-38.3977,-1.78594,178.484,5.66895,-145.151,1648
1569922270,391.678,-38.3977,-1.78594,178.484,5.66895,-145.151,1648
1569922270,391.678,-38.3977,-1.78594,178.484,5.66895,-145.151,1648
1569922270,391.678,-38.3977,-1.78594,178.484,5.66895,-145.151,1644
1569922270,391.678,-38.3977,-1.78594,178.484,5.66895,-145.151,1644
1569922270,391.678,-38.3977,-1.78594,178.484,5.66895,-145.151,1644
1569922270,391.678,-38.286,-1.78594,178.484,5.66895,-145.151,1648
1569922270,391.678,-38.286,-1.78594,178.484,5.69092,-145.151,1648
1569922270,391.678,-38.286,-1.78594,178.484,5.69092,-145.151,1648
1569922270,391.678,-38.286,-1.78594,178.506,5.69092,-145.151,1648
1569922270,391.678,-38.286,-1.78594,178.506,5.69092,-145.151,1648
1569922270,391.678,-38.286,-1.78594,178.506,5.69092,-145.151,1648
1569922270,391.678,-38.286,-1.78594,178.506,5.69092,-145.129,1648
1569922270,391.678,-38.286,-1.78594,178.506,5.69092,-145.129,1648
1569922270,391.678,-38.286,-1.78594,178.506,5.69092,-145.129,1648
1569922270,391.678,-38.286,-1.78594,178.506,5.69092,-145.129,1648
1569922270,391.678,-38.286,-1.78594,178.506,5.69092,-145.129,1648
1569922270,391.678,-38.286,-1.78594,178.528,5.69092,-145.129,1648
1569922270,391.678,-38.286,-1.78594,178.528,5.69092,-145.129,1652
1569922270,391.678,-38.286,-1.78594,178.528,5.69092,-145.129,1652
1569922270,391.678,-38.286,-1.78594,178.528,5.69092,-145.129,1652
1569922270,391.678,-38.286,-1.78594,178.528,5.69092,-145.129,1652
1569922270,391.79,-38.286,-1.78594,178.528,5.69092,-145.129,1652
1569922270,391.79,-38.286,-1.78594,178.506,5.69092,-145.129,1652
1569922270,391.79,-38.286,-1.78594,178.506,5.69092,-145.129,1652
1569922270,391.79,-38.286,-1.78594,178.506,5.69092,-145.129,1652
1569922270,391.79,-38.286,-1.78594,178.506,5.69092,-145.129,1652
1569922270,391.79,-38.286,-1.78594,178.506,5.69092,-145.129,1652
1569922270,391.79,-38.286,-1.78594,178.506,5.69092,-145.129,1652
1569922270,391.79,-38.286,-1.78594,178.506,5.66895,-145.129,1652
1569922270,391.79,-38.286,-1.78594,178.506,5.66895,-145.151,1652
1569922270,391.79,-38.3977,-1.78594,178.506,5.66895,-145.151,1652
1569922270,391.79,-38.3977,-1.89756,178.484,5.66895,-145.151,1652
1569922270,391.79,-38.3977,-1.89756,178.484,5.66895,-145.151,1652
1569922270,391.79,-38.3977,-1.89756,178.484,5.66895,-145.151,1652
1569922270,391.79,-38.3977,-1.89756,178.484,5.66895,-145.151,1652
1569922270,391.79,-38.3977,-1.89756,178.484,5.66895,-145.151,1652
1569922270,391.79,-38.3977,-1.89756,178.484,5.66895,-145.151,1652
1569922270,391.79,-38.3977,-1.89756,178.484,5.66895,-145.151,1652
1569922270,391.79,-38.3977,-1.89756,178.484,5.66895,-145.151,1652
1569922270,391.79,-38.3977,-1.89756,178.484,5.66895,-145.151,1652
1569922270,391.79,-38.3977,-1.89756,178.484,5.66895,-145.151,1652
1569922270,391.79,-38.3977,-1.89756,178.484,5.66895,-145.151,1652
1569922271,391.79,-38.3977,-1.89756,178.484,5.66895,-145.151,1652
1569922271,391.79,-38.3977,-1.89756,178.484,5.66895,-145.151,1652
1569922271,391.79,-38.3977,-1.89756,178.484,5.66895,-145.151,1652
1569922271,391.79,-38.3977,-1.89756,178.484,5.66895,-145.151,1652
1569922271,391.79,-38.3977,-1.89756,178.484,5.66895,-145.151,1652
1569922271,391.79,-38.3977,-1.89756,178.484,5.66895,-145.151,1652
1569922271,391.79,-38.3977,-1.89756,178.484,5.66895,-145.151,1652
1569922271,391.79,-38.3977,-1.78594,178.484,5.66895,-145.151,1652
1569922271,391.79,-38.3977,-1.78594,178.484,5.66895,-145.151,1652
1569922271,391.79,-38.3977,-1.78594,178.484,5.66895,-145.151,1652
1569922271,391.79,-38.3977,-1.78594,178.484,5.66895,-145.151,1652
1569922271,391.79,-38.3977,-1.78594,178.484,5.66895,-145.151,1652
1569922271,391.79,-38.3977,-1.89756,178.484,5.66895,-145.151,1656
1569922271,391.79,-38.3977,-1.89756,178.484,5.66895,-145.129,1656
1569922271,391.79,-38.3977,-1.89756,178.484,5.66895,-145.129,1656
1569922271,391.79,-38.3977,-1.89756,178.484,5.66895,-145.129,1656
1569922271,391.79,-38.3977,-1.89756,178.484,5.66895,-145.129,1660
1569922271,391.79,-38.3977,-1.89756,178.484,5.66895,-145.129,1660
1569922271,391.79,-38.3977,-1.89756,178.484,5.66895,-145.129,1660
1569922271,391.79,-38.3977,-1.89756,178.484,5.66895,-145.151,1660
1569922271,391.79,-38.3977,-1.89756,178.484,5.66895,-145.151,1660
1569922271,391.79,-38.3977,-1.89756,178.484,5.64697,-145.151,1664
1569922271,391.79,-38.3977,-1.89756,178.484,5.64697,-145.151,1664
1569922271,391.79,-38.3977,-1.89756,178.484,5.66895,-145.151,1664
1569922271,391.79,-38.3977,-1.89756,178.484,5.66895,-145.151,1664
1569922271,391.79,-38.3977,-1.89756,178.484,5.66895,-145.151,1664
1569922271,391.79,-38.3977,-1.89756,178.484,5.66895,-145.151,1664
1569922271,391.79,-38.3977,-1.89756,178.484,5.66895,-145.151,1664
1569922271,391.79,-38.3977,-1.89756,178.484,5.66895,-145.151,1664
1569922271,391.79,-38.3977,-1.89756,178.484,5.66895,-145.151,1664
1569922271,391.79,-38.3977,-1.89756,178.484,5.66895,-145.151,1664
1569922271,391.79,-38.3977,-1.89756,178.462,5.66895,-145.151,1664
1569922271,391.79,-38.3977,-1.89756,178.462,5.66895,-145.151,1664
1569922271,391.79,-38.3977,-1.89756,178.462,5.66895,-145.151,1664
1569922271,391.79,-38.3977,-1.89756,178.462,5.66895,-145.151,1664
1569922271,391.79,-38.3977,-1.89756,178.462,5.66895,-145.151,1664
1569922271,391.79,-38.3977,-1.89756,178.462,5.66895,-145.151,1664
1569922271,391.79,-38.3977,-1.89756,178.462,5.66895,-145.151,1664
1569922271,391.79,-38.3977,-1.89756,178.462,5.66895,-145.151,1660
1569922271,391.79,-38.3977,-1.89756,178.462,5.66895,-145.151,1660
1569922271,391.79,-38.5093,-1.89756,178.462,5.66895,-145.151,1660
1569922271,391.79,-38.5093,-1.89756,178.462,5.66895,-145.151,1660
1569922271,391.79,-38.5093,-1.89756,178.462,5.66895,-145.151,1656
1569922271,391.79,-38.5093,-1.89756,178.462,5.66895,-145.151,1656
1569922271,391.79,-38.5093,-1.89756,178.462,5.66895,-145.151,1656
1569922271,391.79,-38.3977,-1.89756,178.462,5.66895,-145.151,1652
1569922271,391.79,-38.3977,-1.89756,178.462,5.66895,-145.151,1652
1569922271,391.79,-38.3977,-1.89756,178.462,5.66895,-145.151,1652
1569922271,391.79,-38.3977,-1.89756,178.462,5.66895,-145.151,1648
1569922271,391.79,-38.3977,-1.89756,178.462,5.66895,-145.151,1648
1569922271,391.79,-38.3977,-1.89756,178.462,5.66895,-145.151,1648
1569922271,391.79,-38.3977,-1.89756,178.462,5.64697,-145.151,1648
1569922271,391.79,-38.3977,-1.89756,178.484,5.64697,-145.151,1644
1569922271,391.79,-38.3977,-2.00918,178.484,5.64697,-145.151,1644
1569922271,391.79,-38.3977,-2.00918,178.484,5.64697,-145.151,1644
1569922271,391.79,-38.3977,-2.00918,178.484,5.64697,-145.151,1644
1569922271,391.79,-38.3977,-2.00918,178.484,5.64697,-145.151,1644
1569922271,391.79,-38.3977,-2.00918,178.484,5.64697,-145.151,1644
1569922271,391.79,-38.3977,-2.00918,178.484,5.64697,-145.151,1644
1569922271,391.79,-38.3977,-2.00918,178.484,5.64697,-145.151,1644
1569922271,391.79,-38.3977,-2.00918,178.484,5.64697,-145.151,1640
1569922271,391.678,-38.3977,-2.00918,178.484,5.64697,-145.151,1640
1569922271,391.678,-38.3977,-1.89756,178.484,5.64697,-145.151,1640
1569922271,391.678,-38.3977,-1.89756,178.484,5.64697,-145.151,1640
1569922271,391.678,-38.3977,-1.89756,178.484,5.64697,-145.151,1640
1569922271,391.678,-38.3977,-1.89756,178.484,5.64697,-145.129,1636
1569922271,391.678,-38.3977,-1.89756,178.484,5.64697,-145.129,1636
1569922271,391.678,-38.3977,-1.89756,178.484,5.64697,-145.129,1636
1569922271,391.678,-38.3977,-1.89756,178.484,5.64697,-145.129,1636
1569922271,391.678,-38.3977,-1.89756,178.484,5.64697,-145.129,1636
1569922271,391.678,-38.3977,-1.89756,178.484,5.64697,-145.129,1632
1569922271,391.678,-38.3977,-1.89756,178.484,5.66895,-145.129,1632
1569922271,391.678,-38.3977,-1.89756,178.484,5.66895,-145.129,1632
1569922271,391.678,-38.3977,-1.89756,178.484,5.64697,-145.129,1632
1569922271,391.678,-38.3977,-1.89756,178.484,5.64697,-145.129,1632
1569922271,391.678,-38.286,-1.89756,178.484,5.64697,-145.129,1628
1569922271,391.678,-38.286,-1.89756,178.484,5.64697,-145.129,1628
1569922271,391.678,-38.286,-1.89756,178.484,5.64697,-145.129,1628
1569922271,391.678,-38.286,-1.89756,178.484,5.64697,-145.129,1628
1569922271,391.678,-38.286,-1.89756,178.484,5.64697,-145.129,1628
1569922271,391.678,-38.286,-1.89756,178.484,5.64697,-145.129,1628
1569922271,391.678,-38.286,-1.89756,178.484,5.64697,-145.129,1628
1569922271,391.678,-38.286,-1.89756,178.506,5.64697,-145.129,1628
1569922271,391.678,-38.286,-1.89756,178.506,5.66895,-145.129,1628
1569922271,391.79,-38.286,-1.89756,178.506,5.66895,-145.129,1628
1569922271,391.79,-38.286,-1.89756,178.506,5.66895,-145.129,1628
1569922271,391.79,-38.286,-1.89756,178.506,5.66895,-145.129,1628
1569922271,391.79,-38.286,-1.89756,178.506,5.66895,-145.129,1628
1569922271,391.79,-38.286,-1.89756,178.506,5.66895,-145.129,1628
1569922271,391.79,-38.286,-1.78594,178.506,5.66895,-145.129,1628
1569922271,391.79,-38.286,-1.78594,178.506,5.66895,-145.129,1628
1569922271,391.79,-38.286,-1.78594,178.528,5.66895,-145.129,1628
1569922271,391.79,-38.286,-1.78594,178.528,5.66895,-145.129,1628
1569922271,391.79,-38.286,-1.78594,178.528,5.66895,-145.129,1628
1569922271,391.79,-38.286,-1.78594,178.528,5.66895,-145.129,1628
1569922271,391.79,-38.286,-1.78594,178.528,5.66895,-145.129,1632
1569922271,391.79,-38.286,-1.78594,178.528,5.66895,-145.151,1632
1569922271,391.79,-38.286,-1.78594,178.506,5.66895,-145.151,1632
1569922271,391.79,-38.286,-1.78594,178.506,5.66895,-145.151,1632
1569922272,391.79,-38.286,-1.89756,178.506,5.66895,-145.151,1632
1569922272,391.79,-38.286,-1.78594,178.506,5.66895,-145.151,1632
1569922272,391.79,-38.286,-1.78594,178.506,5.66895,-145.151,1636
1569922272,391.79,-38.286,-1.78594,178.506,5.66895,-145.151,1636
1569922272,391.79,-38.286,-1.78594,178.506,5.66895,-145.151,1636
1569922272,391.678,-38.286,-1.78594,178.506,5.66895,-145.151,1636
1569922272,391.678,-38.286,-1.78594,178.506,5.66895,-145.151,1636
1569922272,391.678,-38.286,-1.78594,178.506,5.66895,-145.151,1632
1569922272,391.678,-38.286,-1.78594,178.506,5.66895,-145.151,1632
1569922272,391.678,-38.286,-1.78594,178.506,5.66895,-145.151,1632
1569922272,391.678,-38.286,-1.78594,178.506,5.66895,-145.151,1632
1569922272,391.678,-38.286,-1.89756,178.506,5.66895,-145.151,1632
1569922272,391.678,-38.286,-1.89756,178.506,5.66895,-145.151,1632
1569922272,391.678,-38.286,-1.89756,178.506,5.66895,-145.151,1628
1569922272,391.678,-38.286,-1.89756,178.506,5.66895,-145.151,1628
1569922272,391.678,-38.286,-1.89756,178.506,5.66895,-145.151,1628
1569922272,391.678,-38.286,-1.89756,178.506,5.66895,-145.151,1628
1569922272,391.678,-38.3977,-1.89756,178.484,5.66895,-145.151,1628
1569922272,391.79,-38.3977,-1.89756,178.484,5.66895,-145.151,1628
1569922272,391.79,-38.3977,-1.89756,178.484,5.66895,-145.151,1628
1569922272,391.79,-38.3977,-1.89756,178.484,5.66895,-145.151,1628
1569922272,391.79,-38.3977,-1.89756,178.484,5.66895,-145.151,1628
1569922272,391.79,-38.3977,-1.89756,178.484,5.66895,-145.151,1628
1569922272,391.79,-38.3977,-1.89756,178.484,5.66895,-145.151,1632
1569922272,391.79,-38.3977,-1.89756,178.484,5.66895,-145.151,1632
1569922272,391.79,-38.3977,-1.89756,178.484,5.66895,-145.151,1632
1569922272,391.79,-38.3977,-1.89756,178.484,5.66895,-145.151,1632
1569922272,391.79,-38.3977,-1.89756,178.484,5.66895,-145.151,1636
1569922272,391.79,-38.3977,-1.89756,178.484,5.66895,-145.151,1636
1569922272,391.79,-38.3977,-1.89756,178.484,5.66895,-145.151,1636
1569922272,391.79,-38.3977,-1.89756,178.484,5.66895,-145.151,1636
1569922272,391.79,-38.3977,-1.89756,178.484,5.66895,-145.151,1640
1569922272,391.79,-38.3977,-1.89756,178.484,5.66895,-145.151,1640
1569922272,391.678,-38.3977,-1.89756,178.484,5.66895,-145.151,1640
1569922272,391.678,-38.3977,-1.89756,178.484,5.69092,-145.151,1640
1569922272,391.678,-38.3977,-1.78594,178.484,5.69092,-145.151,1640
1569922272,391.678,-38.286,-1.78594,178.484,5.69092,-145.151,1640
1569922272,391.678,-38.286,-1.78594,178.484,5.69092,-145.151,1644
1569922272,391.678,-38.286,-1.89756,178.484,5.69092,-145.151,1644
1569922272,391.678,-38.286,-1.89756,178.506,5.66895,-145.151,1644
1569922272,391.678,-38.286,-1.89756,178.506,5.66895,-145.151,1644
1569922272,391.79,-38.286,-1.89756,178.506,5.66895,-145.151,1644
1569922272,391.79,-38.286,-1.89756,178.506,5.66895,-145.151,1644
1569922272,391.79,-38.286,-1.89756,178.506,5.66895,-145.151,1648
1569922272,391.79,-38.286,-1.89756,178.506,5.66895,-145.151,1648
1569922272,391.678,-38.286,-1.89756,178.506,5.66895,-145.151,1648
1569922272,391.678,-38.286,-1.89756,178.506,5.66895,-145.151,1648
1569922272,391.678,-38.286,-1.89756,178.506,5.66895,-145.151,1648
1569922272,391.678,-38.286,-1.89756,178.506,5.66895,-145.151,1648
1569922272,391.678,-38.286,-1.89756,178.506,5.69092,-145.151,1648
1569922272,391.678,-38.286,-1.89756,178.506,5.69092,-145.151,1648
1569922272,391.678,-38.286,-1.78594,178.506,5.69092,-145.151,1644
1569922272,391.678,-38.286,-1.78594,178.528,5.69092,-145.151,1644
1569922272,391.678,-38.286,-1.78594,178.528,5.69092,-145.151,1644
1569922272,391.678,-38.286,-1.78594,178.528,5.69092,-145.151,1644
1569922272,391.678,-38.1744,-1.78594,178.528,5.69092,-145.151,1644
1569922272,391.678,-38.1744,-1.78594,178.528,5.69092,-145.151,1644
1569922272,391.678,-38.1744,-1.78594,178.528,5.69092,-145.151,1644
1569922272,391.678,-38.1744,-1.78594,178.528,5.69092,-145.151,1644
1569922272,391.79,-38.1744,-1.78594,178.528,5.69092,-145.151,1644
1569922272,391.79,-38.1744,-1.78594,178.528,5.69092,-145.151,1644
1569922272,391.79,-38.1744,-1.78594,178.528,5.69092,-145.151,1644
1569922272,391.79,-38.286,-1.78594,178.528,5.69092,-145.151,1644
1569922272,391.79,-38.286,-1.78594,178.528,5.69092,-145.151,1644
1569922272,391.79,-38.286,-1.78594,178.528,5.69092,-145.151,1644
1569922272,391.678,-38.286,-1.78594,178.528,5.69092,-145.151,1640
1569922272,391.79,-38.286,-1.78594,178.528,5.71289,-145.151,1640
1569922272,391.79,-38.286,-1.78594,178.528,5.71289,-145.151,1640
1569922272,391.79,-38.286,-1.78594,178.528,5.71289,-145.129,1640
1569922272,391.79,-38.286,-1.67432,178.528,5.71289,-145.129,1640
1569922272,391.79,-38.286,-1.67432,178.528,5.71289,-145.129,1636
1569922272,391.79,-38.286,-1.67432,178.528,5.71289,-145.129,1636
1569922272,391.79,-38.286,-1.67432,178.528,5.71289,-145.129,1636
1569922272,391.79,-38.286,-1.67432,178.528,5.71289,-145.129,1636
1569922272,391.79,-38.286,-1.67432,178.506,5.71289,-145.129,1636
1569922272,391.79,-38.286,-1.67432,178.506,5.73486,-145.129,1636
1569922272,391.79,-38.286,-1.67432,178.506,5.73486,-145.129,1636
1569922272,391.79,-38.286,-1.67432,178.506,5.71289,-145.151,1636
1569922276,367.233,-14.5107,-1.45107,178.044,5.99854,-145.371,1444
1569922276,367.233,-14.5107,-1.45107,178.044,6.02051,-145.371,1444
1569922276,367.233,-14.5107,-1.45107,178.044,6.02051,-145.371,1444
1569922276,367.233,-14.5107,-1.45107,178.044,6.02051,-145.371,1440
1569922276,367.233,-14.5107,-1.45107,178.044,6.02051,-145.371,1440
1569922276,367.233,-14.5107,-1.45107,178.044,6.02051,-145.371,1440
1569922276,367.233,-14.6224,-1.45107,178.044,6.02051,-145.371,1440
1569922276,367.233,-14.6224,-1.45107,178.044,6.02051,-145.371,1436
1569922276,367.233,-14.6224,-1.45107,178.044,6.02051,-145.371,1436
1569922276,367.233,-14.6224,-1.45107,178.044,6.02051,-145.371,1436
1569922276,367.233,-14.6224,-1.45107,178.044,6.02051,-145.371,1436
1569922276,367.233,-14.6224,-1.45107,178.044,5.99854,-145.371,1436
1569922276,367.233,-14.6224,-1.45107,178.044,5.99854,-145.371,1436
1569922276,367.233,-14.6224,-1.45107,178.044,5.99854,-145.371,1432
1569922276,367.233,-14.6224,-1.45107,178.044,5.99854,-145.371,1432
1569922276,367.233,-14.6224,-1.45107,178.044,5.99854,-145.371,1432
1569922276,367.233,-14.6224,-1.45107,178.044,5.99854,-145.371,1432
1569922276,367.233,-14.6224,-1.45107,178.044,5.99854,-145.371,1432
1569922276,367.233,-14.6224,-1.45107,178.044,5.99854,-145.371,1432
1569922276,367.233,-14.6224,-1.45107,178.044,5.99854,-145.371,1432
1569922276,367.233,-14.6224,-1.45107,178.044,5.99854,-145.371,1432
1569922276,367.233,-14.6224,-1.45107,178.044,5.99854,-145.371,1432
1569922276,367.233,-14.6224,-1.45107,178.044,5.99854,-145.371,1432
1569922276,367.233,-14.5107,-1.45107,178.044,5.99854,-145.371,1432
1569922276,367.233,-14.5107,-1.45107,178.044,5.99854,-145.371,1432
1569922276,367.233,-14.5107,-1.45107,178.044,5.99854,-145.371,1432
1569922276,367.233,-14.5107,-1.45107,178.044,5.99854,-145.349,1432
1569922276,367.233,-14.5107,-1.45107,178.044,5.99854,-145.349,1432
1569922276,367.233,-14.5107,-1.45107,178.044,5.99854,-145.349,1432
1569922276,367.233,-14.5107,-1.45107,178.044,5.99854,-145.349,1436
1569922276,367.233,-14.5107,-1.45107,178.044,5.99854,-145.371,1436
1569922276,367.233,-14.5107,-1.45107,178.044,5.99854,-145.371,1436
1569922276,367.233,-14.5107,-1.45107,178.044,5.99854,-145.371,1436
1569922276,367.233,-14.5107,-1.45107,178.044,5.99854,-145.371,1436
1569922276,367.233,-14.5107,-1.45107,178.044,5.99854,-145.371,1436
1569922276,367.233,-14.5107,-1.45107,178.044,5.99854,-145.371,1436
1569922276,367.233,-14.5107,-1.45107,178.044,5.99854,-145.371,1436
1569922276,367.233,-14.5107,-1.45107,178.044,5.99854,-145.371,1436
1569922276,367.233,-14.5107,-1.45107,178.044,5.99854,-145.371,1436
1569922276,367.233,-14.5107,-1.45107,178.044,6.02051,-145.371,1436
1569922276,367.233,-14.5107,-1.45107,178.044,6.02051,-145.371,1436
1569922276,367.233,-14.6224,-1.45107,178.022,6.02051,-145.371,1436
1569922276,367.233,-14.6224,-1.45107,178.022,6.02051,-145.371,1436
1569922276,367.233,-14.6224,-1.45107,178.022,6.02051,-145.371,1436
1569922276,367.233,-14.6224,-1.45107,178.022,6.02051,-145.371,1436
1569922276,367.233,-14.6224,-1.45107,178.022,6.02051,-145.371,1436
1569922276,367.233,-14.6224,-1.33945,178.022,6.02051,-145.371,1436
1569922276,367.233,-14.6224,-1.33945,178.022,6.02051,-145.371,1436
1569922276,367.233,-14.6224,-1.33945,178.022,6.02051,-145.371,1436
1569922276,367.233,-14.6224,-1.33945,178.022,6.02051,-145.371,1436
1569922276,367.233,-14.6224,-1.33945,178.022,6.02051,-145.371,1436
1569922276,367.233,-14.6224,-1.45107,178.022,6.02051,-145.349,1436
1569922276,367.233,-14.6224,-1.45107,178.044,6.02051,-145.349,1436
1569922276,367.233,-14.6224,-1.45107,178.044,6.02051,-145.371,1436
1569922276,367.233,-14.6224,-1.45107,178.044,6.02051,-145.371,1436
1569922276,367.233,-14.6224,-1.45107,178.044,6.02051,-145.371,1436
1569922276,367.233,-14.6224,-1.45107,178.044,6.02051,-145.371,1436
1569922276,367.233,-14.6224,-1.45107,178.044,6.02051,-145.371,1440
1569922276,367.233,-14.6224,-1.45107,178.044,6.02051,-145.371,1440
1569922276,367.233,-14.5107,-1.45107,178.044,5.99854,-145.371,1440
1569922276,367.233,-14.5107,-1.45107,178.044,5.99854,-145.371,1440
1569922276,367.233,-14.5107,-1.45107,178.044,5.99854,-145.371,1440
1569922276,367.233,-14.5107,-1.45107,178.044,5.99854,-145.371,1440
1569922276,367.233,-14.5107,-1.45107,178.044,5.99854,-145.371,1440
1569922276,367.233,-14.5107,-1.45107,178.044,5.99854,-145.371,1440
1569922276,367.233,-14.5107,-1.45107,178.044,5.99854,-145.371,1444
1569922276,367.233,-14.5107,-1.45107,178.044,5.99854,-145.371,1444
1569922276,367.233,-14.5107,-1.45107,178.044,5.99854,-145.371,1444
1569922276,367.233,-14.5107,-1.45107,178.044,6.02051,-145.371,1444
1569922276,367.233,-14.5107,-1.45107,178.044,6.02051,-145.371,1444
1569922276,367.233,-14.5107,-1.45107,178.066,6.02051,-145.371,1448
1569922276,367.233,-14.5107,-1.45107,178.066,6.02051,-145.371,1448
1569922276,367.233,-14.5107,-1.45107,178.066,6.02051,-145.371,1448
1569922276,367.233,-14.5107,-1.45107,178.066,6.02051,-145.371,1448
1569922276,367.233,-14.5107,-1.45107,178.066,6.02051,-145.371,1448
1569922276,367.345,-14.5107,-1.45107,178.066,6.02051,-145.371,1448
1569922277,367.345,-14.5107,-1.45107,178.066,6.02051,-145.371,1448
1569922277,367.345,-14.5107,-1.45107,178.066,6.02051,-145.371,1448
1569922277,367.345,-14.5107,-1.45107,178.066,6.02051,-145.371,1448
1569922277,367.345,-14.5107,-1.45107,178.066,6.02051,-145.371,1448
1569922277,367.345,-14.5107,-1.45107,178.066,6.02051,-145.371,1448
1569922277,367.345,-14.5107,-1.45107,178.066,6.02051,-145.371,1448
1569922277,367.345,-14.5107,-1.45107,178.066,6.02051,-145.371,1448
1569922277,367.345,-14.5107,-1.45107,178.066,6.02051,-145.349,1448
1569922277,367.345,-14.5107,-1.45107,178.066,6.02051,-145.349,1448
1569922277,367.345,-14.5107,-1.45107,178.066,6.02051,-145.349,1448
1569922277,367.345,-14.5107,-1.45107,178.066,6.02051,-145.349,1452
1569922277,367.345,-14.5107,-1.45107,178.066,6.02051,-145.349,1452
1569922277,367.345,-14.5107,-1.45107,178.044,6.02051,-145.349,1452
1569922277,367.345,-14.5107,-1.45107,178.044,6.02051,-145.349,1452
1569922277,367.345,-14.5107,-1.45107,178.044,6.02051,-145.349,1452
1569922277,367.345,-14.5107,-1.45107,178.044,6.02051,-145.349,1452
1569922277,367.345,-14.5107,-1.45107,178.044,6.02051,-145.349,1452
1569922277,367.345,-14.5107,-1.45107,178.044,6.02051,-145.349,1452
1569922277,367.345,-14.5107,-1.45107,178.044,6.02051,-145.349,1452
1569922277,367.345,-14.5107,-1.45107,178.044,6.02051,-145.349,1452
1569922277,367.345,-14.5107,-1.45107,178.044,6.02051,-145.349,1452
1569922277,367.345,-14.5107,-1.45107,178.044,6.02051,-145.349,1452
1569922277,367.345,-14.5107,-1.45107,178.066,6.02051,-145.371,1452
1569922277,367.345,-14.5107,-1.45107,178.066,6.02051,-145.371,1452
1569922277,367.345,-14.5107,-1.45107,178.066,6.02051,-145.371,1448
1569922277,367.345,-14.5107,-1.45107,178.066,6.02051,-145.371,1448
1569922277,367.233,-14.5107,-1.45107,178.066,6.02051,-145.371,1448
1569922277,367.233,-14.5107,-1.45107,178.066,6.02051,-145.371,1448
1569922277,367.233,-14.5107,-1.45107,178.066,6.02051,-145.349,1448
1569922277,367.233,-14.5107,-1.45107,178.066,6.02051,-145.349,1448
1569922277,367.233,-14.5107,-1.45107,178.066,6.02051,-145.349,1448
1569922277,367.233,-14.5107,-1.45107,178.066,6.02051,-145.349,1448
1569922277,367.233,-14.5107,-1.45107,178.066,6.02051,-145.349,1448
1569922277,367.233,-14.5107,-1.45107,178.066,6.02051,-145.349,1448
1569922277,367.233,-14.5107,-1.45107,178.066,6.02051,-145.349,1448
1569922277,367.233,-14.5107,-1.45107,178.066,6.02051,-145.349,1448
1569922277,367.233,-14.5107,-1.45107,178.066,6.02051,-145.349,1448
1569922277,367.233,-14.5107,-1.45107,178.066,5.99854,-145.349,1448
1569922277,367.233,-14.5107,-1.45107,178.066,5.99854,-145.349,1448
1569922277,367.233,-14.5107,-1.45107,178.066,5.99854,-145.349,1448
1569922277,367.233,-14.5107,-1.45107,178.066,5.99854,-145.349,1448
1569922277,367.233,-14.5107,-1.45107,178.066,5.99854,-145.349,1448
1569922277,367.233,-14.5107,-1.45107,178.066,5.99854,-145.349,1448
1569922277,367.233,-14.5107,-1.45107,178.066,5.99854,-145.349,1448
1569922277,367.345,-14.5107,-1.45107,178.066,5.99854,-145.349,1448
1569922277,367.345,-14.5107,-1.45107,178.066,5.99854,-145.349,1448
1569922277,367.345,-14.5107,-1.45107,178.066,6.02051,-145.349,1448
1569922277,367.345,-14.5107,-1.45107,178.066,6.02051,-145.349,1452
1569922277,367.345,-14.5107,-1.45107,178.066,6.02051,-145.349,1452
1569922277,367.345,-14.5107,-1.45107,178.066,6.02051,-145.349,1452
1569922277,367.345,-14.5107,-1.45107,178.066,6.02051,-145.349,1452
1569922277,367.345,-14.5107,-1.45107,178.066,6.02051,-145.349,1452
1569922277,367.345,-14.5107,-1.45107,178.066,6.02051,-145.371,1452
1569922277,367.345,-14.5107,-1.45107,178.066,6.02051,-145.371,1452
1569922277,367.345,-14.5107,-1.45107,178.066,6.02051,-145.371,1456
1569922277,367.345,-14.5107,-1.45107,178.066,6.02051,-145.371,1456
1569922277,367.345,-14.5107,-1.45107,178.066,6.02051,-145.371,1456
1569922277,367.345,-14.5107,-1.45107,178.066,6.02051,-145.371,1456
1569922277,367.345,-14.5107,-1.45107,178.066,6.02051,-145.371,1456
1569922277,367.345,-14.5107,-1.45107,178.066,6.02051,-145.371,1456
1569922277,367.345,-14.5107,-1.45107,178.066,6.02051,-145.371,1456
1569922277,367.345,-14.5107,-1.45107,178.066,6.02051,-145.371,1456
1569922277,367.345,-14.5107,-1.45107,178.066,6.02051,-145.371,1456
1569922277,367.345,-14.5107,-1.45107,178.066,5.99854,-145.371,1456
1569922277,367.345,-14.5107,-1.45107,178.066,5.99854,-145.371,1456
1569922277,367.233,-14.5107,-1.45107,178.066,5.99854,-145.371,1456
1569922277,367.233,-14.5107,-1.45107,178.066,5.99854,-145.371,1456
1569922277,367.233,-14.5107,-1.45107,178.044,5.99854,-145.371,1456
1569922277,367.233,-14.5107,-1.45107,178.044,5.99854,-145.371,1456
1569922277,367.233,-14.5107,-1.45107,178.044,5.99854,-145.371,1456
1569922277,367.233,-14.5107,-1.45107,178.044,5.99854,-145.371,1456
1569922277,367.233,-14.5107,-1.45107,178.044,5.99854,-145.371,1456
1569922277,367.345,-14.5107,-1.45107,178.044,5.99854,-145.371,1456
1569922277,367.345,-14.5107,-1.45107,178.044,5.99854,-145.371,1456
1569922277,367.345,-14.5107,-1.45107,178.044,5.99854,-145.371,1456
1569922277,367.345,-14.5107,-1.45107,178.044,5.99854,-145.349,1456
1569922277,367.345,-14.5107,-1.45107,178.044,5.99854,-145.349,1456
1569922277,367.345,-14.5107,-1.45107,178.066,5.99854,-145.349,1456
1569922277,367.345,-14.5107,-1.45107,178.066,5.99854,-145.349,1456
1569922277,367.345,-14.5107,-1.45107,178.066,5.99854,-145.349,1460
1569922277,367.345,-14.5107,-1.45107,178.066,5.99854,-145.371,1460
1569922277,367.345,-14.5107,-1.45107,178.066,5.99854,-145.371,1460
1569922277,367.345,-14.5107,-1.45107,178.066,5.99854,-145.371,1460
1569922277,367.345,-14.5107,-1.45107,178.066,5.99854,-145.371,1460
1569922277,367.345,-14.5107,-1.45107,178.066,5.99854,-145.371,1460
1569922277,367.345,-14.5107,-1.5627,178.066,5.99854,-145.371,1460
1569922277,367.345,-14.5107,-1.5627,178.066,5.99854,-145.371,1464
1569922277,367.345,-14.5107,-1.5627,178.066,5.99854,-145.371,1464
1569922277,367.345,-14.5107,-1.5627,178.066,5.99854,-145.371,1464
1569922277,367.345,-14.5107,-1.5627,178.066,5.99854,-145.371,1464
1569922277,367.345,-14.5107,-1.5627,178.066,5.99854,-145.371,1464
1569922277,367.345,-14.5107,-1.5627,178.066,5.99854,-145.371,1464
1569922277,367.345,-14.5107,-1.45107,178.066,5.99854,-145.371,1464
1569922277,367.345,-14.5107,-1.45107,178.066,5.99854,-145.349,1464
1569922277,367.345,-14.5107,-1.45107,178.066,5.99854,-145.349,1464
1569922277,367.345,-14.5107,-1.45107,178.066,5.99854,-145.349,1464
1569922277,367.345,-14.5107,-1.45107,178.066,5.99854,-145.349,1464
1569922277,367.345,-14.5107,-1.5627,178.066,5.99854,-145.349,1464
1569922277,367.345,-14.5107,-1.5627,178.066,5.99854,-145.349,1464
1569922277,367.345,-14.5107,-1.5627,178.066,5.99854,-145.349,1464
1569922278,367.345,-14.5107,-1.5627,178.066,5.99854,-145.349,1464
1569922278,367.345,-14.5107,-1.5627,178.066,5.99854,-145.349,1464
1569922278,367.345,-14.5107,-1.5627,178.066,5.99854,-145.349,1464
1569922278,367.345,-14.5107,-1.5627,178.066,5.99854,-145.349,1464
1569922278,367.345,-14.5107,-1.5627,178.066,5.99854,-145.349,1464
1569922278,367.345,-14.5107,-1.5627,178.066,5.97656,-145.349,1464
1569922278,367.345,-14.5107,-1.5627,178.066,5.97656,-145.349,1464
1569922278,367.345,-14.5107,-1.5627,178.044,5.97656,-145.349,1464
1569922278,367.345,-14.5107,-1.5627,178.044,5.97656,-145.349,1464
1569922278,367.345,-14.5107,-1.5627,178.044,5.97656,-145.349,1464
1569922278,367.345,-14.5107,-1.5627,178.044,5.97656,-145.349,1464
1569922278,367.345,-14.5107,-1.5627,178.044,5.97656,-145.349,1464
1569922278,367.345,-14.5107,-1.5627,178.044,5.97656,-145.371,1464
1569922278,367.345,-14.5107,-1.5627,178.044,5.97656,-145.371,1464
1569922278,367.345,-14.6224,-1.5627,178.044,5.99854,-145.371,1464
1569922278,367.345,-14.6224,-1.5627,178.044,5.99854,-145.371,1464
1569922278,367.345,-14.6224,-1.45107,178.044,5.99854,-145.371,1464
1569922278,367.345,-14.6224,-1.45107,178.044,5.99854,-145.371,1464
1569922278,367.345,-14.6224,-1.45107,178.044,5.99854,-145.371,1464
1569922278,367.345,-14.6224,-1.45107,178.044,5.99854,-145.371,1464
1569922278,367.345,-14.6224,-1.45107,178.044,5.99854,-145.349,1464
1569922278,367.345,-14.6224,-1.45107,178.044,5.99854,-145.349,1464
1569922278,367.345,-14.5107,-1.45107,178.044,5.99854,-145.349,1464
1569922278,367.345,-14.5107,-1.45107,178.044,5.99854,-145.349,1464
1569922278,367.345,-14.5107,-1.45107,178.044,5.99854,-145.349,1464
1569922278,367.345,-14.5107,-1.45107,178.044,5.99854,-145.349,1464
1569922278,367.345,-14.5107,-1.45107,178.044,5.99854,-145.349,1468
1569922278,367.345,-14.5107,-1.45107,178.044,5.99854,-145.349,1468
1569922278,367.345,-14.5107,-1.45107,178.044,5.99854,-145.349,1468
1569922278,367.345,-14.5107,-1.45107,178.044,5.99854,-145.349,1468
1569922278,367.345,-14.5107,-1.45107,178.044,5.99854,-145.349,1468
1569922278,367.345,-14.5107,-1.45107,178.044,5.99854,-145.349,1464
1569922278,367.345,-14.5107,-1.45107,178.044,5.99854,-145.349,1464
1569922278,367.345,-14.5107,-1.45107,178.044,5.99854,-145.349,1464
1569922278,367.345,-14.5107,-1.45107,178.044,5.99854,-145.349,1464
1569922278,367.345,-14.5107,-1.45107,178.044,6.02051,-145.349,1464
1569922278,367.345,-14.5107,-1.45107,178.044,6.02051,-145.349,1464
1569922278,367.345,-14.6224,-1.45107,178.044,6.02051,-145.349,1464
1569922278,367.345,-14.6224,-1.45107,178.044,6.02051,-145.349,1464
1569922278,367.345,-14.6224,-1.45107,178.044,6.02051,-145.349,1464
1569922278,367.345,-14.6224,-1.45107,178.044,6.02051,-145.349,1464
1569922278,367.345,-14.5107,-1.45107,178.044,6.02051,-145.349,1464
1569922278,367.345,-14.6224,-1.45107,178.044,6.02051,-145.349,1460
1569922278,367.345,-14.6224,-1.45107,178.044,6.02051,-145.349,1460
1569922278,367.345,-14.6224,-1.45107,178.044,6.02051,-145.371,1460
1569922278,367.345,-14.6224,-1.45107,178.044,6.02051,-145.371,1460
1569922278,367.345,-14.6224,-1.45107,178.044,6.02051,-145.371,1460
1569922278,367.345,-14.6224,-1.45107,178.044,6.02051,-145.371,1456
1569922278,367.345,-14.6224,-1.45107,178.044,6.02051,-145.371,1456
1569922278,367.345,-14.6224,-1.45107,178.044,6.02051,-145.349,1452
1569922278,367.345,-14.6224,-1.45107,178.044,6.04248,-145.349,1452
1569922278,367.345,-14.6224,-1.33945,178.044,6.04248,-145.349,1452
1569922278,367.345,-14.6224,-1.33945,178.044,6.04248,-145.349,1448
1569922278,367.345,-14.6224,-1.45107,178.044,6.04248,-145.349,1448
1569922278,367.345,-14.6224,-1.45107,178.044,6.02051,-145.349,1448
1569922278,367.345,-14.6224,-1.45107,178.044,6.02051,-145.349,1444
1569922278,367.345,-14.6224,-1.45107,178.044,6.02051,-145.349,1444
1569922278,367.345,-14.5107,-1.45107,178.044,6.02051,-145.349,1444
1569922278,367.345,-14.5107,-1.45107,178.044,6.02051,-145.349,1444
1569922278,367.345,-14.5107,-1.45107,178.044,6.02051,-145.349,1444
1569922278,367.345,-14.5107,-1.45107,178.066,6.02051,-145.349,1444
1569922278,367.345,-14.5107,-1.45107,178.066,6.02051,-145.349,1444
1569922278,367.345,-14.5107,-1.45107,178.066,5.99854,-145.349,1444
1569922278,367.345,-14.5107,-1.45107,178.066,6.02051,-145.349,1444
1569922278,367.345,-14.5107,-1.45107,178.066,6.02051,-145.349,1444
1569922278,367.345,-14.5107,-1.45107,178.066,6.02051,-145.349,1444
1569922278,367.345,-14.5107,-1.45107,178.066,6.02051,-145.349,1444
1569922278,367.345,-14.5107,-1.45107,178.066,6.02051,-145.349,1444
1569922278,367.345,-14.5107,-1.45107,178.066,6.02051,-145.349,1444
1569922278,367.345,-14.5107,-1.45107,178.066,6.02051,-145.349,1444
1569922278,367.345,-14.5107,-1.45107,178.066,6.02051,-145.349,1444
1569922278,367.345,-14.5107,-1.45107,178.066,6.02051,-145.349,1444
1569922278,367.345,-14.5107,-1.45107,178.066,6.02051,-145.349,1444
1569922278,367.345,-14.5107,-1.45107,178.066,6.02051,-145.349,1444
1569922278,367.345,-14.5107,-1.45107,178.066,6.02051,-145.349,1444
1569922278,367.345,-14.5107,-1.45107,178.066,6.02051,-145.349,1444
1569922278,367.345,-14.5107,-1.45107,178.066,6.02051,-145.349,1444
1569922278,367.345,-14.5107,-1.45107,178.044,6.02051,-145.349,1444
1569922278,367.345,-14.5107,-1.45107,178.044,6.02051,-145.349,1444
1569922278,367.345,-14.5107,-1.45107,178.044,6.02051,-145.349,1444
1569922278,367.345,-14.5107,-1.45107,178.044,6.02051,-145.349,1444
1569922278,367.345,-14.5107,-1.45107,178.044,6.02051,-145.349,1444
1569922278,367.345,-14.5107,-1.45107,178.066,6.02051,-145.349,1444
1569922278,367.345,-14.5107,-1.45107,178.066,6.02051,-145.349,1444
1569922278,367.233,-14.5107,-1.45107,178.066,6.02051,-145.349,1444
1569922278,367.233,-14.5107,-1.45107,178.066,6.02051,-145.349,1444
1569922278,367.233,-14.5107,-1.45107,178.066,6.02051,-145.349,1444
1569922278,367.233,-14.5107,-1.45107,178.066,6.02051,-145.349,1444
1569922278,367.233,-14.5107,-1.45107,178.066,6.02051,-145.349,1444
1569922278,367.233,-14.5107,-1.45107,178.066,6.02051,-145.349,1444
1569922278,367.233,-14.5107,-1.45107,178.066,6.02051,-145.349,1444
1569922278,367.233,-14.5107,-1.45107,178.066,6.02051,-145.349,1444
1569922278,367.233,-14.5107,-1.45107,178.066,6.02051,-145.349,1444
1569922278,367.345,-14.5107,-1.45107,178.066,6.02051,-145.349,1444
1569922278,367.345,-14.5107,-1.45107,178.066,6.02051,-145.349,1444
1569922278,367.345,-14.5107,-1.45107,178.066,6.02051,-145.349,1444
1569922278,367.345,-14.5107,-1.45107,178.066,6.02051,-145.349,1444
1569922278,367.345,-14.5107,-1.45107,178.066,6.02051,-145.349,1444
1569922278,367.345,-14.5107,-1.45107,178.066,6.02051,-145.349,1444
1569922278,367.345,-14.5107,-1.45107,178.066,6.02051,-145.349,1444
1569922279,367.345,-14.5107,-1.45107,178.066,6.02051,-145.349,1444
1569922279,367.345,-14.5107,-1.45107,178.066,6.02051,-145.349,1444
1569922279,367.345,-14.5107,-1.45107,178.066,6.02051,-145.349,1444
1569922279,367.345,-14.5107,-1.45107,178.066,6.02051,-145.349,1444
1569922279,367.345,-14.5107,-1.45107,178.066,6.02051,-145.349,1444
1569922279,367.345,-14.5107,-1.45107,178.066,6.02051,-145.349,1444
1569922279,367.345,-14.5107,-1.45107,178.066,6.02051,-145.349,1440
1569922279,367.345,-14.5107,-1.45107,178.066,6.02051,-145.349,1440
1569922279,367.345,-14.5107,-1.45107,178.066,6.02051,-145.349,1440
1569922279,367.345,-14.5107,-1.45107,178.066,6.02051,-145.349,1440
1569922279,367.345,-14.5107,-1.45107,178.066,6.02051,-145.349,1444
1569922279,367.345,-14.5107,-1.45107,178.066,6.02051,-145.349,1444
1569922279,367.345,-14.5107,-1.45107,178.066,6.02051,-145.349,1444
1569922279,367.345,-14.5107,-1.45107,178.044,6.02051,-145.349,1444
1569922279,367.345,-14.5107,-1.45107,178.044,6.02051,-145.349,1444
1569922279,367.345,-14.5107,-1.45107,178.044,6.02051,-145.349,1444
1569922279,367.345,-14.5107,-1.45107,178.044,6.02051,-145.349,1444
1569922279,367.345,-14.5107,-1.45107,178.044,6.02051,-145.349,1444
1569922279,367.345,-14.5107,-1.45107,178.044,6.02051,-145.349,1444
1569922279,367.233,-14.5107,-1.45107,178.044,6.02051,-145.349,1444
1569922279,367.233,-14.5107,-1.45107,178.044,6.02051,-145.349,1444
1569922279,367.233,-14.5107,-1.45107,178.044,6.02051,-145.349,1444
1569922279,367.233,-14.6224,-1.45107,178.044,6.02051,-145.349,1444
1569922279,367.233,-14.6224,-1.45107,178.044,6.02051,-145.349,1444
1569922279,367.233,-14.6224,-1.45107,178.044,6.02051,-145.349,1444
1569922279,367.233,-14.6224,-1.45107,178.044,6.02051,-145.349,1444
1569922279,367.233,-14.6224,-1.45107,178.044,6.02051,-145.349,1444
1569922279,367.233,-14.6224,-1.45107,178.044,6.02051,-145.349,1444
1569922279,367.233,-14.6224,-1.45107,178.044,6.02051,-145.349,1444
1569922279,367.233,-14.6224,-1.45107,178.044,6.02051,-145.349,1444
1569922279,367.345,-14.6224,-1.45107,178.044,6.02051,-145.349,1444
1569922279,367.345,-14.6224,-1.45107,178.044,6.02051,-145.349,1444
1569922279,367.345,-14.6224,-1.45107,178.044,6.02051,-145.349,1448
1569922279,367.345,-14.6224,-1.45107,178.044,6.02051,-145.349,1448
1569922279,367.345,-14.6224,-1.45107,178.044,6.02051,-145.349,1448
1569922279,367.345,-14.6224,-1.45107,178.044,6.02051,-145.349,1448
1569922279,367.345,-14.6224,-1.45107,178.044,6.02051,-145.349,1448
1569922279,367.345,-14.6224,-1.45107,178.044,6.02051,-145.349,1448
1569922279,367.345,-14.6224,-1.45107,178.044,6.02051,-145.349,1452
1569922279,367.345,-14.6224,-1.45107,178.044,6.02051,-145.349,1452
1569922279,367.345,-14.6224,-1.45107,178.044,6.02051,-145.349,1452
1569922279,367.345,-14.6224,-1.45107,178.044,6.02051,-145.349,1452
1569922279,367.345,-14.6224,-1.45107,178.044,6.02051,-145.349,1452
1569922279,367.345,-14.6224,-1.45107,178.044,6.02051,-145.349,1452
1569922279,367.345,-14.6224,-1.45107,178.044,6.02051,-145.349,1456
1569922279,367.345,-14.6224,-1.45107,178.044,6.02051,-145.349,1456
1569922279,367.345,-14.6224,-1.45107,178.044,6.02051,-145.349,1456
1569922279,367.345,-14.6224,-1.45107,178.044,6.02051,-145.349,1456
1569922279,367.233,-14.6224,-1.45107,178.044,6.02051,-145.349,1456
1569922279,367.233,-14.5107,-1.45107,178.044,6.02051,-145.349,1460
1569922279,367.233,-14.5107,-1.45107,178.044,6.02051,-145.349,1460
1569922279,367.233,-14.5107,-1.45107,178.044,6.02051,-145.349,1460
1569922279,367.233,-14.5107,-1.45107,178.044,6.02051,-145.349,1460
1569922279,367.233,-14.5107,-1.45107,178.044,6.02051,-145.349,1460
1569922279,367.233,-14.5107,-1.45107,178.044,6.02051,-145.349,1460
1569922279,367.233,-14.5107,-1.45107,178.044,6.02051,-145.349,1460
1569922279,367.233,-14.5107,-1.45107,178.044,6.02051,-145.349,1460
1569922279,367.345,-14.5107,-1.45107,178.044,6.02051,-145.349,1460
1569922279,367.345,-14.5107,-1.45107,178.044,6.02051,-145.349,1460
1569922279,367.345,-14.5107,-1.45107,178.044,6.02051,-145.349,1460
1569922279,367.345,-14.5107,-1.45107,178.044,6.02051,-145.349,1460
1569922279,367.345,-14.5107,-1.45107,178.044,6.02051,-145.349,1460
1569922279,367.345,-14.5107,-1.45107,178.044,6.02051,-145.349,1460
1569922279,367.345,-14.5107,-1.45107,178.044,6.02051,-145.349,1460
1569922279,367.345,-14.5107,-1.45107,178.044,6.02051,-145.349,1460
1569922279,367.345,-14.5107,-1.45107,178.044,6.02051,-145.349,1456
1569922279,367.345,-14.5107,-1.45107,178.044,6.02051,-145.349,1456
1569922279,367.345,-14.5107,-1.45107,178.044,6.02051,-145.349,1456
1569922279,367.345,-14.5107,-1.45107,178.044,6.02051,-145.349,1456
1569922279,367.345,-14.5107,-1.45107,178.044,5.99854,-145.349,1456
1569922279,367.345,-14.5107,-1.45107,178.044,5.99854,-145.349,1456
1569922279,367.345,-14.5107,-1.45107,178.044,5.99854,-145.349,1456
1569922279,367.345,-14.5107,-1.45107,178.044,5.99854,-145.349,1456
1569922279,367.345,-14.5107,-1.45107,178.044,5.99854,-145.349,1456
1569922279,367.345,-14.5107,-1.45107,178.044,6.02051,-145.349,1456
1569922279,367.345,-14.5107,-1.45107,178.044,6.02051,-145.349,1456
1569922279,367.345,-14.6224,-1.45107,178.044,5.99854,-145.349,1456
1569922279,367.345,-14.6224,-1.45107,178.022,5.99854,-145.349,1456
1569922279,367.345,-14.6224,-1.45107,178.022,5.99854,-145.349,1456
1569922279,367.345,-14.6224,-1.45107,178.022,5.99854,-145.349,1452
1569922279,367.345,-14.6224,-1.45107,178.022,5.99854,-145.349,1452
1569922279,367.345,-14.6224,-1.45107,178.022,5.99854,-145.349,1452
1569922279,367.345,-14.6224,-1.45107,178.022,5.99854,-145.349,1452
1569922279,367.233,-14.6224,-1.45107,178.022,5.99854,-145.349,1452
1569922279,367.345,-14.6224,-1.45107,178.022,5.99854,-145.349,1452
1569922279,367.345,-14.6224,-1.45107,178.022,5.99854,-145.349,1452
1569922279,367.345,-14.6224,-1.45107,178.022,5.99854,-145.349,1452
1569922279,367.345,-14.6224,-1.45107,178.022,5.99854,-145.349,1452
1569922279,367.345,-14.6224,-1.45107,178.022,5.99854,-145.349,1448
1569922279,367.345,-14.6224,-1.45107,178.044,6.02051,-145.349,1448
1569922279,367.345,-14.6224,-1.45107,178.044,6.02051,-145.349,1448
1569922279,367.345,-14.6224,-1.45107,178.044,6.02051,-145.371,1448
1569922279,367.345,-14.6224,-1.45107,178.044,6.02051,-145.371,1448
1569922279,367.345,-14.5107,-1.45107,178.044,6.02051,-145.371,1448
1569922279,367.233,-14.5107,-1.45107,178.044,6.02051,-145.371,1448
1569922279,367.233,-14.5107,-1.45107,178.044,6.02051,-145.371,1448
1569922279,367.233,-14.5107,-1.45107,178.044,6.02051,-145.371,1444
1569922279,367.233,-14.5107,-1.33945,178.044,6.04248,-145.349,1444
1569922279,367.233,-14.5107,-1.33945,178.044,6.04248,-145.349,1444
1569922279,367.233,-14.5107,-1.33945,178.044,6.04248,-145.349,1444
1569922280,367.233,-14.5107,-1.33945,178.044,6.04248,-145.349,1440
1569922280,367.233,-14.5107,-1.33945,178.044,6.04248,-145.349,1440
1569922280,367.233,-14.5107,-1.33945,178.044,6.04248,-145.349,1440
1569922280,367.233,-14.5107,-1.33945,178.044,6.04248,-145.349,1440
1569922280,367.233,-14.5107,-1.33945,178.044,6.04248,-145.349,1440
1569922280,367.233,-14.5107,-1.33945,178.044,6.02051,-145.349,1436
1569922280,367.233,-14.5107,-1.33945,178.044,6.02051,-145.349,1436
1569922280,367.233,-14.5107,-1.33945,178.044,6.02051,-145.349,1436
1569922280,367.233,-14.5107,-1.33945,178.044,6.02051,-145.349,1436
1569922280,367.233,-14.5107,-1.33945,178.044,6.02051,-145.349,1440
1569922280,367.233,-14.5107,-1.33945,178.044,6.02051,-145.349,1440
1569922280,367.233,-14.5107,-1.33945,178.044,6.02051,-145.349,1440
1569922280,367.233,-14.5107,-1.33945,178.044,6.04248,-145.349,1440
1569922280,367.233,-14.5107,-1.33945,178.044,6.04248,-145.349,1440
1569922280,367.233,-14.5107,-1.33945,178.044,6.04248,-145.349,1440
1569922280,367.233,-14.5107,-1.33945,178.044,6.04248,-145.349,1440
1569922280,367.233,-14.5107,-1.33945,178.044,6.04248,-145.349,1440
1569922280,367.233,-14.5107,-1.33945,178.044,6.04248,-145.349,1436
1569922280,367.233,-14.5107,-1.33945,178.044,6.04248,-145.349,1436
1569922280,367.233,-14.5107,-1.33945,178.044,6.04248,-145.349,1436
1569922280,367.233,-14.6224,-1.33945,178.044,6.04248,-145.349,1436
1569922280,367.233,-14.6224,-1.33945,178.044,6.04248,-145.349,1436
1569922280,367.233,-14.5107,-1.33945,178.044,6.04248,-145.349,1436
1569922280,367.233,-14.5107,-1.33945,178.044,6.04248,-145.349,1436
1569922280,367.233,-14.5107,-1.33945,178.044,6.04248,-145.349,1436
1569922280,367.233,-14.5107,-1.33945,178.044,6.04248,-145.349,1436
1569922280,367.233,-14.5107,-1.33945,178.044,6.04248,-145.349,1436
1569922280,367.233,-14.5107,-1.33945,178.044,6.04248,-145.349,1436
1569922280,367.233,-14.5107,-1.33945,178.044,6.04248,-145.349,1436
1569922280,367.233,-14.5107,-1.33945,178.044,6.04248,-145.349,1440
1569922280,367.233,-14.5107,-1.33945,178.044,6.04248,-145.349,1440
1569922280,367.233,-14.5107,-1.33945,178.044,6.04248,-145.349,1440
1569922280,367.233,-14.5107,-1.33945,178.044,6.04248,-145.349,1440
1569922280,367.233,-14.5107,-1.33945,178.044,6.04248,-145.349,1440
1569922280,367.233,-14.5107,-1.33945,178.044,6.04248,-145.349,1440
1569922280,367.345,-14.5107,-1.33945,178.044,6.04248,-145.349,1440
1569922280,367.345,-14.5107,-1.33945,178.044,6.04248,-145.349,1444
1569922280,367.345,-14.5107,-1.33945,178.044,6.04248,-145.349,1444
1569922280,367.345,-14.5107,-1.33945,178.044,6.02051,-145.349,1444
1569922280,367.345,-14.5107,-1.33945,178.044,6.02051,-145.349,1444
1569922280,367.345,-14.5107,-1.33945,178.044,6.02051,-145.349,1444
1569922280,367.345,-14.5107,-1.33945,178.044,6.02051,-145.349,1448
1569922280,367.345,-14.5107,-1.33945,178.044,6.02051,-145.349,1448
1569922280,367.345,-14.5107,-1.33945,178.044,6.02051,-145.349,1448
1569922280,367.345,-14.5107,-1.33945,178.044,6.02051,-145.349,1448
1569922280,367.345,-14.5107,-1.33945,178.044,6.02051,-145.349,1448
1569922280,367.345,-14.5107,-1.33945,178.044,6.02051,-145.349,1448
1569922280,367.345,-14.5107,-1.33945,178.044,6.02051,-145.349,1448
1569922280,367.345,-14.5107,-1.33945,178.044,6.02051,-145.349,1448
1569922280,367.345,-14.6224,-1.45107,178.044,6.02051,-145.349,1448
1569922280,367.345,-14.6224,-1.45107,178.044,6.02051,-145.349,1448
1569922280,367.345,-14.6224,-1.45107,178.044,6.02051,-145.349,1448
1569922280,367.345,-14.5107,-1.45107,178.044,6.02051,-145.349,1452
1569922280,367.345,-14.5107,-1.45107,178.044,6.02051,-145.349,1452
1569922280,367.345,-14.5107,-1.45107,178.044,6.02051,-145.349,1452
1569922280,367.233,-14.5107,-1.45107,178.044,6.02051,-145.349,1452
1569922280,367.233,-14.5107,-1.45107,178.044,6.02051,-145.349,1452
1569922280,367.233,-14.5107,-1.45107,178.044,6.02051,-145.349,1452
1569922280,367.233,-14.5107,-1.45107,178.044,6.02051,-145.349,1452
1569922280,367.233,-14.5107,-1.45107,178.044,6.02051,-145.349,1452
1569922280,367.233,-14.5107,-1.45107,178.044,6.02051,-145.349,1452
1569922280,367.233,-14.5107,-1.45107,178.044,6.02051,-145.349,1452
1569922280,367.233,-14.5107,-1.45107,178.044,6.02051,-145.349,1448
1569922280,367.233,-14.5107,-1.45107,178.044,6.02051,-145.349,1448
1569922280,367.233,-14.5107,-1.45107,178.044,6.02051,-145.349,1448
1569922280,367.233,-14.5107,-1.45107,178.044,6.02051,-145.349,1448
1569922280,367.233,-14.5107,-1.45107,178.044,6.02051,-145.349,1448
1569922280,367.233,-14.6224,-1.45107,178.044,6.02051,-145.349,1448
1569922280,367.233,-14.6224,-1.45107,178.044,6.02051,-145.349,1448
1569922280,367.233,-14.5107,-1.45107,178.044,6.02051,-145.349,1448
1569922280,367.233,-14.5107,-1.45107,178.044,6.02051,-145.349,1448
1569922280,367.233,-14.5107,-1.45107,178.044,6.02051,-145.371,1448
1569922280,367.233,-14.5107,-1.45107,178.044,6.02051,-145.371,1448
1569922280,367.233,-14.5107,-1.45107,178.044,6.02051,-145.371,1448
1569922280,367.233,-14.5107,-1.45107,178.044,6.02051,-145.371,1448
1569922280,367.233,-14.5107,-1.45107,178.044,6.02051,-145.371,1448
1569922280,367.233,-14.5107,-1.45107,178.044,6.02051,-145.371,1448
1569922280,367.233,-14.5107,-1.45107,178.044,6.02051,-145.349,1448
1569922280,367.233,-14.6224,-1.45107,178.044,6.02051,-145.349,1452
1569922280,367.233,-14.6224,-1.45107,178.044,6.02051,-145.349,1452
1569922280,367.345,-14.6224,-1.45107,178.044,6.02051,-145.349,1452
1569922280,367.345,-14.6224,-1.45107,178.044,6.02051,-145.349,1452
1569922280,367.345,-14.6224,-1.45107,178.044,6.02051,-145.349,1452
1569922280,367.345,-14.6224,-1.45107,178.044,6.02051,-145.349,1452
1569922280,367.345,-14.6224,-1.33945,178.044,6.02051,-145.349,1452
1569922280,367.345,-14.6224,-1.33945,178.044,6.02051,-145.371,1452
1569922280,367.345,-14.6224,-1.33945,178.044,6.02051,-145.371,1452
1569922280,367.345,-14.6224,-1.33945,178.044,6.02051,-145.371,1452
1569922280,367.345,-14.6224,-1.33945,178.044,6.02051,-145.371,1452
1569922280,367.345,-14.6224,-1.33945,178.044,6.02051,-145.371,1452
1569922280,367.345,-14.6224,-1.33945,178.044,6.02051,-145.371,1452
1569922280,367.345,-14.6224,-1.33945,178.044,6.02051,-145.371,1452
1569922280,367.345,-14.6224,-1.33945,178.044,6.02051,-145.371,1452
1569922280,367.345,-14.6224,-1.45107,178.044,6.02051,-145.371,1452
1569922280,367.345,-14.6224,-1.45107,178.044,6.02051,-145.371,1456
1569922280,367.345,-14.6224,-1.45107,178.044,6.02051,-145.371,1456
1569922280,367.345,-14.6224,-1.45107,178.044,5.99854,-145.349,1456
1569922280,367.345,-14.6224,-1.45107,178.044,5.99854,-145.349,1456
1569922280,367.345,-14.6224,-1.45107,178.044,5.99854,-145.349,1456
1569922280,367.345,-14.5107,-1.45107,178.044,5.99854,-145.349,1456
1569922281,367.345,-14.5107,-1.45107,178.044,5.99854,-145.349,1460
1569922281,367.345,-14.5107,-1.45107,178.044,5.99854,-145.349,1460
1569922281,367.345,-14.5107,-1.45107,178.044,5.99854,-145.349,1460
1569922281,367.345,-14.5107,-1.45107,178.044,5.99854,-145.349,1460
1569922281,367.233,-14.5107,-1.45107,178.044,5.99854,-145.349,1456
1569922281,367.233,-14.5107,-1.45107,178.044,5.99854,-145.349,1456
1569922281,367.233,-14.5107,-1.45107,178.044,5.99854,-145.349,1456
1569922281,367.233,-14.5107,-1.45107,178.044,5.99854,-145.349,1456
1569922281,367.233,-14.5107,-1.45107,178.044,5.99854,-145.349,1456
1569922281,367.233,-14.5107,-1.45107,178.044,5.99854,-145.349,1456
1569922281,367.233,-14.5107,-1.45107,178.066,5.99854,-145.349,1456
1569922281,367.233,-14.5107,-1.45107,178.066,5.99854,-145.349,1452
1569922281,367.233,-14.5107,-1.45107,178.066,5.99854,-145.349,1452
1569922281,367.233,-14.5107,-1.45107,178.066,5.99854,-145.349,1452
1569922281,367.233,-14.5107,-1.45107,178.066,5.99854,-145.349,1452
1569922281,367.233,-14.5107,-1.45107,178.066,5.99854,-145.349,1452
1569922281,367.233,-14.5107,-1.45107,178.066,5.99854,-145.349,1452
1569922281,367.233,-14.5107,-1.45107,178.066,5.99854,-145.349,1452
1569922281,367.233,-14.5107,-1.45107,178.066,5.99854,-145.349,1452
1569922281,367.233,-14.5107,-1.45107,178.066,5.99854,-145.349,1452
1569922281,367.233,-14.5107,-1.45107,178.066,5.99854,-145.349,1452
1569922281,367.345,-14.5107,-1.45107,178.066,5.99854,-145.349,1452
1569922281,367.345,-14.5107,-1.45107,178.066,5.99854,-145.349,1452
1569922281,367.345,-14.5107,-1.45107,178.066,5.99854,-145.349,1452
1569922285,326.938,25.0031,-2.00918,177.407,6.32813,-145.459,996
1569922285,326.938,25.0031,-2.00918,177.407,6.32813,-145.459,996
1569922285,326.938,25.0031,-2.00918,177.407,6.3501,-145.459,996
1569922285,326.938,25.0031,-2.00918,177.407,6.3501,-145.459,996
1569922285,326.938,25.0031,-2.00918,177.407,6.3501,-145.459,996
1569922285,326.938,25.0031,-2.00918,177.407,6.3501,-145.459,996
1569922285,327.05,25.0031,-2.00918,177.407,6.32813,-145.459,996
1569922285,327.05,25.0031,-2.00918,177.407,6.32813,-145.459,996
1569922285,327.05,25.0031,-2.00918,177.407,6.32813,-145.459,1000
1569922285,327.05,25.0031,-2.00918,177.407,6.32813,-145.459,1000
1569922285,327.05,25.0031,-2.00918,177.407,6.32813,-145.459,1000
1569922285,327.05,25.0031,-2.00918,177.407,6.32813,-145.459,1000
1569922285,327.05,25.0031,-2.00918,177.407,6.32813,-145.459,1004
1569922285,327.05,25.0031,-2.00918,177.407,6.32813,-145.459,1004
1569922285,327.05,25.0031,-2.00918,177.407,6.32813,-145.459,1004
1569922285,327.05,25.0031,-2.00918,177.407,6.32813,-145.459,1004
1569922285,327.05,25.0031,-2.00918,177.407,6.32813,-145.459,1004
1569922285,327.05,25.0031,-2.00918,177.407,6.32813,-145.459,1004
1569922285,327.05,25.0031,-2.00918,177.407,6.32813,-145.459,1004
1569922285,327.05,25.0031,-2.00918,177.407,6.32813,-145.459,1004
1569922285,327.05,25.0031,-2.00918,177.407,6.32813,-145.459,1004
1569922285,327.05,25.0031,-2.00918,177.407,6.32813,-145.459,1004
1569922285,327.05,25.0031,-2.00918,177.407,6.32813,-145.459,1004
1569922285,327.05,25.0031,-2.00918,177.407,6.32813,-145.459,1004
1569922285,327.05,25.0031,-2.00918,177.407,6.32813,-145.459,1004
1569922285,327.05,25.0031,-2.00918,177.407,6.32813,-145.459,1004
1569922285,327.05,25.0031,-2.00918,177.407,6.32813,-145.437,1004
1569922285,327.05,25.0031,-2.00918,177.407,6.32813,-145.437,1004
1569922285,327.05,25.0031,-2.00918,177.407,6.32813,-145.437,1004
1569922285,327.05,25.0031,-2.00918,177.429,6.32813,-145.437,1004
1569922285,327.05,25.0031,-2.00918,177.429,6.32813,-145.437,1004
1569922285,327.05,25.0031,-2.00918,177.429,6.32813,-145.437,1004
1569922285,327.05,25.0031,-2.00918,177.429,6.32813,-145.437,1008
1569922285,327.05,25.0031,-2.00918,177.429,6.32813,-145.437,1008
1569922285,327.05,25.0031,-2.00918,177.429,6.32813,-145.437,1008
1569922285,327.05,25.0031,-2.00918,177.429,6.32813,-145.437,1008
1569922285,327.05,25.0031,-2.00918,177.429,6.30615,-145.437,1008
1569922285,327.05,25.0031,-2.00918,177.429,6.30615,-145.437,1008
1569922285,327.05,25.0031,-2.00918,177.429,6.30615,-145.437,1008
1569922285,327.05,25.0031,-2.00918,177.429,6.30615,-145.437,1008
1569922285,327.05,25.0031,-2.00918,177.429,6.30615,-145.437,1008
1569922285,327.05,25.0031,-2.00918,177.429,6.30615,-145.437,1008
1569922285,327.05,25.0031,-2.00918,177.429,6.30615,-145.437,1008
1569922285,327.05,25.0031,-2.00918,177.429,6.30615,-145.437,1008
1569922285,327.05,25.0031,-2.00918,177.429,6.30615,-145.437,1008
1569922285,327.05,25.0031,-2.00918,177.429,6.30615,-145.437,1008
1569922285,327.05,25.0031,-2.00918,177.429,6.30615,-145.459,1008
1569922285,327.05,25.0031,-2.00918,177.429,6.32813,-145.459,1008
1569922285,327.05,25.0031,-2.00918,177.429,6.32813,-145.459,1008
1569922285,327.05,25.0031,-2.00918,177.429,6.32813,-145.459,1008
1569922285,327.05,25.0031,-2.00918,177.429,6.32813,-145.437,1008
1569922285,326.938,25.0031,-2.00918,177.429,6.32813,-145.437,1008
1569922285,326.938,25.1147,-2.00918,177.429,6.32813,-145.437,1004
1569922285,326.938,25.1147,-2.00918,177.429,6.32813,-145.437,1004
1569922285,326.938,25.1147,-2.00918,177.429,6.32813,-145.437,1004
1569922285,326.938,25.1147,-2.00918,177.429,6.32813,-145.437,1004
1569922285,326.938,25.1147,-2.00918,177.429,6.32813,-145.437,1004
1569922285,326.938,25.1147,-2.00918,177.429,6.32813,-145.437,1004
1569922285,326.938,25.1147,-2.00918,177.429,6.32813,-145.437,1004
1569922285,326.938,25.1147,-2.00918,177.429,6.32813,-145.437,1004
1569922285,326.938,25.1147,-2.00918,177.429,6.32813,-145.437,1004
1569922285,326.938,25.1147,-2.00918,177.429,6.32813,-145.437,1004
1569922285,326.938,25.1147,-2.00918,177.429,6.32813,-145.437,1004
1569922285,326.938,25.1147,-2.00918,177.429,6.32813,-145.437,1004
1569922285,327.05,25.1147,-2.00918,177.429,6.32813,-145.437,1004
1569922285,327.05,25.1147,-2.00918,177.429,6.32813,-145.437,1004
1569922285,327.05,25.1147,-2.00918,177.429,6.30615,-145.437,1004
1569922285,326.938,25.1147,-2.00918,177.429,6.30615,-145.437,1000
1569922285,326.938,25.1147,-2.00918,177.429,6.30615,-145.437,1000
1569922285,326.938,25.0031,-2.00918,177.429,6.30615,-145.437,1000
1569922285,326.938,25.0031,-2.00918,177.429,6.30615,-145.437,1000
1569922285,326.938,25.0031,-2.1208,177.429,6.30615,-145.437,1000
1569922285,326.938,25.0031,-2.1208,177.429,6.30615,-145.437,1000
1569922285,326.938,25.0031,-2.1208,177.429,6.30615,-145.437,1000
1569922285,326.938,25.0031,-2.1208,177.429,6.30615,-145.437,1000
1569922285,326.938,25.0031,-2.1208,177.429,6.30615,-145.437,1000
1569922285,326.938,25.0031,-2.1208,177.429,6.30615,-145.437,1000
1569922285,326.938,25.0031,-2.1208,177.429,6.30615,-145.437,996
1569922285,326.938,25.0031,-2.1208,177.429,6.30615,-145.437,996
1569922285,326.938,25.0031,-2.00918,177.429,6.30615,-145.437,996
1569922285,326.938,25.0031,-2.00918,177.429,6.30615,-145.437,996
1569922285,326.938,25.0031,-2.00918,177.429,6.30615,-145.437,996
1569922286,326.938,25.0031,-2.00918,177.407,6.30615,-145.437,996
1569922286,326.938,25.0031,-2.00918,177.407,6.30615,-145.437,996
1569922286,326.938,25.0031,-2.00918,177.407,6.30615,-145.459,992
1569922286,326.938,25.0031,-2.00918,177.407,6.30615,-145.459,992
1569922286,326.938,25.0031,-2.00918,177.407,6.30615,-145.459,992
1569922286,326.938,25.0031,-2.00918,177.407,6.30615,-145.459,992
1569922286,326.938,25.0031,-2.00918,177.407,6.30615,-145.459,992
1569922286,326.938,25.0031,-2.00918,177.407,6.30615,-145.459,992
1569922286,326.938,25.0031,-2.00918,177.407,6.30615,-145.459,992
1569922286,326.938,25.0031,-2.00918,177.407,6.30615,-145.459,992
1569922286,326.938,25.0031,-2.00918,177.407,6.30615,-145.459,992
1569922286,326.938,25.0031,-2.00918,177.407,6.30615,-145.459,992
1569922286,326.938,25.0031,-2.00918,177.407,6.30615,-145.459,992
1569922286,326.938,25.0031,-2.00918,177.407,6.30615,-145.459,992
1569922286,326.938,25.0031,-2.00918,177.407,6.30615,-145.459,992
1569922286,326.938,25.0031,-2.00918,177.407,6.32813,-145.459,992
1569922286,326.938,25.0031,-2.00918,177.407,6.32813,-145.459,992
1569922286,326.938,25.0031,-2.00918,177.407,6.32813,-145.437,992
1569922286,326.938,25.0031,-2.00918,177.407,6.32813,-145.437,992
1569922286,326.938,25.0031,-2.00918,177.407,6.32813,-145.437,992
1569922286,326.938,25.0031,-2.00918,177.407,6.32813,-145.437,992
1569922286,326.938,25.0031,-2.00918,177.407,6.32813,-145.437,992
1569922286,326.938,25.0031,-2.00918,177.407,6.30615,-145.437,992
1569922286,326.938,25.0031,-2.00918,177.407,6.30615,-145.437,992
1569922286,326.938,25.0031,-2.00918,177.407,6.30615,-145.437,992
1569922286,326.938,25.0031,-2.00918,177.407,6.32813,-145.437,992
1569922286,326.938,25.0031,-2.00918,177.407,6.30615,-145.437,992
1569922286,326.938,25.0031,-2.00918,177.407,6.32813,-145.437,988
1569922286,326.938,25.0031,-2.00918,177.407,6.30615,-145.437,988
1569922286,326.938,25.0031,-2.00918,177.407,6.30615,-145.437,988
1569922286,326.938,25.0031,-2.00918,177.407,6.32813,-145.437,988
1569922286,326.938,25.0031,-2.00918,177.407,6.32813,-145.437,988
1569922286,326.938,25.0031,-2.00918,177.407,6.32813,-145.437,988
1569922286,326.938,25.0031,-2.00918,177.407,6.32813,-145.437,988
1569922286,326.938,25.0031,-2.00918,177.407,6.32813,-145.437,988
1569922286,326.938,25.0031,-2.00918,177.429,6.30615,-145.437,988
1569922286,326.938,25.0031,-2.00918,177.429,6.30615,-145.437,988
1569922286,326.938,25.0031,-2.00918,177.429,6.30615,-145.459,988
1569922286,326.938,25.0031,-2.00918,177.429,6.30615,-145.459,988
1569922286,326.938,25.0031,-2.00918,177.429,6.30615,-145.459,988
1569922286,326.938,25.1147,-2.00918,177.429,6.30615,-145.459,988
1569922286,326.938,25.1147,-2.00918,177.429,6.30615,-145.459,988
1569922286,326.938,25.1147,-2.00918,177.429,6.32813,-145.459,988
1569922286,326.938,25.1147,-2.00918,177.429,6.32813,-145.459,988
1569922286,326.938,25.0031,-2.00918,177.429,6.32813,-145.459,988
1569922286,326.938,25.0031,-2.00918,177.429,6.32813,-145.459,988
1569922286,326.938,25.0031,-2.00918,177.429,6.32813,-145.437,988
1569922286,326.938,25.0031,-2.00918,177.429,6.32813,-145.437,988
1569922286,326.938,25.0031,-2.00918,177.429,6.32813,-145.437,988
1569922286,326.938,25.0031,-2.00918,177.429,6.32813,-145.437,988
1569922286,326.938,25.0031,-2.00918,177.429,6.32813,-145.437,988
1569922286,326.938,25.0031,-2.00918,177.429,6.32813,-145.437,988
1569922286,326.938,25.0031,-2.00918,177.429,6.32813,-145.437,992
1569922286,326.938,25.0031,-2.00918,177.429,6.32813,-145.437,992
1569922286,326.938,25.0031,-2.00918,177.429,6.32813,-145.437,992
1569922286,326.938,25.0031,-2.00918,177.429,6.32813,-145.437,992
1569922286,326.938,25.0031,-2.00918,177.429,6.32813,-145.437,992
1569922286,326.938,25.0031,-2.00918,177.429,6.32813,-145.437,992
1569922286,326.938,25.0031,-2.00918,177.429,6.32813,-145.437,992
1569922286,326.938,25.0031,-2.00918,177.429,6.32813,-145.437,992
1569922286,326.938,25.0031,-2.00918,177.429,6.32813,-145.437,996
1569922286,326.938,25.0031,-2.00918,177.429,6.32813,-145.437,996
1569922286,326.938,25.0031,-2.00918,177.429,6.32813,-145.437,996
1569922286,326.938,25.0031,-2.00918,177.429,6.32813,-145.437,996
1569922286,326.938,25.0031,-2.00918,177.429,6.32813,-145.437,996
1569922286,326.938,25.0031,-2.00918,177.429,6.32813,-145.437,996
1569922286,326.938,25.0031,-2.00918,177.429,6.32813,-145.437,996
1569922286,326.938,25.0031,-2.00918,177.429,6.32813,-145.437,996
1569922286,326.938,25.0031,-2.00918,177.429,6.32813,-145.437,996
1569922286,326.938,25.0031,-2.00918,177.429,6.32813,-145.437,996
1569922286,326.938,25.0031,-2.00918,177.429,6.32813,-145.437,996
1569922286,326.938,25.0031,-2.00918,177.429,6.32813,-145.437,996
1569922286,326.938,25.0031,-2.00918,177.429,6.32813,-145.437,996
1569922286,326.938,25.0031,-2.00918,177.429,6.32813,-145.437,996
1569922286,326.938,25.0031,-2.00918,177.429,6.32813,-145.437,996
1569922286,326.938,25.0031,-2.00918,177.429,6.32813,-145.437,996
1569922286,326.938,25.0031,-2.00918,177.429,6.32813,-145.437,996
1569922286,326.938,25.0031,-2.00918,177.429,6.32813,-145.437,996
1569922286,327.05,25.0031,-2.00918,177.429,6.32813,-145.437,996
1569922286,327.05,25.1147,-2.00918,177.429,6.32813,-145.437,996
1569922286,327.05,25.1147,-2.00918,177.429,6.32813,-145.437,996
1569922286,326.938,25.1147,-2.00918,177.429,6.32813,-145.437,996
1569922286,326.938,25.1147,-2.00918,177.429,6.32813,-145.437,996
1569922286,326.938,25.1147,-2.00918,177.429,6.32813,-145.437,996
1569922286,326.938,25.1147,-2.00918,177.429,6.32813,-145.437,996
1569922286,326.938,25.1147,-2.00918,177.429,6.32813,-145.437,1000
1569922286,326.938,25.1147,-2.00918,177.429,6.32813,-145.437,1000
1569922286,326.938,25.1147,-2.00918,177.429,6.32813,-145.437,1000
1569922286,326.938,25.1147,-2.00918,177.429,6.32813,-145.437,1000
1569922286,326.938,25.1147,-2.00918,177.429,6.32813,-145.437,1000
1569922286,326.938,25.1147,-2.00918,177.429,6.32813,-145.437,1000
1569922286,326.938,25.1147,-2.00918,177.429,6.32813,-145.437,1000
1569922286,326.938,25.1147,-2.00918,177.429,6.32813,-145.459,1000
1569922286,326.938,25.1147,-2.00918,177.429,6.32813,-145.459,1000
1569922286,326.938,25.1147,-2.00918,177.429,6.32813,-145.459,996
1569922286,326.938,25.0031,-2.00918,177.429,6.32813,-145.459,996
1569922286,326.938,25.0031,-2.00918,177.429,6.32813,-145.459,996
1569922286,326.938,25.1147,-2.00918,177.429,6.32813,-145.459,996
1569922286,326.938,25.1147,-2.00918,177.429,6.32813,-145.459,996
1569922286,326.938,25.1147,-2.00918,177.429,6.32813,-145.459,996
1569922287,326.938,25.1147,-2.00918,177.429,6.32813,-145.459,996
1569922287,326.938,25.1147,-2.00918,177.429,6.32813,-145.459,992
1569922287,326.938,25.1147,-2.00918,177.429,6.32813,-145.459,992
1569922287,326.938,25.1147,-2.00918,177.429,6.32813,-145.459,992
1569922287,326.938,25.1147,-2.00918,177.429,6.32813,-145.459,992
1569922287,326.938,25.1147,-2.00918,177.429,6.32813,-145.459,992
1569922287,326.938,25.1147,-2.00918,177.429,6.32813,-145.459,992
1569922287,326.938,25.0031,-2.00918,177.429,6.32813,-145.459,992
1569922287,326.938,25.0031,-2.00918,177.429,6.32813,-145.459,992
1569922287,326.938,25.0031,-2.00918,177.429,6.32813,-145.459,992
1569922287,326.938,25.0031,-2.00918,177.429,6.32813,-145.459,988
1569922287,326.938,25.0031,-2.00918,177.429,6.32813,-145.459,988
1569922287,326.938,25.0031,-2.00918,177.429,6.32813,-145.459,988
1569922287,326.938,25.0031,-2.00918,177.429,6.32813,-145.437,988
1569922287,326.938,25.0031,-2.00918,177.429,6.32813,-145.437,988
1569922287,326.938,25.0031,-2.00918,177.429,6.32813,-145.437,988
1569922287,326.938,25.0031,-2.00918,177.429,6.32813,-145.437,988
1569922287,326.938,25.0031,-2.00918,177.429,6.32813,-145.437,988
1569922287,326.938,25.0031,-2.00918,177.429,6.32813,-145.437,992
1569922287,326.938,25.0031,-2.00918,177.429,6.32813,-145.437,992
1569922287,326.938,25.0031,-2.00918,177.429,6.32813,-145.437,992
1569922287,326.938,25.0031,-2.00918,177.429,6.32813,-145.437,992
1569922287,326.938,25.0031,-2.00918,177.429,6.32813,-145.437,992
1569922287,326.938,25.0031,-2.00918,177.429,6.32813,-145.437,992
1569922287,326.938,25.0031,-2.00918,177.429,6.32813,-145.437,992
1569922287,326.938,25.0031,-2.00918,177.407,6.32813,-145.437,992
1569922287,326.938,25.0031,-2.00918,177.407,6.32813,-145.437,992
1569922287,326.938,25.0031,-2.00918,177.407,6.32813,-145.437,996
1569922287,326.938,25.0031,-2.00918,177.407,6.32813,-145.437,996
1569922287,326.938,25.0031,-2.00918,177.407,6.32813,-145.437,996
1569922287,326.938,25.0031,-2.00918,177.407,6.32813,-145.437,996
1569922287,326.938,25.0031,-2.00918,177.407,6.32813,-145.437,996
1569922287,326.938,25.0031,-2.00918,177.407,6.32813,-145.437,996
1569922287,326.938,25.0031,-2.00918,177.407,6.32813,-145.437,996
1569922287,326.938,25.0031,-2.00918,177.407,6.32813,-145.437,996
1569922287,326.938,25.0031,-2.00918,177.407,6.32813,-145.437,996
1569922287,326.938,25.0031,-2.00918,177.407,6.32813,-145.437,996
1569922287,326.938,25.0031,-2.00918,177.407,6.32813,-145.437,1000
1569922287,326.938,25.0031,-2.00918,177.407,6.32813,-145.437,1000
1569922287,326.938,25.0031,-2.00918,177.407,6.32813,-145.437,1000
1569922287,326.938,25.0031,-2.00918,177.407,6.32813,-145.437,1000
1569922287,326.938,25.0031,-2.00918,177.407,6.32813,-145.437,1000
1569922287,326.938,25.0031,-2.00918,177.407,6.32813,-145.437,1000
1569922287,326.938,25.0031,-2.00918,177.407,6.32813,-145.437,1000
1569922287,326.938,25.0031,-2.00918,177.407,6.32813,-145.437,1000
1569922287,326.938,25.0031,-2.00918,177.407,6.32813,-145.437,1000
1569922287,326.938,25.0031,-2.00918,177.407,6.32813,-145.437,996
1569922287,326.938,25.0031,-2.00918,177.407,6.32813,-145.437,996
1569922287,326.938,25.0031,-2.00918,177.407,6.32813,-145.437,996
1569922287,326.938,25.0031,-2.00918,177.407,6.32813,-145.437,996
1569922287,326.938,25.0031,-2.00918,177.407,6.32813,-145.437,996
1569922287,326.938,25.0031,-2.00918,177.407,6.32813,-145.437,996
1569922287,326.938,25.0031,-2.00918,177.407,6.32813,-145.437,996
1569922287,326.938,25.0031,-2.00918,177.407,6.3501,-145.437,996
1569922287,326.938,25.0031,-2.00918,177.407,6.3501,-145.437,996
1569922287,326.938,25.0031,-2.00918,177.407,6.3501,-145.437,996
1569922287,326.938,25.0031,-2.00918,177.407,6.3501,-145.437,996
1569922287,326.938,25.0031,-2.00918,177.407,6.3501,-145.437,996
1569922287,326.938,25.0031,-2.00918,177.407,6.3501,-145.437,996
1569922287,326.938,25.0031,-2.00918,177.407,6.3501,-145.437,996
1569922287,326.938,25.0031,-2.00918,177.407,6.3501,-145.437,996
1569922287,326.938,25.0031,-2.00918,177.407,6.32813,-145.437,996
1569922287,326.938,25.0031,-2.00918,177.407,6.32813,-145.437,996
1569922287,326.938,25.0031,-2.00918,177.407,6.32813,-145.437,996
1569922287,326.938,25.0031,-2.00918,177.429,6.32813,-145.437,996
1569922287,327.05,25.0031,-2.00918,177.429,6.32813,-145.437,996
1569922287,327.05,25.0031,-2.00918,177.429,6.3501,-145.437,996
1569922287,327.05,25.0031,-2.00918,177.429,6.3501,-145.437,996
1569922287,327.05,25.0031,-2.00918,177.429,6.3501,-145.437,996
1569922287,327.05,25.0031,-2.00918,177.429,6.3501,-145.437,996
1569922287,327.05,25.0031,-2.00918,177.429,6.3501,-145.437,996
1569922287,327.05,25.0031,-2.00918,177.429,6.3501,-145.437,996
1569922287,327.05,25.0031,-2.00918,177.429,6.3501,-145.437,996
1569922287,327.05,25.0031,-2.00918,177.429,6.3501,-145.437,996
1569922287,326.938,25.0031,-2.00918,177.429,6.3501,-145.437,996
1569922287,326.938,25.0031,-2.00918,177.429,6.3501,-145.437,996
1569922287,326.938,25.0031,-2.00918,177.429,6.3501,-145.437,996
1569922287,326.938,25.0031,-2.00918,177.407,6.3501,-145.437,996
1569922287,326.938,25.0031,-2.00918,177.407,6.3501,-145.437,996
1569922287,326.938,25.0031,-2.00918,177.407,6.3501,-145.437,996
1569922287,326.938,25.0031,-2.00918,177.407,6.3501,-145.437,996
1569922287,326.938,25.0031,-2.00918,177.407,6.3501,-145.437,996
1569922287,326.938,25.0031,-2.00918,177.407,6.3501,-145.437,996
1569922287,326.938,25.0031,-2.00918,177.407,6.3501,-145.437,996
1569922287,326.938,25.0031,-2.00918,177.407,6.3501,-145.437,996
1569922287,326.938,25.0031,-2.00918,177.407,6.3501,-145.437,996
1569922287,326.938,25.0031,-2.00918,177.407,6.3501,-145.437,996
1569922287,326.938,25.0031,-2.00918,177.407,6.3501,-145.437,996
1569922287,326.938,25.0031,-2.00918,177.407,6.3501,-145.437,996
1569922287,326.938,25.0031,-2.00918,177.407,6.3501,-145.437,996
1569922287,326.938,25.0031,-2.00918,177.407,6.3501,-145.437,996
1569922287,326.938,25.0031,-2.00918,177.407,6.3501,-145.437,996
1569922287,326.938,25.0031,-2.00918,177.407,6.3501,-145.437,996
1569922287,326.938,25.0031,-2.00918,177.407,6.3501,-145.437,996
1569922287,326.938,25.0031,-2.00918,177.407,6.3501,-145.437,996
1569922287,326.938,25.0031,-2.00918,177.407,6.3501,-145.437,996
1569922287,326.938,25.0031,-2.00918,177.407,6.3501,-145.437,996
1569922287,326.938,25.0031,-2.00918,177.407,6.3501,-145.437,992
1569922287,326.938,25.0031,-2.00918,177.407,6.3501,-145.437,992
1569922288,326.938,25.0031,-2.00918,177.407,6.3501,-145.437,992
1569922288,326.938,25.0031,-2.00918,177.407,6.3501,-145.437,992
1569922288,326.938,25.0031,-2.00918,177.407,6.3501,-145.437,992
1569922288,326.938,25.0031,-2.00918,177.407,6.3501,-145.437,992
1569922288,326.938,25.0031,-2.00918,177.407,6.32813,-145.437,992
1569922288,326.938,25.0031,-2.00918,177.407,6.32813,-145.437,992
