time,x,y,z,ax,ay,az,q
1569941043,396.59,-185.068,-12.7248,177.891,2.65869,-144.756,528
1569941043,396.59,-185.068,-12.7248,177.891,2.65869,-144.756,528
1569941043,396.701,-185.068,-12.7248,177.891,2.65869,-144.756,528
1569941043,396.701,-185.068,-12.7248,177.891,2.65869,-144.756,524
1569941043,396.701,-185.068,-12.6132,177.891,2.65869,-144.756,524
1569941043,396.701,-185.068,-12.6132,177.891,2.65869,-144.756,524
1569941043,396.701,-185.068,-12.6132,177.913,2.68066,-144.734,524
1569941043,396.701,-185.068,-12.6132,177.913,2.68066,-144.734,524
1569941043,396.701,-185.068,-12.6132,177.913,2.68066,-144.734,524
1569941043,396.701,-185.068,-12.6132,177.913,2.68066,-144.756,524
1569941043,396.701,-184.956,-12.6132,177.913,2.68066,-144.756,524
1569941043,396.701,-184.956,-12.6132,177.913,2.68066,-144.756,524
1569941043,396.701,-184.956,-12.6132,177.913,2.68066,-144.756,524
1569941043,396.701,-185.068,-12.6132,177.913,2.68066,-144.756,524
1569941043,396.701,-185.068,-12.6132,177.913,2.68066,-144.756,524
1569941043,396.701,-185.068,-12.6132,177.913,2.68066,-144.756,520
1569941043,396.701,-185.068,-12.6132,177.891,2.68066,-144.756,520
1569941043,396.701,-185.068,-12.6132,177.891,2.68066,-144.756,520
1569941043,396.701,-185.068,-12.6132,177.891,2.68066,-144.756,516
1569941043,396.701,-185.068,-12.6132,177.891,2.68066,-144.756,516
1569941043,396.701,-185.179,-12.6132,177.891,2.68066,-144.756,516
1569941043,396.701,-185.179,-12.6132,177.891,2.70264,-144.778,512
1569941043,396.701,-185.179,-12.5016,177.869,2.70264,-144.778,512
1569941043,396.701,-185.179,-12.5016,177.869,2.70264,-144.778,512
1569941043,396.701,-185.179,-12.5016,177.869,2.70264,-144.778,512
1569941043,396.701,-185.179,-12.5016,177.869,2.70264,-144.778,512
1569941043,396.701,-185.179,-12.5016,177.869,2.70264,-144.778,512
1569941043,396.701,-185.179,-12.5016,177.869,2.70264,-144.778,512
1569941043,396.701,-185.179,-12.5016,177.869,2.70264,-144.778,516
1569941043,396.701,-185.179,-12.5016,177.869,2.70264,-144.778,516
1569941043,396.701,-185.179,-12.5016,177.869,2.70264,-144.778,516
1569941043,396.701,-185.179,-12.6132,177.869,2.68066,-144.778,516
1569941043,396.701,-185.179,-12.6132,177.869,2.68066,-144.778,520
1569941043,396.701,-185.179,-12.6132,177.869,2.68066,-144.778,520
1569941043,396.701,-185.179,-12.6132,177.869,2.68066,-144.778,520
1569941043,396.701,-185.179,-12.6132,177.847,2.68066,-144.778,520
1569941043,396.59,-185.179,-12.6132,177.869,2.68066,-144.778,524
1569941043,396.59,-185.068,-12.6132,177.869,2.68066,-144.756,524
1569941043,396.59,-185.068,-12.6132,177.869,2.68066,-144.756,524
1569941043,396.59,-185.068,-12.6132,177.869,2.68066,-144.756,528
1569941043,396.59,-185.068,-12.6132,177.869,2.68066,-144.756,528
1569941043,396.59,-185.068,-12.6132,177.869,2.68066,-144.756,528
1569941043,396.59,-185.068,-12.6132,177.869,2.68066,-144.756,528
1569941043,396.59,-185.068,-12.6132,177.869,2.68066,-144.756,528
1569941043,396.59,-184.956,-12.6132,177.869,2.68066,-144.756,528
1569941043,396.59,-184.956,-12.6132,177.869,2.70264,-144.756,528
1569941043,396.59,-184.956,-12.6132,177.869,2.70264,-144.756,528
1569941043,396.59,-184.956,-12.6132,177.869,2.70264,-144.756,528
1569941043,396.59,-184.956,-12.6132,177.869,2.70264,-144.756,528
1569941044,396.59,-185.068,-12.6132,177.869,2.70264,-144.778,528
1569941044,396.59,-185.068,-12.6132,177.869,2.70264,-144.778,528
1569941044,396.59,-185.068,-12.5016,177.869,2.70264,-144.778,528
1569941044,396.59,-185.068,-12.5016,177.869,2.70264,-144.778,528
1569941044,396.59,-185.068,-12.5016,177.869,2.70264,-144.778,528
1569941044,396.59,-185.068,-12.5016,177.869,2.70264,-144.778,528
1569941044,396.59,-185.068,-12.5016,177.869,2.70264,-144.778,528
1569941044,396.59,-185.068,-12.5016,177.847,2.70264,-144.778,532
1569941044,396.59,-185.068,-12.5016,177.847,2.70264,-144.778,532
1569941044,396.59,-185.068,-12.5016,177.847,2.70264,-144.778,532
1569941044,396.59,-185.068,-12.5016,177.869,2.70264,-144.756,532
1569941044,396.59,-185.068,-12.5016,177.869,2.70264,-144.756,532
1569941044,396.59,-185.068,-12.5016,177.869,2.70264,-144.756,532
1569941044,396.59,-185.068,-12.5016,177.869,2.70264,-144.756,532
1569941044,396.59,-185.068,-12.5016,177.869,2.70264,-144.756,532
1569941044,396.59,-185.068,-12.5016,177.891,2.70264,-144.756,532
1569941044,396.59,-185.068,-12.5016,177.891,2.70264,-144.756,532
1569941044,396.59,-185.068,-12.5016,177.891,2.70264,-144.756,532
1569941044,396.59,-184.956,-12.5016,177.891,2.70264,-144.756,532
1569941044,396.59,-184.956,-12.5016,177.891,2.70264,-144.756,532
1569941044,396.59,-184.956,-12.5016,177.913,2.70264,-144.756,532
1569941044,396.59,-184.956,-12.5016,177.913,2.70264,-144.756,532
1569941044,396.59,-184.956,-12.5016,177.913,2.70264,-144.756,532
1569941044,396.59,-184.956,-12.5016,177.913,2.70264,-144.756,532
1569941044,396.59,-184.956,-12.5016,177.913,2.70264,-144.756,532
1569941044,396.59,-184.845,-12.5016,177.913,2.70264,-144.756,532
1569941044,396.59,-184.845,-12.5016,177.935,2.72461,-144.756,536
1569941044,396.59,-184.845,-12.5016,177.935,2.72461,-144.756,536
1569941044,396.59,-184.845,-12.5016,177.935,2.72461,-144.756,540
1569941044,396.59,-184.845,-12.5016,177.935,2.72461,-144.756,540
1569941044,396.59,-184.845,-12.5016,177.935,2.74658,-144.778,544
1569941044,396.59,-184.845,-12.3899,177.935,2.74658,-144.756,544
1569941044,396.59,-184.845,-12.3899,177.935,2.74658,-144.756,548
1569941044,396.59,-184.845,-12.3899,177.935,2.74658,-144.756,548
1569941044,396.59,-184.845,-12.5016,177.935,2.74658,-144.756,548
1569941044,396.59,-184.845,-12.5016,177.935,2.72461,-144.756,552
1569941044,396.59,-184.845,-12.5016,177.935,2.72461,-144.756,552
1569941044,396.59,-184.845,-12.5016,177.935,2.72461,-144.756,552
1569941044,396.59,-184.845,-12.5016,177.935,2.72461,-144.756,556
1569941044,396.59,-184.845,-12.5016,177.935,2.72461,-144.756,556
1569941044,396.59,-184.845,-12.5016,177.935,2.70264,-144.756,556
1569941044,396.59,-184.845,-12.5016,177.935,2.70264,-144.756,556
1569941044,396.59,-184.845,-12.5016,177.935,2.70264,-144.756,556
1569941044,396.59,-184.845,-12.5016,177.935,2.70264,-144.756,556
1569941044,396.59,-184.845,-12.5016,177.935,2.70264,-144.756,556
1569941044,396.59,-184.845,-12.5016,177.935,2.70264,-144.756,556
1569941044,396.59,-184.845,-12.6132,177.935,2.68066,-144.778,556
1569941044,396.59,-184.956,-12.6132,177.935,2.68066,-144.778,556
1569941044,396.59,-184.956,-12.6132,177.935,2.68066,-144.778,556
1569941044,396.59,-184.956,-12.6132,177.935,2.68066,-144.778,556
1569941044,396.701,-184.956,-12.6132,177.935,2.68066,-144.778,556
1569941044,396.701,-184.956,-12.6132,177.935,2.68066,-144.778,552
1569941044,396.701,-184.956,-12.6132,177.935,2.68066,-144.778,552
1569941044,396.701,-184.956,-12.6132,177.935,2.68066,-144.778,552
1569941044,396.701,-184.956,-12.6132,177.935,2.70264,-144.778,552
1569941044,396.701,-184.956,-12.6132,177.935,2.70264,-144.778,548
1569941044,396.701,-184.956,-12.5016,177.935,2.70264,-144.778,548
1569941044,396.701,-184.956,-12.5016,177.957,2.70264,-144.778,548
1569941044,396.813,-184.956,-12.5016,177.957,2.70264,-144.778,544
1569941044,396.813,-184.956,-12.5016,177.957,2.72461,-144.756,544
1569941044,396.813,-184.956,-12.5016,177.957,2.72461,-144.756,544
1569941044,396.813,-184.956,-12.5016,177.957,2.70264,-144.756,544
1569941044,396.813,-184.956,-12.5016,177.957,2.70264,-144.756,540
1569941044,396.813,-184.956,-12.5016,177.957,2.70264,-144.756,540
1569941044,396.813,-184.956,-12.5016,177.957,2.70264,-144.756,540
1569941044,396.813,-184.956,-12.5016,177.957,2.70264,-144.756,536
1569941044,396.813,-184.956,-12.5016,177.957,2.70264,-144.756,536
1569941044,396.813,-184.956,-12.5016,177.979,2.70264,-144.756,536
1569941044,396.813,-184.956,-12.5016,177.979,2.70264,-144.756,532
1569941044,396.813,-184.956,-12.6132,177.957,2.70264,-144.756,532
1569941044,396.813,-184.956,-12.5016,177.957,2.70264,-144.756,532
1569941044,396.813,-184.956,-12.5016,177.957,2.70264,-144.756,528
1569941044,396.813,-184.845,-12.5016,177.979,2.70264,-144.756,528
1569941044,396.813,-184.845,-12.5016,177.979,2.70264,-144.756,528
1569941044,396.813,-184.845,-12.5016,177.979,2.70264,-144.756,528
1569941044,396.813,-184.845,-12.5016,177.979,2.70264,-144.756,524
1569941044,396.813,-184.845,-12.5016,177.979,2.68066,-144.756,524
1569941044,396.701,-184.845,-12.5016,177.979,2.68066,-144.756,520
1569941044,396.701,-184.845,-12.5016,177.979,2.68066,-144.756,520
1569941044,396.701,-184.845,-12.5016,177.979,2.68066,-144.756,520
1569941044,396.701,-184.845,-12.5016,177.957,2.68066,-144.756,516
1569941044,396.701,-184.845,-12.5016,177.957,2.68066,-144.756,516
1569941044,396.701,-184.845,-12.5016,177.957,2.68066,-144.756,516
1569941044,396.701,-184.845,-12.5016,177.957,2.68066,-144.756,516
1569941044,396.701,-184.845,-12.5016,177.957,2.68066,-144.756,516
1569941044,396.701,-184.845,-12.5016,177.957,2.68066,-144.778,512
1569941044,396.701,-184.845,-12.5016,177.957,2.68066,-144.778,512
1569941044,396.701,-184.845,-12.5016,177.957,2.70264,-144.778,512
1569941044,396.701,-184.845,-12.5016,177.957,2.70264,-144.778,512
1569941044,396.701,-184.845,-12.5016,177.957,2.70264,-144.778,512
1569941044,396.701,-184.845,-12.5016,177.957,2.70264,-144.778,512
1569941044,396.701,-184.845,-12.5016,177.957,2.70264,-144.778,512
1569941044,396.701,-184.845,-12.5016,177.935,2.70264,-144.756,512
1569941044,396.701,-184.845,-12.5016,177.935,2.70264,-144.756,512
1569941044,396.701,-184.845,-12.5016,177.935,2.68066,-144.756,516
1569941044,396.59,-184.956,-12.5016,177.935,2.68066,-144.756,516
1569941044,396.59,-184.956,-12.5016,177.935,2.68066,-144.756,516
1569941044,396.59,-184.956,-12.5016,177.913,2.68066,-144.756,516
1569941044,396.59,-184.956,-12.5016,177.913,2.68066,-144.756,516
1569941044,396.59,-184.956,-12.5016,177.913,2.68066,-144.756,516
1569941045,396.59,-184.956,-12.5016,177.913,2.68066,-144.756,516
1569941045,396.59,-184.956,-12.5016,177.913,2.68066,-144.756,520
1569941045,396.59,-184.956,-12.5016,177.913,2.65869,-144.756,520
1569941045,396.59,-184.956,-12.5016,177.913,2.65869,-144.756,520
1569941045,396.59,-184.956,-12.5016,177.913,2.65869,-144.756,520
1569941045,396.59,-184.956,-12.6132,177.913,2.65869,-144.756,524
1569941045,396.59,-184.956,-12.6132,177.913,2.65869,-144.756,524
1569941045,396.59,-184.956,-12.5016,177.913,2.65869,-144.756,528
1569941045,396.59,-184.956,-12.6132,177.913,2.65869,-144.756,528
1569941045,396.59,-184.956,-12.6132,177.913,2.65869,-144.756,528
1569941045,396.59,-184.956,-12.6132,177.913,2.65869,-144.756,532
1569941045,396.59,-184.956,-12.6132,177.913,2.65869,-144.756,532
1569941045,396.59,-184.956,-12.6132,177.913,2.65869,-144.756,536
1569941045,396.59,-184.956,-12.6132,177.913,2.65869,-144.756,536
1569941045,396.59,-184.956,-12.6132,177.891,2.65869,-144.756,540
1569941045,396.59,-184.956,-12.6132,177.891,2.65869,-144.756,540
1569941045,396.59,-185.068,-12.6132,177.891,2.65869,-144.756,540
1569941045,396.59,-185.068,-12.6132,177.891,2.65869,-144.756,544
1569941045,396.59,-185.068,-12.6132,177.891,2.65869,-144.756,544
1569941045,396.59,-185.068,-12.6132,177.891,2.65869,-144.756,544
1569941045,396.59,-185.068,-12.6132,177.891,2.65869,-144.756,544
1569941045,396.59,-185.068,-12.6132,177.891,2.65869,-144.756,544
1569941045,396.59,-185.068,-12.6132,177.891,2.65869,-144.756,548
1569941045,396.59,-185.068,-12.5016,177.891,2.68066,-144.756,548
1569941045,396.59,-185.068,-12.5016,177.891,2.68066,-144.756,548
1569941045,396.59,-185.068,-12.5016,177.869,2.68066,-144.756,548
1569941045,396.59,-185.068,-12.5016,177.869,2.68066,-144.756,552
1569941045,396.59,-185.068,-12.5016,177.869,2.68066,-144.756,552
1569941045,396.59,-185.068,-12.5016,177.869,2.70264,-144.756,552
1569941045,396.59,-185.068,-12.5016,177.869,2.70264,-144.756,556
1569941045,396.59,-185.068,-12.5016,177.869,2.70264,-144.756,556
1569941045,396.59,-185.068,-12.5016,177.869,2.70264,-144.756,556
1569941045,396.59,-185.179,-12.5016,177.847,2.70264,-144.756,556
1569941045,396.59,-185.179,-12.5016,177.847,2.70264,-144.756,560
1569941045,396.59,-185.179,-12.5016,177.847,2.70264,-144.756,560
1569941045,396.59,-185.179,-12.3899,177.847,2.70264,-144.756,560
1569941045,396.59,-185.179,-12.3899,177.847,2.72461,-144.756,560
1569941045,396.59,-185.179,-12.3899,177.847,2.72461,-144.756,564
1569941045,396.59,-185.179,-12.3899,177.847,2.72461,-144.756,564
1569941045,396.59,-185.179,-12.3899,177.847,2.72461,-144.756,564
1569941045,396.59,-185.179,-12.3899,177.847,2.74658,-144.756,568
1569941045,396.59,-185.179,-12.3899,177.847,2.74658,-144.756,568
1569941045,396.59,-185.179,-12.2783,177.847,2.74658,-144.756,572
1569941045,396.59,-185.179,-12.2783,177.847,2.74658,-144.756,572
1569941045,396.59,-185.179,-12.2783,177.847,2.74658,-144.756,572
1569941045,396.59,-185.179,-12.2783,177.847,2.74658,-144.756,576
1569941045,396.59,-185.179,-12.2783,177.847,2.74658,-144.756,576
1569941045,396.59,-185.179,-12.3899,177.847,2.74658,-144.756,576
1569941045,396.59,-185.179,-12.3899,177.847,2.74658,-144.756,576
1569941045,396.59,-185.179,-12.3899,177.847,2.74658,-144.756,576
1569941045,396.59,-185.179,-12.3899,177.847,2.72461,-144.756,576
1569941045,396.59,-185.179,-12.3899,177.847,2.72461,-144.756,576
1569941045,396.59,-185.179,-12.3899,177.847,2.72461,-144.756,576
1569941045,396.59,-185.179,-12.3899,177.869,2.72461,-144.756,576
1569941045,396.59,-185.068,-12.3899,177.869,2.72461,-144.756,576
1569941045,396.59,-185.068,-12.3899,177.869,2.72461,-144.756,572
1569941045,396.59,-185.068,-12.5016,177.869,2.70264,-144.756,572
1569941045,396.59,-185.068,-12.5016,177.869,2.70264,-144.756,572
1569941045,396.59,-185.068,-12.5016,177.869,2.70264,-144.756,572
1569941045,396.59,-185.068,-12.5016,177.869,2.70264,-144.756,568
1569941045,396.59,-185.068,-12.3899,177.869,2.70264,-144.756,568
1569941045,396.59,-185.068,-12.3899,177.869,2.70264,-144.756,568
1569941045,396.59,-185.068,-12.3899,177.869,2.72461,-144.756,568
1569941045,396.59,-185.068,-12.3899,177.869,2.72461,-144.756,568
1569941045,396.59,-185.068,-12.3899,177.869,2.72461,-144.756,568
1569941045,396.59,-185.068,-12.3899,177.869,2.72461,-144.756,564
1569941045,396.59,-185.068,-12.3899,177.869,2.72461,-144.756,564
1569941045,396.59,-185.068,-12.3899,177.869,2.72461,-144.756,564
1569941045,396.59,-185.068,-12.3899,177.869,2.72461,-144.756,564
1569941045,396.59,-185.068,-12.3899,177.869,2.72461,-144.756,564
1569941045,396.59,-184.956,-12.3899,177.869,2.72461,-144.756,564
1569941045,396.59,-184.956,-12.3899,177.891,2.72461,-144.756,560
1569941045,396.478,-184.956,-12.3899,177.891,2.74658,-144.756,560
1569941045,396.478,-184.956,-12.3899,177.891,2.74658,-144.756,560
1569941045,396.478,-184.956,-12.3899,177.891,2.72461,-144.756,560
1569941045,396.478,-184.956,-12.3899,177.891,2.72461,-144.756,560
1569941045,396.478,-184.956,-12.3899,177.891,2.72461,-144.756,556
1569941045,396.478,-184.956,-12.3899,177.869,2.72461,-144.756,556
1569941045,396.478,-184.956,-12.3899,177.869,2.72461,-144.756,556
1569941045,396.478,-184.956,-12.3899,177.869,2.74658,-144.756,556
1569941045,396.478,-184.956,-12.3899,177.869,2.74658,-144.756,556
1569941045,396.478,-184.956,-12.3899,177.869,2.72461,-144.756,556
1569941045,396.478,-184.956,-12.3899,177.869,2.74658,-144.756,556
1569941045,396.478,-184.956,-12.3899,177.869,2.74658,-144.756,556
1569941045,396.478,-184.956,-12.3899,177.869,2.74658,-144.756,556
1569941045,396.478,-184.956,-12.3899,177.869,2.74658,-144.756,556
1569941045,396.478,-184.956,-12.3899,177.891,2.74658,-144.756,556
1569941045,396.478,-184.956,-12.3899,177.891,2.74658,-144.756,556
1569941045,396.478,-184.956,-12.3899,177.891,2.74658,-144.756,556
1569941045,396.478,-184.956,-12.3899,177.891,2.74658,-144.756,556
1569941045,396.478,-184.956,-12.3899,177.891,2.74658,-144.756,556
1569941045,396.478,-184.956,-12.3899,177.891,2.74658,-144.756,556
1569941045,396.59,-184.956,-12.3899,177.891,2.74658,-144.756,556
1569941045,396.59,-184.956,-12.3899,177.891,2.72461,-144.778,556
1569941045,396.59,-184.956,-12.3899,177.891,2.72461,-144.778,556
1569941045,396.59,-184.956,-12.3899,177.913,2.72461,-144.778,552
1569941045,396.59,-184.956,-12.3899,177.891,2.72461,-144.778,552
1569941045,396.59,-184.956,-12.3899,177.891,2.72461,-144.778,552
1569941045,396.59,-184.956,-12.3899,177.891,2.72461,-144.778,552
1569941045,396.59,-184.956,-12.3899,177.891,2.72461,-144.778,552
1569941046,396.59,-184.956,-12.5016,177.891,2.72461,-144.778,548
1569941046,396.478,-184.956,-12.5016,177.891,2.72461,-144.778,548
1569941046,396.478,-184.956,-12.5016,177.891,2.70264,-144.778,548
1569941046,396.478,-184.956,-12.5016,177.891,2.70264,-144.778,548
1569941046,396.478,-184.956,-12.5016,177.869,2.70264,-144.778,548
1569941046,396.478,-184.956,-12.5016,177.869,2.70264,-144.778,548
1569941046,396.478,-184.956,-12.5016,177.869,2.70264,-144.778,548
1569941046,396.478,-184.956,-12.5016,177.869,2.70264,-144.778,548
1569941046,396.478,-185.068,-12.5016,177.869,2.70264,-144.778,544
1569941046,396.478,-185.068,-12.5016,177.869,2.70264,-144.778,544
1569941046,396.59,-185.068,-12.5016,177.869,2.70264,-144.778,544
1569941046,396.59,-185.068,-12.5016,177.869,2.70264,-144.778,544
1569941046,396.59,-185.068,-12.5016,177.869,2.70264,-144.778,540
1569941046,396.59,-185.068,-12.5016,177.869,2.70264,-144.778,540
1569941046,396.59,-185.068,-12.5016,177.869,2.72461,-144.778,540
1569941046,396.59,-185.068,-12.5016,177.869,2.72461,-144.778,536
1569941046,396.59,-185.068,-12.5016,177.869,2.72461,-144.778,536
1569941046,396.59,-185.068,-12.5016,177.869,2.72461,-144.778,536
1569941046,396.59,-185.068,-12.5016,177.869,2.72461,-144.778,536
1569941046,396.59,-185.068,-12.5016,177.869,2.72461,-144.778,536
1569941046,396.59,-185.068,-12.5016,177.869,2.72461,-144.778,536
1569941046,396.478,-185.068,-12.5016,177.869,2.72461,-144.778,536
1569941046,396.478,-185.068,-12.5016,177.869,2.72461,-144.778,536
1569941046,396.478,-185.068,-12.5016,177.869,2.72461,-144.778,536
1569941046,396.478,-185.068,-12.5016,177.869,2.72461,-144.778,532
1569941046,396.478,-185.068,-12.5016,177.869,2.72461,-144.778,532
1569941046,396.478,-185.068,-12.5016,177.869,2.70264,-144.778,532
1569941046,396.478,-185.068,-12.5016,177.869,2.70264,-144.8,536
1569941046,396.478,-185.068,-12.5016,177.869,2.70264,-144.8,536
1569941046,396.478,-185.068,-12.5016,177.869,2.70264,-144.8,536
1569941046,396.478,-185.068,-12.5016,177.869,2.70264,-144.778,536
1569941046,396.478,-185.068,-12.5016,177.869,2.70264,-144.778,536
1569941046,396.478,-185.068,-12.5016,177.869,2.68066,-144.778,536
1569941046,396.478,-184.956,-12.6132,177.869,2.68066,-144.778,536
1569941046,396.478,-184.956,-12.6132,177.869,2.68066,-144.778,536
1569941046,396.478,-184.956,-12.6132,177.869,2.68066,-144.778,536
1569941046,396.478,-185.068,-12.6132,177.869,2.68066,-144.778,536
1569941046,396.478,-185.068,-12.6132,177.869,2.68066,-144.778,536
1569941046,396.478,-185.068,-12.6132,177.869,2.68066,-144.778,536
1569941046,396.478,-185.068,-12.6132,177.869,2.68066,-144.778,540
1569941046,396.478,-185.068,-12.6132,177.869,2.68066,-144.778,540
1569941046,396.478,-185.068,-12.6132,177.847,2.68066,-144.778,540
1569941046,396.478,-185.068,-12.6132,177.847,2.68066,-144.778,540
1569941046,396.478,-185.068,-12.6132,177.847,2.68066,-144.778,540
1569941046,396.478,-185.068,-12.6132,177.847,2.68066,-144.778,536
1569941046,396.478,-185.068,-12.6132,177.869,2.68066,-144.778,536
1569941046,396.478,-185.068,-12.6132,177.869,2.68066,-144.778,536
1569941046,396.478,-185.068,-12.6132,177.869,2.68066,-144.778,536
1569941046,396.59,-185.068,-12.6132,177.869,2.68066,-144.778,536
1569941046,396.59,-185.068,-12.6132,177.869,2.68066,-144.778,536
1569941046,396.59,-185.068,-12.6132,177.869,2.68066,-144.778,532
1569941046,396.59,-185.068,-12.6132,177.869,2.68066,-144.778,532
1569941046,396.59,-185.068,-12.6132,177.869,2.68066,-144.778,532
1569941046,396.59,-185.068,-12.6132,177.869,2.68066,-144.778,532
1569941046,396.59,-185.068,-12.6132,177.869,2.68066,-144.778,532
1569941046,396.59,-185.068,-12.6132,177.869,2.68066,-144.778,532
1569941046,396.59,-185.068,-12.6132,177.869,2.68066,-144.778,532
1569941046,396.59,-185.068,-12.6132,177.869,2.68066,-144.778,532
1569941046,396.59,-185.068,-12.6132,177.891,2.68066,-144.778,532
1569941046,396.59,-185.068,-12.6132,177.891,2.68066,-144.778,536
1569941046,396.59,-184.956,-12.6132,177.891,2.68066,-144.778,536
1569941046,396.59,-184.956,-12.6132,177.891,2.68066,-144.778,536
1569941046,396.59,-184.956,-12.6132,177.913,2.68066,-144.778,540
1569941046,396.59,-184.956,-12.6132,177.913,2.68066,-144.778,540
1569941046,396.59,-184.956,-12.6132,177.913,2.68066,-144.778,544
1569941046,396.59,-184.956,-12.6132,177.913,2.68066,-144.778,544
1569941046,396.59,-184.956,-12.6132,177.913,2.68066,-144.778,544
1569941046,396.59,-184.956,-12.6132,177.913,2.68066,-144.778,544
1569941046,396.59,-184.956,-12.6132,177.913,2.68066,-144.778,544
1569941046,396.59,-184.956,-12.6132,177.913,2.68066,-144.778,548
1569941046,396.59,-185.068,-12.6132,177.913,2.68066,-144.778,548
1569941046,396.59,-185.068,-12.6132,177.913,2.68066,-144.778,544
1569941046,396.59,-185.068,-12.6132,177.913,2.68066,-144.778,544
1569941046,396.59,-185.068,-12.6132,177.913,2.68066,-144.778,544
1569941046,396.59,-185.068,-12.6132,177.913,2.68066,-144.778,544
1569941046,396.59,-185.068,-12.6132,177.913,2.68066,-144.778,540
1569941046,396.59,-185.068,-12.6132,177.913,2.68066,-144.778,540
1569941046,396.59,-185.068,-12.6132,177.913,2.68066,-144.778,540
1569941046,396.59,-185.068,-12.6132,177.913,2.68066,-144.778,540
1569941046,396.59,-185.068,-12.6132,177.913,2.68066,-144.778,536
1569941046,396.59,-185.068,-12.6132,177.891,2.68066,-144.778,536
1569941046,396.59,-185.068,-12.6132,177.891,2.68066,-144.778,532
1569941046,396.59,-185.068,-12.6132,177.891,2.68066,-144.756,532
1569941046,396.59,-185.068,-12.6132,177.891,2.68066,-144.756,532
1569941046,396.59,-185.068,-12.6132,177.891,2.68066,-144.756,532
1569941046,396.59,-185.068,-12.5016,177.891,2.68066,-144.756,532
1569941046,396.59,-185.068,-12.5016,177.891,2.68066,-144.756,532
1569941046,396.478,-185.068,-12.5016,177.891,2.68066,-144.756,532
1569941046,396.478,-185.068,-12.5016,177.869,2.70264,-144.756,532
1569941046,396.478,-185.068,-12.5016,177.891,2.70264,-144.756,532
1569941046,396.478,-185.068,-12.5016,177.891,2.70264,-144.756,532
1569941046,396.478,-185.068,-12.5016,177.891,2.70264,-144.756,532
1569941046,396.59,-185.068,-12.5016,177.891,2.70264,-144.756,536
1569941046,396.59,-185.068,-12.5016,177.891,2.70264,-144.756,536
1569941046,396.59,-185.068,-12.3899,177.891,2.72461,-144.756,536
1569941046,396.59,-185.068,-12.3899,177.891,2.72461,-144.756,540
1569941046,396.59,-185.068,-12.3899,177.891,2.72461,-144.756,540
1569941046,396.59,-185.068,-12.3899,177.891,2.72461,-144.756,540
1569941046,396.59,-185.068,-12.3899,177.891,2.72461,-144.756,540
1569941046,396.59,-185.068,-12.5016,177.891,2.72461,-144.756,540
1569941047,396.59,-185.068,-12.5016,177.891,2.72461,-144.756,544
1569941047,396.59,-185.068,-12.5016,177.891,2.70264,-144.756,544
1569941047,396.59,-185.068,-12.5016,177.891,2.70264,-144.756,540
1569941047,396.59,-185.068,-12.5016,177.891,2.70264,-144.756,540
1569941047,396.59,-185.068,-12.5016,177.891,2.70264,-144.756,540
1569941047,396.59,-185.068,-12.5016,177.891,2.70264,-144.756,540
1569941047,396.59,-185.068,-12.5016,177.891,2.70264,-144.778,540
1569941047,396.59,-185.068,-12.5016,177.891,2.70264,-144.778,540
1569941047,396.59,-185.068,-12.5016,177.891,2.70264,-144.778,540
1569941047,396.59,-185.068,-12.5016,177.891,2.70264,-144.778,536
1569941047,396.59,-185.068,-12.3899,177.891,2.70264,-144.778,536
1569941047,396.59,-185.068,-12.3899,177.891,2.72461,-144.778,536
1569941047,396.59,-185.068,-12.3899,177.869,2.72461,-144.778,536
1569941047,396.59,-185.068,-12.3899,177.869,2.72461,-144.778,536
1569941047,396.59,-185.068,-12.3899,177.869,2.72461,-144.778,536
1569941047,396.478,-185.068,-12.3899,177.869,2.72461,-144.778,536
1569941047,396.478,-185.068,-12.3899,177.869,2.72461,-144.778,536
1569941047,396.478,-185.068,-12.3899,177.869,2.70264,-144.778,536
1569941047,396.478,-185.068,-12.5016,177.869,2.70264,-144.778,536
1569941047,396.478,-185.068,-12.5016,177.869,2.70264,-144.778,536
1569941047,396.478,-185.068,-12.5016,177.869,2.70264,-144.778,536
1569941047,396.478,-184.956,-12.3899,177.869,2.70264,-144.778,536
1569941047,396.478,-184.956,-12.3899,177.891,2.72461,-144.778,540
1569941047,396.478,-184.956,-12.3899,177.891,2.72461,-144.778,540
1569941047,396.478,-184.956,-12.3899,177.891,2.72461,-144.778,540
1569941047,396.478,-184.956,-12.3899,177.891,2.72461,-144.756,540
1569941047,396.478,-184.956,-12.3899,177.891,2.72461,-144.756,544
1569941047,396.478,-184.956,-12.3899,177.891,2.72461,-144.756,544
1569941047,396.478,-184.956,-12.3899,177.913,2.72461,-144.756,544
1569941047,396.478,-184.845,-12.3899,177.913,2.72461,-144.756,548
1569941047,396.478,-184.845,-12.3899,177.913,2.72461,-144.756,548
1569941047,396.478,-184.845,-12.3899,177.913,2.72461,-144.756,548
1569941047,396.478,-184.845,-12.3899,177.913,2.70264,-144.756,548
1569941047,396.478,-184.845,-12.3899,177.935,2.70264,-144.756,552
1569941047,396.59,-184.845,-12.5016,177.935,2.70264,-144.756,552
1569941047,396.59,-184.845,-12.5016,177.935,2.68066,-144.756,552
1569941047,396.59,-184.845,-12.5016,177.935,2.68066,-144.756,552
1569941047,396.59,-184.845,-12.5016,177.935,2.68066,-144.756,552
1569941047,396.59,-184.845,-12.5016,177.935,2.68066,-144.756,552
1569941047,396.59,-184.845,-12.5016,177.935,2.68066,-144.756,552
1569941047,396.59,-184.845,-12.6132,177.935,2.68066,-144.756,552
1569941047,396.59,-184.845,-12.6132,177.935,2.65869,-144.756,548
1569941047,396.59,-184.845,-12.5016,177.935,2.65869,-144.756,548
1569941047,396.59,-184.956,-12.5016,177.913,2.68066,-144.756,548
1569941047,396.59,-184.956,-12.5016,177.913,2.68066,-144.778,548
1569941047,396.59,-184.956,-12.5016,177.913,2.68066,-144.778,548
1569941047,396.59,-184.956,-12.5016,177.913,2.68066,-144.778,544
1569941047,396.59,-184.956,-12.5016,177.913,2.68066,-144.778,544
1569941047,396.59,-185.068,-12.5016,177.891,2.68066,-144.778,544
1569941047,396.59,-185.068,-12.6132,177.891,2.65869,-144.778,544
1569941047,396.59,-185.068,-12.6132,177.891,2.65869,-144.778,544
1569941047,396.59,-185.068,-12.6132,177.891,2.65869,-144.778,544
1569941047,396.59,-185.068,-12.6132,177.891,2.65869,-144.778,544
1569941047,396.59,-185.068,-12.6132,177.891,2.65869,-144.778,540
1569941047,396.59,-185.179,-12.6132,177.891,2.65869,-144.778,540
1569941047,396.59,-185.179,-12.6132,177.891,2.65869,-144.778,540
1569941047,396.59,-185.179,-12.6132,177.891,2.65869,-144.756,540
1569941047,396.701,-185.179,-12.6132,177.891,2.65869,-144.756,536
1569941047,396.701,-185.179,-12.6132,177.891,2.65869,-144.756,536
1569941047,396.701,-185.179,-12.6132,177.891,2.65869,-144.756,532
1569941047,396.701,-185.179,-12.6132,177.891,2.65869,-144.756,532
1569941047,396.701,-185.179,-12.6132,177.891,2.65869,-144.756,528
1569941047,396.701,-185.179,-12.6132,177.891,2.65869,-144.756,528
1569941047,396.701,-185.179,-12.6132,177.891,2.65869,-144.756,528
1569941047,396.701,-185.179,-12.6132,177.891,2.65869,-144.756,524
1569941047,396.701,-185.179,-12.6132,177.891,2.65869,-144.756,524
1569941047,396.701,-185.179,-12.6132,177.891,2.65869,-144.778,524
1569941047,396.701,-185.179,-12.6132,177.891,2.65869,-144.778,524
1569941047,396.701,-185.179,-12.6132,177.891,2.65869,-144.778,528
1569941047,396.701,-185.179,-12.6132,177.891,2.65869,-144.778,528
1569941047,396.701,-185.179,-12.6132,177.869,2.65869,-144.778,528
1569941047,396.701,-185.179,-12.6132,177.869,2.65869,-144.778,532
1569941047,396.701,-185.179,-12.6132,177.869,2.65869,-144.778,532
1569941047,396.701,-185.179,-12.6132,177.869,2.65869,-144.778,532
1569941047,396.701,-185.179,-12.6132,177.869,2.65869,-144.778,536
1569941047,396.701,-185.179,-12.6132,177.869,2.65869,-144.778,536
1569941047,396.701,-185.179,-12.6132,177.869,2.65869,-144.756,536
1569941047,396.701,-185.179,-12.6132,177.869,2.65869,-144.756,540
1569941047,396.701,-185.179,-12.6132,177.869,2.65869,-144.756,540
1569941047,396.59,-185.179,-12.6132,177.847,2.65869,-144.756,544
1569941047,396.59,-185.179,-12.5016,177.847,2.68066,-144.756,544
1569941047,396.59,-185.291,-12.5016,177.847,2.68066,-144.756,548
1569941047,396.59,-185.291,-12.5016,177.847,2.68066,-144.756,548
1569941047,396.59,-185.179,-12.5016,177.847,2.68066,-144.756,548
1569941047,396.59,-185.179,-12.5016,177.847,2.68066,-144.756,552
1569941047,396.59,-185.179,-12.5016,177.847,2.68066,-144.756,552
1569941047,396.59,-185.179,-12.5016,177.847,2.68066,-144.756,552
1569941047,396.59,-185.179,-12.5016,177.869,2.68066,-144.756,556
1569941047,396.701,-185.179,-12.5016,177.869,2.68066,-144.756,556
1569941047,396.701,-185.179,-12.6132,177.869,2.68066,-144.756,556
1569941047,396.701,-185.179,-12.6132,177.869,2.68066,-144.756,560
1569941047,396.701,-185.179,-12.6132,177.869,2.65869,-144.756,560
1569941047,396.701,-185.068,-12.6132,177.891,2.65869,-144.756,560
1569941047,396.701,-185.068,-12.6132,177.891,2.65869,-144.756,560
1569941047,396.701,-185.068,-12.6132,177.891,2.65869,-144.756,560
1569941047,396.701,-185.068,-12.6132,177.891,2.65869,-144.756,560
1569941047,396.701,-185.068,-12.6132,177.891,2.65869,-144.756,560
1569941047,396.701,-185.068,-12.6132,177.913,2.65869,-144.756,560
1569941047,396.701,-185.068,-12.6132,177.913,2.65869,-144.756,560
1569941047,396.701,-185.068,-12.6132,177.913,2.65869,-144.756,560
1569941048,396.701,-185.068,-12.6132,177.913,2.65869,-144.756,560
1569941048,396.701,-185.068,-12.6132,177.913,2.65869,-144.756,556
1569941048,396.701,-185.068,-12.6132,177.913,2.65869,-144.778,556
1569941048,396.701,-185.068,-12.6132,177.913,2.65869,-144.778,556
1569941048,396.701,-185.068,-12.6132,177.913,2.65869,-144.778,552
1569941048,396.701,-184.956,-12.6132,177.913,2.65869,-144.778,552
1569941048,396.701,-184.956,-12.6132,177.913,2.65869,-144.778,552
1569941048,396.701,-184.956,-12.6132,177.913,2.65869,-144.778,552
1569941048,396.701,-184.956,-12.6132,177.913,2.65869,-144.778,548
1569941048,396.701,-184.956,-12.6132,177.913,2.65869,-144.778,548
1569941048,396.701,-184.956,-12.6132,177.913,2.65869,-144.778,548
1569941048,396.59,-184.956,-12.6132,177.913,2.65869,-144.778,548
1569941048,396.59,-184.956,-12.6132,177.913,2.65869,-144.778,548
1569941048,396.59,-185.068,-12.6132,177.891,2.65869,-144.778,548
1569941048,396.59,-185.068,-12.6132,177.891,2.65869,-144.778,548
1569941048,396.59,-185.068,-12.6132,177.891,2.68066,-144.778,548
1569941048,396.59,-185.068,-12.6132,177.891,2.68066,-144.778,544
1569941048,396.59,-185.068,-12.6132,177.891,2.68066,-144.778,544
1569941048,396.59,-185.068,-12.6132,177.891,2.68066,-144.778,544
1569941048,396.59,-185.068,-12.6132,177.891,2.68066,-144.778,544
1569941048,396.59,-185.068,-12.6132,177.891,2.68066,-144.778,544
1569941048,396.59,-185.068,-12.6132,177.891,2.68066,-144.778,544
1569941048,396.59,-185.068,-12.6132,177.891,2.68066,-144.778,544
1569941048,396.59,-185.068,-12.5016,177.891,2.68066,-144.778,544
1569941048,396.59,-185.068,-12.5016,177.891,2.68066,-144.778,544
1569941048,396.59,-185.068,-12.5016,177.891,2.68066,-144.778,548
1569941048,396.59,-184.956,-12.5016,177.913,2.70264,-144.778,548
1569941048,396.701,-184.956,-12.5016,177.913,2.70264,-144.778,548
1569941048,396.701,-184.956,-12.5016,177.913,2.70264,-144.778,548
1569941048,396.701,-184.956,-12.5016,177.913,2.70264,-144.778,548
1569941048,396.701,-184.956,-12.5016,177.913,2.70264,-144.778,548
1569941048,396.701,-184.956,-12.3899,177.913,2.70264,-144.778,552
1569941048,396.701,-184.956,-12.3899,177.913,2.72461,-144.778,552
1569941048,396.701,-184.956,-12.3899,177.913,2.72461,-144.778,552
1569941048,396.701,-184.956,-12.3899,177.913,2.72461,-144.778,552
1569941048,396.701,-184.956,-12.3899,177.913,2.72461,-144.778,552
1569941048,396.701,-185.068,-12.3899,177.913,2.72461,-144.778,552
1569941048,396.701,-185.068,-12.3899,177.891,2.72461,-144.778,552
1569941048,396.701,-185.068,-12.3899,177.891,2.72461,-144.778,552
1569941048,396.701,-185.068,-12.3899,177.891,2.72461,-144.778,552
1569941048,396.59,-185.068,-12.3899,177.891,2.72461,-144.778,552
1569941048,396.59,-185.068,-12.3899,177.869,2.72461,-144.778,556
1569941048,396.59,-185.179,-12.3899,177.869,2.72461,-144.778,556
1569941048,396.59,-185.179,-12.3899,177.869,2.72461,-144.778,556
1569941048,396.59,-185.179,-12.2783,177.847,2.74658,-144.756,556
1569941048,396.59,-185.179,-12.2783,177.847,2.74658,-144.756,556
1569941048,396.59,-185.179,-12.2783,177.847,2.74658,-144.756,556
1569941048,396.59,-185.291,-12.2783,177.847,2.74658,-144.756,556
1569941048,396.59,-185.291,-12.2783,177.847,2.74658,-144.756,556
1569941048,396.59,-185.291,-12.2783,177.847,2.74658,-144.756,556
1569941048,396.59,-185.291,-12.2783,177.847,2.74658,-144.756,556
1569941052,381.298,-168.101,-12.0551,177.913,3.01025,-144.998,496
1569941052,381.298,-168.101,-12.0551,177.913,2.98828,-144.998,496
1569941052,381.298,-168.101,-12.0551,177.913,2.98828,-144.998,496
1569941052,381.298,-168.101,-12.0551,177.913,2.98828,-144.998,496
1569941052,381.409,-168.101,-12.0551,177.913,2.98828,-144.998,496
1569941052,381.409,-168.101,-12.0551,177.913,2.98828,-144.998,496
1569941052,381.409,-168.101,-12.0551,177.913,2.98828,-144.998,496
1569941052,381.409,-168.101,-12.0551,177.913,2.98828,-144.998,496
1569941052,381.409,-168.101,-12.0551,177.913,2.98828,-144.998,496
1569941052,381.409,-168.101,-12.1667,177.935,2.98828,-144.998,496
1569941052,381.409,-168.101,-12.1667,177.935,2.98828,-144.998,496
1569941052,381.409,-167.99,-12.1667,177.935,2.98828,-145.02,496
1569941052,381.409,-167.99,-12.1667,177.935,2.98828,-144.998,496
1569941052,381.409,-167.99,-12.1667,177.935,2.98828,-144.998,496
1569941052,381.409,-167.99,-12.1667,177.935,2.98828,-144.998,496
1569941052,381.409,-167.99,-12.1667,177.935,2.98828,-144.998,496
1569941052,381.409,-167.99,-12.1667,177.957,2.98828,-144.998,496
1569941052,381.409,-167.99,-12.1667,177.957,2.98828,-144.998,496
1569941052,381.409,-167.99,-12.1667,177.957,2.98828,-144.998,496
1569941052,381.409,-167.99,-12.1667,177.957,2.98828,-144.998,492
1569941052,381.521,-167.99,-12.1667,177.979,2.98828,-144.998,492
1569941052,381.521,-167.99,-12.1667,177.979,2.98828,-144.976,492
1569941052,381.521,-167.878,-12.1667,177.979,2.98828,-144.976,488
1569941053,381.521,-167.878,-12.0551,177.979,2.98828,-144.976,488
1569941053,381.521,-167.878,-12.0551,177.979,2.98828,-144.976,488
1569941053,381.521,-167.878,-12.0551,177.979,2.98828,-144.976,484
1569941053,381.521,-167.878,-12.0551,177.979,2.98828,-144.976,484
1569941053,381.521,-167.99,-12.0551,177.979,2.98828,-144.976,484
1569941053,381.521,-167.99,-12.0551,177.979,2.98828,-144.976,484
1569941053,381.521,-167.99,-12.0551,177.979,2.98828,-144.976,484
1569941053,381.521,-167.99,-12.0551,177.979,2.98828,-144.954,484
1569941053,381.521,-167.99,-12.0551,177.979,2.98828,-144.954,484
1569941053,381.521,-167.99,-12.0551,177.957,2.98828,-144.954,484
1569941053,381.521,-167.99,-12.0551,177.957,2.98828,-144.954,484
1569941053,381.521,-167.99,-12.0551,177.957,2.98828,-144.976,484
1569941053,381.409,-167.99,-12.1667,177.957,2.98828,-144.976,484
1569941053,381.409,-167.99,-12.1667,177.957,2.98828,-144.976,484
1569941053,381.409,-167.99,-12.1667,177.957,2.96631,-144.976,484
1569941053,381.409,-167.99,-12.1667,177.957,2.96631,-144.976,484
1569941053,381.521,-167.99,-12.1667,177.957,2.96631,-144.976,480
1569941053,381.521,-167.99,-12.2783,177.957,2.96631,-144.976,480
1569941053,381.521,-167.99,-12.2783,177.957,2.96631,-144.998,480
1569941053,381.409,-167.99,-12.2783,177.957,2.96631,-144.998,480
1569941053,381.409,-167.99,-12.2783,177.957,2.96631,-144.998,476
1569941053,381.409,-167.99,-12.2783,177.957,2.96631,-144.998,476
1569941053,381.409,-167.99,-12.2783,177.957,2.96631,-144.998,476
1569941053,381.409,-167.99,-12.1667,177.957,2.96631,-144.998,476
1569941053,381.409,-167.99,-12.1667,177.957,2.96631,-144.998,472
1569941053,381.409,-167.99,-12.1667,177.957,2.96631,-144.998,472
1569941053,381.409,-167.99,-12.1667,177.957,2.96631,-144.998,472
1569941053,381.409,-167.99,-12.1667,177.957,2.98828,-144.998,472
1569941053,381.409,-167.99,-12.1667,177.957,2.98828,-144.998,472
1569941053,381.409,-167.99,-12.1667,177.957,2.98828,-144.998,472
1569941053,381.409,-167.99,-12.1667,177.957,2.98828,-144.998,472
1569941053,381.409,-167.99,-12.1667,177.957,2.98828,-144.998,472
1569941053,381.409,-167.99,-12.1667,177.957,2.98828,-145.02,472
1569941053,381.409,-167.99,-12.1667,177.935,2.98828,-145.02,472
1569941053,381.409,-167.99,-12.1667,177.935,2.98828,-145.02,468
1569941053,381.409,-168.101,-12.1667,177.935,2.98828,-145.02,468
1569941053,381.409,-168.101,-12.1667,177.935,2.98828,-145.02,468
1569941053,381.409,-168.101,-12.1667,177.935,2.98828,-145.02,468
1569941053,381.409,-168.101,-12.0551,177.935,2.98828,-145.02,468
1569941053,381.409,-168.101,-12.0551,177.913,2.98828,-144.998,464
1569941053,381.409,-168.101,-12.0551,177.913,2.98828,-144.998,464
1569941053,381.409,-168.101,-12.0551,177.913,2.98828,-144.998,464
1569941053,381.409,-168.101,-12.1667,177.913,2.98828,-144.998,464
1569941053,381.409,-168.101,-12.1667,177.913,2.98828,-144.998,464
1569941053,381.409,-168.101,-12.1667,177.913,2.98828,-144.998,460
1569941053,381.409,-168.213,-12.1667,177.913,2.98828,-144.998,460
1569941053,381.409,-168.213,-12.0551,177.913,2.98828,-144.998,460
1569941053,381.409,-168.213,-12.0551,177.913,2.98828,-144.998,460
1569941053,381.409,-168.213,-12.0551,177.913,2.98828,-144.998,460
1569941053,381.409,-168.213,-12.0551,177.913,3.01025,-145.02,464
1569941053,381.409,-168.213,-12.0551,177.891,3.01025,-145.02,464
1569941053,381.409,-168.213,-12.0551,177.891,3.01025,-145.02,464
1569941053,381.409,-168.213,-12.0551,177.891,3.01025,-145.02,464
1569941053,381.409,-168.213,-12.0551,177.891,3.01025,-145.02,464
1569941053,381.409,-168.213,-12.0551,177.891,3.01025,-145.02,464
1569941053,381.409,-168.213,-12.0551,177.891,3.01025,-145.02,464
1569941053,381.409,-168.213,-12.1667,177.891,3.01025,-145.02,464
1569941053,381.409,-168.213,-12.1667,177.891,3.01025,-145.02,464
1569941053,381.409,-168.213,-12.1667,177.891,3.01025,-145.02,464
1569941053,381.409,-168.325,-12.1667,177.891,3.01025,-145.02,464
1569941053,381.409,-168.325,-12.1667,177.869,3.01025,-145.02,464
1569941053,381.409,-168.325,-12.1667,177.869,3.01025,-145.02,464
1569941053,381.409,-168.325,-12.1667,177.869,2.98828,-145.02,464
1569941053,381.409,-168.325,-12.1667,177.869,2.98828,-145.02,464
1569941053,381.409,-168.325,-12.1667,177.891,2.98828,-145.02,464
1569941053,381.409,-168.325,-12.1667,177.891,2.98828,-145.02,464
1569941053,381.409,-168.213,-12.1667,177.891,2.98828,-145.02,464
1569941053,381.409,-168.213,-12.1667,177.891,2.98828,-145.02,464
1569941053,381.409,-168.213,-12.1667,177.891,2.98828,-145.02,464
1569941053,381.409,-168.213,-12.1667,177.891,2.98828,-145.02,464
1569941053,381.409,-168.213,-12.1667,177.891,2.98828,-145.02,464
1569941053,381.409,-168.213,-12.1667,177.913,2.98828,-145.02,464
1569941053,381.409,-168.213,-12.1667,177.913,2.96631,-145.02,464
1569941053,381.409,-168.213,-12.1667,177.913,2.96631,-145.02,464
1569941053,381.409,-168.101,-12.1667,177.913,2.96631,-145.02,464
1569941053,381.409,-168.101,-12.1667,177.913,2.96631,-145.02,464
1569941053,381.409,-168.101,-12.1667,177.913,2.96631,-145.02,464
1569941053,381.409,-168.101,-12.1667,177.913,2.96631,-145.02,464
1569941053,381.298,-168.101,-12.1667,177.913,2.96631,-145.02,464
1569941053,381.298,-168.101,-12.1667,177.913,2.96631,-145.02,464
1569941053,381.298,-168.101,-12.1667,177.935,2.96631,-145.02,464
1569941053,381.298,-168.101,-12.1667,177.935,2.96631,-144.998,464
1569941053,381.298,-168.101,-12.1667,177.935,2.96631,-144.998,464
1569941053,381.409,-168.101,-12.1667,177.935,2.96631,-144.998,464
1569941053,381.409,-168.101,-12.1667,177.935,2.98828,-144.998,464
1569941053,381.409,-168.101,-12.1667,177.935,2.98828,-144.998,464
1569941053,381.409,-168.101,-12.1667,177.957,2.98828,-144.998,464
1569941053,381.409,-168.101,-12.1667,177.957,2.98828,-144.998,464
1569941053,381.409,-167.99,-12.1667,177.957,2.98828,-145.02,464
1569941053,381.409,-167.99,-12.1667,177.957,2.98828,-145.02,464
1569941053,381.409,-167.99,-12.1667,177.957,2.98828,-145.02,464
1569941053,381.409,-167.99,-12.1667,177.979,2.98828,-145.02,464
1569941053,381.409,-167.99,-12.1667,177.979,2.98828,-145.02,464
1569941053,381.409,-167.99,-12.1667,177.979,2.98828,-145.02,464
1569941053,381.409,-167.99,-12.1667,177.979,3.01025,-145.02,464
1569941053,381.409,-167.99,-12.1667,177.979,3.01025,-145.02,464
1569941053,381.409,-167.99,-12.1667,177.979,3.01025,-145.02,468
1569941053,381.409,-167.99,-12.0551,177.979,3.01025,-145.02,468
1569941053,381.409,-167.99,-12.0551,177.979,3.01025,-145.02,468
1569941053,381.409,-167.99,-12.0551,177.979,3.01025,-144.998,468
1569941054,381.409,-167.99,-12.0551,177.979,3.01025,-144.998,468
1569941054,381.409,-167.99,-12.0551,177.979,3.01025,-144.998,468
1569941054,381.409,-167.99,-12.0551,177.957,3.01025,-144.998,468
1569941054,381.409,-167.99,-12.0551,177.957,3.01025,-144.998,468
1569941054,381.409,-167.99,-12.0551,177.957,3.01025,-144.998,472
1569941054,381.409,-167.99,-12.0551,177.957,3.01025,-144.998,472
1569941054,381.409,-167.99,-12.0551,177.957,3.01025,-144.998,472
1569941054,381.409,-167.99,-12.0551,177.957,3.01025,-144.998,472
1569941054,381.409,-167.99,-12.0551,177.957,2.98828,-144.998,472
1569941054,381.409,-167.99,-12.1667,177.957,2.98828,-144.998,472
1569941054,381.409,-167.99,-12.1667,177.957,2.98828,-144.998,472
1569941054,381.409,-167.99,-12.1667,177.957,2.98828,-144.998,472
1569941054,381.409,-167.99,-12.1667,177.957,2.98828,-144.998,472
1569941054,381.409,-167.99,-12.1667,177.957,2.98828,-144.998,476
1569941054,381.298,-167.99,-12.1667,177.957,2.98828,-144.998,476
1569941054,381.298,-167.99,-12.1667,177.957,2.98828,-144.998,476
1569941054,381.409,-167.99,-12.1667,177.957,2.98828,-144.998,476
1569941054,381.409,-167.99,-12.1667,177.957,2.98828,-144.998,476
1569941054,381.409,-167.99,-12.1667,177.957,2.98828,-144.998,476
1569941054,381.409,-167.99,-12.1667,177.957,2.98828,-144.998,480
1569941054,381.409,-167.99,-12.1667,177.957,2.98828,-144.998,480
1569941054,381.409,-167.99,-12.1667,177.957,2.98828,-144.998,480
1569941054,381.409,-167.99,-12.1667,177.957,2.98828,-144.998,480
1569941054,381.409,-167.99,-12.0551,177.957,2.98828,-144.998,480
1569941054,381.409,-167.99,-12.0551,177.957,2.98828,-144.998,480
1569941054,381.409,-167.99,-12.0551,177.957,2.98828,-144.998,484
1569941054,381.409,-167.99,-12.0551,177.957,3.01025,-144.998,484
1569941054,381.409,-167.99,-12.0551,177.957,3.01025,-144.998,484
1569941054,381.409,-167.99,-12.0551,177.957,3.01025,-144.998,484
1569941054,381.409,-167.99,-12.0551,177.957,3.01025,-144.998,484
1569941054,381.409,-167.99,-12.0551,177.935,3.01025,-144.998,488
1569941054,381.409,-167.99,-12.0551,177.935,3.03223,-144.998,488
1569941054,381.409,-167.99,-12.0551,177.935,3.03223,-144.998,488
1569941054,381.409,-167.99,-12.0551,177.935,3.03223,-144.998,488
1569941054,381.409,-167.99,-12.0551,177.935,3.03223,-144.998,488
1569941054,381.409,-168.101,-12.0551,177.935,3.03223,-144.998,488
1569941054,381.409,-168.101,-12.0551,177.935,3.03223,-144.998,488
1569941054,381.409,-168.101,-12.0551,177.935,3.03223,-144.998,488
1569941054,381.409,-168.101,-12.0551,177.913,3.03223,-144.998,488
1569941054,381.409,-168.101,-12.0551,177.913,3.01025,-144.998,488
1569941054,381.409,-168.101,-12.0551,177.913,3.01025,-144.998,488
1569941054,381.409,-168.101,-12.0551,177.913,3.01025,-144.998,488
1569941054,381.409,-168.101,-12.0551,177.913,3.01025,-144.998,488
1569941054,381.409,-168.101,-12.0551,177.913,3.01025,-144.998,488
1569941054,381.409,-168.101,-12.0551,177.913,3.01025,-144.998,488
1569941054,381.409,-168.101,-12.0551,177.913,3.01025,-144.998,488
1569941054,381.409,-168.101,-12.0551,177.913,3.01025,-144.998,488
1569941054,381.409,-168.101,-12.0551,177.935,3.01025,-144.998,488
1569941054,381.409,-168.101,-12.0551,177.935,3.01025,-144.998,488
1569941054,381.409,-168.101,-12.0551,177.935,3.01025,-144.998,492
1569941054,381.409,-168.101,-12.0551,177.935,3.01025,-144.998,492
1569941054,381.409,-168.101,-12.0551,177.935,3.01025,-144.998,492
1569941054,381.409,-168.101,-12.0551,177.935,3.01025,-144.998,492
1569941054,381.409,-168.101,-12.0551,177.935,3.01025,-144.998,492
1569941054,381.409,-168.101,-12.0551,177.935,3.03223,-144.998,492
1569941054,381.409,-168.101,-11.9435,177.935,3.03223,-144.998,492
1569941054,381.409,-168.101,-11.9435,177.935,3.03223,-144.998,492
1569941054,381.409,-168.101,-11.9435,177.935,3.03223,-144.998,492
1569941054,381.409,-168.101,-11.9435,177.935,3.03223,-144.998,492
1569941054,381.409,-168.101,-11.9435,177.935,3.03223,-144.998,492
1569941054,381.409,-168.101,-11.9435,177.935,3.03223,-144.998,492
1569941054,381.409,-168.101,-11.9435,177.935,3.03223,-144.998,492
1569941054,381.298,-168.101,-11.9435,177.935,3.03223,-144.998,492
1569941054,381.298,-168.101,-11.9435,177.935,3.03223,-144.998,492
1569941054,381.298,-168.101,-11.9435,177.935,3.01025,-144.998,488
1569941054,381.298,-168.101,-12.0551,177.935,3.01025,-144.998,488
1569941054,381.298,-168.101,-12.0551,177.935,3.01025,-144.998,488
1569941054,381.298,-168.101,-12.0551,177.935,3.01025,-144.998,488
1569941054,381.298,-167.99,-12.0551,177.935,3.01025,-144.998,484
1569941054,381.298,-167.99,-12.0551,177.935,3.01025,-144.998,484
1569941054,381.298,-167.99,-12.0551,177.935,3.01025,-144.998,484
1569941054,381.298,-167.99,-12.0551,177.935,2.98828,-144.998,484
1569941054,381.298,-167.99,-12.0551,177.935,2.98828,-144.976,484
1569941054,381.298,-167.99,-12.0551,177.957,2.98828,-144.976,484
1569941054,381.298,-167.99,-12.0551,177.957,2.98828,-144.976,484
1569941054,381.298,-167.99,-12.0551,177.935,2.98828,-144.976,484
1569941054,381.298,-167.99,-12.0551,177.935,2.98828,-144.976,480
1569941054,381.298,-167.99,-12.0551,177.935,2.98828,-144.976,480
1569941054,381.298,-167.99,-12.0551,177.935,2.98828,-144.976,480
1569941054,381.298,-168.101,-12.0551,177.935,2.98828,-144.976,480
1569941054,381.298,-168.101,-12.0551,177.935,3.01025,-144.976,480
1569941054,381.298,-168.101,-12.0551,177.913,3.01025,-144.976,476
1569941054,381.298,-168.101,-12.0551,177.913,3.01025,-144.976,476
1569941054,381.298,-168.101,-12.0551,177.913,3.01025,-144.976,476
1569941054,381.298,-168.101,-12.0551,177.913,3.01025,-144.976,476
1569941054,381.298,-168.101,-12.0551,177.913,3.01025,-144.976,476
1569941054,381.298,-168.101,-12.0551,177.913,3.01025,-144.998,476
1569941054,381.298,-168.101,-12.0551,177.913,3.01025,-144.998,476
1569941054,381.298,-168.101,-12.0551,177.913,3.01025,-144.998,472
1569941054,381.298,-168.101,-12.0551,177.935,3.01025,-144.998,472
1569941054,381.409,-168.101,-12.0551,177.935,3.01025,-144.998,472
1569941054,381.409,-168.101,-12.0551,177.935,3.01025,-144.998,472
1569941054,381.409,-168.101,-12.0551,177.935,3.01025,-144.998,472
1569941054,381.409,-168.101,-12.0551,177.935,3.01025,-144.998,472
1569941054,381.409,-168.101,-12.0551,177.935,3.01025,-144.998,476
1569941054,381.409,-168.101,-12.0551,177.935,3.01025,-144.998,476
1569941054,381.409,-168.101,-11.9435,177.935,3.03223,-144.998,476
1569941054,381.409,-168.101,-11.9435,177.935,3.03223,-144.998,476
1569941054,381.409,-168.101,-11.9435,177.935,3.03223,-144.998,476
1569941054,381.409,-168.101,-11.9435,177.935,3.03223,-144.998,476
1569941055,381.409,-168.101,-11.9435,177.935,3.03223,-144.998,476
1569941055,381.409,-168.101,-11.9435,177.935,3.03223,-144.998,480
1569941055,381.409,-168.101,-11.9435,177.935,3.03223,-144.998,480
1569941055,381.409,-168.213,-11.9435,177.935,3.03223,-144.998,480
1569941055,381.409,-168.213,-11.9435,177.913,3.03223,-144.998,480
1569941055,381.409,-168.213,-11.9435,177.913,3.03223,-144.998,480
1569941055,381.409,-168.101,-11.9435,177.935,3.03223,-144.998,480
1569941055,381.409,-168.101,-11.9435,177.935,3.03223,-144.998,480
1569941055,381.409,-168.101,-11.9435,177.935,3.03223,-144.998,480
1569941055,381.409,-168.101,-11.9435,177.935,3.03223,-144.998,480
1569941055,381.409,-168.101,-11.9435,177.935,3.03223,-144.998,480
1569941055,381.409,-167.99,-11.9435,177.957,3.03223,-144.998,480
1569941055,381.409,-167.99,-11.9435,177.957,3.03223,-144.998,480
1569941055,381.409,-167.99,-11.9435,177.957,3.03223,-144.998,480
1569941055,381.409,-167.99,-11.9435,177.957,3.03223,-144.998,480
1569941055,381.409,-167.99,-11.9435,177.957,3.03223,-144.998,484
1569941055,381.409,-167.99,-11.9435,177.957,3.03223,-144.998,484
1569941055,381.409,-167.99,-11.9435,177.957,3.03223,-144.998,484
1569941055,381.409,-167.99,-11.9435,177.957,3.0542,-144.998,484
1569941055,381.409,-167.99,-11.9435,177.957,3.0542,-144.998,488
1569941055,381.409,-167.99,-11.9435,177.957,3.0542,-144.998,488
1569941055,381.409,-168.101,-11.9435,177.935,3.0542,-144.998,488
1569941055,381.409,-168.101,-11.9435,177.935,3.0542,-144.998,492
1569941055,381.409,-168.101,-11.9435,177.935,3.0542,-144.998,492
1569941055,381.409,-168.101,-11.9435,177.913,3.03223,-144.976,492
1569941055,381.409,-168.101,-11.9435,177.913,3.03223,-144.976,492
1569941055,381.409,-168.101,-11.9435,177.913,3.03223,-144.976,492
1569941055,381.409,-168.101,-11.9435,177.913,3.03223,-144.976,492
1569941055,381.409,-168.101,-11.9435,177.913,3.03223,-144.976,492
1569941055,381.409,-168.101,-11.9435,177.913,3.03223,-144.976,492
1569941055,381.409,-168.101,-11.9435,177.913,3.03223,-144.976,492
1569941055,381.409,-168.101,-11.9435,177.913,3.03223,-144.976,492
1569941055,381.409,-168.101,-11.9435,177.913,3.03223,-144.976,492
1569941055,381.409,-168.101,-11.9435,177.891,3.03223,-144.976,492
1569941055,381.409,-168.213,-11.9435,177.891,3.01025,-144.976,492
1569941055,381.409,-168.213,-11.9435,177.891,3.01025,-144.976,492
1569941055,381.409,-168.101,-12.0551,177.891,3.01025,-144.976,492
1569941055,381.409,-168.101,-12.0551,177.891,3.01025,-144.976,496
1569941055,381.409,-168.101,-12.0551,177.891,3.01025,-144.976,496
1569941055,381.409,-168.101,-12.0551,177.891,3.01025,-144.976,496
1569941055,381.298,-168.101,-12.0551,177.891,2.98828,-144.976,496
1569941055,381.298,-168.101,-12.0551,177.891,2.98828,-144.976,496
1569941055,381.298,-168.101,-12.0551,177.891,2.98828,-144.976,496
1569941055,381.298,-168.101,-12.0551,177.891,2.98828,-144.976,496
1569941055,381.298,-168.101,-12.1667,177.913,2.98828,-144.954,496
1569941055,381.298,-167.99,-12.1667,177.913,2.98828,-144.954,496
1569941055,381.298,-167.99,-12.0551,177.913,2.98828,-144.954,500
1569941055,381.298,-167.99,-12.0551,177.913,2.98828,-144.954,500
1569941055,381.298,-167.99,-12.0551,177.935,2.98828,-144.954,500
1569941055,381.298,-167.99,-12.0551,177.935,2.98828,-144.954,500
1569941055,381.298,-167.99,-12.0551,177.935,2.98828,-144.976,500
1569941055,381.298,-167.99,-12.0551,177.935,3.01025,-144.976,500
1569941055,381.298,-167.99,-12.0551,177.935,3.01025,-144.976,500
1569941055,381.298,-167.99,-12.0551,177.935,3.01025,-144.976,500
1569941055,381.409,-167.99,-12.0551,177.935,3.01025,-144.976,500
1569941055,381.409,-167.99,-12.0551,177.935,3.01025,-144.976,500
1569941055,381.409,-167.99,-12.0551,177.935,3.01025,-144.976,500
1569941055,381.298,-167.99,-12.0551,177.935,3.01025,-144.976,500
1569941055,381.298,-167.99,-12.0551,177.935,3.01025,-144.976,500
1569941055,381.298,-167.99,-12.1667,177.935,3.01025,-144.976,500
1569941055,381.298,-167.99,-12.1667,177.935,3.01025,-144.998,500
1569941055,381.298,-167.99,-12.1667,177.935,3.01025,-144.998,500
1569941055,381.298,-167.99,-12.1667,177.913,3.01025,-144.998,500
1569941055,381.298,-167.99,-12.0551,177.913,3.01025,-144.998,500
1569941055,381.298,-167.99,-12.0551,177.913,3.01025,-144.998,500
1569941055,381.298,-167.99,-12.0551,177.913,3.01025,-144.998,500
1569941055,381.298,-167.99,-12.0551,177.935,3.01025,-144.998,500
1569941055,381.298,-167.99,-12.0551,177.935,3.01025,-144.998,500
1569941055,381.298,-167.99,-12.0551,177.935,3.01025,-144.998,500
1569941055,381.298,-167.99,-12.0551,177.935,3.01025,-144.998,500
1569941055,381.298,-167.99,-12.0551,177.935,3.01025,-144.998,500
1569941055,381.298,-167.99,-12.0551,177.935,3.01025,-144.998,500
1569941055,381.409,-167.99,-12.0551,177.935,3.01025,-144.976,500
1569941055,381.409,-167.99,-12.0551,177.935,3.01025,-144.976,500
1569941055,381.409,-167.99,-12.0551,177.935,3.01025,-144.976,504
1569941055,381.409,-167.99,-12.0551,177.935,3.01025,-144.976,504
1569941055,381.409,-167.99,-12.0551,177.957,3.01025,-144.998,504
1569941055,381.409,-167.99,-12.0551,177.957,3.01025,-144.998,504
1569941055,381.409,-167.99,-12.0551,177.935,3.01025,-144.998,504
1569941055,381.409,-167.99,-12.0551,177.935,3.01025,-144.998,504
1569941055,381.409,-167.99,-12.0551,177.935,3.01025,-144.998,500
1569941055,381.409,-167.99,-12.0551,177.935,3.01025,-144.998,500
1569941055,381.409,-167.99,-12.0551,177.935,2.98828,-144.998,500
1569941055,381.409,-167.99,-12.1667,177.935,2.98828,-144.998,496
1569941055,381.409,-167.99,-12.1667,177.935,2.98828,-144.998,496
1569941055,381.409,-167.99,-12.1667,177.935,2.98828,-144.998,496
1569941055,381.409,-167.99,-12.1667,177.935,2.98828,-144.998,492
1569941055,381.409,-167.99,-12.1667,177.935,2.98828,-144.998,492
1569941055,381.409,-168.101,-12.1667,177.935,2.98828,-144.998,488
1569941055,381.409,-168.101,-12.1667,177.935,2.98828,-144.998,488
1569941055,381.409,-168.101,-12.1667,177.935,2.98828,-144.998,484
1569941055,381.409,-168.101,-12.1667,177.935,2.98828,-144.998,484
1569941055,381.409,-168.101,-12.1667,177.935,2.98828,-144.998,480
1569941055,381.409,-167.99,-12.1667,177.935,2.98828,-144.998,480
1569941055,381.409,-167.99,-12.0551,177.935,2.98828,-144.998,480
1569941055,381.409,-167.99,-12.0551,177.935,2.98828,-144.998,480
1569941055,381.409,-167.99,-12.0551,177.935,3.01025,-144.998,476
1569941055,381.409,-167.99,-12.0551,177.935,3.01025,-144.998,476
1569941055,381.409,-167.99,-12.0551,177.957,3.01025,-144.998,476
1569941055,381.409,-167.99,-12.0551,177.957,3.01025,-144.998,476
1569941056,381.409,-167.99,-12.0551,177.957,3.01025,-144.998,476
1569941056,381.409,-167.99,-12.0551,177.957,3.01025,-144.998,476
1569941056,381.409,-167.99,-12.0551,177.957,3.01025,-144.998,476
1569941056,381.409,-167.99,-12.0551,177.957,3.01025,-144.998,476
1569941056,381.409,-167.99,-12.0551,177.957,3.01025,-144.976,476
1569941056,381.409,-167.99,-12.0551,177.957,3.01025,-144.976,476
1569941056,381.409,-167.99,-12.0551,177.957,3.01025,-144.976,476
1569941056,381.409,-167.99,-12.0551,177.957,3.03223,-144.976,476
1569941056,381.409,-167.99,-12.0551,177.957,3.03223,-144.976,476
1569941056,381.409,-167.99,-12.0551,177.957,3.03223,-144.976,472
1569941056,381.409,-167.99,-12.0551,177.957,3.03223,-144.976,472
1569941056,381.409,-167.99,-12.0551,177.957,3.03223,-144.976,472
1569941056,381.409,-167.99,-11.9435,177.957,3.03223,-144.976,472
1569941056,381.409,-167.99,-12.0551,177.957,3.03223,-144.976,472
1569941056,381.409,-167.99,-12.0551,177.957,3.03223,-144.976,468
1569941056,381.521,-167.99,-12.0551,177.957,3.03223,-144.976,468
1569941056,381.521,-167.99,-12.0551,177.957,3.03223,-144.976,468
1569941056,381.521,-167.99,-12.0551,177.957,3.03223,-144.976,468
1569941056,381.521,-167.99,-12.0551,177.957,3.03223,-144.998,464
1569941056,381.521,-167.99,-12.0551,177.957,3.03223,-144.998,464
1569941056,381.521,-167.99,-12.0551,177.957,3.03223,-144.998,464
1569941056,381.521,-167.99,-12.0551,177.957,3.03223,-144.998,464
1569941056,381.521,-167.99,-12.0551,177.957,3.03223,-144.998,464
1569941056,381.521,-167.99,-12.1667,177.957,3.01025,-144.998,460
1569941056,381.521,-167.99,-12.1667,177.957,3.01025,-144.998,460
1569941056,381.521,-167.99,-12.1667,177.957,3.01025,-144.998,460
1569941056,381.521,-167.99,-12.1667,177.957,3.01025,-145.02,460
1569941056,381.521,-167.99,-12.1667,177.957,3.01025,-145.02,460
1569941056,381.521,-167.99,-12.1667,177.957,3.01025,-145.02,460
1569941056,381.409,-167.99,-12.1667,177.957,3.01025,-145.02,460
1569941056,381.409,-167.99,-12.1667,177.957,3.01025,-145.02,460
1569941056,381.409,-167.99,-12.1667,177.957,3.01025,-145.02,464
1569941056,381.409,-167.99,-12.1667,177.957,3.01025,-145.02,464
1569941056,381.409,-167.99,-12.1667,177.957,2.98828,-145.02,464
1569941056,381.409,-167.99,-12.1667,177.957,2.98828,-145.02,464
1569941056,381.521,-167.99,-12.1667,177.957,2.98828,-145.02,464
1569941056,381.521,-167.99,-12.1667,177.957,2.98828,-145.02,468
1569941056,381.521,-167.99,-12.1667,177.957,2.98828,-145.02,468
1569941056,381.521,-167.99,-12.2783,177.957,2.98828,-145.02,468
1569941056,381.521,-167.878,-12.2783,177.957,2.98828,-145.02,468
1569941056,381.521,-167.878,-12.2783,177.957,2.96631,-144.998,472
1569941056,381.521,-167.878,-12.2783,177.979,2.96631,-144.998,472
1569941056,381.521,-167.878,-12.2783,177.979,2.96631,-144.998,472
1569941056,381.521,-167.878,-12.2783,177.979,2.96631,-144.998,472
1569941056,381.521,-167.878,-12.2783,177.979,2.96631,-144.998,472
1569941056,381.521,-167.878,-12.2783,177.979,2.96631,-144.998,472
1569941056,381.521,-167.767,-12.2783,178,2.96631,-144.998,472
1569941056,381.521,-167.767,-12.2783,178,2.96631,-144.998,476
1569941056,381.521,-167.767,-12.2783,178,2.96631,-144.998,476
1569941056,381.521,-167.767,-12.2783,178,2.96631,-144.998,476
1569941056,381.521,-167.767,-12.2783,178,2.96631,-144.998,476
1569941056,381.521,-167.767,-12.2783,178,2.96631,-144.998,476
1569941056,381.521,-167.767,-12.2783,178,2.96631,-144.998,476
1569941056,381.521,-167.767,-12.2783,178,2.96631,-145.02,476
1569941056,381.521,-167.767,-12.2783,178,2.96631,-145.02,476
1569941056,381.521,-167.878,-12.2783,178,2.96631,-145.02,476
1569941056,381.521,-167.878,-12.2783,178,2.96631,-145.02,480
1569941056,381.521,-167.878,-12.2783,177.979,2.96631,-145.02,480
1569941056,381.521,-167.878,-12.2783,177.979,2.96631,-145.02,480
1569941056,381.521,-167.878,-12.2783,177.979,2.96631,-145.02,480
1569941056,381.521,-167.878,-12.2783,177.979,2.96631,-145.02,480
1569941056,381.521,-167.99,-12.2783,177.957,2.96631,-145.02,480
1569941056,381.521,-167.99,-12.2783,177.957,2.96631,-145.02,480
1569941056,381.521,-167.99,-12.1667,177.957,2.96631,-144.998,480
1569941056,381.521,-167.99,-12.1667,177.935,2.96631,-144.998,480
1569941056,381.521,-167.99,-12.1667,177.935,2.96631,-144.998,480
1569941056,381.409,-167.99,-12.1667,177.935,2.98828,-144.998,480
1569941056,381.409,-167.99,-12.1667,177.935,2.96631,-144.998,476
1569941056,381.409,-168.101,-12.1667,177.935,2.96631,-144.998,476
1569941056,381.409,-168.101,-12.1667,177.935,2.96631,-144.998,476
1569941056,381.409,-168.101,-12.1667,177.935,2.96631,-144.998,476
1569941056,381.409,-168.101,-12.1667,177.913,2.96631,-144.998,476
1569941056,381.409,-168.101,-12.1667,177.913,2.96631,-144.998,472
1569941056,381.409,-168.101,-12.2783,177.913,2.96631,-144.998,472
1569941056,381.409,-168.101,-12.2783,177.913,2.94434,-144.998,472
1569941056,381.409,-168.101,-12.2783,177.913,2.94434,-145.02,472
1569941056,381.409,-168.101,-12.2783,177.913,2.94434,-145.02,468
1569941056,381.409,-168.101,-12.2783,177.913,2.94434,-145.02,468
1569941056,381.409,-168.101,-12.2783,177.935,2.94434,-145.02,468
1569941056,381.409,-168.101,-12.2783,177.935,2.96631,-145.02,468
1569941056,381.409,-168.101,-12.2783,177.935,2.96631,-145.02,464
1569941056,381.521,-168.101,-12.2783,177.935,2.96631,-145.02,464
1569941056,381.521,-168.101,-12.1667,177.935,2.96631,-145.02,464
1569941056,381.521,-168.101,-12.1667,177.935,2.96631,-145.02,460
1569941056,381.521,-168.101,-12.1667,177.935,2.96631,-145.02,460
1569941056,381.521,-168.101,-12.1667,177.935,2.96631,-145.02,460
1569941056,381.521,-168.101,-12.1667,177.935,2.98828,-145.02,460
1569941056,381.521,-168.101,-12.1667,177.935,2.98828,-145.02,460
1569941056,381.409,-168.101,-12.0551,177.935,2.98828,-145.02,460
1569941056,381.409,-168.101,-12.0551,177.935,2.98828,-145.02,460
1569941056,381.409,-168.101,-12.0551,177.935,2.98828,-145.02,456
1569941056,381.409,-168.101,-12.0551,177.935,3.01025,-145.02,456
1569941056,381.409,-168.101,-12.0551,177.935,3.01025,-144.998,456
1569941056,381.409,-168.101,-12.0551,177.935,3.01025,-144.998,456
1569941056,381.409,-168.101,-12.0551,177.935,3.01025,-144.998,456
1569941056,381.409,-168.101,-12.0551,177.935,3.01025,-144.998,456
1569941056,381.409,-168.101,-12.0551,177.935,3.01025,-144.998,456
1569941056,381.409,-168.101,-12.0551,177.935,3.01025,-144.998,456
1569941056,381.409,-168.101,-12.0551,177.935,3.01025,-144.998,456
1569941056,381.409,-168.101,-12.0551,177.935,3.01025,-144.998,456
1569941057,381.521,-168.101,-12.0551,177.935,3.01025,-144.998,456
1569941057,381.521,-168.101,-11.9435,177.935,3.01025,-144.998,456
1569941057,381.521,-168.101,-11.9435,177.935,3.01025,-144.998,456
1569941057,381.521,-168.101,-11.9435,177.935,3.01025,-144.998,456
1569941057,381.521,-168.101,-11.9435,177.935,3.01025,-144.998,460
1569941057,381.409,-168.101,-11.9435,177.935,3.01025,-144.998,460
1569941057,381.409,-168.101,-11.9435,177.935,3.01025,-144.998,460
1569941057,381.409,-168.101,-11.9435,177.935,3.01025,-144.998,464
1569941057,381.409,-168.101,-11.9435,177.935,3.01025,-144.998,464
1569941057,381.409,-168.101,-12.0551,177.913,3.01025,-144.998,468
1569941057,381.409,-168.101,-12.0551,177.913,3.01025,-144.998,468
1569941057,381.409,-168.101,-12.0551,177.913,3.01025,-144.998,472
1569941057,381.409,-168.101,-12.0551,177.913,3.01025,-144.998,472
1569941057,381.409,-168.101,-12.0551,177.913,3.01025,-144.998,476
1569941057,381.409,-168.101,-12.0551,177.913,3.01025,-144.998,476
1569941057,381.409,-168.101,-12.0551,177.913,2.98828,-144.998,476
1569941057,381.409,-168.101,-12.0551,177.913,2.98828,-144.998,480
1569941057,381.409,-168.101,-12.0551,177.913,2.98828,-144.998,480
1569941057,381.521,-168.101,-12.0551,177.913,3.01025,-144.998,480
1569941057,381.521,-168.101,-12.0551,177.935,3.01025,-144.998,480
1569941057,381.521,-168.101,-12.0551,177.935,3.01025,-144.998,480
1569941057,381.521,-168.101,-12.0551,177.935,3.01025,-144.998,484
1569941057,381.521,-168.101,-12.0551,177.935,3.01025,-145.02,484
1569941057,381.521,-168.101,-12.0551,177.935,3.01025,-145.02,484
1569941057,381.521,-168.101,-12.0551,177.935,3.01025,-145.02,484
1569941057,381.521,-167.99,-12.0551,177.957,3.01025,-145.02,484
1569941057,381.521,-167.99,-12.0551,177.957,3.01025,-145.02,484
1569941057,381.521,-167.99,-12.0551,177.957,3.01025,-144.998,484
1569941057,381.521,-167.99,-12.0551,177.957,3.01025,-144.998,488
1569941057,381.521,-167.99,-12.0551,177.957,3.01025,-144.998,488
1569941057,381.521,-167.99,-12.0551,177.957,3.01025,-144.998,488
1569941057,381.521,-167.99,-12.0551,177.979,3.01025,-144.998,488
1569941057,381.521,-167.99,-12.0551,177.979,3.01025,-144.998,488
1569941057,381.521,-167.99,-12.0551,177.979,3.01025,-144.998,488
1569941057,381.521,-167.99,-12.0551,177.979,3.01025,-144.998,484
1569941057,381.521,-167.99,-12.0551,177.979,3.01025,-144.998,484
1569941057,381.521,-167.99,-12.0551,177.979,3.01025,-144.976,484
1569941057,381.521,-167.878,-12.0551,177.979,3.01025,-144.976,484
1569941057,381.521,-167.878,-12.0551,177.979,3.01025,-144.976,484
1569941057,381.521,-167.878,-12.0551,177.979,2.98828,-144.976,484
1569941057,381.521,-167.878,-12.0551,177.979,3.01025,-144.976,480
1569941057,381.521,-167.878,-12.0551,177.979,3.01025,-144.976,480
1569941057,381.521,-167.878,-12.0551,177.979,3.01025,-144.976,480
1569941057,381.521,-167.878,-12.0551,177.979,2.98828,-144.976,480
1569941057,381.521,-167.878,-12.0551,177.979,2.98828,-144.976,476
1569941057,381.521,-167.878,-12.0551,178,2.98828,-144.976,476
1569941057,381.521,-167.878,-12.0551,178,2.98828,-144.976,476
1569941057,381.521,-167.878,-12.1667,178,2.98828,-144.976,476
1569941057,381.521,-167.878,-12.1667,178,2.98828,-144.976,476
1569941057,381.521,-167.878,-12.1667,178,2.98828,-144.976,472
1569941057,381.521,-167.878,-12.1667,178,2.98828,-144.976,472
1569941057,381.521,-167.878,-12.1667,178,2.98828,-144.976,472
1569941057,381.521,-167.878,-12.1667,178,2.98828,-144.976,472
1569941057,381.409,-167.878,-12.1667,178,2.96631,-144.976,472
1569941057,381.409,-167.878,-12.1667,178,2.96631,-144.976,472
1569941057,381.409,-167.878,-12.1667,178,2.96631,-144.976,472
1569941057,381.409,-167.878,-12.1667,178,2.96631,-144.976,472
1569941057,381.409,-167.878,-12.1667,178,2.96631,-144.976,472
1569941057,381.409,-167.878,-12.1667,177.979,2.96631,-144.976,472
1569941057,381.521,-167.99,-12.1667,177.979,2.96631,-144.976,472
1569941057,381.521,-167.99,-12.1667,177.979,2.96631,-144.976,472
1569941057,381.521,-167.99,-12.1667,177.979,2.96631,-144.976,472
1569941057,381.521,-167.99,-12.1667,177.979,2.96631,-144.976,472
1569941057,381.521,-167.99,-12.1667,177.979,2.96631,-144.976,472
1569941057,381.521,-167.99,-12.1667,177.979,2.96631,-144.976,472
1569941057,381.521,-167.99,-12.1667,177.979,2.96631,-144.976,472
1569941057,381.521,-167.99,-12.1667,177.979,2.96631,-144.976,472
1569941057,381.521,-167.99,-12.1667,177.979,2.96631,-144.998,472
1569941057,381.521,-167.99,-12.1667,177.979,2.96631,-144.998,472
1569941057,381.521,-167.99,-12.1667,177.979,2.96631,-144.998,472
1569941057,381.521,-167.99,-12.1667,177.979,2.94434,-144.998,472
1569941057,381.521,-167.99,-12.1667,177.979,2.94434,-144.998,472
1569941057,381.521,-167.99,-12.1667,177.979,2.96631,-144.998,472
1569941057,381.521,-167.99,-12.1667,177.957,2.96631,-144.998,472
1569941057,381.521,-167.99,-12.1667,177.957,2.96631,-144.998,472
1569941057,381.521,-168.101,-12.1667,177.957,2.96631,-144.998,472
1569941057,381.521,-168.101,-12.1667,177.957,2.96631,-144.998,472
1569941060,358.304,-142.875,-12.3899,178.044,2.76855,-144.734,388
1569941060,358.304,-142.875,-12.3899,178.044,2.76855,-144.734,388
1569941060,358.304,-142.875,-12.3899,178.044,2.76855,-144.734,388
1569941060,358.304,-142.875,-12.3899,178.044,2.76855,-144.734,392
1569941060,358.304,-142.875,-12.3899,178.044,2.76855,-144.734,392
1569941060,358.304,-142.875,-12.3899,178.044,2.76855,-144.734,392
1569941061,358.304,-142.875,-12.3899,178.044,2.76855,-144.734,392
1569941061,358.304,-142.875,-12.3899,178.044,2.76855,-144.734,392
1569941061,358.304,-142.875,-12.3899,178.044,2.76855,-144.734,392
1569941061,358.304,-142.875,-12.3899,178.044,2.76855,-144.734,392
1569941061,358.304,-142.875,-12.3899,178.044,2.76855,-144.734,392
1569941061,358.304,-142.875,-12.3899,178.044,2.76855,-144.734,392
1569941061,358.304,-142.875,-12.3899,178.044,2.76855,-144.734,392
1569941061,358.304,-142.875,-12.3899,178.044,2.76855,-144.756,392
1569941061,358.304,-142.875,-12.3899,178.044,2.76855,-144.756,392
1569941061,358.304,-142.875,-12.3899,178.044,2.76855,-144.756,392
1569941061,358.304,-142.875,-12.3899,178.044,2.76855,-144.756,392
1569941061,358.304,-142.875,-12.3899,178.044,2.76855,-144.756,392
1569941061,358.304,-142.875,-12.3899,178.044,2.74658,-144.756,392
1569941061,358.304,-142.875,-12.3899,178.044,2.74658,-144.756,392
1569941061,358.304,-142.875,-12.3899,178.044,2.74658,-144.756,396
1569941061,358.304,-142.875,-12.3899,178.044,2.74658,-144.756,396
1569941061,358.304,-142.875,-12.3899,178.044,2.74658,-144.756,396
1569941061,358.415,-142.875,-12.3899,178.044,2.72461,-144.756,396
1569941061,358.415,-142.875,-12.3899,178.044,2.72461,-144.756,396
1569941061,358.304,-142.875,-12.3899,178.022,2.72461,-144.756,396
1569941061,358.304,-142.875,-12.3899,178.022,2.72461,-144.756,396
1569941061,358.304,-142.875,-12.3899,178.022,2.72461,-144.756,396
1569941061,358.304,-142.987,-12.3899,178.022,2.72461,-144.756,396
1569941061,358.304,-142.987,-12.3899,178.022,2.72461,-144.756,396
1569941061,358.304,-142.987,-12.3899,178.022,2.72461,-144.756,396
1569941061,358.304,-142.987,-12.5016,178,2.72461,-144.756,396
1569941061,358.304,-142.987,-12.5016,178,2.72461,-144.756,396
1569941061,358.304,-142.987,-12.5016,178,2.72461,-144.756,396
1569941061,358.304,-142.987,-12.5016,178,2.72461,-144.756,396
1569941061,358.304,-142.987,-12.5016,178,2.72461,-144.756,396
1569941061,358.304,-142.987,-12.5016,178.022,2.72461,-144.756,396
1569941061,358.304,-142.987,-12.5016,178.022,2.72461,-144.756,396
1569941061,358.304,-142.875,-12.5016,178.022,2.72461,-144.734,396
1569941061,358.304,-142.875,-12.5016,178.022,2.72461,-144.734,396
1569941061,358.304,-142.875,-12.5016,178.022,2.72461,-144.734,396
1569941061,358.304,-142.875,-12.5016,178.022,2.72461,-144.734,396
1569941061,358.304,-142.875,-12.5016,178.022,2.72461,-144.734,392
1569941061,358.304,-142.875,-12.5016,178.022,2.72461,-144.734,392
1569941061,358.304,-142.875,-12.5016,178.022,2.72461,-144.734,392
1569941061,358.304,-142.875,-12.5016,178.022,2.72461,-144.734,392
1569941061,358.304,-142.875,-12.5016,178.022,2.72461,-144.734,392
1569941061,358.304,-142.875,-12.5016,178.044,2.72461,-144.734,392
1569941061,358.304,-142.875,-12.5016,178.044,2.72461,-144.734,388
1569941061,358.415,-142.875,-12.5016,178.044,2.72461,-144.734,388
1569941061,358.415,-142.875,-12.5016,178.044,2.72461,-144.734,388
1569941061,358.415,-142.875,-12.5016,178.044,2.72461,-144.734,388
1569941061,358.415,-142.875,-12.5016,178.044,2.72461,-144.734,384
1569941061,358.415,-142.875,-12.5016,178.044,2.72461,-144.734,384
1569941061,358.415,-142.875,-12.5016,178.044,2.72461,-144.734,384
1569941061,358.415,-142.875,-12.5016,178.044,2.72461,-144.734,384
1569941061,358.415,-142.875,-12.5016,178.044,2.72461,-144.734,384
1569941061,358.415,-142.875,-12.5016,178.044,2.72461,-144.734,380
1569941061,358.415,-142.875,-12.5016,178.044,2.72461,-144.734,380
1569941061,358.415,-142.875,-12.5016,178.044,2.72461,-144.756,380
1569941061,358.415,-142.875,-12.5016,178.044,2.72461,-144.756,380
1569941061,358.415,-142.875,-12.5016,178.044,2.72461,-144.756,380
1569941061,358.415,-142.875,-12.5016,178.044,2.72461,-144.756,380
1569941061,358.415,-142.875,-12.5016,178.044,2.72461,-144.756,380
1569941061,358.415,-142.875,-12.5016,178.044,2.72461,-144.756,380
1569941061,358.415,-142.875,-12.5016,178.044,2.72461,-144.756,380
1569941061,358.415,-142.875,-12.5016,178.044,2.72461,-144.756,380
1569941061,358.415,-142.875,-12.5016,178.044,2.72461,-144.756,380
1569941061,358.415,-142.875,-12.5016,178.044,2.72461,-144.756,380
1569941061,358.415,-142.875,-12.5016,178.044,2.72461,-144.756,380
1569941061,358.415,-142.987,-12.5016,178.044,2.72461,-144.756,380
1569941061,358.415,-142.987,-12.5016,178.022,2.70264,-144.756,380
1569941061,358.415,-142.987,-12.5016,178.022,2.70264,-144.756,380
1569941061,358.415,-142.987,-12.5016,178.022,2.70264,-144.756,380
1569941061,358.415,-142.987,-12.5016,178.022,2.70264,-144.756,380
1569941061,358.415,-142.987,-12.5016,178.022,2.70264,-144.756,380
1569941061,358.415,-142.987,-12.5016,178.022,2.70264,-144.756,380
1569941061,358.415,-142.987,-12.5016,178.022,2.70264,-144.756,380
1569941061,358.415,-142.875,-12.5016,178.022,2.70264,-144.756,380
1569941061,358.415,-142.987,-12.5016,178.022,2.70264,-144.756,380
1569941061,358.415,-142.987,-12.5016,178.022,2.70264,-144.756,384
1569941061,358.415,-142.987,-12.5016,178.022,2.70264,-144.756,384
1569941061,358.415,-142.987,-12.5016,178.022,2.70264,-144.756,384
1569941061,358.415,-142.987,-12.5016,178.022,2.70264,-144.756,384
1569941061,358.415,-142.987,-12.5016,178.022,2.70264,-144.756,384
1569941061,358.415,-142.987,-12.5016,178.022,2.70264,-144.734,384
1569941061,358.415,-142.987,-12.5016,178.022,2.70264,-144.734,384
1569941061,358.415,-142.987,-12.6132,178.022,2.70264,-144.734,384
1569941061,358.415,-142.987,-12.6132,178.022,2.70264,-144.734,384
1569941061,358.415,-142.987,-12.6132,178.022,2.70264,-144.734,384
1569941061,358.415,-142.987,-12.6132,178.022,2.70264,-144.734,384
1569941061,358.415,-142.987,-12.6132,178.022,2.70264,-144.734,384
1569941061,358.415,-142.987,-12.6132,178.022,2.70264,-144.734,384
1569941061,358.415,-142.987,-12.6132,178.022,2.70264,-144.734,384
1569941061,358.304,-142.987,-12.6132,178.022,2.70264,-144.756,384
1569941061,358.304,-142.987,-12.5016,178.022,2.70264,-144.756,384
1569941061,358.304,-142.987,-12.5016,178.022,2.70264,-144.756,384
1569941061,358.304,-142.987,-12.5016,178.022,2.70264,-144.756,388
1569941061,358.304,-142.987,-12.5016,178.022,2.72461,-144.756,388
1569941061,358.304,-142.987,-12.5016,178.022,2.72461,-144.756,388
1569941061,358.304,-142.987,-12.5016,178.022,2.72461,-144.756,388
1569941061,358.304,-142.987,-12.5016,178.022,2.72461,-144.756,388
1569941061,358.304,-142.987,-12.5016,178.022,2.72461,-144.756,388
1569941061,358.304,-142.987,-12.5016,178.022,2.74658,-144.756,392
1569941061,358.304,-142.987,-12.5016,178.022,2.74658,-144.756,392
1569941061,358.304,-142.987,-12.3899,178.022,2.74658,-144.756,392
1569941062,358.304,-142.987,-12.3899,178.022,2.74658,-144.756,392
1569941062,358.304,-142.987,-12.3899,178.022,2.74658,-144.756,396
1569941062,358.304,-142.987,-12.3899,178.022,2.74658,-144.756,396
1569941062,358.304,-142.987,-12.3899,178.022,2.74658,-144.756,396
1569941062,358.304,-142.987,-12.3899,178.022,2.74658,-144.756,400
1569941062,358.304,-142.987,-12.3899,178.022,2.76855,-144.756,400
1569941062,358.304,-142.987,-12.3899,178.022,2.76855,-144.756,400
1569941062,358.304,-142.987,-12.3899,178.022,2.76855,-144.756,400
1569941062,358.304,-142.987,-12.3899,178.022,2.76855,-144.756,400
1569941062,358.304,-142.987,-12.3899,178.022,2.76855,-144.756,400
1569941062,358.304,-142.987,-12.3899,178.022,2.76855,-144.756,400
1569941062,358.304,-142.987,-12.3899,178.022,2.76855,-144.756,400
1569941062,358.304,-142.987,-12.3899,178.022,2.76855,-144.756,400
1569941062,358.304,-142.987,-12.3899,178.022,2.76855,-144.756,404
1569941062,358.304,-142.987,-12.3899,178.022,2.76855,-144.756,404
1569941062,358.304,-142.987,-12.3899,178.022,2.76855,-144.756,404
1569941062,358.304,-142.987,-12.3899,178.022,2.76855,-144.756,404
1569941062,358.304,-142.987,-12.3899,178.044,2.76855,-144.756,404
1569941062,358.415,-142.875,-12.3899,178.044,2.76855,-144.756,404
1569941062,358.415,-142.875,-12.3899,178.044,2.76855,-144.756,404
1569941062,358.415,-142.875,-12.3899,178.044,2.76855,-144.756,404
1569941062,358.415,-142.875,-12.3899,178.044,2.76855,-144.756,404
1569941062,358.415,-142.875,-12.3899,178.044,2.76855,-144.756,400
1569941062,358.415,-142.875,-12.3899,178.044,2.76855,-144.756,400
1569941062,358.415,-142.875,-12.3899,178.044,2.74658,-144.756,400
1569941062,358.415,-142.875,-12.3899,178.044,2.74658,-144.756,400
1569941062,358.415,-142.875,-12.3899,178.044,2.74658,-144.756,400
1569941062,358.415,-142.875,-12.3899,178.044,2.74658,-144.756,400
1569941062,358.415,-142.875,-12.3899,178.044,2.74658,-144.756,400
1569941062,358.415,-142.875,-12.3899,178.044,2.74658,-144.756,404
1569941062,358.415,-142.875,-12.3899,178.044,2.74658,-144.756,404
1569941062,358.415,-142.875,-12.3899,178.044,2.74658,-144.756,404
1569941062,358.415,-142.875,-12.3899,178.044,2.72461,-144.756,404
1569941062,358.415,-142.875,-12.5016,178.044,2.72461,-144.756,404
1569941062,358.415,-142.875,-12.5016,178.044,2.72461,-144.756,404
1569941062,358.415,-142.875,-12.5016,178.066,2.72461,-144.756,404
1569941062,358.415,-142.875,-12.5016,178.066,2.72461,-144.756,404
1569941062,358.415,-142.875,-12.5016,178.066,2.72461,-144.756,404
1569941062,358.415,-142.875,-12.5016,178.066,2.72461,-144.756,404
1569941062,358.415,-142.875,-12.5016,178.066,2.72461,-144.756,404
1569941062,358.415,-142.875,-12.5016,178.066,2.72461,-144.756,404
1569941062,358.415,-142.875,-12.5016,178.066,2.72461,-144.756,404
1569941062,358.415,-142.875,-12.5016,178.066,2.72461,-144.756,404
1569941062,358.415,-142.875,-12.3899,178.066,2.72461,-144.756,404
1569941062,358.415,-142.763,-12.3899,178.066,2.72461,-144.756,404
1569941062,358.415,-142.763,-12.3899,178.066,2.72461,-144.756,404
1569941062,358.415,-142.763,-12.5016,178.088,2.72461,-144.756,404
1569941062,358.415,-142.763,-12.5016,178.088,2.72461,-144.756,404
1569941062,358.415,-142.763,-12.5016,178.088,2.72461,-144.756,404
1569941062,358.415,-142.763,-12.5016,178.088,2.72461,-144.756,404
1569941062,358.415,-142.763,-12.5016,178.088,2.72461,-144.756,404
1569941062,358.415,-142.763,-12.5016,178.088,2.72461,-144.756,404
1569941062,358.415,-142.875,-12.5016,178.066,2.72461,-144.756,404
1569941062,358.415,-142.875,-12.5016,178.066,2.74658,-144.756,404
1569941062,358.415,-142.875,-12.3899,178.066,2.74658,-144.756,404
1569941062,358.415,-142.875,-12.3899,178.066,2.74658,-144.756,404
1569941062,358.415,-142.875,-12.3899,178.066,2.74658,-144.756,404
1569941062,358.415,-142.875,-12.3899,178.066,2.74658,-144.756,404
1569941062,358.415,-142.875,-12.5016,178.066,2.74658,-144.756,404
1569941062,358.415,-142.875,-12.5016,178.066,2.72461,-144.756,404
1569941062,358.415,-142.875,-12.5016,178.066,2.72461,-144.734,404
1569941062,358.415,-142.875,-12.5016,178.066,2.72461,-144.734,404
1569941062,358.415,-142.875,-12.5016,178.066,2.72461,-144.734,404
1569941062,358.415,-142.875,-12.5016,178.066,2.72461,-144.734,404
1569941062,358.415,-142.763,-12.5016,178.066,2.72461,-144.734,404
1569941062,358.415,-142.763,-12.5016,178.066,2.72461,-144.734,408
1569941062,358.415,-142.763,-12.5016,178.066,2.72461,-144.734,408
1569941062,358.415,-142.763,-12.5016,178.066,2.72461,-144.734,408
1569941062,358.415,-142.763,-12.5016,178.088,2.72461,-144.734,408
1569941062,358.415,-142.763,-12.3899,178.088,2.74658,-144.734,408
1569941062,358.415,-142.763,-12.3899,178.088,2.74658,-144.734,408
1569941062,358.415,-142.763,-12.3899,178.088,2.74658,-144.756,408
1569941062,358.415,-142.763,-12.3899,178.088,2.74658,-144.756,408
1569941062,358.415,-142.763,-12.3899,178.088,2.74658,-144.756,408
1569941062,358.415,-142.763,-12.3899,178.088,2.74658,-144.756,408
1569941062,358.415,-142.763,-12.3899,178.088,2.74658,-144.734,408
1569941062,358.415,-142.763,-12.3899,178.088,2.74658,-144.734,408
1569941062,358.415,-142.763,-12.3899,178.066,2.74658,-144.734,404
1569941062,358.415,-142.763,-12.3899,178.066,2.74658,-144.734,404
1569941062,358.415,-142.763,-12.3899,178.066,2.74658,-144.734,404
1569941062,358.415,-142.763,-12.3899,178.066,2.74658,-144.734,404
1569941062,358.415,-142.763,-12.3899,178.066,2.74658,-144.734,400
1569941062,358.415,-142.763,-12.3899,178.066,2.72461,-144.734,400
1569941062,358.415,-142.763,-12.5016,178.066,2.72461,-144.734,400
1569941062,358.415,-142.875,-12.5016,178.066,2.72461,-144.734,400
1569941062,358.415,-142.875,-12.5016,178.066,2.72461,-144.734,396
1569941062,358.415,-142.875,-12.5016,178.066,2.72461,-144.734,396
1569941062,358.415,-142.875,-12.3899,178.066,2.74658,-144.734,396
1569941062,358.415,-142.875,-12.3899,178.066,2.74658,-144.734,396
1569941062,358.415,-142.875,-12.3899,178.066,2.74658,-144.734,396
1569941062,358.415,-142.875,-12.3899,178.066,2.74658,-144.734,396
1569941062,358.415,-142.875,-12.3899,178.066,2.74658,-144.734,392
1569941062,358.415,-142.875,-12.3899,178.066,2.74658,-144.734,392
1569941062,358.415,-142.875,-12.3899,178.066,2.74658,-144.734,392
1569941062,358.415,-142.875,-12.3899,178.066,2.74658,-144.734,392
1569941062,358.415,-142.875,-12.3899,178.066,2.74658,-144.734,392
1569941062,358.415,-142.763,-12.3899,178.066,2.74658,-144.734,392
1569941062,358.415,-142.875,-12.3899,178.066,2.74658,-144.734,392
1569941062,358.415,-142.875,-12.3899,178.066,2.74658,-144.734,392
1569941062,358.415,-142.875,-12.3899,178.066,2.72461,-144.734,392
1569941063,358.415,-142.875,-12.3899,178.066,2.72461,-144.734,392
1569941063,358.415,-142.875,-12.3899,178.066,2.72461,-144.756,392
1569941063,358.415,-142.875,-12.3899,178.066,2.74658,-144.756,392
1569941063,358.415,-142.875,-12.3899,178.066,2.74658,-144.756,392
1569941063,358.415,-142.875,-12.3899,178.044,2.74658,-144.756,392
1569941063,358.415,-142.875,-12.3899,178.044,2.74658,-144.756,392
1569941063,358.415,-142.875,-12.3899,178.044,2.74658,-144.756,392
1569941063,358.415,-142.875,-12.3899,178.044,2.74658,-144.756,392
1569941063,358.415,-142.875,-12.3899,178.044,2.74658,-144.756,392
1569941063,358.415,-142.875,-12.5016,178.044,2.74658,-144.756,392
1569941063,358.415,-142.875,-12.5016,178.044,2.72461,-144.756,392
1569941063,358.415,-142.875,-12.5016,178.044,2.72461,-144.756,392
1569941063,358.415,-142.875,-12.5016,178.044,2.72461,-144.756,396
1569941063,358.415,-142.875,-12.5016,178.044,2.72461,-144.756,396
1569941063,358.415,-142.875,-12.5016,178.044,2.72461,-144.756,396
1569941063,358.415,-142.875,-12.5016,178.022,2.72461,-144.756,392
1569941063,358.415,-142.875,-12.5016,178.022,2.72461,-144.756,392
1569941063,358.415,-142.875,-12.3899,178.022,2.72461,-144.756,392
1569941063,358.304,-142.875,-12.3899,178.022,2.72461,-144.756,392
1569941063,358.304,-142.875,-12.3899,178.022,2.72461,-144.756,392
1569941063,358.304,-142.875,-12.3899,178.022,2.72461,-144.756,392
1569941063,358.304,-142.875,-12.3899,178.022,2.72461,-144.756,392
1569941063,358.304,-142.875,-12.5016,178.022,2.72461,-144.756,396
1569941063,358.304,-142.875,-12.5016,178.022,2.72461,-144.756,396
1569941063,358.304,-142.875,-12.5016,178.022,2.72461,-144.756,396
1569941063,358.304,-142.875,-12.5016,178.022,2.72461,-144.756,396
1569941063,358.304,-142.875,-12.5016,178.022,2.72461,-144.756,396
1569941063,358.304,-142.875,-12.5016,178.022,2.72461,-144.756,396
1569941063,358.304,-142.875,-12.5016,178.022,2.72461,-144.756,400
1569941063,358.415,-142.875,-12.5016,178.022,2.72461,-144.756,400
1569941063,358.415,-142.875,-12.5016,178.022,2.72461,-144.756,400
1569941063,358.415,-142.875,-12.5016,178.022,2.70264,-144.756,400
1569941063,358.415,-142.875,-12.5016,178.022,2.70264,-144.756,400
1569941063,358.415,-142.875,-12.5016,178.022,2.72461,-144.756,400
1569941063,358.415,-142.875,-12.5016,178.022,2.72461,-144.756,400
1569941063,358.415,-142.875,-12.5016,178.022,2.72461,-144.756,400
1569941063,358.415,-142.875,-12.5016,178.022,2.72461,-144.756,400
1569941063,358.415,-142.875,-12.5016,178.022,2.72461,-144.756,400
1569941063,358.415,-142.987,-12.5016,178.022,2.72461,-144.756,400
1569941063,358.415,-142.987,-12.5016,178.022,2.74658,-144.756,400
1569941063,358.415,-142.987,-12.3899,178.022,2.74658,-144.734,400
1569941063,358.415,-142.987,-12.3899,178.022,2.74658,-144.734,400
1569941063,358.415,-142.987,-12.3899,178.022,2.74658,-144.734,400
1569941063,358.415,-142.987,-12.3899,178.022,2.74658,-144.734,400
1569941063,358.415,-142.987,-12.3899,178.022,2.74658,-144.734,400
1569941063,358.415,-142.987,-12.3899,178.022,2.74658,-144.734,400
1569941063,358.415,-142.987,-12.3899,178.022,2.74658,-144.734,400
1569941063,358.415,-142.987,-12.3899,178.022,2.74658,-144.734,400
1569941063,358.415,-142.987,-12.3899,178.022,2.74658,-144.734,400
1569941063,358.415,-142.987,-12.3899,178.022,2.74658,-144.734,400
1569941063,358.415,-142.987,-12.3899,178.022,2.74658,-144.734,400
1569941063,358.415,-142.987,-12.3899,178.022,2.74658,-144.734,400
1569941063,358.415,-142.987,-12.3899,178.022,2.74658,-144.734,400
1569941063,358.415,-142.987,-12.3899,178.022,2.74658,-144.734,400
1569941063,358.415,-142.987,-12.3899,178.022,2.72461,-144.734,396
1569941063,358.415,-142.987,-12.3899,178.022,2.72461,-144.734,396
1569941063,358.415,-142.987,-12.5016,178.022,2.72461,-144.734,396
1569941063,358.415,-142.987,-12.5016,178.022,2.72461,-144.734,396
1569941063,358.415,-142.987,-12.5016,178.044,2.72461,-144.734,396
1569941063,358.415,-142.987,-12.5016,178.044,2.72461,-144.734,396
1569941063,358.415,-142.987,-12.5016,178.044,2.72461,-144.734,392
1569941063,358.415,-142.875,-12.5016,178.044,2.70264,-144.734,392
1569941063,358.415,-142.875,-12.5016,178.044,2.70264,-144.734,392
1569941063,358.415,-142.875,-12.5016,178.044,2.70264,-144.734,392
1569941063,358.415,-142.987,-12.5016,178.022,2.70264,-144.734,392
1569941063,358.415,-142.987,-12.5016,178.022,2.72461,-144.734,388
1569941063,358.415,-142.987,-12.5016,178.044,2.72461,-144.734,388
1569941063,358.415,-142.875,-12.5016,178.044,2.72461,-144.734,388
1569941063,358.415,-142.875,-12.5016,178.044,2.72461,-144.734,388
1569941063,358.415,-142.875,-12.5016,178.044,2.72461,-144.712,388
1569941063,358.415,-142.875,-12.3899,178.044,2.72461,-144.712,388
1569941063,358.415,-142.875,-12.3899,178.044,2.72461,-144.712,388
1569941063,358.415,-142.875,-12.3899,178.044,2.72461,-144.712,388
1569941063,358.415,-142.875,-12.3899,178.066,2.72461,-144.712,384
1569941063,358.415,-142.875,-12.3899,178.066,2.72461,-144.712,384
1569941063,358.415,-142.875,-12.3899,178.066,2.72461,-144.712,384
1569941063,358.415,-142.875,-12.3899,178.066,2.72461,-144.712,384
1569941063,358.415,-142.875,-12.3899,178.066,2.72461,-144.712,384
1569941063,358.415,-142.875,-12.3899,178.066,2.72461,-144.712,380
1569941063,358.415,-142.875,-12.3899,178.066,2.72461,-144.712,380
1569941063,358.415,-142.875,-12.3899,178.066,2.72461,-144.734,380
1569941063,358.415,-142.875,-12.3899,178.066,2.72461,-144.734,380
1569941063,358.415,-142.875,-12.3899,178.066,2.72461,-144.734,380
1569941063,358.415,-142.875,-12.3899,178.066,2.72461,-144.734,380
1569941063,358.415,-142.875,-12.3899,178.066,2.72461,-144.734,380
1569941063,358.415,-142.875,-12.3899,178.066,2.72461,-144.734,380
1569941063,358.415,-142.875,-12.3899,178.044,2.72461,-144.734,380
1569941063,358.415,-142.875,-12.3899,178.066,2.72461,-144.734,384
1569941063,358.415,-142.875,-12.5016,178.066,2.72461,-144.734,384
1569941063,358.415,-142.875,-12.5016,178.066,2.72461,-144.734,384
1569941063,358.415,-142.875,-12.5016,178.066,2.72461,-144.734,384
1569941063,358.415,-142.875,-12.5016,178.066,2.72461,-144.734,384
1569941063,358.415,-142.875,-12.5016,178.066,2.72461,-144.734,388
1569941063,358.415,-142.875,-12.5016,178.066,2.72461,-144.756,388
1569941063,358.415,-142.875,-12.5016,178.066,2.72461,-144.756,388
1569941063,358.415,-142.875,-12.5016,178.066,2.72461,-144.756,388
1569941063,358.415,-142.875,-12.5016,178.066,2.72461,-144.756,388
1569941063,358.415,-142.875,-12.5016,178.066,2.72461,-144.756,388
1569941063,358.415,-142.875,-12.5016,178.066,2.72461,-144.756,388
1569941063,358.415,-142.875,-12.5016,178.066,2.72461,-144.756,388
1569941064,358.415,-142.875,-12.5016,178.066,2.72461,-144.756,388
1569941064,358.415,-142.875,-12.5016,178.066,2.72461,-144.734,392
1569941064,358.415,-142.875,-12.5016,178.066,2.72461,-144.734,392
1569941064,358.415,-142.875,-12.5016,178.066,2.72461,-144.734,392
1569941064,358.415,-142.875,-12.5016,178.066,2.72461,-144.734,392
1569941064,358.415,-142.875,-12.5016,178.066,2.72461,-144.734,392
1569941064,358.415,-142.875,-12.5016,178.066,2.72461,-144.734,392
1569941064,358.415,-142.875,-12.5016,178.066,2.72461,-144.734,392
1569941064,358.415,-142.875,-12.5016,178.066,2.72461,-144.734,392
1569941064,358.527,-142.763,-12.5016,178.088,2.72461,-144.734,392
1569941064,358.527,-142.763,-12.5016,178.088,2.72461,-144.734,388
1569941064,358.527,-142.763,-12.5016,178.088,2.72461,-144.734,388
1569941064,358.527,-142.763,-12.5016,178.088,2.72461,-144.734,388
1569941064,358.527,-142.763,-12.5016,178.088,2.70264,-144.734,388
1569941064,358.527,-142.763,-12.5016,178.088,2.70264,-144.734,384
1569941064,358.527,-142.763,-12.5016,178.088,2.70264,-144.734,384
1569941064,358.527,-142.763,-12.5016,178.088,2.70264,-144.734,384
1569941064,358.527,-142.763,-12.5016,178.088,2.72461,-144.734,384
1569941064,358.527,-142.763,-12.5016,178.088,2.72461,-144.734,380
1569941064,358.527,-142.763,-12.5016,178.088,2.72461,-144.734,380
1569941064,358.527,-142.763,-12.5016,178.088,2.72461,-144.734,380
1569941064,358.527,-142.763,-12.5016,178.088,2.72461,-144.734,376
1569941064,358.527,-142.763,-12.5016,178.088,2.72461,-144.734,376
1569941064,358.527,-142.763,-12.5016,178.088,2.72461,-144.734,376
1569941064,358.415,-142.763,-12.5016,178.088,2.72461,-144.734,376
1569941064,358.415,-142.763,-12.5016,178.088,2.72461,-144.734,376
1569941064,358.415,-142.763,-12.5016,178.088,2.72461,-144.734,376
1569941064,358.415,-142.763,-12.5016,178.088,2.72461,-144.734,376
1569941064,358.415,-142.763,-12.5016,178.088,2.72461,-144.734,376
1569941064,358.415,-142.763,-12.5016,178.066,2.72461,-144.734,376
1569941064,358.415,-142.875,-12.5016,178.066,2.72461,-144.734,376
1569941064,358.415,-142.875,-12.5016,178.066,2.70264,-144.734,380
1569941064,358.415,-142.875,-12.5016,178.066,2.72461,-144.734,380
1569941064,358.415,-142.875,-12.5016,178.066,2.70264,-144.734,380
1569941064,358.415,-142.875,-12.5016,178.066,2.70264,-144.734,380
1569941064,358.415,-142.875,-12.5016,178.066,2.70264,-144.734,380
1569941064,358.415,-142.875,-12.5016,178.066,2.70264,-144.734,380
1569941064,358.415,-142.875,-12.5016,178.066,2.70264,-144.734,380
1569941064,358.415,-142.875,-12.5016,178.066,2.70264,-144.734,380
1569941064,358.415,-142.763,-12.5016,178.066,2.70264,-144.734,384
1569941064,358.415,-142.763,-12.5016,178.066,2.70264,-144.734,384
1569941064,358.415,-142.763,-12.5016,178.066,2.70264,-144.734,384
1569941064,358.415,-142.763,-12.5016,178.066,2.70264,-144.734,384
1569941064,358.415,-142.875,-12.5016,178.066,2.70264,-144.734,384
1569941064,358.415,-142.875,-12.5016,178.066,2.70264,-144.734,384
1569941064,358.415,-142.875,-12.5016,178.066,2.70264,-144.734,384
1569941064,358.415,-142.875,-12.5016,178.066,2.70264,-144.734,384
1569941064,358.415,-142.875,-12.5016,178.066,2.70264,-144.734,380
1569941064,358.415,-142.875,-12.5016,178.066,2.70264,-144.734,380
1569941064,358.415,-142.875,-12.5016,178.066,2.72461,-144.756,380
1569941064,358.415,-142.875,-12.5016,178.066,2.72461,-144.756,380
1569941064,358.415,-142.875,-12.5016,178.066,2.72461,-144.756,380
1569941064,358.415,-142.875,-12.5016,178.066,2.72461,-144.756,380
1569941064,358.415,-142.875,-12.5016,178.066,2.72461,-144.756,380
1569941064,358.415,-142.875,-12.5016,178.044,2.72461,-144.756,380
1569941064,358.415,-142.875,-12.5016,178.044,2.72461,-144.756,380
1569941064,358.415,-142.875,-12.5016,178.044,2.74658,-144.756,380
1569941064,358.415,-142.875,-12.5016,178.044,2.74658,-144.756,380
1569941064,358.415,-142.875,-12.5016,178.044,2.74658,-144.756,380
1569941064,358.415,-142.875,-12.5016,178.044,2.74658,-144.756,380
1569941064,358.415,-142.875,-12.5016,178.044,2.74658,-144.756,380
1569941064,358.415,-142.875,-12.5016,178.044,2.74658,-144.756,376
1569941064,358.415,-142.875,-12.5016,178.044,2.74658,-144.756,376
1569941064,358.415,-142.875,-12.5016,178.044,2.74658,-144.756,376
1569941064,358.415,-142.875,-12.5016,178.044,2.74658,-144.756,376
1569941064,358.415,-142.875,-12.5016,178.044,2.74658,-144.734,376
1569941064,358.415,-142.875,-12.5016,178.044,2.74658,-144.734,376
1569941064,358.415,-142.875,-12.5016,178.044,2.74658,-144.734,376
1569941064,358.415,-142.875,-12.5016,178.044,2.74658,-144.734,376
1569941064,358.415,-142.875,-12.5016,178.044,2.74658,-144.734,376
1569941064,358.415,-142.875,-12.3899,178.044,2.74658,-144.734,376
1569941064,358.415,-142.875,-12.5016,178.044,2.74658,-144.756,376
1569941064,358.415,-142.875,-12.5016,178.066,2.74658,-144.756,376
1569941064,358.415,-142.875,-12.5016,178.066,2.74658,-144.756,380
1569941064,358.415,-142.875,-12.5016,178.066,2.74658,-144.756,380
1569941064,358.415,-142.875,-12.5016,178.066,2.74658,-144.756,380
1569941064,358.415,-142.875,-12.5016,178.066,2.74658,-144.756,380
1569941064,358.415,-142.875,-12.5016,178.066,2.74658,-144.756,380
1569941064,358.415,-142.875,-12.5016,178.066,2.74658,-144.756,380
1569941064,358.415,-142.763,-12.5016,178.066,2.74658,-144.756,380
1569941064,358.415,-142.763,-12.5016,178.066,2.74658,-144.756,384
1569941064,358.415,-142.763,-12.5016,178.066,2.74658,-144.756,384
1569941064,358.415,-142.763,-12.5016,178.066,2.74658,-144.756,384
1569941064,358.415,-142.763,-12.5016,178.066,2.74658,-144.756,384
1569941064,358.415,-142.763,-12.5016,178.066,2.72461,-144.756,384
1569941064,358.415,-142.763,-12.5016,178.066,2.72461,-144.756,384
1569941064,358.415,-142.763,-12.5016,178.066,2.72461,-144.756,384
1569941064,358.415,-142.763,-12.5016,178.066,2.72461,-144.756,384
1569941064,358.415,-142.763,-12.5016,178.066,2.72461,-144.756,384
1569941064,358.415,-142.875,-12.5016,178.066,2.72461,-144.756,388
1569941064,358.415,-142.875,-12.5016,178.066,2.72461,-144.756,388
1569941064,358.415,-142.875,-12.5016,178.066,2.72461,-144.756,388
1569941064,358.415,-142.875,-12.5016,178.044,2.72461,-144.756,388
1569941064,358.415,-142.875,-12.5016,178.044,2.72461,-144.756,388
1569941064,358.415,-142.875,-12.5016,178.044,2.72461,-144.756,388
1569941064,358.415,-142.875,-12.5016,178.044,2.72461,-144.756,388
1569941064,358.415,-142.875,-12.5016,178.044,2.72461,-144.756,388
1569941064,358.415,-142.875,-12.5016,178.044,2.72461,-144.756,388
1569941064,358.415,-142.875,-12.5016,178.044,2.72461,-144.756,388
1569941064,358.415,-142.875,-12.5016,178.066,2.72461,-144.756,388
1569941065,358.415,-142.875,-12.5016,178.066,2.72461,-144.756,384
1569941065,358.415,-142.875,-12.5016,178.066,2.72461,-144.756,384
1569941065,358.415,-142.875,-12.5016,178.066,2.72461,-144.756,384
1569941065,358.415,-142.875,-12.5016,178.066,2.72461,-144.756,384
1569941065,358.415,-142.875,-12.5016,178.066,2.72461,-144.756,384
1569941065,358.415,-142.875,-12.5016,178.066,2.72461,-144.756,380
1569941065,358.415,-142.875,-12.5016,178.066,2.70264,-144.756,380
1569941065,358.415,-142.875,-12.5016,178.066,2.70264,-144.756,380
1569941065,358.415,-142.875,-12.5016,178.066,2.70264,-144.756,380
1569941065,358.415,-142.875,-12.5016,178.066,2.70264,-144.756,380
1569941065,358.415,-142.875,-12.5016,178.066,2.70264,-144.756,380
1569941065,358.415,-142.875,-12.5016,178.066,2.70264,-144.756,380
1569941065,358.415,-142.875,-12.5016,178.066,2.70264,-144.756,380
1569941065,358.415,-142.875,-12.5016,178.066,2.70264,-144.756,380
1569941065,358.415,-142.875,-12.5016,178.066,2.70264,-144.756,380
1569941065,358.415,-142.875,-12.5016,178.066,2.70264,-144.756,380
1569941065,358.415,-142.875,-12.5016,178.066,2.70264,-144.756,380
1569941065,358.415,-142.875,-12.5016,178.066,2.70264,-144.756,380
1569941065,358.415,-142.875,-12.5016,178.066,2.70264,-144.756,380
1569941065,358.415,-142.875,-12.5016,178.066,2.70264,-144.756,376
1569941065,358.415,-142.875,-12.5016,178.066,2.70264,-144.756,376
1569941065,358.415,-142.875,-12.5016,178.044,2.70264,-144.756,376
1569941065,358.415,-142.875,-12.5016,178.044,2.70264,-144.756,376
1569941065,358.415,-142.875,-12.5016,178.044,2.70264,-144.756,376
1569941065,358.304,-142.875,-12.5016,178.044,2.70264,-144.756,376
1569941065,358.304,-142.875,-12.5016,178.044,2.70264,-144.756,376
1569941065,358.304,-142.875,-12.5016,178.044,2.70264,-144.756,376
1569941065,358.304,-142.875,-12.5016,178.044,2.70264,-144.756,376
1569941065,358.304,-142.875,-12.5016,178.044,2.70264,-144.756,376
1569941065,358.415,-142.875,-12.5016,178.044,2.70264,-144.756,376
1569941065,358.415,-142.875,-12.5016,178.044,2.70264,-144.756,376
1569941065,358.415,-142.875,-12.5016,178.044,2.70264,-144.756,376
1569941065,358.415,-142.987,-12.5016,178.044,2.70264,-144.756,376
1569941065,358.415,-142.987,-12.5016,178.044,2.70264,-144.756,376
1569941065,358.415,-142.987,-12.5016,178.044,2.70264,-144.756,376
1569941065,358.415,-142.987,-12.5016,178.044,2.70264,-144.756,376
1569941065,358.415,-142.987,-12.5016,178.044,2.70264,-144.756,372
1569941065,358.415,-142.987,-12.5016,178.044,2.70264,-144.756,372
1569941065,358.415,-142.987,-12.5016,178.022,2.72461,-144.756,372
1569941065,358.415,-142.987,-12.5016,178.022,2.72461,-144.756,372
1569941065,358.415,-142.987,-12.5016,178.022,2.72461,-144.756,372
1569941065,358.415,-142.987,-12.5016,178.022,2.72461,-144.756,372
1569941065,358.415,-142.987,-12.5016,178.022,2.72461,-144.756,372
1569941065,358.415,-142.987,-12.5016,178.044,2.72461,-144.756,372
1569941065,358.415,-142.875,-12.5016,178.044,2.72461,-144.756,372
1569941065,358.415,-142.875,-12.5016,178.044,2.72461,-144.756,372
1569941065,358.415,-142.875,-12.5016,178.044,2.74658,-144.756,372
1569941065,358.415,-142.875,-12.5016,178.044,2.74658,-144.756,372
1569941065,358.415,-142.875,-12.5016,178.044,2.74658,-144.756,372
1569941065,358.415,-142.875,-12.5016,178.066,2.74658,-144.756,372
1569941065,358.415,-142.875,-12.5016,178.066,2.74658,-144.756,372
1569941065,358.527,-142.875,-12.3899,178.066,2.74658,-144.756,372
1569941065,358.527,-142.875,-12.3899,178.066,2.74658,-144.756,376
1569941065,358.527,-142.875,-12.3899,178.066,2.74658,-144.756,376
1569941065,358.527,-142.875,-12.3899,178.066,2.74658,-144.756,376
1569941065,358.527,-142.875,-12.3899,178.066,2.74658,-144.756,376
1569941065,358.527,-142.875,-12.3899,178.066,2.74658,-144.756,376
1569941065,358.527,-142.875,-12.3899,178.066,2.74658,-144.756,376
1569941065,358.527,-142.875,-12.3899,178.066,2.74658,-144.756,376
1569941065,358.527,-142.875,-12.3899,178.066,2.74658,-144.756,376
1569941065,358.527,-142.875,-12.3899,178.066,2.74658,-144.756,376
1569941065,358.527,-142.875,-12.3899,178.066,2.74658,-144.756,376
1569941065,358.527,-142.875,-12.3899,178.066,2.74658,-144.756,376
1569941065,358.527,-142.875,-12.3899,178.066,2.74658,-144.756,376
1569941065,358.415,-142.875,-12.3899,178.066,2.74658,-144.756,376
1569941065,358.415,-142.875,-12.3899,178.066,2.74658,-144.756,376
1569941065,358.415,-142.875,-12.3899,178.066,2.74658,-144.756,376
1569941065,358.415,-142.875,-12.3899,178.066,2.74658,-144.756,376
1569941065,358.415,-142.875,-12.3899,178.066,2.74658,-144.756,376
1569941065,358.415,-142.875,-12.3899,178.066,2.74658,-144.756,376
1569941065,358.415,-142.875,-12.3899,178.066,2.74658,-144.756,376
1569941065,358.415,-142.875,-12.3899,178.066,2.74658,-144.756,376
1569941065,358.415,-142.875,-12.3899,178.066,2.74658,-144.756,376
1569941065,358.415,-142.875,-12.3899,178.066,2.74658,-144.756,376
1569941065,358.415,-142.875,-12.3899,178.066,2.72461,-144.756,376
1569941065,358.415,-142.875,-12.3899,178.066,2.72461,-144.756,380
1569941065,358.415,-142.875,-12.5016,178.066,2.72461,-144.756,380
1569941065,358.415,-142.875,-12.5016,178.066,2.72461,-144.756,380
1569941065,358.415,-142.875,-12.5016,178.066,2.72461,-144.756,380
1569941065,358.415,-142.875,-12.5016,178.066,2.72461,-144.756,380
1569941065,358.415,-142.875,-12.5016,178.066,2.72461,-144.756,380
1569941065,358.415,-142.875,-12.5016,178.066,2.72461,-144.756,380
1569941065,358.415,-142.875,-12.5016,178.066,2.70264,-144.756,380
1569941065,358.415,-142.875,-12.5016,178.066,2.70264,-144.756,380
1569941065,358.415,-142.875,-12.5016,178.066,2.70264,-144.756,380
1569941065,358.415,-142.875,-12.5016,178.066,2.70264,-144.756,380
1569941065,358.415,-142.875,-12.5016,178.066,2.70264,-144.756,380
1569941065,358.415,-142.875,-12.5016,178.066,2.70264,-144.756,380
1569941065,358.415,-142.875,-12.5016,178.066,2.70264,-144.756,380
1569941065,358.415,-142.875,-12.5016,178.066,2.70264,-144.756,380
1569941065,358.415,-142.875,-12.5016,178.066,2.70264,-144.756,380
1569941065,358.415,-142.875,-12.5016,178.066,2.72461,-144.756,376
1569941065,358.415,-142.875,-12.5016,178.066,2.72461,-144.756,376
1569941065,358.415,-142.875,-12.5016,178.066,2.72461,-144.756,376
1569941069,320.241,-100.459,-13.7294,178.396,2.37305,-144.756,340
1569941069,320.241,-100.459,-13.7294,178.396,2.37305,-144.756,340
1569941069,320.241,-100.459,-13.7294,178.396,2.37305,-144.756,340
1569941069,320.241,-100.459,-13.7294,178.396,2.37305,-144.756,340
1569941069,320.241,-100.459,-13.7294,178.396,2.37305,-144.756,340
1569941069,320.241,-100.459,-13.7294,178.396,2.37305,-144.756,340
1569941069,320.241,-100.459,-13.7294,178.396,2.37305,-144.756,340
1569941069,320.241,-100.459,-13.7294,178.396,2.37305,-144.756,340
1569941069,320.241,-100.459,-13.7294,178.374,2.37305,-144.756,340
1569941069,320.241,-100.459,-13.7294,178.374,2.37305,-144.756,340
1569941069,320.241,-100.459,-13.7294,178.374,2.37305,-144.756,340
1569941069,320.241,-100.459,-13.7294,178.374,2.37305,-144.756,336
1569941069,320.241,-100.459,-13.7294,178.374,2.37305,-144.756,336
1569941069,320.241,-100.459,-13.7294,178.374,2.37305,-144.756,336
1569941069,320.241,-100.459,-13.7294,178.374,2.37305,-144.756,336
1569941069,320.241,-100.459,-13.7294,178.374,2.37305,-144.756,336
1569941069,320.241,-100.459,-13.7294,178.374,2.37305,-144.756,336
1569941069,320.241,-100.459,-13.7294,178.374,2.37305,-144.756,336
1569941069,320.241,-100.459,-13.7294,178.374,2.37305,-144.756,336
1569941069,320.241,-100.459,-13.7294,178.374,2.37305,-144.756,336
1569941069,320.241,-100.459,-13.7294,178.374,2.39502,-144.756,332
1569941069,320.241,-100.459,-13.7294,178.374,2.39502,-144.756,332
1569941069,320.241,-100.459,-13.7294,178.374,2.39502,-144.756,332
1569941069,320.241,-100.459,-13.7294,178.374,2.39502,-144.756,332
1569941069,320.241,-100.459,-13.7294,178.374,2.39502,-144.756,332
1569941069,320.241,-100.459,-13.7294,178.374,2.39502,-144.756,332
1569941069,320.241,-100.459,-13.7294,178.374,2.39502,-144.756,332
1569941069,320.241,-100.459,-13.7294,178.374,2.39502,-144.734,332
1569941069,320.241,-100.459,-13.7294,178.374,2.39502,-144.734,332
1569941069,320.241,-100.459,-13.7294,178.374,2.37305,-144.734,328
1569941069,320.241,-100.459,-13.7294,178.374,2.37305,-144.734,328
1569941069,320.241,-100.459,-13.7294,178.352,2.37305,-144.734,328
1569941069,320.241,-100.459,-13.7294,178.352,2.37305,-144.734,328
1569941069,320.241,-100.459,-13.7294,178.352,2.37305,-144.734,328
1569941069,320.241,-100.459,-13.7294,178.352,2.37305,-144.734,328
1569941069,320.241,-100.459,-13.7294,178.352,2.37305,-144.734,328
1569941069,320.241,-100.459,-13.7294,178.352,2.37305,-144.734,328
1569941069,320.241,-100.459,-13.7294,178.352,2.37305,-144.734,328
1569941069,320.241,-100.459,-13.7294,178.352,2.37305,-144.734,328
1569941069,320.241,-100.459,-13.7294,178.352,2.37305,-144.734,328
1569941069,320.241,-100.459,-13.7294,178.352,2.37305,-144.734,328
1569941069,320.241,-100.459,-13.7294,178.352,2.37305,-144.734,328
1569941069,320.241,-100.459,-13.7294,178.352,2.37305,-144.734,328
1569941069,320.241,-100.459,-13.7294,178.352,2.37305,-144.756,328
1569941069,320.241,-100.459,-13.7294,178.352,2.37305,-144.756,328
1569941069,320.241,-100.459,-13.7294,178.352,2.37305,-144.756,328
1569941069,320.241,-100.459,-13.7294,178.352,2.37305,-144.756,328
1569941069,320.241,-100.459,-13.7294,178.352,2.37305,-144.756,328
1569941069,320.241,-100.459,-13.7294,178.352,2.37305,-144.756,328
1569941069,320.241,-100.571,-13.7294,178.352,2.37305,-144.756,332
1569941069,320.241,-100.571,-13.7294,178.352,2.37305,-144.756,332
1569941069,320.241,-100.571,-13.7294,178.352,2.37305,-144.756,332
1569941069,320.241,-100.571,-13.7294,178.352,2.37305,-144.756,332
1569941069,320.241,-100.571,-13.7294,178.352,2.37305,-144.756,332
1569941069,320.241,-100.459,-13.7294,178.352,2.37305,-144.756,336
1569941069,320.241,-100.459,-13.7294,178.352,2.37305,-144.756,336
1569941069,320.241,-100.459,-13.7294,178.352,2.37305,-144.756,336
1569941069,320.241,-100.459,-13.7294,178.352,2.39502,-144.756,336
1569941069,320.241,-100.459,-13.7294,178.352,2.39502,-144.756,336
1569941069,320.241,-100.459,-13.6178,178.352,2.39502,-144.756,340
1569941069,320.241,-100.459,-13.6178,178.352,2.39502,-144.756,340
1569941069,320.241,-100.459,-13.6178,178.352,2.39502,-144.756,340
1569941069,320.241,-100.459,-13.7294,178.352,2.39502,-144.756,340
1569941069,320.241,-100.459,-13.7294,178.352,2.39502,-144.756,340
1569941069,320.241,-100.459,-13.7294,178.352,2.39502,-144.756,340
1569941069,320.241,-100.459,-13.7294,178.352,2.39502,-144.756,340
1569941069,320.241,-100.459,-13.7294,178.374,2.39502,-144.756,344
1569941069,320.241,-100.459,-13.7294,178.374,2.39502,-144.756,344
1569941069,320.241,-100.459,-13.7294,178.374,2.39502,-144.756,344
1569941069,320.241,-100.459,-13.7294,178.374,2.39502,-144.756,344
1569941070,320.241,-100.459,-13.7294,178.374,2.39502,-144.756,344
1569941070,320.241,-100.459,-13.7294,178.374,2.39502,-144.756,344
1569941070,320.241,-100.459,-13.7294,178.374,2.39502,-144.756,344
1569941070,320.241,-100.459,-13.7294,178.374,2.39502,-144.756,344
1569941070,320.241,-100.459,-13.7294,178.374,2.39502,-144.756,344
1569941070,320.241,-100.459,-13.7294,178.374,2.39502,-144.756,344
1569941070,320.241,-100.459,-13.7294,178.374,2.39502,-144.756,344
1569941070,320.241,-100.459,-13.7294,178.374,2.37305,-144.756,344
1569941070,320.241,-100.459,-13.7294,178.374,2.37305,-144.756,344
1569941070,320.241,-100.459,-13.7294,178.374,2.37305,-144.756,344
1569941070,320.241,-100.459,-13.7294,178.374,2.37305,-144.756,344
1569941070,320.241,-100.459,-13.7294,178.374,2.37305,-144.756,344
1569941070,320.241,-100.459,-13.7294,178.374,2.37305,-144.756,344
1569941070,320.241,-100.459,-13.7294,178.374,2.37305,-144.756,344
1569941070,320.241,-100.459,-13.7294,178.374,2.37305,-144.756,344
1569941070,320.241,-100.459,-13.7294,178.374,2.37305,-144.756,344
1569941070,320.241,-100.459,-13.7294,178.374,2.37305,-144.756,344
1569941070,320.241,-100.459,-13.7294,178.374,2.37305,-144.756,344
1569941070,320.241,-100.459,-13.7294,178.374,2.37305,-144.756,344
1569941070,320.241,-100.459,-13.7294,178.374,2.37305,-144.756,348
1569941070,320.241,-100.459,-13.7294,178.374,2.37305,-144.756,348
1569941070,320.241,-100.459,-13.7294,178.374,2.37305,-144.756,348
1569941070,320.241,-100.459,-13.7294,178.374,2.37305,-144.756,348
1569941070,320.241,-100.459,-13.7294,178.374,2.37305,-144.756,348
1569941070,320.241,-100.459,-13.7294,178.374,2.37305,-144.756,348
1569941070,320.241,-100.459,-13.7294,178.374,2.37305,-144.756,348
1569941070,320.241,-100.459,-13.7294,178.374,2.37305,-144.756,348
1569941070,320.241,-100.459,-13.7294,178.374,2.39502,-144.756,344
1569941070,320.241,-100.459,-13.7294,178.374,2.39502,-144.756,344
1569941070,320.241,-100.459,-13.7294,178.374,2.39502,-144.756,344
1569941070,320.241,-100.459,-13.7294,178.374,2.39502,-144.756,344
1569941070,320.241,-100.459,-13.7294,178.374,2.39502,-144.756,344
1569941070,320.241,-100.459,-13.7294,178.374,2.39502,-144.756,344
1569941070,320.241,-100.459,-13.7294,178.374,2.39502,-144.756,344
1569941070,320.241,-100.459,-13.7294,178.374,2.39502,-144.756,340
1569941070,320.241,-100.459,-13.7294,178.374,2.39502,-144.756,340
1569941070,320.241,-100.347,-13.7294,178.374,2.39502,-144.756,340
1569941070,320.241,-100.347,-13.7294,178.374,2.39502,-144.756,340
1569941070,320.241,-100.347,-13.7294,178.374,2.39502,-144.756,340
1569941070,320.241,-100.347,-13.7294,178.374,2.39502,-144.756,340
1569941070,320.241,-100.459,-13.7294,178.374,2.39502,-144.756,340
1569941070,320.241,-100.459,-13.7294,178.374,2.39502,-144.756,340
1569941070,320.241,-100.459,-13.7294,178.374,2.39502,-144.756,340
1569941070,320.241,-100.459,-13.7294,178.374,2.39502,-144.756,340
1569941070,320.241,-100.459,-13.7294,178.374,2.39502,-144.756,340
1569941070,320.241,-100.459,-13.7294,178.374,2.39502,-144.756,340
1569941070,320.241,-100.459,-13.7294,178.374,2.39502,-144.756,340
1569941070,320.241,-100.459,-13.7294,178.374,2.39502,-144.756,340
1569941070,320.241,-100.459,-13.7294,178.374,2.39502,-144.756,340
1569941070,320.241,-100.459,-13.7294,178.374,2.39502,-144.756,340
1569941070,320.241,-100.459,-13.7294,178.374,2.37305,-144.756,340
1569941070,320.241,-100.459,-13.7294,178.374,2.37305,-144.756,344
1569941070,320.241,-100.459,-13.7294,178.374,2.37305,-144.756,344
1569941070,320.241,-100.459,-13.7294,178.374,2.37305,-144.756,344
1569941070,320.241,-100.459,-13.7294,178.374,2.37305,-144.756,344
1569941070,320.241,-100.459,-13.7294,178.374,2.37305,-144.756,344
1569941070,320.241,-100.459,-13.7294,178.374,2.37305,-144.756,344
1569941070,320.241,-100.459,-13.7294,178.374,2.37305,-144.756,344
1569941070,320.241,-100.459,-13.7294,178.374,2.37305,-144.756,344
1569941070,320.241,-100.459,-13.7294,178.374,2.37305,-144.756,344
1569941070,320.241,-100.459,-13.7294,178.374,2.37305,-144.756,340
1569941070,320.241,-100.459,-13.7294,178.374,2.37305,-144.756,340
1569941070,320.241,-100.459,-13.7294,178.374,2.37305,-144.756,340
1569941070,320.241,-100.459,-13.7294,178.374,2.37305,-144.756,340
1569941070,320.241,-100.459,-13.7294,178.374,2.37305,-144.756,340
1569941070,320.241,-100.459,-13.7294,178.374,2.37305,-144.756,340
1569941070,320.241,-100.459,-13.7294,178.374,2.37305,-144.756,336
1569941070,320.241,-100.459,-13.7294,178.374,2.37305,-144.756,336
1569941070,320.241,-100.459,-13.7294,178.374,2.37305,-144.756,336
1569941070,320.241,-100.459,-13.7294,178.374,2.37305,-144.756,336
1569941070,320.241,-100.459,-13.7294,178.374,2.37305,-144.756,336
1569941070,320.241,-100.459,-13.7294,178.374,2.37305,-144.756,336
1569941070,320.241,-100.459,-13.7294,178.374,2.37305,-144.756,336
1569941070,320.241,-100.459,-13.7294,178.374,2.37305,-144.756,336
1569941070,320.241,-100.459,-13.7294,178.374,2.37305,-144.756,336
1569941070,320.241,-100.459,-13.7294,178.374,2.37305,-144.756,336
1569941070,320.241,-100.459,-13.7294,178.374,2.37305,-144.756,336
1569941070,320.241,-100.459,-13.7294,178.374,2.37305,-144.756,336
1569941070,320.241,-100.459,-13.7294,178.374,2.37305,-144.756,336
1569941070,320.241,-100.459,-13.7294,178.374,2.37305,-144.756,336
1569941070,320.241,-100.459,-13.7294,178.374,2.37305,-144.756,336
1569941070,320.241,-100.459,-13.7294,178.374,2.37305,-144.756,340
1569941070,320.241,-100.459,-13.7294,178.374,2.39502,-144.756,340
1569941070,320.241,-100.459,-13.6178,178.374,2.39502,-144.756,340
1569941070,320.241,-100.459,-13.6178,178.374,2.39502,-144.756,344
1569941070,320.241,-100.459,-13.6178,178.374,2.39502,-144.756,344
1569941070,320.241,-100.459,-13.6178,178.374,2.39502,-144.756,344
1569941070,320.241,-100.459,-13.7294,178.374,2.39502,-144.756,344
1569941070,320.241,-100.459,-13.7294,178.374,2.39502,-144.756,348
1569941070,320.241,-100.459,-13.7294,178.374,2.39502,-144.756,348
1569941070,320.241,-100.459,-13.7294,178.374,2.39502,-144.756,348
1569941070,320.241,-100.459,-13.7294,178.374,2.37305,-144.756,352
1569941070,320.241,-100.459,-13.7294,178.374,2.37305,-144.756,352
1569941070,320.241,-100.459,-13.7294,178.374,2.37305,-144.756,352
1569941070,320.241,-100.459,-13.7294,178.374,2.37305,-144.756,352
1569941070,320.241,-100.459,-13.7294,178.374,2.37305,-144.756,352
1569941070,320.241,-100.459,-13.7294,178.374,2.37305,-144.756,352
1569941070,320.241,-100.459,-13.7294,178.374,2.37305,-144.756,352
1569941070,320.241,-100.459,-13.7294,178.352,2.37305,-144.756,352
1569941070,320.241,-100.459,-13.7294,178.352,2.37305,-144.756,352
1569941071,320.241,-100.459,-13.7294,178.374,2.37305,-144.756,352
1569941071,320.241,-100.459,-13.7294,178.374,2.37305,-144.756,352
1569941071,320.241,-100.459,-13.7294,178.374,2.37305,-144.756,352
1569941071,320.241,-100.459,-13.7294,178.374,2.39502,-144.756,348
1569941071,320.241,-100.459,-13.7294,178.374,2.39502,-144.756,348
1569941071,320.241,-100.459,-13.7294,178.374,2.39502,-144.756,348
1569941071,320.241,-100.459,-13.7294,178.374,2.39502,-144.756,348
1569941071,320.241,-100.459,-13.7294,178.374,2.39502,-144.756,348
1569941071,320.241,-100.459,-13.7294,178.374,2.39502,-144.756,348
1569941071,320.241,-100.459,-13.6178,178.374,2.39502,-144.756,348
1569941071,320.241,-100.459,-13.6178,178.374,2.39502,-144.756,348
1569941071,320.241,-100.459,-13.6178,178.374,2.39502,-144.756,344
1569941071,320.241,-100.459,-13.6178,178.374,2.39502,-144.756,344
1569941071,320.241,-100.459,-13.6178,178.374,2.39502,-144.756,344
1569941071,320.241,-100.459,-13.6178,178.374,2.39502,-144.756,344
1569941071,320.241,-100.459,-13.6178,178.374,2.39502,-144.756,344
1569941071,320.241,-100.459,-13.6178,178.374,2.39502,-144.756,344
1569941071,320.241,-100.459,-13.6178,178.374,2.41699,-144.756,344
1569941071,320.241,-100.459,-13.6178,178.374,2.41699,-144.756,344
1569941071,320.241,-100.459,-13.6178,178.374,2.41699,-144.756,344
1569941071,320.241,-100.459,-13.6178,178.374,2.41699,-144.756,344
1569941071,320.241,-100.459,-13.6178,178.374,2.41699,-144.756,344
1569941071,320.241,-100.459,-13.6178,178.374,2.41699,-144.756,344
1569941071,320.241,-100.459,-13.6178,178.374,2.41699,-144.756,344
1569941071,320.241,-100.459,-13.6178,178.374,2.41699,-144.756,344
1569941071,320.241,-100.459,-13.6178,178.374,2.41699,-144.756,344
1569941071,320.241,-100.459,-13.6178,178.374,2.41699,-144.756,344
1569941071,320.241,-100.459,-13.6178,178.374,2.41699,-144.756,344
1569941071,320.241,-100.459,-13.6178,178.374,2.41699,-144.756,344
1569941071,320.241,-100.459,-13.6178,178.374,2.41699,-144.756,344
1569941071,320.241,-100.459,-13.6178,178.374,2.41699,-144.756,344
1569941071,320.241,-100.459,-13.6178,178.374,2.41699,-144.756,344
1569941071,320.241,-100.459,-13.6178,178.374,2.41699,-144.756,344
1569941071,320.241,-100.459,-13.6178,178.374,2.41699,-144.756,340
1569941071,320.241,-100.459,-13.6178,178.374,2.41699,-144.756,340
1569941071,320.241,-100.459,-13.6178,178.374,2.41699,-144.756,340
1569941071,320.241,-100.459,-13.6178,178.374,2.41699,-144.756,340
1569941071,320.241,-100.459,-13.6178,178.374,2.41699,-144.756,340
1569941071,320.241,-100.459,-13.6178,178.374,2.41699,-144.756,340
1569941071,320.241,-100.459,-13.6178,178.374,2.41699,-144.756,340
1569941071,320.241,-100.459,-13.6178,178.374,2.41699,-144.756,340
1569941071,320.241,-100.459,-13.6178,178.374,2.41699,-144.756,340
1569941071,320.241,-100.459,-13.6178,178.374,2.41699,-144.756,340
1569941071,320.241,-100.459,-13.6178,178.374,2.41699,-144.756,340
1569941071,320.241,-100.459,-13.6178,178.374,2.41699,-144.756,340
1569941071,320.241,-100.459,-13.6178,178.374,2.41699,-144.756,340
1569941071,320.241,-100.459,-13.6178,178.374,2.41699,-144.756,340
1569941071,320.241,-100.459,-13.6178,178.374,2.41699,-144.756,340
1569941071,320.241,-100.459,-13.6178,178.352,2.41699,-144.756,340
1569941071,320.241,-100.459,-13.6178,178.352,2.41699,-144.756,340
1569941071,320.241,-100.459,-13.6178,178.352,2.39502,-144.756,340
1569941071,320.241,-100.459,-13.6178,178.352,2.39502,-144.756,340
1569941071,320.241,-100.459,-13.6178,178.352,2.39502,-144.756,340
1569941071,320.241,-100.459,-13.7294,178.352,2.39502,-144.756,340
1569941071,320.241,-100.459,-13.7294,178.352,2.39502,-144.756,340
1569941071,320.241,-100.459,-13.7294,178.352,2.39502,-144.756,340
1569941071,320.241,-100.459,-13.7294,178.352,2.37305,-144.756,340
1569941071,320.241,-100.459,-13.7294,178.352,2.37305,-144.756,340
1569941071,320.241,-100.459,-13.7294,178.352,2.37305,-144.756,340
1569941071,320.241,-100.459,-13.7294,178.352,2.37305,-144.756,340
1569941071,320.241,-100.459,-13.7294,178.352,2.37305,-144.756,340
1569941071,320.241,-100.459,-13.7294,178.352,2.37305,-144.756,340
1569941071,320.241,-100.459,-13.7294,178.352,2.37305,-144.756,340
1569941071,320.241,-100.459,-13.7294,178.352,2.35107,-144.756,340
1569941071,320.241,-100.459,-13.7294,178.352,2.35107,-144.756,340
1569941071,320.241,-100.459,-13.7294,178.352,2.35107,-144.756,340
1569941071,320.241,-100.459,-13.7294,178.352,2.35107,-144.756,340
1569941071,320.241,-100.459,-13.7294,178.352,2.35107,-144.756,340
1569941071,320.241,-100.459,-13.7294,178.352,2.35107,-144.756,336
1569941071,320.241,-100.459,-13.841,178.352,2.35107,-144.756,336
1569941071,320.241,-100.459,-13.841,178.352,2.35107,-144.756,336
1569941071,320.241,-100.459,-13.841,178.352,2.35107,-144.756,336
1569941071,320.241,-100.459,-13.841,178.352,2.35107,-144.756,336
1569941071,320.241,-100.459,-13.841,178.352,2.35107,-144.756,336
1569941071,320.241,-100.459,-13.841,178.352,2.35107,-144.756,336
1569941071,320.241,-100.459,-13.841,178.352,2.35107,-144.756,336
1569941071,320.241,-100.459,-13.7294,178.352,2.35107,-144.756,340
1569941071,320.241,-100.459,-13.7294,178.352,2.35107,-144.756,340
1569941071,320.241,-100.459,-13.7294,178.374,2.35107,-144.756,340
1569941071,320.241,-100.459,-13.7294,178.374,2.35107,-144.756,340
1569941071,320.241,-100.459,-13.7294,178.374,2.35107,-144.756,340
1569941071,320.241,-100.459,-13.7294,178.374,2.35107,-144.756,340
1569941071,320.241,-100.459,-13.7294,178.374,2.35107,-144.756,340
1569941071,320.241,-100.459,-13.7294,178.374,2.35107,-144.756,340
1569941071,320.241,-100.459,-13.7294,178.374,2.35107,-144.756,340
1569941071,320.241,-100.459,-13.7294,178.374,2.35107,-144.756,340
1569941071,320.241,-100.459,-13.7294,178.374,2.35107,-144.756,340
1569941071,320.241,-100.459,-13.7294,178.374,2.35107,-144.756,340
1569941071,320.241,-100.459,-13.7294,178.374,2.37305,-144.756,340
1569941071,320.241,-100.459,-13.7294,178.374,2.37305,-144.756,340
1569941071,320.241,-100.459,-13.7294,178.374,2.37305,-144.756,344
1569941071,320.241,-100.459,-13.7294,178.374,2.37305,-144.756,344
1569941071,320.241,-100.459,-13.7294,178.352,2.37305,-144.756,344
1569941071,320.241,-100.459,-13.7294,178.352,2.37305,-144.756,344
1569941071,320.241,-100.459,-13.7294,178.352,2.37305,-144.756,344
1569941071,320.241,-100.459,-13.7294,178.352,2.37305,-144.756,344
1569941071,320.241,-100.459,-13.7294,178.352,2.37305,-144.756,344
1569941071,320.241,-100.459,-13.7294,178.352,2.37305,-144.756,344
1569941071,320.241,-100.459,-13.7294,178.352,2.37305,-144.756,344
1569941071,320.241,-100.459,-13.7294,178.352,2.37305,-144.756,344
1569941072,320.241,-100.459,-13.7294,178.352,2.39502,-144.734,344
1569941072,320.241,-100.459,-13.7294,178.352,2.39502,-144.734,344
1569941072,320.241,-100.459,-13.7294,178.374,2.39502,-144.734,344
1569941072,320.241,-100.459,-13.7294,178.374,2.39502,-144.734,344
1569941072,320.241,-100.459,-13.7294,178.374,2.39502,-144.734,344
1569941072,320.241,-100.459,-13.7294,178.374,2.39502,-144.756,344
1569941072,320.241,-100.459,-13.7294,178.374,2.39502,-144.756,344
1569941072,320.241,-100.459,-13.7294,178.374,2.39502,-144.756,344
1569941072,320.129,-100.459,-13.7294,178.374,2.39502,-144.756,344
1569941072,320.129,-100.459,-13.7294,178.374,2.37305,-144.756,344
1569941072,320.129,-100.459,-13.7294,178.374,2.37305,-144.756,344
1569941072,320.129,-100.459,-13.7294,178.374,2.37305,-144.756,344
1569941072,320.129,-100.459,-13.7294,178.374,2.37305,-144.756,344
1569941072,320.129,-100.459,-13.7294,178.374,2.37305,-144.756,348
1569941072,320.241,-100.459,-13.7294,178.374,2.37305,-144.756,348
1569941072,320.241,-100.459,-13.7294,178.374,2.37305,-144.756,348
1569941072,320.241,-100.459,-13.7294,178.374,2.37305,-144.756,348
1569941072,320.241,-100.459,-13.7294,178.374,2.37305,-144.756,348
1569941072,320.241,-100.459,-13.7294,178.374,2.37305,-144.756,348
1569941072,320.241,-100.459,-13.7294,178.374,2.39502,-144.756,348
1569941072,320.241,-100.459,-13.7294,178.374,2.39502,-144.756,348
1569941072,320.241,-100.459,-13.7294,178.374,2.39502,-144.756,348
1569941072,320.241,-100.459,-13.7294,178.374,2.39502,-144.756,348
1569941072,320.241,-100.459,-13.7294,178.374,2.39502,-144.756,348
1569941072,320.241,-100.459,-13.7294,178.374,2.37305,-144.756,344
1569941072,320.241,-100.459,-13.7294,178.374,2.37305,-144.756,344
1569941072,320.241,-100.459,-13.7294,178.374,2.37305,-144.756,344
1569941072,320.241,-100.459,-13.7294,178.374,2.37305,-144.756,344
1569941072,320.241,-100.459,-13.7294,178.374,2.37305,-144.756,344
1569941072,320.241,-100.459,-13.7294,178.374,2.37305,-144.756,344
1569941072,320.241,-100.459,-13.7294,178.374,2.37305,-144.756,344
