time,x,y,z,ax,ay,az,q
1570004181,303.386,100.459,-17.1896,178.945,1.42822,-145.129,304
1570004181,303.386,100.459,-17.1896,178.945,1.42822,-145.129,308
1570004181,303.386,100.459,-17.1896,178.945,1.42822,-145.129,308
1570004181,303.386,100.459,-17.1896,178.945,1.42822,-145.129,308
1570004181,303.386,100.459,-17.1896,178.945,1.42822,-145.129,308
1570004181,303.386,100.459,-17.1896,178.945,1.42822,-145.129,308
1570004181,303.386,100.459,-17.1896,178.945,1.42822,-145.129,308
1570004181,303.386,100.459,-17.3013,178.945,1.42822,-145.129,308
1570004181,303.386,100.459,-17.3013,178.945,1.42822,-145.129,308
1570004181,303.386,100.459,-17.3013,178.945,1.42822,-145.129,308
1570004181,303.386,100.459,-17.3013,178.945,1.42822,-145.129,308
1570004181,303.386,100.459,-17.3013,178.945,1.42822,-145.129,304
1570004181,303.386,100.459,-17.3013,178.945,1.42822,-145.129,304
1570004181,303.386,100.459,-17.3013,178.945,1.42822,-145.129,304
1570004181,303.386,100.459,-17.3013,178.945,1.42822,-145.107,304
1570004181,303.386,100.459,-17.3013,178.945,1.42822,-145.129,304
1570004181,303.386,100.459,-17.1896,178.945,1.42822,-145.129,304
1570004181,303.386,100.459,-17.1896,178.945,1.42822,-145.129,304
1570004181,303.386,100.459,-17.1896,178.945,1.42822,-145.129,304
1570004181,303.386,100.459,-17.1896,178.945,1.42822,-145.129,304
1570004181,303.386,100.571,-17.1896,178.945,1.42822,-145.129,304
1570004181,303.386,100.571,-17.1896,178.945,1.42822,-145.129,304
1570004181,303.386,100.571,-17.3013,178.945,1.42822,-145.129,304
1570004181,303.386,100.571,-17.3013,178.945,1.42822,-145.129,304
1570004181,303.386,100.571,-17.3013,178.945,1.42822,-145.129,304
1570004181,303.386,100.571,-17.3013,178.945,1.42822,-145.107,304
1570004181,303.386,100.571,-17.3013,178.945,1.42822,-145.107,304
1570004181,303.386,100.571,-17.3013,178.945,1.42822,-145.107,304
1570004181,303.386,100.571,-17.3013,178.945,1.42822,-145.107,304
1570004181,303.386,100.571,-17.3013,178.945,1.42822,-145.129,304
1570004181,303.386,100.571,-17.3013,178.945,1.42822,-145.129,304
1570004181,303.386,100.571,-17.3013,178.945,1.42822,-145.129,304
1570004181,303.386,100.571,-17.3013,178.945,1.42822,-145.129,304
1570004181,303.386,100.571,-17.3013,178.945,1.42822,-145.129,304
1570004181,303.386,100.571,-17.3013,178.967,1.42822,-145.129,304
1570004181,303.386,100.571,-17.3013,178.967,1.42822,-145.129,304
1570004181,303.386,100.571,-17.3013,178.967,1.42822,-145.129,304
1570004181,303.386,100.571,-17.3013,178.967,1.42822,-145.129,304
1570004181,303.386,100.571,-17.3013,178.967,1.42822,-145.129,304
1570004181,303.386,100.571,-17.3013,178.967,1.42822,-145.129,304
1570004181,303.386,100.571,-17.3013,178.967,1.42822,-145.129,308
1570004181,303.386,100.571,-17.3013,178.967,1.42822,-145.129,308
1570004181,303.386,100.571,-17.3013,178.967,1.42822,-145.129,308
1570004181,303.386,100.571,-17.3013,178.967,1.42822,-145.129,308
1570004181,303.386,100.571,-17.3013,178.967,1.42822,-145.129,308
1570004181,303.386,100.571,-17.3013,178.967,1.42822,-145.129,308
1570004181,303.386,100.571,-17.3013,178.967,1.42822,-145.129,308
1570004181,303.386,100.571,-17.3013,178.967,1.42822,-145.129,308
1570004181,303.386,100.571,-17.3013,178.967,1.42822,-145.129,308
1570004181,303.386,100.571,-17.3013,178.967,1.42822,-145.129,308
1570004181,303.386,100.571,-17.3013,178.967,1.42822,-145.129,308
1570004181,303.386,100.571,-17.3013,178.967,1.42822,-145.107,308
1570004181,303.386,100.571,-17.3013,178.967,1.42822,-145.107,308
1570004181,303.386,100.571,-17.3013,178.967,1.42822,-145.107,304
1570004181,303.386,100.571,-17.3013,178.967,1.42822,-145.107,304
1570004181,303.386,100.571,-17.3013,178.967,1.42822,-145.107,304
1570004181,303.386,100.571,-17.3013,178.967,1.42822,-145.107,304
1570004181,303.386,100.571,-17.3013,178.967,1.42822,-145.107,304
1570004181,303.386,100.571,-17.3013,178.967,1.40625,-145.107,304
1570004181,303.386,100.571,-17.3013,178.967,1.40625,-145.107,304
1570004181,303.386,100.571,-17.3013,178.967,1.40625,-145.107,304
1570004181,303.386,100.571,-17.3013,178.967,1.40625,-145.107,304
1570004181,303.386,100.571,-17.3013,178.967,1.40625,-145.107,304
1570004181,303.386,100.571,-17.3013,178.967,1.40625,-145.107,308
1570004182,303.386,100.571,-17.3013,178.967,1.40625,-145.107,308
1570004182,303.386,100.571,-17.3013,178.967,1.40625,-145.107,308
1570004182,303.386,100.571,-17.3013,178.967,1.42822,-145.107,308
1570004182,303.386,100.571,-17.3013,178.967,1.42822,-145.107,308
1570004182,303.386,100.571,-17.3013,178.967,1.42822,-145.129,308
1570004182,303.386,100.571,-17.3013,178.989,1.42822,-145.129,308
1570004182,303.386,100.571,-17.1896,178.989,1.42822,-145.129,308
1570004182,303.386,100.571,-17.1896,178.989,1.42822,-145.129,308
1570004182,303.386,100.571,-17.1896,178.989,1.42822,-145.129,308
1570004182,303.386,100.571,-17.1896,178.989,1.42822,-145.129,308
1570004182,303.386,100.571,-17.1896,178.989,1.42822,-145.129,308
1570004182,303.386,100.571,-17.1896,178.967,1.42822,-145.129,308
1570004182,303.386,100.571,-17.1896,178.967,1.42822,-145.129,308
1570004182,303.386,100.571,-17.1896,178.967,1.42822,-145.129,308
1570004182,303.386,100.571,-17.1896,178.967,1.42822,-145.129,308
1570004182,303.386,100.571,-17.1896,178.967,1.42822,-145.129,308
1570004182,303.386,100.571,-17.1896,178.967,1.42822,-145.129,308
1570004182,303.386,100.571,-17.1896,178.967,1.42822,-145.129,308
1570004182,303.386,100.571,-17.1896,178.967,1.42822,-145.129,308
1570004182,303.386,100.571,-17.1896,178.967,1.42822,-145.129,308
1570004182,303.386,100.571,-17.1896,178.967,1.42822,-145.129,308
1570004182,303.386,100.571,-17.1896,178.967,1.42822,-145.129,308
1570004182,303.386,100.571,-17.1896,178.967,1.42822,-145.129,308
1570004182,303.386,100.571,-17.3013,178.967,1.42822,-145.129,308
1570004182,303.386,100.571,-17.3013,178.967,1.42822,-145.129,308
1570004182,303.386,100.571,-17.3013,178.967,1.42822,-145.129,308
1570004182,303.386,100.571,-17.3013,178.967,1.42822,-145.129,308
1570004182,303.386,100.571,-17.3013,178.967,1.42822,-145.129,308
1570004182,303.386,100.571,-17.3013,178.967,1.42822,-145.129,308
1570004182,303.386,100.571,-17.3013,178.967,1.42822,-145.129,308
1570004182,303.386,100.571,-17.3013,178.967,1.42822,-145.129,308
1570004182,303.386,100.571,-17.3013,178.967,1.42822,-145.129,308
1570004182,303.386,100.571,-17.3013,178.967,1.42822,-145.129,308
1570004182,303.386,100.571,-17.3013,178.967,1.42822,-145.129,308
1570004182,303.386,100.571,-17.3013,178.967,1.42822,-145.129,308
1570004182,303.386,100.571,-17.3013,178.967,1.42822,-145.129,308
1570004182,303.386,100.571,-17.3013,178.967,1.42822,-145.129,308
1570004182,303.386,100.571,-17.3013,178.967,1.42822,-145.129,308
1570004182,303.386,100.571,-17.3013,178.967,1.40625,-145.129,308
1570004182,303.275,100.571,-17.3013,178.967,1.40625,-145.129,312
1570004182,303.275,100.571,-17.3013,178.967,1.40625,-145.129,312
1570004182,303.275,100.571,-17.3013,178.967,1.40625,-145.129,312
1570004182,303.275,100.571,-17.3013,178.967,1.40625,-145.129,312
1570004182,303.275,100.571,-17.3013,178.967,1.40625,-145.129,312
1570004182,303.275,100.571,-17.3013,178.967,1.40625,-145.129,312
1570004182,303.275,100.571,-17.3013,178.967,1.40625,-145.129,312
1570004182,303.275,100.571,-17.3013,178.967,1.40625,-145.129,312
1570004182,303.275,100.571,-17.3013,178.967,1.40625,-145.129,312
1570004182,303.275,100.571,-17.3013,178.967,1.40625,-145.129,312
1570004182,303.275,100.571,-17.3013,178.967,1.40625,-145.129,312
1570004182,303.275,100.571,-17.3013,178.967,1.40625,-145.129,312
1570004182,303.275,100.571,-17.3013,178.967,1.40625,-145.129,312
1570004182,303.275,100.571,-17.3013,178.967,1.40625,-145.129,312
1570004182,303.275,100.571,-17.3013,178.989,1.40625,-145.129,312
1570004182,303.275,100.571,-17.3013,178.989,1.40625,-145.129,312
1570004182,303.275,100.571,-17.3013,178.989,1.40625,-145.129,312
1570004182,303.275,100.571,-17.3013,178.989,1.40625,-145.129,312
1570004182,303.275,100.571,-17.3013,178.989,1.40625,-145.129,312
1570004182,303.275,100.571,-17.3013,178.967,1.40625,-145.129,312
1570004182,303.275,100.571,-17.3013,178.967,1.40625,-145.129,312
1570004182,303.386,100.571,-17.3013,178.967,1.40625,-145.129,312
1570004182,303.386,100.571,-17.3013,178.967,1.40625,-145.129,312
1570004182,303.386,100.571,-17.3013,178.967,1.40625,-145.129,312
1570004182,303.386,100.571,-17.3013,178.967,1.40625,-145.129,312
1570004182,303.386,100.571,-17.3013,178.967,1.40625,-145.129,312
1570004182,303.386,100.571,-17.3013,178.967,1.40625,-145.129,312
1570004182,303.386,100.571,-17.3013,178.967,1.40625,-145.129,312
1570004182,303.386,100.571,-17.3013,178.967,1.42822,-145.129,312
1570004182,303.386,100.571,-17.3013,178.967,1.42822,-145.129,312
1570004182,303.386,100.571,-17.3013,178.967,1.42822,-145.129,312
1570004182,303.386,100.571,-17.1896,178.967,1.42822,-145.129,312
1570004182,303.386,100.571,-17.1896,178.967,1.42822,-145.129,312
1570004182,303.386,100.571,-17.1896,178.967,1.42822,-145.129,312
1570004182,303.386,100.571,-17.1896,178.967,1.42822,-145.129,308
1570004182,303.386,100.571,-17.1896,178.967,1.42822,-145.129,308
1570004182,303.386,100.571,-17.1896,178.967,1.42822,-145.129,308
1570004182,303.386,100.571,-17.1896,178.967,1.42822,-145.129,308
1570004182,303.386,100.571,-17.1896,178.967,1.42822,-145.129,308
1570004182,303.386,100.571,-17.1896,178.945,1.42822,-145.129,308
1570004182,303.386,100.459,-17.1896,178.945,1.42822,-145.129,308
1570004182,303.386,100.459,-17.1896,178.945,1.42822,-145.129,308
1570004182,303.386,100.459,-17.3013,178.945,1.42822,-145.129,308
1570004182,303.386,100.459,-17.3013,178.945,1.42822,-145.129,308
1570004182,303.386,100.459,-17.3013,178.945,1.40625,-145.129,304
1570004182,303.386,100.459,-17.3013,178.945,1.40625,-145.129,304
1570004182,303.386,100.459,-17.3013,178.945,1.40625,-145.129,304
1570004182,303.386,100.571,-17.3013,178.967,1.40625,-145.129,304
1570004182,303.386,100.571,-17.3013,178.967,1.40625,-145.129,304
1570004182,303.386,100.571,-17.3013,178.967,1.40625,-145.129,304
1570004182,303.386,100.571,-17.3013,178.967,1.40625,-145.129,304
1570004182,303.386,100.571,-17.3013,178.967,1.40625,-145.129,304
1570004182,303.386,100.571,-17.3013,178.967,1.40625,-145.129,304
1570004182,303.386,100.571,-17.3013,178.967,1.40625,-145.129,304
1570004182,303.386,100.571,-17.3013,178.967,1.40625,-145.129,304
1570004182,303.386,100.571,-17.3013,178.967,1.40625,-145.129,304
1570004182,303.386,100.571,-17.3013,178.967,1.40625,-145.129,304
1570004182,303.386,100.571,-17.3013,178.967,1.40625,-145.129,304
1570004182,303.386,100.459,-17.3013,178.967,1.40625,-145.129,304
1570004182,303.386,100.459,-17.3013,178.967,1.40625,-145.129,304
1570004182,303.386,100.459,-17.3013,178.967,1.40625,-145.129,304
1570004183,303.386,100.459,-17.3013,178.945,1.40625,-145.129,308
1570004183,303.386,100.459,-17.3013,178.945,1.40625,-145.129,308
1570004183,303.386,100.459,-17.3013,178.945,1.40625,-145.129,308
1570004183,303.386,100.459,-17.3013,178.945,1.40625,-145.129,308
1570004183,303.386,100.459,-17.3013,178.945,1.40625,-145.129,308
1570004183,303.386,100.459,-17.3013,178.945,1.40625,-145.129,308
1570004183,303.386,100.459,-17.3013,178.945,1.40625,-145.129,308
1570004183,303.386,100.459,-17.3013,178.945,1.40625,-145.129,308
1570004183,303.386,100.459,-17.3013,178.945,1.40625,-145.129,308
1570004183,303.386,100.459,-17.3013,178.945,1.40625,-145.129,308
1570004183,303.386,100.459,-17.3013,178.967,1.40625,-145.129,312
1570004183,303.386,100.459,-17.3013,178.967,1.40625,-145.129,312
1570004183,303.386,100.459,-17.3013,178.967,1.40625,-145.129,312
1570004183,303.386,100.459,-17.3013,178.967,1.40625,-145.129,312
1570004183,303.386,100.459,-17.3013,178.967,1.40625,-145.129,312
1570004183,303.386,100.459,-17.3013,178.967,1.40625,-145.129,312
1570004183,303.386,100.459,-17.3013,178.967,1.40625,-145.129,312
1570004183,303.386,100.459,-17.3013,178.967,1.40625,-145.129,316
1570004183,303.386,100.459,-17.3013,178.945,1.40625,-145.129,316
1570004183,303.386,100.459,-17.3013,178.945,1.40625,-145.129,316
1570004183,303.386,100.459,-17.3013,178.967,1.40625,-145.129,316
1570004183,303.386,100.459,-17.3013,178.967,1.40625,-145.129,316
1570004183,303.386,100.459,-17.3013,178.967,1.40625,-145.129,316
1570004183,303.386,100.459,-17.3013,178.967,1.40625,-145.107,316
1570004183,303.386,100.459,-17.3013,178.967,1.40625,-145.107,316
1570004183,303.386,100.459,-17.3013,178.967,1.40625,-145.107,320
1570004183,303.386,100.571,-17.3013,178.967,1.40625,-145.107,320
1570004183,303.386,100.571,-17.3013,178.967,1.40625,-145.107,320
1570004183,303.386,100.571,-17.3013,178.967,1.40625,-145.107,320
1570004183,303.386,100.571,-17.3013,178.967,1.40625,-145.107,320
1570004183,303.386,100.571,-17.3013,178.967,1.40625,-145.107,320
1570004183,303.386,100.571,-17.3013,178.967,1.40625,-145.107,320
1570004183,303.386,100.571,-17.3013,178.967,1.40625,-145.129,316
1570004183,303.386,100.571,-17.3013,178.967,1.40625,-145.129,316
1570004183,303.386,100.571,-17.3013,178.967,1.40625,-145.129,316
1570004183,303.386,100.571,-17.3013,178.967,1.40625,-145.129,316
1570004183,303.386,100.571,-17.3013,178.967,1.40625,-145.129,316
1570004183,303.386,100.571,-17.3013,178.967,1.40625,-145.129,316
1570004183,303.386,100.571,-17.3013,178.967,1.40625,-145.129,316
1570004183,303.386,100.571,-17.3013,178.967,1.40625,-145.129,316
1570004183,303.386,100.571,-17.3013,178.967,1.42822,-145.129,316
1570004183,303.386,100.571,-17.3013,178.967,1.42822,-145.129,316
1570004183,303.386,100.571,-17.1896,178.967,1.42822,-145.129,312
1570004183,303.386,100.571,-17.1896,178.967,1.42822,-145.129,312
1570004183,303.386,100.571,-17.1896,178.967,1.42822,-145.129,312
1570004183,303.386,100.571,-17.1896,178.967,1.42822,-145.129,312
1570004183,303.386,100.571,-17.1896,178.967,1.42822,-145.129,312
1570004183,303.386,100.571,-17.1896,178.967,1.42822,-145.129,312
1570004183,303.386,100.571,-17.1896,178.967,1.42822,-145.129,312
1570004183,303.386,100.571,-17.1896,178.967,1.42822,-145.129,312
1570004183,303.386,100.571,-17.3013,178.967,1.42822,-145.129,312
1570004183,303.386,100.571,-17.3013,178.967,1.42822,-145.129,312
1570004183,303.386,100.571,-17.3013,178.967,1.42822,-145.129,312
1570004183,303.386,100.571,-17.3013,178.967,1.42822,-145.129,312
1570004183,303.386,100.571,-17.3013,178.967,1.42822,-145.129,312
1570004183,303.386,100.571,-17.3013,178.967,1.42822,-145.129,308
1570004183,303.386,100.571,-17.1896,178.945,1.42822,-145.129,308
1570004183,303.386,100.571,-17.1896,178.945,1.42822,-145.129,308
1570004183,303.386,100.571,-17.1896,178.945,1.42822,-145.129,308
1570004183,303.386,100.459,-17.1896,178.945,1.42822,-145.129,308
1570004183,303.386,100.459,-17.1896,178.945,1.42822,-145.129,308
1570004183,303.386,100.459,-17.1896,178.945,1.42822,-145.129,308
1570004183,303.386,100.459,-17.1896,178.945,1.42822,-145.129,308
1570004183,303.386,100.459,-17.1896,178.945,1.42822,-145.129,308
1570004183,303.386,100.459,-17.3013,178.945,1.42822,-145.129,308
1570004183,303.386,100.459,-17.3013,178.945,1.40625,-145.129,308
1570004183,303.386,100.459,-17.3013,178.945,1.40625,-145.129,308
1570004183,303.386,100.459,-17.3013,178.945,1.40625,-145.129,308
1570004183,303.386,100.459,-17.3013,178.945,1.40625,-145.129,308
1570004183,303.386,100.459,-17.3013,178.945,1.40625,-145.129,308
1570004183,303.386,100.459,-17.3013,178.945,1.40625,-145.129,308
1570004183,303.386,100.571,-17.3013,178.945,1.40625,-145.129,308
1570004183,303.386,100.571,-17.3013,178.967,1.40625,-145.129,312
1570004183,303.386,100.571,-17.3013,178.967,1.40625,-145.129,312
1570004183,303.275,100.571,-17.3013,178.967,1.40625,-145.129,312
1570004183,303.275,100.571,-17.3013,178.967,1.42822,-145.129,312
1570004183,303.275,100.571,-17.3013,178.967,1.42822,-145.129,312
1570004183,303.275,100.571,-17.3013,178.967,1.42822,-145.129,312
1570004183,303.275,100.571,-17.3013,178.967,1.42822,-145.129,312
1570004183,303.275,100.571,-17.3013,178.967,1.42822,-145.129,312
1570004183,303.275,100.571,-17.1896,178.967,1.42822,-145.129,312
1570004183,303.275,100.571,-17.1896,178.967,1.42822,-145.129,316
1570004183,303.275,100.571,-17.1896,178.967,1.42822,-145.129,316
1570004183,303.275,100.459,-17.1896,178.967,1.42822,-145.129,316
1570004183,303.275,100.459,-17.1896,178.967,1.42822,-145.129,316
1570004183,303.275,100.459,-17.1896,178.967,1.42822,-145.129,316
1570004183,303.275,100.459,-17.3013,178.967,1.42822,-145.129,316
1570004183,303.275,100.459,-17.3013,178.967,1.42822,-145.129,316
1570004183,303.275,100.459,-17.3013,178.967,1.42822,-145.129,316
1570004183,303.275,100.459,-17.3013,178.967,1.42822,-145.129,316
1570004183,303.275,100.459,-17.3013,178.967,1.40625,-145.129,316
1570004183,303.275,100.459,-17.3013,178.945,1.40625,-145.129,316
1570004183,303.275,100.459,-17.3013,178.945,1.40625,-145.129,316
1570004183,303.275,100.459,-17.3013,178.945,1.40625,-145.129,316
1570004183,303.275,100.459,-17.3013,178.945,1.40625,-145.129,316
1570004183,303.275,100.459,-17.3013,178.945,1.40625,-145.129,316
1570004183,303.275,100.459,-17.3013,178.945,1.40625,-145.129,316
1570004183,303.275,100.459,-17.3013,178.945,1.40625,-145.129,316
1570004183,303.386,100.459,-17.3013,178.945,1.40625,-145.129,316
1570004183,303.386,100.459,-17.3013,178.945,1.40625,-145.129,316
1570004184,303.386,100.459,-17.3013,178.945,1.40625,-145.129,316
1570004184,303.386,100.459,-17.3013,178.967,1.40625,-145.129,320
1570004184,303.386,100.459,-17.3013,178.967,1.40625,-145.129,320
1570004184,303.386,100.459,-17.3013,178.967,1.40625,-145.129,320
1570004184,303.386,100.459,-17.3013,178.967,1.40625,-145.129,320
1570004184,303.386,100.459,-17.3013,178.967,1.40625,-145.129,320
1570004184,303.386,100.459,-17.3013,178.967,1.40625,-145.129,320
1570004184,303.386,100.459,-17.1896,178.967,1.40625,-145.129,320
1570004184,303.275,100.459,-17.1896,178.967,1.40625,-145.129,320
1570004184,303.275,100.571,-17.1896,178.967,1.40625,-145.129,320
1570004184,303.275,100.571,-17.1896,178.967,1.42822,-145.129,320
1570004184,303.275,100.571,-17.1896,178.967,1.42822,-145.129,320
1570004184,303.275,100.571,-17.1896,178.967,1.42822,-145.129,316
1570004184,303.275,100.571,-17.1896,178.967,1.42822,-145.129,316
1570004184,303.275,100.571,-17.1896,178.967,1.42822,-145.129,316
1570004184,303.275,100.571,-17.1896,178.967,1.42822,-145.129,316
1570004184,303.275,100.571,-17.1896,178.967,1.42822,-145.129,316
1570004184,303.275,100.571,-17.1896,178.967,1.42822,-145.129,316
1570004184,303.275,100.571,-17.1896,178.967,1.42822,-145.129,320
1570004184,303.275,100.571,-17.1896,178.967,1.42822,-145.129,320
1570004184,303.275,100.571,-17.1896,178.967,1.42822,-145.129,320
1570004184,303.275,100.571,-17.1896,178.967,1.42822,-145.129,320
1570004184,303.275,100.571,-17.1896,178.967,1.42822,-145.129,320
1570004184,303.275,100.571,-17.1896,178.967,1.42822,-145.129,320
1570004184,303.275,100.571,-17.1896,178.967,1.42822,-145.129,320
1570004184,303.275,100.571,-17.1896,178.967,1.42822,-145.129,320
1570004184,303.275,100.571,-17.1896,178.967,1.42822,-145.129,320
1570004184,303.275,100.571,-17.1896,178.967,1.4502,-145.129,320
1570004184,303.275,100.571,-17.1896,178.967,1.4502,-145.129,320
1570004184,303.275,100.571,-17.1896,178.967,1.4502,-145.129,320
1570004184,303.275,100.571,-17.1896,178.967,1.4502,-145.129,320
1570004184,303.275,100.571,-17.1896,178.967,1.4502,-145.129,320
1570004184,303.275,100.571,-17.1896,178.967,1.4502,-145.129,320
1570004184,303.275,100.571,-17.1896,178.967,1.4502,-145.129,320
1570004184,303.275,100.571,-17.1896,178.967,1.4502,-145.129,316
1570004184,303.275,100.571,-17.1896,178.967,1.4502,-145.129,316
1570004184,303.275,100.571,-17.1896,178.967,1.4502,-145.129,316
1570004184,303.275,100.571,-17.1896,178.967,1.4502,-145.129,316
1570004184,303.386,100.571,-17.1896,178.967,1.4502,-145.129,316
1570004184,303.386,100.571,-17.1896,178.967,1.4502,-145.129,316
1570004184,303.386,100.571,-17.1896,178.967,1.4502,-145.129,316
1570004184,303.386,100.571,-17.1896,178.967,1.4502,-145.129,316
1570004184,303.386,100.571,-17.1896,178.967,1.4502,-145.129,312
1570004184,303.386,100.571,-17.1896,178.967,1.4502,-145.129,312
1570004184,303.386,100.571,-17.1896,178.967,1.42822,-145.129,312
1570004184,303.386,100.571,-17.1896,178.967,1.42822,-145.129,312
1570004184,303.386,100.571,-17.1896,178.967,1.42822,-145.129,312
1570004184,303.386,100.571,-17.1896,178.967,1.42822,-145.129,308
1570004184,303.386,100.571,-17.1896,178.967,1.42822,-145.129,308
1570004184,303.386,100.571,-17.1896,178.967,1.42822,-145.129,308
1570004184,303.386,100.571,-17.1896,178.967,1.42822,-145.129,308
1570004184,303.386,100.571,-17.1896,178.967,1.42822,-145.129,308
1570004184,303.386,100.571,-17.1896,178.967,1.42822,-145.129,308
1570004184,303.386,100.571,-17.1896,178.967,1.42822,-145.129,308
1570004184,303.386,100.571,-17.1896,178.967,1.42822,-145.129,308
1570004184,303.386,100.571,-17.1896,178.967,1.42822,-145.129,308
1570004184,303.386,100.571,-17.1896,178.967,1.42822,-145.129,308
1570004184,303.386,100.571,-17.1896,178.967,1.42822,-145.129,308
1570004184,303.386,100.571,-17.1896,178.967,1.42822,-145.129,308
1570004184,303.386,100.571,-17.1896,178.967,1.42822,-145.129,308
1570004184,303.386,100.571,-17.1896,178.967,1.42822,-145.129,308
1570004184,303.386,100.571,-17.1896,178.967,1.42822,-145.129,308
1570004184,303.386,100.571,-17.1896,178.967,1.42822,-145.129,308
1570004184,303.386,100.571,-17.1896,178.967,1.42822,-145.129,308
1570004184,303.386,100.571,-17.1896,178.967,1.42822,-145.129,308
1570004184,303.386,100.571,-17.1896,178.967,1.42822,-145.129,308
1570004184,303.386,100.571,-17.1896,178.967,1.42822,-145.129,308
1570004184,303.386,100.571,-17.1896,178.967,1.42822,-145.129,308
1570004184,303.386,100.571,-17.1896,178.967,1.42822,-145.129,308
1570004184,303.386,100.571,-17.1896,178.967,1.42822,-145.129,308
1570004184,303.386,100.571,-17.1896,178.967,1.42822,-145.129,308
1570004184,303.386,100.571,-17.1896,178.967,1.42822,-145.129,308
1570004184,303.386,100.571,-17.1896,178.967,1.42822,-145.129,308
1570004184,303.386,100.571,-17.1896,178.967,1.42822,-145.129,308
1570004184,303.386,100.571,-17.1896,178.967,1.42822,-145.129,308
1570004184,303.386,100.571,-17.1896,178.967,1.42822,-145.129,308
1570004184,303.386,100.571,-17.1896,178.967,1.42822,-145.129,308
1570004184,303.386,100.571,-17.1896,178.967,1.42822,-145.129,308
1570004184,303.386,100.571,-17.1896,178.967,1.42822,-145.129,308
1570004184,303.386,100.571,-17.1896,178.967,1.42822,-145.129,308
1570004184,303.386,100.571,-17.1896,178.967,1.42822,-145.129,308
1570004184,303.386,100.571,-17.1896,178.967,1.42822,-145.129,308
1570004184,303.386,100.571,-17.1896,178.967,1.42822,-145.129,308
1570004184,303.386,100.571,-17.1896,178.967,1.42822,-145.129,308
1570004184,303.386,100.571,-17.1896,178.967,1.42822,-145.129,312
1570004184,303.386,100.571,-17.1896,178.967,1.42822,-145.129,312
1570004184,303.386,100.571,-17.1896,178.967,1.42822,-145.129,312
1570004184,303.386,100.571,-17.1896,178.967,1.4502,-145.129,312
1570004184,303.386,100.571,-17.1896,178.967,1.4502,-145.129,312
1570004184,303.386,100.459,-17.1896,178.945,1.4502,-145.129,312
1570004184,303.386,100.459,-17.1896,178.945,1.4502,-145.129,312
1570004184,303.386,100.459,-17.1896,178.945,1.4502,-145.129,312
1570004184,303.386,100.459,-17.1896,178.945,1.4502,-145.129,312
1570004184,303.386,100.571,-17.1896,178.945,1.4502,-145.129,312
1570004184,303.386,100.571,-17.1896,178.945,1.4502,-145.129,312
1570004184,303.386,100.571,-17.1896,178.945,1.4502,-145.129,312
1570004184,303.386,100.571,-17.1896,178.945,1.4502,-145.129,312
1570004184,303.386,100.571,-17.1896,178.967,1.4502,-145.129,312
1570004184,303.386,100.571,-17.1896,178.967,1.4502,-145.129,312
1570004184,303.386,100.571,-17.1896,178.967,1.4502,-145.129,312
1570004185,303.386,100.571,-17.1896,178.967,1.4502,-145.129,316
1570004185,303.386,100.571,-17.1896,178.967,1.4502,-145.129,316
1570004185,303.386,100.571,-17.1896,178.967,1.4502,-145.129,316
1570004185,303.386,100.571,-17.1896,178.967,1.4502,-145.129,316
1570004185,303.386,100.571,-17.1896,178.967,1.4502,-145.129,316
1570004185,303.386,100.571,-17.1896,178.967,1.42822,-145.129,316
1570004185,303.386,100.571,-17.1896,178.967,1.42822,-145.129,316
1570004185,303.386,100.571,-17.1896,178.967,1.42822,-145.129,316
1570004185,303.386,100.571,-17.1896,178.967,1.42822,-145.129,316
1570004185,303.386,100.571,-17.1896,178.967,1.42822,-145.129,316
1570004185,303.386,100.571,-17.1896,178.967,1.42822,-145.129,316
1570004185,303.386,100.571,-17.1896,178.967,1.42822,-145.129,316
1570004185,303.386,100.571,-17.1896,178.967,1.42822,-145.129,316
1570004185,303.386,100.571,-17.1896,178.967,1.42822,-145.129,316
1570004185,303.386,100.571,-17.1896,178.967,1.42822,-145.129,316
1570004185,303.386,100.571,-17.1896,178.967,1.42822,-145.129,316
1570004185,303.386,100.571,-17.1896,178.967,1.42822,-145.129,316
1570004185,303.386,100.571,-17.1896,178.967,1.42822,-145.129,316
1570004185,303.386,100.571,-17.1896,178.967,1.42822,-145.129,316
1570004185,303.386,100.571,-17.1896,178.967,1.42822,-145.129,316
1570004185,303.386,100.571,-17.1896,178.967,1.42822,-145.129,316
1570004185,303.386,100.571,-17.1896,178.967,1.42822,-145.129,316
1570004185,303.386,100.571,-17.1896,178.967,1.42822,-145.129,316
1570004185,303.386,100.571,-17.1896,178.967,1.42822,-145.129,316
1570004185,303.386,100.571,-17.1896,178.967,1.42822,-145.129,316
1570004185,303.386,100.571,-17.1896,178.967,1.42822,-145.129,316
1570004185,303.386,100.571,-17.1896,178.967,1.42822,-145.129,316
1570004185,303.386,100.571,-17.1896,178.967,1.42822,-145.129,316
1570004185,303.386,100.571,-17.1896,178.967,1.42822,-145.129,316
1570004185,303.386,100.571,-17.1896,178.967,1.42822,-145.129,316
1570004185,303.386,100.571,-17.1896,178.967,1.42822,-145.129,316
1570004185,303.386,100.571,-17.1896,178.967,1.42822,-145.129,316
1570004185,303.386,100.571,-17.1896,178.967,1.42822,-145.129,312
1570004185,303.386,100.571,-17.1896,178.967,1.42822,-145.129,312
1570004185,303.386,100.571,-17.1896,178.967,1.42822,-145.129,312
1570004185,303.386,100.571,-17.1896,178.967,1.42822,-145.129,312
1570004185,303.386,100.571,-17.1896,178.967,1.42822,-145.129,312
1570004185,303.386,100.571,-17.1896,178.967,1.42822,-145.129,312
1570004185,303.386,100.571,-17.1896,178.967,1.42822,-145.129,312
1570004185,303.386,100.571,-17.1896,178.967,1.42822,-145.129,312
1570004185,303.386,100.571,-17.1896,178.967,1.42822,-145.129,312
1570004185,303.386,100.571,-17.1896,178.967,1.42822,-145.129,312
1570004185,303.386,100.571,-17.1896,178.967,1.42822,-145.129,308
1570004185,303.386,100.571,-17.1896,178.967,1.42822,-145.129,308
1570004185,303.386,100.571,-17.1896,178.967,1.42822,-145.129,308
1570004185,303.386,100.571,-17.1896,178.967,1.42822,-145.129,308
1570004185,303.386,100.571,-17.1896,178.967,1.42822,-145.129,308
1570004185,303.386,100.571,-17.1896,178.967,1.42822,-145.129,308
1570004185,303.386,100.459,-17.1896,178.967,1.42822,-145.129,308
1570004185,303.386,100.459,-17.1896,178.945,1.42822,-145.129,308
1570004185,303.386,100.459,-17.1896,178.945,1.42822,-145.129,308
1570004185,303.386,100.459,-17.1896,178.945,1.42822,-145.129,308
1570004185,303.386,100.459,-17.1896,178.945,1.42822,-145.129,308
1570004185,303.386,100.459,-17.1896,178.945,1.42822,-145.129,308
1570004185,303.386,100.459,-17.1896,178.945,1.42822,-145.129,308
1570004185,303.386,100.459,-17.1896,178.945,1.42822,-145.129,304
1570004185,303.386,100.459,-17.1896,178.945,1.42822,-145.129,304
1570004185,303.386,100.459,-17.1896,178.945,1.42822,-145.129,304
1570004185,303.386,100.459,-17.1896,178.945,1.42822,-145.129,304
1570004185,303.386,100.459,-17.1896,178.945,1.42822,-145.129,304
1570004185,303.386,100.459,-17.1896,178.945,1.42822,-145.129,304
1570004185,303.386,100.459,-17.1896,178.945,1.42822,-145.129,304
1570004185,303.386,100.459,-17.1896,178.945,1.42822,-145.129,304
1570004185,303.386,100.459,-17.1896,178.945,1.42822,-145.129,304
1570004185,303.386,100.459,-17.1896,178.945,1.42822,-145.129,304
1570004185,303.386,100.459,-17.3013,178.945,1.42822,-145.129,304
1570004185,303.386,100.459,-17.3013,178.945,1.42822,-145.129,304
1570004185,303.386,100.459,-17.3013,178.945,1.42822,-145.129,304
1570004185,303.386,100.459,-17.3013,178.945,1.42822,-145.129,304
1570004185,303.386,100.459,-17.3013,178.945,1.42822,-145.129,304
1570004185,303.386,100.459,-17.3013,178.945,1.42822,-145.129,304
1570004185,303.386,100.459,-17.3013,178.945,1.42822,-145.129,304
1570004185,303.386,100.459,-17.3013,178.945,1.42822,-145.107,304
1570004185,303.386,100.459,-17.1896,178.945,1.42822,-145.107,304
1570004185,303.386,100.459,-17.1896,178.945,1.42822,-145.129,304
1570004185,303.386,100.459,-17.1896,178.945,1.42822,-145.129,304
1570004185,303.386,100.459,-17.1896,178.945,1.42822,-145.129,308
1570004185,303.386,100.459,-17.1896,178.945,1.42822,-145.129,308
1570004185,303.386,100.459,-17.1896,178.945,1.42822,-145.129,308
1570004185,303.386,100.459,-17.1896,178.945,1.42822,-145.129,308
1570004185,303.386,100.459,-17.1896,178.945,1.42822,-145.129,308
1570004185,303.386,100.459,-17.1896,178.945,1.42822,-145.129,308
1570004185,303.386,100.459,-17.1896,178.945,1.42822,-145.129,308
1570004185,303.386,100.459,-17.1896,178.945,1.42822,-145.129,308
1570004185,303.386,100.459,-17.1896,178.945,1.42822,-145.129,308
1570004185,303.386,100.459,-17.1896,178.945,1.42822,-145.129,308
1570004185,303.386,100.459,-17.1896,178.945,1.42822,-145.129,308
1570004185,303.386,100.459,-17.1896,178.945,1.42822,-145.129,308
1570004185,303.386,100.459,-17.1896,178.945,1.42822,-145.129,308
1570004185,303.386,100.459,-17.1896,178.945,1.42822,-145.129,304
1570004185,303.386,100.459,-17.1896,178.945,1.42822,-145.129,304
1570004185,303.386,100.459,-17.1896,178.945,1.42822,-145.129,304
1570004185,303.386,100.459,-17.1896,178.945,1.42822,-145.129,304
1570004185,303.386,100.459,-17.1896,178.945,1.42822,-145.129,304
1570004185,303.386,100.459,-17.1896,178.945,1.42822,-145.129,304
1570004185,303.386,100.459,-17.3013,178.967,1.42822,-145.129,304
1570004185,303.386,100.459,-17.3013,178.967,1.42822,-145.129,304
1570004185,303.386,100.571,-17.3013,178.967,1.42822,-145.129,304
1570004185,303.386,100.571,-17.3013,178.967,1.42822,-145.129,304
1570004185,303.386,100.571,-17.3013,178.967,1.42822,-145.129,304
1570004185,303.386,100.571,-17.3013,178.967,1.40625,-145.129,304
1570004186,303.386,100.571,-17.3013,178.967,1.40625,-145.129,304
1570004186,303.386,100.571,-17.3013,178.967,1.40625,-145.129,304
1570004186,303.386,100.571,-17.3013,178.967,1.40625,-145.129,304
1570004186,303.386,100.571,-17.3013,178.967,1.40625,-145.129,304
1570004186,303.386,100.571,-17.3013,178.967,1.40625,-145.129,304
1570004186,303.386,100.571,-17.3013,178.967,1.40625,-145.129,304
1570004186,303.386,100.571,-17.3013,178.967,1.40625,-145.129,304
1570004186,303.386,100.571,-17.3013,178.967,1.40625,-145.129,304
1570004186,303.386,100.571,-17.3013,178.967,1.40625,-145.129,304
1570004186,303.386,100.571,-17.3013,178.967,1.40625,-145.129,304
1570004186,303.386,100.571,-17.3013,178.967,1.40625,-145.129,304
1570004186,303.386,100.571,-17.3013,178.967,1.40625,-145.129,308
1570004186,303.386,100.459,-17.3013,178.967,1.40625,-145.129,308
1570004186,303.386,100.459,-17.3013,178.967,1.40625,-145.129,308
1570004186,303.386,100.459,-17.3013,178.967,1.40625,-145.129,308
1570004186,303.386,100.459,-17.3013,178.967,1.40625,-145.129,312
1570004186,303.386,100.459,-17.3013,178.967,1.40625,-145.129,312
1570004186,303.386,100.459,-17.3013,178.967,1.40625,-145.129,312
1570004186,303.386,100.459,-17.3013,178.967,1.40625,-145.129,312
1570004186,303.386,100.459,-17.3013,178.967,1.40625,-145.129,316
1570004186,303.386,100.459,-17.3013,178.967,1.40625,-145.129,316
1570004186,303.386,100.571,-17.3013,178.967,1.40625,-145.129,316
1570004186,303.386,100.571,-17.3013,178.967,1.40625,-145.129,316
1570004186,303.386,100.571,-17.3013,178.967,1.40625,-145.129,316
1570004186,303.386,100.571,-17.3013,178.967,1.40625,-145.129,316
1570004186,303.386,100.571,-17.3013,178.967,1.40625,-145.129,316
1570004186,303.386,100.459,-17.3013,178.967,1.40625,-145.129,316
1570004186,303.386,100.459,-17.3013,178.967,1.40625,-145.129,316
1570004186,303.386,100.459,-17.3013,178.967,1.40625,-145.129,316
1570004186,303.386,100.459,-17.3013,178.967,1.40625,-145.129,316
1570004186,303.386,100.459,-17.3013,178.967,1.40625,-145.129,316
1570004186,303.386,100.459,-17.3013,178.967,1.42822,-145.129,316
1570004186,303.386,100.459,-17.3013,178.967,1.42822,-145.129,316
1570004186,303.386,100.459,-17.3013,178.967,1.42822,-145.129,320
1570004186,303.386,100.459,-17.3013,178.967,1.42822,-145.129,320
1570004191,318.678,83.9391,-17.3013,178.989,1.2085,-144.536,332
1570004191,318.678,83.9391,-17.3013,178.989,1.2085,-144.536,332
1570004191,318.678,83.9391,-17.3013,178.989,1.2085,-144.536,332
1570004191,318.678,83.9391,-17.3013,178.989,1.2085,-144.536,332
1570004191,318.678,83.9391,-17.3013,178.989,1.2085,-144.536,332
1570004191,318.567,83.9391,-17.3013,178.989,1.2085,-144.536,332
1570004191,318.567,83.9391,-17.3013,178.989,1.2085,-144.536,332
1570004191,318.567,83.9391,-17.3013,178.989,1.2085,-144.536,332
1570004191,318.567,83.9391,-17.3013,178.989,1.2085,-144.536,332
1570004191,318.567,83.9391,-17.3013,178.989,1.2085,-144.536,332
1570004191,318.567,83.9391,-17.3013,178.989,1.2085,-144.536,332
1570004191,318.567,83.9391,-17.3013,178.989,1.2085,-144.536,332
1570004191,318.567,83.9391,-17.3013,178.989,1.2085,-144.536,332
1570004191,318.567,83.9391,-17.3013,178.989,1.2085,-144.536,332
1570004191,318.567,83.9391,-17.3013,178.989,1.2085,-144.536,332
1570004191,318.567,83.9391,-17.3013,178.989,1.2085,-144.536,332
1570004191,318.567,83.9391,-17.3013,178.989,1.2085,-144.536,332
1570004191,318.567,83.9391,-17.1896,178.989,1.2085,-144.536,332
1570004191,318.567,83.9391,-17.1896,178.989,1.2085,-144.558,332
1570004191,318.567,83.9391,-17.1896,178.989,1.2085,-144.558,332
1570004191,318.567,83.9391,-17.1896,178.989,1.2085,-144.558,332
1570004191,318.567,83.9391,-17.1896,178.989,1.2085,-144.558,332
1570004191,318.567,83.9391,-17.3013,178.989,1.2085,-144.558,332
1570004191,318.567,83.9391,-17.3013,178.989,1.2085,-144.558,332
1570004191,318.567,83.9391,-17.3013,178.989,1.2085,-144.558,332
1570004191,318.567,83.9391,-17.3013,178.989,1.2085,-144.558,336
1570004191,318.567,83.9391,-17.3013,178.989,1.2085,-144.558,336
1570004191,318.567,83.9391,-17.3013,178.989,1.2085,-144.558,336
1570004191,318.567,83.9391,-17.3013,178.989,1.2085,-144.558,336
1570004191,318.567,83.9391,-17.3013,178.989,1.2085,-144.558,336
1570004191,318.567,83.9391,-17.3013,178.989,1.2085,-144.558,336
1570004191,318.567,83.9391,-17.3013,178.989,1.2085,-144.558,336
1570004191,318.567,83.9391,-17.3013,178.989,1.2085,-144.558,336
1570004191,318.567,83.9391,-17.3013,178.989,1.2085,-144.558,336
1570004192,318.567,83.9391,-17.3013,178.989,1.2085,-144.558,336
1570004192,318.567,83.9391,-17.3013,178.989,1.2085,-144.558,336
1570004192,318.567,83.9391,-17.3013,178.989,1.2085,-144.558,336
1570004192,318.567,83.9391,-17.3013,179.011,1.2085,-144.558,336
1570004192,318.567,83.9391,-17.3013,179.011,1.2085,-144.558,336
1570004192,318.567,83.9391,-17.3013,179.011,1.2085,-144.558,336
1570004192,318.567,83.9391,-17.3013,179.011,1.2085,-144.558,336
1570004192,318.567,83.9391,-17.3013,179.011,1.2085,-144.558,336
1570004192,318.567,83.9391,-17.3013,179.011,1.2085,-144.558,336
1570004192,318.567,83.9391,-17.3013,179.011,1.2085,-144.558,336
1570004192,318.567,83.9391,-17.3013,179.011,1.2085,-144.558,336
1570004192,318.567,83.9391,-17.3013,179.011,1.2085,-144.558,336
1570004192,318.567,83.9391,-17.3013,179.011,1.2085,-144.558,336
1570004192,318.567,83.9391,-17.3013,179.011,1.2085,-144.558,340
1570004192,318.567,83.9391,-17.3013,179.011,1.18652,-144.558,340
1570004192,318.567,83.9391,-17.3013,179.011,1.18652,-144.558,340
1570004192,318.567,83.9391,-17.3013,179.011,1.2085,-144.558,340
1570004192,318.567,83.9391,-17.3013,179.011,1.2085,-144.536,340
1570004192,318.567,83.9391,-17.3013,179.011,1.2085,-144.536,340
1570004192,318.567,83.9391,-17.3013,179.011,1.2085,-144.536,340
1570004192,318.567,83.9391,-17.3013,179.011,1.2085,-144.536,340
1570004192,318.567,83.9391,-17.3013,179.011,1.2085,-144.536,340
1570004192,318.567,83.9391,-17.3013,179.011,1.2085,-144.536,340
1570004192,318.567,83.9391,-17.3013,179.011,1.2085,-144.536,340
1570004192,318.567,83.9391,-17.3013,179.011,1.2085,-144.536,340
1570004192,318.567,83.9391,-17.3013,179.011,1.18652,-144.536,340
1570004192,318.567,83.9391,-17.3013,179.011,1.18652,-144.536,340
1570004192,318.567,83.9391,-17.3013,179.011,1.18652,-144.536,340
1570004192,318.567,83.9391,-17.3013,179.011,1.18652,-144.536,340
1570004192,318.567,83.9391,-17.3013,179.011,1.18652,-144.536,340
1570004192,318.567,83.9391,-17.3013,179.011,1.18652,-144.536,340
1570004192,318.567,83.9391,-17.3013,179.011,1.18652,-144.536,340
1570004192,318.567,83.9391,-17.3013,179.011,1.18652,-144.536,344
1570004192,318.567,83.9391,-17.3013,178.989,1.18652,-144.536,344
1570004192,318.567,83.9391,-17.3013,178.989,1.18652,-144.536,344
1570004192,318.567,83.9391,-17.3013,178.989,1.18652,-144.536,344
1570004192,318.567,83.9391,-17.3013,178.989,1.18652,-144.536,344
1570004192,318.567,83.9391,-17.3013,178.989,1.18652,-144.536,344
1570004192,318.567,83.8274,-17.3013,178.989,1.18652,-144.536,344
1570004192,318.567,83.8274,-17.3013,178.989,1.18652,-144.536,344
1570004192,318.567,83.8274,-17.3013,178.989,1.18652,-144.536,344
1570004192,318.567,83.8274,-17.3013,178.989,1.18652,-144.536,344
1570004192,318.567,83.8274,-17.3013,178.989,1.18652,-144.536,344
1570004192,318.567,83.8274,-17.3013,178.989,1.18652,-144.536,344
1570004192,318.567,83.8274,-17.3013,178.989,1.18652,-144.536,344
1570004192,318.567,83.8274,-17.3013,178.989,1.18652,-144.536,344
1570004192,318.567,83.8274,-17.3013,178.989,1.18652,-144.536,344
1570004192,318.567,83.9391,-17.3013,178.989,1.18652,-144.536,340
1570004192,318.567,83.9391,-17.3013,178.989,1.18652,-144.536,340
1570004192,318.567,83.9391,-17.3013,178.989,1.18652,-144.536,340
1570004192,318.567,83.9391,-17.3013,178.989,1.18652,-144.536,340
1570004192,318.678,83.9391,-17.3013,178.989,1.18652,-144.536,340
1570004192,318.678,83.9391,-17.3013,178.989,1.18652,-144.536,340
1570004192,318.678,83.9391,-17.3013,178.989,1.18652,-144.536,340
1570004192,318.678,83.9391,-17.3013,178.989,1.18652,-144.536,340
1570004192,318.678,83.9391,-17.3013,178.989,1.18652,-144.536,340
1570004192,318.678,83.8274,-17.3013,178.989,1.2085,-144.536,340
1570004192,318.678,83.8274,-17.3013,178.989,1.2085,-144.536,340
1570004192,318.678,83.8274,-17.3013,178.989,1.2085,-144.536,340
1570004192,318.678,83.8274,-17.3013,178.989,1.2085,-144.536,340
1570004192,318.678,83.8274,-17.3013,178.989,1.2085,-144.536,340
1570004192,318.567,83.8274,-17.3013,178.989,1.2085,-144.536,340
1570004192,318.567,83.9391,-17.3013,178.989,1.2085,-144.536,340
1570004192,318.567,83.9391,-17.3013,178.989,1.2085,-144.536,340
1570004192,318.567,83.9391,-17.3013,178.989,1.2085,-144.536,340
1570004192,318.567,83.9391,-17.3013,178.989,1.2085,-144.536,340
1570004192,318.567,83.9391,-17.3013,178.989,1.2085,-144.536,340
1570004192,318.567,83.9391,-17.3013,178.989,1.2085,-144.536,340
1570004192,318.567,83.9391,-17.1896,178.989,1.23047,-144.536,340
1570004192,318.567,83.9391,-17.1896,178.989,1.23047,-144.536,340
1570004192,318.567,83.9391,-17.1896,178.989,1.23047,-144.536,340
1570004192,318.567,83.9391,-17.1896,178.989,1.23047,-144.536,340
1570004192,318.567,83.9391,-17.1896,178.989,1.23047,-144.536,340
1570004192,318.567,83.9391,-17.1896,178.989,1.23047,-144.536,340
1570004192,318.567,83.9391,-17.1896,178.989,1.23047,-144.536,336
1570004192,318.567,83.9391,-17.1896,178.989,1.23047,-144.536,336
1570004192,318.567,83.9391,-17.1896,178.989,1.23047,-144.536,336
1570004192,318.567,83.9391,-17.1896,178.989,1.23047,-144.536,336
1570004192,318.567,83.9391,-17.1896,178.989,1.23047,-144.536,336
1570004192,318.567,83.9391,-17.1896,178.989,1.23047,-144.536,336
1570004192,318.567,83.9391,-17.1896,178.989,1.23047,-144.536,336
1570004192,318.678,83.9391,-17.1896,178.989,1.23047,-144.536,332
1570004192,318.678,83.9391,-17.1896,178.989,1.23047,-144.536,332
1570004192,318.678,83.9391,-17.1896,178.989,1.23047,-144.536,332
1570004192,318.678,83.9391,-17.1896,178.989,1.23047,-144.536,332
1570004192,318.678,83.9391,-17.1896,178.989,1.23047,-144.536,332
1570004192,318.678,83.9391,-17.1896,178.989,1.23047,-144.536,332
1570004192,318.678,83.9391,-17.1896,178.989,1.23047,-144.536,328
1570004192,318.678,83.9391,-17.1896,178.989,1.23047,-144.536,328
1570004192,318.678,83.9391,-17.1896,178.989,1.23047,-144.536,328
1570004192,318.678,83.9391,-17.1896,178.989,1.2085,-144.536,328
1570004192,318.678,83.9391,-17.1896,178.989,1.2085,-144.536,328
1570004192,318.678,83.9391,-17.1896,178.989,1.2085,-144.536,328
1570004192,318.678,83.9391,-17.3013,178.989,1.2085,-144.536,328
1570004192,318.678,83.9391,-17.3013,179.011,1.2085,-144.536,328
1570004192,318.678,83.9391,-17.3013,179.011,1.2085,-144.536,328
1570004192,318.678,83.9391,-17.3013,179.011,1.2085,-144.536,328
1570004192,318.567,83.9391,-17.1896,179.011,1.2085,-144.536,328
1570004192,318.567,83.9391,-17.1896,179.011,1.2085,-144.536,328
1570004192,318.567,83.9391,-17.1896,179.011,1.2085,-144.536,328
1570004193,318.567,83.9391,-17.1896,179.011,1.2085,-144.536,328
1570004193,318.567,83.9391,-17.1896,179.011,1.2085,-144.558,332
1570004193,318.567,83.9391,-17.1896,179.011,1.2085,-144.558,332
1570004193,318.567,83.9391,-17.1896,179.011,1.23047,-144.558,332
1570004193,318.567,83.9391,-17.1896,178.989,1.23047,-144.558,332
1570004193,318.567,83.9391,-17.1896,178.989,1.23047,-144.558,332
1570004193,318.567,83.9391,-17.1896,178.989,1.23047,-144.558,332
1570004193,318.567,83.9391,-17.1896,178.989,1.23047,-144.558,332
1570004193,318.678,83.9391,-17.1896,178.989,1.23047,-144.558,332
1570004193,318.678,83.9391,-17.1896,178.989,1.23047,-144.558,332
1570004193,318.678,83.9391,-17.1896,178.989,1.23047,-144.558,332
1570004193,318.678,83.9391,-17.1896,178.989,1.2085,-144.558,332
1570004193,318.678,83.9391,-17.1896,178.989,1.2085,-144.558,332
1570004193,318.567,83.9391,-17.1896,179.011,1.2085,-144.536,332
1570004193,318.567,83.9391,-17.3013,179.011,1.2085,-144.536,332
1570004193,318.567,83.9391,-17.3013,179.011,1.2085,-144.536,332
1570004193,318.567,83.9391,-17.3013,179.011,1.2085,-144.536,332
1570004193,318.567,83.9391,-17.3013,179.011,1.2085,-144.536,332
1570004193,318.567,83.9391,-17.3013,179.011,1.2085,-144.536,336
1570004193,318.567,83.9391,-17.3013,179.011,1.2085,-144.536,336
1570004193,318.567,83.9391,-17.3013,179.011,1.2085,-144.536,336
1570004193,318.567,83.9391,-17.3013,179.011,1.2085,-144.536,336
1570004193,318.567,83.9391,-17.3013,179.011,1.2085,-144.536,336
1570004193,318.678,83.9391,-17.3013,179.011,1.2085,-144.536,336
1570004193,318.678,83.9391,-17.3013,179.011,1.2085,-144.536,336
1570004193,318.678,83.9391,-17.3013,179.011,1.2085,-144.536,336
1570004193,318.678,83.9391,-17.3013,179.011,1.18652,-144.536,332
1570004193,318.678,83.9391,-17.3013,179.011,1.18652,-144.536,332
1570004193,318.678,83.9391,-17.3013,179.011,1.18652,-144.536,332
1570004193,318.678,83.9391,-17.3013,179.011,1.18652,-144.536,332
1570004193,318.678,83.9391,-17.3013,179.011,1.18652,-144.536,332
1570004193,318.678,83.9391,-17.3013,179.011,1.18652,-144.536,332
1570004193,318.678,83.9391,-17.3013,179.011,1.18652,-144.536,332
1570004193,318.678,83.9391,-17.3013,179.011,1.18652,-144.536,332
1570004193,318.678,83.9391,-17.3013,179.011,1.18652,-144.536,332
1570004193,318.678,83.9391,-17.3013,179.011,1.2085,-144.536,332
1570004193,318.678,83.9391,-17.3013,179.011,1.2085,-144.536,332
1570004193,318.678,83.9391,-17.3013,179.011,1.2085,-144.536,332
1570004193,318.678,83.9391,-17.3013,179.011,1.2085,-144.536,332
1570004193,318.678,83.9391,-17.3013,179.011,1.2085,-144.536,332
1570004193,318.678,83.9391,-17.3013,179.011,1.2085,-144.536,332
1570004193,318.678,83.9391,-17.3013,179.011,1.2085,-144.536,332
1570004193,318.567,83.9391,-17.3013,179.011,1.2085,-144.536,332
1570004193,318.567,83.9391,-17.3013,179.011,1.2085,-144.536,332
1570004193,318.567,83.9391,-17.3013,179.011,1.2085,-144.536,332
1570004193,318.567,83.9391,-17.3013,179.011,1.2085,-144.536,332
1570004193,318.567,83.9391,-17.3013,179.011,1.2085,-144.536,332
1570004193,318.567,83.9391,-17.3013,179.011,1.2085,-144.536,332
1570004193,318.567,83.9391,-17.3013,179.011,1.2085,-144.536,332
1570004193,318.567,83.9391,-17.3013,179.011,1.2085,-144.536,332
1570004193,318.567,83.9391,-17.3013,179.011,1.2085,-144.536,336
1570004193,318.567,83.9391,-17.3013,179.011,1.2085,-144.536,336
1570004193,318.567,83.9391,-17.3013,179.011,1.2085,-144.536,336
1570004193,318.567,83.9391,-17.3013,179.011,1.2085,-144.536,336
1570004193,318.567,83.9391,-17.3013,179.011,1.2085,-144.536,336
1570004193,318.567,83.9391,-17.3013,179.011,1.2085,-144.536,336
1570004193,318.567,83.9391,-17.3013,179.011,1.2085,-144.536,336
1570004193,318.567,83.9391,-17.3013,179.011,1.2085,-144.536,336
1570004193,318.567,83.9391,-17.3013,179.011,1.2085,-144.536,336
1570004193,318.567,83.9391,-17.3013,179.011,1.2085,-144.536,336
1570004193,318.567,83.9391,-17.3013,179.011,1.2085,-144.514,336
1570004193,318.567,83.9391,-17.3013,179.011,1.2085,-144.514,336
1570004193,318.567,83.9391,-17.3013,179.011,1.2085,-144.536,336
1570004193,318.567,83.9391,-17.3013,179.011,1.2085,-144.536,336
1570004193,318.567,83.9391,-17.3013,179.011,1.2085,-144.536,336
1570004193,318.567,83.9391,-17.3013,179.011,1.2085,-144.536,336
1570004193,318.567,83.9391,-17.3013,179.011,1.2085,-144.536,336
1570004193,318.567,83.9391,-17.3013,179.011,1.2085,-144.536,336
1570004193,318.567,83.9391,-17.3013,179.011,1.2085,-144.536,336
1570004193,318.567,83.9391,-17.3013,179.011,1.2085,-144.536,336
1570004193,318.567,83.9391,-17.3013,179.011,1.2085,-144.536,336
1570004193,318.567,83.9391,-17.3013,179.011,1.2085,-144.536,336
1570004193,318.567,83.9391,-17.3013,179.011,1.2085,-144.536,336
1570004193,318.567,83.9391,-17.3013,179.011,1.2085,-144.536,336
1570004193,318.567,83.9391,-17.3013,179.011,1.2085,-144.536,336
1570004193,318.567,83.9391,-17.3013,179.011,1.2085,-144.536,336
1570004193,318.567,83.9391,-17.3013,179.011,1.23047,-144.536,336
1570004193,318.567,83.9391,-17.3013,179.011,1.23047,-144.536,336
1570004193,318.567,83.9391,-17.1896,179.011,1.23047,-144.536,340
1570004193,318.567,83.9391,-17.1896,179.011,1.23047,-144.536,340
1570004193,318.567,83.9391,-17.1896,179.011,1.23047,-144.536,340
1570004193,318.567,83.9391,-17.1896,179.011,1.23047,-144.536,340
1570004193,318.567,83.9391,-17.1896,179.011,1.23047,-144.536,340
1570004193,318.567,83.9391,-17.1896,179.011,1.23047,-144.536,340
1570004193,318.567,83.9391,-17.1896,179.011,1.23047,-144.536,340
1570004193,318.567,83.9391,-17.1896,179.011,1.23047,-144.536,340
1570004193,318.567,83.9391,-17.1896,179.011,1.23047,-144.536,340
1570004193,318.567,83.9391,-17.1896,179.011,1.23047,-144.536,340
1570004193,318.567,83.9391,-17.1896,179.011,1.23047,-144.536,340
1570004193,318.567,83.9391,-17.1896,179.011,1.23047,-144.536,340
1570004193,318.567,83.9391,-17.1896,179.011,1.23047,-144.536,340
1570004193,318.567,83.9391,-17.3013,179.011,1.2085,-144.536,344
1570004193,318.567,83.9391,-17.3013,179.011,1.2085,-144.536,344
1570004193,318.567,83.9391,-17.3013,179.011,1.2085,-144.536,344
1570004193,318.567,83.9391,-17.3013,179.011,1.2085,-144.536,344
1570004193,318.567,83.9391,-17.3013,179.011,1.2085,-144.536,344
1570004193,318.567,83.9391,-17.3013,179.011,1.2085,-144.536,344
1570004193,318.567,83.9391,-17.3013,179.011,1.2085,-144.536,344
1570004193,318.567,83.9391,-17.3013,179.011,1.2085,-144.536,344
1570004193,318.567,83.9391,-17.3013,178.989,1.2085,-144.536,344
1570004194,318.567,83.9391,-17.1896,178.989,1.2085,-144.536,344
1570004194,318.567,83.9391,-17.1896,178.989,1.2085,-144.536,344
1570004194,318.567,83.9391,-17.1896,178.989,1.2085,-144.558,344
1570004194,318.567,83.9391,-17.1896,178.989,1.2085,-144.558,344
1570004194,318.567,83.9391,-17.1896,178.989,1.2085,-144.558,344
1570004194,318.567,83.9391,-17.1896,178.989,1.2085,-144.558,344
1570004194,318.567,83.9391,-17.1896,178.989,1.2085,-144.558,344
1570004194,318.567,83.9391,-17.1896,178.989,1.2085,-144.558,344
1570004194,318.567,83.9391,-17.3013,178.989,1.2085,-144.558,344
1570004194,318.567,83.9391,-17.3013,178.989,1.2085,-144.558,348
1570004194,318.567,83.9391,-17.3013,178.989,1.2085,-144.558,348
1570004194,318.567,83.9391,-17.3013,178.989,1.2085,-144.558,348
1570004194,318.567,83.9391,-17.3013,178.989,1.2085,-144.558,348
1570004194,318.567,83.9391,-17.3013,178.989,1.2085,-144.558,348
1570004194,318.567,83.9391,-17.3013,178.989,1.2085,-144.536,348
1570004194,318.567,83.9391,-17.3013,178.989,1.2085,-144.536,348
1570004194,318.567,83.9391,-17.3013,178.989,1.2085,-144.536,348
1570004194,318.567,83.9391,-17.3013,178.989,1.2085,-144.536,348
1570004194,318.567,83.9391,-17.3013,179.011,1.2085,-144.536,344
1570004194,318.567,83.9391,-17.3013,179.011,1.2085,-144.536,344
1570004194,318.567,83.9391,-17.3013,179.011,1.2085,-144.536,344
1570004194,318.567,83.9391,-17.3013,179.011,1.2085,-144.536,344
1570004194,318.567,83.9391,-17.3013,179.011,1.2085,-144.536,344
1570004194,318.567,83.9391,-17.3013,179.011,1.2085,-144.536,344
1570004194,318.567,83.9391,-17.3013,179.011,1.2085,-144.536,344
1570004194,318.567,83.9391,-17.3013,179.011,1.2085,-144.536,344
1570004194,318.567,83.9391,-17.3013,179.011,1.2085,-144.536,344
1570004194,318.567,83.9391,-17.3013,179.011,1.2085,-144.536,344
1570004194,318.567,83.9391,-17.1896,179.011,1.2085,-144.536,340
1570004194,318.567,83.9391,-17.1896,179.011,1.2085,-144.536,340
1570004194,318.567,83.9391,-17.3013,179.011,1.2085,-144.536,340
1570004194,318.567,83.9391,-17.3013,179.011,1.2085,-144.536,340
1570004194,318.567,83.9391,-17.3013,179.011,1.2085,-144.536,340
1570004194,318.567,83.9391,-17.3013,179.011,1.2085,-144.536,340
1570004194,318.567,83.9391,-17.3013,179.011,1.2085,-144.536,340
1570004194,318.567,83.9391,-17.3013,179.011,1.2085,-144.536,340
1570004194,318.567,83.9391,-17.3013,179.011,1.2085,-144.536,340
1570004194,318.567,83.9391,-17.3013,179.011,1.2085,-144.536,340
1570004194,318.567,83.9391,-17.3013,179.011,1.2085,-144.536,340
1570004194,318.567,83.9391,-17.3013,179.011,1.2085,-144.536,340
1570004194,318.567,83.9391,-17.3013,179.011,1.2085,-144.536,340
1570004194,318.567,83.9391,-17.3013,179.011,1.2085,-144.536,340
1570004194,318.567,83.9391,-17.3013,179.011,1.2085,-144.536,340
1570004194,318.567,83.9391,-17.3013,179.011,1.2085,-144.536,340
1570004194,318.567,83.9391,-17.3013,179.011,1.2085,-144.536,340
1570004194,318.567,83.9391,-17.3013,179.011,1.2085,-144.536,340
1570004194,318.567,83.9391,-17.3013,179.011,1.2085,-144.536,336
1570004194,318.567,83.9391,-17.3013,178.989,1.2085,-144.536,336
1570004194,318.567,83.9391,-17.3013,178.989,1.2085,-144.536,336
1570004194,318.567,83.9391,-17.3013,178.989,1.2085,-144.536,336
1570004194,318.567,83.9391,-17.3013,178.989,1.2085,-144.536,336
1570004194,318.567,83.9391,-17.3013,178.989,1.2085,-144.536,336
1570004194,318.567,83.9391,-17.3013,178.989,1.2085,-144.536,336
1570004194,318.567,83.9391,-17.3013,178.989,1.2085,-144.536,336
1570004194,318.567,83.9391,-17.3013,178.989,1.2085,-144.536,336
1570004194,318.567,83.9391,-17.3013,178.989,1.18652,-144.536,336
1570004194,318.567,83.9391,-17.3013,178.989,1.18652,-144.536,336
1570004194,318.567,83.9391,-17.3013,178.989,1.18652,-144.536,336
1570004194,318.567,83.9391,-17.3013,179.011,1.18652,-144.536,336
1570004194,318.567,83.9391,-17.3013,179.011,1.18652,-144.536,336
1570004194,318.567,83.9391,-17.3013,179.011,1.2085,-144.536,336
1570004194,318.567,83.9391,-17.3013,179.011,1.2085,-144.536,336
1570004194,318.567,83.9391,-17.3013,179.011,1.2085,-144.536,336
1570004194,318.567,83.9391,-17.3013,179.011,1.2085,-144.536,336
1570004194,318.567,83.9391,-17.3013,179.011,1.2085,-144.536,336
1570004194,318.567,83.9391,-17.3013,179.011,1.2085,-144.536,336
1570004194,318.567,83.9391,-17.3013,179.011,1.2085,-144.536,336
1570004194,318.567,83.9391,-17.3013,179.011,1.2085,-144.536,340
1570004194,318.567,83.9391,-17.3013,179.011,1.2085,-144.536,340
1570004194,318.567,83.9391,-17.3013,179.011,1.2085,-144.536,340
1570004194,318.567,83.9391,-17.3013,179.011,1.2085,-144.536,340
1570004194,318.567,83.9391,-17.3013,179.011,1.18652,-144.536,340
1570004194,318.567,83.9391,-17.3013,179.011,1.18652,-144.536,340
1570004194,318.567,83.9391,-17.3013,179.011,1.18652,-144.536,340
1570004194,318.567,83.9391,-17.3013,179.011,1.18652,-144.536,340
1570004194,318.567,83.9391,-17.3013,179.011,1.18652,-144.536,340
1570004194,318.567,83.9391,-17.3013,179.011,1.18652,-144.536,340
1570004194,318.567,83.9391,-17.3013,179.011,1.18652,-144.536,340
1570004194,318.567,83.9391,-17.3013,179.011,1.18652,-144.536,340
1570004194,318.567,83.9391,-17.3013,179.011,1.18652,-144.536,336
1570004194,318.567,83.9391,-17.3013,179.011,1.18652,-144.536,336
1570004194,318.567,83.9391,-17.3013,179.011,1.18652,-144.536,336
1570004194,318.567,83.9391,-17.3013,179.011,1.18652,-144.536,336
1570004194,318.567,83.9391,-17.3013,178.989,1.18652,-144.536,336
1570004194,318.567,83.9391,-17.3013,178.989,1.18652,-144.536,336
1570004194,318.567,83.9391,-17.3013,178.989,1.18652,-144.536,336
1570004194,318.567,83.9391,-17.3013,178.989,1.16455,-144.536,336
1570004194,318.567,83.9391,-17.4129,178.989,1.16455,-144.536,336
1570004194,318.567,83.9391,-17.4129,178.989,1.16455,-144.536,336
1570004194,318.567,83.9391,-17.4129,178.989,1.16455,-144.536,336
1570004194,318.567,83.9391,-17.4129,178.989,1.16455,-144.536,336
1570004194,318.567,83.9391,-17.4129,178.989,1.16455,-144.536,336
1570004194,318.567,83.9391,-17.4129,178.989,1.16455,-144.536,336
1570004194,318.567,83.9391,-17.4129,178.989,1.16455,-144.536,336
1570004194,318.567,83.9391,-17.4129,178.989,1.16455,-144.536,336
1570004194,318.567,83.9391,-17.4129,178.989,1.16455,-144.536,336
1570004194,318.567,83.9391,-17.4129,178.989,1.16455,-144.536,340
1570004194,318.567,83.9391,-17.4129,178.989,1.16455,-144.536,340
1570004194,318.567,83.9391,-17.4129,178.989,1.16455,-144.536,340
1570004194,318.567,83.9391,-17.4129,178.989,1.16455,-144.536,340
1570004195,318.567,83.9391,-17.4129,178.989,1.16455,-144.536,340
1570004195,318.567,83.9391,-17.4129,178.989,1.16455,-144.536,344
1570004195,318.567,83.9391,-17.4129,178.989,1.16455,-144.536,344
1570004195,318.567,83.9391,-17.4129,178.989,1.16455,-144.536,344
1570004195,318.567,83.9391,-17.4129,178.989,1.16455,-144.536,344
1570004195,318.567,83.9391,-17.4129,178.989,1.16455,-144.536,344
1570004195,318.567,83.9391,-17.4129,178.989,1.16455,-144.536,344
1570004195,318.567,83.9391,-17.3013,178.989,1.18652,-144.536,344
1570004195,318.567,83.9391,-17.3013,178.989,1.18652,-144.536,344
1570004195,318.567,83.9391,-17.3013,178.989,1.18652,-144.536,344
1570004195,318.567,83.9391,-17.3013,178.989,1.18652,-144.536,344
1570004195,318.567,83.9391,-17.3013,178.989,1.18652,-144.536,344
1570004195,318.567,83.9391,-17.3013,178.989,1.18652,-144.536,344
1570004195,318.567,83.9391,-17.3013,178.989,1.18652,-144.536,344
1570004195,318.567,83.9391,-17.3013,178.989,1.16455,-144.536,344
1570004195,318.567,83.9391,-17.4129,178.989,1.16455,-144.536,340
1570004195,318.567,83.9391,-17.4129,178.989,1.16455,-144.536,340
1570004195,318.567,83.9391,-17.4129,178.989,1.16455,-144.536,340
1570004195,318.567,83.9391,-17.4129,178.989,1.16455,-144.536,340
1570004195,318.567,83.9391,-17.4129,178.989,1.16455,-144.536,340
1570004195,318.567,83.9391,-17.4129,178.989,1.16455,-144.536,340
1570004195,318.567,83.9391,-17.4129,178.989,1.16455,-144.536,340
1570004195,318.567,83.9391,-17.4129,178.989,1.16455,-144.536,340
1570004195,318.567,83.9391,-17.4129,178.989,1.16455,-144.536,340
1570004195,318.567,83.9391,-17.4129,178.989,1.16455,-144.536,336
1570004195,318.567,83.9391,-17.4129,178.989,1.16455,-144.536,336
1570004195,318.567,83.9391,-17.4129,178.989,1.16455,-144.536,336
1570004195,318.567,83.9391,-17.4129,178.989,1.16455,-144.536,336
1570004195,318.567,83.9391,-17.3013,178.989,1.16455,-144.536,336
1570004195,318.567,83.9391,-17.3013,178.989,1.18652,-144.536,336
1570004195,318.678,83.9391,-17.3013,178.989,1.18652,-144.514,336
1570004195,318.678,83.9391,-17.3013,178.989,1.18652,-144.514,332
1570004195,318.678,83.9391,-17.3013,178.989,1.18652,-144.514,332
1570004195,318.678,83.9391,-17.3013,178.989,1.18652,-144.514,332
1570004195,318.678,83.9391,-17.3013,178.989,1.18652,-144.514,332
1570004195,318.678,83.9391,-17.3013,178.989,1.18652,-144.514,332
1570004195,318.567,83.9391,-17.3013,178.989,1.18652,-144.514,332
1570004195,318.567,83.9391,-17.3013,178.989,1.18652,-144.514,332
1570004195,318.567,83.8274,-17.3013,178.989,1.18652,-144.514,332
1570004195,318.567,83.8274,-17.3013,178.989,1.18652,-144.514,332
1570004195,318.567,83.8274,-17.3013,178.989,1.18652,-144.514,332
1570004195,318.567,83.8274,-17.3013,178.989,1.18652,-144.514,332
1570004195,318.567,83.8274,-17.3013,178.989,1.18652,-144.514,332
1570004195,318.567,83.8274,-17.3013,178.989,1.18652,-144.514,332
1570004195,318.567,83.8274,-17.3013,178.989,1.18652,-144.514,332
1570004195,318.567,83.8274,-17.3013,178.989,1.18652,-144.536,332
1570004195,318.567,83.8274,-17.3013,178.989,1.18652,-144.536,332
1570004195,318.567,83.8274,-17.3013,178.989,1.18652,-144.536,332
1570004195,318.567,83.8274,-17.3013,178.989,1.18652,-144.536,332
1570004195,318.567,83.8274,-17.3013,178.989,1.18652,-144.536,332
1570004195,318.567,83.8274,-17.3013,178.989,1.18652,-144.536,332
1570004195,318.567,83.8274,-17.3013,178.989,1.18652,-144.536,332
1570004195,318.567,83.9391,-17.3013,178.989,1.18652,-144.536,332
1570004195,318.567,83.9391,-17.3013,178.989,1.18652,-144.536,332
1570004195,318.567,83.9391,-17.3013,178.989,1.18652,-144.536,332
1570004195,318.567,83.9391,-17.3013,178.989,1.18652,-144.536,332
1570004195,318.567,83.9391,-17.3013,178.989,1.18652,-144.536,332
1570004195,318.567,83.9391,-17.3013,178.989,1.18652,-144.536,332
1570004195,318.567,83.9391,-17.3013,178.989,1.18652,-144.536,332
1570004195,318.567,83.9391,-17.3013,178.989,1.18652,-144.536,332
1570004195,318.567,83.9391,-17.3013,178.989,1.18652,-144.536,336
1570004195,318.567,83.9391,-17.3013,178.989,1.18652,-144.536,336
1570004195,318.567,83.9391,-17.3013,179.011,1.18652,-144.536,336
1570004195,318.567,83.9391,-17.3013,179.011,1.18652,-144.536,336
1570004195,318.567,83.9391,-17.3013,179.011,1.18652,-144.536,336
1570004195,318.567,83.9391,-17.3013,179.011,1.18652,-144.536,336
1570004195,318.567,83.9391,-17.3013,179.011,1.18652,-144.536,336
1570004195,318.567,83.9391,-17.3013,179.011,1.18652,-144.536,336
1570004195,318.567,83.9391,-17.3013,179.011,1.18652,-144.536,336
1570004195,318.567,83.9391,-17.3013,179.011,1.18652,-144.536,336
1570004195,318.567,83.9391,-17.3013,179.011,1.18652,-144.536,336
1570004195,318.567,83.9391,-17.3013,179.011,1.18652,-144.536,336
1570004195,318.567,83.9391,-17.3013,179.011,1.18652,-144.536,336
1570004195,318.567,83.9391,-17.3013,179.011,1.18652,-144.536,336
1570004195,318.567,83.9391,-17.3013,179.011,1.18652,-144.536,336
1570004195,318.567,83.9391,-17.3013,179.011,1.18652,-144.536,332
1570004195,318.567,83.9391,-17.3013,179.011,1.18652,-144.536,332
1570004195,318.567,83.9391,-17.3013,179.011,1.18652,-144.536,332
1570004195,318.567,83.9391,-17.3013,179.011,1.18652,-144.536,332
1570004195,318.567,83.9391,-17.3013,179.011,1.18652,-144.536,332
1570004195,318.567,83.9391,-17.3013,179.011,1.18652,-144.536,332
1570004195,318.567,83.9391,-17.3013,179.011,1.18652,-144.536,332
1570004195,318.567,83.9391,-17.3013,179.011,1.18652,-144.536,332
1570004195,318.567,83.9391,-17.3013,179.011,1.18652,-144.536,332
1570004195,318.567,83.9391,-17.3013,179.011,1.18652,-144.536,332
1570004195,318.567,83.9391,-17.3013,179.011,1.18652,-144.536,332
1570004195,318.567,83.9391,-17.3013,179.011,1.18652,-144.536,332
1570004195,318.567,83.9391,-17.3013,179.011,1.18652,-144.536,332
1570004195,318.567,83.9391,-17.3013,179.011,1.18652,-144.536,332
1570004195,318.567,83.9391,-17.3013,179.011,1.18652,-144.536,336
1570004195,318.567,83.9391,-17.3013,179.011,1.18652,-144.536,336
1570004195,318.567,83.9391,-17.3013,179.011,1.18652,-144.536,336
1570004195,318.567,83.9391,-17.3013,179.011,1.18652,-144.536,336
1570004195,318.567,83.9391,-17.3013,179.011,1.2085,-144.536,336
1570004195,318.567,83.9391,-17.3013,179.011,1.2085,-144.536,336
1570004195,318.567,83.9391,-17.3013,178.989,1.2085,-144.536,336
1570004195,318.567,83.9391,-17.3013,178.989,1.2085,-144.536,336
1570004195,318.567,83.9391,-17.3013,178.989,1.2085,-144.536,336
1570004195,318.567,83.9391,-17.3013,178.989,1.2085,-144.536,336
1570004195,318.567,83.9391,-17.3013,178.989,1.2085,-144.536,332
1570004196,318.678,83.9391,-17.3013,178.989,1.2085,-144.536,332
1570004196,318.678,83.9391,-17.3013,178.989,1.2085,-144.536,332
1570004196,318.678,83.9391,-17.3013,178.989,1.2085,-144.536,332
1570004196,318.678,83.9391,-17.3013,178.989,1.2085,-144.536,332
1570004196,318.678,83.9391,-17.3013,178.989,1.2085,-144.536,332
1570004196,318.678,83.9391,-17.3013,178.989,1.2085,-144.536,332
1570004196,318.678,83.9391,-17.3013,178.989,1.2085,-144.536,332
1570004196,318.678,83.9391,-17.3013,178.989,1.2085,-144.536,332
1570004196,318.567,83.9391,-17.3013,178.989,1.2085,-144.536,332
1570004196,318.567,83.9391,-17.3013,178.989,1.2085,-144.536,332
1570004196,318.567,83.9391,-17.3013,178.989,1.2085,-144.536,332
1570004196,318.567,83.9391,-17.3013,178.989,1.2085,-144.536,332
1570004196,318.567,83.9391,-17.3013,178.989,1.2085,-144.536,332
1570004196,318.567,83.9391,-17.3013,178.989,1.2085,-144.536,332
1570004196,318.678,83.9391,-17.3013,178.989,1.2085,-144.536,332
1570004196,318.678,83.9391,-17.3013,178.989,1.2085,-144.536,332
1570004196,318.678,83.9391,-17.3013,178.989,1.2085,-144.536,332
1570004196,318.678,83.9391,-17.3013,178.989,1.2085,-144.536,332
1570004196,318.678,83.9391,-17.3013,178.989,1.2085,-144.536,332
1570004196,318.678,83.9391,-17.3013,178.989,1.2085,-144.536,332
1570004196,318.678,83.9391,-17.3013,178.989,1.2085,-144.536,332
1570004196,318.678,83.9391,-17.3013,178.989,1.2085,-144.536,332
1570004196,318.678,83.9391,-17.3013,178.989,1.2085,-144.536,332
1570004196,318.678,83.9391,-17.3013,178.989,1.2085,-144.536,332
1570004196,318.678,83.9391,-17.3013,178.989,1.2085,-144.536,332
1570004196,318.678,83.9391,-17.3013,178.989,1.2085,-144.536,332
1570004196,318.678,83.9391,-17.3013,178.989,1.2085,-144.536,332
1570004196,318.678,83.9391,-17.3013,178.989,1.2085,-144.536,332
1570004196,318.678,83.9391,-17.3013,178.989,1.2085,-144.536,332
1570004196,318.678,83.9391,-17.3013,178.989,1.2085,-144.536,332
1570004196,318.567,83.9391,-17.3013,178.989,1.2085,-144.536,332
1570004196,318.567,83.9391,-17.3013,178.989,1.2085,-144.536,332
1570004196,318.567,83.9391,-17.3013,178.989,1.2085,-144.536,332
1570004196,318.567,83.9391,-17.3013,179.011,1.2085,-144.536,332
1570004196,318.567,83.9391,-17.3013,179.011,1.2085,-144.536,332
1570004196,318.567,83.9391,-17.3013,178.989,1.2085,-144.536,332
1570004196,318.567,83.9391,-17.3013,178.989,1.2085,-144.536,332
1570004196,318.567,83.9391,-17.3013,178.989,1.2085,-144.536,332
1570004196,318.567,83.9391,-17.3013,178.989,1.2085,-144.536,332
1570004196,318.567,83.9391,-17.3013,178.989,1.2085,-144.536,332
1570004196,318.567,83.9391,-17.3013,178.989,1.2085,-144.536,332
1570004196,318.567,83.9391,-17.3013,178.989,1.2085,-144.536,336
1570004196,318.567,83.9391,-17.3013,178.989,1.2085,-144.536,336
1570004196,318.567,83.9391,-17.3013,178.989,1.2085,-144.536,336
1570004196,318.567,83.9391,-17.3013,179.011,1.2085,-144.536,336
1570004196,318.567,83.9391,-17.3013,179.011,1.2085,-144.536,336
1570004196,318.567,83.9391,-17.3013,179.011,1.2085,-144.536,336
1570004196,318.567,83.9391,-17.3013,179.011,1.2085,-144.536,336
1570004196,318.567,83.9391,-17.3013,179.011,1.2085,-144.536,336
1570004196,318.567,83.9391,-17.3013,179.011,1.2085,-144.536,336
1570004196,318.567,83.9391,-17.3013,179.011,1.2085,-144.536,336
1570004196,318.567,83.9391,-17.3013,179.011,1.2085,-144.536,340
1570004196,318.567,83.9391,-17.3013,178.989,1.2085,-144.536,340
1570004196,318.567,83.9391,-17.3013,178.989,1.2085,-144.536,340
1570004196,318.567,83.9391,-17.3013,178.989,1.2085,-144.536,340
1570004196,318.567,83.9391,-17.3013,178.989,1.18652,-144.536,336
1570004196,318.567,83.9391,-17.3013,178.989,1.18652,-144.536,336
1570004196,318.567,83.9391,-17.3013,178.989,1.18652,-144.536,336
1570004196,318.567,83.9391,-17.3013,178.989,1.18652,-144.536,336
1570004196,318.567,83.9391,-17.3013,178.989,1.18652,-144.536,336
1570004196,318.567,83.9391,-17.3013,178.989,1.18652,-144.536,336
1570004196,318.567,83.9391,-17.3013,178.989,1.18652,-144.536,336
1570004196,318.567,83.9391,-17.3013,179.011,1.18652,-144.536,336
1570004196,318.567,83.9391,-17.3013,179.011,1.18652,-144.536,336
1570004196,318.567,83.9391,-17.3013,179.011,1.18652,-144.536,336
1570004196,318.567,83.9391,-17.3013,179.011,1.18652,-144.536,336
1570004201,341.561,59.3824,-16.8548,179.055,1.31836,-144.558,404
1570004201,341.561,59.3824,-16.8548,179.055,1.31836,-144.558,404
1570004201,341.561,59.3824,-16.8548,179.055,1.31836,-144.558,404
1570004201,341.561,59.3824,-16.8548,179.055,1.31836,-144.558,404
1570004201,341.561,59.3824,-16.8548,179.055,1.31836,-144.558,400
1570004201,341.561,59.3824,-16.8548,179.055,1.31836,-144.558,400
1570004201,341.561,59.3824,-16.8548,179.055,1.31836,-144.558,400
1570004201,341.561,59.3824,-16.8548,179.055,1.31836,-144.536,400
1570004201,341.561,59.3824,-16.8548,179.055,1.31836,-144.536,400
1570004201,341.561,59.2708,-16.8548,179.055,1.29639,-144.536,396
1570004201,341.561,59.2708,-16.9664,179.055,1.29639,-144.536,396
1570004201,341.561,59.2708,-16.9664,179.033,1.29639,-144.536,396
1570004201,341.561,59.2708,-16.9664,179.055,1.29639,-144.536,396
1570004201,341.561,59.2708,-16.9664,179.055,1.29639,-144.536,396
1570004201,341.561,59.2708,-16.9664,179.055,1.29639,-144.536,396
1570004201,341.672,59.3824,-16.9664,179.055,1.29639,-144.558,396
1570004201,341.672,59.3824,-16.9664,179.055,1.29639,-144.558,396
1570004201,341.672,59.3824,-16.9664,179.055,1.29639,-144.558,396
1570004201,341.672,59.3824,-16.9664,179.055,1.29639,-144.558,396
1570004201,341.672,59.3824,-16.9664,179.055,1.27441,-144.558,392
1570004201,341.672,59.3824,-16.9664,179.055,1.27441,-144.558,392
1570004201,341.672,59.3824,-16.9664,179.055,1.27441,-144.558,392
1570004201,341.672,59.3824,-16.9664,179.055,1.27441,-144.558,392
1570004201,341.672,59.3824,-16.9664,179.055,1.27441,-144.558,392
1570004201,341.672,59.3824,-16.9664,179.055,1.27441,-144.558,396
1570004201,341.672,59.3824,-16.9664,179.055,1.27441,-144.558,396
1570004201,341.672,59.3824,-16.9664,179.055,1.29639,-144.558,396
1570004201,341.672,59.3824,-16.9664,179.055,1.29639,-144.558,396
1570004201,341.672,59.3824,-16.9664,179.055,1.29639,-144.558,396
1570004201,341.672,59.3824,-16.9664,179.055,1.29639,-144.558,396
1570004201,341.672,59.3824,-16.9664,179.055,1.29639,-144.558,396
1570004201,341.672,59.3824,-16.9664,179.055,1.29639,-144.558,396
1570004201,341.672,59.3824,-16.9664,179.055,1.29639,-144.558,396
1570004201,341.561,59.3824,-16.9664,179.055,1.29639,-144.558,396
1570004201,341.561,59.3824,-16.9664,179.055,1.29639,-144.558,392
1570004201,341.561,59.3824,-16.9664,179.055,1.29639,-144.558,392
1570004201,341.561,59.3824,-16.9664,179.055,1.29639,-144.558,392
1570004201,341.561,59.3824,-16.9664,179.055,1.29639,-144.558,392
1570004201,341.561,59.3824,-16.9664,179.055,1.29639,-144.558,392
1570004201,341.561,59.3824,-16.8548,179.055,1.31836,-144.558,392
1570004201,341.561,59.3824,-16.8548,179.055,1.31836,-144.558,392
1570004201,341.561,59.2708,-16.8548,179.055,1.31836,-144.558,392
1570004201,341.561,59.2708,-16.8548,179.055,1.31836,-144.558,392
1570004201,341.561,59.2708,-16.8548,179.055,1.31836,-144.558,392
1570004201,341.561,59.2708,-16.8548,179.055,1.31836,-144.558,392
1570004201,341.561,59.2708,-16.8548,179.055,1.31836,-144.558,392
1570004201,341.561,59.2708,-16.8548,179.055,1.31836,-144.536,396
1570004201,341.561,59.3824,-16.8548,179.055,1.31836,-144.536,396
1570004201,341.561,59.3824,-16.8548,179.055,1.31836,-144.536,396
1570004201,341.561,59.3824,-16.8548,179.055,1.31836,-144.536,396
1570004201,341.561,59.3824,-16.8548,179.055,1.31836,-144.536,396
1570004201,341.561,59.3824,-16.8548,179.055,1.31836,-144.536,396
1570004201,341.561,59.3824,-16.8548,179.055,1.31836,-144.536,396
1570004201,341.672,59.3824,-16.8548,179.055,1.31836,-144.536,396
1570004201,341.672,59.3824,-16.8548,179.055,1.31836,-144.536,392
1570004201,341.672,59.3824,-16.8548,179.055,1.31836,-144.536,392
1570004201,341.672,59.3824,-16.8548,179.055,1.31836,-144.536,392
1570004201,341.672,59.2708,-16.8548,179.033,1.31836,-144.536,392
1570004201,341.672,59.2708,-16.8548,179.033,1.31836,-144.536,392
1570004201,341.672,59.2708,-16.8548,179.033,1.29639,-144.536,392
1570004201,341.672,59.2708,-16.8548,179.033,1.29639,-144.536,392
1570004202,341.672,59.2708,-16.8548,179.033,1.29639,-144.536,388
1570004202,341.672,59.2708,-16.8548,179.033,1.29639,-144.536,388
1570004202,341.672,59.2708,-16.8548,179.033,1.29639,-144.536,388
1570004202,341.672,59.2708,-16.9664,179.033,1.29639,-144.536,388
1570004202,341.672,59.2708,-16.9664,179.033,1.29639,-144.536,388
1570004202,341.672,59.2708,-16.9664,179.033,1.29639,-144.536,388
1570004202,341.672,59.2708,-16.9664,179.033,1.29639,-144.536,388
1570004202,341.672,59.2708,-16.9664,179.033,1.29639,-144.536,388
1570004202,341.672,59.2708,-16.9664,179.033,1.29639,-144.536,388
1570004202,341.672,59.2708,-16.9664,179.033,1.29639,-144.536,392
1570004202,341.672,59.2708,-16.9664,179.011,1.29639,-144.536,392
1570004202,341.672,59.2708,-16.9664,179.011,1.29639,-144.536,392
1570004202,341.672,59.2708,-16.9664,179.011,1.29639,-144.536,392
1570004202,341.672,59.2708,-16.9664,179.011,1.29639,-144.536,392
1570004202,341.672,59.2708,-16.9664,179.011,1.29639,-144.536,388
1570004202,341.672,59.2708,-16.9664,179.011,1.29639,-144.536,388
1570004202,341.672,59.2708,-16.9664,179.011,1.29639,-144.536,388
1570004202,341.672,59.2708,-16.9664,179.011,1.29639,-144.536,388
1570004202,341.672,59.2708,-16.9664,179.011,1.29639,-144.536,388
1570004202,341.672,59.2708,-16.9664,179.011,1.29639,-144.536,388
1570004202,341.561,59.2708,-16.9664,179.011,1.29639,-144.536,388
1570004202,341.561,59.2708,-16.9664,179.011,1.29639,-144.536,388
1570004202,341.561,59.2708,-16.9664,179.011,1.29639,-144.536,388
1570004202,341.561,59.2708,-16.9664,179.033,1.29639,-144.536,388
1570004202,341.561,59.2708,-16.9664,179.033,1.29639,-144.536,388
1570004202,341.561,59.2708,-16.9664,179.033,1.29639,-144.536,388
1570004202,341.561,59.2708,-16.9664,179.033,1.29639,-144.536,392
1570004202,341.561,59.2708,-16.9664,179.033,1.29639,-144.536,392
1570004202,341.561,59.2708,-16.9664,179.033,1.29639,-144.536,392
1570004202,341.672,59.2708,-16.9664,179.033,1.29639,-144.536,392
1570004202,341.672,59.2708,-16.9664,179.033,1.29639,-144.536,392
1570004202,341.672,59.2708,-16.9664,179.033,1.27441,-144.536,392
1570004202,341.672,59.2708,-16.9664,179.011,1.27441,-144.536,396
1570004202,341.672,59.2708,-16.9664,179.011,1.27441,-144.536,396
1570004202,341.672,59.2708,-16.9664,179.011,1.27441,-144.536,396
1570004202,341.672,59.2708,-16.9664,179.011,1.27441,-144.536,396
1570004202,341.561,59.2708,-16.9664,179.011,1.27441,-144.536,400
1570004202,341.561,59.2708,-16.9664,179.011,1.27441,-144.536,400
1570004202,341.561,59.2708,-16.9664,179.011,1.27441,-144.536,400
1570004202,341.561,59.2708,-16.9664,179.011,1.27441,-144.536,400
1570004202,341.561,59.2708,-16.9664,179.011,1.27441,-144.558,404
1570004202,341.561,59.2708,-16.9664,179.011,1.27441,-144.558,404
1570004202,341.561,59.2708,-16.9664,179.011,1.27441,-144.558,404
1570004202,341.561,59.2708,-16.9664,179.011,1.27441,-144.558,404
1570004202,341.561,59.2708,-16.9664,179.011,1.27441,-144.558,404
1570004202,341.561,59.2708,-16.9664,179.011,1.27441,-144.558,404
1570004202,341.561,59.2708,-16.9664,179.011,1.27441,-144.558,404
1570004202,341.561,59.2708,-16.9664,179.011,1.27441,-144.558,408
1570004202,341.561,59.2708,-16.9664,179.011,1.27441,-144.558,408
1570004202,341.561,59.2708,-16.9664,179.011,1.29639,-144.558,408
1570004202,341.561,59.2708,-16.9664,179.011,1.29639,-144.558,404
1570004202,341.561,59.2708,-16.9664,179.011,1.29639,-144.558,404
1570004202,341.561,59.2708,-16.9664,179.011,1.29639,-144.558,404
1570004202,341.561,59.2708,-16.9664,179.033,1.29639,-144.558,404
1570004202,341.561,59.2708,-16.9664,179.033,1.29639,-144.558,404
1570004202,341.561,59.2708,-16.9664,179.033,1.29639,-144.536,404
1570004202,341.561,59.2708,-16.9664,179.033,1.29639,-144.536,404
1570004202,341.561,59.2708,-16.9664,179.033,1.29639,-144.536,404
1570004202,341.561,59.2708,-16.9664,179.033,1.29639,-144.536,404
1570004202,341.672,59.2708,-16.9664,179.033,1.29639,-144.536,404
1570004202,341.672,59.2708,-16.9664,179.033,1.29639,-144.536,400
1570004202,341.672,59.2708,-16.9664,179.033,1.29639,-144.536,400
1570004202,341.672,59.2708,-16.9664,179.033,1.29639,-144.536,400
1570004202,341.672,59.2708,-16.9664,179.033,1.29639,-144.536,400
1570004202,341.672,59.2708,-16.9664,179.033,1.29639,-144.536,400
1570004202,341.672,59.2708,-16.9664,179.033,1.29639,-144.536,400
1570004202,341.672,59.2708,-16.9664,179.033,1.29639,-144.536,400
1570004202,341.672,59.2708,-16.9664,179.033,1.29639,-144.536,400
1570004202,341.672,59.2708,-16.9664,179.033,1.29639,-144.536,400
1570004202,341.672,59.2708,-16.9664,179.033,1.29639,-144.536,396
1570004202,341.672,59.2708,-16.9664,179.033,1.29639,-144.536,396
1570004202,341.672,59.3824,-16.9664,179.033,1.29639,-144.536,396
1570004202,341.672,59.3824,-16.9664,179.033,1.29639,-144.536,396
1570004202,341.672,59.3824,-16.9664,179.033,1.29639,-144.536,396
1570004202,341.672,59.3824,-16.9664,179.055,1.29639,-144.536,396
1570004202,341.672,59.3824,-16.9664,179.055,1.29639,-144.536,392
1570004202,341.672,59.3824,-16.9664,179.055,1.29639,-144.536,392
1570004202,341.672,59.3824,-16.9664,179.055,1.29639,-144.536,392
1570004202,341.672,59.3824,-16.9664,179.055,1.29639,-144.536,392
1570004202,341.672,59.3824,-16.9664,179.055,1.29639,-144.536,392
1570004202,341.672,59.3824,-16.9664,179.055,1.29639,-144.536,392
1570004202,341.672,59.3824,-16.9664,179.033,1.29639,-144.536,392
1570004202,341.672,59.3824,-16.9664,179.033,1.29639,-144.536,392
1570004202,341.672,59.3824,-16.9664,179.033,1.29639,-144.536,392
1570004202,341.672,59.3824,-16.9664,179.033,1.29639,-144.536,392
1570004202,341.672,59.3824,-16.9664,179.033,1.29639,-144.536,392
1570004202,341.672,59.3824,-16.9664,179.033,1.29639,-144.536,392
1570004202,341.672,59.2708,-16.9664,179.033,1.29639,-144.536,392
1570004202,341.672,59.2708,-16.9664,179.033,1.29639,-144.536,392
1570004202,341.672,59.3824,-16.9664,179.033,1.29639,-144.536,392
1570004202,341.672,59.3824,-16.9664,179.055,1.29639,-144.536,392
1570004202,341.672,59.3824,-16.9664,179.055,1.29639,-144.536,392
1570004202,341.672,59.3824,-16.9664,179.055,1.29639,-144.536,392
1570004202,341.672,59.3824,-16.9664,179.055,1.29639,-144.536,388
1570004202,341.672,59.3824,-16.9664,179.055,1.29639,-144.536,388
1570004202,341.672,59.3824,-16.9664,179.055,1.29639,-144.536,388
1570004202,341.672,59.3824,-16.9664,179.055,1.29639,-144.536,388
1570004202,341.672,59.3824,-16.9664,179.055,1.29639,-144.536,388
1570004202,341.672,59.3824,-16.9664,179.055,1.29639,-144.536,388
1570004202,341.672,59.3824,-16.9664,179.055,1.29639,-144.536,388
1570004203,341.672,59.3824,-16.9664,179.055,1.29639,-144.536,388
1570004203,341.672,59.3824,-16.9664,179.055,1.29639,-144.536,388
1570004203,341.672,59.3824,-16.9664,179.055,1.29639,-144.536,384
1570004203,341.672,59.3824,-16.9664,179.055,1.29639,-144.536,384
1570004203,341.672,59.3824,-16.9664,179.055,1.29639,-144.536,384
1570004203,341.672,59.3824,-16.9664,179.055,1.29639,-144.536,384
1570004203,341.672,59.3824,-16.9664,179.055,1.29639,-144.536,384
1570004203,341.672,59.3824,-16.9664,179.055,1.29639,-144.536,384
1570004203,341.672,59.3824,-16.9664,179.055,1.29639,-144.536,384
1570004203,341.561,59.3824,-16.9664,179.055,1.29639,-144.536,384
1570004203,341.561,59.3824,-16.9664,179.055,1.29639,-144.536,384
1570004203,341.561,59.3824,-16.9664,179.055,1.29639,-144.536,384
1570004203,341.561,59.3824,-16.9664,179.055,1.27441,-144.536,384
1570004203,341.561,59.3824,-16.9664,179.055,1.27441,-144.536,384
1570004203,341.561,59.3824,-16.9664,179.055,1.27441,-144.536,384
1570004203,341.561,59.3824,-16.9664,179.055,1.27441,-144.536,388
1570004203,341.561,59.3824,-16.9664,179.055,1.27441,-144.536,388
1570004203,341.561,59.3824,-16.9664,179.055,1.27441,-144.536,388
1570004203,341.561,59.3824,-16.9664,179.055,1.27441,-144.536,388
1570004203,341.561,59.3824,-16.9664,179.055,1.27441,-144.536,388
1570004203,341.561,59.3824,-16.9664,179.055,1.27441,-144.536,388
1570004203,341.561,59.3824,-16.9664,179.055,1.27441,-144.536,388
1570004203,341.561,59.3824,-16.9664,179.055,1.29639,-144.536,388
1570004203,341.561,59.3824,-16.9664,179.055,1.29639,-144.536,388
1570004203,341.561,59.3824,-16.9664,179.055,1.29639,-144.536,388
1570004203,341.561,59.3824,-16.9664,179.055,1.29639,-144.536,388
1570004203,341.561,59.3824,-16.9664,179.055,1.29639,-144.536,388
1570004203,341.561,59.3824,-16.9664,179.055,1.29639,-144.536,392
1570004203,341.561,59.3824,-16.9664,179.055,1.29639,-144.536,392
1570004203,341.561,59.3824,-16.9664,179.055,1.29639,-144.536,392
1570004203,341.672,59.3824,-16.9664,179.055,1.29639,-144.536,392
1570004203,341.672,59.3824,-16.9664,179.055,1.29639,-144.536,392
1570004203,341.672,59.3824,-16.9664,179.055,1.29639,-144.536,392
1570004203,341.672,59.3824,-16.9664,179.055,1.29639,-144.536,392
1570004203,341.672,59.3824,-16.9664,179.055,1.29639,-144.536,392
1570004203,341.672,59.3824,-16.9664,179.055,1.27441,-144.536,392
1570004203,341.672,59.3824,-16.9664,179.055,1.27441,-144.558,392
1570004203,341.672,59.3824,-16.9664,179.055,1.27441,-144.558,392
1570004203,341.672,59.3824,-16.9664,179.055,1.27441,-144.558,392
1570004203,341.561,59.2708,-16.9664,179.033,1.27441,-144.558,392
1570004203,341.561,59.2708,-16.9664,179.033,1.27441,-144.558,392
1570004203,341.561,59.2708,-16.9664,179.033,1.27441,-144.558,392
1570004203,341.561,59.2708,-16.9664,179.033,1.27441,-144.558,392
1570004203,341.561,59.2708,-16.9664,179.033,1.27441,-144.558,392
1570004203,341.561,59.2708,-16.9664,179.033,1.27441,-144.558,392
1570004203,341.561,59.2708,-16.9664,179.033,1.27441,-144.558,396
1570004203,341.561,59.2708,-16.9664,179.033,1.27441,-144.558,396
1570004203,341.561,59.2708,-16.9664,179.033,1.27441,-144.558,396
1570004203,341.561,59.2708,-16.9664,179.033,1.27441,-144.558,396
1570004203,341.561,59.2708,-16.9664,179.033,1.27441,-144.558,396
1570004203,341.561,59.2708,-16.9664,179.033,1.27441,-144.558,396
1570004203,341.561,59.2708,-16.9664,179.033,1.27441,-144.558,396
1570004203,341.561,59.2708,-16.9664,179.055,1.27441,-144.558,396
1570004203,341.561,59.2708,-16.9664,179.055,1.27441,-144.558,396
1570004203,341.561,59.2708,-16.9664,179.055,1.27441,-144.558,396
1570004203,341.561,59.2708,-16.9664,179.055,1.27441,-144.558,396
1570004203,341.561,59.2708,-16.9664,179.055,1.27441,-144.558,396
1570004203,341.561,59.2708,-16.9664,179.055,1.27441,-144.558,396
1570004203,341.561,59.2708,-16.9664,179.055,1.27441,-144.558,396
1570004203,341.561,59.2708,-16.9664,179.055,1.27441,-144.558,396
1570004203,341.561,59.2708,-16.9664,179.055,1.27441,-144.558,396
1570004203,341.561,59.2708,-16.9664,179.055,1.27441,-144.558,396
1570004203,341.561,59.2708,-16.9664,179.055,1.27441,-144.558,396
1570004203,341.561,59.2708,-16.9664,179.055,1.27441,-144.558,396
1570004203,341.561,59.2708,-16.9664,179.055,1.27441,-144.558,396
1570004203,341.561,59.2708,-16.9664,179.055,1.27441,-144.558,396
1570004203,341.561,59.2708,-16.9664,179.055,1.27441,-144.558,396
1570004203,341.561,59.2708,-16.9664,179.055,1.27441,-144.558,396
1570004203,341.561,59.2708,-16.9664,179.055,1.27441,-144.558,396
1570004203,341.561,59.2708,-16.9664,179.055,1.27441,-144.558,392
1570004203,341.561,59.2708,-16.9664,179.055,1.27441,-144.558,392
1570004203,341.561,59.2708,-16.9664,179.055,1.27441,-144.558,392
1570004203,341.561,59.2708,-16.9664,179.055,1.29639,-144.558,392
1570004203,341.561,59.2708,-16.9664,179.055,1.29639,-144.558,392
1570004203,341.561,59.3824,-16.9664,179.055,1.29639,-144.558,392
1570004203,341.561,59.3824,-16.9664,179.055,1.29639,-144.558,392
1570004203,341.561,59.3824,-16.9664,179.055,1.29639,-144.558,392
1570004203,341.561,59.3824,-16.9664,179.055,1.29639,-144.558,392
1570004203,341.561,59.3824,-16.9664,179.055,1.29639,-144.558,392
1570004203,341.561,59.3824,-16.9664,179.055,1.29639,-144.558,392
1570004203,341.561,59.3824,-16.9664,179.055,1.29639,-144.558,392
1570004203,341.561,59.3824,-16.9664,179.055,1.29639,-144.558,392
1570004203,341.561,59.3824,-16.9664,179.055,1.29639,-144.558,392
1570004203,341.561,59.3824,-16.9664,179.055,1.29639,-144.558,392
1570004203,341.561,59.3824,-16.9664,179.055,1.29639,-144.58,392
1570004203,341.561,59.3824,-16.9664,179.055,1.29639,-144.58,392
1570004203,341.561,59.3824,-16.9664,179.055,1.29639,-144.58,392
1570004203,341.561,59.3824,-16.9664,179.055,1.29639,-144.58,392
1570004203,341.561,59.3824,-16.9664,179.055,1.29639,-144.558,392
1570004203,341.561,59.3824,-16.9664,179.055,1.29639,-144.558,392
1570004203,341.561,59.3824,-16.9664,179.055,1.29639,-144.558,392
1570004203,341.561,59.3824,-16.9664,179.055,1.27441,-144.558,392
1570004203,341.561,59.3824,-16.9664,179.055,1.27441,-144.558,392
1570004203,341.561,59.3824,-16.9664,179.055,1.27441,-144.558,392
1570004203,341.561,59.3824,-16.9664,179.055,1.27441,-144.558,392
1570004203,341.561,59.3824,-16.9664,179.055,1.27441,-144.558,392
1570004203,341.561,59.3824,-16.9664,179.055,1.27441,-144.558,392
1570004203,341.561,59.3824,-16.9664,179.055,1.27441,-144.558,392
1570004203,341.561,59.3824,-16.9664,179.055,1.27441,-144.558,392
1570004203,341.561,59.3824,-16.9664,179.055,1.27441,-144.558,396
1570004204,341.561,59.3824,-16.9664,179.055,1.27441,-144.558,396
1570004204,341.561,59.3824,-16.9664,179.055,1.27441,-144.558,396
1570004204,341.561,59.3824,-16.9664,179.055,1.27441,-144.558,396
1570004204,341.561,59.3824,-16.9664,179.055,1.27441,-144.558,396
1570004204,341.561,59.3824,-16.9664,179.077,1.27441,-144.558,396
1570004204,341.561,59.3824,-16.9664,179.077,1.27441,-144.558,400
1570004204,341.561,59.3824,-16.9664,179.077,1.27441,-144.558,400
1570004204,341.561,59.3824,-16.9664,179.077,1.27441,-144.558,400
1570004204,341.561,59.3824,-16.9664,179.077,1.27441,-144.558,400
1570004204,341.561,59.3824,-16.9664,179.077,1.27441,-144.558,400
1570004204,341.561,59.3824,-16.9664,179.077,1.27441,-144.558,400
1570004204,341.561,59.3824,-16.9664,179.077,1.27441,-144.558,400
1570004204,341.561,59.3824,-16.9664,179.077,1.27441,-144.558,404
1570004204,341.561,59.3824,-16.9664,179.077,1.27441,-144.558,404
1570004204,341.561,59.3824,-16.9664,179.077,1.27441,-144.558,404
1570004204,341.561,59.3824,-16.9664,179.077,1.27441,-144.558,404
1570004204,341.561,59.3824,-16.9664,179.055,1.27441,-144.58,404
1570004204,341.561,59.3824,-16.9664,179.055,1.27441,-144.58,404
1570004204,341.561,59.3824,-16.9664,179.055,1.27441,-144.58,404
1570004204,341.561,59.3824,-16.9664,179.055,1.27441,-144.58,404
1570004204,341.561,59.3824,-16.9664,179.055,1.27441,-144.58,404
1570004204,341.561,59.3824,-16.9664,179.055,1.27441,-144.58,408
1570004204,341.561,59.3824,-16.9664,179.055,1.27441,-144.58,408
1570004204,341.561,59.3824,-16.9664,179.055,1.27441,-144.58,408
1570004204,341.561,59.3824,-16.9664,179.055,1.27441,-144.58,408
1570004204,341.561,59.3824,-16.9664,179.055,1.27441,-144.58,408
1570004204,341.561,59.3824,-16.9664,179.055,1.27441,-144.58,408
1570004204,341.561,59.3824,-16.9664,179.055,1.27441,-144.58,408
1570004204,341.561,59.3824,-16.9664,179.055,1.27441,-144.58,408
1570004204,341.561,59.3824,-16.9664,179.055,1.29639,-144.58,408
1570004204,341.561,59.3824,-16.9664,179.055,1.29639,-144.58,404
1570004204,341.561,59.3824,-16.9664,179.055,1.29639,-144.558,404
1570004204,341.561,59.3824,-16.9664,179.055,1.29639,-144.558,404
1570004204,341.561,59.3824,-16.9664,179.055,1.29639,-144.558,404
1570004204,341.561,59.3824,-16.9664,179.055,1.29639,-144.558,404
1570004204,341.561,59.3824,-16.9664,179.055,1.29639,-144.558,404
1570004204,341.561,59.3824,-16.9664,179.055,1.29639,-144.558,404
1570004204,341.561,59.3824,-16.9664,179.055,1.27441,-144.558,404
1570004204,341.672,59.3824,-16.9664,179.055,1.27441,-144.558,400
1570004204,341.672,59.3824,-16.9664,179.055,1.27441,-144.558,400
1570004204,341.672,59.3824,-16.9664,179.055,1.27441,-144.558,400
1570004204,341.672,59.3824,-16.9664,179.033,1.27441,-144.558,400
1570004204,341.672,59.3824,-16.9664,179.033,1.27441,-144.558,396
1570004204,341.672,59.3824,-16.9664,179.033,1.27441,-144.558,396
1570004204,341.672,59.3824,-16.9664,179.033,1.27441,-144.558,396
1570004204,341.672,59.3824,-16.9664,179.033,1.27441,-144.558,396
1570004204,341.672,59.3824,-16.9664,179.033,1.27441,-144.558,392
1570004204,341.672,59.3824,-16.9664,179.033,1.27441,-144.558,392
1570004204,341.672,59.3824,-16.9664,179.033,1.27441,-144.558,392
1570004204,341.672,59.3824,-16.9664,179.033,1.27441,-144.558,388
1570004204,341.672,59.3824,-16.9664,179.033,1.27441,-144.558,388
1570004204,341.672,59.3824,-16.9664,179.033,1.27441,-144.558,388
1570004204,341.672,59.3824,-16.9664,179.055,1.27441,-144.558,388
1570004204,341.672,59.3824,-16.9664,179.055,1.27441,-144.558,388
1570004204,341.672,59.3824,-16.9664,179.055,1.27441,-144.558,384
1570004204,341.672,59.3824,-16.9664,179.055,1.27441,-144.558,384
1570004204,341.672,59.3824,-16.9664,179.055,1.27441,-144.558,384
1570004204,341.672,59.3824,-16.9664,179.055,1.27441,-144.558,384
1570004204,341.672,59.3824,-16.9664,179.055,1.27441,-144.558,384
1570004204,341.672,59.3824,-16.9664,179.055,1.27441,-144.558,384
1570004204,341.672,59.3824,-16.9664,179.055,1.27441,-144.558,380
1570004204,341.672,59.3824,-16.9664,179.055,1.27441,-144.558,380
1570004204,341.672,59.3824,-16.9664,179.055,1.27441,-144.558,380
1570004204,341.672,59.3824,-16.9664,179.055,1.27441,-144.558,380
1570004204,341.672,59.3824,-16.9664,179.055,1.29639,-144.558,380
1570004204,341.672,59.3824,-16.9664,179.055,1.29639,-144.558,380
1570004204,341.672,59.3824,-16.9664,179.055,1.29639,-144.558,380
1570004204,341.672,59.3824,-16.9664,179.055,1.29639,-144.558,380
1570004204,341.672,59.3824,-16.9664,179.055,1.29639,-144.58,380
1570004204,341.672,59.3824,-16.9664,179.055,1.29639,-144.58,380
1570004204,341.672,59.3824,-16.9664,179.055,1.29639,-144.58,380
1570004204,341.672,59.3824,-16.9664,179.055,1.29639,-144.58,380
1570004204,341.672,59.3824,-16.9664,179.055,1.29639,-144.58,380
1570004204,341.672,59.3824,-16.9664,179.055,1.29639,-144.58,380
1570004204,341.672,59.3824,-16.9664,179.055,1.29639,-144.58,380
1570004204,341.672,59.3824,-16.9664,179.055,1.29639,-144.58,380
1570004204,341.672,59.3824,-16.9664,179.055,1.29639,-144.58,380
1570004204,341.672,59.3824,-16.9664,179.055,1.29639,-144.58,380
1570004204,341.672,59.3824,-16.9664,179.055,1.29639,-144.58,380
1570004204,341.672,59.3824,-16.9664,179.055,1.29639,-144.58,384
1570004204,341.672,59.3824,-16.9664,179.055,1.29639,-144.58,384
1570004204,341.672,59.3824,-16.9664,179.055,1.29639,-144.58,384
1570004204,341.672,59.3824,-16.9664,179.055,1.29639,-144.58,384
1570004204,341.672,59.3824,-16.9664,179.055,1.29639,-144.58,384
1570004204,341.672,59.3824,-16.9664,179.055,1.29639,-144.58,384
1570004204,341.672,59.3824,-16.9664,179.055,1.29639,-144.58,384
1570004204,341.672,59.3824,-16.9664,179.055,1.27441,-144.58,384
1570004204,341.672,59.3824,-16.9664,179.055,1.27441,-144.58,384
1570004204,341.672,59.3824,-16.9664,179.055,1.27441,-144.58,384
1570004204,341.672,59.3824,-16.9664,179.055,1.27441,-144.58,388
1570004204,341.672,59.3824,-16.9664,179.055,1.27441,-144.58,388
1570004204,341.672,59.3824,-16.9664,179.055,1.27441,-144.58,388
1570004204,341.672,59.3824,-16.9664,179.055,1.27441,-144.58,388
1570004204,341.672,59.3824,-16.9664,179.055,1.29639,-144.58,388
1570004204,341.672,59.3824,-16.9664,179.055,1.29639,-144.558,388
1570004204,341.672,59.3824,-16.9664,179.055,1.29639,-144.558,392
1570004204,341.672,59.3824,-16.9664,179.055,1.29639,-144.558,392
1570004204,341.672,59.3824,-16.9664,179.055,1.29639,-144.558,392
1570004204,341.672,59.3824,-16.9664,179.055,1.29639,-144.558,392
1570004204,341.672,59.3824,-16.9664,179.055,1.29639,-144.558,392
1570004205,341.672,59.3824,-16.9664,179.055,1.29639,-144.558,392
1570004205,341.672,59.3824,-16.9664,179.055,1.29639,-144.558,392
1570004205,341.672,59.3824,-16.9664,179.055,1.29639,-144.558,388
1570004205,341.672,59.3824,-16.9664,179.055,1.29639,-144.558,388
1570004205,341.672,59.3824,-16.9664,179.055,1.29639,-144.558,388
1570004205,341.672,59.3824,-16.9664,179.055,1.29639,-144.558,388
1570004205,341.672,59.3824,-16.8548,179.055,1.31836,-144.558,388
1570004205,341.672,59.3824,-16.8548,179.055,1.31836,-144.558,388
1570004205,341.672,59.3824,-16.8548,179.055,1.31836,-144.558,388
1570004205,341.672,59.3824,-16.8548,179.055,1.31836,-144.558,388
1570004205,341.672,59.3824,-16.8548,179.055,1.31836,-144.558,388
1570004205,341.672,59.3824,-16.8548,179.055,1.31836,-144.558,388
1570004205,341.672,59.3824,-16.8548,179.055,1.31836,-144.558,388
1570004205,341.672,59.3824,-16.8548,179.055,1.31836,-144.558,388
1570004205,341.672,59.3824,-16.8548,179.055,1.34033,-144.558,388
1570004205,341.672,59.3824,-16.8548,179.055,1.34033,-144.558,388
1570004205,341.672,59.3824,-16.8548,179.055,1.34033,-144.558,388
1570004205,341.672,59.3824,-16.8548,179.055,1.34033,-144.558,388
1570004205,341.672,59.3824,-16.8548,179.055,1.34033,-144.558,388
1570004205,341.672,59.3824,-16.8548,179.055,1.34033,-144.558,388
1570004205,341.672,59.2708,-16.8548,179.033,1.34033,-144.558,388
1570004205,341.672,59.2708,-16.8548,179.033,1.31836,-144.558,388
1570004205,341.672,59.2708,-16.8548,179.033,1.31836,-144.558,392
1570004205,341.672,59.2708,-16.8548,179.033,1.31836,-144.558,392
1570004205,341.672,59.2708,-16.8548,179.033,1.31836,-144.558,392
1570004205,341.672,59.2708,-16.8548,179.033,1.31836,-144.558,392
1570004205,341.672,59.2708,-16.8548,179.033,1.31836,-144.558,392
1570004205,341.672,59.2708,-16.8548,179.033,1.31836,-144.558,392
1570004205,341.672,59.2708,-16.8548,179.033,1.31836,-144.558,392
1570004205,341.672,59.2708,-16.8548,179.033,1.31836,-144.558,392
1570004205,341.672,59.2708,-16.8548,179.033,1.31836,-144.558,392
1570004205,341.672,59.2708,-16.8548,179.033,1.31836,-144.558,392
1570004205,341.672,59.2708,-16.8548,179.033,1.31836,-144.558,392
1570004205,341.672,59.2708,-16.8548,179.011,1.31836,-144.558,392
1570004205,341.672,59.2708,-16.9664,179.011,1.31836,-144.558,396
1570004205,341.561,59.2708,-16.9664,179.033,1.29639,-144.558,396
1570004205,341.561,59.2708,-16.9664,179.033,1.29639,-144.558,396
1570004205,341.561,59.2708,-16.9664,179.033,1.29639,-144.558,396
1570004205,341.561,59.2708,-16.9664,179.033,1.29639,-144.558,396
1570004205,341.561,59.2708,-16.9664,179.033,1.29639,-144.558,396
1570004205,341.561,59.2708,-16.9664,179.033,1.29639,-144.558,400
1570004205,341.561,59.2708,-16.9664,179.033,1.29639,-144.558,400
1570004205,341.561,59.2708,-16.9664,179.033,1.29639,-144.558,400
1570004205,341.561,59.2708,-16.9664,179.055,1.29639,-144.558,400
1570004205,341.561,59.3824,-16.9664,179.055,1.29639,-144.558,400
1570004205,341.561,59.3824,-16.9664,179.055,1.29639,-144.558,400
1570004205,341.561,59.3824,-16.9664,179.055,1.29639,-144.536,400
1570004205,341.561,59.3824,-16.9664,179.055,1.27441,-144.536,400
1570004205,341.561,59.3824,-16.9664,179.055,1.27441,-144.536,400
1570004205,341.561,59.3824,-16.9664,179.055,1.27441,-144.536,400
1570004205,341.561,59.3824,-16.9664,179.055,1.27441,-144.536,400
1570004205,341.561,59.3824,-16.9664,179.055,1.27441,-144.536,400
1570004205,341.561,59.3824,-16.9664,179.055,1.27441,-144.536,400
1570004205,341.561,59.3824,-16.9664,179.055,1.27441,-144.536,400
1570004205,341.561,59.3824,-16.9664,179.055,1.27441,-144.536,400
1570004205,341.561,59.3824,-16.9664,179.055,1.27441,-144.536,400
1570004205,341.561,59.3824,-16.9664,179.055,1.27441,-144.536,400
1570004205,341.561,59.3824,-16.9664,179.055,1.27441,-144.536,400
1570004205,341.561,59.3824,-16.9664,179.055,1.27441,-144.536,400
1570004205,341.561,59.3824,-16.9664,179.055,1.27441,-144.536,400
1570004205,341.561,59.3824,-16.9664,179.055,1.27441,-144.536,404
1570004205,341.561,59.3824,-16.9664,179.055,1.27441,-144.536,404
1570004205,341.561,59.3824,-16.9664,179.055,1.27441,-144.536,404
1570004205,341.561,59.3824,-16.9664,179.055,1.27441,-144.536,404
1570004205,341.561,59.3824,-16.9664,179.055,1.27441,-144.536,408
1570004205,341.561,59.3824,-16.9664,179.055,1.27441,-144.536,408
1570004205,341.561,59.3824,-16.9664,179.055,1.27441,-144.536,408
1570004205,341.561,59.2708,-16.9664,179.055,1.27441,-144.536,408
1570004205,341.561,59.2708,-16.9664,179.055,1.27441,-144.536,408
1570004205,341.561,59.2708,-16.9664,179.055,1.27441,-144.536,412
1570004205,341.561,59.2708,-16.9664,179.055,1.27441,-144.536,412
1570004205,341.561,59.2708,-16.9664,179.055,1.27441,-144.536,412
1570004205,341.561,59.2708,-16.9664,179.055,1.27441,-144.536,412
1570004205,341.561,59.2708,-16.9664,179.055,1.27441,-144.536,412
1570004205,341.561,59.2708,-16.9664,179.055,1.27441,-144.536,412
1570004205,341.561,59.2708,-16.9664,179.033,1.27441,-144.536,412
1570004205,341.561,59.2708,-16.9664,179.033,1.29639,-144.536,412
1570004205,341.561,59.2708,-16.9664,179.033,1.29639,-144.536,412
1570004205,341.561,59.2708,-16.9664,179.033,1.29639,-144.536,412
1570004205,341.561,59.2708,-16.9664,179.033,1.29639,-144.536,412
1570004205,341.561,59.2708,-16.9664,179.033,1.29639,-144.536,412
1570004205,341.561,59.2708,-16.9664,179.033,1.29639,-144.536,412
1570004205,341.561,59.2708,-16.9664,179.033,1.29639,-144.536,408
1570004205,341.561,59.2708,-16.9664,179.033,1.29639,-144.536,408
1570004205,341.561,59.2708,-16.9664,179.033,1.29639,-144.536,408
1570004205,341.561,59.2708,-16.9664,179.033,1.29639,-144.536,408
1570004205,341.561,59.2708,-16.9664,179.055,1.29639,-144.536,408
1570004205,341.561,59.2708,-16.9664,179.055,1.29639,-144.536,404
1570004205,341.561,59.2708,-16.9664,179.055,1.29639,-144.536,404
1570004205,341.561,59.2708,-16.9664,179.055,1.29639,-144.536,404
1570004205,341.561,59.2708,-16.9664,179.055,1.29639,-144.536,404
1570004205,341.561,59.2708,-16.9664,179.055,1.29639,-144.536,400
1570004205,341.561,59.2708,-16.9664,179.055,1.29639,-144.536,400
1570004205,341.561,59.2708,-16.9664,179.055,1.29639,-144.536,400
1570004205,341.561,59.2708,-16.9664,179.055,1.29639,-144.536,400
1570004205,341.561,59.2708,-16.9664,179.055,1.29639,-144.536,396
1570004205,341.561,59.2708,-16.9664,179.055,1.29639,-144.536,396
1570004205,341.561,59.2708,-16.9664,179.055,1.29639,-144.536,396
1570004205,341.561,59.2708,-16.9664,179.055,1.29639,-144.536,396
1570004205,341.561,59.2708,-16.9664,179.055,1.29639,-144.536,396
1570004205,341.561,59.2708,-16.9664,179.055,1.29639,-144.536,396
1570004206,341.561,59.2708,-16.9664,179.055,1.29639,-144.536,396
1570004206,341.561,59.2708,-16.9664,179.055,1.29639,-144.536,392
1570004206,341.561,59.2708,-16.9664,179.055,1.29639,-144.536,392
1570004206,341.561,59.2708,-16.9664,179.055,1.29639,-144.536,392
1570004206,341.561,59.2708,-16.9664,179.055,1.29639,-144.536,392
1570004206,341.561,59.2708,-16.9664,179.055,1.27441,-144.558,392
1570004206,341.561,59.2708,-16.9664,179.055,1.27441,-144.558,392
1570004206,341.561,59.2708,-16.9664,179.055,1.27441,-144.558,392
1570004206,341.561,59.2708,-16.9664,179.055,1.27441,-144.558,392
1570004206,341.561,59.3824,-16.9664,179.055,1.27441,-144.558,392
1570004206,341.561,59.3824,-16.9664,179.055,1.27441,-144.558,388
1570004206,341.561,59.3824,-16.9664,179.055,1.27441,-144.558,388
1570004206,341.561,59.3824,-16.9664,179.055,1.27441,-144.558,388
1570004206,341.561,59.3824,-16.9664,179.055,1.27441,-144.558,388
1570004206,341.561,59.3824,-16.9664,179.055,1.27441,-144.558,388
1570004206,341.561,59.3824,-16.9664,179.055,1.27441,-144.558,388
1570004206,341.561,59.3824,-16.9664,179.077,1.27441,-144.558,388
1570004206,341.561,59.3824,-16.9664,179.077,1.27441,-144.558,388
1570004206,341.561,59.3824,-16.9664,179.077,1.27441,-144.558,388
1570004206,341.561,59.3824,-16.9664,179.077,1.29639,-144.558,388
1570004206,341.561,59.3824,-16.9664,179.055,1.29639,-144.558,388
1570004206,341.561,59.3824,-16.9664,179.055,1.29639,-144.558,388
1570004206,341.672,59.3824,-16.9664,179.055,1.29639,-144.558,388
1570004206,341.672,59.3824,-16.9664,179.055,1.29639,-144.558,388
1570004206,341.672,59.3824,-16.9664,179.055,1.29639,-144.558,388
1570004206,341.672,59.3824,-16.9664,179.055,1.29639,-144.558,388
1570004206,341.672,59.3824,-16.8548,179.055,1.29639,-144.558,388
1570004206,341.672,59.3824,-16.8548,179.055,1.29639,-144.558,388
1570004206,341.672,59.3824,-16.8548,179.055,1.29639,-144.558,384
1570004206,341.672,59.2708,-16.8548,179.033,1.29639,-144.558,384
1570004206,341.672,59.2708,-16.8548,179.033,1.29639,-144.558,384
1570004206,341.672,59.2708,-16.8548,179.033,1.31836,-144.558,384
1570004206,341.672,59.2708,-16.8548,179.033,1.31836,-144.558,384
1570004206,341.672,59.2708,-16.8548,179.033,1.31836,-144.558,384
1570004206,341.672,59.2708,-16.8548,179.033,1.31836,-144.558,384
1570004206,341.672,59.2708,-16.8548,179.033,1.31836,-144.558,384
1570004206,341.672,59.2708,-16.8548,179.033,1.31836,-144.558,384
1570004206,341.561,59.2708,-16.8548,179.011,1.31836,-144.558,384
1570004212,380.07,18.5291,-16.0734,179.121,1.75781,-144.844,480
1570004212,380.07,18.5291,-16.0734,179.121,1.75781,-144.844,480
1570004212,380.07,18.5291,-16.0734,179.121,1.75781,-144.844,480
1570004212,380.07,18.5291,-16.0734,179.121,1.75781,-144.844,476
1570004212,380.07,18.5291,-16.0734,179.121,1.75781,-144.844,476
1570004212,380.07,18.6407,-16.0734,179.121,1.75781,-144.844,476
1570004212,380.07,18.6407,-16.0734,179.121,1.75781,-144.844,476
1570004212,380.07,18.6407,-16.0734,179.121,1.75781,-144.844,476
1570004212,380.07,18.6407,-16.0734,179.121,1.75781,-144.844,476
1570004212,380.07,18.6407,-16.0734,179.121,1.75781,-144.844,476
1570004212,380.07,18.6407,-16.0734,179.121,1.75781,-144.844,476
1570004212,380.07,18.6407,-16.0734,179.121,1.75781,-144.844,472
1570004212,380.07,18.6407,-16.0734,179.121,1.75781,-144.844,472
1570004212,380.07,18.6407,-16.0734,179.143,1.75781,-144.844,472
1570004212,380.07,18.6407,-16.0734,179.143,1.75781,-144.844,472
1570004212,380.07,18.6407,-15.9618,179.143,1.77979,-144.844,472
1570004212,380.07,18.6407,-15.9618,179.143,1.77979,-144.844,472
1570004212,380.07,18.6407,-15.9618,179.143,1.77979,-144.844,472
1570004212,380.07,18.6407,-15.9618,179.143,1.77979,-144.844,472
1570004212,380.07,18.6407,-15.9618,179.143,1.77979,-144.844,472
1570004212,380.07,18.6407,-15.9618,179.143,1.77979,-144.844,472
1570004212,380.07,18.5291,-15.9618,179.121,1.77979,-144.844,472
1570004212,380.07,18.5291,-15.9618,179.121,1.77979,-144.844,472
1570004212,380.07,18.5291,-15.9618,179.121,1.77979,-144.844,472
1570004212,380.07,18.5291,-15.9618,179.121,1.77979,-144.844,472
1570004212,380.07,18.5291,-15.9618,179.121,1.77979,-144.844,472
1570004212,380.07,18.5291,-15.9618,179.121,1.77979,-144.844,476
1570004212,380.07,18.5291,-15.9618,179.121,1.77979,-144.844,476
1570004212,380.07,18.5291,-15.9618,179.121,1.75781,-144.844,476
1570004212,380.07,18.5291,-16.0734,179.121,1.75781,-144.844,480
1570004212,380.07,18.5291,-16.0734,179.121,1.75781,-144.844,480
1570004212,380.07,18.5291,-16.0734,179.121,1.75781,-144.844,480
1570004212,380.07,18.5291,-16.0734,179.121,1.75781,-144.844,480
1570004212,380.07,18.5291,-16.0734,179.121,1.75781,-144.844,480
1570004212,380.07,18.5291,-16.0734,179.121,1.73584,-144.844,480
1570004212,380.07,18.5291,-16.0734,179.121,1.73584,-144.844,480
1570004212,380.07,18.5291,-16.0734,179.099,1.73584,-144.844,476
1570004212,380.07,18.5291,-16.0734,179.121,1.73584,-144.844,476
1570004212,380.07,18.5291,-16.0734,179.099,1.75781,-144.844,476
1570004212,380.07,18.5291,-16.0734,179.099,1.75781,-144.844,476
1570004212,380.07,18.5291,-16.0734,179.099,1.75781,-144.844,476
1570004212,380.07,18.5291,-16.0734,179.121,1.75781,-144.844,472
1570004212,380.07,18.5291,-16.0734,179.121,1.75781,-144.844,472
1570004212,380.07,18.5291,-15.9618,179.121,1.77979,-144.844,472
1570004212,380.07,18.5291,-15.9618,179.121,1.77979,-144.844,472
1570004212,380.07,18.5291,-15.9618,179.121,1.77979,-144.844,472
1570004212,380.07,18.5291,-15.9618,179.121,1.77979,-144.844,472
1570004212,380.07,18.5291,-15.9618,179.121,1.77979,-144.844,472
1570004212,380.07,18.5291,-15.9618,179.121,1.80176,-144.844,476
1570004212,380.07,18.5291,-15.9618,179.121,1.80176,-144.844,476
1570004212,380.07,18.5291,-15.9618,179.121,1.80176,-144.844,476
1570004212,380.07,18.5291,-15.9618,179.121,1.80176,-144.844,476
1570004212,380.07,18.5291,-15.9618,179.121,1.80176,-144.844,476
1570004212,380.07,18.5291,-15.9618,179.143,1.77979,-144.844,476
1570004212,380.07,18.5291,-15.9618,179.143,1.77979,-144.844,476
1570004212,380.07,18.5291,-15.9618,179.143,1.77979,-144.844,476
1570004212,380.07,18.5291,-15.9618,179.143,1.77979,-144.844,480
1570004212,379.958,18.5291,-15.9618,179.143,1.77979,-144.844,480
1570004212,379.958,18.5291,-15.9618,179.121,1.77979,-144.844,480
1570004212,379.958,18.5291,-15.9618,179.121,1.77979,-144.844,480
1570004212,379.958,18.5291,-15.9618,179.121,1.77979,-144.844,480
1570004212,379.958,18.5291,-15.9618,179.121,1.77979,-144.844,480
1570004212,379.958,18.5291,-15.9618,179.121,1.77979,-144.844,480
1570004212,379.958,18.5291,-15.9618,179.143,1.77979,-144.844,480
1570004212,379.958,18.5291,-15.9618,179.143,1.77979,-144.844,480
1570004212,379.958,18.5291,-15.9618,179.143,1.77979,-144.844,480
1570004212,379.958,18.5291,-16.0734,179.143,1.75781,-144.844,480
1570004212,379.958,18.5291,-16.0734,179.143,1.75781,-144.844,480
1570004212,380.07,18.5291,-16.0734,179.143,1.75781,-144.844,480
1570004212,380.07,18.5291,-16.0734,179.143,1.75781,-144.844,480
1570004212,380.07,18.5291,-16.0734,179.143,1.75781,-144.844,480
1570004212,380.07,18.5291,-16.0734,179.143,1.75781,-144.844,484
1570004212,380.07,18.5291,-16.0734,179.143,1.75781,-144.844,484
1570004212,380.07,18.5291,-16.0734,179.121,1.75781,-144.844,484
1570004212,380.07,18.5291,-16.0734,179.121,1.75781,-144.844,484
1570004212,380.07,18.5291,-16.0734,179.121,1.75781,-144.844,484
1570004213,380.07,18.5291,-16.0734,179.121,1.75781,-144.844,484
1570004213,380.07,18.5291,-16.0734,179.121,1.75781,-144.844,484
1570004213,380.07,18.5291,-16.0734,179.121,1.75781,-144.844,488
1570004213,380.07,18.5291,-16.0734,179.121,1.75781,-144.844,488
1570004213,380.07,18.5291,-16.0734,179.121,1.75781,-144.844,488
1570004213,380.07,18.5291,-16.0734,179.099,1.75781,-144.844,488
1570004213,380.07,18.5291,-16.0734,179.099,1.75781,-144.844,488
1570004213,380.07,18.5291,-16.0734,179.099,1.75781,-144.844,492
1570004213,380.07,18.5291,-16.0734,179.099,1.75781,-144.844,492
1570004213,380.07,18.5291,-16.0734,179.099,1.75781,-144.844,492
1570004213,380.07,18.5291,-16.0734,179.099,1.75781,-144.844,492
1570004213,380.07,18.5291,-16.0734,179.099,1.75781,-144.844,492
1570004213,380.07,18.5291,-16.0734,179.099,1.75781,-144.844,496
1570004213,380.07,18.5291,-16.0734,179.099,1.75781,-144.844,496
1570004213,380.07,18.5291,-16.0734,179.099,1.75781,-144.844,496
1570004213,380.07,18.5291,-16.0734,179.121,1.75781,-144.844,496
1570004213,380.07,18.5291,-16.0734,179.121,1.75781,-144.844,496
1570004213,380.07,18.5291,-16.0734,179.121,1.75781,-144.844,496
1570004213,380.07,18.5291,-16.0734,179.121,1.75781,-144.844,496
1570004213,380.07,18.5291,-16.0734,179.121,1.75781,-144.844,496
1570004213,380.07,18.5291,-16.0734,179.121,1.75781,-144.844,496
1570004213,380.07,18.5291,-16.0734,179.121,1.75781,-144.844,496
1570004213,380.07,18.5291,-16.0734,179.121,1.75781,-144.844,496
1570004213,380.07,18.5291,-15.9618,179.121,1.75781,-144.844,496
1570004213,380.07,18.5291,-15.9618,179.099,1.77979,-144.844,496
1570004213,380.07,18.5291,-15.9618,179.099,1.77979,-144.844,496
1570004213,380.07,18.5291,-15.9618,179.099,1.77979,-144.844,496
1570004213,380.07,18.5291,-15.9618,179.099,1.77979,-144.844,492
1570004213,380.07,18.5291,-15.9618,179.099,1.77979,-144.844,492
1570004213,380.07,18.5291,-15.9618,179.099,1.77979,-144.844,492
1570004213,380.07,18.5291,-15.9618,179.099,1.77979,-144.844,492
1570004213,380.07,18.5291,-15.9618,179.099,1.77979,-144.844,492
1570004213,380.07,18.5291,-15.9618,179.099,1.77979,-144.844,492
1570004213,380.07,18.5291,-15.9618,179.099,1.77979,-144.844,492
1570004213,380.07,18.5291,-15.9618,179.099,1.77979,-144.844,492
1570004213,380.07,18.5291,-15.9618,179.099,1.77979,-144.844,492
1570004213,380.07,18.5291,-15.9618,179.099,1.77979,-144.844,492
1570004213,380.07,18.5291,-15.9618,179.099,1.77979,-144.844,492
1570004213,380.07,18.5291,-16.0734,179.099,1.77979,-144.844,492
1570004213,380.07,18.5291,-16.0734,179.099,1.77979,-144.844,492
1570004213,380.07,18.5291,-16.0734,179.077,1.77979,-144.844,492
1570004213,380.07,18.5291,-16.0734,179.077,1.77979,-144.844,492
1570004213,380.07,18.5291,-16.0734,179.077,1.77979,-144.866,492
1570004213,380.07,18.5291,-16.0734,179.077,1.77979,-144.866,496
1570004213,380.07,18.5291,-16.0734,179.077,1.77979,-144.866,496
1570004213,380.07,18.5291,-15.9618,179.077,1.77979,-144.866,496
1570004213,380.07,18.5291,-15.9618,179.077,1.77979,-144.844,496
1570004213,380.07,18.5291,-15.9618,179.077,1.77979,-144.844,496
1570004213,380.07,18.5291,-15.9618,179.077,1.77979,-144.844,496
1570004213,380.07,18.5291,-15.9618,179.077,1.77979,-144.844,496
1570004213,380.07,18.5291,-15.9618,179.077,1.77979,-144.844,496
1570004213,380.07,18.5291,-15.9618,179.077,1.77979,-144.866,496
1570004213,380.07,18.5291,-15.9618,179.099,1.77979,-144.866,496
1570004213,380.07,18.5291,-15.9618,179.099,1.77979,-144.866,496
1570004213,380.07,18.5291,-15.9618,179.099,1.77979,-144.866,496
1570004213,380.07,18.5291,-15.9618,179.099,1.77979,-144.866,496
1570004213,380.07,18.5291,-15.9618,179.099,1.77979,-144.866,496
1570004213,380.07,18.6407,-15.9618,179.121,1.77979,-144.866,496
1570004213,380.07,18.6407,-15.9618,179.121,1.77979,-144.866,496
1570004213,380.07,18.6407,-15.9618,179.121,1.77979,-144.866,496
1570004213,379.958,18.6407,-15.9618,179.121,1.77979,-144.866,496
1570004213,379.958,18.6407,-15.9618,179.121,1.77979,-144.866,496
1570004213,379.958,18.6407,-15.9618,179.099,1.77979,-144.866,496
1570004213,379.958,18.6407,-16.0734,179.099,1.77979,-144.866,496
1570004213,379.958,18.6407,-16.0734,179.099,1.77979,-144.866,496
1570004213,379.958,18.6407,-16.0734,179.099,1.77979,-144.866,496
1570004213,379.958,18.6407,-16.0734,179.099,1.77979,-144.866,496
1570004213,379.958,18.5291,-16.0734,179.099,1.77979,-144.866,496
1570004213,379.958,18.5291,-16.0734,179.099,1.75781,-144.866,492
1570004213,379.958,18.5291,-16.0734,179.099,1.75781,-144.866,492
1570004213,379.958,18.5291,-16.0734,179.099,1.75781,-144.866,492
1570004213,379.958,18.5291,-16.0734,179.099,1.75781,-144.866,492
1570004213,379.958,18.5291,-16.0734,179.099,1.75781,-144.866,492
1570004213,379.958,18.5291,-16.0734,179.099,1.75781,-144.866,492
1570004213,379.958,18.5291,-16.0734,179.099,1.75781,-144.866,492
1570004213,380.07,18.5291,-16.0734,179.099,1.75781,-144.866,492
1570004213,380.07,18.5291,-16.0734,179.099,1.75781,-144.866,492
1570004213,380.07,18.5291,-16.0734,179.099,1.75781,-144.866,492
1570004213,380.07,18.5291,-16.0734,179.099,1.75781,-144.866,492
1570004213,380.07,18.5291,-16.0734,179.099,1.75781,-144.866,492
1570004213,380.07,18.5291,-16.0734,179.099,1.75781,-144.866,492
1570004213,380.07,18.5291,-16.0734,179.099,1.75781,-144.866,492
1570004213,380.07,18.6407,-16.0734,179.121,1.75781,-144.866,492
1570004213,380.07,18.6407,-16.0734,179.121,1.75781,-144.866,488
1570004213,380.07,18.6407,-16.0734,179.121,1.75781,-144.866,488
1570004213,380.07,18.6407,-16.0734,179.121,1.75781,-144.866,488
1570004213,380.07,18.6407,-16.0734,179.121,1.75781,-144.866,488
1570004213,380.07,18.6407,-16.0734,179.121,1.75781,-144.866,488
1570004213,380.07,18.6407,-16.0734,179.121,1.75781,-144.866,488
1570004213,380.07,18.6407,-16.0734,179.121,1.75781,-144.866,484
1570004213,380.07,18.6407,-16.0734,179.121,1.75781,-144.866,484
1570004213,380.07,18.5291,-16.0734,179.121,1.75781,-144.844,484
1570004213,380.07,18.5291,-16.0734,179.099,1.75781,-144.844,484
1570004213,380.07,18.5291,-16.0734,179.099,1.75781,-144.844,484
1570004213,380.07,18.5291,-16.0734,179.099,1.75781,-144.844,480
1570004213,380.07,18.5291,-16.0734,179.099,1.75781,-144.844,480
1570004213,380.07,18.5291,-16.0734,179.099,1.75781,-144.844,480
1570004213,380.07,18.5291,-16.0734,179.099,1.75781,-144.844,480
1570004213,380.07,18.5291,-16.0734,179.099,1.75781,-144.844,480
1570004213,380.07,18.5291,-16.0734,179.099,1.75781,-144.844,480
1570004214,380.07,18.5291,-16.0734,179.099,1.75781,-144.844,480
1570004214,380.07,18.5291,-16.0734,179.099,1.75781,-144.844,480
1570004214,380.07,18.5291,-16.0734,179.099,1.75781,-144.844,480
1570004214,380.07,18.5291,-16.0734,179.099,1.75781,-144.844,480
1570004214,380.07,18.5291,-16.0734,179.099,1.75781,-144.844,480
1570004214,380.07,18.5291,-16.0734,179.099,1.75781,-144.844,480
1570004214,380.07,18.5291,-16.0734,179.099,1.75781,-144.844,480
1570004214,380.07,18.5291,-16.0734,179.099,1.75781,-144.844,480
1570004214,380.07,18.5291,-15.9618,179.099,1.75781,-144.844,480
1570004214,380.07,18.5291,-15.9618,179.099,1.77979,-144.844,480
1570004214,380.07,18.5291,-15.9618,179.099,1.77979,-144.844,476
1570004214,380.07,18.5291,-15.9618,179.099,1.77979,-144.844,476
1570004214,380.07,18.5291,-15.9618,179.099,1.77979,-144.844,476
1570004214,380.07,18.5291,-15.9618,179.121,1.77979,-144.844,476
1570004214,380.07,18.5291,-15.9618,179.121,1.77979,-144.844,476
1570004214,380.07,18.5291,-15.9618,179.121,1.77979,-144.844,476
1570004214,380.07,18.5291,-15.9618,179.121,1.77979,-144.844,476
1570004214,380.07,18.5291,-15.9618,179.121,1.77979,-144.844,476
1570004214,380.07,18.5291,-15.9618,179.121,1.77979,-144.844,476
1570004214,380.07,18.5291,-15.9618,179.121,1.77979,-144.844,476
1570004214,380.07,18.5291,-15.9618,179.121,1.77979,-144.844,476
1570004214,380.07,18.5291,-15.9618,179.121,1.77979,-144.844,476
1570004214,380.07,18.5291,-15.9618,179.121,1.77979,-144.844,476
1570004214,380.07,18.5291,-15.9618,179.121,1.77979,-144.844,476
1570004214,380.07,18.6407,-15.9618,179.121,1.77979,-144.844,476
1570004214,380.07,18.6407,-15.9618,179.121,1.77979,-144.844,480
1570004214,380.07,18.6407,-15.9618,179.121,1.77979,-144.844,480
1570004214,380.07,18.6407,-15.9618,179.121,1.77979,-144.844,480
1570004214,380.07,18.6407,-15.9618,179.121,1.77979,-144.844,480
1570004214,380.07,18.6407,-15.9618,179.143,1.77979,-144.844,480
1570004214,380.07,18.6407,-15.9618,179.143,1.77979,-144.844,484
1570004214,380.07,18.6407,-15.9618,179.143,1.77979,-144.844,484
1570004214,380.07,18.6407,-15.9618,179.143,1.77979,-144.844,484
1570004214,380.07,18.6407,-15.9618,179.143,1.77979,-144.844,484
1570004214,380.07,18.6407,-15.9618,179.143,1.80176,-144.844,484
1570004214,380.07,18.6407,-15.9618,179.143,1.80176,-144.844,484
1570004214,380.07,18.6407,-15.9618,179.143,1.80176,-144.844,484
1570004214,380.07,18.6407,-15.9618,179.143,1.80176,-144.844,484
1570004214,380.07,18.6407,-15.9618,179.143,1.80176,-144.844,484
1570004214,380.07,18.6407,-15.9618,179.143,1.80176,-144.844,484
1570004214,380.07,18.6407,-15.9618,179.143,1.80176,-144.844,484
1570004214,380.07,18.6407,-15.9618,179.143,1.80176,-144.844,484
1570004214,380.07,18.6407,-15.9618,179.143,1.77979,-144.844,484
1570004214,380.07,18.6407,-15.9618,179.143,1.77979,-144.844,480
1570004214,380.07,18.6407,-15.9618,179.143,1.77979,-144.844,480
1570004214,380.07,18.6407,-15.9618,179.143,1.77979,-144.844,480
1570004214,380.07,18.6407,-16.0734,179.143,1.77979,-144.844,480
1570004214,380.07,18.6407,-16.0734,179.143,1.77979,-144.844,480
1570004214,380.07,18.6407,-16.0734,179.143,1.75781,-144.844,480
1570004214,380.07,18.6407,-16.0734,179.143,1.75781,-144.844,480
1570004214,380.07,18.6407,-16.0734,179.143,1.75781,-144.844,480
1570004214,380.07,18.6407,-16.0734,179.143,1.75781,-144.844,480
1570004214,380.07,18.6407,-16.0734,179.143,1.75781,-144.844,480
1570004214,380.07,18.6407,-16.0734,179.143,1.75781,-144.844,480
1570004214,380.07,18.6407,-16.0734,179.143,1.75781,-144.844,480
1570004214,380.07,18.6407,-16.0734,179.143,1.77979,-144.844,480
1570004214,380.07,18.6407,-15.9618,179.143,1.77979,-144.844,480
1570004214,380.07,18.6407,-15.9618,179.143,1.77979,-144.844,480
1570004214,380.07,18.6407,-15.9618,179.143,1.77979,-144.844,480
1570004214,380.07,18.6407,-15.9618,179.143,1.77979,-144.844,480
1570004214,380.07,18.6407,-15.9618,179.143,1.80176,-144.844,480
1570004214,380.07,18.6407,-15.9618,179.143,1.80176,-144.844,480
1570004214,380.07,18.6407,-15.9618,179.143,1.80176,-144.844,480
1570004214,380.07,18.6407,-15.9618,179.143,1.80176,-144.844,480
1570004214,380.07,18.6407,-15.9618,179.143,1.80176,-144.844,480
1570004214,380.07,18.6407,-15.9618,179.143,1.80176,-144.844,476
1570004214,380.07,18.6407,-15.9618,179.143,1.80176,-144.844,476
1570004214,380.07,18.6407,-15.9618,179.143,1.80176,-144.844,476
1570004214,380.07,18.6407,-15.9618,179.143,1.80176,-144.844,476
1570004214,380.07,18.6407,-15.9618,179.143,1.80176,-144.844,476
1570004214,380.07,18.6407,-15.9618,179.143,1.80176,-144.844,472
1570004214,380.07,18.6407,-15.9618,179.143,1.77979,-144.844,472
1570004214,380.07,18.6407,-15.9618,179.165,1.77979,-144.844,472
1570004214,380.07,18.7523,-15.9618,179.165,1.77979,-144.844,472
1570004214,380.07,18.7523,-15.9618,179.165,1.77979,-144.844,472
1570004214,380.07,18.7523,-15.9618,179.165,1.77979,-144.844,468
1570004214,380.07,18.7523,-15.9618,179.165,1.80176,-144.822,468
1570004214,380.07,18.7523,-15.9618,179.165,1.77979,-144.822,468
1570004214,380.07,18.7523,-15.9618,179.165,1.77979,-144.822,468
1570004214,380.07,18.7523,-15.9618,179.165,1.77979,-144.822,468
1570004214,380.07,18.7523,-15.9618,179.165,1.77979,-144.822,468
1570004214,380.07,18.7523,-15.9618,179.165,1.77979,-144.822,468
1570004214,380.07,18.7523,-15.9618,179.165,1.77979,-144.822,464
1570004214,380.07,18.7523,-15.9618,179.165,1.77979,-144.822,464
1570004214,380.07,18.7523,-16.0734,179.165,1.77979,-144.822,464
1570004214,380.07,18.7523,-16.0734,179.165,1.77979,-144.822,464
1570004214,380.07,18.7523,-16.0734,179.165,1.77979,-144.822,464
1570004214,380.07,18.7523,-16.0734,179.165,1.77979,-144.822,464
1570004214,380.07,18.7523,-16.0734,179.165,1.77979,-144.822,464
1570004214,380.07,18.7523,-16.0734,179.165,1.77979,-144.822,464
1570004214,380.07,18.7523,-16.0734,179.165,1.77979,-144.822,464
1570004214,380.07,18.7523,-16.0734,179.165,1.77979,-144.822,464
1570004214,380.07,18.7523,-16.0734,179.165,1.77979,-144.822,464
1570004214,380.07,18.7523,-16.0734,179.165,1.77979,-144.822,464
1570004214,380.07,18.7523,-16.0734,179.165,1.77979,-144.822,464
1570004214,380.07,18.7523,-16.0734,179.165,1.77979,-144.822,464
1570004214,380.07,18.7523,-16.0734,179.165,1.77979,-144.822,464
1570004214,380.07,18.6407,-16.0734,179.165,1.77979,-144.822,464
1570004214,380.07,18.6407,-16.0734,179.165,1.77979,-144.822,464
1570004214,380.07,18.6407,-16.0734,179.165,1.77979,-144.822,464
1570004215,380.07,18.6407,-15.9618,179.165,1.77979,-144.822,464
1570004215,380.07,18.6407,-15.9618,179.165,1.77979,-144.822,464
1570004215,380.07,18.6407,-16.0734,179.165,1.77979,-144.822,464
1570004215,380.07,18.6407,-16.0734,179.143,1.77979,-144.822,464
1570004215,380.07,18.6407,-16.0734,179.143,1.77979,-144.822,464
1570004215,380.07,18.6407,-16.0734,179.143,1.77979,-144.822,464
1570004215,380.07,18.6407,-16.0734,179.143,1.77979,-144.822,464
1570004215,380.07,18.6407,-16.0734,179.143,1.77979,-144.822,464
1570004215,380.07,18.6407,-16.0734,179.143,1.77979,-144.822,464
1570004215,380.07,18.6407,-16.0734,179.143,1.77979,-144.822,464
1570004215,380.07,18.6407,-16.0734,179.143,1.77979,-144.822,464
1570004215,380.07,18.6407,-16.0734,179.143,1.77979,-144.822,464
1570004215,380.07,18.6407,-16.0734,179.121,1.77979,-144.822,464
1570004215,380.07,18.6407,-16.0734,179.121,1.75781,-144.822,464
1570004215,380.07,18.6407,-16.0734,179.121,1.75781,-144.822,464
1570004215,380.07,18.6407,-16.0734,179.121,1.75781,-144.822,464
1570004215,380.07,18.6407,-16.0734,179.121,1.75781,-144.822,464
1570004215,380.07,18.6407,-16.0734,179.121,1.75781,-144.844,464
1570004215,380.07,18.6407,-16.0734,179.143,1.75781,-144.844,464
1570004215,380.07,18.6407,-16.0734,179.143,1.77979,-144.844,464
1570004215,380.07,18.6407,-15.9618,179.143,1.77979,-144.844,464
1570004215,380.07,18.6407,-15.9618,179.143,1.77979,-144.844,464
1570004215,379.958,18.6407,-15.9618,179.143,1.77979,-144.844,468
1570004215,379.958,18.6407,-15.9618,179.143,1.77979,-144.844,468
1570004215,379.958,18.6407,-15.9618,179.143,1.77979,-144.844,468
1570004215,379.958,18.6407,-15.9618,179.143,1.77979,-144.844,468
1570004215,379.958,18.6407,-15.9618,179.143,1.77979,-144.844,472
1570004215,379.958,18.6407,-15.9618,179.143,1.77979,-144.844,472
1570004215,379.958,18.6407,-15.9618,179.143,1.77979,-144.844,472
1570004215,379.958,18.6407,-15.9618,179.143,1.77979,-144.844,472
1570004215,379.958,18.6407,-15.9618,179.143,1.77979,-144.844,472
1570004215,379.958,18.6407,-15.9618,179.143,1.77979,-144.844,476
1570004215,379.958,18.6407,-15.9618,179.143,1.77979,-144.844,476
1570004215,379.958,18.6407,-15.9618,179.143,1.77979,-144.844,476
1570004215,379.958,18.6407,-15.9618,179.143,1.77979,-144.844,476
1570004215,379.958,18.6407,-15.9618,179.121,1.77979,-144.844,476
1570004215,379.958,18.6407,-15.9618,179.121,1.77979,-144.844,476
1570004215,379.958,18.6407,-15.9618,179.121,1.77979,-144.844,480
1570004215,379.958,18.6407,-15.9618,179.121,1.77979,-144.844,480
1570004215,379.958,18.6407,-15.9618,179.121,1.77979,-144.844,480
1570004215,380.07,18.6407,-15.9618,179.121,1.80176,-144.844,480
1570004215,380.07,18.5291,-15.9618,179.121,1.80176,-144.844,484
1570004215,380.07,18.5291,-15.9618,179.121,1.80176,-144.844,484
1570004215,380.07,18.5291,-15.9618,179.121,1.80176,-144.844,484
1570004215,380.07,18.5291,-15.9618,179.121,1.80176,-144.844,484
1570004215,380.07,18.5291,-15.9618,179.121,1.80176,-144.844,484
1570004215,380.07,18.5291,-15.9618,179.121,1.80176,-144.844,484
1570004215,380.07,18.5291,-15.9618,179.121,1.80176,-144.844,484
1570004215,380.07,18.6407,-15.9618,179.121,1.80176,-144.844,484
1570004215,380.07,18.6407,-15.9618,179.121,1.80176,-144.844,480
1570004215,380.07,18.6407,-15.9618,179.121,1.80176,-144.844,480
