time,x,y,z,ax,ay,az,q
1567604592,361.206,-176.585,-16.4083,179.824,1.80176,-156.292,264
1567604592,361.206,-176.585,-16.4083,179.824,1.80176,-156.292,264
1567604592,361.206,-176.585,-16.4083,179.824,1.82373,-156.292,260
1567604592,361.206,-176.696,-16.4083,179.824,1.82373,-156.292,260
1567604592,361.206,-176.696,-16.4083,179.824,1.82373,-156.292,260
1567604592,361.206,-176.696,-16.4083,179.824,1.82373,-156.292,256
1567604592,361.206,-176.696,-16.4083,179.824,1.82373,-156.292,256
1567604592,361.206,-176.696,-16.4083,179.824,1.82373,-156.292,256
1567604592,361.206,-176.696,-16.4083,179.824,1.82373,-156.292,256
1567604592,361.206,-176.696,-16.4083,179.824,1.82373,-156.292,252
1567604592,361.206,-176.585,-16.4083,179.824,1.82373,-156.292,252
1567604592,361.206,-176.585,-16.4083,179.824,1.82373,-156.292,252
1567604592,361.206,-176.585,-16.4083,179.846,1.82373,-156.292,252
1567604592,361.206,-176.585,-16.4083,179.846,1.82373,-156.292,252
1567604592,361.206,-176.585,-16.4083,179.846,1.80176,-156.292,252
1567604592,361.206,-176.585,-16.4083,179.846,1.80176,-156.292,248
1567604592,361.206,-176.585,-16.4083,179.846,1.80176,-156.292,248
1567604592,361.206,-176.585,-16.4083,179.846,1.80176,-156.292,248
1567604592,361.206,-176.585,-16.4083,179.846,1.80176,-156.292,248
1567604592,361.206,-176.585,-16.4083,179.846,1.80176,-156.292,248
1567604592,361.206,-176.585,-16.4083,179.846,1.80176,-156.292,248
1567604592,361.206,-176.585,-16.4083,179.846,1.80176,-156.292,248
1567604592,361.206,-176.585,-16.4083,179.846,1.80176,-156.292,248
1567604592,361.206,-176.585,-16.4083,179.846,1.80176,-156.292,248
1567604592,361.206,-176.585,-16.4083,179.846,1.80176,-156.292,248
1567604592,361.206,-176.585,-16.4083,179.846,1.80176,-156.292,248
1567604592,361.206,-176.585,-16.4083,179.846,1.80176,-156.292,248
1567604592,361.206,-176.696,-16.4083,179.846,1.80176,-156.292,248
1567604592,361.206,-176.696,-16.4083,179.846,1.80176,-156.292,248
1567604592,361.206,-176.696,-16.4083,179.846,1.82373,-156.292,248
1567604592,361.206,-176.696,-16.4083,179.846,1.82373,-156.292,244
1567604592,361.206,-176.696,-16.4083,179.846,1.82373,-156.292,244
1567604592,361.206,-176.696,-16.4083,179.846,1.82373,-156.292,244
1567604592,361.206,-176.696,-16.4083,179.846,1.82373,-156.292,244
1567604592,361.317,-176.696,-16.4083,179.846,1.82373,-156.292,244
1567604592,361.317,-176.696,-16.2967,179.846,1.82373,-156.27,240
1567604592,361.317,-176.696,-16.2967,179.846,1.82373,-156.27,240
1567604592,361.317,-176.696,-16.2967,179.846,1.82373,-156.27,240
1567604592,361.317,-176.585,-16.2967,179.846,1.82373,-156.27,240
1567604592,361.206,-176.585,-16.2967,179.846,1.82373,-156.27,240
1567604592,361.206,-176.585,-16.2967,179.846,1.82373,-156.27,240
1567604592,361.206,-176.585,-16.2967,179.846,1.82373,-156.292,240
1567604592,361.206,-176.585,-16.2967,179.846,1.82373,-156.292,240
1567604592,361.206,-176.585,-16.2967,179.846,1.82373,-156.292,240
1567604592,361.206,-176.585,-16.2967,179.846,1.82373,-156.292,244
1567604592,361.206,-176.585,-16.2967,179.846,1.82373,-156.292,244
1567604592,361.206,-176.585,-16.2967,179.846,1.82373,-156.292,244
1567604592,361.206,-176.585,-16.4083,179.846,1.82373,-156.292,244
1567604592,361.206,-176.585,-16.4083,179.846,1.82373,-156.292,244
1567604592,361.094,-176.585,-16.4083,179.824,1.82373,-156.313,244
1567604592,361.094,-176.585,-16.4083,179.824,1.82373,-156.313,248
1567604592,361.094,-176.585,-16.4083,179.824,1.82373,-156.313,248
1567604592,361.094,-176.585,-16.4083,179.824,1.82373,-156.313,248
1567604592,361.094,-176.696,-16.4083,179.824,1.82373,-156.313,248
1567604592,361.094,-176.696,-16.4083,179.802,1.82373,-156.313,248
1567604592,361.094,-176.585,-16.4083,179.802,1.82373,-156.313,252
1567604592,361.094,-176.585,-16.4083,179.802,1.82373,-156.313,252
1567604592,361.094,-176.585,-16.4083,179.824,1.82373,-156.313,252
1567604592,361.094,-176.585,-16.4083,179.824,1.82373,-156.313,252
1567604592,361.094,-176.585,-16.4083,179.824,1.82373,-156.313,252
1567604592,361.094,-176.585,-16.4083,179.824,1.82373,-156.292,252
1567604592,361.094,-176.585,-16.4083,179.824,1.82373,-156.292,256
1567604592,361.094,-176.585,-16.2967,179.824,1.82373,-156.292,256
1567604592,361.094,-176.585,-16.2967,179.846,1.8457,-156.292,256
1567604592,361.094,-176.585,-16.2967,179.846,1.8457,-156.292,256
1567604592,361.094,-176.585,-16.2967,179.846,1.8457,-156.292,260
1567604592,361.094,-176.473,-16.2967,179.846,1.82373,-156.292,260
1567604592,361.094,-176.473,-16.2967,179.846,1.82373,-156.292,260
1567604592,361.094,-176.473,-16.2967,179.846,1.82373,-156.292,260
1567604592,361.094,-176.585,-16.2967,179.846,1.82373,-156.292,260
1567604592,361.094,-176.585,-16.2967,179.846,1.82373,-156.27,260
1567604592,361.094,-176.585,-16.2967,179.846,1.82373,-156.27,260
1567604592,361.094,-176.585,-16.4083,179.846,1.82373,-156.27,260
1567604592,361.094,-176.585,-16.4083,179.846,1.82373,-156.27,260
1567604592,361.094,-176.585,-16.4083,179.846,1.82373,-156.27,264
1567604592,361.094,-176.585,-16.4083,179.846,1.82373,-156.27,264
1567604592,361.094,-176.585,-16.4083,179.846,1.82373,-156.27,264
1567604592,361.094,-176.585,-16.4083,179.846,1.82373,-156.27,264
1567604592,361.094,-176.585,-16.4083,179.846,1.82373,-156.27,264
1567604592,361.094,-176.585,-16.4083,179.846,1.82373,-156.27,264
1567604592,361.094,-176.585,-16.4083,179.846,1.82373,-156.27,264
1567604592,361.094,-176.585,-16.4083,179.846,1.82373,-156.27,264
1567604592,361.094,-176.585,-16.4083,179.846,1.82373,-156.27,264
1567604592,361.094,-176.585,-16.4083,179.846,1.82373,-156.27,260
1567604592,361.094,-176.473,-16.4083,179.846,1.82373,-156.27,260
1567604593,361.094,-176.473,-16.4083,179.868,1.82373,-156.292,260
1567604593,361.094,-176.473,-16.4083,179.868,1.82373,-156.292,260
1567604593,361.094,-176.473,-16.4083,179.868,1.82373,-156.292,260
1567604593,361.094,-176.473,-16.4083,179.868,1.82373,-156.292,260
1567604593,361.094,-176.473,-16.4083,179.868,1.82373,-156.292,260
1567604593,361.206,-176.473,-16.4083,179.868,1.82373,-156.292,260
1567604593,361.206,-176.473,-16.4083,179.868,1.82373,-156.292,260
1567604593,361.206,-176.473,-16.4083,179.868,1.82373,-156.292,260
1567604593,361.206,-176.473,-16.4083,179.868,1.82373,-156.292,260
1567604593,361.206,-176.473,-16.4083,179.868,1.82373,-156.313,260
1567604593,361.206,-176.473,-16.4083,179.868,1.82373,-156.313,260
1567604593,361.206,-176.473,-16.4083,179.868,1.82373,-156.292,260
1567604593,361.206,-176.473,-16.4083,179.868,1.82373,-156.292,260
1567604593,361.206,-176.473,-16.4083,179.868,1.82373,-156.292,260
1567604593,361.206,-176.473,-16.4083,179.868,1.82373,-156.292,260
1567604593,361.206,-176.473,-16.4083,179.868,1.82373,-156.292,260
1567604593,361.206,-176.473,-16.4083,179.868,1.82373,-156.292,260
1567604593,361.206,-176.473,-16.4083,179.868,1.82373,-156.292,260
1567604593,361.206,-176.473,-16.4083,179.868,1.82373,-156.292,260
1567604593,361.206,-176.473,-16.4083,179.868,1.82373,-156.292,260
1567604593,361.206,-176.473,-16.4083,179.868,1.82373,-156.292,256
1567604593,361.206,-176.585,-16.2967,179.868,1.82373,-156.292,256
1567604593,361.206,-176.585,-16.2967,179.868,1.82373,-156.292,256
1567604593,361.206,-176.585,-16.2967,179.868,1.82373,-156.292,256
1567604593,361.206,-176.585,-16.2967,179.868,1.82373,-156.292,256
1567604593,361.206,-176.585,-16.4083,179.868,1.82373,-156.292,256
1567604593,361.206,-176.585,-16.4083,179.846,1.82373,-156.292,256
1567604593,361.206,-176.585,-16.4083,179.846,1.82373,-156.292,256
1567604593,361.206,-176.585,-16.2967,179.846,1.82373,-156.292,256
1567604593,361.206,-176.585,-16.2967,179.846,1.82373,-156.292,256
1567604593,361.206,-176.585,-16.2967,179.846,1.82373,-156.292,256
1567604593,361.206,-176.585,-16.2967,179.868,1.82373,-156.292,252
1567604593,361.206,-176.585,-16.2967,179.868,1.82373,-156.292,252
1567604593,361.206,-176.585,-16.2967,179.868,1.82373,-156.292,252
1567604593,361.206,-176.585,-16.2967,179.868,1.8457,-156.292,252
1567604593,361.206,-176.585,-16.2967,179.868,1.8457,-156.292,252
1567604593,361.206,-176.473,-16.2967,179.868,1.8457,-156.292,252
1567604593,361.206,-176.473,-16.2967,179.868,1.8457,-156.292,248
1567604593,361.206,-176.473,-16.2967,179.868,1.8457,-156.292,248
1567604593,361.206,-176.473,-16.2967,179.89,1.8457,-156.292,248
1567604593,361.206,-176.473,-16.2967,179.89,1.8457,-156.292,248
1567604593,361.206,-176.473,-16.2967,179.89,1.8457,-156.292,248
1567604593,361.206,-176.473,-16.2967,179.89,1.8457,-156.292,248
1567604593,361.206,-176.473,-16.2967,179.89,1.82373,-156.292,248
1567604593,361.206,-176.473,-16.2967,179.89,1.82373,-156.292,248
1567604593,361.206,-176.473,-16.2967,179.89,1.82373,-156.292,248
1567604593,361.206,-176.473,-16.2967,179.89,1.82373,-156.292,248
1567604593,361.206,-176.473,-16.2967,179.89,1.82373,-156.292,248
1567604593,361.206,-176.473,-16.2967,179.89,1.82373,-156.292,248
1567604593,361.206,-176.473,-16.2967,179.89,1.82373,-156.292,248
1567604593,361.206,-176.473,-16.2967,179.89,1.82373,-156.292,248
1567604593,361.206,-176.473,-16.2967,179.89,1.82373,-156.292,248
1567604593,361.206,-176.473,-16.2967,179.89,1.82373,-156.27,248
1567604593,361.206,-176.473,-16.2967,179.89,1.82373,-156.27,252
1567604593,361.206,-176.473,-16.2967,179.868,1.82373,-156.27,252
1567604593,361.206,-176.473,-16.2967,179.868,1.82373,-156.27,252
1567604593,361.094,-176.473,-16.2967,179.868,1.82373,-156.27,256
1567604593,361.094,-176.473,-16.2967,179.868,1.80176,-156.27,256
1567604593,361.094,-176.473,-16.2967,179.868,1.80176,-156.27,256
1567604593,361.094,-176.473,-16.4083,179.868,1.80176,-156.27,256
1567604593,361.094,-176.473,-16.4083,179.868,1.80176,-156.27,260
1567604593,361.094,-176.473,-16.4083,179.868,1.80176,-156.27,260
1567604593,361.094,-176.473,-16.4083,179.868,1.80176,-156.27,260
1567604593,361.094,-176.473,-16.4083,179.868,1.80176,-156.27,260
1567604593,361.094,-176.473,-16.4083,179.868,1.77979,-156.27,260
1567604593,361.094,-176.473,-16.4083,179.868,1.77979,-156.27,260
1567604593,361.094,-176.473,-16.5199,179.868,1.77979,-156.27,260
1567604593,361.094,-176.473,-16.5199,179.868,1.77979,-156.27,260
1567604593,361.094,-176.473,-16.5199,179.868,1.77979,-156.27,260
1567604593,361.094,-176.473,-16.5199,179.868,1.77979,-156.27,260
1567604593,361.094,-176.473,-16.5199,179.868,1.77979,-156.27,260
1567604593,361.094,-176.473,-16.5199,179.868,1.77979,-156.27,260
1567604593,361.094,-176.473,-16.5199,179.868,1.77979,-156.27,260
1567604593,361.094,-176.473,-16.5199,179.868,1.77979,-156.27,260
1567604593,361.094,-176.473,-16.5199,179.868,1.77979,-156.27,260
1567604593,361.206,-176.473,-16.5199,179.868,1.77979,-156.27,260
1567604593,361.206,-176.473,-16.5199,179.868,1.77979,-156.27,260
1567604593,361.206,-176.473,-16.5199,179.868,1.77979,-156.27,260
1567604593,361.206,-176.473,-16.4083,179.89,1.77979,-156.27,260
1567604593,361.206,-176.473,-16.4083,179.89,1.80176,-156.292,260
1567604593,361.206,-176.473,-16.4083,179.89,1.80176,-156.292,256
1567604593,361.206,-176.473,-16.4083,179.89,1.80176,-156.292,256
1567604593,361.206,-176.473,-16.4083,179.89,1.80176,-156.292,256
1567604593,361.206,-176.361,-16.4083,179.89,1.80176,-156.292,256
1567604593,361.206,-176.361,-16.4083,179.89,1.80176,-156.292,256
1567604593,361.206,-176.361,-16.4083,179.89,1.80176,-156.292,256
1567604593,361.206,-176.361,-16.4083,179.89,1.80176,-156.292,256
1567604593,361.206,-176.361,-16.4083,179.89,1.80176,-156.292,256
1567604593,361.206,-176.361,-16.4083,179.89,1.80176,-156.292,256
1567604593,361.206,-176.361,-16.4083,179.89,1.80176,-156.292,256
1567604593,361.206,-176.473,-16.4083,179.89,1.80176,-156.292,256
1567604593,361.206,-176.473,-16.4083,179.89,1.80176,-156.292,256
1567604593,361.317,-176.473,-16.4083,179.89,1.80176,-156.292,256
1567604593,361.317,-176.473,-16.4083,179.89,1.80176,-156.292,256
1567604593,361.317,-176.473,-16.4083,179.89,1.80176,-156.292,256
1567604593,361.317,-176.473,-16.4083,179.89,1.80176,-156.292,256
1567604593,361.317,-176.473,-16.4083,179.89,1.80176,-156.292,252
1567604593,361.317,-176.473,-16.4083,179.89,1.80176,-156.292,252
1567604593,361.317,-176.473,-16.4083,179.89,1.80176,-156.292,252
1567604593,361.317,-176.473,-16.4083,179.89,1.80176,-156.292,252
1567604594,361.317,-176.473,-16.4083,179.89,1.80176,-156.292,252
1567604594,361.317,-176.473,-16.4083,179.89,1.80176,-156.292,252
1567604594,361.317,-176.473,-16.4083,179.89,1.80176,-156.292,252
1567604594,361.317,-176.473,-16.4083,179.89,1.80176,-156.292,252
1567604594,361.317,-176.473,-16.4083,179.89,1.80176,-156.292,252
1567604594,361.317,-176.473,-16.4083,179.89,1.80176,-156.292,252
1567604594,361.317,-176.473,-16.4083,179.89,1.80176,-156.292,252
1567604594,361.317,-176.473,-16.4083,179.89,1.80176,-156.292,252
1567604594,361.317,-176.473,-16.4083,179.89,1.80176,-156.292,252
1567604594,361.317,-176.473,-16.4083,179.868,1.80176,-156.292,252
1567604594,361.317,-176.473,-16.4083,179.868,1.80176,-156.292,252
1567604594,361.317,-176.473,-16.4083,179.89,1.80176,-156.27,252
1567604594,361.317,-176.473,-16.4083,179.89,1.82373,-156.27,252
1567604594,361.317,-176.473,-16.4083,179.89,1.82373,-156.27,252
1567604594,361.317,-176.473,-16.4083,179.868,1.82373,-156.27,252
1567604594,361.317,-176.473,-16.4083,179.868,1.82373,-156.27,252
1567604594,361.317,-176.585,-16.4083,179.868,1.82373,-156.27,252
1567604594,361.317,-176.585,-16.4083,179.868,1.82373,-156.27,252
1567604594,361.206,-176.585,-16.4083,179.868,1.80176,-156.27,252
1567604594,361.206,-176.585,-16.4083,179.868,1.80176,-156.27,252
1567604594,361.206,-176.585,-16.4083,179.868,1.80176,-156.27,248
1567604594,361.206,-176.585,-16.4083,179.868,1.80176,-156.27,248
1567604594,361.206,-176.585,-16.4083,179.868,1.80176,-156.27,248
1567604594,361.206,-176.585,-16.4083,179.846,1.80176,-156.27,248
1567604594,361.206,-176.585,-16.4083,179.846,1.80176,-156.27,248
1567604594,361.317,-176.585,-16.4083,179.846,1.80176,-156.27,248
1567604594,361.206,-176.585,-16.4083,179.846,1.80176,-156.27,244
1567604594,361.206,-176.585,-16.4083,179.846,1.80176,-156.27,244
1567604594,361.206,-176.585,-16.4083,179.846,1.80176,-156.27,244
1567604594,361.206,-176.585,-16.4083,179.846,1.80176,-156.27,244
1567604594,361.206,-176.585,-16.4083,179.846,1.80176,-156.27,244
1567604594,361.206,-176.585,-16.4083,179.846,1.80176,-156.27,244
1567604594,361.206,-176.585,-16.4083,179.868,1.80176,-156.27,244
1567604594,361.206,-176.585,-16.4083,179.868,1.77979,-156.27,244
1567604594,361.206,-176.585,-16.4083,179.868,1.77979,-156.27,244
1567604594,361.206,-176.585,-16.4083,179.868,1.77979,-156.27,244
1567604594,361.206,-176.585,-16.4083,179.868,1.77979,-156.27,244
1567604594,361.206,-176.585,-16.5199,179.868,1.77979,-156.27,244
1567604594,361.206,-176.585,-16.5199,179.868,1.77979,-156.27,244
1567604594,361.206,-176.585,-16.5199,179.846,1.77979,-156.27,244
1567604594,361.206,-176.585,-16.5199,179.846,1.77979,-156.27,244
1567604594,361.206,-176.585,-16.5199,179.846,1.77979,-156.27,248
1567604594,361.206,-176.585,-16.5199,179.846,1.77979,-156.292,248
1567604594,361.206,-176.585,-16.5199,179.846,1.77979,-156.292,248
1567604594,361.206,-176.585,-16.5199,179.846,1.77979,-156.292,248
1567604594,361.206,-176.585,-16.5199,179.846,1.77979,-156.292,248
1567604594,361.206,-176.585,-16.5199,179.846,1.77979,-156.292,252
1567604594,361.206,-176.585,-16.5199,179.846,1.77979,-156.292,252
1567604594,361.206,-176.585,-16.5199,179.846,1.77979,-156.292,252
1567604594,361.206,-176.585,-16.5199,179.846,1.77979,-156.292,252
1567604594,361.206,-176.585,-16.5199,179.846,1.77979,-156.292,256
1567604594,361.094,-176.585,-16.5199,179.846,1.77979,-156.292,256
1567604594,361.094,-176.585,-16.5199,179.846,1.77979,-156.292,256
1567604594,361.094,-176.585,-16.5199,179.846,1.77979,-156.292,256
1567604594,361.094,-176.585,-16.4083,179.846,1.77979,-156.292,260
1567604594,361.094,-176.585,-16.4083,179.846,1.80176,-156.292,260
1567604594,361.094,-176.585,-16.4083,179.846,1.80176,-156.292,260
1567604594,361.094,-176.585,-16.4083,179.846,1.80176,-156.292,260
1567604594,361.094,-176.585,-16.4083,179.846,1.80176,-156.292,260
1567604594,361.094,-176.585,-16.4083,179.846,1.80176,-156.292,256
1567604594,361.094,-176.585,-16.4083,179.846,1.80176,-156.292,256
1567604594,361.206,-176.585,-16.4083,179.846,1.80176,-156.292,256
1567604594,361.206,-176.585,-16.4083,179.868,1.80176,-156.292,256
1567604594,361.206,-176.585,-16.4083,179.868,1.80176,-156.292,256
1567604594,361.206,-176.585,-16.4083,179.868,1.80176,-156.27,252
1567604594,361.206,-176.585,-16.4083,179.868,1.80176,-156.27,252
1567604594,361.206,-176.585,-16.4083,179.868,1.80176,-156.27,252
1567604594,361.206,-176.585,-16.4083,179.868,1.80176,-156.27,252
1567604594,361.206,-176.585,-16.4083,179.868,1.80176,-156.27,252
1567604594,361.206,-176.585,-16.4083,179.868,1.80176,-156.27,248
1567604594,361.206,-176.585,-16.4083,179.868,1.80176,-156.27,248
1567604594,361.206,-176.585,-16.4083,179.868,1.80176,-156.27,248
1567604594,361.206,-176.585,-16.4083,179.868,1.82373,-156.27,248
1567604594,361.206,-176.585,-16.4083,179.868,1.82373,-156.27,248
1567604594,361.206,-176.585,-16.2967,179.868,1.82373,-156.27,248
1567604594,361.206,-176.585,-16.2967,179.868,1.82373,-156.27,248
1567604594,361.206,-176.585,-16.2967,179.846,1.82373,-156.27,248
1567604594,361.206,-176.585,-16.2967,179.846,1.82373,-156.27,248
1567604594,361.206,-176.585,-16.2967,179.846,1.82373,-156.292,248
1567604594,361.206,-176.585,-16.2967,179.846,1.82373,-156.292,248
1567604594,361.206,-176.585,-16.4083,179.868,1.82373,-156.292,248
1567604594,361.317,-176.585,-16.4083,179.868,1.82373,-156.292,248
1567604594,361.317,-176.585,-16.4083,179.868,1.80176,-156.292,248
1567604594,361.317,-176.585,-16.4083,179.868,1.80176,-156.292,248
1567604594,361.317,-176.585,-16.4083,179.868,1.80176,-156.292,248
1567604594,361.317,-176.585,-16.4083,179.89,1.80176,-156.292,248
1567604594,361.317,-176.473,-16.4083,179.89,1.80176,-156.292,248
1567604594,361.317,-176.473,-16.4083,179.89,1.80176,-156.292,252
1567604594,361.317,-176.473,-16.4083,179.89,1.80176,-156.292,252
1567604594,361.317,-176.473,-16.4083,179.89,1.80176,-156.292,252
1567604594,361.317,-176.473,-16.4083,179.89,1.80176,-156.292,252
1567604594,361.317,-176.473,-16.4083,179.89,1.80176,-156.292,252
1567604594,361.317,-176.473,-16.4083,179.89,1.80176,-156.292,256
1567604594,361.206,-176.473,-16.4083,179.89,1.80176,-156.292,256
1567604594,361.206,-176.473,-16.4083,179.89,1.80176,-156.27,256
1567604594,361.206,-176.473,-16.4083,179.89,1.80176,-156.27,256
1567604594,361.206,-176.473,-16.4083,179.89,1.80176,-156.27,260
1567604594,361.206,-176.473,-16.4083,179.89,1.80176,-156.27,260
1567604594,361.206,-176.473,-16.4083,179.89,1.80176,-156.27,260
1567604594,361.206,-176.473,-16.4083,179.89,1.80176,-156.27,260
1567604595,361.206,-176.473,-16.4083,179.89,1.80176,-156.27,260
1567604595,361.206,-176.473,-16.4083,179.89,1.80176,-156.27,260
1567604595,361.206,-176.473,-16.4083,179.89,1.80176,-156.27,260
1567604595,361.206,-176.473,-16.4083,179.89,1.80176,-156.27,260
1567604595,361.206,-176.473,-16.4083,179.89,1.80176,-156.27,260
1567604595,361.206,-176.473,-16.4083,179.89,1.80176,-156.27,260
1567604595,361.206,-176.473,-16.4083,179.89,1.80176,-156.292,260
1567604595,361.206,-176.473,-16.4083,179.89,1.80176,-156.292,260
1567604595,361.206,-176.473,-16.4083,179.89,1.80176,-156.292,256
1567604595,361.206,-176.473,-16.4083,179.89,1.80176,-156.292,256
1567604595,361.206,-176.473,-16.4083,179.89,1.80176,-156.292,256
1567604595,361.206,-176.473,-16.4083,179.89,1.80176,-156.292,256
1567604595,361.206,-176.473,-16.4083,179.89,1.80176,-156.292,256
1567604595,361.206,-176.473,-16.4083,179.868,1.80176,-156.292,256
1567604595,361.206,-176.473,-16.4083,179.868,1.80176,-156.292,252
1567604595,361.206,-176.473,-16.4083,179.868,1.80176,-156.292,252
1567604595,361.206,-176.473,-16.4083,179.868,1.80176,-156.292,252
1567604595,361.206,-176.473,-16.5199,179.868,1.80176,-156.292,248
1567604595,361.206,-176.473,-16.5199,179.868,1.77979,-156.292,248
1567604595,361.206,-176.585,-16.5199,179.868,1.77979,-156.292,248
1567604595,361.206,-176.585,-16.5199,179.868,1.77979,-156.292,248
1567604595,361.206,-176.585,-16.5199,179.868,1.77979,-156.292,244
1567604595,361.206,-176.585,-16.5199,179.868,1.77979,-156.292,244
1567604595,361.206,-176.585,-16.5199,179.868,1.77979,-156.292,244
1567604595,361.206,-176.585,-16.5199,179.868,1.77979,-156.292,244
1567604595,361.206,-176.585,-16.5199,179.868,1.77979,-156.292,244
1567604595,361.206,-176.585,-16.5199,179.868,1.77979,-156.292,244
1567604595,361.206,-176.585,-16.5199,179.868,1.77979,-156.292,244
1567604595,361.206,-176.585,-16.5199,179.868,1.77979,-156.292,244
1567604595,361.206,-176.585,-16.5199,179.868,1.77979,-156.292,244
1567604595,361.206,-176.585,-16.5199,179.868,1.77979,-156.292,244
1567604595,361.206,-176.585,-16.5199,179.868,1.77979,-156.292,244
1567604595,361.206,-176.585,-16.5199,179.868,1.77979,-156.292,244
1567604595,361.206,-176.585,-16.5199,179.868,1.77979,-156.292,244
1567604595,361.206,-176.585,-16.5199,179.846,1.77979,-156.292,244
1567604595,361.206,-176.585,-16.5199,179.846,1.77979,-156.292,244
1567604595,361.206,-176.585,-16.5199,179.846,1.75781,-156.292,244
1567604595,361.206,-176.585,-16.5199,179.846,1.75781,-156.292,244
1567604595,361.206,-176.585,-16.5199,179.846,1.75781,-156.292,244
1567604595,361.206,-176.585,-16.5199,179.846,1.75781,-156.313,244
1567604595,361.206,-176.585,-16.5199,179.846,1.75781,-156.313,240
1567604595,361.206,-176.585,-16.5199,179.846,1.75781,-156.313,240
1567604595,361.206,-176.585,-16.5199,179.846,1.75781,-156.313,240
1567604595,361.206,-176.585,-16.5199,179.846,1.75781,-156.313,244
1567604595,361.206,-176.585,-16.5199,179.846,1.75781,-156.313,244
1567604595,361.206,-176.585,-16.5199,179.846,1.75781,-156.313,244
1567604595,361.206,-176.585,-16.5199,179.868,1.75781,-156.313,244
1567604595,361.206,-176.585,-16.5199,179.868,1.75781,-156.313,244
1567604595,361.206,-176.585,-16.5199,179.868,1.75781,-156.313,244
1567604595,361.206,-176.585,-16.5199,179.868,1.75781,-156.313,244
1567604595,361.206,-176.585,-16.5199,179.868,1.75781,-156.313,244
1567604595,361.206,-176.585,-16.5199,179.868,1.75781,-156.313,244
1567604595,361.206,-176.585,-16.5199,179.868,1.75781,-156.313,244
1567604595,361.206,-176.585,-16.6315,179.868,1.75781,-156.313,244
1567604595,361.206,-176.585,-16.6315,179.868,1.75781,-156.313,244
1567604595,361.206,-176.585,-16.6315,179.868,1.75781,-156.313,244
1567604595,361.206,-176.585,-16.6315,179.868,1.75781,-156.313,244
1567604595,361.206,-176.585,-16.6315,179.868,1.75781,-156.313,244
1567604595,361.206,-176.585,-16.6315,179.868,1.75781,-156.313,244
1567604595,361.206,-176.585,-16.6315,179.868,1.75781,-156.313,244
1567604595,361.206,-176.585,-16.6315,179.868,1.75781,-156.313,244
1567604595,361.206,-176.585,-16.6315,179.868,1.73584,-156.313,244
1567604595,361.206,-176.585,-16.6315,179.868,1.73584,-156.313,244
1567604595,361.206,-176.585,-16.6315,179.846,1.73584,-156.313,244
1567604595,361.206,-176.585,-16.6315,179.846,1.73584,-156.313,244
1567604595,361.206,-176.585,-16.6315,179.846,1.73584,-156.313,244
1567604595,361.206,-176.585,-16.6315,179.846,1.75781,-156.313,244
1567604595,361.206,-176.585,-16.6315,179.846,1.75781,-156.313,244
1567604595,361.206,-176.585,-16.6315,179.846,1.75781,-156.313,244
1567604595,361.206,-176.585,-16.6315,179.846,1.75781,-156.313,244
1567604595,361.206,-176.585,-16.6315,179.868,1.75781,-156.313,248
1567604595,361.206,-176.473,-16.5199,179.868,1.75781,-156.313,248
1567604595,361.206,-176.473,-16.5199,179.868,1.77979,-156.313,248
1567604595,361.206,-176.473,-16.5199,179.868,1.77979,-156.313,248
1567604595,361.206,-176.473,-16.5199,179.868,1.77979,-156.313,248
1567604595,361.206,-176.473,-16.5199,179.868,1.77979,-156.313,248
1567604595,361.206,-176.473,-16.5199,179.89,1.80176,-156.313,248
1567604595,361.206,-176.473,-16.5199,179.89,1.80176,-156.313,248
1567604595,361.206,-176.473,-16.4083,179.89,1.80176,-156.313,248
1567604595,361.206,-176.473,-16.4083,179.89,1.80176,-156.313,248
1567604595,361.206,-176.473,-16.4083,179.89,1.80176,-156.313,248
1567604595,361.206,-176.473,-16.4083,179.89,1.80176,-156.313,248
1567604595,361.206,-176.473,-16.4083,179.89,1.80176,-156.313,248
1567604595,361.206,-176.473,-16.4083,179.89,1.80176,-156.313,248
1567604595,361.206,-176.473,-16.4083,179.89,1.80176,-156.313,248
1567604595,361.206,-176.473,-16.4083,179.89,1.80176,-156.313,248
1567604595,361.206,-176.473,-16.4083,179.868,1.80176,-156.313,248
1567604595,361.317,-176.473,-16.4083,179.868,1.80176,-156.313,248
1567604595,361.317,-176.473,-16.4083,179.868,1.80176,-156.313,248
1567604595,361.317,-176.473,-16.4083,179.868,1.80176,-156.313,248
1567604595,361.317,-176.473,-16.4083,179.868,1.80176,-156.313,248
1567604595,361.317,-176.473,-16.4083,179.868,1.80176,-156.313,248
1567604595,361.206,-176.473,-16.4083,179.868,1.80176,-156.313,248
1567604595,361.206,-176.473,-16.4083,179.868,1.80176,-156.313,248
1567604595,361.206,-176.473,-16.4083,179.868,1.80176,-156.313,248
1567604595,361.206,-176.473,-16.5199,179.868,1.80176,-156.313,248
1567604595,361.206,-176.473,-16.5199,179.868,1.80176,-156.313,248
1567604595,361.206,-176.473,-16.5199,179.868,1.77979,-156.313,248
1567604595,361.206,-176.473,-16.5199,179.868,1.77979,-156.292,248
1567604595,361.206,-176.473,-16.5199,179.868,1.77979,-156.292,248
1567604596,361.206,-176.473,-16.5199,179.868,1.77979,-156.292,248
1567604596,361.206,-176.473,-16.5199,179.868,1.77979,-156.292,248
1567604596,361.206,-176.473,-16.5199,179.868,1.77979,-156.292,248
1567604596,361.206,-176.473,-16.5199,179.868,1.77979,-156.292,248
1567604596,361.206,-176.585,-16.5199,179.846,1.77979,-156.292,248
1567604596,361.206,-176.585,-16.5199,179.846,1.77979,-156.292,244
1567604596,361.206,-176.585,-16.5199,179.846,1.77979,-156.292,244
1567604596,361.206,-176.585,-16.5199,179.846,1.80176,-156.292,244
1567604596,361.206,-176.585,-16.5199,179.846,1.77979,-156.292,244
1567604596,361.206,-176.585,-16.5199,179.846,1.80176,-156.292,244
1567604596,361.206,-176.585,-16.5199,179.846,1.80176,-156.292,244
1567604596,361.206,-176.585,-16.5199,179.846,1.80176,-156.292,244
1567604596,361.206,-176.585,-16.5199,179.846,1.80176,-156.292,244
1567604596,361.206,-176.585,-16.5199,179.846,1.80176,-156.27,244
1567604596,361.206,-176.585,-16.5199,179.868,1.80176,-156.27,244
1567604596,361.206,-176.473,-16.4083,179.868,1.80176,-156.27,244
1567604596,361.206,-176.473,-16.4083,179.868,1.80176,-156.27,244
1567604596,361.206,-176.473,-16.4083,179.868,1.80176,-156.27,244
1567604596,361.206,-176.473,-16.4083,179.868,1.80176,-156.27,244
1567604596,361.206,-176.473,-16.4083,179.868,1.80176,-156.27,248
1567604596,361.206,-176.473,-16.4083,179.868,1.80176,-156.248,248
1567604596,361.206,-176.473,-16.4083,179.868,1.80176,-156.248,248
1567604596,361.206,-176.473,-16.4083,179.868,1.80176,-156.248,248
1567604596,361.206,-176.473,-16.4083,179.868,1.80176,-156.248,248
1567604596,361.206,-176.473,-16.4083,179.868,1.77979,-156.248,248
1567604596,361.206,-176.473,-16.4083,179.868,1.77979,-156.248,248
1567604596,361.206,-176.473,-16.4083,179.868,1.77979,-156.248,248
1567604596,361.206,-176.473,-16.4083,179.868,1.77979,-156.248,248
1567604596,361.206,-176.473,-16.4083,179.868,1.77979,-156.27,252
1567604596,361.206,-176.473,-16.4083,179.868,1.77979,-156.27,252
1567604596,361.206,-176.473,-16.4083,179.868,1.77979,-156.27,252
1567604596,361.206,-176.473,-16.5199,179.868,1.77979,-156.27,252
1567604596,361.206,-176.473,-16.5199,179.868,1.77979,-156.27,256
1567604596,361.206,-176.473,-16.5199,179.868,1.77979,-156.27,256
1567604596,361.206,-176.473,-16.5199,179.868,1.77979,-156.27,256
1567604596,361.206,-176.473,-16.5199,179.89,1.77979,-156.27,256
1567604596,361.206,-176.473,-16.5199,179.89,1.77979,-156.27,260
1567604596,361.317,-176.473,-16.5199,179.89,1.77979,-156.292,260
1567604596,361.317,-176.473,-16.5199,179.89,1.77979,-156.292,260
1567604596,361.317,-176.473,-16.5199,179.89,1.77979,-156.292,260
1567604596,361.317,-176.473,-16.5199,179.89,1.77979,-156.292,260
1567604596,361.317,-176.473,-16.5199,179.89,1.77979,-156.292,264
1567604596,361.206,-176.473,-16.5199,179.89,1.77979,-156.292,264
1567604596,361.206,-176.473,-16.5199,179.89,1.77979,-156.292,264
1567604596,361.206,-176.473,-16.5199,179.89,1.77979,-156.292,264
1567604596,361.206,-176.473,-16.5199,179.89,1.77979,-156.292,264
1567604596,361.206,-176.473,-16.5199,179.89,1.77979,-156.292,264
1567604596,361.206,-176.473,-16.5199,179.89,1.77979,-156.292,268
1567604596,361.206,-176.473,-16.5199,179.868,1.77979,-156.313,268
1567604596,361.206,-176.473,-16.5199,179.868,1.77979,-156.313,268
1567604596,361.206,-176.473,-16.4083,179.868,1.80176,-156.313,268
1567604596,361.206,-176.473,-16.4083,179.868,1.80176,-156.313,268
1567604596,361.206,-176.473,-16.4083,179.868,1.80176,-156.313,268
1567604596,361.206,-176.473,-16.4083,179.868,1.80176,-156.313,272
1567604596,361.206,-176.473,-16.4083,179.868,1.80176,-156.313,272
1567604596,361.206,-176.473,-16.4083,179.868,1.80176,-156.313,272
1567604596,361.206,-176.473,-16.4083,179.868,1.80176,-156.313,272
1567604596,361.206,-176.473,-16.4083,179.868,1.80176,-156.313,272
1567604596,361.206,-176.473,-16.4083,179.868,1.80176,-156.313,272
1567604596,361.206,-176.473,-16.4083,179.846,1.80176,-156.313,272
1567604596,361.206,-176.473,-16.4083,179.846,1.80176,-156.313,272
1567604596,361.206,-176.473,-16.4083,179.846,1.80176,-156.313,272
1567604596,361.206,-176.473,-16.5199,179.846,1.80176,-156.313,272
1567604596,361.206,-176.473,-16.5199,179.846,1.80176,-156.313,272
1567604596,361.206,-176.473,-16.5199,179.846,1.80176,-156.313,272
1567604596,361.206,-176.473,-16.5199,179.846,1.80176,-156.313,272
1567604596,361.206,-176.473,-16.5199,179.846,1.80176,-156.313,272
1567604596,361.206,-176.473,-16.5199,179.846,1.80176,-156.313,272
1567604596,361.206,-176.473,-16.4083,179.846,1.80176,-156.292,268
1567604596,361.206,-176.473,-16.4083,179.846,1.80176,-156.292,268
1567604596,361.206,-176.473,-16.4083,179.846,1.80176,-156.292,268
1567604596,361.206,-176.473,-16.4083,179.846,1.80176,-156.292,268
1567604596,361.206,-176.473,-16.4083,179.846,1.80176,-156.292,264
1567604596,361.206,-176.585,-16.4083,179.846,1.80176,-156.292,264
1567604596,361.206,-176.585,-16.4083,179.846,1.80176,-156.292,264
1567604596,361.206,-176.585,-16.4083,179.846,1.80176,-156.292,260
1567604596,361.206,-176.585,-16.5199,179.846,1.80176,-156.292,260
1567604596,361.206,-176.585,-16.5199,179.846,1.80176,-156.292,256
1567604596,361.206,-176.585,-16.5199,179.846,1.80176,-156.313,256
1567604596,361.206,-176.585,-16.4083,179.846,1.80176,-156.313,252
1567604596,361.206,-176.585,-16.4083,179.846,1.80176,-156.313,252
1567604596,361.206,-176.585,-16.4083,179.824,1.80176,-156.313,252
1567604596,361.206,-176.585,-16.4083,179.824,1.82373,-156.313,252
1567604596,361.206,-176.696,-16.4083,179.824,1.82373,-156.313,248
1567604596,361.206,-176.696,-16.4083,179.824,1.82373,-156.313,248
1567604596,361.206,-176.696,-16.4083,179.824,1.82373,-156.313,248
1567604596,361.206,-176.696,-16.4083,179.824,1.82373,-156.313,244
1567604596,361.206,-176.696,-16.4083,179.824,1.82373,-156.313,244
1567604596,361.206,-176.696,-16.4083,179.824,1.82373,-156.313,244
1567604596,361.206,-176.696,-16.4083,179.824,1.82373,-156.313,244
1567604596,361.206,-176.696,-16.4083,179.824,1.82373,-156.313,244
1567604596,361.206,-176.696,-16.4083,179.824,1.82373,-156.313,244
1567604596,361.206,-176.696,-16.4083,179.824,1.82373,-156.313,244
1567604596,361.206,-176.696,-16.4083,179.846,1.82373,-156.313,248
1567604596,361.206,-176.696,-16.4083,179.846,1.82373,-156.313,248
1567604596,361.206,-176.585,-16.4083,179.846,1.82373,-156.313,248
1567604596,361.206,-176.585,-16.4083,179.846,1.82373,-156.313,248
1567604596,361.206,-176.585,-16.4083,179.846,1.82373,-156.313,248
1567604596,361.206,-176.585,-16.4083,179.846,1.82373,-156.313,252
1567604596,361.206,-176.585,-16.4083,179.846,1.82373,-156.313,252
1567604597,361.206,-176.585,-16.4083,179.868,1.82373,-156.313,252
1567604597,361.206,-176.473,-16.4083,179.868,1.82373,-156.313,252
1567604597,361.206,-176.473,-16.4083,179.868,1.82373,-156.313,252
1567604597,361.206,-176.473,-16.4083,179.868,1.80176,-156.313,252
1567604597,361.206,-176.473,-16.4083,179.89,1.80176,-156.313,252
1567604597,361.206,-176.473,-16.4083,179.89,1.80176,-156.313,252
1567604597,361.206,-176.473,-16.4083,179.89,1.80176,-156.313,252
1567604597,361.206,-176.473,-16.4083,179.89,1.80176,-156.313,252
1567604597,361.206,-176.473,-16.4083,179.89,1.80176,-156.313,256
1567604597,361.206,-176.473,-16.4083,179.89,1.80176,-156.313,256
1567604597,361.206,-176.473,-16.4083,179.89,1.80176,-156.313,256
1567604597,361.206,-176.473,-16.4083,179.89,1.80176,-156.313,256
1567604597,361.206,-176.473,-16.4083,179.89,1.80176,-156.313,256
1567604597,361.094,-176.473,-16.4083,179.89,1.80176,-156.313,260
1567604597,361.094,-176.473,-16.4083,179.89,1.82373,-156.313,260
1567604603,345.691,-160.176,-16.4083,179.824,1.88965,-156.731,228
1567604603,345.691,-160.176,-16.4083,179.824,1.88965,-156.731,228
1567604603,345.691,-160.176,-16.4083,179.824,1.88965,-156.731,228
1567604603,345.691,-160.176,-16.4083,179.824,1.88965,-156.731,228
1567604603,345.691,-160.176,-16.4083,179.824,1.88965,-156.731,228
1567604603,345.691,-160.176,-16.2967,179.824,1.88965,-156.731,228
1567604603,345.691,-160.176,-16.2967,179.824,1.88965,-156.731,228
1567604603,345.691,-160.176,-16.2967,179.824,1.88965,-156.731,228
1567604603,345.691,-160.176,-16.2967,179.824,1.88965,-156.731,228
1567604604,345.691,-160.176,-16.2967,179.824,1.88965,-156.731,228
1567604604,345.691,-160.176,-16.2967,179.824,1.88965,-156.731,228
1567604604,345.691,-160.176,-16.2967,179.824,1.88965,-156.731,228
1567604604,345.691,-160.176,-16.2967,179.802,1.88965,-156.731,228
1567604604,345.691,-160.176,-16.2967,179.824,1.88965,-156.731,228
1567604604,345.691,-160.176,-16.2967,179.824,1.88965,-156.731,228
1567604604,345.691,-160.176,-16.2967,179.824,1.88965,-156.731,228
1567604604,345.691,-160.176,-16.2967,179.824,1.88965,-156.731,228
1567604604,345.691,-160.176,-16.4083,179.824,1.88965,-156.731,228
1567604604,345.691,-160.176,-16.4083,179.824,1.88965,-156.731,228
1567604604,345.691,-160.176,-16.4083,179.824,1.88965,-156.731,228
1567604604,345.691,-160.065,-16.4083,179.824,1.88965,-156.731,228
1567604604,345.691,-160.065,-16.4083,179.824,1.88965,-156.731,228
1567604604,345.691,-160.065,-16.4083,179.824,1.88965,-156.731,228
1567604604,345.691,-160.065,-16.4083,179.824,1.88965,-156.731,228
1567604604,345.691,-160.065,-16.4083,179.824,1.88965,-156.731,228
1567604604,345.691,-160.065,-16.4083,179.824,1.88965,-156.731,228
1567604604,345.691,-160.065,-16.4083,179.824,1.88965,-156.731,232
1567604604,345.579,-160.065,-16.4083,179.824,1.88965,-156.731,232
1567604604,345.579,-160.065,-16.4083,179.824,1.88965,-156.731,232
1567604604,345.579,-160.065,-16.4083,179.824,1.88965,-156.731,232
1567604604,345.579,-160.065,-16.4083,179.824,1.88965,-156.731,232
1567604604,345.579,-160.065,-16.4083,179.824,1.88965,-156.731,232
1567604604,345.579,-160.065,-16.4083,179.824,1.88965,-156.731,236
1567604604,345.579,-160.065,-16.4083,179.824,1.88965,-156.731,236
1567604604,345.579,-160.065,-16.4083,179.824,1.88965,-156.731,236
1567604604,345.579,-160.065,-16.4083,179.824,1.88965,-156.731,236
1567604604,345.579,-160.065,-16.2967,179.824,1.88965,-156.731,236
1567604604,345.579,-160.065,-16.2967,179.824,1.88965,-156.731,236
1567604604,345.691,-160.065,-16.2967,179.824,1.88965,-156.731,236
1567604604,345.691,-160.065,-16.4083,179.824,1.88965,-156.731,236
1567604604,345.691,-160.065,-16.4083,179.824,1.88965,-156.731,236
1567604604,345.691,-160.065,-16.4083,179.824,1.88965,-156.731,236
1567604604,345.691,-160.065,-16.4083,179.824,1.88965,-156.731,236
1567604604,345.691,-160.065,-16.4083,179.824,1.88965,-156.731,236
1567604604,345.691,-160.065,-16.4083,179.824,1.88965,-156.731,236
1567604604,345.691,-160.065,-16.4083,179.824,1.88965,-156.731,236
1567604604,345.691,-160.065,-16.4083,179.824,1.88965,-156.731,236
1567604604,345.691,-160.065,-16.4083,179.824,1.88965,-156.731,236
1567604604,345.691,-160.065,-16.4083,179.824,1.86768,-156.731,236
1567604604,345.691,-160.065,-16.4083,179.824,1.86768,-156.731,236
1567604604,345.691,-160.065,-16.4083,179.824,1.86768,-156.731,236
1567604604,345.691,-160.065,-16.4083,179.824,1.86768,-156.731,236
1567604604,345.691,-160.065,-16.4083,179.824,1.86768,-156.731,236
1567604604,345.691,-160.065,-16.4083,179.824,1.86768,-156.753,236
1567604604,345.691,-160.065,-16.4083,179.824,1.86768,-156.753,240
1567604604,345.691,-160.065,-16.4083,179.824,1.86768,-156.753,240
1567604604,345.691,-160.065,-16.4083,179.824,1.86768,-156.753,240
1567604604,345.691,-160.065,-16.4083,179.824,1.86768,-156.753,240
1567604604,345.691,-160.065,-16.4083,179.824,1.86768,-156.753,240
1567604604,345.691,-160.065,-16.4083,179.824,1.86768,-156.753,240
1567604604,345.691,-160.065,-16.4083,179.824,1.88965,-156.753,240
1567604604,345.691,-160.065,-16.4083,179.824,1.88965,-156.753,240
1567604604,345.691,-160.065,-16.4083,179.824,1.88965,-156.753,240
1567604604,345.691,-160.065,-16.4083,179.824,1.88965,-156.753,240
1567604604,345.691,-160.065,-16.4083,179.824,1.88965,-156.753,240
1567604604,345.691,-160.065,-16.4083,179.824,1.88965,-156.731,240
1567604604,345.691,-160.065,-16.4083,179.824,1.88965,-156.731,240
1567604604,345.691,-160.065,-16.4083,179.824,1.88965,-156.731,240
1567604604,345.691,-160.065,-16.4083,179.824,1.88965,-156.731,236
1567604604,345.691,-160.065,-16.4083,179.824,1.88965,-156.731,236
1567604604,345.691,-160.065,-16.4083,179.824,1.88965,-156.731,236
1567604604,345.691,-160.065,-16.4083,179.824,1.88965,-156.731,236
1567604604,345.691,-160.065,-16.4083,179.824,1.88965,-156.731,236
1567604604,345.691,-160.065,-16.4083,179.824,1.88965,-156.731,236
1567604604,345.691,-160.065,-16.4083,179.824,1.88965,-156.731,236
1567604604,345.691,-160.176,-16.4083,179.824,1.88965,-156.731,236
1567604604,345.691,-160.176,-16.4083,179.824,1.88965,-156.753,236
1567604604,345.691,-160.176,-16.4083,179.824,1.88965,-156.753,236
1567604604,345.691,-160.176,-16.4083,179.824,1.88965,-156.753,232
1567604604,345.691,-160.176,-16.4083,179.824,1.88965,-156.753,232
1567604604,345.691,-160.176,-16.4083,179.824,1.91162,-156.753,232
1567604604,345.691,-160.176,-16.4083,179.824,1.91162,-156.753,232
1567604604,345.691,-160.176,-16.4083,179.824,1.91162,-156.753,232
1567604604,345.691,-160.176,-16.4083,179.824,1.91162,-156.753,232
1567604604,345.691,-160.065,-16.4083,179.824,1.88965,-156.753,232
1567604604,345.691,-160.065,-16.4083,179.824,1.88965,-156.753,232
1567604604,345.691,-160.065,-16.4083,179.824,1.91162,-156.753,228
1567604604,345.691,-160.065,-16.4083,179.824,1.91162,-156.753,228
1567604604,345.691,-160.065,-16.4083,179.824,1.91162,-156.753,232
1567604604,345.691,-160.065,-16.4083,179.824,1.91162,-156.753,232
1567604604,345.691,-160.065,-16.4083,179.824,1.91162,-156.753,232
1567604604,345.691,-160.065,-16.4083,179.824,1.88965,-156.753,232
1567604604,345.691,-160.065,-16.4083,179.824,1.88965,-156.753,232
1567604604,345.691,-160.065,-16.4083,179.824,1.88965,-156.753,232
1567604604,345.691,-160.065,-16.4083,179.824,1.88965,-156.753,232
1567604604,345.691,-160.065,-16.4083,179.824,1.88965,-156.731,236
1567604604,345.691,-160.065,-16.4083,179.824,1.88965,-156.731,236
1567604604,345.691,-160.065,-16.4083,179.824,1.88965,-156.731,236
1567604604,345.691,-160.065,-16.4083,179.824,1.88965,-156.731,236
1567604604,345.691,-160.065,-16.4083,179.824,1.88965,-156.731,236
1567604604,345.691,-160.065,-16.4083,179.824,1.88965,-156.731,236
1567604604,345.691,-160.065,-16.4083,179.824,1.88965,-156.731,240
1567604604,345.691,-160.065,-16.4083,179.802,1.88965,-156.731,240
1567604604,345.691,-160.176,-16.4083,179.802,1.88965,-156.731,240
1567604604,345.691,-160.176,-16.4083,179.802,1.88965,-156.731,240
1567604604,345.691,-160.176,-16.4083,179.802,1.88965,-156.731,240
1567604604,345.691,-160.176,-16.2967,179.802,1.88965,-156.731,240
1567604604,345.691,-160.176,-16.2967,179.802,1.88965,-156.731,240
1567604604,345.691,-160.176,-16.2967,179.802,1.91162,-156.731,236
1567604605,345.691,-160.176,-16.2967,179.802,1.91162,-156.731,236
1567604605,345.691,-160.176,-16.2967,179.802,1.91162,-156.731,236
1567604605,345.691,-160.176,-16.2967,179.802,1.91162,-156.731,236
1567604605,345.691,-160.176,-16.2967,179.802,1.91162,-156.731,236
1567604605,345.691,-160.176,-16.2967,179.802,1.91162,-156.731,236
1567604605,345.691,-160.176,-16.2967,179.802,1.91162,-156.731,236
1567604605,345.691,-160.176,-16.2967,179.802,1.91162,-156.731,236
1567604605,345.691,-160.176,-16.2967,179.802,1.91162,-156.731,236
1567604605,345.691,-160.176,-16.2967,179.802,1.91162,-156.731,236
1567604605,345.691,-160.176,-16.2967,179.802,1.93359,-156.731,236
1567604605,345.691,-160.176,-16.2967,179.802,1.93359,-156.731,236
1567604605,345.579,-160.176,-16.2967,179.802,1.93359,-156.731,236
1567604605,345.579,-160.176,-16.2967,179.802,1.93359,-156.731,236
1567604605,345.579,-160.176,-16.2967,179.802,1.93359,-156.731,236
1567604605,345.579,-160.176,-16.2967,179.78,1.93359,-156.731,240
1567604605,345.579,-160.176,-16.2967,179.78,1.93359,-156.709,240
1567604605,345.579,-160.176,-16.1851,179.78,1.93359,-156.709,240
1567604605,345.579,-160.176,-16.1851,179.78,1.93359,-156.709,240
1567604605,345.579,-160.176,-16.1851,179.78,1.93359,-156.709,240
1567604605,345.579,-160.176,-16.1851,179.78,1.93359,-156.709,240
1567604605,345.579,-160.288,-16.2967,179.78,1.93359,-156.709,240
1567604605,345.579,-160.288,-16.2967,179.758,1.93359,-156.709,240
1567604605,345.579,-160.288,-16.2967,179.758,1.91162,-156.709,240
1567604605,345.579,-160.288,-16.2967,179.758,1.91162,-156.731,240
1567604605,345.579,-160.288,-16.2967,179.758,1.91162,-156.731,240
1567604605,345.579,-160.288,-16.2967,179.78,1.91162,-156.731,240
1567604605,345.579,-160.288,-16.2967,179.78,1.91162,-156.731,240
1567604605,345.579,-160.176,-16.2967,179.78,1.91162,-156.731,236
1567604605,345.691,-160.176,-16.2967,179.78,1.91162,-156.731,236
1567604605,345.691,-160.176,-16.2967,179.78,1.91162,-156.731,236
1567604605,345.691,-160.176,-16.2967,179.802,1.91162,-156.731,236
1567604605,345.691,-160.176,-16.2967,179.802,1.91162,-156.731,236
1567604605,345.691,-160.176,-16.2967,179.802,1.91162,-156.731,232
1567604605,345.691,-160.176,-16.2967,179.802,1.91162,-156.731,232
1567604605,345.691,-160.176,-16.2967,179.802,1.91162,-156.731,232
1567604605,345.691,-160.176,-16.2967,179.802,1.91162,-156.731,232
1567604605,345.691,-160.176,-16.2967,179.802,1.91162,-156.731,232
1567604605,345.691,-160.176,-16.2967,179.802,1.91162,-156.731,232
1567604605,345.691,-160.176,-16.2967,179.802,1.88965,-156.731,232
1567604605,345.691,-160.176,-16.4083,179.802,1.88965,-156.731,232
1567604605,345.691,-160.176,-16.4083,179.802,1.88965,-156.753,232
1567604605,345.691,-160.176,-16.4083,179.78,1.88965,-156.753,232
1567604605,345.691,-160.176,-16.4083,179.78,1.88965,-156.753,236
1567604605,345.691,-160.176,-16.4083,179.78,1.88965,-156.753,236
1567604605,345.691,-160.176,-16.4083,179.78,1.88965,-156.753,236
1567604605,345.691,-160.288,-16.4083,179.78,1.88965,-156.753,236
1567604605,345.579,-160.288,-16.4083,179.78,1.88965,-156.753,236
1567604605,345.579,-160.288,-16.4083,179.78,1.88965,-156.753,236
1567604605,345.579,-160.288,-16.4083,179.78,1.88965,-156.753,236
1567604605,345.579,-160.288,-16.4083,179.78,1.88965,-156.753,240
1567604605,345.579,-160.288,-16.4083,179.78,1.88965,-156.753,240
1567604605,345.579,-160.288,-16.4083,179.78,1.88965,-156.753,240
1567604605,345.579,-160.176,-16.4083,179.78,1.88965,-156.753,240
1567604605,345.579,-160.176,-16.4083,179.78,1.88965,-156.753,240
1567604605,345.579,-160.176,-16.4083,179.78,1.88965,-156.753,240
1567604605,345.579,-160.176,-16.4083,179.78,1.88965,-156.753,240
1567604605,345.579,-160.176,-16.4083,179.78,1.88965,-156.753,240
1567604605,345.579,-160.176,-16.4083,179.802,1.88965,-156.753,244
1567604605,345.579,-160.176,-16.4083,179.802,1.88965,-156.753,244
1567604605,345.579,-160.176,-16.4083,179.802,1.88965,-156.753,244
1567604605,345.579,-160.176,-16.4083,179.802,1.88965,-156.753,244
1567604605,345.579,-160.176,-16.4083,179.802,1.88965,-156.753,244
1567604605,345.579,-160.176,-16.4083,179.802,1.91162,-156.753,244
1567604605,345.579,-160.176,-16.4083,179.802,1.91162,-156.753,244
1567604605,345.579,-160.176,-16.2967,179.802,1.91162,-156.753,244
1567604605,345.579,-160.176,-16.2967,179.802,1.91162,-156.753,244
1567604605,345.579,-160.176,-16.2967,179.802,1.91162,-156.753,240
1567604605,345.579,-160.176,-16.2967,179.802,1.91162,-156.753,240
1567604605,345.579,-160.176,-16.2967,179.802,1.91162,-156.753,240
1567604605,345.579,-160.176,-16.2967,179.802,1.91162,-156.753,240
1567604605,345.579,-160.176,-16.2967,179.802,1.91162,-156.753,240
1567604605,345.579,-160.176,-16.2967,179.802,1.91162,-156.753,240
1567604605,345.579,-160.176,-16.2967,179.802,1.91162,-156.753,240
1567604605,345.691,-160.176,-16.2967,179.802,1.91162,-156.753,240
1567604605,345.691,-160.176,-16.2967,179.802,1.91162,-156.753,240
1567604605,345.691,-160.176,-16.2967,179.824,1.91162,-156.753,236
1567604605,345.691,-160.176,-16.2967,179.824,1.91162,-156.753,236
1567604605,345.691,-160.176,-16.2967,179.802,1.91162,-156.753,236
1567604605,345.691,-160.176,-16.2967,179.824,1.91162,-156.753,236
1567604605,345.691,-160.176,-16.2967,179.824,1.91162,-156.753,236
1567604605,345.691,-160.176,-16.2967,179.824,1.91162,-156.753,236
1567604605,345.691,-160.176,-16.2967,179.824,1.91162,-156.753,232
1567604605,345.691,-160.176,-16.2967,179.824,1.91162,-156.753,232
1567604605,345.691,-160.176,-16.2967,179.824,1.91162,-156.753,232
1567604605,345.691,-160.176,-16.2967,179.824,1.91162,-156.753,232
1567604605,345.691,-160.176,-16.2967,179.824,1.91162,-156.753,232
1567604605,345.691,-160.176,-16.2967,179.824,1.91162,-156.753,232
1567604605,345.691,-160.176,-16.2967,179.824,1.91162,-156.753,232
1567604605,345.691,-160.176,-16.2967,179.824,1.91162,-156.731,232
1567604605,345.579,-160.176,-16.2967,179.824,1.93359,-156.731,232
1567604605,345.579,-160.176,-16.2967,179.824,1.93359,-156.731,232
1567604605,345.579,-160.065,-16.2967,179.824,1.93359,-156.731,236
1567604605,345.579,-160.065,-16.2967,179.824,1.93359,-156.731,236
1567604605,345.579,-160.065,-16.1851,179.824,1.93359,-156.731,236
1567604605,345.691,-160.176,-16.1851,179.824,1.93359,-156.731,236
1567604605,345.691,-160.176,-16.1851,179.824,1.93359,-156.731,236
1567604605,345.691,-160.065,-16.1851,179.824,1.93359,-156.731,236
1567604605,345.691,-160.065,-16.1851,179.824,1.93359,-156.731,236
1567604605,345.691,-160.065,-16.1851,179.824,1.93359,-156.731,232
1567604605,345.691,-160.065,-16.1851,179.824,1.93359,-156.731,232
1567604606,345.691,-160.065,-16.1851,179.824,1.93359,-156.731,232
1567604606,345.691,-160.065,-16.1851,179.824,1.93359,-156.731,232
1567604606,345.691,-160.065,-16.1851,179.824,1.93359,-156.731,232
1567604606,345.691,-160.176,-16.1851,179.824,1.93359,-156.753,232
1567604606,345.691,-160.176,-16.1851,179.824,1.93359,-156.753,232
1567604606,345.691,-160.176,-16.1851,179.824,1.93359,-156.753,232
1567604606,345.691,-160.176,-16.1851,179.824,1.93359,-156.753,232
1567604606,345.691,-160.176,-16.2967,179.824,1.93359,-156.753,232
1567604606,345.691,-160.176,-16.2967,179.824,1.93359,-156.753,232
1567604606,345.691,-160.176,-16.2967,179.824,1.93359,-156.753,232
1567604606,345.691,-160.176,-16.2967,179.824,1.93359,-156.753,232
1567604606,345.691,-160.176,-16.2967,179.802,1.91162,-156.753,232
1567604606,345.691,-160.176,-16.2967,179.802,1.91162,-156.753,232
1567604606,345.691,-160.176,-16.2967,179.802,1.91162,-156.753,236
1567604606,345.691,-160.176,-16.2967,179.802,1.91162,-156.753,236
1567604606,345.691,-160.176,-16.2967,179.802,1.91162,-156.753,236
1567604606,345.691,-160.176,-16.2967,179.802,1.91162,-156.753,236
1567604606,345.691,-160.176,-16.2967,179.802,1.91162,-156.753,236
1567604606,345.691,-160.176,-16.2967,179.802,1.91162,-156.731,236
1567604606,345.691,-160.176,-16.2967,179.802,1.91162,-156.731,240
1567604606,345.579,-160.176,-16.2967,179.802,1.91162,-156.731,240
1567604606,345.579,-160.065,-16.2967,179.824,1.91162,-156.731,240
1567604606,345.579,-160.065,-16.2967,179.824,1.91162,-156.731,240
1567604606,345.579,-160.065,-16.2967,179.824,1.91162,-156.731,240
1567604606,345.579,-160.065,-16.2967,179.824,1.91162,-156.731,240
1567604606,345.579,-160.065,-16.2967,179.824,1.91162,-156.731,240
1567604606,345.579,-160.065,-16.2967,179.824,1.91162,-156.731,240
1567604606,345.579,-160.065,-16.2967,179.824,1.91162,-156.731,240
1567604606,345.579,-160.065,-16.2967,179.824,1.91162,-156.731,240
1567604606,345.579,-160.065,-16.2967,179.824,1.91162,-156.731,240
1567604606,345.579,-160.065,-16.2967,179.824,1.91162,-156.731,240
1567604606,345.579,-160.176,-16.2967,179.802,1.91162,-156.731,240
1567604606,345.579,-160.176,-16.2967,179.802,1.91162,-156.731,240
1567604606,345.579,-160.176,-16.2967,179.802,1.91162,-156.731,240
1567604606,345.579,-160.065,-16.2967,179.802,1.91162,-156.709,240
1567604606,345.579,-160.065,-16.2967,179.802,1.91162,-156.709,240
1567604606,345.579,-160.065,-16.2967,179.802,1.91162,-156.709,240
1567604606,345.579,-160.065,-16.2967,179.824,1.91162,-156.709,240
1567604606,345.579,-160.065,-16.2967,179.824,1.91162,-156.731,240
1567604606,345.579,-160.065,-16.2967,179.824,1.91162,-156.731,240
1567604606,345.579,-160.065,-16.2967,179.824,1.91162,-156.731,240
1567604606,345.579,-160.065,-16.2967,179.824,1.91162,-156.731,244
1567604606,345.579,-160.065,-16.2967,179.824,1.91162,-156.731,244
1567604606,345.579,-160.065,-16.2967,179.824,1.91162,-156.731,244
1567604606,345.579,-160.065,-16.2967,179.824,1.91162,-156.731,244
1567604606,345.579,-160.065,-16.2967,179.824,1.91162,-156.731,244
1567604606,345.579,-160.065,-16.2967,179.824,1.91162,-156.731,244
1567604606,345.579,-160.065,-16.2967,179.824,1.91162,-156.731,244
1567604606,345.691,-160.065,-16.2967,179.824,1.93359,-156.731,244
1567604606,345.691,-160.065,-16.2967,179.824,1.93359,-156.731,244
1567604606,345.691,-160.065,-16.2967,179.824,1.93359,-156.731,244
1567604606,345.691,-160.065,-16.2967,179.824,1.93359,-156.731,244
1567604606,345.691,-160.065,-16.2967,179.824,1.93359,-156.731,240
1567604606,345.691,-160.065,-16.2967,179.824,1.93359,-156.731,240
1567604606,345.579,-160.065,-16.2967,179.824,1.93359,-156.731,240
1567604606,345.579,-160.065,-16.2967,179.824,1.93359,-156.731,240
1567604606,345.579,-160.065,-16.2967,179.824,1.91162,-156.731,240
1567604606,345.579,-160.065,-16.2967,179.802,1.91162,-156.731,240
1567604606,345.579,-160.065,-16.2967,179.802,1.91162,-156.731,240
1567604606,345.579,-160.065,-16.4083,179.802,1.91162,-156.753,240
1567604606,345.579,-160.176,-16.4083,179.802,1.91162,-156.753,240
1567604606,345.579,-160.176,-16.4083,179.802,1.91162,-156.753,240
1567604606,345.579,-160.176,-16.4083,179.802,1.91162,-156.753,240
1567604606,345.579,-160.176,-16.4083,179.802,1.91162,-156.753,240
1567604606,345.579,-160.176,-16.4083,179.802,1.91162,-156.753,240
1567604606,345.579,-160.176,-16.4083,179.802,1.91162,-156.753,240
1567604606,345.579,-160.176,-16.4083,179.802,1.91162,-156.753,240
1567604606,345.579,-160.176,-16.4083,179.802,1.91162,-156.753,240
1567604606,345.579,-160.176,-16.4083,179.802,1.91162,-156.753,240
1567604606,345.579,-160.176,-16.4083,179.802,1.91162,-156.753,240
1567604606,345.579,-160.176,-16.4083,179.802,1.91162,-156.753,240
1567604606,345.579,-160.176,-16.4083,179.802,1.91162,-156.753,240
1567604606,345.579,-160.065,-16.4083,179.802,1.91162,-156.753,240
1567604606,345.579,-160.065,-16.4083,179.802,1.91162,-156.753,240
1567604606,345.579,-160.065,-16.4083,179.802,1.88965,-156.753,240
1567604606,345.579,-160.065,-16.4083,179.824,1.88965,-156.753,240
1567604606,345.579,-160.065,-16.4083,179.824,1.88965,-156.753,240
1567604606,345.579,-160.065,-16.4083,179.824,1.88965,-156.753,240
1567604606,345.579,-160.065,-16.4083,179.824,1.88965,-156.753,240
1567604606,345.579,-160.065,-16.4083,179.824,1.88965,-156.753,240
1567604606,345.579,-160.065,-16.4083,179.824,1.88965,-156.753,244
1567604606,345.691,-160.065,-16.4083,179.846,1.88965,-156.753,244
1567604606,345.691,-160.065,-16.4083,179.846,1.88965,-156.753,244
1567604606,345.691,-160.065,-16.4083,179.846,1.88965,-156.753,244
1567604606,345.691,-160.065,-16.4083,179.846,1.88965,-156.753,244
1567604606,345.691,-160.065,-16.4083,179.846,1.88965,-156.753,244
1567604606,345.691,-160.065,-16.2967,179.846,1.88965,-156.753,244
1567604606,345.691,-160.065,-16.2967,179.824,1.91162,-156.753,244
1567604606,345.691,-160.065,-16.2967,179.824,1.91162,-156.753,244
1567604606,345.691,-160.065,-16.2967,179.824,1.91162,-156.753,244
1567604606,345.691,-160.065,-16.2967,179.824,1.91162,-156.753,244
1567604606,345.691,-160.065,-16.2967,179.824,1.91162,-156.753,244
1567604606,345.691,-160.065,-16.2967,179.824,1.91162,-156.753,244
1567604606,345.691,-160.065,-16.2967,179.824,1.91162,-156.731,240
1567604606,345.691,-160.065,-16.2967,179.824,1.91162,-156.731,240
1567604606,345.691,-160.065,-16.2967,179.846,1.91162,-156.731,240
1567604606,345.691,-160.065,-16.2967,179.846,1.91162,-156.731,240
1567604606,345.691,-160.065,-16.2967,179.846,1.91162,-156.731,240
1567604606,345.691,-160.065,-16.2967,179.846,1.91162,-156.731,240
1567604606,345.691,-160.065,-16.2967,179.846,1.93359,-156.731,240
1567604607,345.691,-160.065,-16.2967,179.846,1.93359,-156.731,240
1567604607,345.691,-160.065,-16.2967,179.846,1.93359,-156.731,240
1567604607,345.691,-160.065,-16.2967,179.846,1.93359,-156.731,240
1567604607,345.691,-160.065,-16.2967,179.846,1.93359,-156.731,240
1567604607,345.691,-160.065,-16.2967,179.846,1.93359,-156.731,240
1567604607,345.691,-160.065,-16.2967,179.846,1.93359,-156.731,240
1567604607,345.691,-160.065,-16.2967,179.846,1.93359,-156.731,240
1567604607,345.691,-160.065,-16.2967,179.846,1.93359,-156.753,240
1567604607,345.691,-160.065,-16.2967,179.846,1.93359,-156.753,240
1567604607,345.691,-160.065,-16.2967,179.846,1.93359,-156.753,240
1567604607,345.691,-160.065,-16.2967,179.846,1.93359,-156.753,240
1567604607,345.691,-160.065,-16.2967,179.846,1.93359,-156.753,236
1567604607,345.691,-160.065,-16.2967,179.846,1.91162,-156.753,236
1567604607,345.691,-160.065,-16.2967,179.824,1.91162,-156.753,236
1567604607,345.691,-160.065,-16.2967,179.824,1.91162,-156.753,236
1567604607,345.691,-160.065,-16.2967,179.824,1.91162,-156.753,236
1567604607,345.691,-160.065,-16.2967,179.824,1.91162,-156.753,236
1567604607,345.691,-160.065,-16.2967,179.824,1.91162,-156.753,236
1567604607,345.691,-160.065,-16.2967,179.824,1.91162,-156.753,236
1567604607,345.691,-160.065,-16.2967,179.824,1.91162,-156.753,236
1567604607,345.691,-160.176,-16.2967,179.824,1.91162,-156.753,236
1567604607,345.691,-160.176,-16.2967,179.824,1.91162,-156.753,236
1567604607,345.691,-160.176,-16.2967,179.824,1.91162,-156.753,232
1567604607,345.691,-160.176,-16.2967,179.824,1.91162,-156.753,232
1567604607,345.691,-160.176,-16.2967,179.824,1.91162,-156.753,232
1567604607,345.691,-160.176,-16.2967,179.824,1.91162,-156.753,232
1567604607,345.691,-160.176,-16.2967,179.824,1.91162,-156.753,232
1567604607,345.691,-160.176,-16.2967,179.824,1.91162,-156.753,232
1567604607,345.691,-160.176,-16.2967,179.824,1.91162,-156.753,232
1567604607,345.691,-160.176,-16.2967,179.824,1.91162,-156.753,232
1567604607,345.691,-160.176,-16.2967,179.824,1.91162,-156.753,232
1567604607,345.691,-160.176,-16.2967,179.824,1.91162,-156.753,232
1567604607,345.691,-160.176,-16.2967,179.824,1.91162,-156.753,232
1567604607,345.691,-160.176,-16.2967,179.824,1.91162,-156.753,232
1567604607,345.691,-160.176,-16.2967,179.824,1.91162,-156.753,232
1567604607,345.691,-160.176,-16.2967,179.824,1.91162,-156.753,232
1567604607,345.691,-160.176,-16.2967,179.824,1.91162,-156.753,232
1567604607,345.691,-160.176,-16.2967,179.824,1.91162,-156.753,232
1567604607,345.691,-160.176,-16.2967,179.824,1.91162,-156.753,236
1567604607,345.691,-160.065,-16.2967,179.824,1.91162,-156.753,236
1567604607,345.691,-160.065,-16.2967,179.824,1.91162,-156.753,236
1567604607,345.691,-160.065,-16.2967,179.824,1.91162,-156.753,236
1567604607,345.691,-160.065,-16.2967,179.824,1.91162,-156.753,236
1567604607,345.691,-160.065,-16.2967,179.824,1.91162,-156.753,236
1567604607,345.579,-160.176,-16.2967,179.824,1.91162,-156.753,236
1567604607,345.579,-160.176,-16.2967,179.824,1.91162,-156.753,240
1567604607,345.579,-160.176,-16.4083,179.824,1.91162,-156.753,240
1567604607,345.579,-160.176,-16.4083,179.824,1.88965,-156.753,240
1567604607,345.579,-160.176,-16.4083,179.824,1.88965,-156.753,240
1567604607,345.579,-160.176,-16.4083,179.824,1.88965,-156.753,240
1567604607,345.579,-160.065,-16.4083,179.824,1.88965,-156.753,236
1567604607,345.579,-160.065,-16.4083,179.824,1.88965,-156.753,236
1567604607,345.691,-160.065,-16.4083,179.824,1.88965,-156.753,236
1567604607,345.691,-160.065,-16.4083,179.824,1.88965,-156.753,236
1567604607,345.691,-160.065,-16.4083,179.846,1.88965,-156.753,236
1567604607,345.691,-160.065,-16.4083,179.846,1.88965,-156.753,236
1567604607,345.691,-160.065,-16.4083,179.846,1.88965,-156.753,236
1567604607,345.691,-160.065,-16.4083,179.846,1.88965,-156.753,236
1567604607,345.691,-160.065,-16.4083,179.846,1.88965,-156.753,236
1567604607,345.691,-160.065,-16.4083,179.846,1.88965,-156.753,236
1567604607,345.691,-160.065,-16.4083,179.846,1.88965,-156.753,236
1567604607,345.691,-160.065,-16.4083,179.846,1.88965,-156.753,236
1567604607,345.691,-160.065,-16.4083,179.824,1.88965,-156.753,236
1567604607,345.691,-160.065,-16.4083,179.824,1.88965,-156.753,236
1567604607,345.691,-160.065,-16.4083,179.824,1.88965,-156.753,236
1567604607,345.691,-160.065,-16.4083,179.824,1.88965,-156.753,236
1567604607,345.691,-160.065,-16.4083,179.824,1.88965,-156.753,236
1567604607,345.691,-160.065,-16.4083,179.824,1.91162,-156.753,236
1567604607,345.691,-160.065,-16.4083,179.824,1.91162,-156.753,236
1567604607,345.691,-160.065,-16.2967,179.824,1.91162,-156.753,236
1567604607,345.691,-160.065,-16.2967,179.824,1.91162,-156.753,236
1567604607,345.691,-160.065,-16.2967,179.824,1.91162,-156.753,240
1567604607,345.691,-160.065,-16.2967,179.824,1.91162,-156.753,240
1567604607,345.691,-160.065,-16.2967,179.824,1.91162,-156.731,240
1567604607,345.691,-160.065,-16.2967,179.824,1.91162,-156.731,240
1567604607,345.691,-160.065,-16.2967,179.824,1.91162,-156.731,236
1567604607,345.691,-160.065,-16.2967,179.824,1.91162,-156.731,236
1567604607,345.691,-160.065,-16.2967,179.824,1.91162,-156.731,236
1567604607,345.691,-160.065,-16.2967,179.824,1.91162,-156.731,236
1567604607,345.691,-160.065,-16.2967,179.824,1.93359,-156.731,236
1567604607,345.691,-160.065,-16.2967,179.824,1.93359,-156.731,236
1567604607,345.691,-160.065,-16.2967,179.824,1.93359,-156.731,236
1567604607,345.691,-160.065,-16.2967,179.824,1.93359,-156.731,236
1567604607,345.691,-160.065,-16.2967,179.824,1.93359,-156.731,236
1567604607,345.691,-160.065,-16.2967,179.824,1.93359,-156.731,236
1567604607,345.691,-160.065,-16.2967,179.824,1.93359,-156.731,236
1567604607,345.691,-160.065,-16.2967,179.824,1.93359,-156.731,236
1567604607,345.691,-160.065,-16.2967,179.824,1.93359,-156.731,236
1567604607,345.691,-160.065,-16.2967,179.824,1.93359,-156.731,236
1567604607,345.691,-160.065,-16.2967,179.824,1.93359,-156.731,236
1567604607,345.691,-160.065,-16.2967,179.824,1.93359,-156.731,232
1567604607,345.691,-160.065,-16.2967,179.824,1.93359,-156.731,232
1567604607,345.691,-160.065,-16.2967,179.824,1.93359,-156.731,232
1567604607,345.691,-160.065,-16.2967,179.824,1.93359,-156.731,232
1567604607,345.691,-160.065,-16.2967,179.824,1.93359,-156.731,232
1567604607,345.691,-160.065,-16.2967,179.824,1.93359,-156.731,232
1567604607,345.691,-160.065,-16.2967,179.824,1.93359,-156.731,232
1567604607,345.691,-160.065,-16.2967,179.824,1.93359,-156.731,232
1567604607,345.691,-160.065,-16.2967,179.824,1.93359,-156.731,236
1567604607,345.691,-160.065,-16.2967,179.824,1.93359,-156.731,236
1567604608,345.691,-160.065,-16.2967,179.824,1.93359,-156.731,236
1567604608,345.691,-160.065,-16.2967,179.824,1.93359,-156.731,236
1567604608,345.691,-160.065,-16.2967,179.824,1.93359,-156.731,240
1567604608,345.579,-160.065,-16.2967,179.824,1.91162,-156.731,240
1567604608,345.579,-160.065,-16.2967,179.824,1.91162,-156.731,240
1567604608,345.579,-160.065,-16.2967,179.824,1.91162,-156.731,240
1567604608,345.579,-160.065,-16.2967,179.824,1.91162,-156.731,244
1567604608,345.579,-160.065,-16.2967,179.824,1.91162,-156.731,244
1567604608,345.579,-160.065,-16.2967,179.824,1.88965,-156.731,244
1567604608,345.579,-160.065,-16.2967,179.824,1.88965,-156.731,244
1567604608,345.579,-160.065,-16.4083,179.824,1.88965,-156.731,244
1567604608,345.579,-160.065,-16.4083,179.824,1.88965,-156.731,240
1567604608,345.691,-160.065,-16.4083,179.824,1.88965,-156.731,240
1567604608,345.691,-160.176,-16.4083,179.824,1.88965,-156.753,240
1567604608,345.691,-160.176,-16.4083,179.824,1.88965,-156.753,240
1567604608,345.691,-160.176,-16.2967,179.802,1.88965,-156.753,236
1567604608,345.691,-160.176,-16.2967,179.802,1.88965,-156.753,236
1567604608,345.691,-160.176,-16.2967,179.802,1.88965,-156.753,236
1567604608,345.691,-160.176,-16.2967,179.802,1.88965,-156.753,236
1567604608,345.691,-160.176,-16.2967,179.802,1.88965,-156.753,232
1567604608,345.691,-160.176,-16.2967,179.802,1.88965,-156.753,232
1567604608,345.691,-160.176,-16.4083,179.802,1.88965,-156.753,232
1567604608,345.691,-160.176,-16.4083,179.802,1.88965,-156.753,232
1567604608,345.691,-160.176,-16.4083,179.802,1.88965,-156.753,232
1567604608,345.691,-160.176,-16.4083,179.824,1.88965,-156.753,228
1567604608,345.691,-160.176,-16.4083,179.824,1.88965,-156.753,228
1567604608,345.691,-160.176,-16.4083,179.824,1.88965,-156.753,228
1567604608,345.802,-160.065,-16.4083,179.824,1.88965,-156.753,228
1567604608,345.802,-160.065,-16.4083,179.824,1.88965,-156.753,232
1567604608,345.802,-160.065,-16.4083,179.824,1.88965,-156.753,232
1567604608,345.802,-160.065,-16.4083,179.824,1.88965,-156.753,232
1567604608,345.802,-160.065,-16.4083,179.824,1.88965,-156.753,232
1567604608,345.802,-160.065,-16.4083,179.824,1.88965,-156.753,232
1567604608,345.802,-160.065,-16.4083,179.846,1.88965,-156.753,232
1567604608,345.802,-160.065,-16.4083,179.846,1.88965,-156.753,232
1567604608,345.802,-160.065,-16.4083,179.824,1.88965,-156.753,232
1567604608,345.802,-160.065,-16.4083,179.824,1.88965,-156.753,232
1567604608,345.802,-160.065,-16.4083,179.824,1.88965,-156.753,232
1567604608,345.802,-160.065,-16.4083,179.824,1.86768,-156.753,232
1567604608,345.691,-160.065,-16.4083,179.846,1.86768,-156.753,232
1567604608,345.691,-160.065,-16.4083,179.846,1.86768,-156.753,232
1567604608,345.691,-160.065,-16.4083,179.846,1.86768,-156.753,236
1567604608,345.691,-160.065,-16.4083,179.846,1.86768,-156.753,236
1567604608,345.802,-160.065,-16.5199,179.846,1.86768,-156.753,232
1567604608,345.802,-160.065,-16.5199,179.846,1.86768,-156.753,232
1567604608,345.802,-160.065,-16.4083,179.846,1.86768,-156.753,232
1567604608,345.802,-160.065,-16.4083,179.846,1.86768,-156.753,232
1567604608,345.802,-160.065,-16.4083,179.846,1.86768,-156.753,232
1567604608,345.802,-160.065,-16.4083,179.846,1.88965,-156.753,232
1567604608,345.802,-160.065,-16.4083,179.846,1.88965,-156.753,232
1567604608,345.802,-160.065,-16.4083,179.846,1.88965,-156.753,232
1567604608,345.802,-160.065,-16.4083,179.846,1.88965,-156.753,232
1567604608,345.802,-160.065,-16.4083,179.846,1.88965,-156.753,228
1567604608,345.802,-160.065,-16.4083,179.846,1.88965,-156.753,228
1567604608,345.802,-160.065,-16.4083,179.846,1.88965,-156.753,228
1567604608,345.802,-160.065,-16.4083,179.824,1.88965,-156.753,228
1567604608,345.802,-160.065,-16.4083,179.824,1.88965,-156.753,228
1567604608,345.802,-160.065,-16.4083,179.824,1.88965,-156.753,228
1567604608,345.802,-160.065,-16.4083,179.824,1.88965,-156.753,228
1567604608,345.802,-160.065,-16.4083,179.824,1.88965,-156.753,228
1567604608,345.802,-160.065,-16.4083,179.824,1.88965,-156.753,228
1567604608,345.802,-160.065,-16.4083,179.824,1.88965,-156.753,228
1567604608,345.802,-160.065,-16.4083,179.824,1.88965,-156.753,228
1567604608,345.802,-160.065,-16.4083,179.824,1.88965,-156.753,228
1567604608,345.802,-160.065,-16.4083,179.824,1.88965,-156.753,228
1567604608,345.802,-160.065,-16.4083,179.846,1.88965,-156.753,232
1567604608,345.802,-160.065,-16.4083,179.846,1.88965,-156.753,232
1567604608,345.802,-160.065,-16.4083,179.846,1.88965,-156.753,232
1567604608,345.802,-160.065,-16.4083,179.846,1.88965,-156.753,232
1567604608,345.802,-160.065,-16.4083,179.846,1.88965,-156.753,232
1567604608,345.802,-160.065,-16.4083,179.846,1.88965,-156.753,232
1567604608,345.802,-160.065,-16.4083,179.846,1.88965,-156.753,232
1567604608,345.802,-160.065,-16.4083,179.846,1.88965,-156.753,232
1567604608,345.691,-160.065,-16.4083,179.846,1.88965,-156.753,232
1567604608,345.691,-160.065,-16.4083,179.846,1.88965,-156.753,232
1567604608,345.691,-160.065,-16.4083,179.824,1.88965,-156.753,232
1567604608,345.691,-160.065,-16.4083,179.824,1.88965,-156.753,232
1567604608,345.691,-160.065,-16.4083,179.824,1.88965,-156.753,236
1567604608,345.691,-160.065,-16.4083,179.824,1.88965,-156.753,236
1567604608,345.691,-160.065,-16.2967,179.824,1.88965,-156.753,236
1567604608,345.691,-160.065,-16.2967,179.824,1.88965,-156.753,236
1567604608,345.691,-160.065,-16.2967,179.824,1.88965,-156.753,240
1567604608,345.691,-160.065,-16.2967,179.824,1.88965,-156.753,240
1567604608,345.691,-160.065,-16.4083,179.824,1.88965,-156.753,240
1567604608,345.691,-160.176,-16.4083,179.824,1.88965,-156.753,244
1567604608,345.691,-160.176,-16.4083,179.824,1.88965,-156.753,244
1567604608,345.691,-160.176,-16.4083,179.824,1.88965,-156.753,244
1567604608,345.691,-160.176,-16.4083,179.824,1.88965,-156.753,248
1567604608,345.579,-160.176,-16.4083,179.802,1.86768,-156.753,248
1567604608,345.579,-160.176,-16.4083,179.802,1.86768,-156.753,248
1567604608,345.579,-160.176,-16.4083,179.802,1.86768,-156.775,248
1567604616,322.027,-135.954,-16.5199,179.758,1.69189,-156.423,232
1567604616,322.027,-135.954,-16.5199,179.758,1.69189,-156.423,232
1567604616,322.027,-135.954,-16.4083,179.758,1.69189,-156.423,232
1567604616,322.027,-135.954,-16.4083,179.758,1.69189,-156.423,232
1567604616,322.027,-135.954,-16.4083,179.758,1.69189,-156.423,232
1567604616,322.027,-135.954,-16.4083,179.758,1.69189,-156.423,232
1567604616,322.027,-135.954,-16.4083,179.758,1.69189,-156.423,232
1567604616,322.027,-135.954,-16.4083,179.758,1.69189,-156.423,232
1567604616,322.027,-135.954,-16.4083,179.758,1.69189,-156.423,232
1567604616,322.027,-135.954,-16.4083,179.758,1.69189,-156.423,232
1567604616,322.027,-135.954,-16.4083,179.758,1.69189,-156.423,232
1567604616,322.027,-135.954,-16.4083,179.758,1.69189,-156.423,232
1567604616,322.027,-135.954,-16.4083,179.758,1.69189,-156.423,232
1567604616,322.027,-135.954,-16.4083,179.758,1.69189,-156.423,232
1567604616,322.027,-136.066,-16.4083,179.758,1.69189,-156.423,232
1567604616,322.027,-136.066,-16.4083,179.758,1.69189,-156.423,232
1567604616,322.027,-136.066,-16.4083,179.758,1.69189,-156.423,232
1567604616,322.027,-136.066,-16.4083,179.758,1.69189,-156.423,228
1567604616,322.027,-136.066,-16.4083,179.758,1.69189,-156.423,228
1567604616,322.027,-136.066,-16.4083,179.758,1.69189,-156.423,228
1567604616,322.027,-136.066,-16.4083,179.758,1.69189,-156.423,228
1567604616,322.027,-136.066,-16.4083,179.758,1.69189,-156.423,228
1567604616,322.027,-136.066,-16.4083,179.758,1.69189,-156.423,224
1567604616,322.027,-136.066,-16.4083,179.758,1.69189,-156.423,224
1567604616,322.027,-136.066,-16.4083,179.758,1.69189,-156.423,224
1567604616,322.027,-136.066,-16.4083,179.758,1.69189,-156.423,224
1567604616,322.027,-136.066,-16.4083,179.758,1.69189,-156.423,224
1567604616,322.027,-136.066,-16.4083,179.758,1.69189,-156.423,224
1567604616,322.027,-135.954,-16.4083,179.758,1.71387,-156.423,224
1567604616,322.027,-135.954,-16.4083,179.758,1.69189,-156.423,224
1567604616,322.027,-135.954,-16.4083,179.758,1.69189,-156.423,224
1567604616,322.027,-135.954,-16.4083,179.758,1.69189,-156.423,224
1567604616,322.027,-135.954,-16.4083,179.758,1.69189,-156.423,224
1567604616,322.027,-135.954,-16.4083,179.758,1.69189,-156.423,224
1567604616,322.027,-135.954,-16.4083,179.758,1.69189,-156.423,224
1567604616,322.027,-135.954,-16.4083,179.758,1.69189,-156.423,228
1567604616,322.027,-135.954,-16.4083,179.758,1.69189,-156.423,228
1567604616,322.027,-135.954,-16.4083,179.758,1.69189,-156.423,228
1567604616,322.027,-135.954,-16.4083,179.758,1.69189,-156.423,228
1567604616,322.027,-135.954,-16.4083,179.758,1.69189,-156.423,228
1567604616,322.027,-135.954,-16.4083,179.758,1.69189,-156.423,228
1567604616,322.027,-135.954,-16.4083,179.758,1.69189,-156.423,228
1567604616,322.027,-135.954,-16.4083,179.758,1.69189,-156.423,232
1567604616,322.027,-135.954,-16.4083,179.758,1.69189,-156.423,232
1567604616,322.027,-135.954,-16.4083,179.758,1.69189,-156.423,232
1567604616,322.027,-135.954,-16.4083,179.758,1.69189,-156.423,232
1567604616,322.027,-135.954,-16.4083,179.758,1.69189,-156.423,232
1567604616,322.027,-135.954,-16.4083,179.758,1.69189,-156.423,228
1567604616,322.027,-135.954,-16.4083,179.758,1.69189,-156.423,228
1567604616,322.027,-135.954,-16.4083,179.758,1.69189,-156.423,228
1567604616,322.027,-135.954,-16.4083,179.758,1.71387,-156.423,228
1567604616,322.027,-135.954,-16.4083,179.758,1.71387,-156.423,228
1567604616,322.027,-135.954,-16.4083,179.758,1.71387,-156.423,228
1567604616,322.027,-135.954,-16.4083,179.758,1.71387,-156.423,228
1567604616,322.027,-135.954,-16.4083,179.758,1.71387,-156.423,228
1567604616,322.027,-135.954,-16.4083,179.758,1.71387,-156.423,228
1567604616,322.027,-135.954,-16.4083,179.758,1.71387,-156.423,228
1567604616,322.027,-135.954,-16.4083,179.758,1.71387,-156.423,228
1567604616,322.027,-135.954,-16.4083,179.758,1.71387,-156.423,224
1567604616,322.027,-135.954,-16.4083,179.758,1.71387,-156.423,224
1567604616,322.027,-135.954,-16.4083,179.758,1.71387,-156.423,224
1567604616,322.027,-135.954,-16.4083,179.758,1.71387,-156.423,224
1567604616,322.027,-135.954,-16.4083,179.758,1.71387,-156.423,224
1567604616,322.027,-135.954,-16.4083,179.758,1.71387,-156.423,224
1567604616,322.027,-135.954,-16.4083,179.758,1.73584,-156.423,224
1567604616,322.027,-135.954,-16.4083,179.758,1.73584,-156.423,224
1567604616,322.027,-135.954,-16.4083,179.758,1.73584,-156.423,224
1567604616,322.027,-135.954,-16.4083,179.758,1.73584,-156.423,224
1567604616,322.027,-135.954,-16.4083,179.758,1.73584,-156.423,224
1567604616,322.027,-135.954,-16.4083,179.758,1.73584,-156.423,224
1567604616,322.027,-135.954,-16.4083,179.758,1.73584,-156.423,224
1567604616,322.027,-135.954,-16.4083,179.758,1.71387,-156.423,224
1567604616,322.027,-135.954,-16.4083,179.758,1.71387,-156.423,224
1567604616,322.027,-135.954,-16.4083,179.758,1.71387,-156.423,224
1567604616,322.027,-135.954,-16.4083,179.758,1.71387,-156.423,224
1567604616,322.027,-135.954,-16.4083,179.736,1.71387,-156.423,224
1567604616,322.027,-135.954,-16.4083,179.736,1.71387,-156.423,224
1567604616,322.027,-136.066,-16.4083,179.736,1.71387,-156.423,224
1567604616,322.027,-136.066,-16.4083,179.736,1.71387,-156.423,224
1567604616,322.027,-136.066,-16.4083,179.736,1.71387,-156.423,228
1567604616,322.027,-136.066,-16.4083,179.736,1.71387,-156.423,228
1567604616,322.027,-136.066,-16.4083,179.736,1.71387,-156.423,228
1567604616,322.027,-136.066,-16.4083,179.736,1.71387,-156.423,224
1567604616,322.027,-136.066,-16.4083,179.736,1.71387,-156.423,224
1567604616,322.027,-136.066,-16.4083,179.736,1.71387,-156.423,224
1567604616,322.027,-136.066,-16.4083,179.736,1.69189,-156.423,224
1567604616,322.027,-136.066,-16.4083,179.736,1.69189,-156.423,224
1567604617,322.027,-136.066,-16.4083,179.736,1.71387,-156.423,224
1567604617,322.027,-136.066,-16.4083,179.736,1.71387,-156.423,224
1567604617,322.027,-136.066,-16.4083,179.736,1.71387,-156.423,224
1567604617,322.027,-136.066,-16.4083,179.736,1.71387,-156.423,224
1567604617,322.027,-136.066,-16.4083,179.758,1.71387,-156.423,224
1567604617,322.027,-136.066,-16.4083,179.758,1.71387,-156.423,224
1567604617,322.138,-136.066,-16.4083,179.758,1.71387,-156.423,224
1567604617,322.138,-136.066,-16.4083,179.758,1.71387,-156.423,220
1567604617,322.138,-136.066,-16.4083,179.758,1.71387,-156.423,220
1567604617,322.138,-136.066,-16.4083,179.758,1.71387,-156.423,220
1567604617,322.138,-136.066,-16.4083,179.758,1.71387,-156.423,220
1567604617,322.138,-136.066,-16.4083,179.758,1.71387,-156.423,220
1567604617,322.138,-136.066,-16.4083,179.758,1.71387,-156.423,220
1567604617,322.138,-136.066,-16.4083,179.758,1.71387,-156.423,220
1567604617,322.138,-136.066,-16.4083,179.758,1.71387,-156.423,216
1567604617,322.138,-136.066,-16.4083,179.758,1.71387,-156.423,216
1567604617,322.138,-136.066,-16.4083,179.758,1.71387,-156.423,216
1567604617,322.138,-136.066,-16.4083,179.758,1.71387,-156.423,216
1567604617,322.138,-136.066,-16.4083,179.758,1.71387,-156.423,212
1567604617,322.138,-136.066,-16.4083,179.758,1.71387,-156.423,212
1567604617,322.138,-136.066,-16.4083,179.758,1.71387,-156.423,212
1567604617,322.138,-136.066,-16.4083,179.758,1.71387,-156.423,212
1567604617,322.138,-136.066,-16.4083,179.758,1.71387,-156.423,212
1567604617,322.138,-136.066,-16.4083,179.758,1.71387,-156.423,212
1567604617,322.138,-136.066,-16.4083,179.758,1.71387,-156.423,212
1567604617,322.138,-136.066,-16.4083,179.758,1.71387,-156.423,212
1567604617,322.138,-136.066,-16.4083,179.758,1.73584,-156.423,212
1567604617,322.138,-136.066,-16.4083,179.758,1.73584,-156.423,208
1567604617,322.138,-136.066,-16.4083,179.758,1.73584,-156.423,208
1567604617,322.138,-136.066,-16.4083,179.758,1.73584,-156.423,208
1567604617,322.138,-136.066,-16.4083,179.758,1.73584,-156.423,208
1567604617,322.138,-136.066,-16.4083,179.758,1.73584,-156.423,208
1567604617,322.138,-136.066,-16.4083,179.758,1.73584,-156.423,208
1567604617,322.138,-136.066,-16.4083,179.758,1.73584,-156.423,208
1567604617,322.138,-136.066,-16.4083,179.758,1.73584,-156.423,208
1567604617,322.138,-136.066,-16.4083,179.758,1.73584,-156.423,208
1567604617,322.138,-136.066,-16.4083,179.758,1.73584,-156.423,208
1567604617,322.138,-136.066,-16.4083,179.758,1.73584,-156.423,208
1567604617,322.138,-136.066,-16.4083,179.758,1.73584,-156.423,208
1567604617,322.138,-136.066,-16.4083,179.758,1.71387,-156.423,208
1567604617,322.138,-136.066,-16.4083,179.758,1.71387,-156.423,208
1567604617,322.138,-136.066,-16.4083,179.758,1.71387,-156.423,208
1567604617,322.138,-136.066,-16.4083,179.758,1.71387,-156.423,208
1567604617,322.138,-136.066,-16.4083,179.758,1.71387,-156.423,208
1567604617,322.138,-136.066,-16.4083,179.758,1.71387,-156.423,208
1567604617,322.138,-136.066,-16.4083,179.758,1.71387,-156.423,208
1567604617,322.138,-136.066,-16.4083,179.758,1.71387,-156.423,208
1567604617,322.138,-136.066,-16.4083,179.758,1.71387,-156.423,208
1567604617,322.138,-136.066,-16.4083,179.758,1.71387,-156.423,208
1567604617,322.138,-136.066,-16.4083,179.758,1.71387,-156.423,208
1567604617,322.138,-136.066,-16.4083,179.758,1.71387,-156.423,208
1567604617,322.138,-136.066,-16.4083,179.758,1.71387,-156.423,208
1567604617,322.138,-136.066,-16.4083,179.758,1.71387,-156.423,208
1567604617,322.138,-135.954,-16.4083,179.758,1.71387,-156.423,208
1567604617,322.138,-135.954,-16.4083,179.758,1.71387,-156.423,212
1567604617,322.138,-136.066,-16.2967,179.758,1.71387,-156.423,212
1567604617,322.138,-136.066,-16.2967,179.758,1.71387,-156.423,212
1567604617,322.138,-136.066,-16.2967,179.758,1.71387,-156.423,212
1567604617,322.138,-136.066,-16.2967,179.758,1.71387,-156.401,212
1567604617,322.138,-136.066,-16.2967,179.758,1.71387,-156.401,212
1567604617,322.138,-136.066,-16.2967,179.758,1.71387,-156.401,212
1567604617,322.138,-136.066,-16.2967,179.758,1.71387,-156.401,212
1567604617,322.138,-136.066,-16.2967,179.758,1.71387,-156.401,212
1567604617,322.138,-136.066,-16.2967,179.758,1.71387,-156.401,212
1567604617,322.138,-136.066,-16.2967,179.758,1.71387,-156.401,212
1567604617,322.138,-136.066,-16.2967,179.758,1.71387,-156.401,212
1567604617,322.138,-136.066,-16.2967,179.758,1.71387,-156.401,212
1567604617,322.138,-136.066,-16.2967,179.758,1.71387,-156.401,212
1567604617,322.138,-136.066,-16.2967,179.758,1.71387,-156.401,212
1567604617,322.138,-136.066,-16.2967,179.758,1.71387,-156.401,212
1567604617,322.138,-136.066,-16.2967,179.758,1.71387,-156.401,212
1567604617,322.138,-136.066,-16.2967,179.758,1.71387,-156.401,212
1567604617,322.138,-136.066,-16.2967,179.758,1.71387,-156.401,212
1567604617,322.138,-136.066,-16.2967,179.758,1.71387,-156.401,212
1567604617,322.138,-136.066,-16.2967,179.758,1.71387,-156.401,212
1567604617,322.138,-136.066,-16.2967,179.758,1.71387,-156.401,212
1567604617,322.138,-136.066,-16.2967,179.758,1.71387,-156.401,212
1567604617,322.138,-136.066,-16.2967,179.758,1.71387,-156.401,212
1567604617,322.138,-136.066,-16.2967,179.758,1.71387,-156.423,212
1567604617,322.138,-136.066,-16.4083,179.758,1.71387,-156.423,212
1567604617,322.138,-136.066,-16.4083,179.758,1.71387,-156.423,216
1567604617,322.138,-136.066,-16.4083,179.758,1.71387,-156.423,216
1567604617,322.138,-136.066,-16.4083,179.758,1.71387,-156.423,216
1567604617,322.138,-136.066,-16.4083,179.758,1.71387,-156.423,216
1567604617,322.138,-136.066,-16.4083,179.758,1.71387,-156.423,216
1567604617,322.138,-136.066,-16.4083,179.758,1.71387,-156.423,216
1567604617,322.138,-136.066,-16.4083,179.758,1.71387,-156.423,216
1567604617,322.138,-136.066,-16.4083,179.758,1.71387,-156.423,220
1567604617,322.138,-136.066,-16.4083,179.758,1.71387,-156.423,220
1567604617,322.138,-136.066,-16.4083,179.758,1.69189,-156.423,220
1567604617,322.138,-136.066,-16.4083,179.758,1.69189,-156.423,220
1567604617,322.138,-136.066,-16.4083,179.758,1.69189,-156.423,220
1567604617,322.138,-136.066,-16.4083,179.758,1.69189,-156.423,220
1567604617,322.138,-136.066,-16.4083,179.758,1.69189,-156.423,224
1567604617,322.138,-136.066,-16.4083,179.758,1.69189,-156.423,224
1567604617,322.138,-136.066,-16.4083,179.758,1.69189,-156.423,224
1567604617,322.138,-136.066,-16.4083,179.758,1.69189,-156.423,224
1567604617,322.138,-136.066,-16.4083,179.758,1.69189,-156.423,224
1567604617,322.138,-136.066,-16.4083,179.758,1.69189,-156.423,224
1567604617,322.138,-136.066,-16.4083,179.758,1.69189,-156.423,224
1567604618,322.138,-136.066,-16.4083,179.758,1.69189,-156.423,224
1567604618,322.138,-136.066,-16.4083,179.758,1.69189,-156.423,228
1567604618,322.138,-136.066,-16.4083,179.758,1.69189,-156.445,228
1567604618,322.138,-136.066,-16.4083,179.758,1.69189,-156.445,228
1567604618,322.138,-136.066,-16.4083,179.758,1.69189,-156.445,228
1567604618,322.138,-136.066,-16.4083,179.758,1.69189,-156.445,228
1567604618,322.138,-136.066,-16.5199,179.758,1.69189,-156.445,228
1567604618,322.138,-136.066,-16.5199,179.758,1.69189,-156.445,228
1567604618,322.138,-136.066,-16.5199,179.758,1.69189,-156.445,228
1567604618,322.027,-136.066,-16.5199,179.758,1.69189,-156.445,228
1567604618,322.027,-136.066,-16.5199,179.758,1.69189,-156.445,228
1567604618,322.027,-136.066,-16.5199,179.758,1.69189,-156.445,228
1567604618,322.027,-136.066,-16.5199,179.758,1.69189,-156.445,232
1567604618,322.027,-136.066,-16.5199,179.758,1.69189,-156.445,232
1567604618,322.027,-136.066,-16.5199,179.758,1.69189,-156.445,232
1567604618,322.027,-136.066,-16.4083,179.758,1.69189,-156.445,232
1567604618,322.027,-136.066,-16.4083,179.736,1.69189,-156.445,232
1567604618,322.027,-136.066,-16.4083,179.736,1.69189,-156.445,232
1567604618,322.027,-136.066,-16.4083,179.736,1.69189,-156.423,232
1567604618,322.027,-136.066,-16.4083,179.736,1.69189,-156.423,232
1567604618,322.027,-136.066,-16.4083,179.736,1.69189,-156.423,232
1567604618,322.027,-136.066,-16.4083,179.736,1.71387,-156.423,232
1567604618,322.027,-136.066,-16.4083,179.736,1.71387,-156.423,232
1567604618,322.027,-136.066,-16.4083,179.736,1.71387,-156.423,232
1567604618,322.027,-136.066,-16.4083,179.736,1.71387,-156.423,232
1567604618,322.027,-136.066,-16.4083,179.736,1.71387,-156.423,232
1567604618,322.027,-136.066,-16.4083,179.736,1.71387,-156.423,228
1567604618,322.027,-136.066,-16.4083,179.736,1.71387,-156.423,228
1567604618,322.027,-136.066,-16.4083,179.736,1.71387,-156.423,228
1567604618,322.027,-136.066,-16.4083,179.736,1.71387,-156.423,228
1567604618,322.027,-136.066,-16.4083,179.736,1.71387,-156.423,228
1567604618,322.027,-136.066,-16.4083,179.736,1.71387,-156.423,228
1567604618,322.027,-136.066,-16.4083,179.758,1.73584,-156.423,228
1567604618,322.027,-136.066,-16.4083,179.758,1.73584,-156.423,228
1567604618,322.027,-136.066,-16.4083,179.758,1.73584,-156.423,228
1567604618,322.027,-136.066,-16.4083,179.758,1.73584,-156.423,228
1567604618,322.027,-136.066,-16.4083,179.758,1.73584,-156.423,228
1567604618,322.027,-136.066,-16.4083,179.758,1.73584,-156.423,228
1567604618,322.027,-136.066,-16.4083,179.758,1.73584,-156.423,228
1567604618,322.027,-136.066,-16.4083,179.758,1.73584,-156.423,228
1567604618,322.027,-136.066,-16.4083,179.758,1.73584,-156.423,228
1567604618,322.027,-136.066,-16.2967,179.758,1.73584,-156.423,228
1567604618,322.027,-136.066,-16.2967,179.758,1.73584,-156.423,228
1567604618,322.027,-136.066,-16.2967,179.758,1.73584,-156.423,228
1567604618,322.027,-136.066,-16.2967,179.758,1.75781,-156.423,228
1567604618,322.027,-136.066,-16.2967,179.758,1.75781,-156.423,228
1567604618,322.027,-136.066,-16.2967,179.758,1.75781,-156.423,228
1567604618,322.027,-136.066,-16.2967,179.758,1.75781,-156.423,228
1567604618,322.027,-136.066,-16.2967,179.758,1.75781,-156.423,228
1567604618,322.027,-136.066,-16.2967,179.758,1.75781,-156.423,228
1567604618,322.027,-136.066,-16.2967,179.758,1.75781,-156.423,228
1567604618,322.027,-136.066,-16.2967,179.758,1.75781,-156.423,228
1567604618,322.027,-136.066,-16.2967,179.758,1.75781,-156.423,228
1567604618,322.027,-136.066,-16.2967,179.758,1.73584,-156.423,228
1567604618,322.027,-136.066,-16.2967,179.758,1.73584,-156.423,228
1567604618,322.027,-136.066,-16.2967,179.758,1.73584,-156.423,228
1567604618,322.027,-136.066,-16.2967,179.758,1.73584,-156.423,228
1567604618,322.027,-136.066,-16.2967,179.758,1.73584,-156.423,228
1567604618,322.027,-136.066,-16.2967,179.758,1.73584,-156.423,228
1567604618,322.027,-135.954,-16.2967,179.758,1.73584,-156.423,228
1567604618,322.027,-135.954,-16.2967,179.758,1.73584,-156.423,228
1567604618,322.027,-135.954,-16.2967,179.758,1.73584,-156.423,228
1567604618,322.027,-135.954,-16.2967,179.758,1.73584,-156.423,228
1567604618,322.027,-135.954,-16.2967,179.758,1.73584,-156.423,228
1567604618,322.027,-135.954,-16.2967,179.758,1.73584,-156.423,228
1567604618,322.027,-135.954,-16.2967,179.758,1.73584,-156.423,228
1567604618,322.027,-135.954,-16.2967,179.758,1.73584,-156.423,228
1567604618,322.027,-135.954,-16.2967,179.758,1.71387,-156.423,228
1567604618,322.027,-136.066,-16.4083,179.758,1.71387,-156.423,224
1567604618,322.027,-136.066,-16.4083,179.758,1.71387,-156.423,224
1567604618,322.027,-136.066,-16.4083,179.758,1.71387,-156.423,224
1567604618,322.027,-135.954,-16.4083,179.758,1.71387,-156.423,224
1567604618,322.027,-135.954,-16.4083,179.758,1.71387,-156.423,224
1567604618,322.027,-135.954,-16.4083,179.758,1.71387,-156.423,224
1567604618,322.027,-135.954,-16.4083,179.758,1.71387,-156.423,224
1567604618,322.027,-135.954,-16.4083,179.758,1.71387,-156.423,224
1567604618,322.027,-135.954,-16.4083,179.758,1.71387,-156.423,224
1567604618,322.027,-135.954,-16.4083,179.758,1.71387,-156.423,224
1567604618,322.027,-135.954,-16.4083,179.758,1.71387,-156.423,224
1567604618,322.027,-135.954,-16.4083,179.758,1.69189,-156.423,224
1567604618,322.027,-135.954,-16.4083,179.758,1.69189,-156.423,224
1567604618,322.027,-135.954,-16.4083,179.758,1.69189,-156.423,224
1567604618,322.027,-135.954,-16.4083,179.758,1.69189,-156.423,224
1567604618,322.027,-135.954,-16.4083,179.758,1.69189,-156.423,224
1567604618,322.027,-135.954,-16.4083,179.758,1.69189,-156.423,224
1567604618,322.027,-135.954,-16.4083,179.758,1.69189,-156.423,224
1567604618,322.027,-135.954,-16.4083,179.758,1.69189,-156.423,224
1567604618,322.027,-135.954,-16.4083,179.758,1.69189,-156.423,224
1567604618,322.027,-135.954,-16.4083,179.758,1.69189,-156.423,224
1567604618,322.027,-135.954,-16.4083,179.758,1.69189,-156.423,224
1567604618,322.027,-135.954,-16.4083,179.758,1.69189,-156.423,224
1567604618,322.027,-135.954,-16.4083,179.758,1.69189,-156.423,224
1567604618,322.027,-135.954,-16.4083,179.758,1.69189,-156.423,224
1567604618,322.138,-135.954,-16.4083,179.758,1.69189,-156.423,224
1567604618,322.138,-135.954,-16.4083,179.758,1.69189,-156.423,224
1567604618,322.138,-135.954,-16.4083,179.758,1.69189,-156.423,224
1567604618,322.138,-135.954,-16.4083,179.758,1.69189,-156.423,224
1567604618,322.027,-135.954,-16.4083,179.758,1.69189,-156.423,224
1567604618,322.027,-135.954,-16.4083,179.758,1.69189,-156.423,228
1567604618,322.027,-135.954,-16.4083,179.758,1.69189,-156.423,228
1567604619,322.027,-135.954,-16.4083,179.758,1.69189,-156.423,228
1567604619,322.027,-135.954,-16.4083,179.758,1.69189,-156.423,228
1567604619,322.027,-135.954,-16.4083,179.758,1.69189,-156.423,228
1567604619,322.027,-135.954,-16.4083,179.758,1.69189,-156.423,228
1567604619,322.027,-135.954,-16.4083,179.758,1.69189,-156.423,228
1567604619,322.027,-135.954,-16.4083,179.758,1.69189,-156.423,228
1567604619,322.027,-135.954,-16.4083,179.758,1.69189,-156.423,228
1567604619,322.027,-135.954,-16.4083,179.758,1.69189,-156.423,228
1567604619,322.027,-135.954,-16.4083,179.758,1.69189,-156.423,228
1567604619,322.027,-135.954,-16.4083,179.758,1.69189,-156.423,228
1567604619,322.027,-135.954,-16.4083,179.758,1.69189,-156.423,228
1567604619,322.027,-135.954,-16.4083,179.758,1.69189,-156.423,228
1567604619,322.027,-135.954,-16.4083,179.758,1.69189,-156.423,228
1567604619,322.027,-135.954,-16.4083,179.758,1.69189,-156.423,228
1567604619,322.027,-135.954,-16.4083,179.758,1.69189,-156.445,224
1567604619,322.027,-135.954,-16.4083,179.758,1.69189,-156.445,224
1567604619,322.027,-135.954,-16.4083,179.758,1.69189,-156.445,224
1567604619,322.027,-135.954,-16.4083,179.758,1.69189,-156.445,224
1567604619,322.027,-135.954,-16.4083,179.758,1.69189,-156.445,224
1567604619,322.027,-135.954,-16.4083,179.758,1.69189,-156.445,224
1567604619,322.027,-135.954,-16.4083,179.758,1.69189,-156.445,224
1567604619,322.027,-135.954,-16.4083,179.758,1.69189,-156.445,224
1567604619,322.027,-135.954,-16.4083,179.758,1.69189,-156.445,224
1567604619,322.027,-135.954,-16.4083,179.758,1.69189,-156.445,224
1567604619,322.027,-135.954,-16.4083,179.758,1.69189,-156.445,224
1567604619,322.027,-135.954,-16.4083,179.758,1.69189,-156.445,224
1567604619,322.027,-135.954,-16.4083,179.758,1.69189,-156.445,224
1567604619,322.027,-135.954,-16.4083,179.758,1.69189,-156.445,224
1567604619,322.027,-135.954,-16.4083,179.758,1.71387,-156.445,224
1567604619,322.027,-135.954,-16.4083,179.758,1.71387,-156.445,224
1567604619,322.027,-135.954,-16.4083,179.758,1.71387,-156.445,224
1567604619,322.027,-135.954,-16.4083,179.758,1.71387,-156.445,224
1567604619,322.027,-135.954,-16.4083,179.758,1.71387,-156.423,224
1567604619,322.027,-135.954,-16.4083,179.758,1.71387,-156.423,224
1567604619,322.027,-135.954,-16.4083,179.758,1.73584,-156.423,224
1567604619,322.027,-136.066,-16.4083,179.758,1.73584,-156.423,224
1567604619,322.027,-136.066,-16.4083,179.758,1.73584,-156.423,224
1567604619,322.027,-136.066,-16.4083,179.758,1.73584,-156.423,224
1567604619,322.027,-136.066,-16.4083,179.758,1.73584,-156.423,224
1567604619,322.027,-136.066,-16.4083,179.736,1.73584,-156.423,224
1567604619,322.027,-136.066,-16.4083,179.736,1.73584,-156.423,224
1567604619,322.027,-136.066,-16.4083,179.736,1.71387,-156.423,224
1567604619,322.027,-136.066,-16.4083,179.736,1.71387,-156.423,224
1567604619,322.027,-136.066,-16.4083,179.736,1.71387,-156.423,224
1567604619,322.027,-136.066,-16.4083,179.736,1.71387,-156.423,224
1567604619,322.027,-136.066,-16.4083,179.736,1.71387,-156.423,224
1567604619,322.027,-136.066,-16.4083,179.736,1.71387,-156.423,224
1567604619,322.027,-136.066,-16.4083,179.736,1.71387,-156.423,224
1567604619,322.027,-136.066,-16.4083,179.736,1.71387,-156.423,224
1567604619,322.027,-136.066,-16.4083,179.736,1.71387,-156.423,224
1567604619,322.027,-136.066,-16.4083,179.736,1.71387,-156.423,224
1567604619,322.027,-136.066,-16.4083,179.736,1.71387,-156.423,224
1567604619,322.027,-136.066,-16.4083,179.736,1.71387,-156.423,224
1567604619,322.027,-136.066,-16.4083,179.758,1.71387,-156.423,224
1567604619,322.027,-136.066,-16.4083,179.758,1.69189,-156.423,224
1567604619,322.027,-136.066,-16.4083,179.758,1.69189,-156.423,224
1567604619,322.027,-135.954,-16.4083,179.758,1.69189,-156.423,224
1567604619,322.138,-135.954,-16.4083,179.758,1.69189,-156.423,224
1567604619,322.138,-135.954,-16.5199,179.758,1.69189,-156.423,224
1567604619,322.138,-135.954,-16.5199,179.758,1.69189,-156.423,224
1567604619,322.138,-135.954,-16.5199,179.758,1.69189,-156.423,224
1567604619,322.138,-135.954,-16.5199,179.758,1.69189,-156.423,224
1567604619,322.138,-135.954,-16.5199,179.758,1.69189,-156.423,224
1567604619,322.138,-135.954,-16.5199,179.758,1.69189,-156.423,224
1567604619,322.138,-135.954,-16.5199,179.758,1.69189,-156.423,224
1567604619,322.138,-135.954,-16.5199,179.758,1.69189,-156.423,224
1567604619,322.138,-135.954,-16.4083,179.78,1.69189,-156.423,224
1567604619,322.138,-135.954,-16.4083,179.78,1.69189,-156.423,224
1567604619,322.138,-135.954,-16.4083,179.78,1.69189,-156.423,224
1567604619,322.138,-135.954,-16.4083,179.78,1.69189,-156.423,224
1567604619,322.138,-135.954,-16.4083,179.78,1.69189,-156.423,224
1567604619,322.138,-135.954,-16.4083,179.78,1.69189,-156.423,224
1567604619,322.138,-135.954,-16.4083,179.78,1.69189,-156.423,224
1567604619,322.138,-135.954,-16.4083,179.78,1.69189,-156.423,224
1567604619,322.138,-135.954,-16.4083,179.78,1.69189,-156.445,224
1567604619,322.138,-135.954,-16.4083,179.78,1.69189,-156.445,224
1567604619,322.138,-135.954,-16.4083,179.758,1.69189,-156.445,224
1567604619,322.138,-135.954,-16.4083,179.758,1.69189,-156.445,224
1567604619,322.138,-135.954,-16.4083,179.758,1.69189,-156.445,224
1567604619,322.138,-135.954,-16.4083,179.758,1.69189,-156.445,224
1567604619,322.138,-135.954,-16.4083,179.758,1.69189,-156.445,224
1567604619,322.138,-136.066,-16.4083,179.758,1.71387,-156.423,224
1567604619,322.138,-136.066,-16.4083,179.758,1.71387,-156.423,224
1567604619,322.138,-136.066,-16.4083,179.758,1.71387,-156.423,220
1567604619,322.027,-136.066,-16.4083,179.758,1.71387,-156.423,220
1567604619,322.027,-136.066,-16.4083,179.758,1.71387,-156.423,224
1567604619,322.027,-136.066,-16.4083,179.758,1.71387,-156.423,224
1567604619,322.027,-136.066,-16.4083,179.758,1.71387,-156.423,224
1567604619,322.027,-136.066,-16.4083,179.758,1.71387,-156.423,224
1567604619,322.027,-136.066,-16.4083,179.736,1.71387,-156.423,224
1567604619,322.027,-135.954,-16.4083,179.736,1.71387,-156.423,224
1567604619,322.027,-135.954,-16.4083,179.736,1.71387,-156.423,224
1567604619,322.027,-135.954,-16.4083,179.736,1.71387,-156.423,224
1567604619,322.027,-135.954,-16.4083,179.736,1.71387,-156.423,224
1567604619,322.027,-135.954,-16.4083,179.736,1.71387,-156.423,224
1567604619,322.027,-136.066,-16.4083,179.736,1.71387,-156.423,224
1567604619,322.027,-136.066,-16.4083,179.736,1.71387,-156.423,224
1567604619,322.027,-136.066,-16.4083,179.736,1.71387,-156.423,224
1567604619,322.027,-136.066,-16.4083,179.736,1.71387,-156.423,224
1567604619,322.027,-136.066,-16.4083,179.736,1.71387,-156.423,224
1567604620,322.027,-136.066,-16.4083,179.736,1.71387,-156.423,224
1567604620,322.027,-136.066,-16.4083,179.736,1.71387,-156.423,224
1567604620,322.027,-136.066,-16.4083,179.736,1.71387,-156.423,224
1567604620,322.027,-136.066,-16.4083,179.736,1.71387,-156.423,224
1567604620,322.027,-135.954,-16.4083,179.736,1.71387,-156.423,224
1567604620,322.027,-135.954,-16.4083,179.736,1.71387,-156.423,224
1567604620,322.027,-135.954,-16.4083,179.758,1.71387,-156.423,228
1567604620,322.027,-135.954,-16.2967,179.758,1.71387,-156.423,228
1567604620,322.027,-135.954,-16.2967,179.758,1.71387,-156.423,228
1567604620,322.027,-135.954,-16.2967,179.758,1.71387,-156.423,228
1567604620,322.027,-135.954,-16.2967,179.758,1.71387,-156.423,228
1567604620,322.027,-135.954,-16.2967,179.758,1.71387,-156.423,228
1567604620,322.027,-135.954,-16.2967,179.758,1.73584,-156.423,232
1567604620,322.027,-135.954,-16.2967,179.758,1.73584,-156.423,232
1567604620,322.027,-135.954,-16.2967,179.758,1.73584,-156.423,232
1567604620,322.027,-135.954,-16.2967,179.758,1.73584,-156.423,232
1567604620,322.027,-135.954,-16.2967,179.758,1.73584,-156.423,232
1567604620,322.027,-135.954,-16.2967,179.758,1.73584,-156.423,232
1567604620,322.027,-135.954,-16.2967,179.758,1.73584,-156.423,232
1567604620,322.027,-135.954,-16.2967,179.758,1.73584,-156.423,232
1567604620,322.027,-135.954,-16.2967,179.758,1.71387,-156.423,232
1567604620,322.027,-135.954,-16.4083,179.758,1.71387,-156.423,228
1567604620,322.027,-135.954,-16.4083,179.758,1.71387,-156.423,228
1567604620,322.027,-135.954,-16.4083,179.758,1.71387,-156.423,228
1567604620,322.027,-135.954,-16.4083,179.758,1.71387,-156.423,228
1567604620,322.027,-135.954,-16.4083,179.758,1.71387,-156.423,228
1567604620,322.027,-135.954,-16.4083,179.758,1.71387,-156.423,228
1567604620,322.027,-135.954,-16.4083,179.758,1.71387,-156.423,228
1567604620,322.027,-135.954,-16.4083,179.758,1.71387,-156.423,228
1567604620,322.027,-135.954,-16.4083,179.758,1.71387,-156.423,232
1567604620,322.027,-135.954,-16.4083,179.758,1.71387,-156.423,232
1567604620,322.027,-136.066,-16.4083,179.758,1.71387,-156.423,232
1567604620,322.027,-136.066,-16.4083,179.758,1.71387,-156.423,232
1567604620,322.027,-136.066,-16.4083,179.758,1.71387,-156.423,232
1567604620,322.027,-136.066,-16.4083,179.758,1.71387,-156.423,232
1567604620,322.027,-136.066,-16.4083,179.758,1.71387,-156.423,228
1567604620,322.027,-136.066,-16.4083,179.736,1.71387,-156.423,228
1567604620,322.027,-136.066,-16.4083,179.736,1.71387,-156.423,228
1567604620,322.027,-136.066,-16.4083,179.736,1.71387,-156.423,228
1567604620,322.027,-136.066,-16.4083,179.736,1.73584,-156.423,228
1567604620,322.027,-136.066,-16.2967,179.736,1.73584,-156.423,228
1567604620,322.027,-136.066,-16.2967,179.736,1.73584,-156.423,228
1567604620,322.027,-136.066,-16.2967,179.736,1.73584,-156.423,228
1567604620,322.027,-136.066,-16.2967,179.736,1.73584,-156.423,228
1567604620,322.027,-136.066,-16.2967,179.736,1.73584,-156.423,228
1567604620,322.027,-136.066,-16.2967,179.736,1.73584,-156.423,228
1567604620,322.027,-135.954,-16.2967,179.736,1.71387,-156.423,228
1567604620,322.027,-135.954,-16.2967,179.736,1.71387,-156.423,228
1567604620,322.027,-135.954,-16.2967,179.736,1.71387,-156.423,232
1567604620,322.027,-135.954,-16.2967,179.758,1.71387,-156.423,232
1567604620,322.027,-135.954,-16.4083,179.758,1.71387,-156.423,232
1567604620,322.027,-135.954,-16.4083,179.758,1.71387,-156.423,232
1567604620,322.027,-135.954,-16.4083,179.758,1.71387,-156.423,232
1567604620,322.027,-135.954,-16.4083,179.758,1.71387,-156.423,232
1567604620,322.027,-135.954,-16.4083,179.758,1.71387,-156.423,232
1567604620,322.027,-135.954,-16.4083,179.758,1.71387,-156.423,232
1567604620,322.027,-135.954,-16.4083,179.758,1.71387,-156.423,232
1567604620,322.027,-135.954,-16.4083,179.758,1.71387,-156.423,232
1567604620,322.027,-135.954,-16.4083,179.758,1.71387,-156.423,232
1567604620,322.027,-135.954,-16.4083,179.758,1.71387,-156.423,232
1567604620,322.027,-135.954,-16.4083,179.758,1.71387,-156.423,232
1567604620,322.027,-135.954,-16.4083,179.758,1.71387,-156.423,232
1567604620,322.027,-135.954,-16.4083,179.758,1.71387,-156.423,232
1567604620,322.027,-135.954,-16.4083,179.758,1.71387,-156.423,232
1567604620,322.027,-135.954,-16.4083,179.758,1.71387,-156.423,232
1567604620,322.027,-135.954,-16.4083,179.758,1.71387,-156.423,236
1567604620,322.027,-135.954,-16.4083,179.758,1.71387,-156.423,236
1567604620,322.027,-135.954,-16.4083,179.758,1.71387,-156.423,236
1567604620,322.027,-135.954,-16.4083,179.758,1.71387,-156.423,236
1567604620,322.027,-135.954,-16.4083,179.758,1.71387,-156.423,236
1567604620,322.027,-135.954,-16.2967,179.758,1.71387,-156.423,236
1567604620,322.027,-135.954,-16.2967,179.758,1.71387,-156.423,236
1567604620,322.027,-135.954,-16.2967,179.758,1.71387,-156.423,236
1567604620,322.027,-135.954,-16.2967,179.758,1.71387,-156.401,236
1567604620,322.027,-135.954,-16.2967,179.758,1.73584,-156.401,236
1567604620,322.027,-135.954,-16.2967,179.758,1.73584,-156.401,236
1567604620,322.027,-135.954,-16.2967,179.758,1.73584,-156.423,236
1567604620,322.027,-135.954,-16.2967,179.758,1.73584,-156.423,236
1567604620,322.027,-135.954,-16.2967,179.758,1.73584,-156.423,236
1567604620,322.027,-135.954,-16.2967,179.758,1.73584,-156.423,236
1567604620,322.027,-135.954,-16.2967,179.758,1.73584,-156.423,236
1567604620,322.027,-135.954,-16.2967,179.758,1.73584,-156.423,236
1567604620,322.027,-135.954,-16.2967,179.758,1.73584,-156.423,236
1567604620,322.027,-135.954,-16.2967,179.758,1.73584,-156.423,236
1567604620,322.027,-135.954,-16.2967,179.758,1.73584,-156.423,236
1567604620,322.027,-135.954,-16.2967,179.758,1.73584,-156.423,236
1567604620,322.027,-135.954,-16.2967,179.758,1.71387,-156.423,236
1567604620,322.027,-135.954,-16.2967,179.758,1.71387,-156.423,236
1567604620,322.027,-135.954,-16.2967,179.758,1.71387,-156.423,236
1567604620,322.027,-135.954,-16.2967,179.758,1.71387,-156.423,236
1567604620,322.027,-135.954,-16.2967,179.758,1.71387,-156.423,236
1567604620,322.027,-135.954,-16.2967,179.758,1.71387,-156.423,236
1567604620,322.027,-135.954,-16.2967,179.758,1.71387,-156.423,236
1567604620,322.027,-135.954,-16.2967,179.758,1.71387,-156.423,236
1567604620,322.027,-135.954,-16.2967,179.758,1.71387,-156.423,236
1567604620,322.027,-135.954,-16.2967,179.758,1.71387,-156.423,236
1567604620,322.027,-135.954,-16.4083,179.758,1.71387,-156.423,236
1567604620,322.138,-135.954,-16.4083,179.758,1.71387,-156.423,236
1567604620,322.138,-135.954,-16.4083,179.758,1.71387,-156.423,236
1567604620,322.138,-135.954,-16.4083,179.758,1.71387,-156.423,232
1567604621,322.138,-135.954,-16.4083,179.758,1.71387,-156.423,232
1567604621,322.138,-135.954,-16.4083,179.758,1.71387,-156.423,232
1567604621,322.138,-135.954,-16.4083,179.758,1.71387,-156.423,232
1567604621,322.138,-135.954,-16.4083,179.758,1.71387,-156.423,232
1567604621,322.138,-135.954,-16.4083,179.758,1.71387,-156.423,232
1567604621,322.138,-136.066,-16.4083,179.758,1.71387,-156.423,232
1567604621,322.138,-136.066,-16.4083,179.758,1.71387,-156.423,232
1567604621,322.138,-136.066,-16.4083,179.758,1.71387,-156.423,232
1567604621,322.138,-136.066,-16.4083,179.758,1.71387,-156.423,228
1567604621,322.027,-136.066,-16.4083,179.758,1.71387,-156.423,228
1567604621,322.027,-136.066,-16.4083,179.758,1.71387,-156.423,228
1567604621,322.027,-136.066,-16.4083,179.758,1.71387,-156.423,228
1567604621,322.027,-136.066,-16.4083,179.758,1.69189,-156.423,228
1567604627,282.959,-95.6593,-16.6315,179.692,1.73584,-156.16,216
1567604627,282.959,-95.6593,-16.6315,179.692,1.73584,-156.16,216
1567604627,282.959,-95.6593,-16.6315,179.692,1.73584,-156.16,220
1567604627,282.959,-95.6593,-16.6315,179.692,1.73584,-156.16,220
1567604627,282.959,-95.6593,-16.6315,179.692,1.73584,-156.16,220
1567604627,282.959,-95.6593,-16.6315,179.692,1.73584,-156.16,220
1567604627,282.959,-95.6593,-16.6315,179.692,1.73584,-156.16,220
1567604627,282.959,-95.6593,-16.6315,179.692,1.73584,-156.138,220
1567604627,282.959,-95.6593,-16.6315,179.692,1.73584,-156.138,220
1567604627,282.959,-95.6593,-16.6315,179.692,1.73584,-156.138,220
1567604627,282.959,-95.6593,-16.6315,179.692,1.73584,-156.138,220
1567604627,282.959,-95.6593,-16.6315,179.692,1.73584,-156.138,220
1567604627,282.959,-95.6593,-16.6315,179.692,1.73584,-156.138,220
1567604627,282.959,-95.6593,-16.6315,179.692,1.73584,-156.138,220
1567604627,282.959,-95.6593,-16.6315,179.692,1.73584,-156.138,220
1567604627,282.959,-95.6593,-16.6315,179.692,1.73584,-156.138,220
1567604627,282.959,-95.6593,-16.6315,179.67,1.73584,-156.138,220
1567604627,282.959,-95.6593,-16.6315,179.67,1.73584,-156.16,220
1567604627,282.959,-95.6593,-16.6315,179.67,1.73584,-156.16,220
1567604627,282.959,-95.6593,-16.6315,179.67,1.73584,-156.16,220
1567604627,282.959,-95.6593,-16.6315,179.67,1.75781,-156.16,220
1567604627,282.959,-95.6593,-16.6315,179.67,1.75781,-156.16,220
1567604627,282.959,-95.6593,-16.5199,179.67,1.75781,-156.16,220
1567604627,282.959,-95.6593,-16.5199,179.692,1.75781,-156.16,220
1567604627,282.959,-95.6593,-16.6315,179.692,1.75781,-156.16,220
1567604627,282.959,-95.6593,-16.6315,179.692,1.75781,-156.16,220
1567604627,282.959,-95.6593,-16.6315,179.692,1.75781,-156.16,220
1567604627,282.959,-95.6593,-16.6315,179.692,1.75781,-156.16,220
1567604627,282.959,-95.6593,-16.6315,179.692,1.75781,-156.16,220
1567604627,282.959,-95.6593,-16.6315,179.692,1.75781,-156.16,220
1567604627,282.959,-95.6593,-16.6315,179.692,1.75781,-156.16,220
1567604627,282.959,-95.6593,-16.6315,179.692,1.75781,-156.16,220
1567604627,282.959,-95.6593,-16.6315,179.692,1.75781,-156.16,220
1567604627,282.959,-95.6593,-16.6315,179.692,1.73584,-156.16,220
1567604627,282.959,-95.6593,-16.6315,179.692,1.73584,-156.16,224
1567604627,282.959,-95.6593,-16.6315,179.692,1.73584,-156.16,224
1567604627,282.959,-95.6593,-16.6315,179.692,1.73584,-156.16,224
1567604627,282.959,-95.6593,-16.6315,179.692,1.73584,-156.16,224
1567604627,282.959,-95.6593,-16.6315,179.692,1.73584,-156.16,224
1567604627,282.959,-95.6593,-16.6315,179.692,1.73584,-156.16,224
1567604627,282.959,-95.6593,-16.6315,179.692,1.73584,-156.16,224
1567604627,282.959,-95.6593,-16.6315,179.692,1.73584,-156.16,224
1567604627,282.959,-95.6593,-16.6315,179.692,1.73584,-156.16,224
1567604627,282.959,-95.6593,-16.6315,179.692,1.73584,-156.16,224
1567604627,282.959,-95.6593,-16.6315,179.692,1.73584,-156.16,224
1567604627,282.959,-95.6593,-16.6315,179.692,1.73584,-156.16,224
1567604627,282.959,-95.6593,-16.6315,179.692,1.73584,-156.16,220
1567604627,282.959,-95.5477,-16.6315,179.692,1.73584,-156.16,220
1567604627,282.959,-95.5477,-16.6315,179.692,1.73584,-156.16,220
1567604627,282.959,-95.5477,-16.6315,179.692,1.73584,-156.16,220
1567604627,282.959,-95.5477,-16.6315,179.714,1.73584,-156.16,220
1567604627,282.959,-95.5477,-16.6315,179.714,1.73584,-156.16,220
1567604627,282.959,-95.5477,-16.6315,179.714,1.73584,-156.16,220
1567604627,282.959,-95.5477,-16.6315,179.714,1.73584,-156.16,220
1567604627,282.959,-95.5477,-16.6315,179.714,1.73584,-156.16,220
1567604627,282.959,-95.5477,-16.6315,179.714,1.73584,-156.16,220
1567604627,282.959,-95.5477,-16.6315,179.692,1.73584,-156.16,220
1567604627,282.959,-95.5477,-16.6315,179.692,1.73584,-156.16,220
1567604627,282.959,-95.5477,-16.6315,179.692,1.73584,-156.16,220
1567604628,282.959,-95.5477,-16.6315,179.692,1.73584,-156.16,220
1567604628,282.959,-95.5477,-16.6315,179.692,1.73584,-156.16,220
1567604628,282.959,-95.5477,-16.6315,179.692,1.73584,-156.16,220
1567604628,282.959,-95.5477,-16.6315,179.692,1.73584,-156.16,220
1567604628,282.959,-95.5477,-16.6315,179.692,1.73584,-156.16,220
1567604628,282.959,-95.5477,-16.6315,179.692,1.73584,-156.16,220
1567604628,282.959,-95.5477,-16.6315,179.692,1.73584,-156.16,220
1567604628,282.959,-95.5477,-16.6315,179.714,1.73584,-156.16,220
1567604628,282.959,-95.5477,-16.6315,179.714,1.73584,-156.16,220
1567604628,282.959,-95.5477,-16.6315,179.714,1.73584,-156.16,220
1567604628,282.959,-95.5477,-16.6315,179.714,1.73584,-156.16,220
1567604628,282.959,-95.5477,-16.6315,179.714,1.73584,-156.16,220
1567604628,282.959,-95.5477,-16.6315,179.714,1.73584,-156.16,220
1567604628,282.959,-95.5477,-16.6315,179.714,1.73584,-156.16,220
1567604628,282.959,-95.5477,-16.6315,179.714,1.73584,-156.16,220
1567604628,282.959,-95.5477,-16.6315,179.714,1.73584,-156.16,220
1567604628,282.959,-95.5477,-16.6315,179.714,1.73584,-156.16,220
1567604628,282.959,-95.5477,-16.6315,179.714,1.73584,-156.16,220
1567604628,282.959,-95.5477,-16.6315,179.714,1.73584,-156.16,220
1567604628,282.959,-95.5477,-16.6315,179.714,1.73584,-156.16,220
1567604628,282.959,-95.5477,-16.6315,179.714,1.73584,-156.16,220
1567604628,282.959,-95.5477,-16.6315,179.692,1.73584,-156.16,220
1567604628,282.959,-95.5477,-16.6315,179.692,1.73584,-156.16,220
1567604628,282.959,-95.5477,-16.6315,179.692,1.73584,-156.16,220
1567604628,282.959,-95.5477,-16.6315,179.692,1.73584,-156.16,220
1567604628,282.959,-95.5477,-16.6315,179.692,1.73584,-156.16,220
1567604628,282.959,-95.5477,-16.6315,179.692,1.73584,-156.16,220
1567604628,282.959,-95.5477,-16.6315,179.692,1.73584,-156.16,220
1567604628,282.959,-95.5477,-16.6315,179.692,1.73584,-156.16,220
1567604628,282.959,-95.5477,-16.6315,179.692,1.73584,-156.16,220
1567604628,282.959,-95.5477,-16.6315,179.692,1.73584,-156.16,220
1567604628,282.959,-95.5477,-16.6315,179.692,1.73584,-156.16,220
1567604628,282.959,-95.5477,-16.6315,179.692,1.73584,-156.16,220
1567604628,282.959,-95.5477,-16.6315,179.692,1.73584,-156.16,220
1567604628,282.959,-95.5477,-16.6315,179.692,1.73584,-156.16,220
1567604628,282.959,-95.5477,-16.6315,179.692,1.73584,-156.16,220
1567604628,282.959,-95.5477,-16.6315,179.692,1.73584,-156.16,220
1567604628,282.959,-95.5477,-16.6315,179.692,1.73584,-156.16,220
1567604628,282.959,-95.5477,-16.6315,179.692,1.73584,-156.16,220
1567604628,282.959,-95.5477,-16.6315,179.692,1.73584,-156.16,224
1567604628,282.959,-95.5477,-16.6315,179.692,1.73584,-156.16,224
1567604628,282.959,-95.5477,-16.6315,179.692,1.73584,-156.16,224
1567604628,282.959,-95.5477,-16.6315,179.692,1.73584,-156.16,224
1567604628,282.959,-95.5477,-16.6315,179.692,1.73584,-156.16,224
1567604628,282.959,-95.5477,-16.6315,179.692,1.73584,-156.16,224
1567604628,282.959,-95.5477,-16.6315,179.692,1.73584,-156.16,224
1567604628,282.959,-95.5477,-16.6315,179.692,1.73584,-156.16,224
1567604628,282.959,-95.5477,-16.6315,179.692,1.73584,-156.16,224
1567604628,282.959,-95.5477,-16.6315,179.692,1.73584,-156.16,224
1567604628,282.959,-95.5477,-16.6315,179.692,1.73584,-156.16,224
1567604628,282.959,-95.5477,-16.6315,179.692,1.73584,-156.16,224
1567604628,282.959,-95.6593,-16.6315,179.692,1.73584,-156.16,224
1567604628,282.959,-95.6593,-16.6315,179.692,1.75781,-156.16,224
1567604628,282.959,-95.6593,-16.6315,179.692,1.75781,-156.16,224
1567604628,282.959,-95.6593,-16.6315,179.692,1.75781,-156.16,224
1567604628,282.959,-95.6593,-16.6315,179.692,1.75781,-156.16,224
1567604628,282.959,-95.6593,-16.6315,179.692,1.75781,-156.16,224
1567604628,282.959,-95.6593,-16.6315,179.692,1.75781,-156.16,224
1567604628,282.959,-95.6593,-16.6315,179.692,1.75781,-156.16,224
1567604628,282.959,-95.6593,-16.6315,179.692,1.75781,-156.16,224
1567604628,282.959,-95.6593,-16.5199,179.692,1.75781,-156.16,224
1567604628,282.959,-95.6593,-16.5199,179.692,1.75781,-156.16,224
1567604628,282.959,-95.6593,-16.5199,179.692,1.75781,-156.16,224
1567604628,282.959,-95.6593,-16.5199,179.692,1.75781,-156.16,224
1567604628,282.959,-95.6593,-16.5199,179.692,1.75781,-156.16,224
1567604628,282.959,-95.6593,-16.5199,179.692,1.75781,-156.16,224
1567604628,282.959,-95.6593,-16.5199,179.692,1.75781,-156.16,224
1567604628,282.959,-95.6593,-16.5199,179.692,1.75781,-156.16,224
1567604628,282.959,-95.6593,-16.5199,179.692,1.75781,-156.16,224
1567604628,282.959,-95.6593,-16.5199,179.692,1.75781,-156.16,224
1567604628,282.959,-95.6593,-16.5199,179.692,1.75781,-156.16,224
1567604628,282.959,-95.6593,-16.6315,179.692,1.73584,-156.16,224
1567604628,282.959,-95.6593,-16.6315,179.692,1.73584,-156.16,224
1567604628,282.959,-95.5477,-16.6315,179.692,1.73584,-156.16,224
1567604628,282.959,-95.5477,-16.6315,179.692,1.73584,-156.16,224
1567604628,282.959,-95.5477,-16.6315,179.692,1.73584,-156.16,224
1567604628,282.959,-95.5477,-16.6315,179.692,1.73584,-156.16,224
1567604628,282.959,-95.5477,-16.6315,179.692,1.73584,-156.16,224
1567604628,282.959,-95.5477,-16.6315,179.692,1.73584,-156.16,224
1567604628,282.959,-95.5477,-16.6315,179.692,1.73584,-156.16,224
1567604628,282.959,-95.5477,-16.6315,179.692,1.73584,-156.16,224
1567604628,282.959,-95.5477,-16.6315,179.692,1.73584,-156.16,224
1567604628,282.959,-95.5477,-16.6315,179.692,1.73584,-156.16,224
1567604628,282.959,-95.5477,-16.6315,179.692,1.73584,-156.16,224
1567604628,282.959,-95.5477,-16.6315,179.692,1.73584,-156.16,224
1567604628,282.959,-95.5477,-16.6315,179.692,1.73584,-156.16,224
1567604628,282.959,-95.5477,-16.6315,179.692,1.73584,-156.16,224
1567604628,282.959,-95.5477,-16.6315,179.692,1.73584,-156.16,220
1567604628,282.959,-95.5477,-16.6315,179.692,1.73584,-156.16,220
1567604628,282.959,-95.5477,-16.6315,179.692,1.73584,-156.16,220
1567604628,282.959,-95.5477,-16.6315,179.692,1.73584,-156.16,220
1567604628,282.959,-95.5477,-16.6315,179.692,1.73584,-156.16,220
1567604628,282.959,-95.5477,-16.6315,179.692,1.73584,-156.16,220
1567604628,282.959,-95.5477,-16.6315,179.692,1.73584,-156.16,220
1567604628,282.959,-95.5477,-16.6315,179.692,1.73584,-156.16,220
1567604628,282.959,-95.5477,-16.6315,179.692,1.73584,-156.16,220
1567604628,282.959,-95.5477,-16.6315,179.692,1.73584,-156.16,220
1567604628,282.959,-95.5477,-16.6315,179.692,1.73584,-156.16,220
1567604628,282.959,-95.5477,-16.6315,179.692,1.73584,-156.16,220
1567604628,282.959,-95.5477,-16.6315,179.692,1.73584,-156.16,220
1567604629,282.959,-95.5477,-16.6315,179.714,1.73584,-156.16,220
1567604629,282.959,-95.5477,-16.6315,179.714,1.73584,-156.16,220
1567604629,282.959,-95.5477,-16.6315,179.714,1.73584,-156.16,220
1567604629,282.959,-95.5477,-16.6315,179.714,1.73584,-156.16,220
1567604629,282.959,-95.5477,-16.6315,179.714,1.73584,-156.16,220
1567604629,282.959,-95.5477,-16.5199,179.714,1.75781,-156.16,224
1567604629,282.959,-95.5477,-16.5199,179.714,1.75781,-156.16,224
1567604629,282.959,-95.5477,-16.5199,179.714,1.75781,-156.16,224
1567604629,282.959,-95.5477,-16.5199,179.714,1.75781,-156.16,224
1567604629,282.959,-95.5477,-16.5199,179.714,1.75781,-156.16,224
1567604629,282.959,-95.5477,-16.5199,179.714,1.75781,-156.16,224
1567604629,282.959,-95.5477,-16.5199,179.714,1.75781,-156.16,224
1567604629,282.959,-95.5477,-16.5199,179.714,1.75781,-156.16,224
1567604629,282.959,-95.5477,-16.5199,179.714,1.75781,-156.16,224
1567604629,282.959,-95.5477,-16.5199,179.714,1.75781,-156.16,224
1567604629,282.959,-95.5477,-16.5199,179.714,1.75781,-156.16,224
1567604629,282.959,-95.5477,-16.5199,179.714,1.75781,-156.16,224
1567604629,282.959,-95.5477,-16.5199,179.714,1.75781,-156.16,224
1567604629,282.959,-95.5477,-16.5199,179.714,1.75781,-156.16,220
1567604629,282.959,-95.5477,-16.5199,179.714,1.75781,-156.16,220
1567604629,282.959,-95.5477,-16.5199,179.714,1.75781,-156.16,220
1567604629,282.959,-95.5477,-16.5199,179.714,1.75781,-156.16,220
1567604629,282.959,-95.5477,-16.5199,179.714,1.75781,-156.16,220
1567604629,282.959,-95.5477,-16.5199,179.714,1.75781,-156.16,220
1567604629,282.959,-95.5477,-16.5199,179.714,1.75781,-156.138,220
1567604629,282.959,-95.5477,-16.5199,179.714,1.75781,-156.138,220
1567604629,282.959,-95.5477,-16.5199,179.692,1.75781,-156.138,220
1567604629,282.959,-95.5477,-16.5199,179.692,1.75781,-156.138,220
1567604629,282.959,-95.6593,-16.5199,179.692,1.75781,-156.138,220
1567604629,282.959,-95.6593,-16.5199,179.692,1.73584,-156.138,220
1567604629,282.959,-95.6593,-16.5199,179.692,1.73584,-156.138,220
1567604629,282.959,-95.5477,-16.5199,179.692,1.73584,-156.138,220
1567604629,282.959,-95.6593,-16.6315,179.692,1.73584,-156.138,220
1567604629,282.959,-95.6593,-16.6315,179.692,1.73584,-156.138,220
1567604629,282.959,-95.6593,-16.6315,179.692,1.73584,-156.138,220
1567604629,282.959,-95.6593,-16.6315,179.692,1.73584,-156.138,220
1567604629,282.959,-95.6593,-16.6315,179.692,1.73584,-156.138,220
1567604629,282.959,-95.6593,-16.6315,179.692,1.73584,-156.16,220
1567604629,282.959,-95.6593,-16.6315,179.692,1.73584,-156.16,220
1567604629,282.959,-95.6593,-16.6315,179.692,1.73584,-156.16,220
1567604629,282.959,-95.5477,-16.6315,179.692,1.73584,-156.16,220
1567604629,282.959,-95.5477,-16.6315,179.692,1.73584,-156.16,220
1567604629,282.959,-95.5477,-16.6315,179.692,1.73584,-156.16,220
1567604629,282.959,-95.5477,-16.6315,179.692,1.73584,-156.16,220
1567604629,282.959,-95.5477,-16.6315,179.714,1.73584,-156.16,220
1567604629,282.959,-95.5477,-16.6315,179.714,1.73584,-156.16,220
1567604629,282.959,-95.5477,-16.6315,179.714,1.73584,-156.16,220
1567604629,282.959,-95.5477,-16.6315,179.714,1.73584,-156.16,220
1567604629,282.959,-95.5477,-16.6315,179.714,1.73584,-156.16,216
1567604629,282.959,-95.5477,-16.6315,179.714,1.73584,-156.16,216
1567604629,282.959,-95.5477,-16.6315,179.714,1.73584,-156.16,216
1567604629,282.959,-95.5477,-16.6315,179.714,1.73584,-156.16,216
1567604629,282.959,-95.5477,-16.6315,179.714,1.73584,-156.16,216
1567604629,282.959,-95.5477,-16.6315,179.714,1.73584,-156.16,216
1567604629,282.959,-95.5477,-16.6315,179.714,1.73584,-156.16,216
1567604629,282.959,-95.5477,-16.6315,179.714,1.73584,-156.16,216
1567604629,282.959,-95.5477,-16.6315,179.714,1.73584,-156.16,216
1567604629,282.959,-95.5477,-16.6315,179.714,1.73584,-156.16,216
1567604629,282.959,-95.5477,-16.6315,179.714,1.73584,-156.16,216
1567604629,282.959,-95.5477,-16.6315,179.714,1.73584,-156.16,220
1567604629,282.959,-95.5477,-16.6315,179.714,1.73584,-156.16,220
1567604629,282.959,-95.5477,-16.6315,179.714,1.73584,-156.16,220
1567604629,282.959,-95.5477,-16.6315,179.714,1.73584,-156.16,220
1567604629,282.959,-95.5477,-16.6315,179.714,1.73584,-156.16,220
1567604629,282.959,-95.5477,-16.6315,179.692,1.73584,-156.16,220
1567604629,282.959,-95.5477,-16.6315,179.692,1.73584,-156.16,220
1567604629,282.959,-95.5477,-16.6315,179.692,1.73584,-156.16,220
1567604629,282.959,-95.5477,-16.6315,179.692,1.73584,-156.16,220
1567604629,282.959,-95.5477,-16.6315,179.692,1.73584,-156.16,220
1567604629,282.959,-95.5477,-16.6315,179.692,1.73584,-156.16,224
1567604629,282.959,-95.6593,-16.6315,179.692,1.73584,-156.16,224
1567604629,282.959,-95.6593,-16.6315,179.692,1.73584,-156.16,224
1567604629,282.959,-95.6593,-16.6315,179.692,1.73584,-156.16,224
1567604629,282.959,-95.6593,-16.6315,179.692,1.73584,-156.16,224
1567604629,282.959,-95.6593,-16.6315,179.692,1.73584,-156.16,224
1567604629,282.959,-95.6593,-16.6315,179.692,1.73584,-156.16,224
1567604629,282.959,-95.6593,-16.6315,179.692,1.73584,-156.16,224
1567604629,282.959,-95.6593,-16.6315,179.692,1.73584,-156.16,224
1567604629,282.959,-95.6593,-16.6315,179.692,1.73584,-156.16,224
1567604629,282.959,-95.6593,-16.6315,179.692,1.73584,-156.16,224
1567604629,282.959,-95.6593,-16.6315,179.67,1.73584,-156.16,224
1567604629,282.959,-95.6593,-16.6315,179.67,1.73584,-156.16,224
1567604629,282.959,-95.6593,-16.6315,179.67,1.73584,-156.16,224
1567604629,282.959,-95.6593,-16.6315,179.67,1.73584,-156.16,224
1567604629,282.959,-95.6593,-16.6315,179.67,1.73584,-156.16,224
1567604629,282.959,-95.6593,-16.6315,179.67,1.73584,-156.16,224
1567604629,282.959,-95.6593,-16.6315,179.67,1.73584,-156.16,224
1567604629,282.959,-95.6593,-16.6315,179.67,1.73584,-156.16,224
1567604629,282.959,-95.6593,-16.6315,179.67,1.73584,-156.16,224
1567604629,282.959,-95.6593,-16.6315,179.67,1.73584,-156.16,224
1567604629,282.959,-95.6593,-16.6315,179.67,1.73584,-156.16,224
1567604629,282.959,-95.6593,-16.6315,179.67,1.73584,-156.16,224
1567604629,282.959,-95.6593,-16.6315,179.67,1.73584,-156.16,224
1567604629,282.959,-95.6593,-16.6315,179.67,1.73584,-156.16,224
1567604629,282.959,-95.6593,-16.6315,179.67,1.73584,-156.16,224
1567604629,282.959,-95.6593,-16.6315,179.67,1.73584,-156.16,224
1567604629,282.959,-95.6593,-16.6315,179.67,1.73584,-156.16,224
1567604629,282.959,-95.6593,-16.6315,179.67,1.73584,-156.16,224
1567604629,282.959,-95.6593,-16.6315,179.67,1.73584,-156.16,224
1567604629,282.959,-95.6593,-16.6315,179.67,1.73584,-156.16,224
1567604630,282.959,-95.6593,-16.6315,179.67,1.73584,-156.16,224
1567604630,282.959,-95.6593,-16.6315,179.67,1.73584,-156.16,224
1567604630,282.959,-95.6593,-16.6315,179.67,1.73584,-156.16,224
1567604630,282.959,-95.6593,-16.6315,179.67,1.73584,-156.16,224
1567604630,282.959,-95.6593,-16.6315,179.67,1.73584,-156.16,220
1567604630,282.959,-95.6593,-16.6315,179.67,1.73584,-156.16,220
1567604630,282.959,-95.6593,-16.6315,179.67,1.73584,-156.16,220
1567604630,282.959,-95.6593,-16.6315,179.67,1.73584,-156.16,220
1567604630,282.959,-95.6593,-16.6315,179.67,1.73584,-156.16,220
1567604630,282.959,-95.6593,-16.6315,179.692,1.73584,-156.16,220
1567604630,282.959,-95.6593,-16.6315,179.692,1.73584,-156.16,220
1567604630,282.959,-95.6593,-16.6315,179.692,1.73584,-156.16,220
1567604630,282.959,-95.6593,-16.6315,179.692,1.73584,-156.16,220
1567604630,282.959,-95.6593,-16.6315,179.692,1.73584,-156.16,220
1567604630,282.959,-95.6593,-16.6315,179.692,1.73584,-156.16,220
1567604630,282.959,-95.6593,-16.6315,179.692,1.73584,-156.16,220
1567604630,282.959,-95.6593,-16.6315,179.692,1.73584,-156.16,220
1567604630,282.959,-95.6593,-16.6315,179.692,1.73584,-156.16,220
1567604630,282.959,-95.6593,-16.6315,179.692,1.75781,-156.16,220
1567604630,282.959,-95.6593,-16.5199,179.692,1.75781,-156.16,220
1567604630,282.959,-95.6593,-16.5199,179.692,1.75781,-156.16,220
1567604630,282.959,-95.6593,-16.5199,179.692,1.75781,-156.16,220
1567604630,282.959,-95.6593,-16.5199,179.692,1.75781,-156.138,220
1567604630,282.959,-95.6593,-16.5199,179.692,1.75781,-156.138,220
1567604630,282.959,-95.6593,-16.5199,179.692,1.75781,-156.138,220
1567604630,282.959,-95.6593,-16.5199,179.692,1.75781,-156.138,220
1567604630,282.959,-95.6593,-16.5199,179.692,1.75781,-156.138,216
1567604630,282.959,-95.6593,-16.5199,179.692,1.75781,-156.138,216
1567604630,282.959,-95.6593,-16.5199,179.692,1.75781,-156.16,216
1567604630,282.959,-95.6593,-16.5199,179.692,1.75781,-156.16,216
1567604630,282.959,-95.6593,-16.5199,179.692,1.75781,-156.16,216
1567604630,282.959,-95.6593,-16.5199,179.692,1.75781,-156.16,216
1567604630,282.959,-95.6593,-16.5199,179.692,1.75781,-156.16,216
1567604630,282.959,-95.6593,-16.5199,179.692,1.75781,-156.138,220
1567604630,282.959,-95.6593,-16.5199,179.692,1.75781,-156.138,220
1567604630,282.959,-95.6593,-16.5199,179.692,1.75781,-156.138,220
1567604630,282.959,-95.6593,-16.5199,179.692,1.75781,-156.138,220
1567604630,282.959,-95.6593,-16.5199,179.692,1.75781,-156.138,220
1567604630,282.959,-95.6593,-16.5199,179.692,1.75781,-156.138,220
1567604630,282.959,-95.6593,-16.5199,179.692,1.75781,-156.138,220
