time,x,y,z,ax,ay,az,q
1570787599,321.357,-95.9941,-9.71103,-179.934,3.82324,-144.229,416
1570787599,321.357,-95.9941,-9.71103,-179.934,3.82324,-144.229,416
1570787599,321.469,-95.9941,-9.71103,-179.934,3.82324,-144.229,416
1570787599,321.469,-95.9941,-9.71103,-179.934,3.82324,-144.229,416
1570787599,321.469,-95.9941,-9.71103,-179.934,3.82324,-144.229,416
1570787599,321.469,-95.9941,-9.71103,-179.934,3.82324,-144.229,416
1570787599,321.469,-95.9941,-9.71103,-179.934,3.82324,-144.229,416
1570787599,321.469,-95.9941,-9.71103,-179.934,3.82324,-144.229,416
1570787599,321.469,-95.9941,-9.71103,-179.934,3.82324,-144.229,416
1570787599,321.469,-95.9941,-9.71103,-179.934,3.82324,-144.229,416
1570787599,321.469,-95.9941,-9.71103,-179.934,3.82324,-144.229,416
1570787599,321.469,-95.9941,-9.71103,-179.934,3.82324,-144.229,416
1570787599,321.469,-95.9941,-9.71103,-179.956,3.82324,-144.229,416
1570787599,321.469,-95.9941,-9.71103,-179.956,3.82324,-144.229,416
1570787599,321.469,-95.9941,-9.71103,-179.956,3.82324,-144.229,416
1570787599,321.469,-95.9941,-9.71103,-179.956,3.82324,-144.229,416
1570787599,321.469,-95.9941,-9.71103,-179.956,3.82324,-144.229,416
1570787599,321.469,-95.9941,-9.71103,-179.956,3.82324,-144.229,416
1570787599,321.357,-95.9941,-9.71103,-179.956,3.82324,-144.229,416
1570787599,321.357,-95.9941,-9.71103,-179.956,3.82324,-144.229,416
1570787599,321.357,-95.9941,-9.71103,-179.956,3.82324,-144.229,416
1570787599,321.357,-95.9941,-9.71103,-179.956,3.82324,-144.229,412
1570787599,321.469,-95.9941,-9.71103,-179.956,3.82324,-144.229,412
1570787599,321.469,-95.9941,-9.71103,-179.956,3.82324,-144.229,412
1570787599,321.469,-95.9941,-9.71103,-179.956,3.82324,-144.229,412
1570787599,321.469,-95.9941,-9.71103,-179.956,3.82324,-144.229,412
1570787599,321.469,-95.9941,-9.71103,-179.956,3.82324,-144.229,412
1570787599,321.469,-95.9941,-9.71103,-179.956,3.82324,-144.229,412
1570787599,321.469,-95.9941,-9.71103,-179.956,3.82324,-144.229,412
1570787599,321.469,-95.9941,-9.71103,-179.956,3.82324,-144.229,412
1570787599,321.469,-95.9941,-9.71103,-179.934,3.82324,-144.229,412
1570787599,321.469,-95.9941,-9.71103,-179.934,3.82324,-144.229,412
1570787599,321.469,-95.9941,-9.71103,-179.934,3.82324,-144.229,412
1570787599,321.469,-95.9941,-9.71103,-179.934,3.82324,-144.229,412
1570787599,321.469,-95.9941,-9.82266,-179.934,3.80127,-144.229,412
1570787599,321.469,-95.9941,-9.82266,-179.934,3.80127,-144.229,412
1570787599,321.469,-95.9941,-9.82266,-179.934,3.80127,-144.229,412
1570787599,321.469,-95.9941,-9.82266,-179.934,3.80127,-144.229,412
1570787599,321.357,-95.9941,-9.82266,-179.934,3.80127,-144.229,412
1570787599,321.357,-95.9941,-9.82266,-179.934,3.80127,-144.229,412
1570787599,321.357,-95.9941,-9.82266,-179.934,3.80127,-144.229,412
1570787599,321.357,-95.9941,-9.82266,-179.934,3.80127,-144.229,412
1570787599,321.357,-95.9941,-9.82266,-179.934,3.80127,-144.229,412
1570787599,321.357,-95.9941,-9.82266,-179.934,3.80127,-144.229,412
1570787599,321.469,-95.9941,-9.82266,-179.934,3.80127,-144.229,412
1570787599,321.469,-95.9941,-9.82266,-179.934,3.80127,-144.229,412
1570787599,321.469,-95.9941,-9.82266,-179.934,3.80127,-144.229,412
1570787599,321.469,-95.9941,-9.82266,-179.934,3.80127,-144.229,412
1570787599,321.469,-95.9941,-9.82266,-179.934,3.80127,-144.229,412
1570787599,321.469,-95.9941,-9.82266,-179.934,3.80127,-144.25,412
1570787599,321.469,-95.9941,-9.82266,-179.934,3.80127,-144.25,408
1570787599,321.469,-95.9941,-9.82266,-179.934,3.80127,-144.25,408
1570787599,321.469,-95.9941,-9.82266,-179.934,3.80127,-144.25,408
1570787599,321.469,-95.9941,-9.82266,-179.934,3.80127,-144.25,408
1570787599,321.469,-95.9941,-9.82266,-179.934,3.80127,-144.25,412
1570787599,321.469,-95.9941,-9.82266,-179.934,3.80127,-144.25,412
1570787599,321.469,-95.9941,-9.82266,-179.934,3.80127,-144.25,412
1570787599,321.469,-95.9941,-9.82266,-179.934,3.80127,-144.25,412
1570787599,321.469,-95.9941,-9.82266,-179.934,3.80127,-144.25,412
1570787599,321.357,-95.9941,-9.82266,-179.934,3.80127,-144.25,412
1570787599,321.357,-95.9941,-9.82266,-179.934,3.80127,-144.25,412
1570787599,321.357,-95.9941,-9.82266,-179.934,3.80127,-144.25,412
1570787599,321.357,-95.9941,-9.82266,-179.934,3.80127,-144.25,416
1570787599,321.469,-95.9941,-9.82266,-179.934,3.82324,-144.25,416
1570787599,321.469,-95.9941,-9.82266,-179.934,3.82324,-144.25,416
1570787599,321.469,-95.9941,-9.82266,-179.934,3.82324,-144.25,416
1570787599,321.469,-95.9941,-9.82266,-179.956,3.82324,-144.25,416
1570787599,321.469,-95.9941,-9.82266,-179.956,3.82324,-144.25,416
1570787599,321.469,-95.9941,-9.82266,-179.956,3.82324,-144.25,416
1570787599,321.469,-95.9941,-9.82266,-179.956,3.82324,-144.25,416
1570787599,321.469,-95.9941,-9.82266,-179.956,3.82324,-144.25,416
1570787599,321.469,-95.9941,-9.82266,-179.956,3.82324,-144.25,416
1570787599,321.469,-95.9941,-9.82266,-179.956,3.80127,-144.25,416
1570787599,321.469,-95.9941,-9.82266,-179.956,3.80127,-144.25,416
1570787599,321.469,-95.9941,-9.82266,-179.934,3.80127,-144.25,416
1570787599,321.469,-95.9941,-9.82266,-179.934,3.80127,-144.25,416
1570787599,321.469,-95.9941,-9.82266,-179.934,3.80127,-144.25,416
1570787599,321.469,-95.9941,-9.82266,-179.934,3.80127,-144.229,416
1570787599,321.469,-95.9941,-9.82266,-179.934,3.80127,-144.229,416
1570787599,321.469,-95.9941,-9.82266,-179.934,3.80127,-144.229,416
1570787599,321.469,-95.9941,-9.82266,-179.934,3.80127,-144.229,416
1570787599,321.469,-95.9941,-9.82266,-179.934,3.80127,-144.229,416
1570787599,321.469,-95.9941,-9.82266,-179.934,3.80127,-144.229,416
1570787599,321.469,-95.9941,-9.82266,-179.934,3.80127,-144.229,416
1570787599,321.469,-95.9941,-9.82266,-179.934,3.80127,-144.229,416
1570787599,321.469,-95.9941,-9.82266,-179.934,3.80127,-144.229,416
1570787599,321.469,-95.9941,-9.82266,-179.934,3.80127,-144.229,412
1570787600,321.469,-95.9941,-9.82266,-179.934,3.80127,-144.229,412
1570787600,321.469,-95.9941,-9.82266,-179.934,3.80127,-144.229,412
1570787600,321.469,-95.9941,-9.82266,-179.934,3.80127,-144.229,412
1570787600,321.469,-95.9941,-9.82266,-179.934,3.80127,-144.229,412
1570787600,321.469,-95.9941,-9.82266,-179.934,3.80127,-144.229,412
1570787600,321.469,-95.9941,-9.71103,-179.934,3.80127,-144.229,416
1570787600,321.469,-95.9941,-9.71103,-179.934,3.80127,-144.229,416
1570787600,321.469,-95.9941,-9.71103,-179.934,3.82324,-144.229,416
1570787600,321.469,-95.9941,-9.71103,-179.934,3.82324,-144.229,416
1570787600,321.469,-95.9941,-9.71103,-179.934,3.82324,-144.229,416
1570787600,321.469,-95.9941,-9.71103,-179.934,3.80127,-144.229,416
1570787600,321.469,-95.9941,-9.82266,-179.934,3.80127,-144.229,416
1570787600,321.357,-95.9941,-9.82266,-179.934,3.80127,-144.229,420
1570787600,321.357,-95.9941,-9.82266,-179.934,3.80127,-144.229,420
1570787600,321.357,-95.9941,-9.82266,-179.934,3.80127,-144.229,420
1570787600,321.357,-95.9941,-9.82266,-179.934,3.80127,-144.229,420
1570787600,321.357,-95.9941,-9.82266,-179.934,3.80127,-144.229,420
1570787600,321.357,-95.9941,-9.82266,-179.934,3.80127,-144.229,420
1570787600,321.357,-95.9941,-9.82266,-179.934,3.80127,-144.229,420
1570787600,321.357,-95.9941,-9.82266,-179.934,3.80127,-144.229,420
1570787600,321.357,-95.9941,-9.82266,-179.934,3.80127,-144.229,420
1570787600,321.469,-95.9941,-9.82266,-179.934,3.80127,-144.229,420
1570787600,321.469,-95.9941,-9.71103,-179.934,3.80127,-144.229,420
1570787600,321.469,-95.9941,-9.71103,-179.934,3.80127,-144.229,420
1570787600,321.469,-95.9941,-9.71103,-179.934,3.80127,-144.229,424
1570787600,321.469,-95.9941,-9.71103,-179.934,3.82324,-144.229,424
1570787600,321.469,-95.9941,-9.71103,-179.934,3.82324,-144.229,424
1570787600,321.469,-95.9941,-9.71103,-179.934,3.82324,-144.229,424
1570787600,321.469,-95.9941,-9.71103,-179.934,3.82324,-144.229,424
1570787600,321.469,-95.9941,-9.71103,-179.934,3.82324,-144.229,424
1570787600,321.469,-95.9941,-9.71103,-179.934,3.82324,-144.229,424
1570787600,321.469,-95.9941,-9.71103,-179.912,3.80127,-144.229,424
1570787600,321.469,-95.9941,-9.82266,-179.912,3.80127,-144.229,424
1570787600,321.469,-95.9941,-9.82266,-179.912,3.80127,-144.229,424
1570787600,321.469,-95.9941,-9.82266,-179.912,3.80127,-144.229,424
1570787600,321.469,-95.9941,-9.82266,-179.912,3.80127,-144.229,424
1570787600,321.469,-95.8825,-9.82266,-179.912,3.80127,-144.229,424
1570787600,321.469,-95.8825,-9.82266,-179.912,3.80127,-144.229,424
1570787600,321.469,-95.8825,-9.82266,-179.912,3.80127,-144.25,424
1570787600,321.357,-95.8825,-9.82266,-179.912,3.80127,-144.25,424
1570787600,321.357,-95.8825,-9.82266,-179.912,3.80127,-144.25,424
1570787600,321.357,-95.8825,-9.82266,-179.912,3.80127,-144.25,424
1570787600,321.469,-95.8825,-9.82266,-179.912,3.80127,-144.25,424
1570787600,321.469,-95.8825,-9.82266,-179.912,3.80127,-144.25,424
1570787600,321.469,-95.8825,-9.82266,-179.912,3.80127,-144.25,424
1570787600,321.469,-95.8825,-9.82266,-179.912,3.80127,-144.25,424
1570787600,321.469,-95.8825,-9.82266,-179.912,3.80127,-144.25,424
1570787600,321.469,-95.8825,-9.82266,-179.912,3.80127,-144.25,424
1570787600,321.469,-95.8825,-9.82266,-179.912,3.80127,-144.25,424
1570787600,321.469,-95.8825,-9.82266,-179.912,3.80127,-144.25,424
1570787600,321.469,-95.9941,-9.82266,-179.912,3.80127,-144.25,424
1570787600,321.469,-95.9941,-9.82266,-179.912,3.80127,-144.25,424
1570787600,321.469,-95.9941,-9.82266,-179.912,3.80127,-144.25,424
1570787600,321.469,-95.9941,-9.82266,-179.912,3.80127,-144.25,424
1570787600,321.469,-95.9941,-9.82266,-179.912,3.80127,-144.25,424
1570787600,321.469,-95.9941,-9.82266,-179.912,3.80127,-144.25,424
1570787600,321.469,-95.9941,-9.82266,-179.934,3.80127,-144.25,424
1570787600,321.469,-95.9941,-9.82266,-179.934,3.80127,-144.25,424
1570787600,321.357,-95.9941,-9.82266,-179.934,3.80127,-144.25,424
1570787600,321.357,-95.9941,-9.82266,-179.934,3.80127,-144.25,424
1570787600,321.357,-95.9941,-9.82266,-179.934,3.80127,-144.25,424
1570787600,321.357,-95.9941,-9.82266,-179.934,3.80127,-144.25,424
1570787600,321.357,-95.9941,-9.82266,-179.934,3.80127,-144.25,424
1570787600,321.357,-95.9941,-9.82266,-179.934,3.80127,-144.25,424
1570787600,321.469,-95.9941,-9.82266,-179.934,3.80127,-144.229,420
1570787600,321.469,-95.9941,-9.82266,-179.934,3.80127,-144.229,420
1570787600,321.469,-95.9941,-9.82266,-179.934,3.80127,-144.229,420
1570787600,321.469,-95.9941,-9.82266,-179.934,3.80127,-144.229,420
1570787600,321.469,-95.9941,-9.82266,-179.934,3.80127,-144.229,420
1570787600,321.469,-95.9941,-9.82266,-179.934,3.80127,-144.229,420
1570787600,321.469,-95.9941,-9.82266,-179.934,3.80127,-144.229,420
1570787600,321.469,-95.9941,-9.82266,-179.934,3.80127,-144.229,420
1570787600,321.469,-95.9941,-9.82266,-179.934,3.80127,-144.229,420
1570787600,321.469,-95.9941,-9.82266,-179.934,3.80127,-144.229,420
1570787600,321.357,-95.9941,-9.82266,-179.934,3.80127,-144.229,420
1570787600,321.357,-95.9941,-9.82266,-179.934,3.80127,-144.229,420
1570787600,321.357,-95.9941,-9.82266,-179.934,3.80127,-144.229,420
1570787600,321.357,-95.9941,-9.82266,-179.934,3.80127,-144.229,420
1570787600,321.357,-95.9941,-9.82266,-179.956,3.80127,-144.229,420
1570787600,321.357,-95.9941,-9.82266,-179.956,3.80127,-144.229,420
1570787600,321.357,-95.9941,-9.82266,-179.956,3.80127,-144.25,420
1570787600,321.357,-95.9941,-9.82266,-179.956,3.80127,-144.25,420
1570787600,321.357,-95.9941,-9.82266,-179.956,3.80127,-144.25,420
1570787600,321.357,-95.9941,-9.82266,-179.956,3.80127,-144.25,416
1570787600,321.357,-95.9941,-9.82266,-179.956,3.80127,-144.25,416
1570787600,321.357,-95.9941,-9.82266,-179.956,3.80127,-144.25,416
1570787600,321.469,-95.9941,-9.82266,-179.956,3.80127,-144.25,416
1570787600,321.469,-95.9941,-9.82266,-179.956,3.80127,-144.25,416
1570787600,321.469,-95.9941,-9.82266,-179.934,3.82324,-144.25,416
1570787600,321.469,-95.9941,-9.82266,-179.934,3.82324,-144.25,412
1570787600,321.469,-95.9941,-9.82266,-179.934,3.82324,-144.25,412
1570787600,321.469,-95.9941,-9.71103,-179.934,3.82324,-144.25,412
1570787600,321.469,-95.9941,-9.71103,-179.934,3.82324,-144.25,412
1570787600,321.469,-95.9941,-9.71103,-179.934,3.82324,-144.25,412
1570787600,321.469,-95.9941,-9.71103,-179.934,3.82324,-144.25,408
1570787600,321.469,-95.9941,-9.71103,-179.934,3.82324,-144.25,408
1570787600,321.469,-95.9941,-9.71103,-179.934,3.82324,-144.25,408
1570787600,321.469,-95.9941,-9.71103,-179.934,3.82324,-144.25,408
1570787600,321.469,-95.9941,-9.71103,-179.934,3.82324,-144.25,408
1570787601,321.469,-95.9941,-9.71103,-179.934,3.82324,-144.25,404
1570787601,321.469,-95.9941,-9.71103,-179.934,3.82324,-144.25,404
1570787601,321.469,-95.9941,-9.71103,-179.934,3.82324,-144.25,404
1570787601,321.469,-95.9941,-9.71103,-179.934,3.82324,-144.25,404
1570787601,321.469,-95.9941,-9.71103,-179.934,3.82324,-144.25,404
1570787601,321.469,-95.9941,-9.71103,-179.934,3.84521,-144.25,404
1570787601,321.469,-95.9941,-9.71103,-179.934,3.84521,-144.25,404
1570787601,321.469,-95.9941,-9.71103,-179.934,3.84521,-144.25,404
1570787601,321.469,-95.9941,-9.71103,-179.934,3.84521,-144.25,404
1570787601,321.469,-95.9941,-9.71103,-179.934,3.84521,-144.25,404
1570787601,321.469,-95.9941,-9.71103,-179.934,3.84521,-144.25,404
1570787601,321.469,-95.9941,-9.71103,-179.912,3.84521,-144.25,404
1570787601,321.469,-95.9941,-9.71103,-179.912,3.84521,-144.25,404
1570787601,321.469,-95.9941,-9.71103,-179.912,3.82324,-144.25,404
1570787601,321.469,-95.9941,-9.71103,-179.912,3.82324,-144.25,404
1570787601,321.469,-95.9941,-9.71103,-179.912,3.82324,-144.25,404
1570787601,321.469,-95.9941,-9.71103,-179.912,3.82324,-144.229,404
1570787601,321.469,-95.9941,-9.71103,-179.912,3.82324,-144.229,404
1570787601,321.469,-95.9941,-9.71103,-179.912,3.82324,-144.229,404
1570787601,321.469,-95.9941,-9.71103,-179.912,3.82324,-144.229,404
1570787601,321.469,-95.9941,-9.71103,-179.912,3.82324,-144.229,404
1570787601,321.469,-95.9941,-9.71103,-179.912,3.82324,-144.229,404
1570787601,321.469,-95.9941,-9.71103,-179.912,3.82324,-144.229,400
1570787601,321.469,-95.9941,-9.71103,-179.912,3.82324,-144.229,400
1570787601,321.469,-95.9941,-9.71103,-179.912,3.82324,-144.229,400
1570787601,321.469,-95.9941,-9.71103,-179.912,3.82324,-144.229,400
1570787601,321.469,-95.9941,-9.71103,-179.912,3.82324,-144.229,400
1570787601,321.469,-95.9941,-9.71103,-179.912,3.82324,-144.229,400
1570787601,321.469,-95.9941,-9.71103,-179.912,3.82324,-144.229,400
1570787601,321.469,-95.9941,-9.71103,-179.934,3.82324,-144.229,400
1570787601,321.469,-95.9941,-9.71103,-179.934,3.82324,-144.229,400
1570787601,321.469,-95.9941,-9.71103,-179.934,3.82324,-144.229,400
1570787601,321.469,-95.9941,-9.71103,-179.934,3.82324,-144.229,400
1570787601,321.469,-95.9941,-9.71103,-179.934,3.82324,-144.229,400
1570787601,321.469,-95.9941,-9.71103,-179.934,3.82324,-144.229,400
1570787601,321.469,-95.9941,-9.71103,-179.934,3.80127,-144.229,400
1570787601,321.469,-95.9941,-9.71103,-179.934,3.80127,-144.229,404
1570787601,321.469,-95.9941,-9.71103,-179.934,3.80127,-144.229,404
1570787601,321.469,-95.9941,-9.82266,-179.934,3.80127,-144.229,404
1570787601,321.469,-95.9941,-9.82266,-179.912,3.80127,-144.229,404
1570787601,321.469,-95.9941,-9.82266,-179.912,3.80127,-144.229,404
1570787601,321.469,-95.9941,-9.82266,-179.912,3.80127,-144.229,404
1570787601,321.469,-95.9941,-9.82266,-179.912,3.80127,-144.229,404
1570787601,321.469,-95.9941,-9.82266,-179.934,3.80127,-144.229,404
1570787601,321.469,-95.9941,-9.82266,-179.934,3.80127,-144.229,404
1570787601,321.469,-95.9941,-9.71103,-179.934,3.80127,-144.229,404
1570787601,321.469,-95.9941,-9.71103,-179.934,3.80127,-144.229,404
1570787601,321.469,-95.9941,-9.71103,-179.934,3.80127,-144.229,404
1570787601,321.469,-95.9941,-9.71103,-179.934,3.80127,-144.229,404
1570787601,321.469,-95.9941,-9.71103,-179.934,3.80127,-144.229,400
1570787601,321.469,-95.9941,-9.71103,-179.934,3.82324,-144.229,400
1570787601,321.469,-95.9941,-9.71103,-179.934,3.82324,-144.229,404
1570787601,321.469,-95.9941,-9.71103,-179.934,3.82324,-144.229,404
1570787601,321.469,-95.9941,-9.71103,-179.934,3.82324,-144.229,404
1570787601,321.469,-95.9941,-9.71103,-179.934,3.82324,-144.229,404
1570787601,321.469,-95.9941,-9.71103,-179.934,3.82324,-144.229,404
1570787601,321.469,-95.9941,-9.71103,-179.934,3.82324,-144.229,404
1570787601,321.469,-95.9941,-9.71103,-179.934,3.82324,-144.229,404
1570787601,321.469,-95.9941,-9.71103,-179.934,3.82324,-144.229,404
1570787601,321.469,-95.9941,-9.71103,-179.934,3.82324,-144.229,404
1570787601,321.469,-95.9941,-9.71103,-179.934,3.82324,-144.229,404
1570787601,321.469,-95.9941,-9.71103,-179.934,3.82324,-144.229,404
1570787601,321.469,-95.9941,-9.71103,-179.934,3.82324,-144.229,404
1570787601,321.469,-95.9941,-9.71103,-179.934,3.82324,-144.229,404
1570787601,321.469,-95.9941,-9.71103,-179.934,3.82324,-144.229,404
1570787601,321.469,-95.9941,-9.71103,-179.956,3.82324,-144.229,404
1570787601,321.469,-95.9941,-9.71103,-179.956,3.82324,-144.229,404
1570787601,321.469,-95.9941,-9.71103,-179.956,3.82324,-144.229,404
1570787601,321.469,-95.9941,-9.71103,-179.956,3.82324,-144.229,404
1570787601,321.469,-95.9941,-9.71103,-179.956,3.82324,-144.229,404
1570787601,321.469,-95.9941,-9.71103,-179.956,3.82324,-144.229,404
1570787601,321.469,-95.9941,-9.71103,-179.956,3.80127,-144.229,404
1570787601,321.469,-95.9941,-9.71103,-179.956,3.80127,-144.229,404
1570787601,321.469,-95.9941,-9.71103,-179.956,3.80127,-144.25,408
1570787601,321.469,-95.9941,-9.71103,-179.956,3.80127,-144.25,408
1570787601,321.469,-95.9941,-9.82266,-179.956,3.80127,-144.25,408
1570787601,321.469,-95.9941,-9.82266,-179.956,3.80127,-144.25,408
1570787601,321.469,-95.9941,-9.82266,-179.956,3.80127,-144.25,408
1570787601,321.469,-95.9941,-9.82266,-179.956,3.80127,-144.25,408
1570787601,321.469,-95.9941,-9.82266,-179.956,3.80127,-144.25,408
1570787601,321.469,-95.9941,-9.82266,-179.956,3.80127,-144.25,408
1570787601,321.357,-95.9941,-9.82266,-179.956,3.80127,-144.25,412
1570787601,321.357,-95.9941,-9.82266,-179.956,3.80127,-144.25,412
1570787601,321.357,-95.9941,-9.82266,-179.956,3.80127,-144.25,412
1570787601,321.357,-95.9941,-9.82266,-179.956,3.80127,-144.25,412
1570787601,321.357,-95.9941,-9.82266,-179.956,3.80127,-144.25,412
1570787601,321.357,-95.9941,-9.82266,-179.934,3.80127,-144.25,412
1570787601,321.357,-95.9941,-9.82266,-179.934,3.80127,-144.25,412
1570787601,321.357,-95.9941,-9.82266,-179.934,3.80127,-144.25,412
1570787601,321.357,-95.9941,-9.82266,-179.934,3.80127,-144.25,412
1570787601,321.357,-95.9941,-9.71103,-179.934,3.80127,-144.25,412
1570787601,321.357,-95.9941,-9.71103,-179.934,3.82324,-144.229,412
1570787601,321.357,-95.8825,-9.71103,-179.934,3.82324,-144.229,412
1570787601,321.357,-95.8825,-9.71103,-179.912,3.82324,-144.229,412
1570787601,321.357,-95.8825,-9.71103,-179.912,3.82324,-144.229,412
1570787601,321.357,-95.8825,-9.71103,-179.912,3.82324,-144.229,412
1570787601,321.357,-95.8825,-9.71103,-179.912,3.82324,-144.229,412
1570787601,321.469,-95.8825,-9.71103,-179.912,3.82324,-144.229,412
1570787601,321.469,-95.8825,-9.71103,-179.912,3.82324,-144.229,412
1570787601,321.469,-95.8825,-9.71103,-179.912,3.82324,-144.229,412
1570787602,321.469,-95.8825,-9.71103,-179.912,3.82324,-144.229,416
1570787602,321.469,-95.8825,-9.71103,-179.912,3.82324,-144.229,416
1570787602,321.469,-95.8825,-9.82266,-179.912,3.82324,-144.229,416
1570787602,321.469,-95.8825,-9.82266,-179.912,3.82324,-144.229,416
1570787602,321.469,-95.8825,-9.82266,-179.912,3.82324,-144.229,416
1570787602,321.469,-95.9941,-9.82266,-179.912,3.82324,-144.229,416
1570787602,321.469,-95.9941,-9.71103,-179.912,3.82324,-144.229,416
1570787602,321.469,-95.9941,-9.71103,-179.912,3.82324,-144.229,416
1570787602,321.469,-95.9941,-9.71103,-179.934,3.82324,-144.229,420
1570787602,321.469,-95.9941,-9.71103,-179.934,3.82324,-144.229,420
1570787602,321.469,-95.9941,-9.71103,-179.934,3.82324,-144.229,420
1570787602,321.469,-95.9941,-9.71103,-179.934,3.82324,-144.229,420
1570787602,321.469,-95.9941,-9.71103,-179.934,3.82324,-144.229,420
1570787602,321.469,-95.9941,-9.71103,-179.934,3.82324,-144.229,420
1570787602,321.469,-95.9941,-9.71103,-179.934,3.82324,-144.229,420
1570787602,321.469,-95.9941,-9.71103,-179.934,3.82324,-144.229,420
1570787602,321.469,-95.9941,-9.71103,-179.934,3.82324,-144.229,420
1570787602,321.469,-95.9941,-9.71103,-179.934,3.82324,-144.229,420
1570787602,321.469,-95.9941,-9.71103,-179.934,3.82324,-144.229,420
1570787602,321.469,-95.9941,-9.71103,-179.934,3.82324,-144.229,420
1570787602,321.469,-95.9941,-9.71103,-179.934,3.82324,-144.229,420
1570787602,321.469,-95.9941,-9.71103,-179.934,3.82324,-144.229,420
1570787602,321.469,-95.9941,-9.71103,-179.934,3.82324,-144.229,420
1570787602,321.469,-95.9941,-9.71103,-179.934,3.82324,-144.229,420
1570787602,321.469,-95.9941,-9.71103,-179.934,3.82324,-144.229,420
1570787602,321.469,-95.9941,-9.71103,-179.934,3.82324,-144.229,420
1570787602,321.469,-95.9941,-9.71103,-179.934,3.82324,-144.229,420
1570787602,321.469,-95.9941,-9.71103,-179.934,3.82324,-144.229,416
1570787602,321.469,-95.9941,-9.71103,-179.934,3.82324,-144.229,416
1570787602,321.469,-95.9941,-9.71103,-179.934,3.82324,-144.229,416
1570787602,321.469,-95.9941,-9.71103,-179.912,3.82324,-144.229,416
1570787602,321.469,-95.9941,-9.71103,-179.912,3.82324,-144.229,416
1570787602,321.469,-95.9941,-9.71103,-179.912,3.80127,-144.229,416
1570787602,321.469,-95.9941,-9.71103,-179.912,3.80127,-144.229,416
1570787602,321.469,-95.9941,-9.82266,-179.912,3.80127,-144.229,416
1570787602,321.469,-95.9941,-9.82266,-179.912,3.80127,-144.229,416
1570787602,321.469,-95.9941,-9.82266,-179.912,3.80127,-144.229,416
1570787602,321.469,-95.9941,-9.82266,-179.912,3.80127,-144.229,416
1570787602,321.469,-95.9941,-9.82266,-179.912,3.80127,-144.229,416
1570787602,321.469,-95.9941,-9.82266,-179.912,3.7793,-144.229,416
1570787602,321.469,-95.9941,-9.82266,-179.912,3.7793,-144.229,416
1570787602,321.469,-95.9941,-9.82266,-179.912,3.7793,-144.229,416
1570787602,321.469,-95.9941,-9.82266,-179.912,3.7793,-144.229,416
1570787602,321.469,-95.9941,-9.82266,-179.912,3.7793,-144.229,416
1570787602,321.469,-95.9941,-9.82266,-179.912,3.7793,-144.229,416
1570787602,321.469,-95.9941,-9.82266,-179.912,3.7793,-144.229,416
1570787602,321.469,-95.9941,-9.82266,-179.912,3.7793,-144.229,416
1570787602,321.469,-95.9941,-9.82266,-179.912,3.80127,-144.229,416
1570787602,321.469,-95.9941,-9.82266,-179.912,3.80127,-144.229,416
1570787602,321.469,-95.9941,-9.82266,-179.912,3.80127,-144.229,416
1570787602,321.469,-95.9941,-9.82266,-179.912,3.80127,-144.229,416
1570787602,321.469,-95.9941,-9.82266,-179.912,3.80127,-144.229,416
1570787602,321.469,-95.9941,-9.82266,-179.912,3.80127,-144.229,416
1570787602,321.469,-95.9941,-9.82266,-179.912,3.7793,-144.229,416
1570787602,321.469,-95.9941,-9.82266,-179.934,3.7793,-144.229,412
1570787602,321.469,-95.9941,-9.82266,-179.934,3.7793,-144.229,412
1570787602,321.469,-95.9941,-9.82266,-179.934,3.7793,-144.229,412
1570787602,321.469,-95.9941,-9.82266,-179.934,3.7793,-144.229,412
1570787602,321.469,-95.9941,-9.82266,-179.934,3.7793,-144.229,412
1570787602,321.469,-95.9941,-9.82266,-179.934,3.7793,-144.229,416
1570787602,321.469,-95.9941,-9.82266,-179.934,3.7793,-144.229,416
1570787602,321.469,-95.9941,-9.82266,-179.934,3.7793,-144.229,416
1570787602,321.469,-95.9941,-9.82266,-179.934,3.7793,-144.229,416
1570787602,321.469,-95.9941,-9.82266,-179.934,3.7793,-144.229,416
1570787602,321.469,-95.9941,-9.82266,-179.934,3.7793,-144.229,412
1570787602,321.469,-95.9941,-9.82266,-179.934,3.80127,-144.25,412
1570787602,321.469,-95.9941,-9.82266,-179.934,3.80127,-144.25,412
1570787602,321.469,-95.9941,-9.82266,-179.934,3.80127,-144.25,412
1570787602,321.469,-95.9941,-9.82266,-179.934,3.80127,-144.25,412
1570787602,321.469,-95.9941,-9.82266,-179.934,3.80127,-144.25,416
1570787602,321.469,-95.9941,-9.82266,-179.934,3.80127,-144.25,416
1570787602,321.469,-95.9941,-9.82266,-179.934,3.80127,-144.25,416
1570787602,321.469,-95.9941,-9.82266,-179.934,3.80127,-144.25,416
1570787602,321.469,-95.9941,-9.82266,-179.934,3.80127,-144.25,416
1570787602,321.469,-95.9941,-9.82266,-179.934,3.80127,-144.25,416
1570787602,321.469,-95.9941,-9.82266,-179.956,3.80127,-144.25,416
1570787602,321.469,-95.9941,-9.82266,-179.956,3.80127,-144.25,416
1570787602,321.469,-95.9941,-9.82266,-179.956,3.80127,-144.25,416
1570787602,321.469,-95.9941,-9.82266,-179.956,3.80127,-144.25,416
1570787602,321.469,-95.9941,-9.82266,-179.956,3.80127,-144.25,412
1570787602,321.469,-95.9941,-9.82266,-179.956,3.80127,-144.25,412
1570787602,321.469,-95.9941,-9.82266,-179.956,3.80127,-144.25,412
1570787602,321.469,-95.9941,-9.82266,-179.956,3.80127,-144.25,412
1570787602,321.469,-95.9941,-9.82266,-179.956,3.80127,-144.25,412
1570787602,321.469,-95.9941,-9.82266,-179.956,3.80127,-144.25,412
1570787602,321.469,-95.9941,-9.82266,-179.956,3.80127,-144.25,412
1570787602,321.469,-95.9941,-9.82266,-179.956,3.80127,-144.25,412
1570787602,321.469,-95.9941,-9.82266,-179.956,3.80127,-144.25,412
1570787602,321.469,-95.9941,-9.82266,-179.956,3.7793,-144.25,412
1570787602,321.469,-95.9941,-9.82266,-179.956,3.7793,-144.25,408
1570787602,321.469,-95.9941,-9.82266,-179.934,3.7793,-144.25,408
1570787602,321.469,-95.9941,-9.82266,-179.934,3.80127,-144.25,408
1570787602,321.469,-95.9941,-9.82266,-179.934,3.80127,-144.25,408
1570787602,321.469,-95.9941,-9.82266,-179.934,3.80127,-144.25,408
1570787602,321.469,-95.9941,-9.82266,-179.934,3.80127,-144.25,408
1570787602,321.469,-95.9941,-9.82266,-179.934,3.80127,-144.25,408
1570787602,321.469,-95.9941,-9.82266,-179.934,3.80127,-144.25,408
1570787602,321.469,-95.9941,-9.82266,-179.934,3.80127,-144.25,408
1570787602,321.469,-95.9941,-9.82266,-179.934,3.80127,-144.25,408
1570787602,321.469,-95.9941,-9.82266,-179.934,3.80127,-144.25,408
1570787603,321.469,-95.9941,-9.82266,-179.934,3.80127,-144.25,408
1570787603,321.469,-95.9941,-9.82266,-179.934,3.80127,-144.25,408
1570787603,321.469,-95.9941,-9.82266,-179.934,3.80127,-144.25,408
1570787603,321.469,-95.9941,-9.82266,-179.934,3.80127,-144.25,408
1570787603,321.469,-95.9941,-9.82266,-179.934,3.80127,-144.25,408
1570787603,321.469,-95.9941,-9.82266,-179.934,3.80127,-144.25,408
1570787603,321.469,-95.9941,-9.82266,-179.934,3.80127,-144.25,408
1570787603,321.469,-95.9941,-9.82266,-179.934,3.80127,-144.25,408
1570787603,321.469,-95.9941,-9.82266,-179.934,3.80127,-144.25,408
1570787603,321.357,-95.9941,-9.82266,-179.934,3.80127,-144.25,408
1570787603,321.357,-95.9941,-9.82266,-179.934,3.80127,-144.25,408
1570787603,321.357,-95.9941,-9.82266,-179.934,3.80127,-144.25,408
1570787603,321.357,-95.9941,-9.82266,-179.934,3.80127,-144.25,408
1570787603,321.357,-95.9941,-9.82266,-179.934,3.7793,-144.25,408
1570787603,321.357,-95.9941,-9.82266,-179.934,3.7793,-144.25,408
1570787603,321.357,-95.9941,-9.82266,-179.934,3.7793,-144.25,408
1570787603,321.357,-95.9941,-9.82266,-179.934,3.7793,-144.25,408
1570787603,321.357,-95.9941,-9.82266,-179.934,3.7793,-144.25,408
1570787603,321.357,-95.9941,-9.82266,-179.934,3.7793,-144.25,408
1570787603,321.357,-95.9941,-9.82266,-179.934,3.7793,-144.25,408
1570787603,321.357,-95.9941,-9.82266,-179.934,3.7793,-144.25,408
1570787603,321.357,-95.9941,-9.82266,-179.934,3.7793,-144.25,408
1570787603,321.357,-95.9941,-9.82266,-179.934,3.7793,-144.25,408
1570787603,321.357,-95.9941,-9.82266,-179.934,3.7793,-144.25,408
1570787603,321.357,-95.9941,-9.82266,-179.934,3.7793,-144.25,408
1570787603,321.357,-95.9941,-9.82266,-179.934,3.7793,-144.25,412
1570787603,321.357,-95.9941,-9.82266,-179.934,3.7793,-144.25,412
1570787603,321.357,-95.9941,-9.82266,-179.934,3.7793,-144.25,412
1570787603,321.357,-95.9941,-9.82266,-179.934,3.7793,-144.25,412
1570787603,321.357,-95.9941,-9.82266,-179.934,3.7793,-144.229,412
1570787603,321.357,-95.9941,-9.82266,-179.934,3.7793,-144.229,412
1570787603,321.357,-95.9941,-9.82266,-179.934,3.7793,-144.229,412
1570787603,321.357,-95.9941,-9.82266,-179.934,3.7793,-144.229,412
1570787603,321.357,-95.9941,-9.82266,-179.934,3.7793,-144.229,412
1570787603,321.357,-95.9941,-9.82266,-179.934,3.7793,-144.229,412
1570787603,321.357,-95.9941,-9.82266,-179.934,3.7793,-144.229,412
1570787603,321.357,-95.9941,-9.82266,-179.934,3.7793,-144.229,412
1570787603,321.469,-95.9941,-9.82266,-179.934,3.7793,-144.229,416
1570787603,321.469,-95.9941,-9.82266,-179.934,3.7793,-144.229,416
1570787603,321.469,-95.9941,-9.82266,-179.934,3.7793,-144.229,416
1570787603,321.469,-95.9941,-9.82266,-179.934,3.7793,-144.229,416
1570787603,321.469,-95.9941,-9.82266,-179.934,3.80127,-144.229,416
1570787603,321.469,-95.9941,-9.82266,-179.934,3.80127,-144.229,416
1570787603,321.469,-95.9941,-9.82266,-179.934,3.80127,-144.229,416
1570787603,321.357,-95.9941,-9.82266,-179.934,3.80127,-144.229,416
1570787603,321.357,-95.9941,-9.82266,-179.934,3.80127,-144.229,416
1570787603,321.357,-95.9941,-9.82266,-179.934,3.80127,-144.229,416
1570787603,321.357,-95.9941,-9.82266,-179.934,3.80127,-144.229,416
1570787603,321.357,-95.9941,-9.82266,-179.934,3.80127,-144.229,416
1570787603,321.357,-95.9941,-9.82266,-179.934,3.80127,-144.229,416
1570787603,321.357,-95.9941,-9.82266,-179.934,3.80127,-144.229,416
1570787603,321.357,-95.9941,-9.82266,-179.934,3.80127,-144.229,416
1570787603,321.357,-95.9941,-9.82266,-179.934,3.80127,-144.229,416
1570787603,321.357,-95.9941,-9.82266,-179.934,3.80127,-144.229,420
1570787603,321.357,-95.9941,-9.82266,-179.934,3.80127,-144.229,420
1570787603,321.357,-95.9941,-9.82266,-179.934,3.80127,-144.229,420
1570787603,321.357,-95.9941,-9.82266,-179.934,3.80127,-144.229,420
1570787603,321.357,-95.9941,-9.82266,-179.934,3.80127,-144.229,420
1570787603,321.357,-95.9941,-9.82266,-179.934,3.80127,-144.229,420
1570787603,321.357,-95.9941,-9.82266,-179.934,3.80127,-144.229,420
1570787603,321.357,-95.9941,-9.82266,-179.934,3.80127,-144.25,420
1570787603,321.357,-95.9941,-9.82266,-179.934,3.80127,-144.25,420
1570787603,321.469,-95.9941,-9.82266,-179.934,3.80127,-144.25,420
1570787603,321.469,-95.9941,-9.82266,-179.934,3.80127,-144.25,420
1570787603,321.469,-95.9941,-9.82266,-179.934,3.80127,-144.25,420
1570787603,321.469,-95.9941,-9.82266,-179.934,3.80127,-144.25,416
1570787603,321.469,-95.9941,-9.82266,-179.934,3.80127,-144.25,416
1570787603,321.469,-95.9941,-9.82266,-179.934,3.80127,-144.25,416
1570787603,321.469,-95.9941,-9.82266,-179.934,3.80127,-144.25,416
1570787603,321.469,-95.9941,-9.71103,-179.934,3.80127,-144.25,416
1570787603,321.469,-95.9941,-9.71103,-179.934,3.80127,-144.25,416
1570787603,321.357,-95.9941,-9.71103,-179.934,3.82324,-144.25,416
1570787603,321.357,-95.9941,-9.71103,-179.934,3.82324,-144.25,416
1570787603,321.357,-95.9941,-9.71103,-179.934,3.82324,-144.25,416
1570787603,321.357,-95.9941,-9.71103,-179.934,3.82324,-144.25,416
1570787603,321.357,-95.9941,-9.71103,-179.934,3.82324,-144.25,416
1570787603,321.357,-95.9941,-9.71103,-179.934,3.82324,-144.25,416
1570787603,321.357,-95.9941,-9.71103,-179.934,3.82324,-144.25,416
1570787603,321.357,-95.9941,-9.71103,-179.934,3.80127,-144.25,416
1570787603,321.357,-95.9941,-9.71103,-179.934,3.80127,-144.25,420
1570787603,321.357,-95.9941,-9.82266,-179.934,3.80127,-144.25,420
1570787603,321.357,-95.9941,-9.82266,-179.934,3.80127,-144.25,420
1570787603,321.357,-95.9941,-9.82266,-179.934,3.80127,-144.25,420
1570787603,321.357,-95.9941,-9.82266,-179.934,3.80127,-144.25,420
1570787603,321.357,-95.9941,-9.82266,-179.934,3.80127,-144.25,420
1570787603,321.357,-95.9941,-9.82266,-179.934,3.80127,-144.25,420
1570787603,321.357,-95.9941,-9.82266,-179.934,3.80127,-144.25,420
1570787603,321.357,-95.9941,-9.82266,-179.934,3.80127,-144.25,420
1570787603,321.357,-95.9941,-9.82266,-179.934,3.80127,-144.25,420
1570787603,321.357,-95.9941,-9.82266,-179.934,3.80127,-144.25,420
1570787603,321.357,-95.9941,-9.82266,-179.934,3.80127,-144.25,420
1570787603,321.357,-95.9941,-9.82266,-179.934,3.82324,-144.229,420
1570787603,321.357,-95.9941,-9.71103,-179.934,3.82324,-144.229,420
1570787603,321.357,-95.9941,-9.71103,-179.934,3.82324,-144.229,420
1570787603,321.357,-95.9941,-9.71103,-179.934,3.82324,-144.229,420
1570787603,321.357,-95.9941,-9.71103,-179.934,3.82324,-144.229,420
1570787603,321.357,-95.9941,-9.71103,-179.934,3.82324,-144.229,420
1570787603,321.357,-95.9941,-9.71103,-179.934,3.82324,-144.229,420
1570787603,321.357,-95.9941,-9.71103,-179.934,3.82324,-144.229,420
1570787603,321.357,-95.9941,-9.71103,-179.934,3.82324,-144.229,420
1570787603,321.357,-95.9941,-9.71103,-179.934,3.82324,-144.229,420
1570787604,321.357,-95.9941,-9.71103,-179.934,3.82324,-144.229,420
1570787604,321.357,-95.9941,-9.71103,-179.934,3.82324,-144.229,420
1570787604,321.357,-95.9941,-9.71103,-179.934,3.82324,-144.229,420
1570787604,321.357,-95.9941,-9.71103,-179.934,3.82324,-144.229,420
1570787604,321.357,-95.9941,-9.71103,-179.934,3.82324,-144.229,424
1570787604,321.357,-95.8825,-9.71103,-179.934,3.82324,-144.229,424
1570787604,321.357,-95.8825,-9.82266,-179.934,3.80127,-144.229,424
1570787604,321.357,-95.8825,-9.82266,-179.934,3.80127,-144.229,424
1570787604,321.357,-95.8825,-9.82266,-179.934,3.80127,-144.229,424
1570787604,321.357,-95.8825,-9.82266,-179.934,3.80127,-144.229,424
1570787604,321.357,-95.8825,-9.82266,-179.934,3.80127,-144.229,428
1570787604,321.357,-95.8825,-9.82266,-179.934,3.80127,-144.229,428
1570787604,321.357,-95.8825,-9.82266,-179.934,3.80127,-144.229,428
1570787619,337.207,-111.956,-8.92969,-179.67,3.75732,-143.635,376
1570787619,337.207,-111.956,-8.92969,-179.67,3.75732,-143.635,376
1570787619,337.207,-111.956,-8.92969,-179.67,3.75732,-143.635,376
1570787619,337.207,-111.956,-8.92969,-179.67,3.75732,-143.635,376
1570787619,337.207,-111.956,-8.92969,-179.67,3.75732,-143.635,376
1570787619,337.207,-111.956,-8.92969,-179.67,3.75732,-143.635,372
1570787619,337.207,-111.956,-8.92969,-179.67,3.75732,-143.635,372
1570787619,337.207,-111.956,-8.92969,-179.67,3.75732,-143.635,372
1570787619,337.207,-111.956,-8.92969,-179.67,3.75732,-143.635,372
1570787619,337.207,-111.956,-8.92969,-179.67,3.75732,-143.635,372
1570787619,337.207,-111.956,-8.92969,-179.67,3.75732,-143.635,368
1570787619,337.207,-111.956,-8.92969,-179.67,3.73535,-143.635,368
1570787619,337.207,-111.956,-8.92969,-179.67,3.73535,-143.635,368
1570787619,337.207,-111.956,-8.92969,-179.67,3.73535,-143.635,368
1570787619,337.207,-111.956,-8.92969,-179.67,3.73535,-143.635,368
1570787619,337.207,-111.956,-8.92969,-179.67,3.73535,-143.635,364
1570787619,337.207,-111.956,-9.04131,-179.67,3.73535,-143.635,364
1570787619,337.207,-111.956,-9.04131,-179.67,3.73535,-143.635,364
1570787619,337.207,-111.956,-9.04131,-179.67,3.73535,-143.635,364
1570787619,337.207,-111.956,-9.04131,-179.67,3.73535,-143.635,364
1570787619,337.207,-111.956,-9.04131,-179.67,3.73535,-143.635,364
1570787619,337.207,-111.956,-9.04131,-179.67,3.73535,-143.635,364
1570787619,337.207,-111.956,-8.92969,-179.67,3.73535,-143.635,364
1570787619,337.207,-111.956,-8.92969,-179.67,3.73535,-143.635,360
1570787619,337.207,-111.956,-8.92969,-179.67,3.73535,-143.635,360
1570787619,337.207,-111.956,-8.92969,-179.67,3.73535,-143.635,360
1570787619,337.207,-111.956,-8.92969,-179.67,3.73535,-143.635,360
1570787619,337.096,-111.956,-8.92969,-179.67,3.73535,-143.635,360
1570787619,337.096,-111.956,-8.92969,-179.67,3.75732,-143.635,360
1570787619,337.096,-111.956,-8.92969,-179.692,3.75732,-143.635,360
1570787619,337.096,-111.956,-8.92969,-179.692,3.75732,-143.635,360
1570787619,337.096,-111.956,-8.92969,-179.692,3.75732,-143.635,360
1570787619,337.096,-111.956,-8.92969,-179.692,3.75732,-143.635,360
1570787619,337.096,-111.956,-8.92969,-179.692,3.75732,-143.635,360
1570787619,337.096,-111.956,-8.92969,-179.692,3.75732,-143.635,364
1570787619,337.207,-111.956,-8.92969,-179.692,3.75732,-143.635,364
1570787619,337.207,-111.956,-8.92969,-179.692,3.75732,-143.635,364
1570787619,337.207,-111.956,-8.92969,-179.692,3.75732,-143.635,364
1570787619,337.207,-111.956,-8.92969,-179.67,3.75732,-143.635,364
1570787619,337.207,-111.956,-8.92969,-179.67,3.75732,-143.635,364
1570787619,337.207,-111.956,-8.92969,-179.67,3.75732,-143.635,364
1570787619,337.207,-111.956,-8.92969,-179.67,3.75732,-143.635,364
1570787619,337.207,-111.956,-8.92969,-179.67,3.75732,-143.635,364
1570787619,337.207,-111.956,-8.92969,-179.67,3.75732,-143.635,364
1570787619,337.207,-111.956,-8.92969,-179.67,3.73535,-143.635,364
1570787619,337.207,-111.956,-8.92969,-179.67,3.73535,-143.635,364
1570787619,337.207,-111.956,-8.92969,-179.67,3.73535,-143.635,364
1570787619,337.207,-111.956,-8.92969,-179.67,3.73535,-143.635,364
1570787619,337.207,-111.956,-8.92969,-179.67,3.73535,-143.635,364
1570787619,337.207,-111.956,-8.92969,-179.692,3.73535,-143.635,364
1570787619,337.207,-111.956,-8.92969,-179.67,3.73535,-143.635,368
1570787619,337.207,-111.956,-8.92969,-179.67,3.73535,-143.635,368
1570787619,337.207,-111.956,-8.92969,-179.67,3.73535,-143.635,368
1570787619,337.207,-111.956,-8.92969,-179.67,3.73535,-143.635,368
1570787619,337.207,-111.956,-8.92969,-179.67,3.73535,-143.635,368
1570787619,337.207,-111.956,-8.92969,-179.67,3.73535,-143.635,368
1570787619,337.207,-111.956,-8.92969,-179.67,3.73535,-143.635,368
1570787619,337.207,-111.956,-8.92969,-179.67,3.75732,-143.613,368
1570787619,337.207,-111.844,-8.92969,-179.67,3.75732,-143.613,368
1570787619,337.207,-111.844,-8.92969,-179.67,3.75732,-143.613,372
1570787619,337.207,-111.844,-8.92969,-179.67,3.75732,-143.613,372
1570787619,337.207,-111.844,-8.92969,-179.67,3.75732,-143.613,372
1570787619,337.207,-111.844,-8.92969,-179.67,3.75732,-143.613,372
1570787619,337.207,-111.844,-8.92969,-179.67,3.75732,-143.613,372
1570787619,337.207,-111.844,-8.92969,-179.67,3.75732,-143.613,372
1570787619,337.207,-111.844,-8.92969,-179.67,3.75732,-143.613,372
1570787619,337.207,-111.844,-8.92969,-179.67,3.75732,-143.613,376
1570787619,337.207,-111.844,-8.92969,-179.67,3.75732,-143.613,376
1570787619,337.207,-111.956,-8.92969,-179.67,3.75732,-143.613,376
1570787619,337.207,-111.956,-8.92969,-179.67,3.75732,-143.613,376
1570787619,337.207,-111.956,-8.92969,-179.67,3.75732,-143.613,376
1570787619,337.207,-111.956,-8.92969,-179.67,3.75732,-143.613,376
1570787619,337.096,-111.956,-8.92969,-179.67,3.75732,-143.613,380
1570787619,337.096,-111.956,-8.92969,-179.67,3.75732,-143.613,380
1570787619,337.096,-111.956,-8.92969,-179.67,3.75732,-143.613,380
1570787619,337.096,-111.956,-8.92969,-179.67,3.75732,-143.613,380
1570787619,337.096,-111.956,-8.92969,-179.67,3.7793,-143.613,380
1570787619,337.096,-111.956,-8.81807,-179.67,3.7793,-143.613,384
1570787619,337.096,-111.956,-8.81807,-179.67,3.7793,-143.613,384
1570787619,337.096,-111.956,-8.81807,-179.67,3.7793,-143.613,384
1570787619,337.096,-111.956,-8.81807,-179.67,3.7793,-143.613,384
1570787619,337.096,-111.844,-8.81807,-179.67,3.7793,-143.613,384
1570787619,337.096,-111.844,-8.81807,-179.67,3.7793,-143.613,384
1570787619,337.096,-111.844,-8.81807,-179.67,3.7793,-143.613,388
1570787619,337.096,-111.844,-8.81807,-179.67,3.7793,-143.613,388
1570787619,337.096,-111.844,-8.81807,-179.67,3.7793,-143.613,388
1570787619,337.096,-111.844,-8.81807,-179.67,3.7793,-143.635,388
1570787620,337.096,-111.844,-8.81807,-179.67,3.7793,-143.635,388
1570787620,337.096,-111.844,-8.81807,-179.67,3.7793,-143.635,388
1570787620,337.096,-111.844,-8.81807,-179.67,3.7793,-143.635,392
1570787620,337.096,-111.844,-8.81807,-179.692,3.7793,-143.635,392
1570787620,337.096,-111.956,-8.92969,-179.692,3.7793,-143.635,392
1570787620,337.096,-111.956,-8.92969,-179.692,3.7793,-143.635,392
1570787620,337.096,-111.956,-8.92969,-179.692,3.7793,-143.635,392
1570787620,337.096,-111.956,-8.92969,-179.67,3.7793,-143.635,392
1570787620,337.096,-111.956,-8.92969,-179.67,3.7793,-143.635,392
1570787620,337.096,-111.956,-8.92969,-179.67,3.7793,-143.635,392
1570787620,337.096,-111.956,-8.81807,-179.67,3.7793,-143.635,392
1570787620,337.096,-111.956,-8.81807,-179.67,3.7793,-143.635,392
1570787620,337.096,-111.956,-8.81807,-179.67,3.7793,-143.635,388
1570787620,337.096,-111.956,-8.81807,-179.692,3.7793,-143.635,388
1570787620,337.096,-111.956,-8.81807,-179.692,3.7793,-143.635,388
1570787620,337.096,-111.956,-8.81807,-179.692,3.7793,-143.635,388
1570787620,337.096,-111.956,-8.81807,-179.692,3.7793,-143.635,388
1570787620,337.096,-111.956,-8.81807,-179.692,3.7793,-143.635,388
1570787620,337.096,-111.956,-8.81807,-179.692,3.7793,-143.635,388
1570787620,337.096,-111.956,-8.81807,-179.692,3.7793,-143.635,388
1570787620,337.096,-111.956,-8.81807,-179.692,3.7793,-143.635,388
1570787620,337.096,-111.956,-8.81807,-179.692,3.7793,-143.635,388
1570787620,337.096,-111.956,-8.81807,-179.692,3.7793,-143.635,388
1570787620,337.096,-111.956,-8.81807,-179.692,3.7793,-143.635,388
1570787620,337.096,-111.956,-8.81807,-179.692,3.7793,-143.635,388
1570787620,337.096,-111.956,-8.81807,-179.692,3.7793,-143.635,388
1570787620,337.096,-111.956,-8.81807,-179.692,3.7793,-143.635,388
1570787620,337.096,-111.956,-8.81807,-179.692,3.7793,-143.635,388
1570787620,337.096,-111.956,-8.81807,-179.692,3.7793,-143.613,384
1570787620,337.096,-111.956,-8.81807,-179.692,3.7793,-143.613,384
1570787620,337.096,-111.956,-8.81807,-179.692,3.7793,-143.613,384
1570787620,337.096,-111.956,-8.81807,-179.692,3.7793,-143.613,384
1570787620,337.096,-111.956,-8.81807,-179.67,3.7793,-143.635,384
1570787620,337.096,-111.956,-8.81807,-179.67,3.75732,-143.635,384
1570787620,337.207,-111.956,-8.92969,-179.67,3.75732,-143.635,380
1570787620,337.207,-111.844,-8.92969,-179.67,3.75732,-143.613,380
1570787620,337.207,-111.844,-8.92969,-179.67,3.75732,-143.613,380
1570787620,337.207,-111.844,-8.92969,-179.67,3.75732,-143.613,380
1570787620,337.207,-111.844,-8.92969,-179.67,3.75732,-143.613,380
1570787620,337.207,-111.844,-8.92969,-179.67,3.75732,-143.613,380
1570787620,337.207,-111.844,-8.92969,-179.67,3.75732,-143.613,380
1570787620,337.207,-111.956,-8.92969,-179.67,3.75732,-143.613,376
1570787620,337.207,-111.956,-8.92969,-179.67,3.75732,-143.613,376
1570787620,337.207,-111.956,-8.92969,-179.67,3.75732,-143.613,376
1570787620,337.207,-111.956,-8.92969,-179.67,3.75732,-143.613,376
1570787620,337.207,-111.956,-8.92969,-179.67,3.75732,-143.613,376
1570787620,337.207,-111.956,-8.92969,-179.67,3.75732,-143.613,376
1570787620,337.207,-111.956,-8.92969,-179.67,3.75732,-143.613,376
1570787620,337.207,-111.956,-8.92969,-179.67,3.75732,-143.613,376
1570787620,337.207,-111.956,-8.92969,-179.67,3.75732,-143.613,372
1570787620,337.207,-111.956,-8.92969,-179.67,3.75732,-143.613,372
1570787620,337.207,-111.956,-8.92969,-179.67,3.7793,-143.613,372
1570787620,337.207,-111.956,-8.92969,-179.67,3.7793,-143.613,372
1570787620,337.207,-111.956,-8.81807,-179.67,3.7793,-143.613,372
1570787620,337.207,-111.956,-8.81807,-179.67,3.7793,-143.613,372
1570787620,337.207,-111.956,-8.81807,-179.692,3.7793,-143.613,372
1570787620,337.207,-111.956,-8.81807,-179.692,3.7793,-143.613,372
1570787620,337.207,-111.956,-8.81807,-179.692,3.7793,-143.613,372
1570787620,337.207,-111.956,-8.81807,-179.692,3.7793,-143.613,372
1570787620,337.207,-111.956,-8.81807,-179.692,3.7793,-143.613,372
1570787620,337.207,-111.956,-8.81807,-179.692,3.7793,-143.613,372
1570787620,337.207,-111.956,-8.81807,-179.692,3.7793,-143.613,372
1570787620,337.207,-111.956,-8.81807,-179.692,3.7793,-143.613,372
1570787620,337.207,-111.956,-8.81807,-179.692,3.7793,-143.613,372
1570787620,337.207,-111.956,-8.81807,-179.692,3.7793,-143.613,372
1570787620,337.207,-111.956,-8.81807,-179.692,3.7793,-143.613,372
1570787620,337.207,-111.956,-8.81807,-179.692,3.7793,-143.613,372
1570787620,337.207,-111.956,-8.81807,-179.692,3.7793,-143.613,372
1570787620,337.207,-111.956,-8.81807,-179.692,3.7793,-143.613,372
1570787620,337.207,-111.956,-8.81807,-179.692,3.7793,-143.613,372
1570787620,337.207,-111.956,-8.81807,-179.692,3.7793,-143.613,372
1570787620,337.207,-111.956,-8.81807,-179.692,3.7793,-143.613,372
1570787620,337.096,-111.956,-8.81807,-179.692,3.7793,-143.613,376
1570787620,337.096,-111.956,-8.81807,-179.692,3.7793,-143.613,376
1570787620,337.096,-111.956,-8.81807,-179.692,3.7793,-143.613,376
1570787620,337.096,-111.956,-8.81807,-179.692,3.7793,-143.613,376
1570787620,337.096,-111.956,-8.81807,-179.692,3.7793,-143.613,376
1570787620,337.096,-111.956,-8.81807,-179.692,3.7793,-143.613,376
1570787620,337.096,-111.956,-8.81807,-179.692,3.7793,-143.613,380
1570787620,337.096,-111.956,-8.81807,-179.692,3.75732,-143.613,380
1570787620,337.096,-111.956,-8.81807,-179.67,3.7793,-143.613,380
1570787620,337.096,-111.956,-8.81807,-179.67,3.7793,-143.613,380
1570787620,337.096,-111.956,-8.81807,-179.67,3.7793,-143.613,380
1570787620,337.096,-111.956,-8.81807,-179.67,3.7793,-143.613,384
1570787620,337.096,-111.956,-8.81807,-179.692,3.7793,-143.613,384
1570787620,337.096,-111.956,-8.81807,-179.692,3.7793,-143.613,384
1570787620,337.096,-111.956,-8.81807,-179.692,3.7793,-143.613,384
1570787620,337.096,-111.956,-8.81807,-179.692,3.7793,-143.613,384
1570787620,337.096,-111.956,-8.81807,-179.692,3.7793,-143.613,384
1570787620,337.096,-111.956,-8.81807,-179.692,3.7793,-143.613,388
1570787620,337.096,-111.956,-8.81807,-179.692,3.7793,-143.613,388
1570787620,337.096,-111.956,-8.81807,-179.692,3.7793,-143.613,388
1570787620,337.096,-111.956,-8.81807,-179.692,3.7793,-143.613,388
1570787620,337.096,-111.956,-8.81807,-179.692,3.7793,-143.613,388
1570787620,337.096,-111.956,-8.81807,-179.67,3.7793,-143.613,392
1570787620,337.096,-111.956,-8.81807,-179.67,3.7793,-143.613,392
1570787620,337.096,-111.956,-8.81807,-179.67,3.7793,-143.613,392
1570787620,337.096,-111.956,-8.81807,-179.67,3.7793,-143.613,392
1570787620,337.096,-111.956,-8.81807,-179.67,3.7793,-143.613,392
1570787620,337.096,-111.956,-8.81807,-179.67,3.7793,-143.613,392
1570787621,337.096,-111.956,-8.81807,-179.67,3.7793,-143.613,396
1570787621,337.096,-111.956,-8.81807,-179.67,3.7793,-143.613,396
1570787621,337.096,-111.956,-8.81807,-179.67,3.7793,-143.613,396
1570787621,337.096,-111.956,-8.81807,-179.67,3.7793,-143.613,396
1570787621,337.096,-111.956,-8.81807,-179.67,3.7793,-143.613,396
1570787621,337.096,-111.956,-8.81807,-179.67,3.7793,-143.613,396
1570787621,337.096,-111.956,-8.81807,-179.67,3.7793,-143.613,396
1570787621,337.096,-111.956,-8.81807,-179.67,3.7793,-143.613,396
1570787621,337.096,-111.844,-8.81807,-179.67,3.7793,-143.613,396
1570787621,337.096,-111.844,-8.81807,-179.67,3.7793,-143.613,396
1570787621,337.096,-111.844,-8.81807,-179.67,3.7793,-143.613,396
1570787621,337.096,-111.844,-8.81807,-179.67,3.7793,-143.613,396
1570787621,337.096,-111.844,-8.81807,-179.67,3.7793,-143.613,396
1570787621,337.096,-111.844,-8.81807,-179.67,3.7793,-143.613,396
1570787621,337.096,-111.844,-8.81807,-179.67,3.7793,-143.613,396
1570787621,337.096,-111.844,-8.81807,-179.67,3.7793,-143.613,396
1570787621,337.096,-111.844,-8.81807,-179.67,3.7793,-143.613,396
1570787621,337.096,-111.844,-8.81807,-179.67,3.7793,-143.613,396
1570787621,337.096,-111.844,-8.81807,-179.67,3.7793,-143.613,392
1570787621,337.207,-111.844,-8.81807,-179.67,3.7793,-143.613,392
1570787621,337.207,-111.844,-8.81807,-179.67,3.7793,-143.613,392
1570787621,337.207,-111.844,-8.81807,-179.67,3.7793,-143.613,392
1570787621,337.207,-111.844,-8.81807,-179.67,3.7793,-143.613,392
1570787621,337.207,-111.844,-8.81807,-179.648,3.7793,-143.613,388
1570787621,337.207,-111.844,-8.81807,-179.648,3.7793,-143.613,388
1570787621,337.207,-111.844,-8.81807,-179.648,3.7793,-143.613,388
1570787621,337.207,-111.844,-8.81807,-179.648,3.7793,-143.613,388
1570787621,337.207,-111.844,-8.81807,-179.648,3.7793,-143.613,388
1570787621,337.207,-111.844,-8.81807,-179.648,3.7793,-143.613,384
1570787621,337.207,-111.844,-8.81807,-179.648,3.7793,-143.613,384
1570787621,337.207,-111.844,-8.81807,-179.648,3.7793,-143.613,384
1570787621,337.207,-111.844,-8.81807,-179.648,3.7793,-143.613,384
1570787621,337.207,-111.844,-8.81807,-179.648,3.7793,-143.613,384
1570787621,337.207,-111.844,-8.81807,-179.648,3.7793,-143.613,384
1570787621,337.207,-111.844,-8.81807,-179.67,3.7793,-143.613,384
1570787621,337.207,-111.844,-8.81807,-179.67,3.7793,-143.613,384
1570787621,337.207,-111.844,-8.81807,-179.67,3.7793,-143.613,384
1570787621,337.207,-111.844,-8.81807,-179.67,3.7793,-143.613,384
1570787621,337.207,-111.844,-8.81807,-179.67,3.7793,-143.613,384
1570787621,337.207,-111.956,-8.81807,-179.67,3.7793,-143.613,384
1570787621,337.207,-111.956,-8.81807,-179.67,3.7793,-143.635,384
1570787621,337.207,-111.956,-8.81807,-179.67,3.7793,-143.635,384
1570787621,337.207,-111.956,-8.81807,-179.67,3.7793,-143.635,384
1570787621,337.207,-111.956,-8.81807,-179.67,3.7793,-143.635,384
1570787621,337.207,-111.956,-8.81807,-179.67,3.7793,-143.635,384
1570787621,337.207,-111.956,-8.81807,-179.67,3.7793,-143.635,384
1570787621,337.207,-111.956,-8.81807,-179.67,3.7793,-143.635,384
1570787621,337.207,-111.956,-8.81807,-179.67,3.7793,-143.635,384
1570787621,337.207,-111.956,-8.81807,-179.67,3.7793,-143.635,384
1570787621,337.207,-111.956,-8.81807,-179.67,3.80127,-143.635,384
1570787621,337.207,-111.956,-8.81807,-179.67,3.80127,-143.613,384
1570787621,337.207,-111.956,-8.81807,-179.67,3.80127,-143.613,384
1570787621,337.207,-111.956,-8.81807,-179.67,3.80127,-143.613,384
1570787621,337.207,-111.956,-8.81807,-179.67,3.80127,-143.613,380
1570787621,337.207,-111.956,-8.81807,-179.67,3.80127,-143.613,380
1570787621,337.207,-111.956,-8.81807,-179.67,3.80127,-143.613,380
1570787621,337.207,-111.956,-8.81807,-179.67,3.80127,-143.613,380
1570787621,337.207,-111.956,-8.81807,-179.67,3.80127,-143.613,380
1570787621,337.207,-111.956,-8.81807,-179.67,3.80127,-143.613,380
1570787621,337.207,-111.956,-8.81807,-179.67,3.80127,-143.613,380
1570787621,337.207,-111.956,-8.81807,-179.67,3.7793,-143.613,380
1570787621,337.207,-111.956,-8.81807,-179.67,3.7793,-143.613,380
1570787621,337.207,-111.956,-8.81807,-179.67,3.7793,-143.613,380
1570787621,337.207,-111.956,-8.81807,-179.67,3.7793,-143.613,380
1570787621,337.207,-111.956,-8.92969,-179.67,3.7793,-143.613,380
1570787621,337.207,-111.956,-8.92969,-179.67,3.7793,-143.613,380
1570787621,337.207,-111.956,-8.92969,-179.67,3.75732,-143.613,380
1570787621,337.207,-111.956,-8.92969,-179.67,3.75732,-143.613,376
1570787621,337.207,-111.956,-8.92969,-179.67,3.75732,-143.613,376
1570787621,337.207,-111.956,-8.92969,-179.692,3.75732,-143.613,376
1570787621,337.207,-111.956,-8.92969,-179.692,3.75732,-143.613,376
1570787621,337.207,-111.956,-8.92969,-179.692,3.75732,-143.613,376
1570787621,337.207,-111.956,-8.92969,-179.692,3.75732,-143.613,376
1570787621,337.207,-111.956,-8.92969,-179.692,3.75732,-143.613,376
1570787621,337.207,-111.956,-8.92969,-179.692,3.75732,-143.613,376
1570787621,337.207,-111.956,-8.92969,-179.692,3.75732,-143.613,376
1570787621,337.207,-111.956,-8.92969,-179.692,3.75732,-143.613,376
1570787621,337.207,-111.956,-8.92969,-179.692,3.75732,-143.613,380
1570787621,337.207,-111.956,-8.92969,-179.692,3.75732,-143.613,380
1570787621,337.207,-111.956,-8.92969,-179.692,3.75732,-143.635,380
1570787621,337.207,-111.956,-8.92969,-179.692,3.75732,-143.635,380
1570787621,337.207,-111.956,-8.92969,-179.692,3.75732,-143.635,380
1570787621,337.207,-111.956,-8.92969,-179.692,3.75732,-143.635,380
1570787621,337.207,-111.956,-8.92969,-179.692,3.75732,-143.635,380
1570787621,337.207,-111.956,-8.92969,-179.692,3.75732,-143.635,380
1570787621,337.207,-111.956,-8.92969,-179.692,3.75732,-143.635,380
1570787621,337.207,-111.956,-8.92969,-179.692,3.75732,-143.635,380
1570787621,337.207,-111.956,-8.92969,-179.692,3.75732,-143.635,380
1570787621,337.207,-111.956,-8.92969,-179.692,3.75732,-143.635,380
1570787621,337.207,-111.956,-8.92969,-179.692,3.75732,-143.635,380
1570787621,337.207,-111.956,-8.92969,-179.692,3.75732,-143.635,380
1570787621,337.207,-111.956,-8.92969,-179.692,3.75732,-143.635,380
1570787621,337.096,-111.956,-8.92969,-179.692,3.75732,-143.635,380
1570787621,337.096,-111.956,-8.92969,-179.692,3.75732,-143.635,380
1570787621,337.096,-111.956,-8.92969,-179.692,3.75732,-143.635,380
1570787621,337.096,-111.956,-8.92969,-179.692,3.75732,-143.635,380
1570787621,337.096,-111.956,-8.92969,-179.692,3.75732,-143.635,380
1570787621,337.096,-111.956,-8.92969,-179.692,3.75732,-143.635,380
1570787621,337.096,-111.956,-8.92969,-179.692,3.75732,-143.635,380
1570787621,337.096,-111.956,-8.92969,-179.692,3.75732,-143.635,380
1570787622,337.096,-111.956,-8.92969,-179.692,3.75732,-143.635,380
1570787622,337.096,-111.956,-8.92969,-179.692,3.75732,-143.635,380
1570787622,337.207,-111.956,-8.92969,-179.692,3.75732,-143.635,380
1570787622,337.207,-111.956,-8.92969,-179.692,3.75732,-143.613,380
1570787622,337.207,-111.956,-8.92969,-179.692,3.75732,-143.613,380
1570787622,337.207,-111.956,-8.92969,-179.692,3.75732,-143.613,380
1570787622,337.207,-111.956,-8.81807,-179.692,3.75732,-143.613,380
1570787622,337.207,-111.956,-8.81807,-179.692,3.7793,-143.613,376
1570787622,337.207,-111.956,-8.81807,-179.692,3.7793,-143.613,376
1570787622,337.207,-111.956,-8.81807,-179.692,3.7793,-143.613,376
1570787622,337.207,-111.956,-8.81807,-179.692,3.7793,-143.613,376
1570787622,337.207,-111.956,-8.81807,-179.692,3.7793,-143.613,376
1570787622,337.207,-111.956,-8.81807,-179.692,3.7793,-143.613,376
1570787622,337.207,-111.956,-8.81807,-179.67,3.7793,-143.613,376
1570787622,337.207,-111.956,-8.81807,-179.67,3.75732,-143.613,376
1570787622,337.207,-111.956,-8.81807,-179.67,3.75732,-143.613,376
1570787622,337.207,-111.956,-8.81807,-179.67,3.75732,-143.613,376
1570787622,337.207,-111.956,-8.81807,-179.67,3.75732,-143.613,376
1570787622,337.207,-111.956,-8.92969,-179.67,3.75732,-143.613,376
1570787622,337.207,-111.956,-8.92969,-179.67,3.75732,-143.613,376
1570787622,337.207,-111.956,-8.92969,-179.67,3.75732,-143.613,380
1570787622,337.207,-111.956,-8.92969,-179.67,3.75732,-143.613,380
1570787622,337.096,-111.956,-8.92969,-179.67,3.73535,-143.613,380
1570787622,337.096,-111.956,-8.92969,-179.67,3.73535,-143.613,380
1570787622,337.096,-111.956,-8.92969,-179.67,3.73535,-143.613,380
1570787622,337.096,-111.956,-8.92969,-179.67,3.73535,-143.613,384
1570787622,337.096,-111.956,-8.92969,-179.67,3.73535,-143.613,384
1570787622,337.096,-111.956,-8.92969,-179.67,3.73535,-143.613,384
1570787622,337.096,-111.956,-8.92969,-179.67,3.75732,-143.613,384
1570787622,337.096,-111.956,-8.92969,-179.67,3.75732,-143.613,384
1570787622,337.096,-111.956,-8.92969,-179.67,3.75732,-143.613,384
1570787622,337.096,-111.956,-8.92969,-179.67,3.75732,-143.613,384
1570787622,337.096,-111.956,-8.81807,-179.67,3.75732,-143.613,384
1570787622,337.096,-111.956,-8.81807,-179.67,3.75732,-143.613,384
1570787622,337.096,-111.956,-8.81807,-179.67,3.7793,-143.613,384
1570787622,337.096,-111.956,-8.81807,-179.67,3.7793,-143.613,384
1570787622,337.096,-111.956,-8.81807,-179.67,3.7793,-143.613,384
1570787622,337.207,-111.956,-8.81807,-179.67,3.7793,-143.613,384
1570787622,337.207,-111.956,-8.81807,-179.67,3.7793,-143.613,380
1570787622,337.207,-111.956,-8.81807,-179.67,3.7793,-143.613,380
1570787622,337.207,-111.956,-8.81807,-179.67,3.7793,-143.613,380
1570787622,337.207,-111.956,-8.81807,-179.67,3.7793,-143.613,380
1570787622,337.207,-111.956,-8.81807,-179.67,3.7793,-143.613,380
1570787622,337.207,-111.956,-8.81807,-179.67,3.7793,-143.613,380
1570787622,337.207,-111.844,-8.81807,-179.67,3.7793,-143.613,380
1570787622,337.207,-111.956,-8.92969,-179.67,3.7793,-143.613,376
1570787622,337.207,-111.956,-8.92969,-179.67,3.7793,-143.613,376
1570787622,337.207,-111.956,-8.92969,-179.67,3.7793,-143.613,376
1570787622,337.207,-111.956,-8.92969,-179.67,3.7793,-143.613,376
1570787622,337.207,-111.956,-8.92969,-179.67,3.7793,-143.613,376
1570787622,337.207,-111.956,-8.81807,-179.692,3.7793,-143.613,376
1570787622,337.207,-111.956,-8.81807,-179.692,3.7793,-143.613,376
1570787622,337.207,-111.956,-8.81807,-179.692,3.7793,-143.613,376
1570787622,337.096,-111.956,-8.81807,-179.692,3.7793,-143.613,376
1570787622,337.096,-111.956,-8.81807,-179.692,3.7793,-143.613,376
1570787622,337.096,-111.956,-8.81807,-179.692,3.7793,-143.613,372
1570787622,337.096,-111.956,-8.81807,-179.692,3.7793,-143.613,372
1570787622,337.207,-111.956,-8.81807,-179.692,3.7793,-143.613,372
1570787622,337.207,-111.956,-8.81807,-179.692,3.7793,-143.613,372
1570787622,337.207,-111.956,-8.81807,-179.692,3.7793,-143.613,372
1570787622,337.207,-111.956,-8.81807,-179.692,3.7793,-143.613,372
1570787622,337.207,-111.956,-8.81807,-179.692,3.7793,-143.613,372
1570787622,337.207,-111.956,-8.81807,-179.692,3.7793,-143.613,372
1570787622,337.207,-111.956,-8.81807,-179.692,3.7793,-143.613,372
1570787622,337.207,-111.956,-8.81807,-179.692,3.7793,-143.613,372
1570787622,337.207,-111.956,-8.81807,-179.692,3.7793,-143.613,372
1570787622,337.207,-111.956,-8.81807,-179.692,3.7793,-143.635,372
1570787622,337.207,-111.956,-8.92969,-179.692,3.7793,-143.635,372
1570787622,337.207,-111.956,-8.92969,-179.692,3.7793,-143.635,372
1570787622,337.207,-111.956,-8.92969,-179.692,3.7793,-143.635,372
1570787622,337.207,-111.956,-8.92969,-179.692,3.7793,-143.635,372
1570787622,337.207,-111.956,-8.92969,-179.692,3.7793,-143.635,372
1570787622,337.207,-111.956,-8.92969,-179.692,3.7793,-143.635,372
1570787622,337.207,-111.956,-8.92969,-179.692,3.7793,-143.635,372
1570787622,337.207,-111.956,-8.92969,-179.692,3.7793,-143.635,372
1570787622,337.207,-111.956,-8.92969,-179.692,3.7793,-143.635,372
1570787622,337.207,-111.956,-8.81807,-179.692,3.7793,-143.613,368
1570787622,337.207,-111.956,-8.81807,-179.692,3.7793,-143.613,368
1570787622,337.207,-111.956,-8.81807,-179.692,3.7793,-143.613,368
1570787622,337.207,-111.956,-8.81807,-179.692,3.7793,-143.613,368
1570787622,337.207,-111.956,-8.81807,-179.692,3.7793,-143.613,368
1570787622,337.207,-111.956,-8.81807,-179.692,3.7793,-143.613,368
1570787622,337.207,-111.956,-8.81807,-179.692,3.7793,-143.613,368
1570787622,337.207,-111.956,-8.81807,-179.67,3.7793,-143.613,368
1570787622,337.207,-111.956,-8.92969,-179.67,3.7793,-143.613,372
1570787622,337.207,-111.956,-8.92969,-179.67,3.7793,-143.613,372
1570787622,337.207,-111.956,-8.92969,-179.67,3.7793,-143.613,372
1570787622,337.207,-111.956,-8.92969,-179.67,3.75732,-143.613,372
1570787622,337.207,-111.844,-8.92969,-179.67,3.75732,-143.613,372
1570787622,337.207,-111.844,-8.92969,-179.67,3.75732,-143.613,372
1570787622,337.207,-111.844,-8.92969,-179.67,3.75732,-143.613,372
1570787622,337.207,-111.844,-8.92969,-179.67,3.75732,-143.613,372
1570787622,337.207,-111.844,-8.92969,-179.67,3.75732,-143.613,372
1570787622,337.207,-111.844,-8.92969,-179.67,3.75732,-143.613,372
1570787622,337.207,-111.844,-8.81807,-179.67,3.7793,-143.613,372
1570787622,337.207,-111.844,-8.81807,-179.67,3.7793,-143.613,368
1570787622,337.207,-111.844,-8.81807,-179.67,3.7793,-143.613,368
1570787622,337.207,-111.844,-8.81807,-179.67,3.7793,-143.613,368
1570787622,337.207,-111.844,-8.81807,-179.648,3.7793,-143.613,368
1570787622,337.207,-111.844,-8.81807,-179.648,3.7793,-143.613,368
1570787623,337.207,-111.844,-8.81807,-179.648,3.7793,-143.613,368
1570787623,337.207,-111.844,-8.81807,-179.648,3.7793,-143.613,368
1570787623,337.207,-111.844,-8.81807,-179.648,3.7793,-143.613,368
1570787623,337.207,-111.844,-8.81807,-179.648,3.7793,-143.613,368
1570787623,337.207,-111.844,-8.81807,-179.648,3.75732,-143.613,368
1570787623,337.207,-111.844,-8.81807,-179.648,3.75732,-143.613,368
1570787623,337.207,-111.844,-8.81807,-179.648,3.75732,-143.613,368
1570787623,337.207,-111.844,-8.81807,-179.648,3.75732,-143.613,368
1570787623,337.207,-111.844,-8.81807,-179.648,3.75732,-143.613,368
1570787623,337.207,-111.844,-8.81807,-179.648,3.75732,-143.613,368
1570787623,337.207,-111.844,-8.81807,-179.648,3.75732,-143.613,364
1570787623,337.207,-111.844,-8.81807,-179.648,3.75732,-143.613,368
1570787623,337.207,-111.844,-8.81807,-179.67,3.7793,-143.613,368
1570787623,337.207,-111.844,-8.81807,-179.67,3.7793,-143.613,368
1570787623,337.207,-111.844,-8.81807,-179.67,3.7793,-143.613,368
1570787623,337.207,-111.844,-8.81807,-179.67,3.7793,-143.613,368
1570787623,337.207,-111.844,-8.81807,-179.67,3.7793,-143.613,368
1570787623,337.207,-111.844,-8.81807,-179.67,3.7793,-143.613,368
1570787623,337.207,-111.844,-8.81807,-179.67,3.7793,-143.613,372
1570787623,337.207,-111.844,-8.81807,-179.67,3.7793,-143.613,372
1570787623,337.207,-111.956,-8.81807,-179.67,3.7793,-143.613,372
1570787623,337.207,-111.956,-8.81807,-179.67,3.7793,-143.613,372
1570787623,337.207,-111.956,-8.81807,-179.67,3.7793,-143.613,376
1570787623,337.207,-111.956,-8.81807,-179.67,3.7793,-143.613,376
1570787623,337.207,-111.956,-8.81807,-179.67,3.7793,-143.613,376
1570787623,337.207,-111.956,-8.81807,-179.67,3.7793,-143.613,376
1570787623,337.207,-111.956,-8.81807,-179.67,3.7793,-143.613,376
1570787623,337.207,-111.956,-8.81807,-179.67,3.7793,-143.613,380
1570787623,337.207,-111.844,-8.81807,-179.67,3.7793,-143.613,380
1570787623,337.207,-111.844,-8.81807,-179.67,3.7793,-143.613,380
1570787623,337.096,-111.956,-8.81807,-179.67,3.7793,-143.613,380
1570787623,337.096,-111.956,-8.81807,-179.67,3.7793,-143.613,380
1570787623,337.096,-111.956,-8.81807,-179.67,3.7793,-143.613,380
1570787623,337.096,-111.956,-8.81807,-179.67,3.7793,-143.613,380
1570787623,337.096,-111.956,-8.81807,-179.67,3.7793,-143.613,380
1570787623,337.096,-111.956,-8.81807,-179.67,3.7793,-143.613,380
1570787623,337.096,-111.956,-8.81807,-179.67,3.7793,-143.613,380
1570787623,337.096,-111.956,-8.81807,-179.67,3.7793,-143.613,380
1570787623,337.096,-111.956,-8.81807,-179.67,3.7793,-143.613,380
1570787623,337.096,-111.956,-8.81807,-179.67,3.7793,-143.613,380
1570787623,337.096,-111.956,-8.81807,-179.67,3.7793,-143.613,380
1570787623,337.096,-111.844,-8.81807,-179.67,3.7793,-143.613,380
1570787623,337.096,-111.844,-8.81807,-179.67,3.7793,-143.613,380
1570787623,337.096,-111.844,-8.81807,-179.67,3.7793,-143.613,380
1570787623,337.096,-111.844,-8.81807,-179.67,3.7793,-143.613,380
1570787623,337.096,-111.956,-8.81807,-179.67,3.7793,-143.613,380
1570787623,337.096,-111.956,-8.81807,-179.67,3.7793,-143.613,380
1570787623,337.096,-111.956,-8.81807,-179.67,3.7793,-143.613,384
1570787623,337.096,-111.956,-8.81807,-179.692,3.7793,-143.613,384
1570787623,337.096,-111.956,-8.81807,-179.692,3.7793,-143.613,384
1570787623,337.096,-111.956,-8.81807,-179.692,3.7793,-143.613,384
1570787623,337.096,-111.956,-8.81807,-179.692,3.7793,-143.613,384
1570787623,337.096,-111.956,-8.81807,-179.692,3.7793,-143.613,384
1570787623,337.096,-111.956,-8.81807,-179.692,3.7793,-143.613,384
1570787623,337.096,-111.956,-8.81807,-179.692,3.7793,-143.613,384
1570787623,337.096,-111.956,-8.81807,-179.692,3.7793,-143.613,384
1570787623,337.096,-111.956,-8.81807,-179.692,3.7793,-143.613,384
1570787623,337.096,-111.956,-8.81807,-179.692,3.7793,-143.613,384
1570787623,337.096,-111.956,-8.81807,-179.692,3.7793,-143.613,388
1570787623,337.096,-111.956,-8.81807,-179.692,3.7793,-143.613,388
1570787623,337.096,-111.956,-8.81807,-179.692,3.7793,-143.613,388
1570787623,337.096,-111.956,-8.81807,-179.692,3.7793,-143.613,388
1570787623,337.096,-111.956,-8.81807,-179.692,3.7793,-143.635,388
1570787623,337.096,-111.956,-8.81807,-179.692,3.7793,-143.635,392
1570787623,337.096,-111.956,-8.81807,-179.692,3.7793,-143.635,392
1570787623,337.096,-111.956,-8.81807,-179.692,3.7793,-143.635,392
1570787623,337.096,-111.956,-8.81807,-179.692,3.7793,-143.635,392
1570787623,337.096,-111.956,-8.81807,-179.692,3.7793,-143.635,392
1570787623,337.096,-111.956,-8.81807,-179.692,3.7793,-143.635,392
1570787623,337.096,-111.956,-8.81807,-179.692,3.7793,-143.613,392
1570787623,337.096,-111.956,-8.81807,-179.692,3.7793,-143.613,392
1570787623,337.096,-111.956,-8.81807,-179.692,3.7793,-143.613,392
1570787623,337.096,-111.956,-8.81807,-179.692,3.7793,-143.613,392
1570787623,337.096,-111.956,-8.81807,-179.692,3.7793,-143.613,392
1570787623,337.096,-111.956,-8.81807,-179.692,3.7793,-143.613,388
1570787623,337.096,-111.956,-8.81807,-179.692,3.7793,-143.613,388
1570787623,337.096,-111.956,-8.81807,-179.692,3.7793,-143.613,388
1570787623,337.096,-111.956,-8.81807,-179.692,3.7793,-143.613,388
1570787623,337.096,-111.956,-8.81807,-179.692,3.7793,-143.613,384
1570787623,337.096,-111.956,-8.81807,-179.692,3.7793,-143.613,384
1570787623,337.207,-111.956,-8.81807,-179.692,3.7793,-143.613,384
1570787623,337.207,-111.956,-8.81807,-179.692,3.7793,-143.613,384
1570787623,337.207,-111.956,-8.81807,-179.692,3.7793,-143.613,384
1570787623,337.207,-111.956,-8.81807,-179.67,3.7793,-143.613,380
1570787623,337.207,-111.956,-8.81807,-179.67,3.7793,-143.613,380
1570787623,337.207,-111.956,-8.81807,-179.67,3.7793,-143.613,380
1570787623,337.207,-111.956,-8.81807,-179.67,3.7793,-143.613,380
1570787623,337.207,-111.956,-8.81807,-179.67,3.7793,-143.613,380
1570787623,337.207,-111.956,-8.81807,-179.67,3.7793,-143.613,380
1570787623,337.207,-111.956,-8.81807,-179.67,3.7793,-143.613,380
1570787623,337.207,-111.956,-8.81807,-179.67,3.7793,-143.613,380
1570787623,337.207,-111.956,-8.81807,-179.67,3.7793,-143.613,380
1570787623,337.207,-111.956,-8.81807,-179.67,3.7793,-143.613,380
1570787623,337.207,-111.956,-8.81807,-179.67,3.7793,-143.613,380
1570787623,337.207,-111.956,-8.81807,-179.67,3.7793,-143.613,380
1570787623,337.207,-111.956,-8.81807,-179.67,3.7793,-143.613,380
1570787623,337.207,-111.956,-8.81807,-179.67,3.7793,-143.613,380
1570787623,337.207,-111.956,-8.81807,-179.67,3.7793,-143.613,380
1570787623,337.207,-111.956,-8.81807,-179.67,3.7793,-143.613,380
1570787623,337.207,-111.956,-8.81807,-179.67,3.7793,-143.613,384
1570787624,337.207,-111.956,-8.81807,-179.67,3.7793,-143.613,384
1570787624,337.207,-111.956,-8.81807,-179.67,3.7793,-143.613,384
1570787624,337.207,-111.956,-8.81807,-179.67,3.7793,-143.613,384
1570787624,337.207,-111.956,-8.81807,-179.67,3.7793,-143.613,384
1570787624,337.207,-111.956,-8.81807,-179.67,3.7793,-143.613,380
1570787624,337.207,-111.956,-8.81807,-179.67,3.7793,-143.613,380
1570787624,337.207,-111.956,-8.81807,-179.67,3.7793,-143.613,380
1570787624,337.207,-111.956,-8.81807,-179.67,3.7793,-143.613,380
1570787624,337.207,-111.956,-8.81807,-179.67,3.7793,-143.613,380
1570787624,337.207,-111.956,-8.81807,-179.67,3.7793,-143.613,380
1570787624,337.207,-111.844,-8.81807,-179.67,3.7793,-143.613,380
1570787624,337.207,-111.844,-8.81807,-179.67,3.7793,-143.613,380
1570787624,337.207,-111.844,-8.81807,-179.67,3.7793,-143.613,380
1570787629,361.094,-135.396,-7.25537,-179.407,3.99902,-143.547,348
1570787629,361.094,-135.396,-7.25537,-179.407,3.99902,-143.547,348
1570787629,361.094,-135.396,-7.25537,-179.407,3.99902,-143.547,348
1570787629,361.094,-135.396,-7.25537,-179.407,3.99902,-143.547,344
1570787629,361.094,-135.396,-7.25537,-179.407,3.99902,-143.547,344
1570787629,361.094,-135.396,-7.25537,-179.407,3.99902,-143.547,344
1570787629,361.094,-135.396,-7.25537,-179.407,3.99902,-143.547,344
1570787629,361.094,-135.396,-7.25537,-179.407,3.99902,-143.547,344
1570787629,361.094,-135.508,-7.25537,-179.407,3.99902,-143.547,340
1570787629,361.094,-135.396,-7.25537,-179.407,3.99902,-143.569,340
1570787629,361.094,-135.396,-7.25537,-179.407,3.99902,-143.569,340
1570787629,361.094,-135.396,-7.36699,-179.407,3.99902,-143.569,340
1570787629,361.094,-135.396,-7.36699,-179.407,3.99902,-143.569,340
1570787629,361.094,-135.396,-7.36699,-179.407,3.99902,-143.569,340
1570787630,361.094,-135.396,-7.36699,-179.407,3.99902,-143.569,340
1570787630,361.094,-135.396,-7.36699,-179.407,3.99902,-143.569,344
1570787630,361.094,-135.396,-7.36699,-179.407,3.99902,-143.569,344
1570787630,361.094,-135.396,-7.36699,-179.407,3.99902,-143.569,344
1570787630,361.094,-135.396,-7.36699,-179.407,3.99902,-143.569,344
1570787630,361.094,-135.396,-7.36699,-179.407,3.97705,-143.569,344
1570787630,361.094,-135.396,-7.36699,-179.407,3.97705,-143.569,344
1570787630,360.983,-135.396,-7.36699,-179.407,3.97705,-143.569,344
1570787630,360.983,-135.396,-7.36699,-179.407,3.97705,-143.569,344
1570787630,360.983,-135.508,-7.36699,-179.407,3.97705,-143.569,344
1570787630,360.983,-135.508,-7.36699,-179.407,3.97705,-143.569,344
1570787630,360.983,-135.508,-7.36699,-179.407,3.97705,-143.569,344
1570787630,360.983,-135.508,-7.36699,-179.429,3.97705,-143.569,344
1570787630,360.983,-135.508,-7.36699,-179.429,3.97705,-143.569,344
1570787630,360.983,-135.508,-7.36699,-179.429,3.97705,-143.547,344
1570787630,360.983,-135.508,-7.36699,-179.429,3.97705,-143.547,344
1570787630,360.983,-135.508,-7.36699,-179.429,3.97705,-143.547,344
1570787630,360.983,-135.508,-7.36699,-179.429,3.99902,-143.547,344
1570787630,360.983,-135.508,-7.36699,-179.429,3.99902,-143.547,344
1570787630,360.983,-135.508,-7.36699,-179.429,3.99902,-143.547,344
1570787630,360.983,-135.508,-7.36699,-179.429,3.99902,-143.547,344
1570787630,360.983,-135.508,-7.36699,-179.429,3.99902,-143.547,344
1570787630,360.983,-135.508,-7.36699,-179.429,3.99902,-143.547,344
1570787630,360.983,-135.508,-7.36699,-179.429,3.99902,-143.547,348
1570787630,360.983,-135.508,-7.25537,-179.429,3.99902,-143.547,348
1570787630,360.983,-135.508,-7.25537,-179.429,3.99902,-143.547,348
1570787630,360.983,-135.508,-7.25537,-179.429,3.99902,-143.547,348
1570787630,360.983,-135.508,-7.25537,-179.429,3.99902,-143.547,348
1570787630,360.983,-135.508,-7.25537,-179.451,3.99902,-143.547,348
1570787630,360.983,-135.62,-7.25537,-179.451,3.99902,-143.547,348
1570787630,360.983,-135.62,-7.25537,-179.451,3.99902,-143.547,344
1570787630,360.983,-135.62,-7.25537,-179.451,4.021,-143.547,344
1570787630,360.983,-135.62,-7.25537,-179.451,4.021,-143.547,344
1570787630,360.983,-135.62,-7.25537,-179.451,4.021,-143.547,344
1570787630,361.094,-135.62,-7.14375,-179.451,4.021,-143.547,340
1570787630,361.094,-135.62,-7.14375,-179.451,4.021,-143.547,340
1570787630,361.094,-135.62,-7.14375,-179.429,4.021,-143.547,340
1570787630,361.094,-135.62,-7.25537,-179.429,4.021,-143.547,336
1570787630,361.094,-135.62,-7.25537,-179.429,4.021,-143.547,336
1570787630,361.094,-135.508,-7.25537,-179.429,3.99902,-143.547,336
1570787630,361.094,-135.508,-7.25537,-179.429,3.99902,-143.547,332
1570787630,361.094,-135.508,-7.25537,-179.429,3.99902,-143.547,332
1570787630,361.094,-135.508,-7.25537,-179.429,3.99902,-143.547,332
1570787630,361.094,-135.508,-7.25537,-179.429,3.99902,-143.547,328
1570787630,361.094,-135.508,-7.25537,-179.429,3.99902,-143.547,328
1570787630,361.094,-135.508,-7.25537,-179.429,3.99902,-143.547,324
1570787630,361.094,-135.508,-7.25537,-179.429,3.99902,-143.547,324
1570787630,361.094,-135.508,-7.25537,-179.429,3.99902,-143.547,320
1570787630,361.094,-135.508,-7.25537,-179.429,3.99902,-143.547,320
1570787630,361.094,-135.508,-7.25537,-179.429,3.99902,-143.547,320
1570787630,361.094,-135.508,-7.25537,-179.451,3.99902,-143.547,316
1570787630,361.094,-135.62,-7.25537,-179.451,3.99902,-143.547,316
1570787630,361.094,-135.62,-7.25537,-179.451,3.99902,-143.547,316
1570787630,361.094,-135.508,-7.25537,-179.451,4.021,-143.547,312
1570787630,361.094,-135.508,-7.25537,-179.451,4.021,-143.547,312
1570787630,361.094,-135.508,-7.25537,-179.451,4.021,-143.547,312
1570787630,361.094,-135.508,-7.25537,-179.451,4.021,-143.547,312
1570787630,361.094,-135.508,-7.25537,-179.451,4.021,-143.547,312
1570787630,361.094,-135.508,-7.25537,-179.429,4.021,-143.547,316
1570787630,361.094,-135.508,-7.25537,-179.429,4.021,-143.547,316
1570787630,361.094,-135.508,-7.25537,-179.429,4.021,-143.547,316
1570787630,361.094,-135.508,-7.25537,-179.429,4.021,-143.547,316
1570787630,361.094,-135.508,-7.25537,-179.429,4.021,-143.547,320
1570787630,361.094,-135.508,-7.25537,-179.429,4.021,-143.547,320
1570787630,361.094,-135.508,-7.25537,-179.429,4.021,-143.547,324
1570787630,360.983,-135.508,-7.25537,-179.429,4.021,-143.547,324
1570787630,360.983,-135.508,-7.25537,-179.429,4.021,-143.547,324
1570787630,360.983,-135.508,-7.25537,-179.429,4.021,-143.547,328
1570787630,360.983,-135.508,-7.25537,-179.429,4.021,-143.547,328
1570787630,360.983,-135.508,-7.25537,-179.429,4.021,-143.547,328
1570787630,360.983,-135.508,-7.25537,-179.429,4.021,-143.547,332
1570787630,360.983,-135.508,-7.25537,-179.429,4.021,-143.547,332
1570787630,361.094,-135.508,-7.25537,-179.429,4.021,-143.547,332
1570787630,361.094,-135.508,-7.25537,-179.429,4.021,-143.547,332
1570787630,361.094,-135.508,-7.25537,-179.429,4.021,-143.547,332
1570787630,361.094,-135.508,-7.25537,-179.429,4.021,-143.547,332
1570787630,361.094,-135.508,-7.25537,-179.429,4.021,-143.547,336
1570787630,361.094,-135.508,-7.25537,-179.429,4.021,-143.547,336
1570787630,361.094,-135.508,-7.25537,-179.429,4.021,-143.547,336
1570787630,361.094,-135.508,-7.25537,-179.407,4.021,-143.547,336
1570787630,361.094,-135.508,-7.25537,-179.407,4.021,-143.547,336
1570787630,361.094,-135.508,-7.25537,-179.429,4.021,-143.547,336
1570787630,361.094,-135.508,-7.25537,-179.429,4.021,-143.547,336
1570787630,361.094,-135.508,-7.25537,-179.429,4.021,-143.547,336
1570787630,361.094,-135.508,-7.25537,-179.429,3.99902,-143.547,336
1570787630,361.094,-135.508,-7.25537,-179.429,3.99902,-143.547,336
1570787630,361.094,-135.508,-7.25537,-179.429,3.99902,-143.547,336
1570787630,361.094,-135.508,-7.25537,-179.429,3.99902,-143.547,336
1570787630,361.094,-135.62,-7.25537,-179.429,3.99902,-143.547,336
1570787630,361.094,-135.62,-7.25537,-179.429,3.99902,-143.547,336
1570787630,361.094,-135.62,-7.25537,-179.429,3.99902,-143.547,336
1570787630,361.094,-135.62,-7.25537,-179.429,3.99902,-143.547,336
1570787630,361.094,-135.62,-7.25537,-179.429,3.99902,-143.547,336
1570787630,361.094,-135.62,-7.25537,-179.429,3.99902,-143.547,336
1570787630,361.094,-135.62,-7.25537,-179.429,3.99902,-143.547,336
1570787630,361.094,-135.62,-7.25537,-179.429,3.99902,-143.547,336
1570787630,361.094,-135.62,-7.25537,-179.429,3.99902,-143.547,340
1570787630,361.094,-135.62,-7.25537,-179.451,3.99902,-143.547,340
1570787630,361.094,-135.62,-7.25537,-179.451,3.99902,-143.547,340
1570787630,361.094,-135.62,-7.25537,-179.451,3.99902,-143.547,340
1570787631,361.094,-135.62,-7.25537,-179.451,3.99902,-143.547,340
1570787631,361.094,-135.62,-7.36699,-179.451,3.99902,-143.547,340
1570787631,361.094,-135.62,-7.36699,-179.451,3.97705,-143.547,340
1570787631,361.094,-135.62,-7.36699,-179.451,3.97705,-143.547,340
1570787631,361.094,-135.62,-7.36699,-179.451,3.97705,-143.547,344
1570787631,361.094,-135.62,-7.36699,-179.451,3.97705,-143.547,344
1570787631,361.094,-135.62,-7.36699,-179.451,3.97705,-143.547,344
1570787631,361.094,-135.62,-7.36699,-179.451,3.97705,-143.547,344
1570787631,361.094,-135.62,-7.36699,-179.451,3.97705,-143.547,344
1570787631,360.983,-135.62,-7.36699,-179.451,3.97705,-143.547,344
1570787631,360.983,-135.62,-7.36699,-179.429,3.97705,-143.547,344
1570787631,360.983,-135.62,-7.36699,-179.429,3.95508,-143.547,344
1570787631,360.983,-135.508,-7.36699,-179.429,3.95508,-143.547,348
1570787631,360.983,-135.508,-7.47861,-179.429,3.95508,-143.547,348
1570787631,360.983,-135.508,-7.47861,-179.429,3.95508,-143.547,348
1570787631,360.983,-135.508,-7.47861,-179.429,3.95508,-143.547,348
1570787631,360.983,-135.508,-7.47861,-179.429,3.95508,-143.547,348
1570787631,360.983,-135.508,-7.47861,-179.429,3.95508,-143.569,348
1570787631,360.983,-135.508,-7.47861,-179.429,3.93311,-143.569,348
1570787631,360.983,-135.508,-7.47861,-179.429,3.93311,-143.569,348
1570787631,360.983,-135.508,-7.47861,-179.429,3.93311,-143.569,348
1570787631,360.983,-135.508,-7.47861,-179.429,3.93311,-143.569,348
1570787631,360.983,-135.508,-7.47861,-179.429,3.93311,-143.569,348
1570787631,360.983,-135.508,-7.47861,-179.429,3.93311,-143.569,348
1570787631,360.983,-135.508,-7.47861,-179.429,3.93311,-143.569,348
1570787631,360.983,-135.508,-7.47861,-179.429,3.93311,-143.569,348
1570787631,360.983,-135.508,-7.47861,-179.429,3.93311,-143.569,348
1570787631,360.983,-135.508,-7.47861,-179.429,3.93311,-143.569,348
1570787631,360.983,-135.508,-7.47861,-179.429,3.95508,-143.569,348
1570787631,360.983,-135.508,-7.47861,-179.429,3.95508,-143.569,348
1570787631,360.983,-135.508,-7.47861,-179.429,3.95508,-143.569,348
1570787631,360.983,-135.508,-7.47861,-179.429,3.95508,-143.569,348
1570787631,360.983,-135.508,-7.47861,-179.429,3.95508,-143.569,348
1570787631,360.983,-135.508,-7.47861,-179.429,3.95508,-143.569,348
1570787631,360.983,-135.508,-7.36699,-179.429,3.95508,-143.547,348
1570787631,360.983,-135.508,-7.36699,-179.429,3.95508,-143.547,344
1570787631,360.983,-135.508,-7.36699,-179.429,3.95508,-143.547,344
1570787631,360.983,-135.508,-7.36699,-179.429,3.95508,-143.547,344
1570787631,360.983,-135.508,-7.36699,-179.429,3.95508,-143.547,344
1570787631,360.983,-135.508,-7.36699,-179.429,3.97705,-143.547,344
1570787631,360.983,-135.508,-7.36699,-179.429,3.97705,-143.547,344
1570787631,360.983,-135.508,-7.36699,-179.429,3.97705,-143.569,344
1570787631,360.983,-135.508,-7.36699,-179.429,3.95508,-143.569,344
1570787631,360.983,-135.508,-7.36699,-179.429,3.95508,-143.569,344
1570787631,360.983,-135.508,-7.36699,-179.429,3.95508,-143.569,340
1570787631,360.983,-135.508,-7.36699,-179.429,3.95508,-143.569,340
1570787631,360.983,-135.508,-7.36699,-179.429,3.95508,-143.569,340
1570787631,360.983,-135.508,-7.36699,-179.429,3.95508,-143.569,340
1570787631,360.983,-135.508,-7.36699,-179.451,3.95508,-143.569,340
1570787631,360.983,-135.508,-7.36699,-179.451,3.95508,-143.569,340
1570787631,360.983,-135.508,-7.36699,-179.451,3.97705,-143.569,340
1570787631,360.983,-135.508,-7.36699,-179.451,3.97705,-143.569,340
1570787631,360.983,-135.508,-7.36699,-179.451,3.97705,-143.569,340
1570787631,360.983,-135.508,-7.36699,-179.451,3.97705,-143.569,340
1570787631,360.983,-135.508,-7.36699,-179.451,3.95508,-143.569,340
1570787631,361.094,-135.508,-7.36699,-179.451,3.95508,-143.569,340
1570787631,361.094,-135.508,-7.36699,-179.451,3.95508,-143.569,336
1570787631,361.094,-135.508,-7.36699,-179.451,3.95508,-143.569,336
1570787631,361.094,-135.508,-7.36699,-179.451,3.95508,-143.569,336
1570787631,361.094,-135.508,-7.36699,-179.429,3.95508,-143.569,336
1570787631,361.094,-135.508,-7.36699,-179.429,3.95508,-143.569,336
1570787631,361.094,-135.508,-7.36699,-179.429,3.95508,-143.569,340
1570787631,361.094,-135.508,-7.36699,-179.429,3.95508,-143.547,340
1570787631,361.094,-135.508,-7.36699,-179.429,3.95508,-143.547,340
1570787631,361.094,-135.508,-7.36699,-179.429,3.95508,-143.547,340
1570787631,361.094,-135.508,-7.36699,-179.429,3.97705,-143.547,340
1570787631,361.094,-135.508,-7.36699,-179.429,3.97705,-143.547,340
1570787631,361.094,-135.508,-7.36699,-179.429,3.97705,-143.569,340
1570787631,361.094,-135.508,-7.36699,-179.429,3.97705,-143.569,340
1570787631,361.094,-135.508,-7.36699,-179.429,3.97705,-143.569,340
1570787631,361.094,-135.508,-7.36699,-179.429,3.97705,-143.569,340
1570787631,361.094,-135.508,-7.36699,-179.429,3.99902,-143.569,340
1570787631,361.094,-135.508,-7.36699,-179.429,3.99902,-143.569,340
1570787631,361.094,-135.508,-7.36699,-179.429,3.99902,-143.569,340
1570787631,361.094,-135.508,-7.36699,-179.429,3.99902,-143.569,340
1570787631,361.094,-135.508,-7.36699,-179.429,3.99902,-143.569,340
1570787631,361.094,-135.508,-7.36699,-179.429,3.99902,-143.569,340
1570787631,361.094,-135.508,-7.36699,-179.429,3.99902,-143.569,340
1570787631,361.094,-135.508,-7.36699,-179.429,3.99902,-143.569,340
1570787631,361.094,-135.508,-7.36699,-179.429,3.99902,-143.569,340
1570787631,361.094,-135.508,-7.36699,-179.429,3.99902,-143.569,340
1570787631,360.983,-135.508,-7.36699,-179.429,3.99902,-143.569,340
1570787631,360.983,-135.508,-7.36699,-179.429,3.99902,-143.569,340
1570787631,360.983,-135.508,-7.36699,-179.429,3.99902,-143.569,340
1570787631,360.983,-135.508,-7.36699,-179.429,3.99902,-143.569,340
1570787631,360.983,-135.508,-7.25537,-179.429,3.99902,-143.569,344
1570787631,360.983,-135.508,-7.25537,-179.429,3.99902,-143.569,344
1570787631,360.983,-135.508,-7.25537,-179.429,4.021,-143.569,344
1570787631,360.983,-135.508,-7.25537,-179.429,4.021,-143.569,344
1570787631,360.983,-135.508,-7.25537,-179.429,4.021,-143.569,344
1570787631,360.983,-135.508,-7.25537,-179.429,4.021,-143.569,344
1570787631,360.983,-135.508,-7.25537,-179.429,4.021,-143.569,344
1570787631,360.983,-135.508,-7.25537,-179.429,4.021,-143.569,344
1570787631,360.983,-135.508,-7.25537,-179.429,4.021,-143.569,344
1570787631,360.983,-135.508,-7.25537,-179.429,3.99902,-143.569,344
1570787631,360.983,-135.508,-7.25537,-179.429,3.99902,-143.569,344
1570787631,360.983,-135.508,-7.25537,-179.429,3.99902,-143.569,344
1570787631,360.983,-135.508,-7.25537,-179.429,3.99902,-143.569,344
1570787631,360.983,-135.508,-7.25537,-179.429,3.99902,-143.569,344
1570787631,360.983,-135.508,-7.25537,-179.429,3.99902,-143.569,344
1570787632,360.983,-135.508,-7.25537,-179.429,3.99902,-143.569,344
1570787632,360.983,-135.508,-7.25537,-179.429,3.99902,-143.569,344
1570787632,360.983,-135.508,-7.36699,-179.429,3.99902,-143.569,348
1570787632,360.983,-135.508,-7.36699,-179.429,3.99902,-143.569,348
1570787632,360.983,-135.508,-7.25537,-179.429,3.99902,-143.569,348
1570787632,360.983,-135.508,-7.25537,-179.429,3.99902,-143.569,348
1570787632,360.983,-135.508,-7.25537,-179.429,3.99902,-143.569,348
1570787632,360.983,-135.508,-7.36699,-179.429,3.99902,-143.569,348
1570787632,360.983,-135.508,-7.36699,-179.407,3.99902,-143.569,348
1570787632,360.983,-135.396,-7.36699,-179.407,3.99902,-143.569,348
1570787632,360.983,-135.396,-7.36699,-179.407,3.97705,-143.569,348
1570787632,360.983,-135.396,-7.36699,-179.407,3.97705,-143.569,348
1570787632,360.983,-135.396,-7.36699,-179.407,3.97705,-143.547,348
1570787632,360.983,-135.396,-7.36699,-179.407,3.97705,-143.547,348
1570787632,360.983,-135.396,-7.36699,-179.407,3.97705,-143.547,348
1570787632,360.983,-135.396,-7.36699,-179.407,3.97705,-143.547,348
1570787632,360.983,-135.508,-7.36699,-179.407,3.97705,-143.547,348
1570787632,360.983,-135.508,-7.36699,-179.407,3.97705,-143.547,348
1570787632,360.983,-135.508,-7.36699,-179.407,3.97705,-143.547,348
1570787632,360.983,-135.508,-7.36699,-179.407,3.97705,-143.547,348
1570787632,360.983,-135.508,-7.36699,-179.407,3.97705,-143.547,348
1570787632,360.983,-135.508,-7.36699,-179.407,3.97705,-143.547,348
1570787632,360.983,-135.508,-7.36699,-179.407,3.97705,-143.547,348
1570787632,360.983,-135.508,-7.36699,-179.407,3.97705,-143.547,348
1570787632,360.983,-135.508,-7.36699,-179.407,3.97705,-143.547,348
1570787632,360.983,-135.508,-7.36699,-179.407,3.97705,-143.547,348
1570787632,360.983,-135.508,-7.36699,-179.407,3.97705,-143.547,348
1570787632,360.983,-135.508,-7.36699,-179.407,3.99902,-143.547,348
1570787632,360.983,-135.508,-7.36699,-179.407,3.99902,-143.547,348
1570787632,360.983,-135.508,-7.36699,-179.407,3.99902,-143.547,348
1570787632,360.983,-135.508,-7.25537,-179.407,3.99902,-143.547,348
1570787632,360.983,-135.508,-7.25537,-179.407,3.99902,-143.547,348
1570787632,361.094,-135.508,-7.25537,-179.407,3.99902,-143.547,348
1570787632,360.983,-135.508,-7.25537,-179.407,3.99902,-143.547,348
1570787632,360.983,-135.508,-7.25537,-179.407,3.99902,-143.547,348
1570787632,360.983,-135.508,-7.25537,-179.407,3.99902,-143.547,348
1570787632,360.983,-135.396,-7.25537,-179.407,3.99902,-143.547,348
1570787632,360.983,-135.396,-7.25537,-179.407,3.99902,-143.547,348
1570787632,360.983,-135.396,-7.25537,-179.407,3.99902,-143.547,348
1570787632,360.983,-135.396,-7.25537,-179.407,3.99902,-143.547,348
1570787632,360.983,-135.396,-7.25537,-179.407,3.99902,-143.547,348
1570787632,360.983,-135.396,-7.25537,-179.407,3.99902,-143.547,348
1570787632,360.983,-135.396,-7.25537,-179.407,3.99902,-143.547,348
1570787632,360.983,-135.396,-7.25537,-179.407,3.99902,-143.547,348
1570787632,360.983,-135.396,-7.25537,-179.407,3.99902,-143.547,348
1570787632,360.983,-135.396,-7.36699,-179.407,3.99902,-143.547,348
1570787632,360.983,-135.396,-7.36699,-179.407,3.99902,-143.547,348
1570787632,361.094,-135.396,-7.36699,-179.407,3.97705,-143.547,344
1570787632,361.094,-135.396,-7.36699,-179.407,3.97705,-143.547,344
1570787632,361.094,-135.396,-7.36699,-179.407,3.97705,-143.547,344
1570787632,361.094,-135.396,-7.36699,-179.407,3.97705,-143.547,344
1570787632,361.094,-135.396,-7.36699,-179.407,3.97705,-143.547,344
1570787632,361.094,-135.396,-7.36699,-179.407,3.97705,-143.547,340
1570787632,361.094,-135.396,-7.36699,-179.407,3.97705,-143.547,340
1570787632,361.094,-135.508,-7.36699,-179.407,3.97705,-143.569,340
1570787632,361.094,-135.508,-7.36699,-179.407,3.97705,-143.569,340
1570787632,361.094,-135.508,-7.36699,-179.407,3.97705,-143.569,340
1570787632,361.094,-135.508,-7.36699,-179.407,3.97705,-143.569,340
1570787632,361.094,-135.508,-7.36699,-179.407,3.97705,-143.569,340
1570787632,361.094,-135.508,-7.36699,-179.407,3.97705,-143.569,340
1570787632,361.094,-135.508,-7.36699,-179.407,3.97705,-143.569,340
1570787632,361.094,-135.508,-7.36699,-179.407,3.97705,-143.569,340
1570787632,361.094,-135.508,-7.36699,-179.407,3.97705,-143.569,340
1570787632,361.094,-135.508,-7.36699,-179.407,3.97705,-143.569,340
1570787632,361.094,-135.508,-7.36699,-179.407,3.97705,-143.569,340
1570787632,361.094,-135.508,-7.36699,-179.407,3.97705,-143.569,340
1570787632,361.094,-135.508,-7.36699,-179.407,3.97705,-143.569,340
1570787632,361.094,-135.508,-7.36699,-179.407,3.97705,-143.569,340
1570787632,361.094,-135.508,-7.36699,-179.407,3.97705,-143.569,340
1570787632,361.094,-135.508,-7.36699,-179.407,3.97705,-143.569,340
1570787632,361.094,-135.508,-7.36699,-179.407,3.99902,-143.547,340
1570787632,361.094,-135.508,-7.36699,-179.407,3.99902,-143.547,340
1570787632,361.094,-135.508,-7.25537,-179.407,3.99902,-143.547,344
1570787632,361.094,-135.508,-7.25537,-179.407,3.99902,-143.547,344
1570787632,361.094,-135.508,-7.25537,-179.407,3.99902,-143.547,344
1570787632,361.094,-135.508,-7.25537,-179.407,3.99902,-143.547,344
1570787632,361.094,-135.508,-7.25537,-179.407,3.99902,-143.547,344
1570787632,361.094,-135.508,-7.25537,-179.407,3.99902,-143.547,344
1570787632,361.094,-135.508,-7.25537,-179.407,3.99902,-143.547,344
1570787632,361.094,-135.508,-7.25537,-179.407,3.99902,-143.547,344
1570787632,361.094,-135.508,-7.25537,-179.407,4.021,-143.547,344
1570787632,361.094,-135.508,-7.25537,-179.407,4.021,-143.547,344
1570787632,361.094,-135.508,-7.25537,-179.407,4.021,-143.547,344
1570787632,361.094,-135.508,-7.25537,-179.407,4.021,-143.547,344
1570787632,361.094,-135.508,-7.25537,-179.407,4.021,-143.547,344
1570787632,361.094,-135.508,-7.25537,-179.407,4.021,-143.547,344
1570787632,361.094,-135.508,-7.25537,-179.407,4.021,-143.547,344
1570787632,361.094,-135.508,-7.25537,-179.385,4.021,-143.547,348
1570787632,361.094,-135.508,-7.25537,-179.385,4.021,-143.547,348
1570787632,361.094,-135.508,-7.25537,-179.385,4.021,-143.547,348
1570787632,361.094,-135.396,-7.25537,-179.385,4.021,-143.547,348
1570787632,361.094,-135.396,-7.25537,-179.385,4.021,-143.547,348
1570787632,361.094,-135.396,-7.25537,-179.385,4.021,-143.547,348
1570787632,361.094,-135.396,-7.25537,-179.385,3.99902,-143.547,348
1570787632,361.094,-135.396,-7.25537,-179.385,3.99902,-143.547,348
1570787632,361.094,-135.396,-7.25537,-179.385,3.99902,-143.547,348
1570787632,361.094,-135.396,-7.25537,-179.385,3.99902,-143.547,348
1570787632,361.094,-135.396,-7.25537,-179.385,3.99902,-143.547,348
1570787632,361.094,-135.396,-7.25537,-179.385,3.99902,-143.547,348
1570787632,361.094,-135.396,-7.25537,-179.385,3.99902,-143.547,348
1570787632,361.094,-135.396,-7.25537,-179.385,3.99902,-143.547,344
1570787633,361.094,-135.396,-7.25537,-179.385,3.99902,-143.525,344
1570787633,361.094,-135.396,-7.25537,-179.385,3.99902,-143.525,344
1570787633,361.094,-135.396,-7.25537,-179.385,3.99902,-143.525,344
1570787633,361.094,-135.396,-7.25537,-179.385,3.99902,-143.525,344
1570787633,361.094,-135.396,-7.25537,-179.385,3.99902,-143.525,340
1570787633,361.094,-135.396,-7.25537,-179.385,3.99902,-143.525,340
1570787633,361.094,-135.396,-7.25537,-179.385,3.99902,-143.525,340
1570787633,361.094,-135.396,-7.25537,-179.385,3.99902,-143.525,340
1570787633,361.094,-135.396,-7.25537,-179.385,3.99902,-143.525,340
1570787633,361.094,-135.396,-7.25537,-179.385,3.99902,-143.525,340
1570787633,361.094,-135.396,-7.25537,-179.385,3.99902,-143.525,340
1570787633,361.094,-135.396,-7.25537,-179.385,3.99902,-143.525,344
1570787633,361.094,-135.396,-7.25537,-179.385,3.99902,-143.525,344
1570787633,361.094,-135.396,-7.25537,-179.385,3.99902,-143.525,344
1570787633,361.094,-135.396,-7.36699,-179.385,3.97705,-143.525,344
1570787633,361.094,-135.396,-7.36699,-179.385,3.97705,-143.525,344
1570787633,361.094,-135.396,-7.36699,-179.385,3.97705,-143.525,344
1570787633,361.094,-135.396,-7.36699,-179.385,3.97705,-143.525,344
1570787633,361.094,-135.396,-7.36699,-179.385,3.97705,-143.525,340
1570787633,361.094,-135.396,-7.36699,-179.385,3.97705,-143.525,340
1570787633,361.094,-135.396,-7.36699,-179.385,3.97705,-143.525,340
1570787633,361.094,-135.396,-7.36699,-179.385,3.97705,-143.525,340
1570787633,361.094,-135.396,-7.36699,-179.385,3.97705,-143.525,344
1570787633,361.094,-135.396,-7.36699,-179.407,3.97705,-143.525,344
1570787633,361.094,-135.396,-7.36699,-179.407,3.97705,-143.525,344
1570787633,361.094,-135.396,-7.25537,-179.407,3.97705,-143.547,344
1570787633,361.094,-135.396,-7.25537,-179.407,3.97705,-143.547,344
1570787633,361.094,-135.396,-7.25537,-179.407,3.97705,-143.547,344
1570787633,361.094,-135.396,-7.25537,-179.407,3.97705,-143.547,344
1570787633,361.094,-135.396,-7.25537,-179.407,3.99902,-143.547,344
1570787633,361.094,-135.396,-7.25537,-179.407,3.99902,-143.547,344
1570787633,361.094,-135.396,-7.25537,-179.407,3.99902,-143.547,344
1570787633,361.094,-135.396,-7.25537,-179.407,3.99902,-143.547,344
1570787633,361.094,-135.508,-7.25537,-179.407,3.99902,-143.547,344
1570787633,361.094,-135.508,-7.25537,-179.407,3.99902,-143.547,344
1570787633,361.094,-135.508,-7.25537,-179.407,3.99902,-143.547,340
1570787633,361.094,-135.508,-7.25537,-179.407,3.99902,-143.547,340
1570787633,361.094,-135.508,-7.25537,-179.407,3.99902,-143.547,340
1570787633,361.094,-135.508,-7.25537,-179.407,3.99902,-143.547,344
1570787633,361.094,-135.508,-7.25537,-179.407,3.99902,-143.547,344
1570787633,361.094,-135.508,-7.25537,-179.407,3.99902,-143.547,344
1570787633,361.094,-135.508,-7.25537,-179.407,3.99902,-143.547,344
1570787633,361.094,-135.508,-7.25537,-179.407,3.99902,-143.547,344
1570787633,361.094,-135.508,-7.25537,-179.407,3.99902,-143.525,344
1570787633,361.094,-135.508,-7.25537,-179.407,3.99902,-143.525,348
1570787633,361.094,-135.508,-7.25537,-179.407,3.99902,-143.525,348
1570787633,361.094,-135.508,-7.25537,-179.407,3.99902,-143.525,348
1570787633,361.094,-135.508,-7.25537,-179.407,3.99902,-143.525,348
1570787633,361.094,-135.508,-7.25537,-179.407,3.99902,-143.525,352
1570787633,361.094,-135.508,-7.25537,-179.407,3.99902,-143.525,352
1570787633,361.094,-135.508,-7.25537,-179.407,3.99902,-143.525,352
1570787633,361.094,-135.396,-7.25537,-179.407,3.99902,-143.525,352
1570787633,361.094,-135.396,-7.25537,-179.407,3.99902,-143.525,352
1570787633,361.094,-135.396,-7.25537,-179.407,3.99902,-143.525,352
1570787633,361.094,-135.396,-7.25537,-179.407,3.99902,-143.525,356
1570787633,361.094,-135.396,-7.25537,-179.407,3.99902,-143.525,356
1570787633,361.094,-135.396,-7.25537,-179.407,3.99902,-143.525,356
1570787633,361.094,-135.396,-7.25537,-179.407,3.99902,-143.525,356
1570787633,361.094,-135.396,-7.25537,-179.407,3.99902,-143.525,356
1570787633,361.094,-135.396,-7.25537,-179.407,3.99902,-143.525,356
1570787633,361.094,-135.396,-7.25537,-179.407,3.99902,-143.525,356
1570787633,361.094,-135.396,-7.25537,-179.407,3.99902,-143.525,356
1570787633,361.094,-135.396,-7.25537,-179.407,3.99902,-143.525,356
1570787633,361.094,-135.396,-7.25537,-179.407,3.99902,-143.525,356
1570787633,361.094,-135.396,-7.25537,-179.385,3.99902,-143.525,356
1570787633,361.094,-135.396,-7.25537,-179.385,3.99902,-143.525,356
1570787633,361.094,-135.396,-7.25537,-179.385,3.99902,-143.525,352
1570787633,361.094,-135.396,-7.25537,-179.385,3.99902,-143.525,352
1570787633,361.094,-135.396,-7.25537,-179.385,3.99902,-143.547,352
1570787633,361.094,-135.396,-7.25537,-179.385,3.99902,-143.547,352
1570787633,361.094,-135.396,-7.25537,-179.385,3.99902,-143.547,352
1570787633,361.094,-135.396,-7.25537,-179.385,3.99902,-143.547,352
1570787633,361.094,-135.396,-7.25537,-179.385,3.99902,-143.547,352
1570787633,361.094,-135.396,-7.25537,-179.385,3.99902,-143.547,352
1570787633,361.094,-135.396,-7.25537,-179.385,3.99902,-143.547,352
1570787633,361.094,-135.396,-7.36699,-179.385,3.99902,-143.547,352
1570787633,361.094,-135.396,-7.36699,-179.385,3.99902,-143.547,352
1570787633,361.094,-135.396,-7.36699,-179.385,3.97705,-143.547,352
1570787633,361.094,-135.396,-7.36699,-179.385,3.97705,-143.547,352
1570787633,361.094,-135.396,-7.36699,-179.385,3.97705,-143.547,352
1570787633,361.094,-135.396,-7.36699,-179.385,3.97705,-143.547,352
1570787633,361.094,-135.396,-7.36699,-179.385,3.97705,-143.547,352
1570787633,361.094,-135.396,-7.36699,-179.407,3.97705,-143.547,356
1570787633,361.094,-135.396,-7.36699,-179.407,3.97705,-143.547,356
1570787633,361.094,-135.396,-7.36699,-179.407,3.97705,-143.547,356
1570787633,361.094,-135.396,-7.36699,-179.407,3.97705,-143.547,356
1570787633,361.094,-135.396,-7.36699,-179.407,3.97705,-143.547,356
1570787633,361.094,-135.396,-7.36699,-179.407,3.97705,-143.547,356
1570787633,361.094,-135.396,-7.36699,-179.407,3.97705,-143.547,352
1570787633,361.094,-135.396,-7.36699,-179.407,3.97705,-143.547,352
1570787633,361.094,-135.396,-7.36699,-179.407,3.97705,-143.547,352
1570787633,361.094,-135.396,-7.36699,-179.407,3.97705,-143.547,352
1570787633,361.094,-135.396,-7.36699,-179.407,3.97705,-143.547,352
1570787633,361.094,-135.396,-7.36699,-179.407,3.97705,-143.547,352
1570787633,361.094,-135.396,-7.36699,-179.407,3.97705,-143.547,352
1570787633,361.094,-135.508,-7.36699,-179.407,3.97705,-143.547,352
1570787633,361.094,-135.508,-7.36699,-179.407,3.97705,-143.547,348
1570787633,361.094,-135.508,-7.36699,-179.407,3.97705,-143.547,348
1570787633,361.094,-135.508,-7.36699,-179.407,3.97705,-143.547,348
1570787633,361.094,-135.508,-7.36699,-179.407,3.97705,-143.547,348
1570787634,361.094,-135.396,-7.36699,-179.407,3.97705,-143.547,348
1570787634,361.094,-135.396,-7.36699,-179.407,3.97705,-143.547,348
1570787634,361.094,-135.396,-7.36699,-179.407,3.97705,-143.547,348
1570787634,361.094,-135.396,-7.25537,-179.407,3.97705,-143.547,348
1570787634,361.094,-135.396,-7.25537,-179.407,3.99902,-143.547,348
1570787634,361.094,-135.396,-7.25537,-179.407,3.99902,-143.547,348
1570787634,361.094,-135.396,-7.25537,-179.407,3.99902,-143.547,348
1570787634,361.094,-135.396,-7.25537,-179.407,3.99902,-143.547,348
1570787634,361.094,-135.396,-7.25537,-179.407,3.99902,-143.547,348
1570787634,361.094,-135.396,-7.25537,-179.407,3.99902,-143.547,348
1570787634,361.094,-135.396,-7.25537,-179.407,3.99902,-143.547,348
1570787634,361.094,-135.396,-7.25537,-179.407,3.99902,-143.547,348
1570787634,361.094,-135.396,-7.25537,-179.407,3.99902,-143.547,348
1570787634,361.094,-135.508,-7.25537,-179.407,3.99902,-143.547,348
1570787634,361.094,-135.508,-7.25537,-179.407,3.97705,-143.547,348
1570787634,361.094,-135.508,-7.25537,-179.429,3.97705,-143.547,348
1570787634,361.094,-135.508,-7.36699,-179.429,3.97705,-143.547,352
1570787634,361.094,-135.508,-7.36699,-179.429,3.97705,-143.547,352
1570787634,361.094,-135.508,-7.36699,-179.429,3.97705,-143.547,352
1570787634,361.094,-135.508,-7.36699,-179.429,3.97705,-143.547,352
1570787634,361.094,-135.508,-7.36699,-179.429,3.97705,-143.547,352
1570787634,361.094,-135.62,-7.36699,-179.429,3.97705,-143.547,352
1570787634,361.094,-135.62,-7.36699,-179.429,3.97705,-143.547,348
1570787634,361.094,-135.62,-7.36699,-179.429,3.97705,-143.547,348
1570787634,361.094,-135.62,-7.36699,-179.429,3.97705,-143.547,348
1570787634,361.094,-135.62,-7.36699,-179.429,3.97705,-143.547,348
1570787634,361.094,-135.508,-7.36699,-179.429,3.97705,-143.547,348
1570787634,361.094,-135.508,-7.36699,-179.429,3.97705,-143.547,348
1570787634,361.094,-135.508,-7.36699,-179.407,3.97705,-143.547,348
1570787634,361.094,-135.508,-7.36699,-179.407,3.97705,-143.547,348
1570787634,361.206,-135.508,-7.36699,-179.407,3.97705,-143.547,348
1570787634,361.206,-135.508,-7.36699,-179.407,3.97705,-143.547,348
1570787634,361.206,-135.508,-7.36699,-179.407,3.97705,-143.547,348
1570787634,361.206,-135.508,-7.36699,-179.407,3.97705,-143.547,344
1570787634,361.094,-135.508,-7.36699,-179.407,3.99902,-143.547,344
1570787634,361.094,-135.508,-7.36699,-179.407,3.99902,-143.547,344
1570787634,361.094,-135.508,-7.36699,-179.407,3.99902,-143.547,344
1570787634,361.094,-135.508,-7.36699,-179.407,3.99902,-143.547,344
1570787634,361.094,-135.508,-7.25537,-179.407,3.99902,-143.547,348
1570787634,361.094,-135.508,-7.25537,-179.407,3.99902,-143.547,348
1570787634,361.094,-135.508,-7.25537,-179.407,3.99902,-143.547,348
1570787634,361.094,-135.508,-7.25537,-179.407,3.99902,-143.547,348
1570787634,361.094,-135.508,-7.25537,-179.407,3.99902,-143.547,348
1570787634,361.094,-135.508,-7.25537,-179.429,3.99902,-143.547,348
1570787634,361.094,-135.508,-7.25537,-179.429,3.99902,-143.547,348
1570787634,361.094,-135.508,-7.25537,-179.429,3.99902,-143.547,348
1570787634,361.094,-135.508,-7.25537,-179.429,3.99902,-143.547,348
1570787634,361.094,-135.508,-7.25537,-179.429,3.99902,-143.547,352
1570787634,361.094,-135.508,-7.25537,-179.429,3.99902,-143.547,352
1570787634,361.094,-135.508,-7.25537,-179.429,3.99902,-143.547,352
1570787634,361.094,-135.508,-7.25537,-179.429,3.99902,-143.547,352
1570787634,361.094,-135.508,-7.25537,-179.429,3.99902,-143.547,352
1570787634,361.094,-135.508,-7.25537,-179.429,3.99902,-143.547,352
1570787634,361.094,-135.508,-7.25537,-179.429,3.99902,-143.547,352
1570787634,361.094,-135.508,-7.25537,-179.429,3.99902,-143.547,352
1570787634,361.094,-135.508,-7.25537,-179.429,3.99902,-143.547,352
1570787634,361.094,-135.508,-7.25537,-179.429,3.99902,-143.547,356
1570787634,361.094,-135.508,-7.25537,-179.429,3.99902,-143.525,356
1570787634,361.094,-135.508,-7.25537,-179.429,3.99902,-143.525,356
1570787634,361.094,-135.508,-7.25537,-179.429,3.99902,-143.525,356
1570787634,361.094,-135.508,-7.25537,-179.429,3.99902,-143.525,356
1570787634,361.094,-135.508,-7.25537,-179.407,3.99902,-143.525,356
1570787634,361.094,-135.508,-7.25537,-179.407,3.99902,-143.525,352
1570787634,361.094,-135.508,-7.25537,-179.407,3.99902,-143.525,352
1570787634,361.094,-135.508,-7.25537,-179.407,3.99902,-143.525,352
1570787634,361.094,-135.508,-7.25537,-179.407,3.99902,-143.525,352
1570787634,361.094,-135.508,-7.25537,-179.407,3.97705,-143.525,352
1570787634,361.094,-135.508,-7.25537,-179.407,3.97705,-143.525,348
1570787634,361.094,-135.508,-7.25537,-179.407,3.97705,-143.525,348
1570787634,361.094,-135.508,-7.25537,-179.407,3.97705,-143.525,348
1570787634,361.094,-135.508,-7.25537,-179.407,3.97705,-143.525,344
1570787634,361.094,-135.508,-7.25537,-179.407,3.97705,-143.525,344
1570787634,361.094,-135.508,-7.25537,-179.407,3.97705,-143.547,344
1570787634,361.094,-135.508,-7.36699,-179.407,3.97705,-143.547,340
1570787634,361.094,-135.508,-7.36699,-179.407,3.97705,-143.547,340
1570787634,361.094,-135.508,-7.36699,-179.407,3.97705,-143.547,340
1570787634,361.094,-135.396,-7.36699,-179.407,3.97705,-143.547,340
1570787634,361.094,-135.396,-7.36699,-179.407,3.97705,-143.547,340
1570787634,361.094,-135.396,-7.36699,-179.407,3.97705,-143.547,340
1570787634,361.094,-135.396,-7.36699,-179.407,3.97705,-143.547,340
1570787634,361.094,-135.396,-7.36699,-179.407,3.97705,-143.547,340
1570787634,361.094,-135.396,-7.36699,-179.407,3.97705,-143.547,340
1570787634,361.094,-135.396,-7.36699,-179.407,3.97705,-143.547,340
1570787634,361.094,-135.396,-7.36699,-179.407,3.97705,-143.547,340
1570787634,360.983,-135.396,-7.36699,-179.407,3.97705,-143.547,340
1570787638,401.278,-174.575,-5.35781,-178.967,4.32861,-143.701,216
1570787638,401.278,-174.575,-5.35781,-178.967,4.32861,-143.701,220
1570787638,401.278,-174.575,-5.35781,-178.967,4.32861,-143.701,220
1570787638,401.278,-174.575,-5.24619,-178.967,4.32861,-143.701,220
1570787638,401.278,-174.575,-5.24619,-178.967,4.32861,-143.701,220
1570787638,401.278,-174.575,-5.24619,-178.967,4.32861,-143.701,220
1570787638,401.278,-174.575,-5.24619,-178.967,4.32861,-143.701,216
1570787638,401.278,-174.575,-5.35781,-178.967,4.32861,-143.701,216
1570787638,401.278,-174.575,-5.24619,-178.967,4.32861,-143.701,216
1570787638,401.278,-174.575,-5.24619,-178.945,4.32861,-143.701,216
1570787638,401.278,-174.575,-5.24619,-178.945,4.32861,-143.701,216
1570787638,401.278,-174.575,-5.24619,-178.945,4.32861,-143.701,216
1570787638,401.278,-174.575,-5.24619,-178.945,4.32861,-143.701,216
1570787638,401.278,-174.575,-5.24619,-178.945,4.32861,-143.701,216
1570787638,401.278,-174.575,-5.24619,-178.945,4.32861,-143.701,216
1570787638,401.278,-174.575,-5.24619,-178.945,4.35059,-143.701,216
1570787638,401.278,-174.575,-5.24619,-178.945,4.35059,-143.679,216
1570787638,401.278,-174.575,-5.24619,-178.945,4.35059,-143.679,216
1570787638,401.278,-174.575,-5.24619,-178.945,4.35059,-143.679,216
1570787638,401.278,-174.575,-5.24619,-178.945,4.35059,-143.679,216
1570787638,401.278,-174.575,-5.13457,-178.945,4.35059,-143.679,220
1570787638,401.278,-174.575,-5.13457,-178.945,4.35059,-143.679,220
1570787638,401.278,-174.575,-5.13457,-178.945,4.35059,-143.679,220
1570787638,401.278,-174.575,-5.13457,-178.967,4.35059,-143.679,224
1570787638,401.278,-174.575,-5.13457,-178.967,4.35059,-143.679,224
1570787638,401.278,-174.575,-5.13457,-178.967,4.35059,-143.679,228
1570787638,401.278,-174.575,-5.13457,-178.967,4.35059,-143.679,228
1570787638,401.278,-174.687,-5.13457,-178.989,4.35059,-143.679,232
1570787638,401.278,-174.687,-5.13457,-178.989,4.35059,-143.679,232
1570787638,401.278,-174.687,-5.13457,-178.989,4.35059,-143.679,232
1570787638,401.278,-174.687,-5.13457,-178.989,4.35059,-143.679,236
1570787638,401.278,-174.687,-5.13457,-178.989,4.35059,-143.679,236
1570787638,401.278,-174.687,-5.13457,-178.989,4.35059,-143.679,236
1570787638,401.278,-174.687,-5.13457,-178.989,4.35059,-143.679,236
1570787638,401.278,-174.687,-5.24619,-178.989,4.35059,-143.679,236
1570787638,401.278,-174.687,-5.24619,-178.989,4.35059,-143.679,236
1570787638,401.278,-174.687,-5.24619,-178.989,4.35059,-143.679,236
1570787638,401.278,-174.687,-5.24619,-178.989,4.35059,-143.679,236
1570787638,401.278,-174.687,-5.24619,-178.989,4.35059,-143.679,236
1570787638,401.278,-174.687,-5.24619,-178.989,4.35059,-143.679,236
1570787638,401.278,-174.687,-5.24619,-178.989,4.35059,-143.679,236
1570787638,401.278,-174.687,-5.24619,-178.989,4.32861,-143.701,236
1570787638,401.278,-174.687,-5.35781,-178.989,4.32861,-143.701,236
1570787638,401.278,-174.687,-5.35781,-178.989,4.32861,-143.701,236
1570787638,401.278,-174.575,-5.35781,-178.989,4.32861,-143.701,236
1570787638,401.278,-174.575,-5.35781,-178.967,4.32861,-143.701,236
1570787638,401.278,-174.575,-5.35781,-178.967,4.30664,-143.701,236
1570787638,401.278,-174.575,-5.35781,-178.967,4.30664,-143.701,232
1570787638,401.278,-174.575,-5.35781,-178.967,4.30664,-143.701,232
1570787638,401.278,-174.575,-5.46943,-178.967,4.30664,-143.701,232
1570787638,401.278,-174.575,-5.46943,-178.989,4.30664,-143.723,232
1570787639,401.278,-174.575,-5.35781,-178.989,4.30664,-143.723,236
1570787639,401.278,-174.575,-5.35781,-178.989,4.30664,-143.723,236
1570787639,401.278,-174.575,-5.35781,-178.989,4.30664,-143.723,236
1570787639,401.166,-174.575,-5.35781,-178.989,4.32861,-143.723,236
1570787639,401.166,-174.575,-5.35781,-178.989,4.32861,-143.723,236
1570787639,401.166,-174.575,-5.35781,-178.989,4.30664,-143.723,236
1570787639,401.166,-174.575,-5.35781,-178.989,4.30664,-143.723,236
1570787639,401.166,-174.575,-5.35781,-178.989,4.30664,-143.723,236
1570787639,401.166,-174.575,-5.35781,-178.989,4.30664,-143.723,236
1570787639,401.166,-174.575,-5.35781,-178.989,4.30664,-143.723,236
1570787639,401.166,-174.575,-5.46943,-178.989,4.30664,-143.723,236
1570787639,401.166,-174.575,-5.46943,-178.989,4.28467,-143.723,236
1570787639,401.166,-174.575,-5.46943,-178.989,4.28467,-143.723,236
1570787639,401.278,-174.575,-5.46943,-178.989,4.28467,-143.723,236
1570787639,401.278,-174.575,-5.46943,-178.989,4.28467,-143.723,236
1570787639,401.278,-174.575,-5.46943,-178.989,4.2627,-143.723,236
1570787639,401.278,-174.575,-5.46943,-178.989,4.2627,-143.723,236
1570787639,401.278,-174.575,-5.46943,-178.989,4.2627,-143.723,236
1570787639,401.166,-174.575,-5.46943,-179.011,4.2627,-143.723,236
1570787639,401.166,-174.575,-5.46943,-179.011,4.2627,-143.723,236
1570787639,401.166,-174.687,-5.46943,-179.011,4.28467,-143.723,236
1570787639,401.166,-174.687,-5.46943,-179.011,4.28467,-143.723,240
1570787639,401.166,-174.687,-5.46943,-179.011,4.28467,-143.723,240
1570787639,401.166,-174.687,-5.46943,-179.033,4.28467,-143.745,240
1570787639,401.166,-174.687,-5.46943,-179.033,4.28467,-143.745,240
1570787639,401.166,-174.799,-5.46943,-179.033,4.28467,-143.745,240
1570787639,401.166,-174.799,-5.46943,-179.055,4.28467,-143.745,240
1570787639,401.166,-174.799,-5.46943,-179.055,4.28467,-143.745,240
1570787639,401.166,-174.91,-5.46943,-179.055,4.28467,-143.745,240
1570787639,401.166,-174.91,-5.46943,-179.055,4.28467,-143.745,236
1570787639,401.166,-174.91,-5.46943,-179.077,4.28467,-143.745,236
1570787639,401.166,-174.91,-5.46943,-179.077,4.28467,-143.745,236
1570787639,401.166,-174.91,-5.46943,-179.077,4.28467,-143.745,236
1570787639,401.166,-174.91,-5.46943,-179.077,4.28467,-143.745,232
1570787639,401.166,-174.91,-5.46943,-179.077,4.28467,-143.745,232
1570787639,401.166,-174.91,-5.46943,-179.077,4.28467,-143.745,232
1570787639,401.166,-174.91,-5.46943,-179.077,4.28467,-143.723,228
1570787639,401.166,-174.91,-5.46943,-179.055,4.28467,-143.723,228
1570787639,401.166,-174.91,-5.46943,-179.055,4.28467,-143.723,228
1570787639,401.166,-174.91,-5.46943,-179.055,4.28467,-143.723,224
1570787639,401.278,-174.91,-5.46943,-179.055,4.28467,-143.723,224
1570787639,401.278,-174.91,-5.46943,-179.055,4.28467,-143.745,224
1570787639,401.278,-174.91,-5.58105,-179.055,4.28467,-143.745,220
1570787639,401.278,-174.91,-5.58105,-179.055,4.28467,-143.745,220
1570787639,401.278,-174.91,-5.58105,-179.055,4.2627,-143.745,220
1570787639,401.278,-174.91,-5.58105,-179.055,4.2627,-143.745,216
1570787639,401.278,-174.91,-5.58105,-179.055,4.2627,-143.745,216
1570787639,401.278,-174.91,-5.58105,-179.055,4.2627,-143.745,216
1570787639,401.278,-174.91,-5.58105,-179.055,4.2627,-143.745,216
1570787639,401.278,-174.91,-5.58105,-179.055,4.2627,-143.745,216
1570787639,401.278,-174.91,-5.58105,-179.055,4.2627,-143.745,216
1570787639,401.278,-174.91,-5.58105,-179.055,4.2627,-143.745,212
1570787639,401.278,-174.91,-5.58105,-179.055,4.2627,-143.745,212
1570787639,401.278,-174.91,-5.58105,-179.055,4.2627,-143.745,212
1570787639,401.278,-174.91,-5.58105,-179.055,4.2627,-143.745,212
1570787639,401.278,-174.91,-5.58105,-179.033,4.2627,-143.745,212
1570787639,401.278,-174.91,-5.58105,-179.033,4.2627,-143.745,212
1570787639,401.389,-174.91,-5.58105,-179.033,4.2627,-143.745,212
1570787639,401.389,-174.91,-5.58105,-179.033,4.2627,-143.745,212
1570787639,401.389,-174.91,-5.58105,-179.033,4.2627,-143.745,212
1570787639,401.389,-174.91,-5.58105,-179.033,4.2627,-143.745,212
1570787639,401.389,-174.91,-5.58105,-179.033,4.2627,-143.745,212
1570787639,401.389,-174.91,-5.46943,-179.033,4.28467,-143.745,212
1570787639,401.389,-174.91,-5.46943,-179.033,4.28467,-143.745,212
1570787639,401.389,-174.91,-5.46943,-179.033,4.28467,-143.745,212
1570787639,401.389,-174.91,-5.46943,-179.033,4.28467,-143.745,212
1570787639,401.278,-174.91,-5.46943,-179.033,4.28467,-143.723,212
1570787639,401.278,-174.91,-5.46943,-179.033,4.28467,-143.723,212
1570787639,401.278,-174.91,-5.46943,-179.033,4.28467,-143.723,212
1570787639,401.278,-174.91,-5.46943,-179.033,4.28467,-143.723,212
1570787639,401.278,-174.91,-5.46943,-179.033,4.28467,-143.745,212
1570787639,401.278,-174.91,-5.46943,-179.033,4.28467,-143.745,212
1570787639,401.278,-174.91,-5.46943,-179.033,4.28467,-143.745,212
1570787639,401.278,-174.91,-5.46943,-179.033,4.28467,-143.745,212
1570787639,401.278,-174.91,-5.46943,-179.033,4.28467,-143.745,212
1570787639,401.278,-174.91,-5.46943,-179.033,4.28467,-143.745,212
1570787639,401.278,-174.799,-5.46943,-179.033,4.28467,-143.745,212
1570787639,401.278,-174.799,-5.46943,-179.011,4.28467,-143.745,212
1570787639,401.278,-174.799,-5.46943,-179.011,4.28467,-143.745,212
1570787639,401.278,-174.799,-5.46943,-179.011,4.28467,-143.745,212
1570787639,401.278,-174.799,-5.46943,-179.011,4.28467,-143.745,212
1570787639,401.278,-174.799,-5.46943,-179.011,4.28467,-143.745,212
1570787639,401.278,-174.687,-5.46943,-179.011,4.28467,-143.745,212
1570787639,401.278,-174.687,-5.46943,-178.989,4.28467,-143.745,212
1570787639,401.278,-174.687,-5.46943,-178.989,4.28467,-143.745,212
1570787639,401.278,-174.687,-5.46943,-178.989,4.28467,-143.723,212
1570787639,401.278,-174.687,-5.46943,-178.989,4.28467,-143.723,212
1570787639,401.278,-174.687,-5.46943,-178.989,4.28467,-143.723,212
1570787639,401.278,-174.687,-5.46943,-178.989,4.28467,-143.723,212
1570787639,401.278,-174.687,-5.46943,-178.989,4.28467,-143.723,212
1570787639,401.278,-174.687,-5.46943,-178.989,4.28467,-143.723,216
1570787639,401.278,-174.687,-5.46943,-178.989,4.28467,-143.701,216
1570787639,401.278,-174.687,-5.46943,-178.989,4.28467,-143.701,216
1570787639,401.278,-174.687,-5.46943,-178.989,4.28467,-143.701,216
1570787639,401.278,-174.687,-5.46943,-178.989,4.28467,-143.701,216
1570787639,401.278,-174.687,-5.46943,-178.989,4.28467,-143.701,216
1570787639,401.278,-174.687,-5.46943,-178.989,4.28467,-143.701,216
1570787639,401.278,-174.687,-5.46943,-178.989,4.28467,-143.701,216
1570787639,401.278,-174.687,-5.46943,-178.989,4.28467,-143.701,216
1570787639,401.278,-174.687,-5.46943,-178.989,4.28467,-143.701,216
1570787640,401.278,-174.687,-5.46943,-178.989,4.28467,-143.701,216
1570787640,401.278,-174.687,-5.46943,-178.989,4.28467,-143.701,216
1570787640,401.278,-174.687,-5.46943,-178.989,4.28467,-143.701,216
1570787640,401.278,-174.687,-5.46943,-179.011,4.28467,-143.701,216
1570787640,401.278,-174.687,-5.46943,-179.011,4.28467,-143.701,216
1570787640,401.278,-174.799,-5.46943,-179.011,4.28467,-143.701,216
1570787640,401.278,-174.799,-5.46943,-179.011,4.28467,-143.701,216
1570787640,401.278,-174.799,-5.46943,-179.011,4.28467,-143.701,216
1570787640,401.278,-174.799,-5.46943,-179.011,4.28467,-143.701,216
1570787640,401.278,-174.799,-5.46943,-179.011,4.28467,-143.701,216
1570787640,401.278,-174.799,-5.46943,-179.011,4.28467,-143.701,216
1570787640,401.389,-174.799,-5.46943,-179.011,4.28467,-143.701,216
1570787640,401.389,-174.799,-5.46943,-179.011,4.28467,-143.701,216
1570787640,401.389,-174.799,-5.46943,-179.011,4.28467,-143.701,212
1570787640,401.389,-174.799,-5.46943,-179.011,4.28467,-143.701,212
1570787640,401.389,-174.687,-5.46943,-178.989,4.28467,-143.701,212
1570787640,401.389,-174.687,-5.46943,-178.989,4.28467,-143.701,212
1570787640,401.389,-174.687,-5.46943,-178.989,4.28467,-143.701,212
1570787640,401.389,-174.687,-5.46943,-178.989,4.28467,-143.701,216
1570787640,401.389,-174.687,-5.46943,-178.989,4.28467,-143.701,216
1570787640,401.389,-174.687,-5.46943,-178.967,4.28467,-143.701,216
1570787640,401.389,-174.687,-5.46943,-178.967,4.28467,-143.701,216
1570787640,401.389,-174.687,-5.46943,-178.967,4.28467,-143.723,216
1570787640,401.389,-174.687,-5.46943,-178.967,4.28467,-143.723,216
1570787640,401.389,-174.575,-5.46943,-178.967,4.28467,-143.723,216
1570787640,401.389,-174.575,-5.46943,-178.967,4.28467,-143.723,216
1570787640,401.278,-174.575,-5.46943,-178.967,4.28467,-143.723,220
1570787640,401.278,-174.575,-5.46943,-178.967,4.30664,-143.723,220
1570787640,401.278,-174.575,-5.46943,-178.989,4.30664,-143.723,220
1570787640,401.278,-174.687,-5.46943,-178.989,4.30664,-143.723,220
1570787640,401.278,-174.687,-5.46943,-178.989,4.30664,-143.723,220
1570787640,401.278,-174.687,-5.35781,-178.989,4.30664,-143.723,224
1570787640,401.278,-174.687,-5.35781,-178.989,4.30664,-143.723,224
1570787640,401.278,-174.575,-5.35781,-178.989,4.30664,-143.701,224
1570787640,401.278,-174.575,-5.35781,-178.989,4.30664,-143.701,224
1570787640,401.278,-174.575,-5.35781,-178.989,4.30664,-143.701,224
1570787640,401.278,-174.575,-5.35781,-178.967,4.30664,-143.723,224
1570787640,401.278,-174.575,-5.35781,-178.967,4.30664,-143.723,220
1570787640,401.278,-174.575,-5.35781,-178.967,4.30664,-143.723,220
1570787640,401.389,-174.575,-5.35781,-178.967,4.30664,-143.723,220
1570787640,401.389,-174.575,-5.35781,-178.967,4.30664,-143.723,220
1570787640,401.389,-174.575,-5.35781,-178.967,4.30664,-143.723,220
1570787640,401.389,-174.575,-5.35781,-178.967,4.30664,-143.723,220
1570787640,401.389,-174.575,-5.35781,-178.967,4.32861,-143.723,216
1570787640,401.389,-174.575,-5.35781,-178.967,4.32861,-143.723,216
1570787640,401.389,-174.575,-5.35781,-178.967,4.32861,-143.723,216
1570787640,401.389,-174.575,-5.35781,-178.967,4.32861,-143.723,216
1570787640,401.389,-174.575,-5.24619,-178.967,4.32861,-143.723,216
1570787640,401.389,-174.575,-5.24619,-178.967,4.32861,-143.723,216
1570787640,401.389,-174.575,-5.24619,-178.967,4.32861,-143.723,216
1570787640,401.389,-174.575,-5.24619,-178.967,4.32861,-143.723,216
1570787640,401.389,-174.575,-5.24619,-178.967,4.32861,-143.723,216
1570787640,401.389,-174.575,-5.24619,-178.967,4.32861,-143.723,216
1570787640,401.389,-174.575,-5.24619,-178.967,4.32861,-143.723,216
1570787640,401.389,-174.575,-5.24619,-178.967,4.32861,-143.723,216
1570787640,401.389,-174.575,-5.24619,-178.967,4.32861,-143.723,216
1570787640,401.389,-174.575,-5.24619,-178.967,4.32861,-143.723,216
1570787640,401.389,-174.575,-5.35781,-178.967,4.32861,-143.723,216
1570787640,401.389,-174.575,-5.35781,-178.967,4.32861,-143.723,216
1570787640,401.389,-174.575,-5.35781,-178.967,4.32861,-143.723,216
1570787640,401.389,-174.575,-5.35781,-178.967,4.32861,-143.723,216
1570787640,401.389,-174.575,-5.35781,-178.967,4.32861,-143.723,220
1570787640,401.389,-174.575,-5.35781,-178.967,4.32861,-143.723,220
1570787640,401.389,-174.575,-5.35781,-178.967,4.32861,-143.723,220
1570787640,401.389,-174.575,-5.35781,-178.967,4.30664,-143.723,220
1570787640,401.389,-174.575,-5.35781,-178.967,4.30664,-143.723,220
1570787640,401.389,-174.575,-5.35781,-178.967,4.30664,-143.723,220
1570787640,401.389,-174.575,-5.35781,-178.967,4.30664,-143.723,220
1570787640,401.389,-174.575,-5.35781,-178.967,4.30664,-143.723,220
1570787640,401.389,-174.575,-5.35781,-178.989,4.30664,-143.723,220
1570787640,401.389,-174.687,-5.35781,-178.989,4.30664,-143.723,224
1570787640,401.278,-174.687,-5.35781,-178.989,4.30664,-143.723,224
1570787640,401.278,-174.687,-5.35781,-178.989,4.30664,-143.723,224
1570787640,401.278,-174.687,-5.35781,-178.989,4.30664,-143.723,224
1570787640,401.278,-174.687,-5.35781,-178.989,4.30664,-143.723,224
1570787640,401.278,-174.687,-5.35781,-178.989,4.30664,-143.723,228
1570787640,401.278,-174.687,-5.35781,-178.989,4.30664,-143.723,228
1570787640,401.278,-174.687,-5.35781,-178.989,4.30664,-143.723,228
1570787640,401.278,-174.687,-5.35781,-178.989,4.30664,-143.723,232
1570787640,401.278,-174.687,-5.35781,-178.989,4.30664,-143.723,232
1570787640,401.278,-174.575,-5.35781,-178.967,4.30664,-143.723,232
1570787640,401.278,-174.575,-5.35781,-178.967,4.30664,-143.723,236
1570787640,401.278,-174.575,-5.46943,-178.967,4.30664,-143.723,236
1570787640,401.278,-174.575,-5.46943,-178.967,4.30664,-143.723,236
1570787640,401.389,-174.575,-5.46943,-178.967,4.30664,-143.723,240
1570787640,401.278,-174.575,-5.35781,-178.967,4.30664,-143.723,240
1570787640,401.278,-174.575,-5.35781,-178.967,4.30664,-143.723,240
1570787640,401.278,-174.575,-5.35781,-178.967,4.30664,-143.723,244
1570787640,401.278,-174.687,-5.35781,-178.989,4.28467,-143.723,244
1570787640,401.278,-174.687,-5.46943,-178.989,4.28467,-143.723,244
1570787640,401.278,-174.687,-5.46943,-178.989,4.28467,-143.723,244
1570787640,401.278,-174.687,-5.46943,-178.989,4.28467,-143.723,244
1570787640,401.278,-174.687,-5.46943,-178.989,4.28467,-143.723,244
1570787640,401.278,-174.799,-5.46943,-179.011,4.28467,-143.723,244
1570787640,401.278,-174.799,-5.46943,-179.011,4.28467,-143.723,244
1570787640,401.278,-174.799,-5.46943,-179.011,4.28467,-143.723,244
1570787640,401.278,-174.799,-5.46943,-179.011,4.28467,-143.723,244
1570787640,401.278,-174.799,-5.46943,-179.011,4.28467,-143.723,244
1570787640,401.278,-174.799,-5.46943,-179.011,4.28467,-143.723,244
1570787640,401.278,-174.799,-5.46943,-179.011,4.2627,-143.723,240
1570787641,401.278,-174.799,-5.46943,-179.011,4.2627,-143.723,240
1570787641,401.278,-174.799,-5.46943,-179.011,4.2627,-143.723,240
1570787641,401.389,-174.799,-5.46943,-179.011,4.2627,-143.723,240
1570787641,401.389,-174.799,-5.46943,-179.011,4.2627,-143.723,240
1570787641,401.389,-174.799,-5.46943,-179.011,4.28467,-143.723,240
1570787641,401.389,-174.799,-5.46943,-179.011,4.28467,-143.723,236
1570787641,401.389,-174.799,-5.46943,-179.011,4.28467,-143.723,236
1570787641,401.389,-174.799,-5.46943,-179.011,4.28467,-143.723,232
1570787641,401.389,-174.799,-5.46943,-179.011,4.28467,-143.701,232
1570787641,401.389,-174.799,-5.46943,-179.011,4.28467,-143.701,232
1570787641,401.389,-174.799,-5.46943,-179.011,4.30664,-143.701,228
1570787641,401.389,-174.799,-5.35781,-179.011,4.30664,-143.701,228
1570787641,401.389,-174.799,-5.35781,-179.011,4.30664,-143.701,224
1570787641,401.389,-174.799,-5.35781,-179.011,4.30664,-143.701,224
1570787641,401.389,-174.799,-5.35781,-179.011,4.30664,-143.701,224
1570787641,401.389,-174.91,-5.35781,-179.011,4.30664,-143.701,220
1570787641,401.389,-174.799,-5.35781,-179.011,4.30664,-143.701,220
1570787641,401.389,-174.91,-5.35781,-179.011,4.30664,-143.701,220
1570787641,401.389,-174.91,-5.35781,-179.011,4.30664,-143.701,216
1570787641,401.389,-174.799,-5.35781,-178.989,4.30664,-143.701,216
1570787641,401.389,-174.799,-5.35781,-178.989,4.30664,-143.701,216
1570787641,401.389,-174.799,-5.35781,-178.989,4.30664,-143.701,216
1570787641,401.389,-174.799,-5.35781,-178.989,4.30664,-143.701,216
1570787641,401.389,-174.799,-5.35781,-178.989,4.30664,-143.701,216
1570787641,401.389,-174.799,-5.35781,-178.989,4.30664,-143.701,216
1570787641,401.389,-174.799,-5.46943,-178.989,4.28467,-143.701,216
1570787641,401.389,-174.799,-5.46943,-178.989,4.28467,-143.701,216
1570787641,401.389,-174.799,-5.35781,-178.989,4.30664,-143.701,216
1570787641,401.389,-174.799,-5.35781,-178.989,4.30664,-143.701,216
