time,x,y,z,ax,ay,az,q
1569662452,321.246,-97.7801,-16.2967,179.539,1.38428,-144.624,360
1569662452,321.246,-97.7801,-16.2967,179.539,1.38428,-144.624,360
1569662452,321.246,-97.7801,-16.2967,179.539,1.38428,-144.624,360
1569662452,321.246,-97.7801,-16.2967,179.539,1.38428,-144.624,360
1569662452,321.246,-97.7801,-16.2967,179.539,1.38428,-144.624,360
1569662452,321.246,-97.7801,-16.2967,179.539,1.3623,-144.624,360
1569662452,321.246,-97.7801,-16.2967,179.539,1.3623,-144.624,360
1569662452,321.246,-97.7801,-16.2967,179.539,1.3623,-144.624,360
1569662452,321.246,-97.7801,-16.2967,179.539,1.3623,-144.624,360
1569662452,321.246,-97.7801,-16.2967,179.539,1.3623,-144.624,360
1569662452,321.246,-97.7801,-16.2967,179.539,1.3623,-144.624,360
1569662452,321.246,-97.7801,-16.2967,179.539,1.3623,-144.624,360
1569662452,321.246,-97.7801,-16.2967,179.539,1.3623,-144.624,360
1569662452,321.246,-97.7801,-16.2967,179.539,1.3623,-144.624,360
1569662452,321.246,-97.7801,-16.2967,179.539,1.3623,-144.624,360
1569662452,321.246,-97.7801,-16.2967,179.539,1.3623,-144.624,360
1569662452,321.246,-97.7801,-16.2967,179.539,1.3623,-144.624,360
1569662452,321.246,-97.7801,-16.2967,179.539,1.3623,-144.624,360
1569662452,321.246,-97.7801,-16.2967,179.539,1.3623,-144.624,360
1569662452,321.246,-97.7801,-16.2967,179.539,1.3623,-144.624,360
1569662452,321.246,-97.7801,-16.2967,179.539,1.3623,-144.624,360
1569662452,321.246,-97.7801,-16.2967,179.539,1.3623,-144.624,360
1569662452,321.246,-97.7801,-16.2967,179.561,1.3623,-144.624,360
1569662452,321.246,-97.7801,-16.2967,179.561,1.3623,-144.602,360
1569662452,321.246,-97.7801,-16.2967,179.561,1.3623,-144.602,360
1569662452,321.246,-97.7801,-16.2967,179.561,1.34033,-144.602,360
1569662452,321.246,-97.7801,-16.2967,179.561,1.34033,-144.602,360
1569662452,321.246,-97.7801,-16.2967,179.561,1.34033,-144.602,360
1569662452,321.246,-97.7801,-16.2967,179.561,1.34033,-144.602,360
1569662452,321.246,-97.7801,-16.2967,179.561,1.34033,-144.602,360
1569662452,321.246,-97.7801,-16.2967,179.561,1.34033,-144.602,360
1569662452,321.246,-97.7801,-16.2967,179.561,1.34033,-144.602,360
1569662452,321.246,-97.7801,-16.2967,179.561,1.34033,-144.602,360
1569662452,321.246,-97.7801,-16.2967,179.561,1.3623,-144.602,360
1569662452,321.246,-97.7801,-16.2967,179.561,1.3623,-144.602,360
1569662452,321.246,-97.7801,-16.2967,179.561,1.3623,-144.602,360
1569662452,321.246,-97.7801,-16.2967,179.561,1.3623,-144.602,360
1569662452,321.246,-97.7801,-16.2967,179.561,1.3623,-144.602,360
1569662452,321.246,-97.7801,-16.2967,179.561,1.3623,-144.602,364
1569662452,321.246,-97.7801,-16.2967,179.561,1.3623,-144.602,364
1569662452,321.246,-97.7801,-16.2967,179.561,1.3623,-144.602,364
1569662452,321.246,-97.7801,-16.2967,179.561,1.3623,-144.602,364
1569662452,321.246,-97.7801,-16.2967,179.539,1.3623,-144.602,364
1569662452,321.246,-97.7801,-16.2967,179.539,1.3623,-144.602,364
1569662452,321.246,-97.7801,-16.2967,179.539,1.3623,-144.602,364
1569662452,321.246,-97.7801,-16.2967,179.539,1.3623,-144.602,364
1569662452,321.246,-97.7801,-16.2967,179.539,1.3623,-144.602,368
1569662452,321.246,-97.7801,-16.2967,179.539,1.3623,-144.602,368
1569662452,321.246,-97.7801,-16.2967,179.539,1.3623,-144.602,368
1569662452,321.246,-97.7801,-16.2967,179.539,1.3623,-144.602,368
1569662452,321.246,-97.7801,-16.2967,179.539,1.3623,-144.602,368
1569662452,321.246,-97.7801,-16.2967,179.539,1.3623,-144.602,368
1569662452,321.246,-97.7801,-16.2967,179.539,1.3623,-144.602,368
1569662452,321.246,-97.7801,-16.2967,179.539,1.34033,-144.602,368
1569662452,321.246,-97.7801,-16.2967,179.539,1.34033,-144.602,368
1569662452,321.246,-97.7801,-16.2967,179.539,1.34033,-144.602,368
1569662452,321.246,-97.7801,-16.2967,179.539,1.34033,-144.602,368
1569662452,321.246,-97.8917,-16.2967,179.539,1.34033,-144.602,368
1569662452,321.246,-97.7801,-16.2967,179.539,1.34033,-144.602,368
1569662452,321.246,-97.7801,-16.2967,179.539,1.34033,-144.602,364
1569662452,321.246,-97.8917,-16.2967,179.539,1.34033,-144.602,364
1569662452,321.246,-97.8917,-16.2967,179.539,1.34033,-144.602,364
1569662452,321.246,-97.8917,-16.2967,179.539,1.34033,-144.602,364
1569662452,321.246,-97.8917,-16.2967,179.539,1.34033,-144.602,364
1569662452,321.246,-97.8917,-16.4083,179.539,1.34033,-144.602,364
1569662452,321.246,-97.8917,-16.4083,179.539,1.34033,-144.602,364
1569662452,321.246,-97.8917,-16.4083,179.539,1.34033,-144.602,364
1569662452,321.246,-97.8917,-16.4083,179.539,1.34033,-144.602,364
1569662452,321.246,-97.8917,-16.4083,179.539,1.34033,-144.602,360
1569662452,321.246,-97.8917,-16.4083,179.539,1.34033,-144.602,360
1569662452,321.246,-97.8917,-16.4083,179.539,1.34033,-144.602,360
1569662452,321.246,-97.8917,-16.4083,179.539,1.34033,-144.602,360
1569662452,321.134,-97.8917,-16.4083,179.539,1.34033,-144.602,360
1569662452,321.134,-97.8917,-16.4083,179.517,1.34033,-144.624,360
1569662452,321.134,-97.8917,-16.4083,179.517,1.34033,-144.624,360
1569662452,321.134,-97.8917,-16.4083,179.517,1.34033,-144.624,360
1569662452,321.134,-97.8917,-16.4083,179.517,1.34033,-144.624,360
1569662452,321.134,-97.8917,-16.4083,179.517,1.34033,-144.624,360
1569662452,321.134,-97.8917,-16.4083,179.517,1.34033,-144.624,360
1569662452,321.134,-97.8917,-16.4083,179.517,1.34033,-144.624,360
1569662452,321.134,-97.8917,-16.4083,179.517,1.34033,-144.624,360
1569662452,321.134,-97.8917,-16.4083,179.517,1.34033,-144.624,360
1569662452,321.134,-97.8917,-16.4083,179.517,1.34033,-144.624,360
1569662452,321.134,-97.8917,-16.4083,179.517,1.34033,-144.624,360
1569662452,321.134,-97.8917,-16.4083,179.517,1.34033,-144.624,360
1569662452,321.134,-97.8917,-16.4083,179.517,1.34033,-144.624,360
1569662452,321.134,-97.8917,-16.4083,179.517,1.34033,-144.624,360
1569662452,321.134,-97.8917,-16.4083,179.517,1.34033,-144.624,360
1569662452,321.134,-97.8917,-16.4083,179.517,1.34033,-144.624,364
1569662452,321.134,-97.8917,-16.2967,179.517,1.34033,-144.624,364
1569662452,321.134,-97.8917,-16.2967,179.517,1.34033,-144.624,364
1569662452,321.134,-97.8917,-16.2967,179.517,1.34033,-144.624,364
1569662452,321.134,-97.8917,-16.2967,179.517,1.34033,-144.624,364
1569662452,321.134,-97.8917,-16.2967,179.517,1.34033,-144.624,364
1569662452,321.134,-97.8917,-16.2967,179.517,1.34033,-144.624,364
1569662452,321.246,-97.8917,-16.2967,179.517,1.34033,-144.624,364
1569662452,321.246,-97.8917,-16.2967,179.517,1.34033,-144.624,364
1569662452,321.246,-97.8917,-16.2967,179.517,1.34033,-144.624,360
1569662453,321.246,-97.8917,-16.2967,179.517,1.34033,-144.602,360
1569662453,321.246,-97.8917,-16.2967,179.539,1.34033,-144.602,360
1569662453,321.246,-97.8917,-16.2967,179.539,1.34033,-144.602,360
1569662453,321.246,-97.8917,-16.2967,179.539,1.34033,-144.602,360
1569662453,321.246,-97.8917,-16.2967,179.539,1.34033,-144.602,360
1569662453,321.246,-97.8917,-16.2967,179.539,1.34033,-144.602,360
1569662453,321.246,-97.8917,-16.2967,179.539,1.34033,-144.602,356
1569662453,321.246,-97.7801,-16.2967,179.539,1.34033,-144.624,356
1569662453,321.246,-97.7801,-16.2967,179.539,1.34033,-144.624,356
1569662453,321.246,-97.7801,-16.2967,179.539,1.34033,-144.624,360
1569662453,321.246,-97.7801,-16.2967,179.539,1.34033,-144.624,360
1569662453,321.246,-97.7801,-16.2967,179.539,1.34033,-144.624,360
1569662453,321.246,-97.7801,-16.4083,179.539,1.34033,-144.624,360
1569662453,321.246,-97.7801,-16.4083,179.539,1.34033,-144.624,360
1569662453,321.246,-97.7801,-16.4083,179.539,1.34033,-144.624,360
1569662453,321.246,-97.7801,-16.4083,179.539,1.34033,-144.624,360
1569662453,321.134,-97.7801,-16.4083,179.539,1.34033,-144.624,364
1569662453,321.134,-97.7801,-16.4083,179.539,1.31836,-144.602,364
1569662453,321.134,-97.7801,-16.4083,179.539,1.31836,-144.602,364
1569662453,321.134,-97.7801,-16.4083,179.539,1.31836,-144.602,364
1569662453,321.246,-97.7801,-16.4083,179.539,1.31836,-144.602,364
1569662453,321.246,-97.7801,-16.4083,179.539,1.31836,-144.602,364
1569662453,321.246,-97.7801,-16.4083,179.539,1.31836,-144.602,368
1569662453,321.246,-97.7801,-16.4083,179.539,1.31836,-144.602,368
1569662453,321.246,-97.7801,-16.4083,179.539,1.31836,-144.602,368
1569662453,321.246,-97.7801,-16.4083,179.539,1.31836,-144.602,368
1569662453,321.246,-97.7801,-16.4083,179.539,1.31836,-144.602,368
1569662453,321.246,-97.7801,-16.4083,179.539,1.31836,-144.602,368
1569662453,321.246,-97.7801,-16.4083,179.539,1.31836,-144.602,368
1569662453,321.246,-97.7801,-16.4083,179.539,1.31836,-144.602,368
1569662453,321.246,-97.7801,-16.4083,179.539,1.34033,-144.624,368
1569662453,321.246,-97.7801,-16.4083,179.539,1.34033,-144.624,368
1569662453,321.246,-97.7801,-16.4083,179.539,1.34033,-144.624,368
1569662453,321.246,-97.7801,-16.4083,179.539,1.34033,-144.624,368
1569662453,321.246,-97.7801,-16.4083,179.539,1.34033,-144.624,368
1569662453,321.246,-97.7801,-16.4083,179.539,1.34033,-144.624,368
1569662453,321.246,-97.7801,-16.4083,179.539,1.34033,-144.624,368
1569662453,321.246,-97.7801,-16.4083,179.539,1.31836,-144.624,368
1569662453,321.246,-97.7801,-16.4083,179.539,1.31836,-144.624,368
1569662453,321.246,-97.7801,-16.4083,179.539,1.31836,-144.624,368
1569662453,321.134,-97.7801,-16.4083,179.539,1.31836,-144.602,368
1569662453,321.134,-97.7801,-16.4083,179.539,1.31836,-144.602,368
1569662453,321.134,-97.7801,-16.4083,179.539,1.31836,-144.602,368
1569662453,321.134,-97.7801,-16.4083,179.539,1.31836,-144.602,368
1569662453,321.134,-97.7801,-16.4083,179.539,1.31836,-144.602,372
1569662453,321.134,-97.7801,-16.4083,179.539,1.31836,-144.602,372
1569662453,321.134,-97.7801,-16.4083,179.539,1.31836,-144.602,372
1569662453,321.134,-97.7801,-16.4083,179.539,1.31836,-144.602,372
1569662453,321.134,-97.7801,-16.4083,179.539,1.31836,-144.602,372
1569662453,321.134,-97.7801,-16.4083,179.539,1.31836,-144.602,372
1569662453,321.134,-97.7801,-16.4083,179.539,1.31836,-144.602,372
1569662453,321.134,-97.7801,-16.4083,179.539,1.31836,-144.602,372
1569662453,321.134,-97.7801,-16.4083,179.539,1.31836,-144.602,372
1569662453,321.134,-97.7801,-16.4083,179.539,1.31836,-144.602,372
1569662453,321.134,-97.7801,-16.4083,179.539,1.31836,-144.602,372
1569662453,321.134,-97.7801,-16.4083,179.539,1.31836,-144.602,372
1569662453,321.134,-97.7801,-16.4083,179.539,1.31836,-144.602,372
1569662453,321.134,-97.7801,-16.4083,179.539,1.31836,-144.602,372
1569662453,321.134,-97.7801,-16.4083,179.539,1.31836,-144.602,372
1569662453,321.134,-97.7801,-16.4083,179.539,1.31836,-144.602,372
1569662453,321.134,-97.7801,-16.4083,179.539,1.31836,-144.602,372
1569662453,321.134,-97.7801,-16.4083,179.539,1.31836,-144.602,372
1569662453,321.134,-97.7801,-16.4083,179.539,1.31836,-144.602,376
1569662453,321.134,-97.7801,-16.4083,179.539,1.31836,-144.602,376
1569662453,321.134,-97.7801,-16.4083,179.539,1.31836,-144.602,376
1569662453,321.134,-97.7801,-16.4083,179.539,1.31836,-144.602,376
1569662453,321.134,-97.7801,-16.4083,179.539,1.31836,-144.602,376
1569662453,321.134,-97.7801,-16.4083,179.539,1.31836,-144.602,376
1569662453,321.134,-97.7801,-16.4083,179.539,1.31836,-144.602,372
1569662453,321.134,-97.7801,-16.4083,179.539,1.31836,-144.602,372
1569662453,321.134,-97.7801,-16.4083,179.539,1.31836,-144.602,372
1569662453,321.134,-97.7801,-16.4083,179.539,1.31836,-144.602,372
1569662453,321.134,-97.8917,-16.4083,179.539,1.31836,-144.602,372
1569662453,321.134,-97.8917,-16.4083,179.539,1.31836,-144.602,372
1569662453,321.134,-97.8917,-16.4083,179.539,1.31836,-144.602,368
1569662453,321.246,-97.8917,-16.4083,179.539,1.31836,-144.602,368
1569662453,321.246,-97.8917,-16.4083,179.539,1.31836,-144.602,368
1569662453,321.246,-97.8917,-16.4083,179.539,1.31836,-144.602,368
1569662453,321.246,-97.8917,-16.4083,179.539,1.31836,-144.602,368
1569662453,321.246,-97.8917,-16.4083,179.539,1.31836,-144.602,368
1569662453,321.246,-97.8917,-16.4083,179.517,1.31836,-144.602,364
1569662453,321.246,-97.8917,-16.4083,179.517,1.31836,-144.602,364
1569662453,321.246,-97.8917,-16.4083,179.539,1.31836,-144.602,364
1569662453,321.246,-97.8917,-16.4083,179.539,1.31836,-144.602,364
1569662453,321.246,-97.8917,-16.4083,179.539,1.31836,-144.602,364
1569662453,321.246,-97.8917,-16.4083,179.539,1.31836,-144.602,364
1569662453,321.246,-97.8917,-16.4083,179.539,1.31836,-144.602,364
1569662453,321.246,-97.8917,-16.4083,179.539,1.31836,-144.602,364
1569662453,321.246,-97.8917,-16.4083,179.539,1.31836,-144.602,360
1569662453,321.246,-97.8917,-16.4083,179.539,1.31836,-144.602,360
1569662453,321.246,-97.7801,-16.4083,179.539,1.31836,-144.602,360
1569662453,321.246,-97.7801,-16.4083,179.539,1.34033,-144.602,360
1569662453,321.246,-97.7801,-16.4083,179.539,1.34033,-144.602,360
1569662453,321.246,-97.7801,-16.2967,179.539,1.34033,-144.602,360
1569662453,321.246,-97.7801,-16.2967,179.539,1.34033,-144.602,360
1569662453,321.246,-97.7801,-16.2967,179.539,1.34033,-144.602,360
1569662453,321.246,-97.7801,-16.2967,179.539,1.3623,-144.602,360
1569662453,321.246,-97.7801,-16.2967,179.539,1.3623,-144.602,360
1569662453,321.246,-97.7801,-16.2967,179.539,1.3623,-144.602,360
1569662453,321.246,-97.7801,-16.2967,179.539,1.3623,-144.602,360
1569662454,321.246,-97.7801,-16.2967,179.539,1.3623,-144.602,360
1569662454,321.246,-97.7801,-16.2967,179.539,1.3623,-144.602,360
1569662454,321.246,-97.7801,-16.2967,179.561,1.3623,-144.602,360
1569662454,321.246,-97.7801,-16.2967,179.561,1.3623,-144.602,360
1569662454,321.246,-97.7801,-16.2967,179.561,1.3623,-144.602,360
1569662454,321.246,-97.7801,-16.2967,179.561,1.3623,-144.624,360
1569662454,321.246,-97.7801,-16.2967,179.561,1.3623,-144.624,356
1569662454,321.246,-97.7801,-16.2967,179.561,1.3623,-144.624,356
1569662454,321.246,-97.7801,-16.2967,179.561,1.3623,-144.624,356
1569662454,321.246,-97.7801,-16.2967,179.561,1.3623,-144.624,360
1569662454,321.246,-97.7801,-16.2967,179.561,1.3623,-144.624,360
1569662454,321.246,-97.7801,-16.2967,179.561,1.3623,-144.602,360
1569662454,321.246,-97.7801,-16.2967,179.583,1.3623,-144.602,360
1569662454,321.246,-97.7801,-16.2967,179.583,1.3623,-144.602,360
1569662454,321.246,-97.7801,-16.2967,179.583,1.3623,-144.602,360
1569662454,321.246,-97.7801,-16.2967,179.561,1.3623,-144.602,360
1569662454,321.246,-97.7801,-16.2967,179.561,1.3623,-144.602,364
1569662454,321.246,-97.7801,-16.2967,179.561,1.3623,-144.602,364
1569662454,321.246,-97.7801,-16.2967,179.561,1.3623,-144.602,364
1569662454,321.246,-97.7801,-16.2967,179.561,1.3623,-144.602,364
1569662454,321.246,-97.7801,-16.2967,179.561,1.3623,-144.602,364
1569662454,321.246,-97.7801,-16.2967,179.561,1.3623,-144.602,368
1569662454,321.246,-97.7801,-16.2967,179.561,1.3623,-144.602,368
1569662454,321.246,-97.7801,-16.2967,179.561,1.3623,-144.602,368
1569662454,321.246,-97.7801,-16.2967,179.561,1.3623,-144.602,368
1569662454,321.246,-97.7801,-16.2967,179.561,1.3623,-144.602,368
1569662454,321.246,-97.7801,-16.2967,179.561,1.3623,-144.602,368
1569662454,321.246,-97.7801,-16.2967,179.561,1.34033,-144.602,368
1569662454,321.246,-97.7801,-16.2967,179.561,1.34033,-144.624,368
1569662454,321.246,-97.7801,-16.2967,179.561,1.34033,-144.624,368
1569662454,321.246,-97.7801,-16.2967,179.561,1.34033,-144.624,368
1569662454,321.246,-97.7801,-16.2967,179.561,1.34033,-144.624,368
1569662454,321.246,-97.7801,-16.4083,179.561,1.34033,-144.624,368
1569662454,321.246,-97.7801,-16.4083,179.561,1.34033,-144.624,368
1569662454,321.246,-97.7801,-16.4083,179.561,1.34033,-144.624,368
1569662454,321.246,-97.7801,-16.4083,179.561,1.34033,-144.624,368
1569662454,321.246,-97.7801,-16.4083,179.561,1.34033,-144.624,368
1569662454,321.246,-97.7801,-16.4083,179.561,1.34033,-144.624,372
1569662454,321.246,-97.7801,-16.4083,179.561,1.34033,-144.624,372
1569662454,321.246,-97.7801,-16.4083,179.561,1.34033,-144.624,372
1569662454,321.134,-97.7801,-16.4083,179.561,1.34033,-144.624,372
1569662454,321.134,-97.7801,-16.2967,179.561,1.34033,-144.602,372
1569662454,321.134,-97.7801,-16.2967,179.561,1.34033,-144.602,372
1569662454,321.134,-97.7801,-16.2967,179.561,1.34033,-144.602,372
1569662454,321.134,-97.7801,-16.2967,179.561,1.34033,-144.602,372
1569662454,321.134,-97.7801,-16.2967,179.561,1.34033,-144.602,372
1569662454,321.134,-97.7801,-16.2967,179.561,1.34033,-144.602,376
1569662454,321.134,-97.7801,-16.2967,179.561,1.34033,-144.602,376
1569662454,321.134,-97.7801,-16.2967,179.561,1.34033,-144.602,376
1569662454,321.134,-97.7801,-16.2967,179.561,1.34033,-144.602,376
1569662454,321.134,-97.7801,-16.2967,179.539,1.34033,-144.602,376
1569662454,321.134,-97.7801,-16.2967,179.539,1.34033,-144.602,376
1569662454,321.134,-97.7801,-16.2967,179.539,1.34033,-144.602,376
1569662454,321.134,-97.7801,-16.2967,179.539,1.3623,-144.602,372
1569662454,321.134,-97.7801,-16.2967,179.539,1.3623,-144.602,372
1569662454,321.134,-97.7801,-16.2967,179.539,1.3623,-144.602,372
1569662454,321.134,-97.7801,-16.2967,179.539,1.3623,-144.602,372
1569662454,321.134,-97.7801,-16.2967,179.539,1.3623,-144.602,372
1569662454,321.134,-97.7801,-16.2967,179.539,1.3623,-144.602,372
1569662454,321.134,-97.7801,-16.2967,179.539,1.3623,-144.602,368
1569662454,321.134,-97.7801,-16.2967,179.539,1.3623,-144.602,368
1569662454,321.134,-97.7801,-16.2967,179.539,1.3623,-144.602,368
1569662454,321.134,-97.7801,-16.2967,179.539,1.3623,-144.602,368
1569662454,321.134,-97.7801,-16.2967,179.539,1.3623,-144.602,368
1569662454,321.134,-97.7801,-16.2967,179.539,1.34033,-144.602,368
1569662454,321.134,-97.7801,-16.2967,179.539,1.34033,-144.602,368
1569662454,321.134,-97.7801,-16.2967,179.539,1.34033,-144.602,364
1569662454,321.134,-97.7801,-16.2967,179.539,1.34033,-144.602,364
1569662454,321.134,-97.7801,-16.2967,179.539,1.34033,-144.602,364
1569662454,321.134,-97.7801,-16.2967,179.539,1.34033,-144.602,364
1569662454,321.246,-97.7801,-16.2967,179.539,1.34033,-144.602,364
1569662454,321.246,-97.7801,-16.2967,179.539,1.34033,-144.602,364
1569662454,321.134,-97.7801,-16.2967,179.539,1.34033,-144.602,364
1569662454,321.134,-97.7801,-16.2967,179.539,1.34033,-144.602,364
1569662454,321.134,-97.7801,-16.2967,179.539,1.34033,-144.602,364
1569662454,321.134,-97.7801,-16.2967,179.539,1.34033,-144.602,364
1569662454,321.134,-97.7801,-16.2967,179.539,1.34033,-144.602,364
1569662454,321.134,-97.7801,-16.2967,179.539,1.34033,-144.602,364
1569662454,321.134,-97.7801,-16.2967,179.539,1.34033,-144.602,364
1569662454,321.134,-97.7801,-16.2967,179.539,1.34033,-144.602,364
1569662454,321.134,-97.7801,-16.2967,179.539,1.34033,-144.602,364
1569662454,321.134,-97.7801,-16.2967,179.539,1.34033,-144.602,364
1569662454,321.134,-97.7801,-16.2967,179.539,1.34033,-144.602,368
1569662454,321.134,-97.7801,-16.2967,179.539,1.34033,-144.602,368
1569662454,321.134,-97.7801,-16.2967,179.539,1.34033,-144.602,368
1569662454,321.134,-97.7801,-16.2967,179.539,1.34033,-144.602,368
1569662454,321.134,-97.7801,-16.2967,179.539,1.34033,-144.602,368
1569662454,321.134,-97.7801,-16.2967,179.539,1.34033,-144.602,368
1569662454,321.134,-97.8917,-16.2967,179.539,1.34033,-144.602,368
1569662454,321.134,-97.8917,-16.2967,179.539,1.34033,-144.602,372
1569662454,321.134,-97.8917,-16.2967,179.539,1.34033,-144.602,372
1569662454,321.134,-97.8917,-16.2967,179.517,1.34033,-144.602,372
1569662454,321.134,-97.8917,-16.2967,179.517,1.34033,-144.602,372
1569662454,321.134,-97.8917,-16.2967,179.517,1.34033,-144.602,372
1569662454,321.134,-97.8917,-16.2967,179.517,1.34033,-144.602,372
1569662454,321.134,-97.8917,-16.2967,179.517,1.34033,-144.602,372
1569662454,321.134,-97.8917,-16.2967,179.517,1.34033,-144.602,372
1569662454,321.134,-97.8917,-16.2967,179.517,1.34033,-144.602,372
1569662454,321.134,-97.8917,-16.2967,179.517,1.34033,-144.602,372
1569662454,321.134,-97.8917,-16.2967,179.517,1.34033,-144.602,372
1569662455,321.134,-97.8917,-16.2967,179.517,1.34033,-144.602,372
1569662455,321.134,-97.8917,-16.2967,179.517,1.34033,-144.602,372
1569662455,321.134,-97.8917,-16.2967,179.517,1.34033,-144.602,368
1569662455,321.134,-97.8917,-16.2967,179.517,1.34033,-144.602,368
1569662455,321.134,-97.8917,-16.2967,179.517,1.34033,-144.602,368
1569662455,321.134,-97.8917,-16.2967,179.517,1.34033,-144.602,368
1569662455,321.134,-97.8917,-16.2967,179.517,1.34033,-144.602,368
1569662455,321.134,-97.8917,-16.2967,179.517,1.34033,-144.602,368
1569662455,321.134,-97.8917,-16.2967,179.517,1.34033,-144.602,368
1569662455,321.134,-97.8917,-16.2967,179.517,1.34033,-144.602,368
1569662455,321.134,-97.8917,-16.2967,179.517,1.34033,-144.602,368
1569662455,321.134,-97.8917,-16.2967,179.517,1.34033,-144.602,368
1569662455,321.134,-97.8917,-16.2967,179.517,1.34033,-144.602,368
1569662455,321.134,-97.8917,-16.2967,179.517,1.34033,-144.624,368
1569662455,321.134,-97.8917,-16.2967,179.517,1.34033,-144.624,368
1569662455,321.134,-97.8917,-16.2967,179.517,1.34033,-144.624,368
1569662455,321.134,-97.8917,-16.4083,179.517,1.34033,-144.624,368
1569662455,321.134,-97.8917,-16.4083,179.517,1.34033,-144.624,368
1569662455,321.246,-97.8917,-16.4083,179.517,1.34033,-144.624,364
1569662455,321.246,-97.8917,-16.4083,179.517,1.34033,-144.624,364
1569662455,321.246,-97.8917,-16.4083,179.517,1.34033,-144.624,364
1569662455,321.246,-97.8917,-16.4083,179.517,1.34033,-144.624,364
1569662455,321.246,-97.8917,-16.2967,179.517,1.34033,-144.602,364
1569662455,321.246,-97.8917,-16.2967,179.517,1.34033,-144.602,364
1569662455,321.246,-97.8917,-16.2967,179.517,1.34033,-144.602,364
1569662455,321.246,-97.8917,-16.2967,179.517,1.34033,-144.602,364
1569662455,321.246,-97.8917,-16.2967,179.539,1.34033,-144.602,364
1569662455,321.246,-97.8917,-16.2967,179.539,1.34033,-144.602,364
1569662455,321.246,-97.8917,-16.2967,179.539,1.3623,-144.602,364
1569662455,321.246,-97.7801,-16.2967,179.539,1.3623,-144.624,364
1569662455,321.246,-97.7801,-16.2967,179.539,1.34033,-144.624,364
1569662455,321.246,-97.7801,-16.2967,179.539,1.34033,-144.624,364
1569662455,321.246,-97.7801,-16.2967,179.539,1.34033,-144.624,364
1569662455,321.246,-97.7801,-16.2967,179.539,1.34033,-144.624,364
1569662455,321.246,-97.7801,-16.2967,179.539,1.34033,-144.624,364
1569662455,321.246,-97.7801,-16.2967,179.539,1.34033,-144.624,364
1569662455,321.246,-97.7801,-16.2967,179.539,1.34033,-144.624,364
1569662455,321.246,-97.7801,-16.2967,179.539,1.34033,-144.624,364
1569662455,321.246,-97.7801,-16.2967,179.539,1.34033,-144.624,364
1569662455,321.246,-97.7801,-16.2967,179.539,1.34033,-144.624,360
1569662455,321.246,-97.7801,-16.2967,179.539,1.34033,-144.624,360
1569662455,321.246,-97.7801,-16.2967,179.539,1.34033,-144.624,360
1569662455,321.246,-97.7801,-16.2967,179.539,1.34033,-144.624,360
1569662455,321.246,-97.7801,-16.2967,179.539,1.34033,-144.624,360
1569662455,321.246,-97.7801,-16.2967,179.539,1.34033,-144.624,360
1569662455,321.246,-97.7801,-16.2967,179.539,1.34033,-144.624,360
1569662455,321.246,-97.7801,-16.2967,179.539,1.34033,-144.624,360
1569662455,321.246,-97.7801,-16.2967,179.539,1.3623,-144.624,360
1569662455,321.246,-97.7801,-16.2967,179.539,1.3623,-144.624,360
1569662455,321.246,-97.7801,-16.2967,179.539,1.3623,-144.624,360
1569662455,321.246,-97.7801,-16.2967,179.539,1.3623,-144.624,360
1569662455,321.246,-97.7801,-16.2967,179.561,1.34033,-144.624,360
1569662455,321.246,-97.7801,-16.2967,179.561,1.34033,-144.624,364
1569662455,321.246,-97.7801,-16.2967,179.561,1.34033,-144.624,364
1569662455,321.246,-97.7801,-16.2967,179.561,1.34033,-144.624,364
1569662455,321.246,-97.7801,-16.2967,179.561,1.34033,-144.624,364
1569662455,321.246,-97.7801,-16.2967,179.561,1.34033,-144.624,364
1569662455,321.246,-97.7801,-16.2967,179.561,1.34033,-144.624,364
1569662455,321.246,-97.7801,-16.2967,179.561,1.34033,-144.624,368
1569662455,321.246,-97.7801,-16.2967,179.561,1.34033,-144.624,368
1569662455,321.246,-97.7801,-16.2967,179.539,1.34033,-144.624,368
1569662455,321.246,-97.7801,-16.2967,179.539,1.34033,-144.624,368
1569662455,321.246,-97.7801,-16.2967,179.539,1.34033,-144.624,368
1569662455,321.246,-97.7801,-16.2967,179.539,1.34033,-144.624,368
1569662455,321.246,-97.7801,-16.2967,179.539,1.34033,-144.624,372
1569662455,321.246,-97.7801,-16.2967,179.539,1.34033,-144.624,372
1569662455,321.246,-97.7801,-16.2967,179.539,1.34033,-144.624,372
1569662455,321.246,-97.8917,-16.2967,179.539,1.34033,-144.624,372
1569662455,321.246,-97.8917,-16.2967,179.539,1.34033,-144.624,372
1569662455,321.246,-97.8917,-16.2967,179.539,1.34033,-144.624,372
1569662455,321.246,-97.8917,-16.2967,179.539,1.34033,-144.624,372
1569662455,321.246,-97.8917,-16.2967,179.539,1.34033,-144.624,372
1569662455,321.246,-97.8917,-16.4083,179.539,1.34033,-144.624,372
1569662455,321.246,-97.8917,-16.4083,179.539,1.34033,-144.624,372
1569662455,321.246,-97.8917,-16.4083,179.539,1.34033,-144.624,372
1569662455,321.246,-97.8917,-16.4083,179.539,1.34033,-144.624,372
1569662455,321.246,-97.8917,-16.4083,179.539,1.34033,-144.624,372
1569662455,321.246,-97.8917,-16.4083,179.539,1.34033,-144.624,368
1569662455,321.246,-97.8917,-16.4083,179.539,1.34033,-144.624,368
1569662455,321.246,-97.8917,-16.4083,179.539,1.34033,-144.624,368
1569662455,321.246,-97.8917,-16.4083,179.539,1.34033,-144.624,368
1569662455,321.246,-97.8917,-16.4083,179.539,1.34033,-144.624,368
1569662455,321.246,-97.8917,-16.4083,179.539,1.34033,-144.624,368
1569662455,321.246,-97.8917,-16.4083,179.539,1.34033,-144.624,368
1569662455,321.246,-97.8917,-16.4083,179.539,1.31836,-144.602,368
1569662455,321.246,-97.8917,-16.4083,179.539,1.31836,-144.602,368
1569662455,321.246,-97.8917,-16.4083,179.539,1.31836,-144.602,364
1569662455,321.246,-97.8917,-16.4083,179.539,1.31836,-144.602,364
1569662455,321.246,-97.8917,-16.4083,179.539,1.31836,-144.602,364
1569662455,321.246,-97.8917,-16.4083,179.539,1.31836,-144.602,364
1569662455,321.246,-97.8917,-16.4083,179.539,1.31836,-144.602,364
1569662455,321.246,-97.7801,-16.4083,179.539,1.31836,-144.602,364
1569662455,321.246,-97.7801,-16.4083,179.539,1.31836,-144.602,364
1569662455,321.246,-97.7801,-16.4083,179.539,1.34033,-144.602,364
1569662455,321.246,-97.7801,-16.4083,179.539,1.34033,-144.602,364
1569662455,321.246,-97.7801,-16.4083,179.561,1.34033,-144.602,364
1569662455,321.246,-97.7801,-16.4083,179.561,1.34033,-144.602,364
1569662455,321.246,-97.7801,-16.2967,179.561,1.34033,-144.602,364
1569662455,321.246,-97.7801,-16.2967,179.561,1.34033,-144.602,364
1569662455,321.246,-97.7801,-16.2967,179.561,1.34033,-144.602,364
1569662456,321.246,-97.7801,-16.2967,179.561,1.34033,-144.602,364
1569662456,321.246,-97.7801,-16.2967,179.561,1.34033,-144.602,364
1569662456,321.246,-97.7801,-16.2967,179.539,1.34033,-144.602,364
1569662456,321.246,-97.8917,-16.2967,179.539,1.34033,-144.602,364
1569662456,321.246,-97.8917,-16.2967,179.539,1.34033,-144.602,364
1569662456,321.246,-97.8917,-16.2967,179.539,1.34033,-144.602,368
1569662456,321.246,-97.8917,-16.2967,179.539,1.34033,-144.602,368
1569662456,321.246,-97.8917,-16.2967,179.539,1.34033,-144.602,368
1569662456,321.246,-97.8917,-16.2967,179.539,1.34033,-144.602,368
1569662456,321.246,-97.8917,-16.2967,179.517,1.34033,-144.602,368
1569662456,321.246,-97.8917,-16.2967,179.517,1.34033,-144.602,368
1569662456,321.246,-97.8917,-16.2967,179.517,1.34033,-144.602,372
1569662456,321.246,-97.8917,-16.4083,179.517,1.34033,-144.602,372
1569662456,321.246,-97.8917,-16.4083,179.517,1.31836,-144.602,372
1569662456,321.246,-97.8917,-16.4083,179.517,1.31836,-144.602,372
1569662456,321.246,-97.8917,-16.4083,179.517,1.31836,-144.602,372
1569662456,321.246,-97.8917,-16.4083,179.517,1.31836,-144.602,372
1569662456,321.246,-97.8917,-16.4083,179.517,1.31836,-144.602,376
1569662456,321.246,-97.8917,-16.4083,179.517,1.31836,-144.624,376
1569662456,321.246,-97.8917,-16.4083,179.517,1.31836,-144.624,376
1569662456,321.246,-97.8917,-16.4083,179.517,1.31836,-144.624,376
1569662456,321.246,-97.8917,-16.4083,179.517,1.31836,-144.624,376
1569662456,321.246,-97.8917,-16.4083,179.517,1.31836,-144.624,376
1569662456,321.246,-97.8917,-16.4083,179.517,1.31836,-144.624,376
1569662456,321.246,-97.8917,-16.4083,179.517,1.31836,-144.624,376
1569662456,321.246,-97.8917,-16.4083,179.517,1.31836,-144.624,376
1569662456,321.246,-97.8917,-16.4083,179.517,1.31836,-144.624,376
1569662456,321.246,-97.8917,-16.4083,179.517,1.31836,-144.624,376
1569662456,321.246,-97.8917,-16.4083,179.517,1.31836,-144.624,376
1569662456,321.246,-97.8917,-16.4083,179.517,1.31836,-144.624,376
1569662456,321.246,-97.8917,-16.4083,179.517,1.31836,-144.624,376
1569662456,321.246,-97.8917,-16.4083,179.517,1.31836,-144.624,376
1569662456,321.246,-97.8917,-16.4083,179.517,1.31836,-144.624,376
1569662456,321.246,-97.8917,-16.4083,179.517,1.31836,-144.624,376
1569662456,321.246,-97.8917,-16.4083,179.517,1.31836,-144.624,376
1569662456,321.246,-97.8917,-16.4083,179.517,1.31836,-144.624,376
1569662456,321.246,-97.8917,-16.4083,179.539,1.31836,-144.624,376
1569662456,321.246,-97.8917,-16.4083,179.539,1.31836,-144.624,376
1569662456,321.246,-97.8917,-16.4083,179.539,1.31836,-144.624,376
1569662456,321.246,-97.8917,-16.4083,179.539,1.31836,-144.624,376
1569662456,321.246,-97.8917,-16.4083,179.539,1.31836,-144.624,376
1569662456,321.246,-97.7801,-16.4083,179.539,1.31836,-144.624,376
1569662456,321.246,-97.7801,-16.4083,179.539,1.31836,-144.624,372
1569662456,321.246,-97.7801,-16.4083,179.539,1.31836,-144.624,372
1569662456,321.246,-97.7801,-16.4083,179.539,1.31836,-144.624,372
1569662456,321.246,-97.7801,-16.4083,179.539,1.31836,-144.624,372
1569662456,321.246,-97.7801,-16.4083,179.539,1.31836,-144.624,372
1569662456,321.246,-97.7801,-16.4083,179.539,1.31836,-144.624,372
1569662456,321.246,-97.7801,-16.4083,179.561,1.31836,-144.624,372
1569662456,321.246,-97.7801,-16.4083,179.561,1.31836,-144.624,372
1569662456,321.246,-97.7801,-16.4083,179.561,1.31836,-144.624,372
1569662456,321.246,-97.7801,-16.4083,179.539,1.31836,-144.624,372
1569662456,321.246,-97.7801,-16.4083,179.539,1.31836,-144.624,372
1569662456,321.246,-97.7801,-16.4083,179.539,1.31836,-144.624,372
1569662456,321.246,-97.7801,-16.4083,179.539,1.31836,-144.624,372
1569662456,321.246,-97.7801,-16.4083,179.539,1.31836,-144.624,372
1569662456,321.246,-97.7801,-16.4083,179.539,1.31836,-144.624,372
1569662456,321.246,-97.7801,-16.4083,179.539,1.31836,-144.624,372
1569662456,321.246,-97.7801,-16.4083,179.539,1.31836,-144.624,372
1569662456,321.246,-97.7801,-16.4083,179.539,1.31836,-144.624,372
1569662456,321.134,-97.7801,-16.4083,179.539,1.31836,-144.624,372
1569662456,321.134,-97.7801,-16.4083,179.539,1.34033,-144.602,368
1569662456,321.134,-97.7801,-16.4083,179.539,1.34033,-144.602,368
1569662456,321.134,-97.7801,-16.4083,179.539,1.34033,-144.602,368
1569662456,321.134,-97.7801,-16.4083,179.539,1.34033,-144.602,368
1569662456,321.134,-97.7801,-16.4083,179.539,1.34033,-144.602,368
1569662456,321.134,-97.7801,-16.4083,179.539,1.34033,-144.602,368
1569662456,321.134,-97.7801,-16.4083,179.539,1.34033,-144.602,368
1569662456,321.134,-97.7801,-16.4083,179.539,1.34033,-144.602,368
1569662456,321.134,-97.7801,-16.4083,179.539,1.34033,-144.602,368
1569662456,321.134,-97.7801,-16.4083,179.539,1.34033,-144.602,368
1569662456,321.246,-97.7801,-16.4083,179.539,1.34033,-144.602,368
1569662456,321.246,-97.7801,-16.4083,179.539,1.34033,-144.602,368
1569662456,321.246,-97.7801,-16.4083,179.539,1.34033,-144.602,368
1569662456,321.246,-97.8917,-16.2967,179.517,1.34033,-144.602,368
1569662456,321.246,-97.8917,-16.2967,179.517,1.34033,-144.602,368
1569662456,321.246,-97.8917,-16.2967,179.517,1.34033,-144.602,368
1569662456,321.246,-97.8917,-16.2967,179.517,1.34033,-144.602,368
1569662456,321.246,-97.8917,-16.2967,179.517,1.34033,-144.602,368
1569662456,321.246,-97.8917,-16.2967,179.517,1.34033,-144.602,368
1569662456,321.246,-97.8917,-16.2967,179.517,1.34033,-144.602,368
1569662456,321.246,-97.8917,-16.2967,179.517,1.34033,-144.602,368
1569662456,321.246,-97.7801,-16.2967,179.539,1.34033,-144.602,368
1569662456,321.246,-97.7801,-16.2967,179.539,1.34033,-144.602,368
1569662456,321.246,-97.7801,-16.2967,179.539,1.34033,-144.602,364
1569662456,321.246,-97.7801,-16.2967,179.539,1.34033,-144.602,364
1569662456,321.246,-97.7801,-16.2967,179.539,1.34033,-144.602,364
1569662456,321.246,-97.7801,-16.2967,179.539,1.34033,-144.602,364
1569662456,321.246,-97.7801,-16.2967,179.539,1.34033,-144.602,364
1569662456,321.246,-97.7801,-16.2967,179.539,1.34033,-144.602,364
1569662456,321.246,-97.7801,-16.2967,179.539,1.34033,-144.602,364
1569662456,321.246,-97.7801,-16.2967,179.539,1.3623,-144.602,364
1569662456,321.246,-97.7801,-16.2967,179.539,1.3623,-144.602,364
1569662456,321.246,-97.7801,-16.2967,179.539,1.3623,-144.602,360
1569662456,321.246,-97.7801,-16.2967,179.539,1.3623,-144.602,360
1569662456,321.246,-97.7801,-16.2967,179.539,1.3623,-144.602,360
1569662456,321.246,-97.7801,-16.2967,179.539,1.3623,-144.602,360
1569662456,321.246,-97.7801,-16.2967,179.539,1.3623,-144.602,360
1569662456,321.246,-97.7801,-16.2967,179.539,1.3623,-144.602,360
1569662456,321.246,-97.7801,-16.2967,179.539,1.3623,-144.602,360
1569662457,321.246,-97.7801,-16.2967,179.539,1.3623,-144.602,360
1569662457,321.246,-97.7801,-16.2967,179.539,1.3623,-144.602,360
1569662461,336.426,-114.3,-16.2967,179.517,1.16455,-144.448,400
1569662461,336.426,-114.3,-16.2967,179.517,1.16455,-144.448,400
1569662461,336.426,-114.3,-16.2967,179.517,1.16455,-144.448,400
1569662461,336.426,-114.3,-16.2967,179.517,1.16455,-144.448,400
1569662461,336.426,-114.3,-16.2967,179.517,1.16455,-144.47,400
1569662461,336.426,-114.3,-16.2967,179.517,1.16455,-144.47,400
1569662461,336.426,-114.3,-16.2967,179.517,1.16455,-144.47,400
1569662461,336.426,-114.3,-16.2967,179.517,1.16455,-144.47,400
1569662461,336.426,-114.3,-16.2967,179.517,1.16455,-144.47,400
1569662461,336.426,-114.3,-16.2967,179.517,1.16455,-144.47,400
1569662461,336.426,-114.3,-16.2967,179.517,1.16455,-144.47,400
1569662461,336.426,-114.3,-16.2967,179.517,1.16455,-144.47,400
1569662461,336.426,-114.3,-16.2967,179.517,1.16455,-144.47,400
1569662461,336.426,-114.3,-16.2967,179.517,1.16455,-144.47,400
1569662461,336.426,-114.3,-16.2967,179.517,1.16455,-144.47,400
1569662461,336.426,-114.3,-16.2967,179.517,1.16455,-144.47,400
1569662461,336.426,-114.3,-16.2967,179.517,1.16455,-144.47,400
1569662461,336.426,-114.3,-16.2967,179.517,1.16455,-144.47,400
1569662461,336.426,-114.3,-16.2967,179.517,1.16455,-144.47,400
1569662461,336.426,-114.3,-16.2967,179.517,1.16455,-144.47,400
1569662461,336.426,-114.3,-16.2967,179.517,1.18652,-144.47,400
1569662461,336.426,-114.3,-16.2967,179.517,1.16455,-144.47,400
1569662461,336.426,-114.3,-16.2967,179.517,1.16455,-144.47,400
1569662461,336.426,-114.3,-16.2967,179.517,1.16455,-144.47,400
1569662461,336.426,-114.3,-16.2967,179.517,1.16455,-144.47,400
1569662461,336.426,-114.3,-16.2967,179.517,1.16455,-144.47,400
1569662461,336.426,-114.3,-16.2967,179.517,1.16455,-144.47,400
1569662461,336.426,-114.3,-16.2967,179.517,1.16455,-144.47,400
1569662461,336.426,-114.3,-16.2967,179.517,1.16455,-144.47,396
1569662461,336.426,-114.3,-16.2967,179.517,1.16455,-144.47,396
1569662461,336.426,-114.3,-16.2967,179.517,1.16455,-144.47,396
1569662461,336.426,-114.3,-16.2967,179.517,1.16455,-144.47,396
1569662462,336.426,-114.3,-16.2967,179.517,1.16455,-144.47,392
1569662462,336.426,-114.3,-16.2967,179.517,1.16455,-144.47,392
1569662462,336.426,-114.3,-16.2967,179.517,1.16455,-144.47,392
1569662462,336.426,-114.3,-16.2967,179.517,1.16455,-144.47,392
1569662462,336.426,-114.3,-16.2967,179.539,1.18652,-144.47,392
1569662462,336.426,-114.3,-16.2967,179.539,1.18652,-144.47,392
1569662462,336.426,-114.3,-16.2967,179.539,1.18652,-144.47,396
1569662462,336.426,-114.3,-16.2967,179.539,1.18652,-144.47,396
1569662462,336.426,-114.3,-16.2967,179.539,1.18652,-144.47,396
1569662462,336.426,-114.3,-16.2967,179.539,1.18652,-144.47,396
1569662462,336.426,-114.3,-16.2967,179.539,1.18652,-144.47,396
1569662462,336.426,-114.3,-16.2967,179.539,1.18652,-144.47,396
1569662462,336.426,-114.3,-16.2967,179.539,1.18652,-144.47,396
1569662462,336.426,-114.3,-16.2967,179.539,1.18652,-144.448,396
1569662462,336.426,-114.3,-16.2967,179.539,1.18652,-144.448,396
1569662462,336.426,-114.3,-16.2967,179.539,1.16455,-144.448,396
1569662462,336.426,-114.3,-16.2967,179.539,1.16455,-144.448,396
1569662462,336.426,-114.3,-16.2967,179.539,1.16455,-144.448,396
1569662462,336.426,-114.3,-16.2967,179.539,1.16455,-144.448,396
1569662462,336.426,-114.3,-16.2967,179.539,1.16455,-144.448,396
1569662462,336.426,-114.188,-16.2967,179.539,1.16455,-144.448,396
1569662462,336.426,-114.188,-16.2967,179.539,1.16455,-144.448,396
1569662462,336.426,-114.188,-16.2967,179.561,1.16455,-144.448,396
1569662462,336.426,-114.188,-16.2967,179.561,1.16455,-144.448,396
1569662462,336.426,-114.188,-16.2967,179.561,1.16455,-144.448,396
1569662462,336.426,-114.188,-16.2967,179.561,1.16455,-144.448,396
1569662462,336.426,-114.188,-16.2967,179.561,1.16455,-144.448,396
1569662462,336.426,-114.188,-16.2967,179.561,1.16455,-144.448,396
1569662462,336.426,-114.188,-16.2967,179.561,1.16455,-144.47,396
1569662462,336.426,-114.188,-16.2967,179.561,1.16455,-144.47,396
1569662462,336.426,-114.188,-16.2967,179.561,1.16455,-144.47,396
1569662462,336.426,-114.188,-16.2967,179.561,1.16455,-144.47,396
1569662462,336.426,-114.188,-16.2967,179.561,1.16455,-144.47,396
1569662462,336.426,-114.188,-16.2967,179.561,1.16455,-144.47,396
1569662462,336.426,-114.188,-16.2967,179.561,1.16455,-144.47,392
1569662462,336.426,-114.188,-16.2967,179.561,1.16455,-144.47,392
1569662462,336.426,-114.188,-16.2967,179.561,1.16455,-144.47,392
1569662462,336.426,-114.188,-16.2967,179.561,1.16455,-144.47,392
1569662462,336.426,-114.188,-16.2967,179.561,1.16455,-144.47,392
1569662462,336.426,-114.188,-16.2967,179.561,1.16455,-144.47,392
1569662462,336.426,-114.188,-16.2967,179.561,1.16455,-144.47,392
1569662462,336.426,-114.188,-16.2967,179.561,1.16455,-144.47,392
1569662462,336.426,-114.188,-16.2967,179.561,1.16455,-144.47,388
1569662462,336.426,-114.188,-16.2967,179.561,1.16455,-144.47,388
1569662462,336.426,-114.188,-16.2967,179.561,1.16455,-144.47,388
1569662462,336.426,-114.188,-16.2967,179.561,1.16455,-144.47,388
1569662462,336.426,-114.188,-16.2967,179.561,1.16455,-144.47,392
1569662462,336.426,-114.188,-16.2967,179.561,1.16455,-144.47,392
1569662462,336.426,-114.188,-16.2967,179.561,1.16455,-144.47,392
1569662462,336.426,-114.188,-16.2967,179.561,1.16455,-144.448,392
1569662462,336.426,-114.188,-16.2967,179.561,1.16455,-144.448,392
1569662462,336.426,-114.188,-16.2967,179.561,1.16455,-144.448,392
1569662462,336.426,-114.188,-16.2967,179.561,1.16455,-144.448,396
1569662462,336.426,-114.188,-16.2967,179.561,1.16455,-144.448,396
1569662462,336.426,-114.188,-16.2967,179.561,1.16455,-144.448,396
1569662462,336.426,-114.188,-16.2967,179.561,1.16455,-144.448,396
1569662462,336.426,-114.188,-16.2967,179.561,1.16455,-144.448,396
1569662462,336.426,-114.188,-16.2967,179.561,1.16455,-144.448,400
1569662462,336.426,-114.188,-16.2967,179.561,1.16455,-144.448,400
1569662462,336.426,-114.188,-16.2967,179.561,1.16455,-144.448,400
1569662462,336.426,-114.188,-16.2967,179.561,1.16455,-144.448,400
1569662462,336.426,-114.188,-16.2967,179.561,1.16455,-144.448,400
1569662462,336.426,-114.188,-16.2967,179.561,1.18652,-144.448,400
1569662462,336.426,-114.188,-16.2967,179.561,1.18652,-144.448,404
1569662462,336.426,-114.188,-16.2967,179.561,1.18652,-144.448,404
1569662462,336.426,-114.188,-16.2967,179.561,1.18652,-144.448,404
1569662462,336.426,-114.188,-16.2967,179.561,1.18652,-144.448,404
1569662462,336.426,-114.188,-16.2967,179.561,1.18652,-144.448,404
1569662462,336.426,-114.188,-16.2967,179.561,1.18652,-144.448,404
1569662462,336.426,-114.188,-16.2967,179.561,1.16455,-144.448,404
1569662462,336.426,-114.188,-16.2967,179.561,1.16455,-144.448,404
1569662462,336.426,-114.188,-16.2967,179.561,1.16455,-144.448,404
1569662462,336.426,-114.188,-16.2967,179.561,1.16455,-144.448,404
1569662462,336.426,-114.188,-16.2967,179.561,1.16455,-144.448,408
1569662462,336.426,-114.188,-16.2967,179.561,1.16455,-144.448,408
1569662462,336.426,-114.188,-16.2967,179.561,1.16455,-144.448,408
1569662462,336.426,-114.188,-16.4083,179.561,1.16455,-144.448,408
1569662462,336.426,-114.188,-16.4083,179.561,1.16455,-144.47,408
1569662462,336.426,-114.188,-16.4083,179.561,1.14258,-144.47,408
1569662462,336.426,-114.188,-16.4083,179.561,1.14258,-144.47,408
1569662462,336.426,-114.188,-16.4083,179.561,1.14258,-144.47,408
1569662462,336.426,-114.188,-16.4083,179.561,1.14258,-144.47,408
1569662462,336.426,-114.188,-16.4083,179.561,1.14258,-144.47,408
1569662462,336.426,-114.188,-16.4083,179.561,1.14258,-144.47,408
1569662462,336.426,-114.188,-16.4083,179.539,1.14258,-144.47,408
1569662462,336.426,-114.188,-16.4083,179.539,1.14258,-144.47,408
1569662462,336.426,-114.188,-16.4083,179.539,1.14258,-144.47,408
1569662462,336.426,-114.3,-16.4083,179.539,1.14258,-144.47,408
1569662462,336.426,-114.3,-16.4083,179.539,1.14258,-144.47,408
1569662462,336.426,-114.3,-16.4083,179.539,1.14258,-144.47,408
1569662462,336.426,-114.3,-16.4083,179.539,1.14258,-144.47,412
1569662462,336.426,-114.3,-16.4083,179.539,1.14258,-144.47,412
1569662462,336.426,-114.3,-16.4083,179.539,1.14258,-144.47,412
1569662462,336.426,-114.3,-16.4083,179.539,1.14258,-144.47,412
1569662462,336.426,-114.3,-16.4083,179.539,1.14258,-144.47,412
1569662462,336.426,-114.3,-16.4083,179.539,1.14258,-144.47,412
1569662462,336.426,-114.3,-16.4083,179.539,1.14258,-144.47,412
1569662462,336.426,-114.3,-16.4083,179.539,1.14258,-144.47,412
1569662462,336.426,-114.3,-16.4083,179.539,1.14258,-144.47,412
1569662462,336.426,-114.3,-16.4083,179.539,1.14258,-144.47,412
1569662463,336.426,-114.3,-16.4083,179.539,1.14258,-144.47,412
1569662463,336.426,-114.3,-16.4083,179.539,1.14258,-144.47,412
1569662463,336.426,-114.3,-16.4083,179.539,1.14258,-144.47,412
1569662463,336.426,-114.3,-16.4083,179.539,1.14258,-144.47,412
1569662463,336.426,-114.3,-16.4083,179.539,1.14258,-144.47,412
1569662463,336.426,-114.3,-16.4083,179.539,1.14258,-144.47,412
1569662463,336.426,-114.3,-16.4083,179.539,1.16455,-144.47,408
1569662463,336.426,-114.3,-16.4083,179.517,1.16455,-144.47,408
1569662463,336.426,-114.3,-16.4083,179.517,1.16455,-144.47,408
1569662463,336.426,-114.3,-16.4083,179.517,1.16455,-144.47,408
1569662463,336.426,-114.3,-16.4083,179.517,1.16455,-144.47,408
1569662463,336.426,-114.3,-16.4083,179.517,1.16455,-144.47,408
1569662463,336.426,-114.3,-16.4083,179.517,1.16455,-144.47,408
1569662463,336.426,-114.3,-16.4083,179.517,1.16455,-144.47,408
1569662463,336.314,-114.3,-16.4083,179.517,1.16455,-144.47,412
1569662463,336.314,-114.3,-16.4083,179.517,1.16455,-144.47,412
1569662463,336.314,-114.3,-16.4083,179.517,1.16455,-144.47,412
1569662463,336.314,-114.3,-16.4083,179.517,1.16455,-144.47,412
1569662463,336.314,-114.3,-16.4083,179.517,1.16455,-144.47,412
1569662463,336.314,-114.3,-16.4083,179.517,1.16455,-144.47,412
1569662463,336.314,-114.3,-16.4083,179.517,1.16455,-144.47,416
1569662463,336.314,-114.3,-16.4083,179.517,1.16455,-144.47,416
1569662463,336.314,-114.3,-16.4083,179.517,1.16455,-144.47,416
1569662463,336.314,-114.3,-16.4083,179.517,1.16455,-144.47,416
1569662463,336.426,-114.3,-16.2967,179.517,1.16455,-144.47,416
1569662463,336.426,-114.3,-16.2967,179.517,1.16455,-144.47,416
1569662463,336.426,-114.3,-16.2967,179.517,1.16455,-144.47,416
1569662463,336.426,-114.3,-16.2967,179.517,1.16455,-144.47,416
1569662463,336.426,-114.3,-16.2967,179.539,1.16455,-144.47,416
1569662463,336.426,-114.3,-16.2967,179.539,1.16455,-144.47,416
1569662463,336.426,-114.3,-16.2967,179.539,1.16455,-144.47,416
1569662463,336.426,-114.3,-16.2967,179.539,1.16455,-144.47,412
1569662463,336.426,-114.3,-16.2967,179.539,1.16455,-144.47,412
1569662463,336.426,-114.3,-16.2967,179.539,1.16455,-144.47,412
1569662463,336.426,-114.3,-16.2967,179.539,1.16455,-144.47,412
1569662463,336.426,-114.3,-16.2967,179.539,1.16455,-144.47,408
1569662463,336.426,-114.3,-16.2967,179.539,1.16455,-144.47,408
1569662463,336.426,-114.3,-16.4083,179.539,1.16455,-144.47,408
1569662463,336.426,-114.3,-16.4083,179.539,1.16455,-144.47,404
1569662463,336.426,-114.3,-16.4083,179.539,1.14258,-144.47,404
1569662463,336.426,-114.3,-16.4083,179.539,1.14258,-144.47,404
1569662463,336.426,-114.3,-16.4083,179.539,1.14258,-144.47,404
1569662463,336.426,-114.3,-16.4083,179.539,1.14258,-144.47,400
1569662463,336.426,-114.3,-16.4083,179.539,1.14258,-144.47,400
1569662463,336.426,-114.3,-16.4083,179.539,1.14258,-144.47,400
1569662463,336.426,-114.3,-16.4083,179.539,1.14258,-144.47,400
1569662463,336.426,-114.3,-16.4083,179.539,1.14258,-144.47,400
1569662463,336.426,-114.3,-16.4083,179.539,1.14258,-144.47,400
1569662463,336.426,-114.3,-16.4083,179.539,1.14258,-144.47,400
1569662463,336.426,-114.3,-16.4083,179.539,1.14258,-144.47,400
1569662463,336.426,-114.3,-16.4083,179.539,1.14258,-144.47,400
1569662463,336.426,-114.3,-16.4083,179.539,1.14258,-144.47,400
1569662463,336.426,-114.188,-16.4083,179.539,1.14258,-144.47,400
1569662463,336.426,-114.188,-16.4083,179.539,1.14258,-144.47,400
1569662463,336.426,-114.188,-16.4083,179.539,1.14258,-144.47,404
1569662463,336.426,-114.188,-16.4083,179.539,1.14258,-144.47,404
1569662463,336.426,-114.188,-16.4083,179.539,1.14258,-144.47,404
1569662463,336.426,-114.188,-16.4083,179.539,1.14258,-144.47,404
1569662463,336.426,-114.188,-16.4083,179.539,1.14258,-144.47,404
1569662463,336.426,-114.188,-16.4083,179.539,1.16455,-144.47,408
1569662463,336.426,-114.188,-16.4083,179.539,1.16455,-144.448,408
1569662463,336.426,-114.188,-16.2967,179.539,1.16455,-144.448,408
1569662463,336.426,-114.188,-16.2967,179.539,1.16455,-144.448,408
1569662463,336.426,-114.188,-16.2967,179.539,1.16455,-144.448,408
1569662463,336.426,-114.188,-16.2967,179.539,1.16455,-144.448,408
1569662463,336.426,-114.188,-16.2967,179.539,1.16455,-144.448,408
1569662463,336.426,-114.188,-16.2967,179.539,1.16455,-144.448,408
1569662463,336.426,-114.188,-16.2967,179.539,1.16455,-144.448,408
1569662463,336.426,-114.188,-16.2967,179.539,1.16455,-144.448,408
1569662463,336.426,-114.188,-16.2967,179.539,1.16455,-144.448,408
1569662463,336.426,-114.188,-16.2967,179.561,1.16455,-144.448,408
1569662463,336.426,-114.188,-16.4083,179.561,1.16455,-144.448,408
1569662463,336.426,-114.188,-16.4083,179.561,1.14258,-144.448,408
1569662463,336.426,-114.188,-16.4083,179.561,1.14258,-144.448,408
1569662463,336.426,-114.188,-16.4083,179.561,1.14258,-144.448,408
1569662463,336.426,-114.188,-16.4083,179.561,1.14258,-144.448,408
1569662463,336.426,-114.188,-16.4083,179.561,1.14258,-144.448,408
1569662463,336.426,-114.188,-16.4083,179.561,1.14258,-144.448,408
1569662463,336.426,-114.188,-16.4083,179.561,1.14258,-144.448,404
1569662463,336.426,-114.188,-16.4083,179.561,1.14258,-144.448,404
1569662463,336.426,-114.188,-16.4083,179.561,1.14258,-144.448,404
1569662463,336.426,-114.188,-16.4083,179.561,1.14258,-144.448,404
1569662463,336.426,-114.188,-16.4083,179.561,1.14258,-144.448,400
1569662463,336.426,-114.188,-16.2967,179.561,1.16455,-144.448,400
1569662463,336.426,-114.188,-16.2967,179.561,1.16455,-144.448,400
1569662463,336.426,-114.188,-16.2967,179.561,1.16455,-144.448,400
1569662463,336.426,-114.188,-16.2967,179.561,1.16455,-144.448,400
1569662463,336.426,-114.188,-16.2967,179.561,1.16455,-144.448,400
1569662463,336.426,-114.188,-16.2967,179.561,1.16455,-144.448,400
1569662463,336.426,-114.188,-16.2967,179.561,1.16455,-144.448,400
1569662463,336.426,-114.188,-16.2967,179.561,1.16455,-144.448,400
1569662463,336.426,-114.188,-16.2967,179.561,1.18652,-144.448,400
1569662463,336.426,-114.188,-16.2967,179.561,1.18652,-144.448,400
1569662463,336.426,-114.188,-16.2967,179.583,1.18652,-144.448,400
1569662463,336.426,-114.188,-16.2967,179.583,1.18652,-144.448,400
1569662463,336.426,-114.188,-16.2967,179.583,1.18652,-144.448,400
1569662463,336.426,-114.188,-16.2967,179.583,1.18652,-144.448,400
1569662463,336.426,-114.188,-16.2967,179.583,1.18652,-144.448,400
1569662463,336.426,-114.188,-16.2967,179.583,1.18652,-144.448,400
1569662463,336.426,-114.188,-16.2967,179.583,1.18652,-144.448,400
1569662464,336.426,-114.188,-16.2967,179.583,1.18652,-144.448,400
1569662464,336.426,-114.188,-16.2967,179.583,1.18652,-144.448,400
1569662464,336.426,-114.188,-16.2967,179.583,1.18652,-144.448,400
1569662464,336.426,-114.188,-16.2967,179.561,1.18652,-144.448,400
1569662464,336.426,-114.188,-16.2967,179.561,1.16455,-144.448,400
1569662464,336.426,-114.188,-16.2967,179.561,1.16455,-144.448,400
1569662464,336.426,-114.188,-16.2967,179.561,1.16455,-144.448,400
1569662464,336.426,-114.188,-16.2967,179.561,1.16455,-144.448,400
1569662464,336.426,-114.188,-16.2967,179.561,1.16455,-144.448,400
1569662464,336.426,-114.188,-16.2967,179.561,1.16455,-144.448,400
1569662464,336.426,-114.188,-16.2967,179.561,1.16455,-144.448,400
1569662464,336.426,-114.188,-16.2967,179.561,1.16455,-144.448,400
1569662464,336.426,-114.188,-16.2967,179.561,1.16455,-144.448,400
1569662464,336.426,-114.188,-16.2967,179.561,1.16455,-144.448,400
1569662464,336.426,-114.188,-16.2967,179.561,1.16455,-144.448,400
1569662464,336.426,-114.188,-16.2967,179.561,1.16455,-144.448,400
1569662464,336.426,-114.188,-16.2967,179.539,1.16455,-144.448,400
1569662464,336.426,-114.188,-16.2967,179.539,1.16455,-144.448,400
1569662464,336.426,-114.188,-16.2967,179.539,1.16455,-144.448,400
1569662464,336.426,-114.188,-16.4083,179.539,1.16455,-144.448,396
1569662464,336.426,-114.188,-16.4083,179.539,1.16455,-144.448,396
1569662464,336.426,-114.188,-16.4083,179.539,1.16455,-144.448,396
1569662464,336.426,-114.188,-16.4083,179.539,1.16455,-144.448,396
1569662464,336.426,-114.188,-16.4083,179.539,1.16455,-144.448,396
1569662464,336.426,-114.188,-16.4083,179.539,1.16455,-144.448,396
1569662464,336.426,-114.3,-16.4083,179.539,1.16455,-144.448,396
1569662464,336.426,-114.3,-16.2967,179.539,1.16455,-144.448,396
1569662464,336.426,-114.3,-16.2967,179.539,1.16455,-144.448,396
1569662464,336.426,-114.3,-16.2967,179.539,1.16455,-144.448,396
1569662464,336.426,-114.3,-16.2967,179.517,1.16455,-144.448,392
1569662464,336.426,-114.3,-16.2967,179.517,1.16455,-144.448,392
1569662464,336.426,-114.3,-16.2967,179.517,1.16455,-144.448,392
1569662464,336.426,-114.3,-16.2967,179.517,1.16455,-144.448,392
1569662464,336.426,-114.3,-16.2967,179.517,1.16455,-144.448,392
1569662464,336.426,-114.3,-16.2967,179.517,1.16455,-144.448,392
1569662464,336.426,-114.3,-16.2967,179.517,1.16455,-144.448,392
1569662464,336.426,-114.3,-16.2967,179.517,1.16455,-144.448,392
1569662464,336.426,-114.3,-16.2967,179.517,1.16455,-144.448,392
1569662464,336.426,-114.3,-16.4083,179.539,1.16455,-144.448,392
1569662464,336.426,-114.3,-16.4083,179.539,1.16455,-144.448,392
1569662464,336.426,-114.3,-16.4083,179.539,1.16455,-144.448,392
1569662464,336.426,-114.3,-16.4083,179.539,1.14258,-144.448,392
1569662464,336.426,-114.3,-16.4083,179.539,1.14258,-144.448,392
1569662464,336.426,-114.3,-16.4083,179.539,1.14258,-144.448,392
1569662464,336.426,-114.3,-16.4083,179.539,1.14258,-144.448,392
1569662464,336.426,-114.188,-16.4083,179.539,1.14258,-144.47,392
1569662464,336.426,-114.188,-16.4083,179.539,1.14258,-144.47,392
1569662464,336.426,-114.188,-16.4083,179.539,1.14258,-144.47,392
1569662464,336.426,-114.188,-16.4083,179.539,1.14258,-144.47,392
1569662464,336.426,-114.188,-16.4083,179.539,1.14258,-144.448,392
1569662464,336.426,-114.188,-16.4083,179.539,1.14258,-144.448,392
1569662464,336.426,-114.188,-16.4083,179.539,1.14258,-144.448,392
1569662464,336.426,-114.188,-16.4083,179.539,1.16455,-144.448,392
1569662464,336.426,-114.188,-16.4083,179.539,1.16455,-144.448,392
1569662464,336.426,-114.188,-16.4083,179.539,1.16455,-144.448,392
1569662464,336.426,-114.188,-16.4083,179.539,1.16455,-144.448,392
1569662464,336.426,-114.188,-16.4083,179.539,1.14258,-144.47,392
1569662464,336.426,-114.188,-16.4083,179.539,1.14258,-144.47,392
1569662464,336.426,-114.188,-16.4083,179.539,1.14258,-144.448,392
1569662464,336.426,-114.3,-16.4083,179.539,1.14258,-144.448,392
1569662464,336.426,-114.3,-16.4083,179.539,1.14258,-144.47,396
1569662464,336.426,-114.3,-16.4083,179.539,1.14258,-144.47,396
1569662464,336.426,-114.3,-16.4083,179.539,1.14258,-144.47,396
1569662464,336.426,-114.3,-16.4083,179.539,1.14258,-144.47,396
1569662464,336.426,-114.3,-16.4083,179.539,1.14258,-144.448,396
1569662464,336.426,-114.3,-16.4083,179.539,1.14258,-144.448,396
1569662464,336.426,-114.3,-16.4083,179.539,1.14258,-144.448,400
1569662464,336.426,-114.3,-16.4083,179.539,1.16455,-144.448,400
1569662464,336.426,-114.3,-16.4083,179.539,1.16455,-144.448,400
1569662464,336.426,-114.188,-16.4083,179.539,1.16455,-144.448,400
1569662464,336.426,-114.188,-16.2967,179.539,1.16455,-144.448,404
1569662464,336.426,-114.188,-16.2967,179.539,1.16455,-144.448,404
1569662464,336.426,-114.188,-16.2967,179.539,1.16455,-144.448,404
1569662464,336.426,-114.188,-16.2967,179.539,1.16455,-144.448,404
1569662464,336.426,-114.188,-16.2967,179.539,1.16455,-144.448,404
1569662464,336.426,-114.188,-16.2967,179.539,1.16455,-144.448,408
1569662464,336.426,-114.188,-16.2967,179.539,1.16455,-144.448,408
1569662464,336.426,-114.188,-16.2967,179.539,1.16455,-144.448,408
1569662464,336.426,-114.188,-16.2967,179.539,1.16455,-144.448,408
1569662464,336.426,-114.188,-16.2967,179.539,1.16455,-144.448,408
1569662464,336.426,-114.188,-16.2967,179.539,1.16455,-144.448,408
1569662464,336.426,-114.188,-16.2967,179.539,1.16455,-144.448,408
1569662464,336.426,-114.188,-16.2967,179.539,1.16455,-144.448,408
1569662464,336.426,-114.188,-16.4083,179.539,1.16455,-144.448,408
1569662464,336.426,-114.188,-16.4083,179.539,1.16455,-144.448,408
1569662464,336.426,-114.188,-16.4083,179.539,1.14258,-144.448,408
1569662464,336.426,-114.3,-16.4083,179.539,1.14258,-144.448,408
1569662464,336.426,-114.3,-16.4083,179.539,1.14258,-144.448,408
1569662464,336.426,-114.3,-16.4083,179.539,1.14258,-144.448,408
1569662464,336.426,-114.3,-16.4083,179.517,1.14258,-144.448,408
1569662464,336.426,-114.3,-16.4083,179.517,1.14258,-144.448,408
1569662464,336.426,-114.3,-16.4083,179.517,1.14258,-144.47,408
1569662464,336.426,-114.3,-16.4083,179.517,1.14258,-144.47,408
1569662464,336.426,-114.3,-16.4083,179.517,1.14258,-144.47,408
1569662464,336.426,-114.3,-16.4083,179.517,1.14258,-144.47,408
1569662464,336.426,-114.3,-16.4083,179.517,1.14258,-144.47,408
1569662464,336.426,-114.3,-16.4083,179.517,1.12061,-144.47,408
1569662464,336.426,-114.3,-16.4083,179.517,1.12061,-144.47,408
1569662464,336.426,-114.3,-16.4083,179.517,1.12061,-144.47,408
1569662464,336.426,-114.3,-16.4083,179.517,1.12061,-144.47,408
1569662465,336.426,-114.3,-16.4083,179.517,1.12061,-144.47,404
1569662465,336.426,-114.3,-16.4083,179.539,1.12061,-144.47,404
1569662465,336.426,-114.3,-16.4083,179.539,1.12061,-144.47,404
1569662465,336.426,-114.3,-16.4083,179.539,1.12061,-144.47,404
1569662465,336.426,-114.3,-16.4083,179.517,1.14258,-144.47,404
1569662465,336.426,-114.3,-16.4083,179.517,1.14258,-144.47,404
1569662465,336.426,-114.3,-16.4083,179.517,1.14258,-144.47,404
1569662465,336.426,-114.3,-16.4083,179.517,1.14258,-144.47,404
1569662465,336.426,-114.3,-16.4083,179.517,1.14258,-144.47,404
1569662465,336.426,-114.3,-16.4083,179.517,1.14258,-144.47,408
1569662465,336.426,-114.3,-16.4083,179.517,1.14258,-144.47,408
1569662465,336.426,-114.3,-16.4083,179.517,1.16455,-144.47,408
1569662465,336.426,-114.3,-16.4083,179.517,1.16455,-144.47,408
1569662465,336.426,-114.3,-16.4083,179.517,1.16455,-144.47,408
1569662465,336.426,-114.3,-16.4083,179.517,1.16455,-144.47,408
1569662465,336.426,-114.3,-16.4083,179.517,1.16455,-144.47,408
1569662465,336.426,-114.3,-16.4083,179.517,1.16455,-144.47,408
1569662465,336.426,-114.3,-16.4083,179.517,1.16455,-144.47,408
1569662465,336.426,-114.3,-16.4083,179.517,1.16455,-144.448,408
1569662465,336.426,-114.3,-16.4083,179.517,1.16455,-144.448,408
1569662465,336.426,-114.3,-16.4083,179.517,1.16455,-144.448,408
1569662465,336.426,-114.3,-16.4083,179.517,1.16455,-144.448,408
1569662465,336.426,-114.3,-16.4083,179.517,1.16455,-144.448,408
1569662465,336.426,-114.3,-16.4083,179.517,1.16455,-144.448,408
1569662465,336.426,-114.3,-16.4083,179.517,1.14258,-144.448,412
1569662465,336.426,-114.3,-16.4083,179.517,1.14258,-144.47,412
1569662465,336.426,-114.3,-16.4083,179.517,1.14258,-144.47,412
1569662465,336.426,-114.3,-16.4083,179.517,1.14258,-144.47,412
1569662465,336.426,-114.3,-16.4083,179.517,1.14258,-144.47,412
1569662465,336.426,-114.3,-16.4083,179.517,1.14258,-144.47,412
1569662465,336.426,-114.3,-16.4083,179.517,1.14258,-144.47,412
1569662465,336.426,-114.3,-16.4083,179.517,1.14258,-144.448,412
1569662465,336.426,-114.3,-16.4083,179.539,1.14258,-144.448,412
1569662465,336.426,-114.3,-16.4083,179.539,1.14258,-144.448,412
1569662465,336.426,-114.3,-16.4083,179.539,1.14258,-144.448,412
1569662465,336.426,-114.3,-16.4083,179.539,1.14258,-144.448,408
1569662465,336.426,-114.3,-16.4083,179.539,1.14258,-144.448,408
1569662465,336.426,-114.3,-16.4083,179.539,1.14258,-144.448,408
1569662465,336.426,-114.3,-16.4083,179.539,1.14258,-144.448,408
1569662465,336.426,-114.3,-16.4083,179.539,1.14258,-144.448,408
1569662465,336.426,-114.3,-16.4083,179.539,1.14258,-144.448,408
1569662465,336.426,-114.3,-16.4083,179.539,1.14258,-144.448,408
1569662465,336.426,-114.3,-16.4083,179.539,1.14258,-144.448,408
1569662465,336.426,-114.3,-16.4083,179.539,1.14258,-144.448,408
1569662465,336.426,-114.3,-16.4083,179.539,1.14258,-144.448,408
1569662465,336.426,-114.3,-16.4083,179.539,1.14258,-144.47,408
1569662465,336.426,-114.3,-16.4083,179.539,1.14258,-144.47,408
1569662465,336.426,-114.3,-16.4083,179.517,1.14258,-144.47,408
1569662465,336.426,-114.3,-16.4083,179.517,1.14258,-144.47,408
1569662465,336.426,-114.3,-16.4083,179.517,1.14258,-144.47,408
1569662465,336.426,-114.3,-16.4083,179.517,1.14258,-144.47,408
1569662465,336.426,-114.3,-16.4083,179.517,1.14258,-144.47,408
1569662465,336.426,-114.3,-16.4083,179.517,1.14258,-144.47,408
1569662465,336.426,-114.3,-16.4083,179.517,1.14258,-144.47,412
1569662465,336.426,-114.3,-16.4083,179.517,1.14258,-144.47,412
1569662465,336.426,-114.3,-16.4083,179.517,1.14258,-144.47,412
1569662465,336.426,-114.3,-16.4083,179.517,1.16455,-144.47,412
1569662465,336.426,-114.3,-16.4083,179.539,1.16455,-144.47,412
1569662465,336.426,-114.3,-16.4083,179.539,1.16455,-144.47,412
1569662465,336.426,-114.3,-16.4083,179.539,1.16455,-144.47,412
1569662465,336.426,-114.3,-16.2967,179.539,1.16455,-144.47,408
1569662465,336.426,-114.3,-16.2967,179.539,1.16455,-144.47,408
1569662465,336.426,-114.3,-16.2967,179.539,1.16455,-144.47,408
1569662465,336.426,-114.3,-16.2967,179.539,1.16455,-144.47,408
1569662465,336.426,-114.3,-16.2967,179.539,1.16455,-144.47,408
1569662465,336.426,-114.3,-16.2967,179.539,1.16455,-144.47,408
1569662465,336.426,-114.3,-16.2967,179.539,1.16455,-144.47,408
1569662465,336.426,-114.3,-16.2967,179.539,1.18652,-144.47,404
1569662465,336.426,-114.188,-16.2967,179.539,1.18652,-144.448,404
1569662465,336.426,-114.188,-16.2967,179.539,1.18652,-144.448,404
1569662465,336.426,-114.188,-16.2967,179.539,1.18652,-144.448,404
1569662465,336.426,-114.188,-16.2967,179.539,1.18652,-144.448,404
1569662465,336.426,-114.188,-16.2967,179.539,1.16455,-144.448,404
1569662465,336.426,-114.188,-16.2967,179.539,1.16455,-144.448,404
1569662465,336.426,-114.188,-16.2967,179.561,1.16455,-144.448,404
1569662465,336.426,-114.188,-16.2967,179.561,1.16455,-144.448,404
1569662465,336.426,-114.188,-16.2967,179.561,1.16455,-144.448,404
1569662465,336.426,-114.188,-16.2967,179.561,1.16455,-144.448,404
1569662465,336.426,-114.188,-16.4083,179.561,1.16455,-144.448,404
1569662465,336.426,-114.188,-16.4083,179.561,1.16455,-144.448,404
1569662465,336.426,-114.188,-16.4083,179.561,1.16455,-144.47,404
1569662465,336.426,-114.188,-16.4083,179.561,1.16455,-144.47,404
1569662465,336.426,-114.188,-16.4083,179.561,1.16455,-144.47,404
1569662465,336.426,-114.188,-16.4083,179.561,1.16455,-144.47,404
1569662465,336.426,-114.188,-16.4083,179.561,1.16455,-144.47,404
1569662465,336.426,-114.188,-16.4083,179.561,1.16455,-144.47,404
1569662465,336.426,-114.188,-16.4083,179.561,1.16455,-144.47,404
1569662465,336.426,-114.188,-16.4083,179.561,1.16455,-144.47,404
1569662465,336.426,-114.188,-16.4083,179.561,1.16455,-144.47,404
1569662465,336.426,-114.188,-16.4083,179.561,1.16455,-144.47,404
1569662465,336.426,-114.188,-16.4083,179.561,1.16455,-144.47,404
1569662465,336.426,-114.188,-16.2967,179.561,1.16455,-144.47,400
1569662465,336.426,-114.188,-16.2967,179.561,1.16455,-144.47,400
1569662465,336.426,-114.188,-16.2967,179.561,1.16455,-144.47,400
1569662465,336.426,-114.188,-16.2967,179.539,1.16455,-144.47,400
1569662465,336.426,-114.188,-16.2967,179.539,1.16455,-144.47,400
1569662465,336.426,-114.188,-16.2967,179.539,1.16455,-144.47,400
1569662465,336.426,-114.188,-16.2967,179.539,1.16455,-144.47,400
1569662465,336.426,-114.3,-16.2967,179.539,1.16455,-144.47,400
1569662465,336.426,-114.3,-16.2967,179.539,1.16455,-144.47,400
1569662466,336.426,-114.3,-16.2967,179.539,1.16455,-144.448,400
1569662466,336.426,-114.3,-16.2967,179.539,1.16455,-144.448,400
1569662466,336.426,-114.3,-16.2967,179.539,1.18652,-144.448,400
1569662466,336.426,-114.3,-16.2967,179.539,1.18652,-144.448,404
1569662466,336.426,-114.3,-16.2967,179.539,1.18652,-144.448,404
1569662466,336.426,-114.3,-16.2967,179.539,1.18652,-144.448,404
1569662466,336.426,-114.3,-16.2967,179.539,1.18652,-144.448,404
1569662466,336.426,-114.3,-16.2967,179.539,1.18652,-144.448,404
1569662466,336.426,-114.3,-16.2967,179.539,1.18652,-144.448,404
1569662466,336.426,-114.3,-16.2967,179.539,1.18652,-144.448,404
1569662466,336.426,-114.188,-16.2967,179.539,1.18652,-144.448,408
1569662466,336.426,-114.188,-16.2967,179.539,1.18652,-144.448,408
1569662466,336.426,-114.188,-16.2967,179.539,1.18652,-144.448,408
1569662466,336.426,-114.188,-16.2967,179.539,1.18652,-144.47,408
1569662466,336.426,-114.188,-16.2967,179.539,1.18652,-144.47,408
1569662466,336.426,-114.188,-16.2967,179.539,1.18652,-144.47,408
1569662466,336.426,-114.188,-16.2967,179.539,1.18652,-144.47,408
1569662466,336.426,-114.188,-16.2967,179.539,1.18652,-144.47,408
1569662466,336.426,-114.188,-16.2967,179.539,1.16455,-144.47,412
1569662466,336.426,-114.188,-16.2967,179.539,1.16455,-144.47,412
1569662466,336.426,-114.3,-16.2967,179.539,1.16455,-144.47,412
1569662466,336.426,-114.3,-16.2967,179.539,1.16455,-144.47,412
1569662466,336.426,-114.3,-16.2967,179.539,1.16455,-144.47,412
1569662466,336.426,-114.188,-16.4083,179.539,1.16455,-144.47,412
1569662466,336.426,-114.188,-16.4083,179.539,1.16455,-144.47,412
1569662466,336.426,-114.188,-16.4083,179.539,1.16455,-144.47,412
1569662466,336.426,-114.188,-16.4083,179.539,1.16455,-144.47,412
1569662466,336.426,-114.188,-16.4083,179.539,1.16455,-144.47,412
1569662466,336.426,-114.188,-16.4083,179.539,1.16455,-144.47,412
1569662466,336.426,-114.188,-16.4083,179.539,1.16455,-144.47,412
1569662466,336.426,-114.188,-16.4083,179.539,1.16455,-144.47,412
1569662466,336.426,-114.188,-16.4083,179.539,1.16455,-144.47,412
1569662466,336.426,-114.188,-16.4083,179.539,1.16455,-144.47,412
1569662466,336.426,-114.188,-16.4083,179.539,1.16455,-144.47,412
1569662466,336.426,-114.188,-16.4083,179.539,1.16455,-144.47,408
1569662466,336.426,-114.3,-16.4083,179.539,1.16455,-144.47,408
1569662466,336.426,-114.3,-16.4083,179.539,1.16455,-144.47,408
1569662466,336.426,-114.3,-16.4083,179.539,1.16455,-144.448,408
1569662466,336.426,-114.3,-16.2967,179.539,1.16455,-144.448,408
1569662466,336.426,-114.3,-16.2967,179.539,1.16455,-144.448,404
1569662466,336.538,-114.3,-16.2967,179.539,1.16455,-144.448,404
1569662466,336.538,-114.3,-16.2967,179.539,1.16455,-144.448,404
1569662466,336.538,-114.3,-16.2967,179.539,1.16455,-144.448,404
1569662466,336.538,-114.3,-16.2967,179.539,1.16455,-144.448,400
1569662466,336.538,-114.3,-16.2967,179.539,1.16455,-144.448,400
1569662466,336.538,-114.3,-16.2967,179.539,1.16455,-144.47,400
1569662466,336.538,-114.3,-16.2967,179.539,1.16455,-144.47,396
1569662466,336.538,-114.3,-16.2967,179.539,1.16455,-144.47,396
1569662466,336.538,-114.3,-16.2967,179.539,1.16455,-144.47,396
1569662466,336.538,-114.3,-16.2967,179.539,1.16455,-144.47,392
1569662466,336.538,-114.3,-16.2967,179.539,1.16455,-144.47,392
1569662466,336.538,-114.3,-16.2967,179.539,1.16455,-144.47,392
1569662466,336.426,-114.3,-16.2967,179.539,1.16455,-144.47,392
1569662466,336.426,-114.3,-16.2967,179.539,1.16455,-144.47,392
1569662466,336.426,-114.3,-16.2967,179.539,1.16455,-144.47,388
1569662466,336.426,-114.3,-16.2967,179.539,1.18652,-144.47,388
1569662466,336.426,-114.3,-16.2967,179.539,1.18652,-144.448,388
1569662466,336.426,-114.3,-16.2967,179.539,1.18652,-144.448,388
1569662466,336.426,-114.3,-16.2967,179.539,1.18652,-144.448,388
1569662466,336.426,-114.3,-16.2967,179.539,1.18652,-144.448,388
1569662466,336.426,-114.3,-16.2967,179.539,1.18652,-144.448,388
1569662466,336.426,-114.3,-16.2967,179.539,1.18652,-144.448,392
1569662466,336.426,-114.3,-16.2967,179.539,1.18652,-144.448,392
1569662466,336.426,-114.3,-16.2967,179.539,1.18652,-144.448,392
1569662466,336.426,-114.3,-16.2967,179.539,1.18652,-144.448,392
1569662466,336.426,-114.3,-16.2967,179.539,1.18652,-144.448,392
1569662466,336.426,-114.3,-16.2967,179.539,1.18652,-144.448,392
1569662466,336.426,-114.3,-16.2967,179.539,1.18652,-144.448,392
1569662472,359.197,-138.633,-15.9618,179.539,1.3623,-144.646,512
1569662472,359.197,-138.633,-15.9618,179.539,1.3623,-144.646,516
1569662472,359.197,-138.633,-15.9618,179.539,1.3623,-144.646,516
1569662472,359.197,-138.633,-16.0734,179.517,1.3623,-144.646,516
1569662472,359.197,-138.633,-16.0734,179.517,1.3623,-144.646,516
1569662472,359.197,-138.633,-16.0734,179.517,1.3623,-144.646,516
1569662472,359.197,-138.633,-16.0734,179.517,1.3623,-144.646,512
1569662472,359.197,-138.633,-16.0734,179.517,1.3623,-144.646,512
1569662472,359.197,-138.745,-16.0734,179.517,1.3623,-144.646,512
1569662472,359.197,-138.745,-16.0734,179.517,1.3623,-144.646,512
1569662472,359.197,-138.745,-16.0734,179.517,1.3623,-144.646,508
1569662472,359.197,-138.745,-16.0734,179.517,1.3623,-144.646,508
1569662472,359.197,-138.745,-16.0734,179.517,1.3623,-144.646,508
1569662472,359.197,-138.745,-16.0734,179.517,1.3623,-144.624,508
1569662472,359.308,-138.745,-16.0734,179.517,1.3623,-144.624,504
1569662472,359.308,-138.745,-15.9618,179.517,1.3623,-144.646,504
1569662472,359.308,-138.745,-15.9618,179.517,1.3623,-144.646,504
1569662472,359.308,-138.745,-15.9618,179.517,1.3623,-144.646,504
1569662472,359.308,-138.745,-15.9618,179.517,1.38428,-144.646,500
1569662472,359.308,-138.745,-15.9618,179.517,1.38428,-144.646,500
1569662472,359.308,-138.745,-15.9618,179.517,1.38428,-144.646,496
1569662472,359.308,-138.745,-15.9618,179.517,1.38428,-144.646,496
1569662472,359.308,-138.745,-15.9618,179.517,1.38428,-144.646,496
1569662472,359.308,-138.745,-15.9618,179.517,1.38428,-144.646,492
1569662472,359.308,-138.745,-15.9618,179.517,1.38428,-144.646,492
1569662472,359.308,-138.745,-15.9618,179.517,1.38428,-144.646,492
1569662472,359.308,-138.745,-15.9618,179.517,1.38428,-144.646,492
1569662472,359.308,-138.633,-15.9618,179.539,1.38428,-144.646,488
1569662472,359.308,-138.633,-15.9618,179.539,1.38428,-144.646,488
1569662472,359.308,-138.633,-15.9618,179.539,1.38428,-144.646,488
1569662472,359.308,-138.633,-15.9618,179.539,1.38428,-144.646,484
1569662472,359.308,-138.633,-15.9618,179.539,1.38428,-144.646,484
1569662472,359.308,-138.633,-15.9618,179.517,1.38428,-144.646,484
1569662472,359.308,-138.745,-15.9618,179.517,1.38428,-144.646,484
1569662472,359.308,-138.745,-15.9618,179.517,1.38428,-144.646,484
1569662472,359.308,-138.745,-15.9618,179.517,1.38428,-144.646,484
1569662472,359.308,-138.745,-15.9618,179.517,1.38428,-144.646,484
1569662472,359.308,-138.745,-15.9618,179.517,1.38428,-144.646,484
1569662472,359.308,-138.745,-15.9618,179.517,1.38428,-144.646,484
1569662472,359.308,-138.745,-15.9618,179.495,1.38428,-144.646,484
1569662472,359.308,-138.745,-15.9618,179.495,1.38428,-144.646,484
1569662472,359.308,-138.745,-15.9618,179.495,1.38428,-144.646,488
1569662472,359.308,-138.745,-15.9618,179.495,1.38428,-144.646,488
1569662472,359.308,-138.745,-15.9618,179.495,1.38428,-144.646,488
1569662472,359.308,-138.745,-15.9618,179.495,1.38428,-144.646,488
1569662472,359.308,-138.745,-15.9618,179.495,1.38428,-144.646,488
1569662472,359.308,-138.745,-15.9618,179.495,1.38428,-144.646,492
1569662472,359.308,-138.745,-15.9618,179.517,1.38428,-144.646,492
1569662472,359.308,-138.745,-15.9618,179.517,1.38428,-144.646,492
1569662472,359.308,-138.745,-15.9618,179.517,1.38428,-144.646,492
1569662472,359.308,-138.745,-15.9618,179.517,1.38428,-144.646,496
1569662472,359.308,-138.745,-15.9618,179.517,1.38428,-144.646,496
1569662472,359.308,-138.745,-15.9618,179.517,1.38428,-144.646,496
1569662472,359.308,-138.745,-15.9618,179.517,1.38428,-144.646,500
1569662472,359.308,-138.745,-15.9618,179.517,1.38428,-144.646,500
1569662472,359.308,-138.745,-15.9618,179.517,1.38428,-144.646,500
1569662472,359.308,-138.633,-15.9618,179.517,1.38428,-144.646,500
1569662472,359.308,-138.633,-15.9618,179.517,1.38428,-144.646,504
1569662472,359.308,-138.633,-15.9618,179.517,1.38428,-144.646,504
1569662472,359.308,-138.633,-15.9618,179.517,1.38428,-144.646,504
1569662472,359.308,-138.633,-15.9618,179.517,1.38428,-144.624,504
1569662472,359.308,-138.633,-15.9618,179.517,1.38428,-144.624,504
1569662472,359.308,-138.745,-15.9618,179.517,1.38428,-144.624,504
1569662472,359.308,-138.745,-15.9618,179.517,1.38428,-144.624,504
1569662472,359.308,-138.745,-15.9618,179.517,1.38428,-144.624,504
1569662472,359.197,-138.745,-15.9618,179.517,1.38428,-144.624,504
1569662472,359.197,-138.745,-15.9618,179.495,1.3623,-144.624,500
1569662472,359.197,-138.745,-15.9618,179.495,1.3623,-144.624,500
1569662472,359.197,-138.745,-15.9618,179.495,1.38428,-144.624,500
1569662472,359.197,-138.745,-15.9618,179.495,1.38428,-144.624,500
1569662472,359.197,-138.745,-15.9618,179.495,1.38428,-144.624,500
1569662472,359.197,-138.745,-15.9618,179.495,1.38428,-144.624,500
1569662472,359.197,-138.745,-15.9618,179.495,1.3623,-144.624,500
1569662472,359.197,-138.745,-15.9618,179.495,1.3623,-144.624,500
1569662472,359.197,-138.745,-15.9618,179.495,1.3623,-144.624,500
1569662472,359.197,-138.745,-15.9618,179.495,1.3623,-144.624,500
1569662472,359.197,-138.745,-15.9618,179.495,1.3623,-144.624,500
1569662472,359.197,-138.745,-15.9618,179.495,1.3623,-144.624,500
1569662472,359.197,-138.745,-15.9618,179.495,1.3623,-144.624,500
1569662472,359.197,-138.633,-15.9618,179.495,1.3623,-144.624,500
1569662472,359.197,-138.633,-16.0734,179.517,1.3623,-144.624,500
1569662472,359.197,-138.633,-16.0734,179.517,1.3623,-144.646,500
1569662472,359.197,-138.633,-16.0734,179.517,1.34033,-144.646,500
1569662472,359.308,-138.633,-16.0734,179.517,1.34033,-144.646,500
1569662472,359.308,-138.633,-16.0734,179.517,1.34033,-144.646,500
1569662472,359.308,-138.633,-16.0734,179.517,1.34033,-144.646,504
1569662472,359.308,-138.633,-16.0734,179.517,1.3623,-144.646,504
1569662472,359.308,-138.633,-16.0734,179.517,1.3623,-144.646,504
1569662472,359.308,-138.633,-16.0734,179.517,1.3623,-144.646,500
1569662472,359.308,-138.633,-16.0734,179.517,1.3623,-144.646,500
1569662472,359.308,-138.633,-16.0734,179.517,1.3623,-144.646,500
1569662472,359.308,-138.633,-16.0734,179.517,1.3623,-144.646,500
1569662472,359.308,-138.633,-16.0734,179.517,1.3623,-144.646,500
1569662472,359.308,-138.633,-16.0734,179.517,1.3623,-144.646,500
1569662472,359.308,-138.633,-16.0734,179.517,1.3623,-144.646,500
1569662472,359.308,-138.633,-16.0734,179.517,1.3623,-144.646,500
1569662472,359.308,-138.633,-16.0734,179.517,1.3623,-144.646,500
1569662473,359.308,-138.633,-16.0734,179.517,1.3623,-144.646,500
1569662473,359.308,-138.633,-16.0734,179.517,1.3623,-144.646,500
1569662473,359.308,-138.633,-16.0734,179.517,1.3623,-144.646,500
1569662473,359.308,-138.633,-16.0734,179.517,1.3623,-144.646,500
1569662473,359.308,-138.633,-16.0734,179.517,1.3623,-144.646,500
1569662473,359.308,-138.633,-16.0734,179.517,1.3623,-144.646,500
1569662473,359.308,-138.633,-16.0734,179.517,1.3623,-144.646,500
1569662473,359.308,-138.633,-16.0734,179.517,1.3623,-144.646,500
1569662473,359.197,-138.633,-16.0734,179.517,1.3623,-144.646,500
1569662473,359.308,-138.633,-16.0734,179.517,1.3623,-144.646,500
1569662473,359.308,-138.633,-15.9618,179.517,1.3623,-144.646,500
1569662473,359.308,-138.633,-15.9618,179.517,1.3623,-144.646,500
1569662473,359.308,-138.633,-15.9618,179.517,1.3623,-144.646,500
1569662473,359.308,-138.633,-15.9618,179.517,1.3623,-144.646,500
1569662473,359.308,-138.633,-15.9618,179.517,1.3623,-144.624,500
1569662473,359.308,-138.633,-15.9618,179.517,1.3623,-144.624,500
1569662473,359.308,-138.633,-15.9618,179.517,1.3623,-144.624,500
1569662473,359.308,-138.633,-15.9618,179.517,1.3623,-144.624,500
1569662473,359.308,-138.633,-15.9618,179.517,1.3623,-144.624,504
1569662473,359.308,-138.633,-15.9618,179.517,1.3623,-144.624,504
1569662473,359.308,-138.633,-15.9618,179.517,1.3623,-144.624,504
1569662473,359.308,-138.633,-15.9618,179.539,1.3623,-144.624,504
1569662473,359.308,-138.633,-15.9618,179.539,1.3623,-144.624,504
1569662473,359.308,-138.633,-15.9618,179.539,1.3623,-144.624,504
1569662473,359.308,-138.633,-15.9618,179.539,1.3623,-144.624,504
1569662473,359.308,-138.633,-15.9618,179.539,1.3623,-144.624,500
1569662473,359.308,-138.633,-15.9618,179.539,1.3623,-144.624,500
1569662473,359.308,-138.633,-15.9618,179.539,1.3623,-144.624,500
1569662473,359.308,-138.633,-15.9618,179.539,1.3623,-144.624,500
1569662473,359.308,-138.633,-15.9618,179.539,1.3623,-144.624,500
1569662473,359.308,-138.633,-15.9618,179.539,1.3623,-144.624,500
1569662473,359.308,-138.633,-15.9618,179.539,1.3623,-144.624,500
1569662473,359.308,-138.633,-15.9618,179.539,1.3623,-144.624,500
1569662473,359.308,-138.633,-15.9618,179.539,1.3623,-144.624,500
1569662473,359.308,-138.633,-15.9618,179.539,1.3623,-144.624,500
1569662473,359.308,-138.633,-15.9618,179.539,1.38428,-144.624,500
1569662473,359.308,-138.633,-15.9618,179.539,1.38428,-144.624,500
1569662473,359.308,-138.633,-15.9618,179.539,1.38428,-144.624,500
1569662473,359.308,-138.633,-15.9618,179.539,1.38428,-144.624,500
1569662473,359.308,-138.745,-15.9618,179.539,1.38428,-144.624,500
1569662473,359.308,-138.745,-15.9618,179.517,1.38428,-144.646,500
1569662473,359.308,-138.745,-15.9618,179.517,1.38428,-144.646,500
1569662473,359.308,-138.745,-15.9618,179.517,1.38428,-144.646,500
1569662473,359.308,-138.745,-15.9618,179.517,1.38428,-144.646,496
1569662473,359.308,-138.745,-15.9618,179.517,1.38428,-144.646,496
1569662473,359.308,-138.745,-15.9618,179.517,1.38428,-144.646,496
1569662473,359.308,-138.745,-15.9618,179.517,1.38428,-144.646,496
1569662473,359.308,-138.745,-15.9618,179.517,1.38428,-144.624,496
1569662473,359.308,-138.745,-15.9618,179.517,1.38428,-144.624,492
1569662473,359.308,-138.745,-15.9618,179.517,1.38428,-144.624,492
1569662473,359.308,-138.745,-15.9618,179.517,1.38428,-144.624,492
1569662473,359.308,-138.745,-15.9618,179.517,1.3623,-144.624,492
1569662473,359.308,-138.745,-15.9618,179.517,1.3623,-144.624,488
1569662473,359.308,-138.745,-16.0734,179.517,1.3623,-144.624,488
1569662473,359.308,-138.745,-16.0734,179.517,1.3623,-144.624,488
1569662473,359.308,-138.745,-16.0734,179.517,1.3623,-144.624,488
1569662473,359.308,-138.745,-16.0734,179.517,1.3623,-144.624,484
1569662473,359.308,-138.745,-16.0734,179.517,1.3623,-144.624,484
1569662473,359.308,-138.745,-16.0734,179.517,1.3623,-144.624,484
1569662473,359.308,-138.745,-16.0734,179.517,1.3623,-144.624,484
1569662473,359.308,-138.745,-16.0734,179.517,1.3623,-144.624,484
1569662473,359.308,-138.745,-16.0734,179.517,1.3623,-144.624,484
1569662473,359.308,-138.745,-16.0734,179.495,1.3623,-144.646,484
1569662473,359.308,-138.745,-15.9618,179.495,1.3623,-144.646,484
1569662473,359.308,-138.745,-15.9618,179.495,1.3623,-144.646,484
1569662473,359.308,-138.857,-15.9618,179.495,1.38428,-144.646,484
1569662473,359.308,-138.857,-15.9618,179.495,1.38428,-144.646,484
1569662473,359.308,-138.857,-15.9618,179.495,1.38428,-144.646,484
1569662473,359.308,-138.857,-15.9618,179.495,1.38428,-144.646,480
1569662473,359.308,-138.857,-15.9618,179.495,1.38428,-144.646,480
1569662473,359.308,-138.857,-15.9618,179.495,1.38428,-144.646,480
1569662473,359.42,-138.857,-15.9618,179.495,1.38428,-144.646,480
1569662473,359.42,-138.857,-15.9618,179.495,1.38428,-144.646,480
1569662473,359.42,-138.857,-15.9618,179.495,1.38428,-144.646,480
1569662473,359.42,-138.857,-15.9618,179.495,1.38428,-144.646,480
1569662473,359.42,-138.857,-15.9618,179.495,1.38428,-144.646,476
1569662473,359.42,-138.857,-15.9618,179.495,1.38428,-144.646,476
1569662473,359.42,-138.857,-15.9618,179.495,1.38428,-144.646,476
1569662473,359.42,-138.857,-15.9618,179.495,1.38428,-144.646,476
1569662473,359.42,-138.857,-15.9618,179.495,1.38428,-144.646,476
1569662473,359.42,-138.857,-15.9618,179.495,1.38428,-144.646,476
1569662473,359.42,-138.857,-15.9618,179.495,1.38428,-144.646,476
1569662473,359.308,-138.857,-15.9618,179.495,1.38428,-144.646,480
1569662473,359.308,-138.857,-15.9618,179.473,1.38428,-144.646,480
1569662473,359.308,-138.857,-15.9618,179.473,1.38428,-144.646,480
1569662473,359.308,-138.857,-15.9618,179.473,1.38428,-144.646,480
1569662473,359.308,-138.857,-15.9618,179.473,1.38428,-144.646,480
1569662473,359.308,-138.857,-15.9618,179.473,1.38428,-144.646,480
1569662473,359.308,-138.857,-15.9618,179.473,1.38428,-144.668,480
1569662473,359.308,-138.857,-15.9618,179.473,1.38428,-144.668,480
1569662473,359.308,-138.857,-15.9618,179.473,1.38428,-144.668,480
1569662473,359.308,-138.857,-15.9618,179.473,1.38428,-144.646,480
1569662473,359.308,-138.857,-15.9618,179.473,1.38428,-144.646,480
1569662473,359.308,-138.857,-15.9618,179.473,1.38428,-144.646,480
1569662473,359.308,-138.857,-15.9618,179.473,1.38428,-144.646,480
1569662473,359.308,-138.857,-16.0734,179.495,1.38428,-144.646,480
1569662473,359.308,-138.857,-16.0734,179.495,1.3623,-144.646,480
1569662473,359.308,-138.745,-16.0734,179.495,1.3623,-144.646,480
1569662473,359.308,-138.745,-16.0734,179.495,1.3623,-144.646,480
1569662473,359.308,-138.745,-16.0734,179.495,1.3623,-144.646,480
1569662474,359.308,-138.745,-16.0734,179.517,1.3623,-144.646,480
1569662474,359.308,-138.745,-16.0734,179.517,1.3623,-144.646,480
1569662474,359.308,-138.745,-16.0734,179.517,1.3623,-144.646,480
1569662474,359.308,-138.745,-16.0734,179.517,1.3623,-144.646,480
1569662474,359.308,-138.745,-16.0734,179.517,1.3623,-144.646,480
1569662474,359.308,-138.745,-16.0734,179.517,1.3623,-144.646,480
1569662474,359.308,-138.745,-16.0734,179.517,1.3623,-144.646,480
1569662474,359.308,-138.745,-16.0734,179.517,1.3623,-144.646,480
1569662474,359.308,-138.745,-16.0734,179.517,1.3623,-144.646,480
1569662474,359.308,-138.745,-16.0734,179.517,1.3623,-144.646,480
1569662474,359.308,-138.633,-16.0734,179.517,1.3623,-144.646,476
1569662474,359.308,-138.633,-16.0734,179.517,1.3623,-144.646,476
1569662474,359.308,-138.633,-16.0734,179.539,1.3623,-144.646,476
1569662474,359.308,-138.633,-16.0734,179.539,1.3623,-144.646,476
1569662474,359.308,-138.633,-16.0734,179.539,1.3623,-144.646,476
1569662474,359.308,-138.633,-16.0734,179.539,1.3623,-144.646,476
1569662474,359.308,-138.633,-16.0734,179.539,1.3623,-144.646,476
1569662474,359.308,-138.633,-16.0734,179.539,1.3623,-144.646,476
1569662474,359.308,-138.633,-16.0734,179.539,1.3623,-144.646,476
1569662474,359.308,-138.633,-16.0734,179.539,1.3623,-144.646,476
1569662474,359.308,-138.633,-16.0734,179.539,1.38428,-144.646,476
1569662474,359.308,-138.633,-16.0734,179.539,1.38428,-144.646,476
1569662474,359.308,-138.633,-16.0734,179.539,1.38428,-144.646,476
1569662474,359.308,-138.633,-16.0734,179.539,1.38428,-144.624,476
1569662474,359.308,-138.633,-16.0734,179.539,1.38428,-144.624,476
1569662474,359.308,-138.633,-16.0734,179.517,1.38428,-144.624,476
1569662474,359.308,-138.633,-16.0734,179.517,1.3623,-144.624,476
1569662474,359.308,-138.633,-16.0734,179.517,1.3623,-144.624,476
1569662474,359.308,-138.633,-16.0734,179.517,1.3623,-144.624,476
1569662474,359.308,-138.633,-16.0734,179.517,1.3623,-144.646,476
1569662474,359.308,-138.745,-16.0734,179.517,1.3623,-144.646,476
1569662474,359.308,-138.745,-16.0734,179.517,1.3623,-144.646,476
1569662474,359.308,-138.745,-16.0734,179.517,1.3623,-144.646,476
1569662474,359.308,-138.745,-16.0734,179.517,1.3623,-144.646,476
1569662474,359.308,-138.745,-16.0734,179.517,1.3623,-144.646,476
1569662474,359.308,-138.745,-16.0734,179.517,1.3623,-144.646,476
1569662474,359.308,-138.745,-16.0734,179.517,1.3623,-144.646,476
1569662474,359.308,-138.745,-16.0734,179.517,1.3623,-144.646,476
1569662474,359.308,-138.745,-16.0734,179.517,1.3623,-144.646,476
1569662474,359.308,-138.745,-16.0734,179.517,1.3623,-144.646,472
1569662474,359.308,-138.745,-16.0734,179.517,1.3623,-144.646,472
1569662474,359.308,-138.745,-16.0734,179.495,1.3623,-144.646,472
1569662474,359.308,-138.745,-16.0734,179.495,1.3623,-144.646,472
1569662474,359.308,-138.745,-16.0734,179.495,1.3623,-144.646,472
1569662474,359.308,-138.745,-16.0734,179.495,1.3623,-144.646,472
1569662474,359.308,-138.745,-16.0734,179.495,1.3623,-144.646,468
1569662474,359.308,-138.745,-16.0734,179.495,1.3623,-144.646,468
1569662474,359.308,-138.745,-16.0734,179.495,1.3623,-144.646,468
1569662474,359.308,-138.745,-16.0734,179.495,1.3623,-144.646,468
1569662474,359.308,-138.745,-16.0734,179.495,1.3623,-144.646,468
1569662474,359.308,-138.745,-16.0734,179.495,1.34033,-144.646,468
1569662474,359.308,-138.745,-16.0734,179.495,1.34033,-144.646,468
1569662474,359.308,-138.745,-16.0734,179.495,1.3623,-144.646,468
1569662474,359.308,-138.745,-16.0734,179.495,1.3623,-144.646,468
1569662474,359.308,-138.745,-16.0734,179.495,1.3623,-144.646,468
1569662474,359.308,-138.745,-16.0734,179.495,1.3623,-144.646,468
1569662474,359.308,-138.745,-16.0734,179.495,1.3623,-144.646,468
1569662474,359.308,-138.857,-16.0734,179.495,1.3623,-144.646,468
1569662474,359.308,-138.857,-15.9618,179.495,1.3623,-144.646,468
1569662474,359.308,-138.857,-15.9618,179.495,1.3623,-144.646,468
1569662474,359.308,-138.857,-15.9618,179.495,1.3623,-144.646,468
1569662474,359.308,-138.857,-15.9618,179.495,1.3623,-144.646,472
1569662474,359.308,-138.857,-15.9618,179.495,1.3623,-144.646,472
1569662474,359.308,-138.857,-15.9618,179.473,1.3623,-144.646,472
1569662474,359.308,-138.857,-15.9618,179.473,1.3623,-144.646,472
1569662474,359.308,-138.857,-15.9618,179.473,1.3623,-144.646,472
1569662474,359.308,-138.857,-15.9618,179.473,1.3623,-144.646,472
1569662474,359.308,-138.857,-15.9618,179.473,1.3623,-144.646,476
1569662474,359.308,-138.857,-15.9618,179.473,1.3623,-144.646,476
1569662474,359.308,-138.857,-15.9618,179.473,1.3623,-144.646,476
1569662474,359.308,-138.857,-15.9618,179.473,1.3623,-144.646,476
1569662474,359.308,-138.857,-15.9618,179.473,1.3623,-144.646,476
1569662474,359.308,-138.857,-15.9618,179.473,1.3623,-144.646,476
1569662474,359.308,-138.857,-15.9618,179.473,1.3623,-144.646,476
1569662474,359.308,-138.857,-15.9618,179.473,1.3623,-144.624,476
1569662474,359.308,-138.857,-15.9618,179.495,1.3623,-144.624,476
1569662474,359.308,-138.745,-15.9618,179.495,1.3623,-144.624,476
1569662474,359.308,-138.745,-15.9618,179.495,1.3623,-144.624,476
1569662474,359.308,-138.745,-15.9618,179.495,1.3623,-144.624,476
1569662474,359.308,-138.745,-15.9618,179.495,1.3623,-144.624,476
1569662474,359.308,-138.745,-15.9618,179.495,1.3623,-144.624,476
1569662474,359.308,-138.745,-15.9618,179.495,1.3623,-144.624,476
1569662474,359.308,-138.745,-15.9618,179.495,1.3623,-144.624,476
1569662474,359.308,-138.745,-15.9618,179.495,1.3623,-144.624,476
1569662474,359.308,-138.745,-15.9618,179.495,1.3623,-144.624,476
1569662474,359.308,-138.745,-15.9618,179.495,1.3623,-144.624,480
1569662474,359.308,-138.745,-15.9618,179.495,1.3623,-144.624,480
1569662474,359.308,-138.857,-15.9618,179.495,1.3623,-144.624,480
1569662474,359.308,-138.857,-15.9618,179.495,1.3623,-144.624,480
1569662474,359.308,-138.857,-15.9618,179.495,1.3623,-144.624,480
1569662474,359.308,-138.745,-15.9618,179.495,1.3623,-144.624,476
1569662474,359.308,-138.745,-15.9618,179.495,1.38428,-144.624,480
1569662474,359.308,-138.745,-15.9618,179.495,1.38428,-144.624,480
1569662474,359.308,-138.745,-15.9618,179.495,1.38428,-144.624,480
1569662474,359.308,-138.745,-15.9618,179.495,1.38428,-144.624,480
1569662474,359.308,-138.745,-15.9618,179.495,1.38428,-144.624,476
1569662474,359.308,-138.745,-15.9618,179.495,1.38428,-144.624,476
1569662474,359.308,-138.745,-15.9618,179.495,1.38428,-144.624,476
1569662474,359.308,-138.745,-15.9618,179.495,1.38428,-144.624,476
1569662474,359.308,-138.745,-15.9618,179.495,1.38428,-144.646,476
1569662475,359.308,-138.745,-15.9618,179.495,1.38428,-144.646,476
1569662475,359.308,-138.745,-15.9618,179.517,1.38428,-144.646,476
1569662475,359.308,-138.745,-15.9618,179.517,1.38428,-144.646,476
1569662475,359.308,-138.745,-15.9618,179.517,1.38428,-144.646,476
1569662475,359.308,-138.745,-15.9618,179.517,1.38428,-144.646,476
1569662475,359.308,-138.745,-15.9618,179.517,1.38428,-144.646,476
1569662475,359.197,-138.745,-15.9618,179.517,1.38428,-144.646,476
1569662475,359.197,-138.633,-15.9618,179.517,1.38428,-144.646,476
1569662475,359.197,-138.633,-15.9618,179.517,1.38428,-144.646,476
1569662475,359.197,-138.633,-15.9618,179.517,1.38428,-144.646,480
1569662475,359.197,-138.633,-15.9618,179.517,1.38428,-144.646,480
1569662475,359.197,-138.633,-15.9618,179.517,1.38428,-144.646,480
1569662475,359.308,-138.633,-15.9618,179.517,1.38428,-144.646,480
1569662475,359.308,-138.633,-15.9618,179.517,1.3623,-144.646,480
1569662475,359.308,-138.633,-15.9618,179.517,1.3623,-144.646,484
1569662475,359.308,-138.633,-16.0734,179.517,1.3623,-144.646,484
1569662475,359.308,-138.633,-16.0734,179.517,1.3623,-144.646,484
1569662475,359.308,-138.633,-16.0734,179.517,1.3623,-144.646,484
1569662475,359.308,-138.633,-16.0734,179.517,1.3623,-144.646,488
1569662475,359.308,-138.633,-16.0734,179.517,1.3623,-144.646,488
1569662475,359.308,-138.633,-16.0734,179.539,1.3623,-144.646,488
1569662475,359.308,-138.633,-16.0734,179.539,1.3623,-144.646,488
1569662475,359.308,-138.633,-16.0734,179.539,1.3623,-144.646,492
1569662475,359.308,-138.633,-16.0734,179.539,1.3623,-144.646,492
1569662475,359.308,-138.633,-16.0734,179.539,1.3623,-144.646,492
1569662475,359.308,-138.633,-16.0734,179.539,1.3623,-144.646,496
1569662475,359.308,-138.633,-16.0734,179.539,1.3623,-144.646,496
1569662475,359.308,-138.633,-15.9618,179.539,1.3623,-144.646,496
1569662475,359.308,-138.522,-15.9618,179.539,1.3623,-144.646,496
1569662475,359.308,-138.522,-16.0734,179.539,1.3623,-144.646,496
1569662475,359.308,-138.522,-16.0734,179.561,1.3623,-144.646,500
1569662475,359.308,-138.522,-16.0734,179.561,1.3623,-144.646,500
1569662475,359.308,-138.522,-16.0734,179.561,1.3623,-144.646,500
1569662475,359.308,-138.522,-16.0734,179.561,1.3623,-144.646,500
1569662475,359.308,-138.522,-16.0734,179.561,1.3623,-144.646,500
1569662475,359.308,-138.522,-16.0734,179.561,1.3623,-144.646,496
1569662475,359.308,-138.522,-16.0734,179.561,1.3623,-144.646,496
1569662475,359.308,-138.633,-16.0734,179.561,1.3623,-144.646,496
1569662475,359.308,-138.633,-16.0734,179.561,1.34033,-144.646,496
1569662475,359.308,-138.633,-16.0734,179.561,1.34033,-144.646,496
1569662475,359.308,-138.633,-16.0734,179.539,1.34033,-144.646,496
1569662475,359.308,-138.633,-16.0734,179.539,1.34033,-144.646,496
1569662475,359.308,-138.633,-16.0734,179.539,1.34033,-144.646,496
1569662475,359.308,-138.633,-16.0734,179.539,1.34033,-144.646,492
1569662475,359.308,-138.633,-16.0734,179.539,1.34033,-144.646,492
1569662475,359.308,-138.633,-16.0734,179.539,1.31836,-144.646,492
1569662475,359.308,-138.633,-16.0734,179.539,1.31836,-144.646,492
1569662475,359.308,-138.633,-16.0734,179.539,1.31836,-144.646,492
1569662475,359.308,-138.633,-16.1851,179.539,1.31836,-144.646,492
1569662475,359.308,-138.633,-16.1851,179.539,1.31836,-144.646,492
1569662475,359.308,-138.745,-16.0734,179.539,1.31836,-144.646,492
1569662475,359.308,-138.745,-16.0734,179.517,1.31836,-144.646,492
1569662475,359.308,-138.745,-16.0734,179.517,1.31836,-144.646,492
1569662475,359.308,-138.745,-16.0734,179.517,1.31836,-144.646,492
1569662475,359.308,-138.745,-16.0734,179.517,1.31836,-144.646,492
1569662475,359.308,-138.745,-16.0734,179.517,1.31836,-144.646,488
1569662475,359.308,-138.745,-16.0734,179.517,1.31836,-144.646,488
1569662475,359.308,-138.633,-16.0734,179.539,1.31836,-144.646,488
1569662475,359.308,-138.633,-16.0734,179.539,1.31836,-144.646,488
1569662475,359.308,-138.633,-16.0734,179.539,1.34033,-144.646,488
1569662475,359.308,-138.633,-16.0734,179.539,1.34033,-144.646,488
1569662475,359.308,-138.633,-16.0734,179.539,1.34033,-144.646,488
1569662475,359.308,-138.633,-16.0734,179.539,1.34033,-144.646,488
1569662475,359.308,-138.633,-16.0734,179.539,1.34033,-144.646,488
1569662475,359.308,-138.633,-16.0734,179.539,1.34033,-144.646,488
1569662475,359.308,-138.633,-16.0734,179.539,1.34033,-144.646,488
1569662475,359.308,-138.633,-16.0734,179.539,1.34033,-144.646,488
1569662475,359.308,-138.633,-16.0734,179.539,1.34033,-144.646,488
1569662475,359.308,-138.633,-16.0734,179.539,1.3623,-144.646,492
1569662475,359.308,-138.633,-16.0734,179.539,1.3623,-144.646,492
1569662475,359.308,-138.633,-16.0734,179.517,1.3623,-144.646,492
1569662475,359.308,-138.633,-16.0734,179.517,1.3623,-144.646,492
1569662475,359.308,-138.745,-16.0734,179.517,1.34033,-144.646,492
1569662475,359.308,-138.745,-16.0734,179.517,1.34033,-144.646,492
1569662475,359.308,-138.745,-16.0734,179.517,1.34033,-144.646,496
1569662475,359.308,-138.745,-16.0734,179.517,1.3623,-144.646,496
1569662475,359.308,-138.745,-15.9618,179.517,1.3623,-144.646,496
1569662475,359.308,-138.745,-15.9618,179.517,1.3623,-144.646,496
1569662475,359.308,-138.745,-15.9618,179.517,1.3623,-144.646,496
1569662475,359.308,-138.745,-15.9618,179.517,1.3623,-144.646,500
1569662475,359.308,-138.745,-15.9618,179.517,1.3623,-144.646,500
1569662475,359.308,-138.745,-15.9618,179.517,1.3623,-144.646,500
1569662475,359.308,-138.745,-15.9618,179.517,1.3623,-144.646,500
1569662475,359.308,-138.745,-15.9618,179.517,1.3623,-144.646,500
1569662475,359.308,-138.745,-15.9618,179.517,1.3623,-144.646,500
1569662475,359.308,-138.745,-15.9618,179.517,1.3623,-144.646,500
1569662475,359.308,-138.745,-15.9618,179.517,1.3623,-144.646,500
1569662475,359.308,-138.745,-15.9618,179.517,1.3623,-144.646,500
1569662475,359.308,-138.745,-15.9618,179.517,1.3623,-144.646,500
1569662475,359.308,-138.633,-15.9618,179.517,1.3623,-144.646,500
1569662475,359.308,-138.633,-15.9618,179.517,1.3623,-144.646,500
1569662475,359.308,-138.633,-15.9618,179.517,1.38428,-144.646,500
1569662475,359.308,-138.633,-15.9618,179.539,1.38428,-144.646,500
1569662475,359.308,-138.633,-15.9618,179.539,1.38428,-144.646,500
1569662475,359.308,-138.633,-15.9618,179.539,1.38428,-144.646,500
1569662475,359.308,-138.633,-15.9618,179.539,1.3623,-144.624,500
1569662475,359.308,-138.633,-15.9618,179.539,1.3623,-144.624,500
1569662475,359.308,-138.633,-15.9618,179.539,1.3623,-144.624,496
1569662475,359.308,-138.633,-15.9618,179.539,1.3623,-144.624,496
1569662475,359.308,-138.633,-15.9618,179.539,1.3623,-144.624,496
1569662476,359.308,-138.633,-15.9618,179.561,1.3623,-144.624,496
1569662476,359.308,-138.522,-15.9618,179.561,1.3623,-144.624,496
1569662476,359.308,-138.522,-15.9618,179.561,1.3623,-144.624,496
1569662476,359.308,-138.522,-15.9618,179.561,1.3623,-144.624,496
1569662476,359.308,-138.522,-15.9618,179.561,1.3623,-144.624,496
1569662476,359.308,-138.633,-15.9618,179.561,1.3623,-144.624,496
1569662476,359.308,-138.633,-15.9618,179.561,1.3623,-144.624,496
1569662476,359.308,-138.633,-15.9618,179.561,1.3623,-144.624,496
1569662476,359.308,-138.633,-15.9618,179.561,1.3623,-144.624,496
1569662476,359.308,-138.633,-15.9618,179.561,1.3623,-144.624,496
1569662476,359.308,-138.633,-15.9618,179.561,1.3623,-144.624,496
1569662476,359.308,-138.633,-15.9618,179.561,1.3623,-144.624,496
1569662476,359.308,-138.633,-15.9618,179.561,1.3623,-144.624,496
1569662476,359.308,-138.633,-15.9618,179.539,1.38428,-144.624,492
1569662476,359.308,-138.633,-15.9618,179.539,1.38428,-144.624,492
1569662476,359.308,-138.633,-15.9618,179.539,1.38428,-144.624,492
1569662476,359.308,-138.633,-15.9618,179.539,1.38428,-144.624,492
1569662476,359.308,-138.633,-15.9618,179.539,1.38428,-144.624,492
1569662476,359.308,-138.633,-15.9618,179.539,1.38428,-144.624,492
1569662476,359.308,-138.633,-15.9618,179.539,1.38428,-144.624,492
1569662476,359.308,-138.633,-15.9618,179.539,1.38428,-144.624,492
1569662476,359.308,-138.745,-15.9618,179.517,1.38428,-144.624,496
1569662476,359.308,-138.745,-15.9618,179.517,1.38428,-144.624,496
1569662476,359.308,-138.745,-15.9618,179.517,1.38428,-144.624,496
1569662476,359.308,-138.745,-15.9618,179.517,1.38428,-144.624,496
1569662476,359.308,-138.745,-15.9618,179.517,1.38428,-144.624,496
1569662476,359.308,-138.745,-15.9618,179.517,1.38428,-144.624,496
1569662476,359.308,-138.745,-15.9618,179.517,1.38428,-144.624,496
1569662476,359.308,-138.745,-15.9618,179.495,1.38428,-144.624,496
1569662476,359.308,-138.745,-15.9618,179.495,1.38428,-144.624,496
1569662476,359.308,-138.745,-15.9618,179.495,1.3623,-144.624,496
1569662476,359.308,-138.857,-15.9618,179.495,1.3623,-144.624,496
1569662476,359.308,-138.857,-15.9618,179.495,1.3623,-144.624,496
1569662476,359.308,-138.857,-15.9618,179.495,1.3623,-144.624,496
1569662476,359.308,-138.857,-15.9618,179.495,1.3623,-144.624,500
1569662476,359.308,-138.857,-15.9618,179.495,1.38428,-144.624,500
1569662476,359.308,-138.857,-15.9618,179.495,1.38428,-144.624,500
1569662476,359.308,-138.857,-15.9618,179.495,1.38428,-144.624,500
1569662476,359.308,-138.745,-15.9618,179.495,1.38428,-144.624,500
1569662476,359.308,-138.745,-15.9618,179.495,1.38428,-144.624,500
1569662476,359.308,-138.745,-15.9618,179.495,1.38428,-144.624,500
1569662476,359.308,-138.745,-15.8502,179.495,1.40625,-144.624,500
1569662476,359.308,-138.745,-15.8502,179.495,1.40625,-144.624,500
1569662476,359.308,-138.745,-15.8502,179.517,1.40625,-144.624,500
1569662476,359.308,-138.745,-15.8502,179.517,1.40625,-144.624,500
1569662476,359.308,-138.745,-15.8502,179.517,1.40625,-144.624,500
1569662476,359.308,-138.745,-15.8502,179.517,1.40625,-144.624,500
1569662476,359.308,-138.745,-15.8502,179.517,1.38428,-144.624,496
1569662476,359.308,-138.745,-15.8502,179.517,1.38428,-144.624,496
1569662476,359.42,-138.745,-15.9618,179.517,1.38428,-144.624,496
1569662476,359.308,-138.745,-15.9618,179.517,1.38428,-144.624,496
1569662476,359.308,-138.745,-15.9618,179.517,1.38428,-144.624,496
1569662476,359.308,-138.745,-15.9618,179.517,1.38428,-144.624,496
1569662476,359.308,-138.745,-15.9618,179.517,1.38428,-144.646,496
1569662476,359.308,-138.745,-15.9618,179.517,1.38428,-144.646,496
1569662476,359.308,-138.745,-15.9618,179.517,1.38428,-144.646,496
1569662476,359.308,-138.745,-15.9618,179.517,1.38428,-144.646,496
1569662476,359.308,-138.745,-15.9618,179.517,1.38428,-144.646,496
1569662476,359.308,-138.745,-15.9618,179.517,1.38428,-144.646,496
1569662476,359.308,-138.745,-15.9618,179.517,1.3623,-144.646,496
1569662476,359.308,-138.745,-15.9618,179.517,1.3623,-144.646,500
1569662476,359.308,-138.745,-15.9618,179.517,1.3623,-144.646,500
1569662476,359.308,-138.745,-15.9618,179.517,1.3623,-144.646,500
1569662476,359.308,-138.745,-15.9618,179.517,1.3623,-144.646,500
1569662476,359.308,-138.745,-15.9618,179.539,1.3623,-144.646,500
1569662476,359.308,-138.745,-15.9618,179.539,1.3623,-144.646,500
1569662476,359.308,-138.633,-15.9618,179.539,1.3623,-144.646,504
1569662476,359.308,-138.633,-15.9618,179.539,1.3623,-144.646,504
1569662476,359.308,-138.633,-15.9618,179.539,1.3623,-144.646,504
1569662476,359.308,-138.633,-15.9618,179.539,1.3623,-144.646,504
1569662476,359.308,-138.745,-15.9618,179.517,1.3623,-144.646,504
1569662476,359.308,-138.745,-15.9618,179.517,1.3623,-144.646,504
1569662476,359.308,-138.745,-15.9618,179.517,1.3623,-144.646,504
1569662476,359.308,-138.745,-15.9618,179.517,1.3623,-144.646,504
1569662476,359.308,-138.745,-15.9618,179.517,1.3623,-144.646,504
1569662476,359.308,-138.745,-15.9618,179.517,1.3623,-144.646,504
1569662476,359.308,-138.745,-15.9618,179.517,1.3623,-144.646,500
1569662476,359.308,-138.745,-15.9618,179.517,1.3623,-144.646,500
1569662476,359.308,-138.745,-15.9618,179.517,1.3623,-144.646,500
1569662476,359.308,-138.745,-15.9618,179.517,1.3623,-144.646,500
1569662476,359.308,-138.745,-15.9618,179.517,1.3623,-144.646,500
1569662476,359.308,-138.745,-15.9618,179.517,1.3623,-144.646,500
1569662476,359.308,-138.745,-15.9618,179.517,1.3623,-144.646,500
1569662476,359.308,-138.745,-15.9618,179.517,1.3623,-144.646,500
1569662476,359.308,-138.745,-15.9618,179.517,1.3623,-144.646,496
1569662476,359.308,-138.745,-15.9618,179.517,1.3623,-144.646,496
1569662476,359.308,-138.745,-15.9618,179.517,1.3623,-144.646,496
1569662476,359.308,-138.745,-15.9618,179.517,1.3623,-144.646,496
1569662476,359.308,-138.745,-15.9618,179.517,1.3623,-144.646,500
1569662476,359.308,-138.745,-15.9618,179.517,1.3623,-144.646,500
1569662476,359.308,-138.745,-15.9618,179.517,1.3623,-144.646,500
1569662476,359.308,-138.745,-15.9618,179.517,1.3623,-144.646,500
1569662476,359.308,-138.745,-15.9618,179.517,1.3623,-144.646,500
1569662476,359.308,-138.745,-15.9618,179.517,1.3623,-144.646,500
1569662476,359.308,-138.745,-15.9618,179.517,1.3623,-144.646,504
1569662476,359.308,-138.745,-15.9618,179.517,1.3623,-144.646,504
1569662476,359.308,-138.745,-15.9618,179.517,1.3623,-144.646,504
1569662476,359.308,-138.745,-15.9618,179.495,1.3623,-144.646,504
1569662476,359.308,-138.745,-15.9618,179.495,1.3623,-144.646,504
1569662476,359.308,-138.745,-15.9618,179.495,1.3623,-144.646,504
1569662477,359.308,-138.745,-15.9618,179.495,1.3623,-144.646,504
1569662477,359.308,-138.745,-15.9618,179.495,1.3623,-144.646,504
1569662477,359.308,-138.745,-15.9618,179.495,1.3623,-144.646,504
1569662487,397.259,-179.933,-15.0688,179.495,1.77979,-144.426,612
1569662487,397.259,-179.933,-15.0688,179.495,1.77979,-144.426,608
1569662487,397.259,-179.933,-15.0688,179.495,1.77979,-144.426,608
1569662487,397.259,-179.933,-15.0688,179.495,1.77979,-144.426,608
1569662487,397.259,-179.933,-15.1805,179.495,1.77979,-144.426,608
1569662487,397.259,-179.933,-15.1805,179.495,1.77979,-144.426,604
1569662487,397.259,-179.933,-15.1805,179.495,1.77979,-144.426,604
1569662487,397.259,-179.933,-15.1805,179.495,1.77979,-144.426,604
1569662487,397.259,-179.933,-15.1805,179.495,1.75781,-144.426,604
1569662487,397.259,-179.933,-15.1805,179.495,1.75781,-144.426,604
1569662487,397.259,-179.933,-15.1805,179.495,1.75781,-144.426,604
1569662487,397.259,-179.933,-15.1805,179.495,1.75781,-144.426,604
1569662487,397.259,-179.933,-15.1805,179.495,1.75781,-144.426,604
1569662487,397.259,-179.933,-15.2921,179.495,1.75781,-144.448,604
1569662487,397.259,-179.933,-15.2921,179.517,1.75781,-144.448,604
1569662487,397.259,-179.933,-15.2921,179.517,1.73584,-144.448,604
1569662487,397.259,-179.822,-15.2921,179.517,1.73584,-144.448,604
1569662487,397.259,-179.822,-15.2921,179.517,1.73584,-144.426,604
1569662487,397.259,-179.822,-15.2921,179.517,1.73584,-144.426,608
1569662487,397.259,-179.822,-15.2921,179.517,1.73584,-144.426,608
1569662487,397.259,-179.822,-15.2921,179.539,1.73584,-144.426,608
1569662487,397.259,-179.822,-15.2921,179.539,1.73584,-144.426,608
1569662487,397.259,-179.822,-15.2921,179.539,1.73584,-144.426,608
1569662487,397.259,-179.71,-15.2921,179.539,1.73584,-144.426,612
1569662487,397.259,-179.71,-15.2921,179.539,1.73584,-144.426,612
1569662487,397.259,-179.71,-15.2921,179.561,1.73584,-144.426,612
1569662487,397.259,-179.71,-15.2921,179.561,1.73584,-144.426,612
1569662487,397.259,-179.71,-15.2921,179.561,1.73584,-144.426,612
1569662487,397.259,-179.71,-15.2921,179.561,1.73584,-144.426,612
1569662487,397.259,-179.71,-15.2921,179.561,1.73584,-144.426,612
1569662487,397.259,-179.598,-15.2921,179.561,1.73584,-144.426,612
1569662487,397.259,-179.598,-15.2921,179.561,1.75781,-144.448,612
1569662488,397.259,-179.598,-15.2921,179.561,1.75781,-144.448,612
1569662488,397.259,-179.598,-15.1805,179.561,1.75781,-144.448,612
1569662488,397.148,-179.598,-15.1805,179.561,1.75781,-144.448,612
1569662488,397.148,-179.598,-15.1805,179.561,1.75781,-144.448,612
1569662488,397.148,-179.598,-15.1805,179.561,1.75781,-144.448,612
1569662488,397.148,-179.598,-15.1805,179.561,1.77979,-144.448,612
1569662488,397.148,-179.598,-15.1805,179.561,1.77979,-144.448,612
1569662488,397.259,-179.598,-15.1805,179.561,1.77979,-144.448,612
1569662488,397.259,-179.598,-15.1805,179.583,1.77979,-144.448,612
1569662488,397.259,-179.487,-15.1805,179.583,1.75781,-144.448,616
1569662488,397.259,-179.487,-15.1805,179.583,1.75781,-144.448,616
1569662488,397.259,-179.487,-15.1805,179.583,1.75781,-144.448,616
1569662488,397.259,-179.487,-15.1805,179.583,1.75781,-144.448,616
1569662488,397.259,-179.487,-15.1805,179.583,1.75781,-144.448,616
1569662488,397.259,-179.487,-15.1805,179.604,1.75781,-144.448,616
1569662488,397.259,-179.487,-15.1805,179.604,1.75781,-144.448,616
1569662488,397.259,-179.487,-15.2921,179.604,1.75781,-144.448,616
1569662488,397.259,-179.487,-15.2921,179.604,1.75781,-144.448,616
1569662488,397.259,-179.487,-15.2921,179.604,1.75781,-144.448,616
1569662488,397.371,-179.487,-15.1805,179.604,1.75781,-144.448,616
1569662488,397.259,-179.598,-15.1805,179.583,1.75781,-144.448,616
1569662488,397.259,-179.598,-15.1805,179.583,1.75781,-144.448,612
1569662488,397.259,-179.598,-15.1805,179.583,1.75781,-144.448,612
1569662488,397.259,-179.598,-15.1805,179.583,1.75781,-144.448,612
1569662488,397.259,-179.598,-15.1805,179.583,1.75781,-144.448,612
1569662488,397.259,-179.598,-15.1805,179.583,1.75781,-144.448,612
1569662488,397.259,-179.598,-15.1805,179.561,1.75781,-144.448,612
1569662488,397.259,-179.71,-15.1805,179.561,1.75781,-144.448,612
1569662488,397.259,-179.71,-15.2921,179.561,1.75781,-144.47,608
1569662488,397.259,-179.71,-15.2921,179.561,1.73584,-144.47,608
1569662488,397.259,-179.71,-15.2921,179.561,1.73584,-144.47,608
1569662488,397.259,-179.71,-15.2921,179.561,1.73584,-144.47,608
1569662488,397.259,-179.71,-15.2921,179.561,1.73584,-144.47,608
1569662488,397.259,-179.71,-15.2921,179.561,1.71387,-144.47,608
1569662488,397.259,-179.71,-15.2921,179.561,1.71387,-144.47,608
1569662488,397.259,-179.71,-15.4037,179.561,1.71387,-144.47,608
1569662488,397.259,-179.71,-15.4037,179.561,1.71387,-144.47,608
1569662488,397.259,-179.71,-15.4037,179.561,1.69189,-144.47,608
1569662488,397.148,-179.71,-15.4037,179.561,1.69189,-144.47,608
1569662488,397.148,-179.71,-15.4037,179.561,1.69189,-144.47,608
1569662488,397.148,-179.71,-15.4037,179.561,1.69189,-144.47,608
1569662488,397.148,-179.71,-15.4037,179.561,1.69189,-144.47,608
1569662488,397.148,-179.71,-15.4037,179.561,1.69189,-144.47,608
1569662488,397.259,-179.71,-15.4037,179.561,1.69189,-144.47,604
1569662488,397.259,-179.822,-15.4037,179.539,1.69189,-144.47,604
1569662488,397.148,-179.822,-15.4037,179.539,1.69189,-144.47,604
1569662488,397.148,-179.822,-15.4037,179.539,1.69189,-144.47,604
1569662488,397.148,-179.822,-15.4037,179.539,1.69189,-144.47,604
1569662488,397.148,-179.822,-15.4037,179.539,1.69189,-144.47,604
1569662488,397.148,-179.822,-15.4037,179.517,1.69189,-144.47,604
1569662488,397.148,-179.822,-15.4037,179.517,1.69189,-144.47,604
1569662488,397.148,-179.822,-15.4037,179.517,1.69189,-144.47,604
1569662488,397.148,-179.822,-15.4037,179.517,1.69189,-144.47,604
1569662488,397.148,-179.822,-15.4037,179.517,1.69189,-144.47,604
1569662488,397.148,-179.822,-15.4037,179.517,1.69189,-144.47,604
1569662488,397.148,-179.933,-15.4037,179.495,1.71387,-144.47,604
1569662488,397.148,-179.933,-15.4037,179.495,1.71387,-144.47,604
1569662488,397.148,-179.933,-15.4037,179.495,1.71387,-144.47,604
1569662488,397.148,-179.933,-15.4037,179.495,1.71387,-144.47,604
1569662488,397.148,-179.933,-15.4037,179.495,1.71387,-144.47,604
1569662488,397.148,-179.933,-15.4037,179.495,1.71387,-144.47,604
1569662488,397.148,-179.933,-15.2921,179.495,1.71387,-144.448,604
1569662488,397.148,-179.933,-15.2921,179.495,1.71387,-144.448,604
1569662488,397.148,-179.933,-15.2921,179.495,1.71387,-144.448,604
1569662488,397.259,-179.933,-15.2921,179.495,1.73584,-144.448,604
1569662488,397.259,-179.933,-15.2921,179.495,1.73584,-144.448,604
1569662488,397.259,-179.933,-15.2921,179.495,1.73584,-144.448,604
1569662488,397.259,-179.933,-15.1805,179.495,1.75781,-144.448,604
1569662488,397.259,-179.933,-15.1805,179.495,1.75781,-144.448,604
1569662488,397.259,-179.933,-15.1805,179.495,1.75781,-144.448,604
1569662488,397.259,-179.933,-15.1805,179.495,1.75781,-144.448,604
1569662488,397.259,-179.933,-15.1805,179.495,1.75781,-144.448,604
1569662488,397.259,-179.933,-15.1805,179.495,1.75781,-144.448,604
1569662488,397.259,-179.933,-15.1805,179.517,1.75781,-144.448,604
1569662488,397.259,-179.933,-15.1805,179.517,1.75781,-144.448,600
1569662488,397.259,-179.933,-15.1805,179.517,1.75781,-144.448,600
1569662488,397.259,-179.933,-15.1805,179.517,1.75781,-144.448,600
1569662488,397.259,-179.933,-15.1805,179.517,1.75781,-144.448,600
1569662488,397.259,-179.933,-15.1805,179.517,1.75781,-144.448,600
1569662488,397.259,-179.933,-15.1805,179.517,1.75781,-144.448,596
1569662488,397.259,-179.933,-15.1805,179.517,1.75781,-144.448,596
1569662488,397.259,-179.933,-15.1805,179.517,1.75781,-144.448,596
1569662488,397.259,-179.933,-15.1805,179.517,1.75781,-144.448,596
1569662488,397.259,-179.933,-15.1805,179.495,1.75781,-144.448,596
1569662488,397.259,-179.933,-15.1805,179.495,1.75781,-144.47,600
1569662488,397.259,-179.933,-15.1805,179.495,1.75781,-144.47,600
1569662488,397.148,-179.933,-15.1805,179.495,1.75781,-144.47,600
1569662488,397.148,-179.933,-15.1805,179.495,1.75781,-144.47,600
1569662488,397.148,-179.933,-15.1805,179.495,1.75781,-144.47,600
1569662488,397.148,-179.933,-15.1805,179.495,1.73584,-144.47,600
1569662488,397.148,-180.045,-15.1805,179.495,1.73584,-144.47,600
1569662488,397.148,-180.045,-15.1805,179.495,1.73584,-144.448,600
1569662488,397.148,-179.933,-15.1805,179.495,1.73584,-144.448,600
1569662488,397.148,-179.933,-15.2921,179.495,1.73584,-144.448,600
1569662488,397.148,-179.933,-15.2921,179.495,1.73584,-144.448,600
1569662488,397.148,-179.933,-15.2921,179.495,1.73584,-144.448,604
1569662488,397.148,-179.933,-15.2921,179.495,1.71387,-144.448,604
1569662488,397.148,-179.933,-15.2921,179.495,1.71387,-144.448,604
1569662488,397.148,-179.933,-15.2921,179.495,1.71387,-144.448,604
1569662488,397.148,-179.933,-15.2921,179.517,1.71387,-144.448,604
1569662489,397.148,-179.822,-15.2921,179.517,1.71387,-144.47,604
1569662489,397.259,-179.822,-15.2921,179.517,1.71387,-144.47,604
1569662489,397.259,-179.822,-15.2921,179.517,1.71387,-144.47,604
1569662489,397.259,-179.822,-15.2921,179.517,1.71387,-144.47,604
1569662489,397.259,-179.822,-15.2921,179.517,1.71387,-144.448,604
1569662489,397.259,-179.822,-15.2921,179.517,1.71387,-144.448,604
1569662489,397.259,-179.822,-15.2921,179.517,1.71387,-144.448,604
1569662489,397.259,-179.822,-15.2921,179.517,1.71387,-144.448,604
1569662489,397.259,-179.822,-15.2921,179.517,1.71387,-144.448,608
1569662489,397.259,-179.822,-15.2921,179.517,1.73584,-144.448,608
1569662489,397.259,-179.822,-15.2921,179.517,1.73584,-144.448,608
1569662489,397.259,-179.822,-15.2921,179.517,1.73584,-144.448,608
1569662489,397.259,-179.933,-15.2921,179.517,1.71387,-144.448,608
1569662489,397.259,-179.933,-15.2921,179.517,1.71387,-144.448,608
1569662489,397.148,-179.933,-15.2921,179.517,1.71387,-144.448,612
1569662489,397.148,-179.933,-15.2921,179.517,1.71387,-144.448,612
1569662489,397.148,-179.933,-15.2921,179.517,1.71387,-144.448,612
1569662489,397.148,-179.822,-15.2921,179.517,1.71387,-144.448,612
1569662489,397.148,-179.822,-15.2921,179.517,1.71387,-144.448,612
1569662489,397.148,-179.822,-15.2921,179.517,1.71387,-144.448,612
1569662489,397.148,-179.822,-15.2921,179.517,1.71387,-144.448,612
1569662489,397.148,-179.822,-15.2921,179.539,1.71387,-144.448,612
1569662489,397.259,-179.822,-15.2921,179.539,1.71387,-144.448,612
1569662489,397.259,-179.822,-15.2921,179.539,1.71387,-144.448,612
1569662489,397.259,-179.822,-15.2921,179.539,1.71387,-144.448,612
1569662489,397.259,-179.822,-15.2921,179.539,1.71387,-144.448,612
1569662489,397.259,-179.822,-15.2921,179.539,1.71387,-144.448,608
1569662489,397.259,-179.822,-15.2921,179.561,1.71387,-144.448,608
1569662489,397.259,-179.822,-15.2921,179.561,1.71387,-144.448,608
1569662489,397.259,-179.822,-15.2921,179.561,1.71387,-144.448,608
1569662489,397.259,-179.822,-15.4037,179.539,1.71387,-144.448,608
1569662489,397.259,-179.822,-15.4037,179.539,1.69189,-144.448,608
1569662489,397.259,-179.822,-15.4037,179.539,1.69189,-144.448,608
1569662489,397.259,-179.822,-15.2921,179.539,1.69189,-144.448,608
1569662489,397.259,-179.822,-15.2921,179.539,1.69189,-144.448,608
1569662489,397.259,-179.822,-15.2921,179.539,1.69189,-144.448,608
1569662489,397.259,-179.933,-15.2921,179.539,1.69189,-144.448,608
1569662489,397.259,-179.933,-15.2921,179.539,1.71387,-144.448,608
1569662489,397.259,-179.933,-15.2921,179.517,1.71387,-144.448,608
1569662489,397.259,-179.933,-15.2921,179.517,1.71387,-144.448,608
1569662489,397.259,-179.933,-15.2921,179.539,1.71387,-144.448,608
1569662489,397.259,-179.822,-15.2921,179.539,1.71387,-144.448,612
1569662489,397.259,-179.822,-15.2921,179.539,1.71387,-144.448,612
1569662489,397.259,-179.822,-15.2921,179.539,1.71387,-144.448,612
1569662489,397.371,-179.822,-15.2921,179.539,1.71387,-144.448,612
1569662489,397.371,-179.822,-15.2921,179.561,1.71387,-144.448,612
1569662489,397.371,-179.822,-15.1805,179.561,1.73584,-144.448,612
1569662489,397.371,-179.71,-15.1805,179.561,1.73584,-144.448,612
1569662489,397.371,-179.71,-15.1805,179.583,1.73584,-144.448,612
1569662489,397.371,-179.71,-15.1805,179.583,1.73584,-144.448,612
1569662489,397.371,-179.71,-15.1805,179.583,1.75781,-144.448,612
1569662489,397.371,-179.71,-15.1805,179.583,1.75781,-144.448,612
1569662489,397.371,-179.71,-15.1805,179.583,1.75781,-144.448,612
1569662489,397.371,-179.71,-15.1805,179.583,1.75781,-144.448,612
1569662489,397.371,-179.71,-15.1805,179.583,1.75781,-144.426,612
1569662489,397.371,-179.71,-15.1805,179.583,1.75781,-144.426,616
1569662489,397.371,-179.71,-15.1805,179.583,1.75781,-144.426,616
1569662489,397.371,-179.71,-15.1805,179.561,1.75781,-144.426,616
1569662489,397.371,-179.71,-15.1805,179.561,1.75781,-144.426,616
1569662489,397.371,-179.71,-15.1805,179.561,1.75781,-144.426,620
1569662489,397.371,-179.71,-15.1805,179.561,1.75781,-144.426,620
1569662489,397.371,-179.71,-15.1805,179.561,1.75781,-144.426,620
1569662489,397.371,-179.71,-15.1805,179.561,1.75781,-144.426,620
1569662489,397.371,-179.71,-15.1805,179.561,1.75781,-144.426,624
1569662489,397.371,-179.71,-15.1805,179.561,1.75781,-144.448,624
1569662489,397.259,-179.71,-15.1805,179.539,1.75781,-144.448,624
1569662489,397.259,-179.71,-15.1805,179.539,1.75781,-144.448,624
1569662489,397.259,-179.71,-15.1805,179.539,1.75781,-144.448,624
1569662489,397.259,-179.71,-15.2921,179.539,1.73584,-144.448,624
1569662489,397.259,-179.71,-15.2921,179.539,1.73584,-144.448,624
1569662489,397.259,-179.71,-15.2921,179.539,1.73584,-144.448,624
1569662489,397.259,-179.71,-15.2921,179.539,1.73584,-144.448,624
1569662489,397.259,-179.71,-15.2921,179.539,1.71387,-144.448,624
1569662489,397.259,-179.71,-15.2921,179.539,1.71387,-144.448,624
1569662489,397.259,-179.71,-15.2921,179.539,1.71387,-144.448,624
1569662489,397.259,-179.822,-15.4037,179.539,1.71387,-144.448,624
1569662489,397.259,-179.822,-15.4037,179.539,1.71387,-144.448,624
1569662489,397.259,-179.822,-15.4037,179.539,1.71387,-144.448,620
1569662489,397.259,-179.822,-15.4037,179.539,1.71387,-144.448,620
1569662489,397.259,-179.822,-15.4037,179.539,1.71387,-144.448,620
1569662489,397.259,-179.822,-15.2921,179.539,1.71387,-144.448,620
1569662489,397.259,-179.822,-15.2921,179.539,1.71387,-144.448,620
1569662489,397.259,-179.822,-15.2921,179.517,1.71387,-144.448,620
1569662489,397.259,-179.822,-15.2921,179.517,1.71387,-144.448,620
1569662489,397.259,-179.822,-15.2921,179.517,1.71387,-144.448,620
1569662489,397.259,-179.822,-15.2921,179.517,1.71387,-144.448,620
1569662489,397.259,-179.822,-15.2921,179.517,1.73584,-144.426,620
1569662489,397.259,-179.822,-15.2921,179.517,1.73584,-144.426,620
1569662489,397.259,-179.933,-15.2921,179.517,1.73584,-144.426,620
1569662489,397.259,-179.933,-15.1805,179.517,1.73584,-144.426,620
1569662489,397.259,-179.933,-15.1805,179.517,1.75781,-144.426,620
1569662489,397.259,-179.933,-15.1805,179.517,1.75781,-144.426,620
1569662489,397.259,-179.933,-15.1805,179.517,1.75781,-144.426,620
1569662489,397.259,-179.933,-15.1805,179.517,1.75781,-144.426,620
1569662489,397.259,-179.933,-15.1805,179.517,1.75781,-144.426,620
1569662489,397.148,-179.933,-15.1805,179.517,1.75781,-144.426,616
1569662489,397.148,-179.933,-15.1805,179.495,1.75781,-144.426,616
1569662489,397.148,-179.933,-15.1805,179.495,1.75781,-144.404,616
1569662489,397.148,-179.822,-15.1805,179.495,1.75781,-144.404,616
1569662489,397.148,-179.822,-15.1805,179.517,1.75781,-144.404,616
1569662490,397.148,-179.822,-15.2921,179.517,1.73584,-144.426,616
1569662490,397.148,-179.822,-15.2921,179.517,1.73584,-144.426,616
1569662490,397.148,-179.822,-15.2921,179.517,1.73584,-144.426,616
1569662490,397.148,-179.822,-15.2921,179.517,1.73584,-144.426,616
1569662490,397.148,-179.822,-15.2921,179.517,1.73584,-144.426,616
1569662490,397.148,-179.822,-15.2921,179.539,1.73584,-144.426,612
1569662490,397.148,-179.71,-15.2921,179.539,1.73584,-144.426,612
1569662490,397.148,-179.71,-15.2921,179.539,1.73584,-144.426,612
1569662490,397.148,-179.71,-15.2921,179.539,1.73584,-144.426,612
1569662490,397.148,-179.71,-15.2921,179.539,1.73584,-144.426,612
1569662490,397.148,-179.71,-15.1805,179.539,1.75781,-144.448,612
1569662490,397.148,-179.71,-15.1805,179.539,1.75781,-144.448,612
1569662490,397.148,-179.822,-15.2921,179.539,1.75781,-144.448,612
1569662490,397.148,-179.822,-15.2921,179.517,1.73584,-144.448,612
1569662490,397.148,-179.822,-15.2921,179.517,1.73584,-144.448,612
1569662490,397.148,-179.822,-15.2921,179.517,1.73584,-144.448,612
1569662490,397.148,-179.822,-15.2921,179.517,1.73584,-144.448,612
1569662490,397.148,-179.822,-15.2921,179.517,1.73584,-144.448,612
1569662490,397.148,-179.822,-15.2921,179.517,1.73584,-144.448,612
1569662490,397.148,-179.822,-15.4037,179.517,1.71387,-144.448,612
1569662490,397.259,-179.822,-15.4037,179.517,1.71387,-144.448,612
1569662490,397.259,-179.71,-15.4037,179.539,1.71387,-144.448,608
1569662490,397.259,-179.71,-15.4037,179.539,1.71387,-144.448,608
1569662490,397.259,-179.71,-15.4037,179.539,1.71387,-144.448,608
1569662490,397.259,-179.71,-15.4037,179.539,1.71387,-144.448,608
1569662490,397.259,-179.71,-15.4037,179.539,1.71387,-144.448,608
1569662490,397.259,-179.71,-15.4037,179.539,1.71387,-144.448,608
1569662490,397.259,-179.71,-15.4037,179.539,1.71387,-144.448,608
1569662490,397.259,-179.71,-15.4037,179.539,1.71387,-144.448,608
1569662490,397.259,-179.71,-15.4037,179.539,1.71387,-144.448,608
1569662490,397.259,-179.71,-15.4037,179.539,1.71387,-144.448,608
1569662490,397.259,-179.71,-15.4037,179.539,1.71387,-144.448,608
1569662490,397.259,-179.822,-15.4037,179.539,1.71387,-144.448,608
1569662490,397.148,-179.822,-15.4037,179.517,1.71387,-144.448,612
1569662490,397.148,-179.822,-15.2921,179.517,1.71387,-144.448,612
1569662490,397.148,-179.822,-15.2921,179.517,1.71387,-144.426,612
1569662490,397.148,-179.822,-15.2921,179.517,1.73584,-144.426,612
1569662490,397.148,-179.822,-15.2921,179.517,1.73584,-144.426,612
1569662490,397.148,-179.822,-15.2921,179.495,1.73584,-144.426,612
1569662490,397.148,-179.822,-15.1805,179.495,1.73584,-144.426,612
1569662490,397.148,-179.933,-15.1805,179.495,1.75781,-144.426,612
1569662490,397.148,-179.933,-15.1805,179.495,1.75781,-144.426,612
1569662490,397.148,-179.933,-15.1805,179.495,1.75781,-144.426,612
1569662490,397.148,-179.933,-15.1805,179.495,1.75781,-144.426,612
1569662490,397.148,-179.933,-15.1805,179.495,1.75781,-144.426,612
1569662490,397.148,-179.933,-15.1805,179.495,1.73584,-144.426,612
1569662490,397.148,-179.933,-15.2921,179.495,1.73584,-144.426,608
1569662490,397.259,-179.933,-15.2921,179.495,1.73584,-144.448,608
1569662490,397.259,-179.933,-15.2921,179.495,1.73584,-144.448,608
1569662490,397.259,-179.933,-15.2921,179.495,1.71387,-144.448,604
1569662490,397.148,-179.933,-15.2921,179.495,1.71387,-144.448,604
1569662490,397.148,-179.933,-15.2921,179.495,1.71387,-144.448,604
1569662490,397.148,-179.933,-15.2921,179.495,1.71387,-144.448,600
1569662490,397.148,-179.933,-15.2921,179.495,1.71387,-144.426,600
1569662490,397.148,-179.933,-15.2921,179.473,1.71387,-144.426,600
1569662490,397.148,-179.933,-15.2921,179.473,1.71387,-144.426,600
1569662490,397.148,-179.933,-15.2921,179.473,1.71387,-144.426,596
1569662490,397.148,-179.933,-15.2921,179.473,1.71387,-144.426,596
1569662490,397.148,-179.933,-15.2921,179.473,1.71387,-144.426,596
1569662490,397.148,-179.933,-15.2921,179.473,1.73584,-144.426,596
1569662490,397.148,-179.933,-15.2921,179.473,1.73584,-144.426,596
1569662490,397.148,-179.933,-15.2921,179.473,1.73584,-144.426,596
1569662490,397.148,-179.933,-15.2921,179.473,1.73584,-144.426,596
1569662490,397.148,-179.933,-15.2921,179.495,1.73584,-144.426,596
1569662490,397.148,-179.933,-15.2921,179.495,1.73584,-144.426,596
1569662490,397.148,-179.933,-15.2921,179.495,1.73584,-144.426,596
1569662490,397.148,-179.933,-15.2921,179.495,1.73584,-144.426,596
1569662490,397.148,-179.822,-15.2921,179.495,1.73584,-144.426,596
1569662490,397.148,-179.822,-15.2921,179.495,1.73584,-144.426,600
1569662490,397.148,-179.822,-15.2921,179.495,1.75781,-144.426,600
1569662490,397.148,-179.822,-15.2921,179.495,1.75781,-144.448,600
1569662490,397.148,-179.822,-15.2921,179.517,1.75781,-144.448,604
1569662490,397.148,-179.822,-15.2921,179.517,1.75781,-144.448,604
1569662490,397.148,-179.822,-15.2921,179.517,1.75781,-144.448,604
1569662490,397.148,-179.822,-15.2921,179.517,1.75781,-144.448,608
1569662490,397.148,-179.822,-15.1805,179.517,1.75781,-144.448,608
1569662490,397.148,-179.822,-15.1805,179.517,1.75781,-144.448,608
1569662490,397.148,-179.822,-15.1805,179.517,1.75781,-144.426,608
