time,x,y,z,ax,ay,az,q
1570785503,245.008,30.6958,-14.9572,178.901,2.52686,-144.954,480
1570785503,245.008,30.6958,-14.9572,178.901,2.52686,-144.954,480
1570785503,245.008,30.6958,-14.9572,178.901,2.52686,-144.954,480
1570785503,245.008,30.6958,-14.9572,178.901,2.52686,-144.954,480
1570785503,245.008,30.6958,-14.9572,178.901,2.52686,-144.954,480
1570785503,245.008,30.6958,-14.9572,178.901,2.52686,-144.954,480
1570785503,245.008,30.6958,-14.9572,178.901,2.52686,-144.954,480
1570785503,245.008,30.6958,-14.9572,178.901,2.52686,-144.954,480
1570785503,245.008,30.6958,-14.9572,178.901,2.52686,-144.954,480
1570785503,245.008,30.6958,-14.9572,178.901,2.52686,-144.954,480
1570785504,245.008,30.6958,-14.9572,178.901,2.52686,-144.954,480
1570785504,245.008,30.6958,-14.9572,178.901,2.52686,-144.954,480
1570785504,245.008,30.6958,-14.9572,178.901,2.52686,-144.954,480
1570785504,245.008,30.6958,-14.9572,178.901,2.52686,-144.954,480
1570785504,245.008,30.6958,-14.9572,178.901,2.52686,-144.954,480
1570785504,245.008,30.6958,-14.9572,178.901,2.52686,-144.954,480
1570785504,245.008,30.6958,-14.9572,178.901,2.50488,-144.954,476
1570785504,245.008,30.6958,-14.9572,178.901,2.50488,-144.954,476
1570785504,245.008,30.6958,-14.9572,178.901,2.50488,-144.954,476
1570785504,245.008,30.6958,-14.9572,178.901,2.50488,-144.954,476
1570785504,245.008,30.6958,-14.9572,178.901,2.50488,-144.954,476
1570785504,245.008,30.6958,-14.9572,178.901,2.52686,-144.954,476
1570785504,245.008,30.6958,-14.9572,178.901,2.52686,-144.954,476
1570785504,245.008,30.6958,-14.9572,178.901,2.52686,-144.954,476
1570785504,245.008,30.6958,-14.9572,178.901,2.52686,-144.954,476
1570785504,245.008,30.6958,-14.9572,178.901,2.52686,-144.954,476
1570785504,245.008,30.6958,-14.9572,178.901,2.52686,-144.954,476
1570785504,245.008,30.6958,-14.9572,178.901,2.52686,-144.954,476
1570785504,245.008,30.6958,-14.9572,178.901,2.52686,-144.954,476
1570785504,245.008,30.6958,-14.9572,178.901,2.50488,-144.954,476
1570785504,245.008,30.6958,-14.9572,178.901,2.50488,-144.954,476
1570785504,245.008,30.6958,-14.9572,178.901,2.50488,-144.954,476
1570785504,245.008,30.6958,-14.9572,178.901,2.50488,-144.954,476
1570785504,245.008,30.6958,-14.9572,178.901,2.50488,-144.954,476
1570785504,245.008,30.6958,-14.9572,178.901,2.50488,-144.954,476
1570785504,245.008,30.6958,-14.9572,178.901,2.50488,-144.954,476
1570785504,245.008,30.6958,-14.9572,178.901,2.50488,-144.954,476
1570785504,245.008,30.6958,-14.9572,178.901,2.50488,-144.954,476
1570785504,245.008,30.6958,-14.9572,178.901,2.50488,-144.954,476
1570785504,245.008,30.6958,-14.9572,178.901,2.50488,-144.954,476
1570785504,245.008,30.6958,-14.9572,178.901,2.50488,-144.954,476
1570785504,245.008,30.6958,-14.9572,178.901,2.50488,-144.954,476
1570785504,245.008,30.6958,-14.9572,178.901,2.52686,-144.954,476
1570785504,245.008,30.6958,-14.9572,178.901,2.52686,-144.954,476
1570785504,245.008,30.6958,-14.9572,178.901,2.52686,-144.954,476
1570785504,245.008,30.6958,-14.9572,178.901,2.52686,-144.954,476
1570785504,245.008,30.6958,-14.9572,178.901,2.52686,-144.954,476
1570785504,245.008,30.6958,-14.9572,178.901,2.52686,-144.954,476
1570785504,245.008,30.6958,-14.9572,178.901,2.52686,-144.954,476
1570785504,245.008,30.6958,-14.9572,178.901,2.52686,-144.954,476
1570785504,245.008,30.6958,-14.9572,178.901,2.52686,-144.954,476
1570785504,245.008,30.6958,-14.9572,178.901,2.52686,-144.954,476
1570785504,245.008,30.6958,-14.9572,178.901,2.52686,-144.954,476
1570785504,245.008,30.6958,-14.9572,178.901,2.50488,-144.954,476
1570785504,245.008,30.6958,-14.9572,178.901,2.50488,-144.954,476
1570785504,245.008,30.6958,-14.9572,178.901,2.50488,-144.954,476
1570785504,245.008,30.6958,-14.9572,178.901,2.50488,-144.954,476
1570785504,245.008,30.6958,-14.9572,178.901,2.50488,-144.954,476
1570785504,245.008,30.6958,-14.9572,178.901,2.50488,-144.954,480
1570785504,245.008,30.6958,-14.9572,178.901,2.50488,-144.954,480
1570785504,245.008,30.6958,-14.9572,178.901,2.50488,-144.954,480
1570785504,245.008,30.6958,-14.9572,178.901,2.50488,-144.954,480
1570785504,245.008,30.6958,-14.9572,178.901,2.50488,-144.954,480
1570785504,245.008,30.6958,-14.9572,178.901,2.50488,-144.954,480
1570785504,245.008,30.6958,-14.9572,178.901,2.50488,-144.954,476
1570785504,245.008,30.6958,-14.9572,178.901,2.50488,-144.954,480
1570785504,245.008,30.6958,-14.9572,178.901,2.50488,-144.954,480
1570785504,245.008,30.6958,-14.9572,178.901,2.50488,-144.954,480
1570785504,245.008,30.6958,-14.9572,178.901,2.50488,-144.954,480
1570785504,245.008,30.6958,-14.9572,178.901,2.50488,-144.954,480
1570785504,245.12,30.6958,-14.9572,178.901,2.50488,-144.954,480
1570785504,245.12,30.6958,-14.9572,178.901,2.50488,-144.954,480
1570785504,245.12,30.6958,-14.9572,178.901,2.50488,-144.954,480
1570785504,245.12,30.6958,-14.9572,178.901,2.50488,-144.954,480
1570785504,245.12,30.6958,-14.9572,178.901,2.50488,-144.954,480
1570785504,245.12,30.6958,-14.9572,178.901,2.50488,-144.954,480
1570785504,245.12,30.6958,-14.9572,178.901,2.50488,-144.954,480
1570785504,245.12,30.6958,-14.9572,178.901,2.50488,-144.954,480
1570785504,245.12,30.6958,-14.9572,178.901,2.50488,-144.954,480
1570785504,245.12,30.6958,-14.9572,178.901,2.50488,-144.954,480
1570785504,245.12,30.6958,-14.9572,178.901,2.50488,-144.954,480
1570785504,245.12,30.6958,-14.9572,178.901,2.50488,-144.954,476
1570785504,245.12,30.6958,-14.9572,178.901,2.50488,-144.954,476
1570785504,245.008,30.6958,-14.9572,178.901,2.50488,-144.954,476
1570785504,245.008,30.6958,-14.9572,178.901,2.50488,-144.954,476
1570785504,245.008,30.6958,-14.9572,178.901,2.50488,-144.954,476
1570785504,245.008,30.6958,-14.9572,178.901,2.50488,-144.954,476
1570785504,245.008,30.6958,-14.9572,178.901,2.50488,-144.954,476
1570785504,245.008,30.6958,-14.9572,178.901,2.50488,-144.954,476
1570785504,245.008,30.6958,-14.9572,178.901,2.50488,-144.954,476
1570785504,245.008,30.6958,-14.9572,178.901,2.50488,-144.954,476
1570785504,245.008,30.6958,-14.9572,178.901,2.50488,-144.954,480
1570785504,245.008,30.6958,-14.9572,178.901,2.50488,-144.954,480
1570785504,245.008,30.6958,-14.9572,178.901,2.50488,-144.954,480
1570785504,245.008,30.6958,-14.9572,178.901,2.50488,-144.954,480
1570785504,245.008,30.6958,-14.9572,178.901,2.50488,-144.954,480
1570785504,245.008,30.6958,-14.9572,178.901,2.50488,-144.954,476
1570785504,245.008,30.6958,-14.9572,178.901,2.50488,-144.954,476
1570785504,245.008,30.6958,-14.9572,178.901,2.50488,-144.954,476
1570785504,245.008,30.6958,-14.9572,178.901,2.50488,-144.954,476
1570785504,245.008,30.6958,-14.9572,178.901,2.50488,-144.954,476
1570785504,245.008,30.6958,-14.9572,178.901,2.50488,-144.954,476
1570785504,245.008,30.6958,-14.9572,178.901,2.50488,-144.954,476
1570785504,245.008,30.6958,-14.9572,178.901,2.50488,-144.954,476
1570785504,245.008,30.6958,-14.9572,178.901,2.50488,-144.954,476
1570785504,245.008,30.6958,-14.9572,178.879,2.50488,-144.954,476
1570785504,245.008,30.6958,-14.9572,178.879,2.50488,-144.954,476
1570785504,245.008,30.6958,-14.9572,178.901,2.50488,-144.954,476
1570785504,245.008,30.6958,-14.9572,178.901,2.50488,-144.954,476
1570785504,245.008,30.6958,-14.9572,178.901,2.50488,-144.954,476
1570785505,245.008,30.6958,-14.9572,178.901,2.50488,-144.954,476
1570785505,245.008,30.6958,-14.9572,178.901,2.50488,-144.954,476
1570785505,245.008,30.6958,-14.9572,178.901,2.50488,-144.954,476
1570785505,245.008,30.6958,-14.9572,178.901,2.50488,-144.954,476
1570785505,245.008,30.6958,-14.9572,178.901,2.50488,-144.954,476
1570785505,245.008,30.6958,-14.9572,178.901,2.50488,-144.954,476
1570785505,245.008,30.6958,-14.9572,178.901,2.50488,-144.954,476
1570785505,245.008,30.6958,-14.9572,178.901,2.50488,-144.954,476
1570785505,245.008,30.6958,-14.9572,178.901,2.50488,-144.954,476
1570785505,245.008,30.6958,-14.9572,178.901,2.50488,-144.954,476
1570785505,245.008,30.6958,-14.9572,178.901,2.50488,-144.954,476
1570785505,245.008,30.6958,-14.9572,178.901,2.50488,-144.954,476
1570785505,245.008,30.6958,-14.9572,178.901,2.50488,-144.954,476
1570785505,245.008,30.6958,-14.9572,178.901,2.50488,-144.954,476
1570785505,245.008,30.6958,-14.9572,178.901,2.50488,-144.954,476
1570785505,245.008,30.6958,-14.9572,178.901,2.50488,-144.954,476
1570785505,245.008,30.6958,-14.9572,178.901,2.50488,-144.954,476
1570785505,245.008,30.6958,-14.9572,178.901,2.50488,-144.954,476
1570785505,245.008,30.6958,-14.9572,178.901,2.50488,-144.954,476
1570785505,245.008,30.6958,-14.9572,178.901,2.50488,-144.954,476
1570785505,245.008,30.6958,-14.9572,178.901,2.50488,-144.954,476
1570785505,245.008,30.6958,-14.9572,178.901,2.50488,-144.954,476
1570785505,245.008,30.6958,-14.9572,178.901,2.50488,-144.954,476
1570785505,245.008,30.6958,-14.9572,178.901,2.50488,-144.954,476
1570785505,245.008,30.6958,-14.9572,178.901,2.50488,-144.954,476
1570785505,245.008,30.6958,-14.9572,178.901,2.50488,-144.954,476
1570785505,245.008,30.6958,-14.9572,178.901,2.50488,-144.954,476
1570785505,245.008,30.6958,-14.9572,178.901,2.50488,-144.954,476
1570785505,245.008,30.6958,-14.9572,178.901,2.52686,-144.954,476
1570785505,245.008,30.6958,-14.9572,178.901,2.52686,-144.954,476
1570785505,245.008,30.6958,-14.9572,178.901,2.52686,-144.954,476
1570785505,245.008,30.6958,-14.9572,178.901,2.52686,-144.954,476
1570785505,245.12,30.6958,-14.9572,178.901,2.52686,-144.954,476
1570785505,245.12,30.6958,-14.9572,178.901,2.52686,-144.954,476
1570785505,245.12,30.6958,-14.9572,178.901,2.52686,-144.954,476
1570785505,245.12,30.6958,-14.9572,178.901,2.52686,-144.954,476
1570785505,245.12,30.6958,-14.9572,178.901,2.52686,-144.954,476
1570785505,245.12,30.6958,-14.9572,178.901,2.52686,-144.954,476
1570785505,245.12,30.6958,-14.9572,178.901,2.52686,-144.954,476
1570785505,245.12,30.6958,-14.9572,178.901,2.52686,-144.954,472
1570785505,245.12,30.6958,-14.9572,178.901,2.52686,-144.954,472
1570785505,245.12,30.6958,-14.9572,178.901,2.52686,-144.954,472
1570785505,245.12,30.6958,-14.9572,178.901,2.52686,-144.954,472
1570785505,245.12,30.6958,-14.9572,178.901,2.52686,-144.954,472
1570785505,245.12,30.6958,-14.9572,178.901,2.52686,-144.954,472
1570785505,245.12,30.6958,-14.9572,178.901,2.52686,-144.954,472
1570785505,245.12,30.6958,-14.9572,178.901,2.52686,-144.954,472
1570785505,245.12,30.6958,-14.9572,178.901,2.52686,-144.954,472
1570785505,245.12,30.6958,-14.9572,178.901,2.52686,-144.954,472
1570785505,245.12,30.6958,-14.9572,178.901,2.52686,-144.954,472
1570785505,245.008,30.6958,-14.9572,178.901,2.50488,-144.954,472
1570785505,245.008,30.6958,-14.9572,178.901,2.50488,-144.954,472
1570785505,245.008,30.6958,-14.9572,178.901,2.50488,-144.954,472
1570785505,245.008,30.6958,-14.9572,178.901,2.50488,-144.954,472
1570785505,245.008,30.6958,-14.9572,178.901,2.50488,-144.954,472
1570785505,245.008,30.6958,-14.9572,178.901,2.50488,-144.954,472
1570785505,245.008,30.6958,-14.9572,178.901,2.50488,-144.954,472
1570785505,245.008,30.6958,-14.9572,178.901,2.50488,-144.954,472
1570785505,245.008,30.6958,-14.9572,178.901,2.50488,-144.954,472
1570785505,245.008,30.6958,-14.9572,178.901,2.50488,-144.954,472
1570785505,245.008,30.6958,-14.9572,178.901,2.50488,-144.954,472
1570785505,245.008,30.6958,-14.9572,178.901,2.50488,-144.954,472
1570785505,245.008,30.6958,-14.9572,178.901,2.50488,-144.954,472
1570785505,245.008,30.6958,-14.9572,178.901,2.50488,-144.954,476
1570785505,245.008,30.6958,-14.9572,178.901,2.50488,-144.954,476
1570785505,245.008,30.6958,-14.9572,178.901,2.50488,-144.954,476
1570785505,245.008,30.6958,-14.9572,178.901,2.50488,-144.954,476
1570785505,245.008,30.6958,-14.9572,178.901,2.50488,-144.954,476
1570785505,245.008,30.6958,-14.9572,178.901,2.50488,-144.954,476
1570785505,245.008,30.6958,-14.9572,178.901,2.50488,-144.954,476
1570785505,245.008,30.6958,-14.9572,178.901,2.50488,-144.954,476
1570785505,245.008,30.6958,-14.9572,178.901,2.50488,-144.954,476
1570785505,245.008,30.6958,-14.9572,178.901,2.50488,-144.954,476
1570785505,245.008,30.6958,-14.9572,178.901,2.50488,-144.954,476
1570785505,245.008,30.6958,-14.9572,178.901,2.50488,-144.954,476
1570785505,245.008,30.6958,-14.9572,178.901,2.50488,-144.954,476
1570785505,245.008,30.6958,-14.9572,178.901,2.50488,-144.954,476
1570785505,245.008,30.6958,-14.9572,178.901,2.50488,-144.954,476
1570785505,245.008,30.6958,-14.9572,178.901,2.50488,-144.954,476
1570785505,245.008,30.6958,-14.9572,178.901,2.50488,-144.954,476
1570785505,245.008,30.6958,-14.9572,178.901,2.50488,-144.954,476
1570785505,245.008,30.6958,-14.9572,178.901,2.50488,-144.954,476
1570785505,245.008,30.6958,-14.9572,178.901,2.50488,-144.954,476
1570785505,245.008,30.6958,-14.9572,178.901,2.50488,-144.954,476
1570785505,245.008,30.6958,-14.9572,178.879,2.50488,-144.954,476
1570785505,245.008,30.6958,-14.9572,178.879,2.50488,-144.954,476
1570785505,245.008,30.6958,-14.9572,178.879,2.50488,-144.954,476
1570785505,245.008,30.6958,-14.9572,178.879,2.50488,-144.954,476
1570785505,245.008,30.6958,-14.9572,178.879,2.50488,-144.954,476
1570785505,245.008,30.6958,-14.9572,178.879,2.50488,-144.954,476
1570785505,245.008,30.6958,-14.9572,178.879,2.50488,-144.954,476
1570785505,245.008,30.6958,-14.9572,178.879,2.50488,-144.954,476
1570785505,245.008,30.6958,-14.9572,178.879,2.50488,-144.954,476
1570785505,245.008,30.6958,-14.9572,178.879,2.50488,-144.954,476
1570785505,245.008,30.6958,-14.9572,178.879,2.50488,-144.954,476
1570785505,245.008,30.6958,-14.9572,178.879,2.50488,-144.954,476
1570785505,245.008,30.6958,-14.9572,178.901,2.50488,-144.954,476
1570785505,245.008,30.6958,-14.9572,178.901,2.50488,-144.954,476
1570785505,245.008,30.6958,-14.9572,178.901,2.50488,-144.954,476
1570785505,245.008,30.6958,-14.9572,178.901,2.50488,-144.954,476
1570785506,245.008,30.6958,-14.9572,178.901,2.50488,-144.954,476
1570785506,245.008,30.6958,-14.9572,178.901,2.50488,-144.954,476
1570785506,245.008,30.6958,-14.9572,178.901,2.50488,-144.954,476
1570785506,245.008,30.6958,-14.9572,178.901,2.50488,-144.954,476
1570785506,245.008,30.6958,-14.9572,178.901,2.50488,-144.954,476
1570785506,245.008,30.6958,-14.9572,178.901,2.50488,-144.954,476
1570785506,245.008,30.6958,-14.9572,178.901,2.50488,-144.954,476
1570785506,245.008,30.6958,-14.9572,178.901,2.50488,-144.954,476
1570785506,245.008,30.6958,-14.9572,178.901,2.50488,-144.954,476
1570785506,245.008,30.6958,-14.9572,178.901,2.50488,-144.954,476
1570785506,245.008,30.6958,-14.9572,178.901,2.50488,-144.954,476
1570785506,245.008,30.6958,-14.9572,178.901,2.50488,-144.954,476
1570785506,245.008,30.6958,-14.9572,178.901,2.50488,-144.954,476
1570785506,245.008,30.6958,-14.9572,178.901,2.50488,-144.954,476
1570785506,245.008,30.6958,-14.9572,178.901,2.50488,-144.954,476
1570785506,245.008,30.6958,-14.9572,178.901,2.50488,-144.954,476
1570785506,245.008,30.6958,-14.9572,178.901,2.50488,-144.954,476
1570785506,245.008,30.6958,-14.9572,178.901,2.50488,-144.954,476
1570785506,245.008,30.6958,-14.9572,178.901,2.50488,-144.954,476
1570785506,245.008,30.6958,-14.9572,178.901,2.50488,-144.954,476
1570785506,245.008,30.6958,-14.9572,178.901,2.50488,-144.954,476
1570785506,245.008,30.6958,-14.9572,178.901,2.50488,-144.954,480
1570785506,245.008,30.6958,-14.9572,178.901,2.50488,-144.954,480
1570785506,245.008,30.6958,-14.9572,178.901,2.50488,-144.954,480
1570785506,245.008,30.6958,-14.9572,178.901,2.50488,-144.954,480
1570785506,245.008,30.6958,-14.9572,178.901,2.50488,-144.954,480
1570785506,245.008,30.6958,-14.9572,178.901,2.50488,-144.954,480
1570785506,245.008,30.6958,-14.9572,178.901,2.50488,-144.954,480
1570785506,245.008,30.6958,-14.9572,178.901,2.50488,-144.954,480
1570785506,245.008,30.6958,-14.9572,178.901,2.50488,-144.954,480
1570785506,245.008,30.6958,-14.9572,178.901,2.50488,-144.954,480
1570785506,245.008,30.6958,-14.9572,178.879,2.50488,-144.954,480
1570785506,245.008,30.6958,-14.9572,178.901,2.50488,-144.954,480
1570785506,245.008,30.6958,-14.9572,178.901,2.50488,-144.954,480
1570785506,245.008,30.6958,-14.9572,178.901,2.50488,-144.954,480
1570785506,245.008,30.6958,-14.9572,178.901,2.50488,-144.954,480
1570785506,245.008,30.6958,-14.9572,178.901,2.50488,-144.954,480
1570785506,245.008,30.6958,-14.9572,178.901,2.50488,-144.954,480
1570785506,245.008,30.6958,-14.9572,178.901,2.50488,-144.954,480
1570785506,245.008,30.6958,-14.9572,178.879,2.50488,-144.954,480
1570785506,245.008,30.6958,-14.9572,178.879,2.50488,-144.954,480
1570785506,245.008,30.6958,-14.9572,178.879,2.50488,-144.954,480
1570785506,245.008,30.6958,-14.9572,178.879,2.50488,-144.954,480
1570785506,245.008,30.6958,-14.9572,178.879,2.50488,-144.954,480
1570785506,245.008,30.6958,-14.9572,178.879,2.50488,-144.954,480
1570785506,245.008,30.6958,-14.9572,178.879,2.50488,-144.954,480
1570785506,245.008,30.6958,-14.9572,178.879,2.50488,-144.954,480
1570785506,245.008,30.6958,-14.9572,178.879,2.50488,-144.954,476
1570785506,245.008,30.6958,-14.9572,178.879,2.50488,-144.954,476
1570785506,245.008,30.6958,-14.9572,178.879,2.50488,-144.954,476
1570785506,245.008,30.6958,-14.9572,178.879,2.50488,-144.954,476
1570785506,245.008,30.6958,-14.9572,178.879,2.50488,-144.954,476
1570785506,245.008,30.6958,-14.9572,178.879,2.50488,-144.954,476
1570785506,245.008,30.6958,-14.9572,178.879,2.50488,-144.954,476
1570785506,245.008,30.6958,-14.9572,178.879,2.50488,-144.954,476
1570785506,245.008,30.6958,-14.9572,178.879,2.50488,-144.954,476
1570785506,245.008,30.6958,-14.9572,178.879,2.50488,-144.954,476
1570785506,245.008,30.6958,-14.9572,178.879,2.50488,-144.954,476
1570785506,245.008,30.6958,-14.9572,178.879,2.50488,-144.954,476
1570785506,245.12,30.6958,-14.9572,178.879,2.50488,-144.954,476
1570785506,245.12,30.6958,-14.9572,178.879,2.50488,-144.954,476
1570785506,245.12,30.6958,-14.9572,178.879,2.50488,-144.954,476
1570785506,245.12,30.6958,-14.9572,178.879,2.50488,-144.954,476
1570785506,245.12,30.6958,-14.9572,178.879,2.50488,-144.954,476
1570785506,245.12,30.6958,-14.9572,178.879,2.50488,-144.954,476
1570785506,245.12,30.6958,-14.9572,178.879,2.50488,-144.954,476
1570785506,245.12,30.6958,-14.9572,178.879,2.50488,-144.954,476
1570785506,245.12,30.6958,-14.9572,178.879,2.50488,-144.954,476
1570785506,245.12,30.6958,-14.9572,178.879,2.50488,-144.954,476
1570785506,245.12,30.6958,-14.9572,178.879,2.50488,-144.954,476
1570785506,245.12,30.6958,-14.9572,178.879,2.50488,-144.954,476
1570785506,245.12,30.6958,-14.9572,178.879,2.50488,-144.954,476
1570785506,245.008,30.6958,-14.9572,178.901,2.50488,-144.954,476
1570785506,245.008,30.6958,-14.9572,178.901,2.50488,-144.954,476
1570785506,245.008,30.6958,-14.9572,178.901,2.50488,-144.954,476
1570785506,245.008,30.6958,-14.9572,178.901,2.50488,-144.954,476
1570785506,245.008,30.6958,-14.9572,178.901,2.50488,-144.954,476
1570785506,245.008,30.6958,-14.9572,178.901,2.50488,-144.954,476
1570785506,245.008,30.6958,-14.9572,178.901,2.50488,-144.954,476
1570785506,245.008,30.6958,-14.9572,178.901,2.50488,-144.954,476
1570785506,245.008,30.6958,-14.9572,178.879,2.50488,-144.954,476
1570785506,245.008,30.6958,-14.9572,178.879,2.50488,-144.954,476
1570785506,245.008,30.6958,-14.9572,178.879,2.50488,-144.954,476
1570785506,245.008,30.6958,-14.9572,178.879,2.50488,-144.954,476
1570785506,245.008,30.6958,-14.9572,178.879,2.50488,-144.954,476
1570785506,245.008,30.6958,-14.9572,178.879,2.50488,-144.954,476
1570785506,245.008,30.6958,-14.9572,178.879,2.50488,-144.954,480
1570785506,245.008,30.6958,-14.9572,178.879,2.50488,-144.954,480
1570785506,245.008,30.6958,-14.9572,178.879,2.50488,-144.954,480
1570785506,245.008,30.6958,-14.9572,178.879,2.50488,-144.954,480
1570785506,245.008,30.6958,-14.9572,178.879,2.50488,-144.954,480
1570785506,245.008,30.6958,-14.9572,178.879,2.50488,-144.954,480
1570785506,245.008,30.6958,-14.9572,178.879,2.50488,-144.954,480
1570785506,245.008,30.6958,-14.9572,178.879,2.50488,-144.954,480
1570785506,245.008,30.6958,-14.9572,178.879,2.50488,-144.954,480
1570785506,245.008,30.6958,-14.9572,178.879,2.50488,-144.954,480
1570785506,245.008,30.6958,-14.9572,178.879,2.50488,-144.954,480
1570785506,245.008,30.6958,-14.9572,178.879,2.50488,-144.954,480
1570785506,245.008,30.6958,-14.9572,178.879,2.50488,-144.954,480
1570785506,245.008,30.6958,-14.9572,178.879,2.50488,-144.954,480
1570785507,245.008,30.6958,-14.9572,178.879,2.50488,-144.954,480
1570785507,245.008,30.6958,-14.9572,178.879,2.50488,-144.954,480
1570785507,245.008,30.6958,-14.9572,178.879,2.50488,-144.954,480
1570785507,245.008,30.6958,-14.9572,178.879,2.50488,-144.954,480
1570785507,245.008,30.6958,-14.9572,178.879,2.50488,-144.954,480
1570785507,245.008,30.6958,-14.9572,178.879,2.50488,-144.954,480
1570785507,245.008,30.6958,-14.9572,178.879,2.50488,-144.954,480
1570785507,245.008,30.6958,-14.9572,178.879,2.50488,-144.954,480
1570785507,245.008,30.6958,-14.9572,178.879,2.50488,-144.954,480
1570785507,245.008,30.6958,-14.9572,178.879,2.50488,-144.954,480
1570785507,245.008,30.6958,-14.9572,178.879,2.50488,-144.954,480
1570785507,245.008,30.6958,-14.9572,178.879,2.50488,-144.954,480
1570785507,245.008,30.6958,-14.9572,178.879,2.50488,-144.954,480
1570785507,245.008,30.6958,-14.9572,178.879,2.50488,-144.954,480
1570785507,245.008,30.6958,-14.9572,178.879,2.50488,-144.954,480
1570785507,245.008,30.6958,-14.9572,178.879,2.50488,-144.954,480
1570785507,245.008,30.6958,-14.9572,178.879,2.50488,-144.954,480
1570785507,245.008,30.6958,-14.9572,178.879,2.50488,-144.954,476
1570785507,245.008,30.6958,-14.9572,178.879,2.50488,-144.954,476
1570785507,245.008,30.6958,-14.9572,178.879,2.50488,-144.954,476
1570785507,245.008,30.6958,-14.9572,178.879,2.50488,-144.954,476
1570785507,245.008,30.6958,-14.9572,178.879,2.50488,-144.954,476
1570785507,245.008,30.6958,-14.9572,178.879,2.50488,-144.954,476
1570785507,245.008,30.6958,-14.9572,178.879,2.50488,-144.954,476
1570785507,245.008,30.6958,-14.9572,178.879,2.50488,-144.954,476
1570785507,245.008,30.6958,-14.9572,178.879,2.50488,-144.954,476
1570785507,245.008,30.6958,-14.9572,178.879,2.50488,-144.954,476
1570785507,245.008,30.6958,-14.9572,178.879,2.50488,-144.954,476
1570785507,245.008,30.6958,-14.9572,178.901,2.50488,-144.954,476
1570785507,245.008,30.6958,-14.9572,178.901,2.50488,-144.954,476
1570785507,245.008,30.6958,-14.9572,178.901,2.50488,-144.954,476
1570785507,245.008,30.6958,-14.9572,178.901,2.50488,-144.954,476
1570785507,245.008,30.6958,-14.9572,178.901,2.50488,-144.954,476
1570785507,245.008,30.6958,-14.9572,178.901,2.50488,-144.954,476
1570785507,245.008,30.6958,-14.9572,178.901,2.52686,-144.954,476
1570785507,245.008,30.6958,-14.9572,178.901,2.52686,-144.954,476
1570785507,245.008,30.6958,-14.9572,178.901,2.52686,-144.954,476
1570785507,245.008,30.6958,-14.9572,178.901,2.52686,-144.954,476
1570785507,245.008,30.6958,-14.9572,178.901,2.52686,-144.954,476
1570785507,245.008,30.6958,-14.9572,178.901,2.52686,-144.954,476
1570785507,245.008,30.6958,-14.9572,178.901,2.52686,-144.954,476
1570785507,245.008,30.6958,-14.9572,178.901,2.52686,-144.954,476
1570785507,245.008,30.6958,-14.9572,178.901,2.52686,-144.954,476
1570785507,245.008,30.6958,-14.9572,178.901,2.52686,-144.954,476
1570785507,245.008,30.6958,-14.9572,178.901,2.52686,-144.954,476
1570785507,245.008,30.6958,-14.9572,178.901,2.52686,-144.954,476
1570785507,245.008,30.6958,-14.9572,178.901,2.52686,-144.954,476
1570785507,245.008,30.6958,-14.9572,178.901,2.52686,-144.954,476
1570785507,245.008,30.6958,-14.9572,178.901,2.52686,-144.954,476
1570785507,245.008,30.6958,-14.9572,178.901,2.52686,-144.954,476
1570785507,245.008,30.6958,-14.9572,178.901,2.52686,-144.954,476
1570785507,245.008,30.6958,-14.9572,178.901,2.52686,-144.954,476
1570785507,245.008,30.6958,-14.9572,178.901,2.52686,-144.954,476
1570785507,245.008,30.6958,-14.9572,178.901,2.52686,-144.954,476
1570785507,245.008,30.6958,-14.9572,178.901,2.52686,-144.954,476
1570785507,245.008,30.6958,-14.9572,178.901,2.52686,-144.954,476
1570785507,245.008,30.6958,-14.9572,178.901,2.52686,-144.954,476
1570785507,245.008,30.6958,-14.9572,178.901,2.50488,-144.954,476
1570785507,245.008,30.6958,-14.9572,178.901,2.50488,-144.954,476
1570785507,245.008,30.6958,-14.9572,178.901,2.50488,-144.954,476
1570785507,245.008,30.6958,-14.9572,178.901,2.50488,-144.954,472
1570785507,245.008,30.6958,-14.9572,178.901,2.50488,-144.976,472
1570785507,245.008,30.6958,-14.9572,178.901,2.50488,-144.976,472
1570785507,245.008,30.6958,-14.9572,178.901,2.50488,-144.976,472
1570785507,245.008,30.6958,-14.9572,178.901,2.50488,-144.976,472
1570785507,245.008,30.6958,-14.9572,178.901,2.50488,-144.976,472
1570785507,245.008,30.6958,-14.9572,178.901,2.50488,-144.976,472
1570785507,245.008,30.6958,-14.9572,178.901,2.50488,-144.976,472
1570785507,245.008,30.6958,-14.9572,178.901,2.50488,-144.976,472
1570785507,245.008,30.6958,-14.9572,178.901,2.50488,-144.976,472
1570785507,245.008,30.6958,-14.9572,178.901,2.50488,-144.976,472
1570785507,245.008,30.6958,-14.9572,178.901,2.50488,-144.976,472
1570785507,245.008,30.6958,-14.9572,178.901,2.50488,-144.976,472
1570785507,245.008,30.6958,-14.9572,178.901,2.50488,-144.976,472
1570785507,245.008,30.6958,-14.9572,178.901,2.50488,-144.976,472
1570785507,245.008,30.6958,-14.9572,178.901,2.50488,-144.976,472
1570785507,245.008,30.6958,-14.9572,178.901,2.50488,-144.976,472
1570785507,245.008,30.6958,-14.9572,178.901,2.50488,-144.976,472
1570785507,245.008,30.6958,-14.9572,178.901,2.50488,-144.976,472
1570785507,245.008,30.6958,-14.9572,178.901,2.50488,-144.976,472
1570785507,245.008,30.6958,-14.9572,178.901,2.50488,-144.976,472
1570785507,245.008,30.6958,-14.9572,178.901,2.50488,-144.976,472
1570785507,245.12,30.6958,-14.9572,178.901,2.50488,-144.976,472
1570785507,245.12,30.6958,-14.9572,178.901,2.50488,-144.976,472
1570785507,245.12,30.6958,-14.9572,178.901,2.50488,-144.976,472
1570785507,245.12,30.6958,-14.9572,178.901,2.50488,-144.976,472
1570785507,245.12,30.6958,-14.9572,178.901,2.50488,-144.976,472
1570785507,245.12,30.6958,-14.9572,178.901,2.52686,-144.976,472
1570785507,245.12,30.6958,-14.9572,178.901,2.52686,-144.976,472
1570785507,245.12,30.6958,-14.9572,178.901,2.52686,-144.976,472
1570785507,245.12,30.6958,-14.9572,178.901,2.52686,-144.976,472
1570785507,245.12,30.6958,-14.9572,178.901,2.52686,-144.976,472
1570785507,245.12,30.6958,-14.9572,178.901,2.52686,-144.976,472
1570785507,245.12,30.6958,-14.9572,178.901,2.52686,-144.976,472
1570785507,245.12,30.6958,-14.9572,178.901,2.52686,-144.976,472
1570785507,245.12,30.6958,-14.9572,178.901,2.52686,-144.976,472
1570785507,245.12,30.6958,-14.9572,178.901,2.52686,-144.976,472
1570785507,245.12,30.6958,-14.9572,178.901,2.52686,-144.976,472
1570785507,245.12,30.6958,-14.9572,178.901,2.52686,-144.976,472
1570785507,245.12,30.6958,-14.9572,178.901,2.52686,-144.976,472
1570785508,245.12,30.6958,-14.9572,178.901,2.52686,-144.976,472
1570785508,245.12,30.6958,-14.9572,178.901,2.52686,-144.976,472
1570785508,245.12,30.6958,-14.9572,178.901,2.52686,-144.954,472
1570785508,245.12,30.6958,-14.9572,178.901,2.52686,-144.954,472
1570785508,245.12,30.6958,-14.9572,178.901,2.52686,-144.954,472
1570785508,245.12,30.6958,-14.9572,178.901,2.52686,-144.954,472
1570785508,245.12,30.6958,-14.9572,178.901,2.52686,-144.954,472
1570785508,245.12,30.6958,-14.9572,178.901,2.50488,-144.976,476
1570785508,245.12,30.6958,-14.9572,178.901,2.50488,-144.976,476
1570785508,245.12,30.6958,-14.9572,178.901,2.50488,-144.976,476
1570785508,245.12,30.6958,-14.9572,178.901,2.50488,-144.976,476
1570785508,245.12,30.6958,-14.9572,178.901,2.50488,-144.976,476
1570785508,245.12,30.6958,-14.9572,178.901,2.50488,-144.976,476
1570785508,245.12,30.6958,-14.9572,178.901,2.50488,-144.976,476
1570785508,245.12,30.6958,-14.9572,178.901,2.50488,-144.976,476
1570785508,245.12,30.6958,-14.9572,178.901,2.50488,-144.976,476
1570785508,245.12,30.6958,-14.9572,178.901,2.50488,-144.976,476
1570785508,245.12,30.6958,-14.9572,178.901,2.50488,-144.976,476
1570785508,245.12,30.6958,-14.9572,178.901,2.50488,-144.976,476
1570785508,245.12,30.6958,-14.9572,178.901,2.50488,-144.976,476
1570785508,245.12,30.6958,-14.9572,178.901,2.50488,-144.976,476
1570785508,245.12,30.6958,-14.9572,178.901,2.50488,-144.976,476
1570785508,245.12,30.6958,-14.9572,178.901,2.50488,-144.976,476
1570785508,245.12,30.6958,-14.9572,178.901,2.50488,-144.976,476
1570785508,245.12,30.6958,-14.9572,178.901,2.50488,-144.976,476
1570785508,245.12,30.6958,-14.9572,178.901,2.50488,-144.976,476
1570785508,245.12,30.6958,-14.9572,178.901,2.50488,-144.976,476
1570785508,245.12,30.6958,-14.9572,178.901,2.50488,-144.976,476
1570785508,245.008,30.6958,-14.9572,178.901,2.50488,-144.976,476
1570785508,245.008,30.6958,-14.9572,178.901,2.50488,-144.976,476
1570785508,245.008,30.6958,-14.9572,178.901,2.50488,-144.976,476
1570785508,245.008,30.6958,-14.9572,178.901,2.50488,-144.976,476
1570785508,245.008,30.6958,-14.9572,178.901,2.50488,-144.976,476
1570785508,245.008,30.6958,-14.9572,178.901,2.50488,-144.976,476
1570785508,245.008,30.6958,-14.9572,178.901,2.50488,-144.976,476
1570785508,245.008,30.6958,-14.9572,178.901,2.50488,-144.976,476
1570785508,245.008,30.6958,-14.9572,178.901,2.50488,-144.976,476
1570785508,245.008,30.6958,-14.9572,178.901,2.50488,-144.954,476
1570785508,245.008,30.6958,-14.9572,178.901,2.50488,-144.954,476
1570785508,245.008,30.6958,-14.9572,178.901,2.50488,-144.954,476
1570785508,245.008,30.6958,-14.9572,178.901,2.50488,-144.954,476
1570785508,245.008,30.6958,-14.9572,178.901,2.50488,-144.954,476
1570785508,245.008,30.6958,-14.9572,178.901,2.50488,-144.954,476
1570785508,245.008,30.6958,-14.9572,178.901,2.50488,-144.954,476
1570785508,245.008,30.6958,-14.9572,178.901,2.50488,-144.954,476
1570785508,245.008,30.6958,-14.9572,178.901,2.50488,-144.954,476
1570785508,245.008,30.6958,-14.9572,178.901,2.50488,-144.954,476
1570785508,245.008,30.6958,-14.9572,178.901,2.50488,-144.954,476
1570785508,245.008,30.6958,-14.9572,178.901,2.50488,-144.954,476
1570785508,245.008,30.6958,-14.9572,178.901,2.50488,-144.954,476
1570785508,245.008,30.6958,-14.9572,178.901,2.50488,-144.954,476
1570785508,245.008,30.6958,-14.9572,178.901,2.50488,-144.954,476
1570785508,245.008,30.6958,-14.9572,178.901,2.50488,-144.954,476
1570785508,245.008,30.6958,-14.9572,178.901,2.50488,-144.954,476
1570785508,245.008,30.6958,-14.9572,178.901,2.50488,-144.954,476
1570785508,245.008,30.6958,-14.9572,178.901,2.50488,-144.954,476
1570785508,245.008,30.6958,-14.9572,178.901,2.50488,-144.954,480
1570785508,245.008,30.6958,-14.9572,178.901,2.50488,-144.954,480
1570785508,245.008,30.6958,-14.9572,178.901,2.50488,-144.976,480
1570785508,245.008,30.6958,-14.9572,178.901,2.50488,-144.976,480
1570785508,245.008,30.6958,-14.9572,178.901,2.50488,-144.976,480
1570785508,245.008,30.6958,-14.9572,178.901,2.50488,-144.976,480
1570785508,245.008,30.6958,-14.9572,178.901,2.50488,-144.976,480
1570785508,245.008,30.6958,-14.9572,178.901,2.50488,-144.976,480
1570785508,245.008,30.6958,-14.9572,178.901,2.50488,-144.976,480
1570785508,245.008,30.6958,-14.9572,178.901,2.50488,-144.976,480
1570785508,245.008,30.6958,-14.9572,178.879,2.50488,-144.976,480
1570785508,245.008,30.6958,-14.9572,178.879,2.50488,-144.976,480
1570785508,245.008,30.6958,-14.9572,178.879,2.50488,-144.976,480
1570785508,245.008,30.6958,-14.9572,178.879,2.52686,-144.976,480
1570785508,245.008,30.6958,-14.9572,178.879,2.52686,-144.976,480
1570785508,245.008,30.6958,-14.9572,178.879,2.52686,-144.976,480
1570785508,245.008,30.6958,-14.9572,178.879,2.52686,-144.976,480
1570785508,245.008,30.6958,-14.9572,178.879,2.52686,-144.976,480
1570785508,245.008,30.6958,-14.9572,178.879,2.52686,-144.976,480
1570785508,245.008,30.6958,-14.9572,178.879,2.52686,-144.976,480
1570785508,245.008,30.6958,-14.9572,178.879,2.52686,-144.976,480
1570785508,245.008,30.6958,-14.9572,178.879,2.52686,-144.976,480
1570785508,245.008,30.6958,-14.9572,178.879,2.52686,-144.976,480
1570785508,245.008,30.6958,-14.9572,178.879,2.52686,-144.976,480
1570785508,245.008,30.6958,-14.9572,178.879,2.52686,-144.976,480
1570785508,245.008,30.6958,-14.9572,178.879,2.52686,-144.976,480
1570785508,245.008,30.6958,-14.9572,178.879,2.52686,-144.976,480
1570785508,245.008,30.6958,-14.9572,178.879,2.52686,-144.976,480
1570785508,245.008,30.6958,-14.9572,178.879,2.52686,-144.976,480
1570785508,245.008,30.6958,-14.9572,178.879,2.52686,-144.976,480
1570785508,245.008,30.6958,-14.9572,178.879,2.52686,-144.976,480
1570785508,245.008,30.6958,-14.9572,178.879,2.50488,-144.976,480
1570785508,245.008,30.6958,-14.9572,178.879,2.50488,-144.976,480
1570785508,245.008,30.6958,-14.9572,178.879,2.50488,-144.976,480
1570785512,260.3,14.3991,-14.3991,179.011,2.59277,-144.558,484
1570785512,260.3,14.3991,-14.3991,179.011,2.59277,-144.558,484
1570785512,260.3,14.3991,-14.3991,179.011,2.59277,-144.558,484
1570785512,260.3,14.3991,-14.3991,179.011,2.59277,-144.558,484
1570785512,260.3,14.3991,-14.3991,179.011,2.59277,-144.558,484
1570785512,260.3,14.3991,-14.3991,179.011,2.59277,-144.558,484
1570785512,260.3,14.3991,-14.3991,179.011,2.59277,-144.558,484
1570785512,260.3,14.3991,-14.3991,179.011,2.59277,-144.558,484
1570785512,260.3,14.3991,-14.3991,179.011,2.59277,-144.558,484
1570785512,260.3,14.3991,-14.3991,179.011,2.59277,-144.558,484
1570785512,260.3,14.3991,-14.3991,179.011,2.59277,-144.558,484
1570785512,260.3,14.3991,-14.3991,179.011,2.59277,-144.558,484
1570785512,260.3,14.3991,-14.3991,179.011,2.59277,-144.558,484
1570785512,260.3,14.3991,-14.3991,179.011,2.59277,-144.558,484
1570785512,260.3,14.3991,-14.3991,179.011,2.59277,-144.558,484
1570785512,260.3,14.3991,-14.3991,179.011,2.59277,-144.558,484
1570785512,260.3,14.3991,-14.3991,179.011,2.59277,-144.558,484
1570785512,260.3,14.3991,-14.3991,179.011,2.59277,-144.558,484
1570785512,260.3,14.3991,-14.3991,179.011,2.59277,-144.558,484
1570785512,260.3,14.3991,-14.3991,179.011,2.59277,-144.558,484
1570785512,260.3,14.3991,-14.3991,179.011,2.59277,-144.558,484
1570785512,260.3,14.3991,-14.3991,179.011,2.59277,-144.558,484
1570785512,260.3,14.3991,-14.3991,179.011,2.59277,-144.558,484
1570785512,260.3,14.3991,-14.3991,179.011,2.59277,-144.558,484
1570785512,260.3,14.3991,-14.3991,179.011,2.59277,-144.558,484
1570785512,260.3,14.3991,-14.3991,179.011,2.59277,-144.558,488
1570785512,260.3,14.3991,-14.3991,179.011,2.59277,-144.558,488
1570785512,260.3,14.3991,-14.3991,179.011,2.59277,-144.558,488
1570785512,260.3,14.3991,-14.3991,179.011,2.59277,-144.558,488
1570785512,260.3,14.3991,-14.3991,179.011,2.59277,-144.558,488
1570785513,260.3,14.3991,-14.3991,179.011,2.59277,-144.558,488
1570785513,260.3,14.3991,-14.3991,179.011,2.59277,-144.558,488
1570785513,260.3,14.3991,-14.3991,179.011,2.59277,-144.558,488
1570785513,260.3,14.3991,-14.3991,179.011,2.59277,-144.558,488
1570785513,260.3,14.3991,-14.3991,179.011,2.59277,-144.558,488
1570785513,260.3,14.3991,-14.3991,179.011,2.59277,-144.558,488
1570785513,260.3,14.3991,-14.3991,179.011,2.59277,-144.558,488
1570785513,260.3,14.3991,-14.3991,179.011,2.59277,-144.558,488
1570785513,260.3,14.3991,-14.3991,179.011,2.59277,-144.558,488
1570785513,260.3,14.3991,-14.3991,179.011,2.59277,-144.558,488
1570785513,260.3,14.3991,-14.3991,179.011,2.59277,-144.558,488
1570785513,260.3,14.3991,-14.3991,179.011,2.59277,-144.558,488
1570785513,260.3,14.3991,-14.3991,179.011,2.59277,-144.558,488
1570785513,260.3,14.3991,-14.3991,179.011,2.59277,-144.558,488
1570785513,260.3,14.3991,-14.3991,179.011,2.59277,-144.558,488
1570785513,260.3,14.3991,-14.3991,179.011,2.59277,-144.558,488
1570785513,260.3,14.3991,-14.3991,179.011,2.59277,-144.558,488
1570785513,260.3,14.3991,-14.3991,179.011,2.59277,-144.558,488
1570785513,260.3,14.3991,-14.3991,179.011,2.59277,-144.558,488
1570785513,260.3,14.3991,-14.3991,179.011,2.59277,-144.558,488
1570785513,260.3,14.3991,-14.3991,179.011,2.59277,-144.558,488
1570785513,260.3,14.3991,-14.3991,179.011,2.59277,-144.558,488
1570785513,260.3,14.3991,-14.3991,179.011,2.59277,-144.558,488
1570785513,260.3,14.3991,-14.3991,179.011,2.59277,-144.558,488
1570785513,260.3,14.3991,-14.3991,179.011,2.59277,-144.558,488
1570785513,260.3,14.3991,-14.3991,179.011,2.59277,-144.558,488
1570785513,260.3,14.3991,-14.3991,179.011,2.59277,-144.558,488
1570785513,260.3,14.3991,-14.3991,179.011,2.59277,-144.558,488
1570785513,260.3,14.3991,-14.3991,179.011,2.59277,-144.558,488
1570785513,260.3,14.3991,-14.3991,179.011,2.59277,-144.558,488
1570785513,260.3,14.3991,-14.3991,179.011,2.59277,-144.558,488
1570785513,260.3,14.3991,-14.3991,179.011,2.59277,-144.558,488
1570785513,260.3,14.3991,-14.3991,179.011,2.59277,-144.558,488
1570785513,260.3,14.3991,-14.3991,179.011,2.59277,-144.558,484
1570785513,260.3,14.3991,-14.3991,179.011,2.59277,-144.558,484
1570785513,260.3,14.3991,-14.3991,179.011,2.59277,-144.558,484
1570785513,260.3,14.3991,-14.3991,179.011,2.59277,-144.558,484
1570785513,260.3,14.3991,-14.3991,179.011,2.59277,-144.558,484
1570785513,260.3,14.3991,-14.3991,179.011,2.59277,-144.558,484
1570785513,260.3,14.3991,-14.3991,179.011,2.59277,-144.558,484
1570785513,260.3,14.3991,-14.3991,179.011,2.59277,-144.558,484
1570785513,260.3,14.3991,-14.3991,179.011,2.59277,-144.558,484
1570785513,260.3,14.3991,-14.3991,179.011,2.59277,-144.558,484
1570785513,260.3,14.3991,-14.3991,179.011,2.59277,-144.558,484
1570785513,260.3,14.3991,-14.3991,179.011,2.59277,-144.558,484
1570785513,260.3,14.3991,-14.3991,179.011,2.59277,-144.558,484
1570785513,260.3,14.3991,-14.3991,179.011,2.59277,-144.558,484
1570785513,260.3,14.3991,-14.3991,179.011,2.59277,-144.558,484
1570785513,260.3,14.3991,-14.3991,179.011,2.59277,-144.558,484
1570785513,260.3,14.3991,-14.3991,179.011,2.59277,-144.558,484
1570785513,260.3,14.3991,-14.3991,179.011,2.59277,-144.558,484
1570785513,260.3,14.3991,-14.3991,179.011,2.59277,-144.558,484
1570785513,260.3,14.3991,-14.3991,179.011,2.59277,-144.558,484
1570785513,260.3,14.3991,-14.3991,179.011,2.59277,-144.558,484
1570785513,260.3,14.3991,-14.3991,179.011,2.59277,-144.558,484
1570785513,260.3,14.3991,-14.3991,179.011,2.59277,-144.558,484
1570785513,260.3,14.3991,-14.3991,179.011,2.59277,-144.558,484
1570785513,260.3,14.3991,-14.3991,179.011,2.59277,-144.558,484
1570785513,260.3,14.2875,-14.3991,179.011,2.59277,-144.558,484
1570785513,260.3,14.2875,-14.3991,179.011,2.59277,-144.558,484
1570785513,260.3,14.2875,-14.3991,179.011,2.59277,-144.558,484
1570785513,260.3,14.2875,-14.3991,179.011,2.59277,-144.558,484
1570785513,260.3,14.2875,-14.3991,179.011,2.59277,-144.558,484
1570785513,260.3,14.2875,-14.3991,179.011,2.59277,-144.558,484
1570785513,260.3,14.3991,-14.3991,179.011,2.59277,-144.558,484
1570785513,260.3,14.3991,-14.3991,179.011,2.59277,-144.558,484
1570785513,260.3,14.3991,-14.3991,179.011,2.59277,-144.558,484
1570785513,260.3,14.3991,-14.3991,179.011,2.59277,-144.558,484
1570785513,260.3,14.3991,-14.3991,179.011,2.59277,-144.558,484
1570785513,260.3,14.3991,-14.3991,179.011,2.59277,-144.558,484
1570785513,260.3,14.3991,-14.3991,179.011,2.59277,-144.558,484
1570785513,260.3,14.3991,-14.3991,179.011,2.59277,-144.558,484
1570785513,260.3,14.3991,-14.3991,179.011,2.59277,-144.558,484
1570785513,260.3,14.3991,-14.3991,179.011,2.59277,-144.558,484
1570785513,260.3,14.3991,-14.3991,179.011,2.59277,-144.558,484
1570785513,260.3,14.3991,-14.3991,179.011,2.59277,-144.558,484
1570785513,260.3,14.3991,-14.3991,179.011,2.59277,-144.558,484
1570785513,260.3,14.3991,-14.3991,179.011,2.59277,-144.558,480
1570785513,260.3,14.3991,-14.3991,179.011,2.59277,-144.558,480
1570785513,260.3,14.3991,-14.3991,179.011,2.59277,-144.558,480
1570785513,260.3,14.3991,-14.3991,179.011,2.59277,-144.558,480
1570785513,260.3,14.3991,-14.3991,179.011,2.59277,-144.558,480
1570785513,260.3,14.3991,-14.3991,179.011,2.59277,-144.558,480
1570785513,260.3,14.3991,-14.3991,179.011,2.59277,-144.558,480
1570785513,260.3,14.3991,-14.3991,179.011,2.59277,-144.558,480
1570785513,260.3,14.3991,-14.3991,179.011,2.59277,-144.558,480
1570785513,260.3,14.3991,-14.3991,179.011,2.59277,-144.558,480
1570785513,260.3,14.3991,-14.3991,179.011,2.59277,-144.558,480
1570785513,260.3,14.3991,-14.3991,179.011,2.59277,-144.558,480
1570785513,260.3,14.3991,-14.3991,179.011,2.59277,-144.558,480
1570785513,260.3,14.3991,-14.3991,179.011,2.59277,-144.558,480
1570785513,260.3,14.3991,-14.3991,179.011,2.59277,-144.558,480
1570785513,260.3,14.3991,-14.3991,179.011,2.59277,-144.558,476
1570785513,260.3,14.3991,-14.3991,179.011,2.59277,-144.558,476
1570785513,260.3,14.3991,-14.3991,179.011,2.59277,-144.558,476
1570785513,260.3,14.3991,-14.3991,179.011,2.59277,-144.558,476
1570785513,260.3,14.3991,-14.3991,179.011,2.59277,-144.558,476
1570785513,260.3,14.3991,-14.3991,179.011,2.59277,-144.558,476
1570785513,260.3,14.3991,-14.3991,179.011,2.59277,-144.558,476
1570785513,260.3,14.3991,-14.3991,179.011,2.59277,-144.558,476
1570785514,260.3,14.3991,-14.3991,179.011,2.59277,-144.558,476
1570785514,260.3,14.3991,-14.3991,179.011,2.59277,-144.558,476
1570785514,260.3,14.3991,-14.3991,179.011,2.59277,-144.558,476
1570785514,260.3,14.3991,-14.3991,179.011,2.59277,-144.558,476
1570785514,260.3,14.3991,-14.3991,179.011,2.59277,-144.558,476
1570785514,260.3,14.3991,-14.3991,179.011,2.59277,-144.558,476
1570785514,260.3,14.3991,-14.3991,179.011,2.59277,-144.558,476
1570785514,260.3,14.3991,-14.3991,179.011,2.59277,-144.558,476
1570785514,260.3,14.3991,-14.3991,179.011,2.59277,-144.558,476
1570785514,260.3,14.3991,-14.3991,179.011,2.59277,-144.558,476
1570785514,260.3,14.3991,-14.3991,179.011,2.59277,-144.558,476
1570785514,260.3,14.3991,-14.3991,179.011,2.59277,-144.558,476
1570785514,260.3,14.3991,-14.3991,179.011,2.59277,-144.558,476
1570785514,260.3,14.3991,-14.3991,179.011,2.59277,-144.558,476
1570785514,260.3,14.3991,-14.3991,179.011,2.59277,-144.558,476
1570785514,260.3,14.3991,-14.3991,179.011,2.59277,-144.558,476
1570785514,260.3,14.2875,-14.3991,179.011,2.59277,-144.558,476
1570785514,260.3,14.2875,-14.3991,179.011,2.59277,-144.558,476
1570785514,260.3,14.3991,-14.3991,179.011,2.59277,-144.558,476
1570785514,260.3,14.3991,-14.3991,179.011,2.59277,-144.558,476
1570785514,260.3,14.3991,-14.3991,179.011,2.59277,-144.558,476
1570785514,260.3,14.3991,-14.3991,179.011,2.61475,-144.558,476
1570785514,260.3,14.3991,-14.3991,179.011,2.61475,-144.558,476
1570785514,260.3,14.3991,-14.3991,179.011,2.61475,-144.558,476
1570785514,260.3,14.3991,-14.3991,179.011,2.61475,-144.558,476
1570785514,260.3,14.3991,-14.3991,179.011,2.61475,-144.558,476
1570785514,260.3,14.3991,-14.3991,179.011,2.61475,-144.558,476
1570785514,260.3,14.3991,-14.3991,179.011,2.61475,-144.558,476
1570785514,260.3,14.3991,-14.3991,179.011,2.61475,-144.558,476
1570785514,260.3,14.3991,-14.3991,179.011,2.61475,-144.558,476
1570785514,260.3,14.3991,-14.3991,179.011,2.61475,-144.558,476
1570785514,260.3,14.3991,-14.3991,179.011,2.61475,-144.558,480
1570785514,260.3,14.3991,-14.3991,179.011,2.61475,-144.558,480
1570785514,260.3,14.3991,-14.3991,179.011,2.61475,-144.558,480
1570785514,260.3,14.3991,-14.3991,179.011,2.61475,-144.558,480
1570785514,260.3,14.3991,-14.3991,179.011,2.61475,-144.558,480
1570785514,260.3,14.3991,-14.3991,179.011,2.61475,-144.558,480
1570785514,260.3,14.3991,-14.3991,179.011,2.59277,-144.558,480
1570785514,260.3,14.3991,-14.3991,179.011,2.59277,-144.558,480
1570785514,260.3,14.3991,-14.3991,179.011,2.59277,-144.558,480
1570785514,260.3,14.3991,-14.3991,179.011,2.59277,-144.558,480
1570785514,260.3,14.3991,-14.3991,179.011,2.59277,-144.558,480
1570785514,260.3,14.3991,-14.3991,179.011,2.59277,-144.558,480
1570785514,260.3,14.3991,-14.3991,179.011,2.59277,-144.558,480
1570785514,260.3,14.3991,-14.3991,179.011,2.59277,-144.558,480
1570785514,260.3,14.3991,-14.3991,179.011,2.59277,-144.558,480
1570785514,260.3,14.3991,-14.3991,179.011,2.59277,-144.558,480
1570785514,260.3,14.3991,-14.3991,179.011,2.59277,-144.558,480
1570785514,260.3,14.3991,-14.3991,179.011,2.59277,-144.558,480
1570785514,260.3,14.3991,-14.3991,179.011,2.59277,-144.558,480
1570785514,260.3,14.3991,-14.3991,179.011,2.59277,-144.558,480
1570785514,260.3,14.3991,-14.3991,179.011,2.59277,-144.558,480
1570785514,260.3,14.3991,-14.3991,179.011,2.59277,-144.558,480
1570785514,260.3,14.3991,-14.3991,179.011,2.59277,-144.558,480
1570785514,260.3,14.3991,-14.3991,179.011,2.59277,-144.558,480
1570785514,260.3,14.3991,-14.3991,179.011,2.59277,-144.558,480
1570785514,260.3,14.3991,-14.3991,179.011,2.59277,-144.558,480
1570785514,260.3,14.3991,-14.3991,179.011,2.59277,-144.558,480
1570785514,260.3,14.3991,-14.3991,179.011,2.59277,-144.558,480
1570785514,260.3,14.3991,-14.3991,179.011,2.59277,-144.558,480
1570785514,260.3,14.3991,-14.3991,179.011,2.59277,-144.558,480
1570785514,260.3,14.3991,-14.3991,179.011,2.59277,-144.558,480
1570785514,260.3,14.3991,-14.3991,179.011,2.59277,-144.558,480
1570785514,260.3,14.3991,-14.3991,179.011,2.59277,-144.558,480
1570785514,260.3,14.3991,-14.3991,179.011,2.59277,-144.558,480
1570785514,260.3,14.3991,-14.3991,179.011,2.59277,-144.558,480
1570785514,260.3,14.3991,-14.3991,179.011,2.59277,-144.558,480
1570785514,260.3,14.3991,-14.3991,179.011,2.59277,-144.558,480
1570785514,260.3,14.3991,-14.3991,179.011,2.59277,-144.558,480
1570785514,260.3,14.3991,-14.3991,179.011,2.59277,-144.558,480
1570785514,260.3,14.3991,-14.3991,179.011,2.59277,-144.558,480
1570785514,260.3,14.3991,-14.3991,179.011,2.59277,-144.558,480
1570785514,260.3,14.3991,-14.3991,179.011,2.59277,-144.558,480
1570785514,260.3,14.3991,-14.3991,179.011,2.59277,-144.558,480
1570785514,260.3,14.3991,-14.3991,179.011,2.59277,-144.558,484
1570785514,260.3,14.3991,-14.3991,179.011,2.59277,-144.558,484
1570785514,260.3,14.3991,-14.3991,179.011,2.59277,-144.558,484
1570785514,260.3,14.3991,-14.3991,179.011,2.59277,-144.558,484
1570785514,260.3,14.3991,-14.3991,179.011,2.59277,-144.558,484
1570785514,260.3,14.3991,-14.3991,179.011,2.59277,-144.558,484
1570785514,260.3,14.3991,-14.3991,179.011,2.59277,-144.558,484
1570785514,260.3,14.3991,-14.3991,179.011,2.59277,-144.558,484
1570785514,260.3,14.3991,-14.3991,179.011,2.59277,-144.558,484
1570785514,260.3,14.3991,-14.3991,179.011,2.59277,-144.558,484
1570785514,260.3,14.3991,-14.3991,179.011,2.59277,-144.558,484
1570785514,260.3,14.3991,-14.3991,179.011,2.59277,-144.558,484
1570785514,260.3,14.3991,-14.3991,179.011,2.59277,-144.558,484
1570785514,260.3,14.3991,-14.3991,179.011,2.59277,-144.558,484
1570785514,260.3,14.3991,-14.3991,179.011,2.59277,-144.558,484
1570785514,260.3,14.3991,-14.3991,179.011,2.59277,-144.558,484
1570785514,260.3,14.3991,-14.3991,179.011,2.59277,-144.558,484
1570785514,260.3,14.3991,-14.3991,179.011,2.59277,-144.558,484
1570785514,260.3,14.3991,-14.3991,179.011,2.59277,-144.558,484
1570785514,260.3,14.3991,-14.3991,179.011,2.59277,-144.558,484
1570785514,260.3,14.3991,-14.3991,179.011,2.59277,-144.558,484
1570785514,260.3,14.3991,-14.3991,179.011,2.59277,-144.558,484
1570785514,260.3,14.3991,-14.3991,179.011,2.59277,-144.558,484
1570785514,260.3,14.3991,-14.3991,179.011,2.59277,-144.558,484
1570785514,260.3,14.3991,-14.3991,179.011,2.59277,-144.558,484
1570785514,260.3,14.3991,-14.3991,179.011,2.59277,-144.558,484
1570785515,260.3,14.3991,-14.3991,179.011,2.59277,-144.558,484
1570785515,260.3,14.3991,-14.3991,179.011,2.59277,-144.558,484
1570785515,260.3,14.3991,-14.3991,179.011,2.59277,-144.558,484
1570785515,260.3,14.3991,-14.3991,179.011,2.59277,-144.558,488
1570785515,260.3,14.3991,-14.3991,179.011,2.59277,-144.558,488
1570785515,260.3,14.3991,-14.3991,179.011,2.59277,-144.558,488
1570785515,260.3,14.3991,-14.3991,179.011,2.59277,-144.558,488
1570785515,260.3,14.3991,-14.3991,179.011,2.59277,-144.558,488
1570785515,260.3,14.3991,-14.3991,179.011,2.59277,-144.558,488
1570785515,260.3,14.3991,-14.3991,179.011,2.59277,-144.558,488
1570785515,260.3,14.3991,-14.3991,179.011,2.59277,-144.558,488
1570785515,260.3,14.3991,-14.3991,179.011,2.59277,-144.558,488
1570785515,260.3,14.3991,-14.3991,179.011,2.59277,-144.558,488
1570785515,260.3,14.3991,-14.3991,179.011,2.59277,-144.558,488
1570785515,260.3,14.3991,-14.3991,179.011,2.59277,-144.558,492
1570785515,260.3,14.3991,-14.3991,179.011,2.59277,-144.558,492
1570785515,260.3,14.3991,-14.3991,179.011,2.59277,-144.558,492
1570785515,260.3,14.3991,-14.3991,179.011,2.59277,-144.558,492
1570785515,260.3,14.3991,-14.3991,179.011,2.59277,-144.558,492
1570785515,260.3,14.3991,-14.3991,179.011,2.59277,-144.558,492
1570785515,260.3,14.3991,-14.3991,179.011,2.59277,-144.558,492
1570785515,260.3,14.3991,-14.3991,179.011,2.59277,-144.558,492
1570785515,260.3,14.3991,-14.3991,179.011,2.59277,-144.558,492
1570785515,260.3,14.3991,-14.3991,179.011,2.59277,-144.558,492
1570785515,260.3,14.3991,-14.3991,179.011,2.59277,-144.558,492
1570785515,260.3,14.3991,-14.3991,179.011,2.59277,-144.558,492
1570785515,260.3,14.3991,-14.3991,179.011,2.59277,-144.558,492
1570785515,260.3,14.3991,-14.3991,179.011,2.59277,-144.558,492
1570785515,260.3,14.3991,-14.3991,179.011,2.59277,-144.558,492
1570785515,260.3,14.3991,-14.3991,179.011,2.59277,-144.558,492
1570785515,260.3,14.3991,-14.3991,179.011,2.59277,-144.558,492
1570785515,260.3,14.3991,-14.3991,179.011,2.59277,-144.558,492
1570785515,260.3,14.3991,-14.3991,179.011,2.59277,-144.558,492
1570785515,260.3,14.3991,-14.3991,179.011,2.59277,-144.558,492
1570785515,260.3,14.3991,-14.3991,179.011,2.59277,-144.558,492
1570785515,260.3,14.3991,-14.3991,179.011,2.59277,-144.558,492
1570785515,260.3,14.3991,-14.3991,179.011,2.59277,-144.558,492
1570785515,260.3,14.3991,-14.3991,179.011,2.59277,-144.558,492
1570785515,260.3,14.3991,-14.3991,179.011,2.59277,-144.558,492
1570785515,260.3,14.3991,-14.3991,179.011,2.59277,-144.558,488
1570785515,260.3,14.3991,-14.3991,179.011,2.59277,-144.558,488
1570785515,260.3,14.3991,-14.3991,179.011,2.59277,-144.558,488
1570785515,260.3,14.3991,-14.3991,179.011,2.59277,-144.558,488
1570785515,260.3,14.3991,-14.3991,179.011,2.59277,-144.558,488
1570785515,260.3,14.3991,-14.3991,179.011,2.59277,-144.558,488
1570785515,260.3,14.3991,-14.3991,179.011,2.59277,-144.558,488
1570785515,260.3,14.3991,-14.3991,179.011,2.59277,-144.558,488
1570785515,260.3,14.3991,-14.3991,179.011,2.59277,-144.558,488
1570785515,260.3,14.3991,-14.3991,179.011,2.59277,-144.558,484
1570785515,260.3,14.3991,-14.3991,179.011,2.59277,-144.558,484
1570785515,260.3,14.3991,-14.3991,179.011,2.59277,-144.558,484
1570785515,260.3,14.3991,-14.3991,179.011,2.59277,-144.558,484
1570785515,260.3,14.3991,-14.3991,179.011,2.59277,-144.558,484
1570785515,260.3,14.3991,-14.3991,179.011,2.59277,-144.558,484
1570785515,260.3,14.3991,-14.3991,179.011,2.59277,-144.558,484
1570785515,260.3,14.3991,-14.3991,179.011,2.59277,-144.558,484
1570785515,260.3,14.3991,-14.3991,179.011,2.59277,-144.558,484
1570785515,260.3,14.3991,-14.3991,179.011,2.59277,-144.558,484
1570785515,260.3,14.3991,-14.3991,179.011,2.59277,-144.558,484
1570785515,260.3,14.3991,-14.3991,179.011,2.59277,-144.558,484
1570785515,260.3,14.3991,-14.3991,179.011,2.59277,-144.558,484
1570785515,260.3,14.3991,-14.3991,179.011,2.59277,-144.558,484
1570785515,260.3,14.3991,-14.3991,179.011,2.59277,-144.558,484
1570785515,260.3,14.3991,-14.3991,179.011,2.59277,-144.558,484
1570785515,260.3,14.3991,-14.3991,179.011,2.59277,-144.558,484
1570785515,260.3,14.3991,-14.3991,179.011,2.59277,-144.558,480
1570785515,260.3,14.3991,-14.3991,179.011,2.59277,-144.558,480
1570785515,260.3,14.3991,-14.3991,179.011,2.59277,-144.558,480
1570785515,260.3,14.3991,-14.3991,179.011,2.59277,-144.558,480
1570785515,260.3,14.3991,-14.3991,179.011,2.59277,-144.558,480
1570785515,260.3,14.3991,-14.3991,179.011,2.59277,-144.558,480
1570785515,260.3,14.3991,-14.3991,179.011,2.59277,-144.558,480
1570785515,260.3,14.3991,-14.3991,179.011,2.59277,-144.558,480
1570785515,260.3,14.3991,-14.3991,179.011,2.59277,-144.558,480
1570785515,260.3,14.3991,-14.3991,178.989,2.59277,-144.558,480
1570785515,260.3,14.3991,-14.3991,178.989,2.59277,-144.558,480
1570785515,260.3,14.3991,-14.3991,178.989,2.59277,-144.558,480
1570785515,260.3,14.2875,-14.3991,178.989,2.59277,-144.558,480
1570785515,260.3,14.2875,-14.3991,178.989,2.59277,-144.558,480
1570785515,260.3,14.2875,-14.3991,178.989,2.59277,-144.558,480
1570785515,260.3,14.2875,-14.3991,178.989,2.59277,-144.558,480
1570785515,260.3,14.2875,-14.3991,178.989,2.59277,-144.558,480
1570785515,260.3,14.2875,-14.3991,178.989,2.59277,-144.558,480
1570785515,260.3,14.3991,-14.3991,178.989,2.59277,-144.558,480
1570785515,260.3,14.3991,-14.3991,179.011,2.59277,-144.558,480
1570785515,260.3,14.3991,-14.3991,179.011,2.59277,-144.558,480
1570785515,260.3,14.3991,-14.3991,179.011,2.59277,-144.558,480
1570785515,260.3,14.3991,-14.3991,179.011,2.59277,-144.558,480
1570785515,260.3,14.3991,-14.3991,179.011,2.59277,-144.558,480
1570785515,260.3,14.3991,-14.3991,179.011,2.59277,-144.558,480
1570785515,260.3,14.3991,-14.3991,179.011,2.59277,-144.558,480
1570785515,260.3,14.3991,-14.3991,179.011,2.59277,-144.558,480
1570785515,260.3,14.3991,-14.3991,179.011,2.59277,-144.558,480
1570785515,260.3,14.3991,-14.3991,179.011,2.59277,-144.558,480
1570785515,260.3,14.3991,-14.3991,179.011,2.59277,-144.558,480
1570785515,260.3,14.3991,-14.3991,179.011,2.59277,-144.558,480
1570785515,260.3,14.3991,-14.3991,179.011,2.59277,-144.558,480
1570785515,260.3,14.3991,-14.3991,179.011,2.59277,-144.558,480
1570785515,260.3,14.3991,-14.3991,179.011,2.59277,-144.558,480
1570785516,260.3,14.3991,-14.3991,179.011,2.59277,-144.558,480
1570785516,260.3,14.3991,-14.3991,179.011,2.59277,-144.558,480
1570785516,260.3,14.3991,-14.3991,179.011,2.59277,-144.558,480
1570785516,260.3,14.3991,-14.3991,179.011,2.59277,-144.558,480
1570785516,260.3,14.3991,-14.3991,179.011,2.59277,-144.558,480
1570785516,260.3,14.3991,-14.3991,179.011,2.59277,-144.558,480
1570785516,260.3,14.3991,-14.3991,179.011,2.59277,-144.558,480
1570785516,260.3,14.3991,-14.3991,179.011,2.59277,-144.558,480
1570785516,260.3,14.3991,-14.3991,179.011,2.59277,-144.558,480
1570785516,260.3,14.3991,-14.3991,179.011,2.59277,-144.558,480
1570785516,260.3,14.3991,-14.3991,179.011,2.59277,-144.558,480
1570785516,260.3,14.3991,-14.3991,179.011,2.59277,-144.558,480
1570785516,260.3,14.3991,-14.3991,179.011,2.59277,-144.558,480
1570785516,260.3,14.3991,-14.3991,179.011,2.59277,-144.558,480
1570785516,260.3,14.3991,-14.3991,179.011,2.59277,-144.558,480
1570785516,260.3,14.3991,-14.3991,179.011,2.59277,-144.558,480
1570785516,260.3,14.3991,-14.3991,179.011,2.59277,-144.558,480
1570785516,260.3,14.3991,-14.3991,179.011,2.59277,-144.558,480
1570785516,260.3,14.3991,-14.3991,179.011,2.59277,-144.558,480
1570785516,260.3,14.3991,-14.3991,179.011,2.59277,-144.558,480
1570785516,260.3,14.3991,-14.3991,179.011,2.59277,-144.558,480
1570785516,260.3,14.3991,-14.3991,179.011,2.59277,-144.558,480
1570785516,260.3,14.3991,-14.3991,179.011,2.59277,-144.558,480
1570785516,260.3,14.3991,-14.3991,179.011,2.59277,-144.558,480
1570785516,260.3,14.3991,-14.3991,179.011,2.59277,-144.558,480
1570785516,260.3,14.3991,-14.3991,179.011,2.59277,-144.558,480
1570785516,260.3,14.3991,-14.3991,179.011,2.59277,-144.558,480
1570785516,260.3,14.3991,-14.3991,179.011,2.59277,-144.558,480
1570785516,260.3,14.3991,-14.3991,179.011,2.59277,-144.558,480
1570785516,260.3,14.3991,-14.3991,179.011,2.59277,-144.558,476
1570785516,260.3,14.3991,-14.3991,179.011,2.59277,-144.558,476
1570785516,260.3,14.3991,-14.3991,179.011,2.59277,-144.558,476
1570785516,260.3,14.3991,-14.3991,179.011,2.59277,-144.558,476
1570785516,260.3,14.3991,-14.3991,179.011,2.59277,-144.558,476
1570785516,260.3,14.3991,-14.3991,179.011,2.59277,-144.558,476
1570785516,260.3,14.3991,-14.3991,179.011,2.59277,-144.558,476
1570785516,260.412,14.3991,-14.3991,179.011,2.59277,-144.558,476
1570785516,260.412,14.3991,-14.3991,179.011,2.59277,-144.558,476
1570785516,260.412,14.3991,-14.3991,179.011,2.59277,-144.558,476
1570785516,260.412,14.3991,-14.3991,179.011,2.59277,-144.558,476
1570785516,260.412,14.3991,-14.3991,179.011,2.59277,-144.558,476
1570785516,260.412,14.3991,-14.3991,179.011,2.59277,-144.558,476
1570785516,260.412,14.3991,-14.3991,179.011,2.59277,-144.558,476
1570785516,260.412,14.3991,-14.3991,179.011,2.59277,-144.558,476
1570785516,260.3,14.3991,-14.3991,179.011,2.59277,-144.558,476
1570785516,260.3,14.3991,-14.3991,179.011,2.59277,-144.558,476
1570785516,260.3,14.3991,-14.3991,179.011,2.59277,-144.558,476
1570785516,260.3,14.3991,-14.3991,179.011,2.59277,-144.558,476
1570785516,260.3,14.3991,-14.3991,179.011,2.59277,-144.558,472
1570785516,260.3,14.3991,-14.3991,179.011,2.59277,-144.558,472
1570785516,260.3,14.3991,-14.3991,179.011,2.59277,-144.558,472
1570785516,260.3,14.3991,-14.3991,179.011,2.59277,-144.558,472
1570785516,260.3,14.3991,-14.3991,179.011,2.59277,-144.558,472
1570785516,260.3,14.3991,-14.3991,179.011,2.59277,-144.558,472
1570785516,260.3,14.3991,-14.3991,179.011,2.59277,-144.558,472
1570785516,260.3,14.3991,-14.3991,179.011,2.59277,-144.558,472
1570785516,260.3,14.3991,-14.3991,179.011,2.59277,-144.558,472
1570785516,260.3,14.3991,-14.3991,179.011,2.59277,-144.558,472
1570785516,260.3,14.3991,-14.3991,179.011,2.59277,-144.558,472
1570785516,260.3,14.3991,-14.3991,179.011,2.59277,-144.558,472
1570785516,260.3,14.3991,-14.3991,179.011,2.59277,-144.558,472
1570785516,260.3,14.3991,-14.3991,179.011,2.59277,-144.558,472
1570785516,260.3,14.3991,-14.3991,179.011,2.59277,-144.558,472
1570785516,260.3,14.3991,-14.3991,179.011,2.59277,-144.558,472
1570785516,260.3,14.3991,-14.3991,179.011,2.59277,-144.558,472
1570785516,260.3,14.3991,-14.3991,179.011,2.59277,-144.558,472
1570785516,260.3,14.3991,-14.3991,179.011,2.59277,-144.558,472
1570785516,260.3,14.3991,-14.3991,179.011,2.59277,-144.558,472
1570785516,260.3,14.3991,-14.3991,179.011,2.59277,-144.558,472
1570785516,260.3,14.3991,-14.3991,179.011,2.59277,-144.558,472
1570785516,260.3,14.3991,-14.3991,179.011,2.59277,-144.558,472
1570785516,260.3,14.3991,-14.3991,179.011,2.59277,-144.558,472
1570785516,260.3,14.3991,-14.3991,179.011,2.59277,-144.558,472
1570785516,260.3,14.3991,-14.3991,179.011,2.59277,-144.558,472
1570785516,260.3,14.3991,-14.3991,178.989,2.59277,-144.558,472
1570785516,260.3,14.3991,-14.3991,178.989,2.59277,-144.558,472
1570785516,260.3,14.3991,-14.3991,178.989,2.59277,-144.558,472
1570785516,260.3,14.2875,-14.3991,178.989,2.59277,-144.558,472
1570785516,260.3,14.2875,-14.3991,178.989,2.59277,-144.558,472
1570785516,260.3,14.2875,-14.3991,178.989,2.59277,-144.558,472
1570785516,260.3,14.2875,-14.3991,178.989,2.59277,-144.558,472
1570785516,260.3,14.2875,-14.3991,178.989,2.59277,-144.558,472
1570785516,260.3,14.2875,-14.3991,178.989,2.59277,-144.558,472
1570785516,260.3,14.2875,-14.3991,178.989,2.59277,-144.558,476
1570785516,260.3,14.2875,-14.3991,178.989,2.59277,-144.558,476
1570785516,260.3,14.2875,-14.3991,178.989,2.59277,-144.558,476
1570785516,260.3,14.2875,-14.3991,178.989,2.59277,-144.558,476
1570785516,260.3,14.2875,-14.3991,178.989,2.59277,-144.558,476
1570785516,260.3,14.3991,-14.3991,178.989,2.59277,-144.558,476
1570785516,260.3,14.3991,-14.3991,178.989,2.59277,-144.558,476
1570785516,260.3,14.3991,-14.3991,178.989,2.59277,-144.558,476
1570785516,260.3,14.3991,-14.3991,178.989,2.59277,-144.558,476
1570785516,260.3,14.3991,-14.3991,178.989,2.59277,-144.558,476
1570785516,260.3,14.3991,-14.3991,178.989,2.59277,-144.558,476
1570785516,260.3,14.3991,-14.3991,178.989,2.59277,-144.558,476
1570785516,260.3,14.3991,-14.3991,179.011,2.59277,-144.558,476
1570785516,260.3,14.3991,-14.3991,179.011,2.59277,-144.558,476
1570785516,260.3,14.3991,-14.3991,179.011,2.59277,-144.558,476
1570785516,260.3,14.3991,-14.3991,179.011,2.59277,-144.558,476
1570785516,260.3,14.3991,-14.3991,179.011,2.59277,-144.558,476
1570785517,260.3,14.3991,-14.3991,179.011,2.59277,-144.558,476
1570785517,260.3,14.3991,-14.3991,179.011,2.59277,-144.558,476
1570785517,260.3,14.3991,-14.3991,179.011,2.59277,-144.558,476
1570785517,260.3,14.3991,-14.3991,179.011,2.59277,-144.558,476
1570785517,260.3,14.3991,-14.3991,179.011,2.59277,-144.558,476
1570785517,260.3,14.3991,-14.3991,179.011,2.59277,-144.558,476
1570785517,260.3,14.3991,-14.3991,179.011,2.59277,-144.558,476
1570785517,260.3,14.3991,-14.3991,179.011,2.59277,-144.558,476
1570785517,260.3,14.3991,-14.3991,179.011,2.59277,-144.558,476
1570785517,260.3,14.3991,-14.3991,179.011,2.59277,-144.558,476
1570785517,260.3,14.3991,-14.3991,179.011,2.59277,-144.558,476
1570785517,260.3,14.3991,-14.3991,179.011,2.59277,-144.558,476
1570785517,260.3,14.3991,-14.3991,179.011,2.59277,-144.558,476
1570785517,260.3,14.3991,-14.3991,179.011,2.59277,-144.558,476
1570785517,260.3,14.3991,-14.3991,179.011,2.59277,-144.558,476
1570785517,260.3,14.3991,-14.3991,179.011,2.59277,-144.558,476
1570785517,260.3,14.3991,-14.3991,179.011,2.59277,-144.558,476
1570785517,260.3,14.3991,-14.3991,179.011,2.59277,-144.558,476
1570785517,260.3,14.3991,-14.3991,179.011,2.59277,-144.558,476
1570785517,260.3,14.3991,-14.3991,179.011,2.59277,-144.558,480
1570785517,260.3,14.3991,-14.3991,179.011,2.59277,-144.558,480
1570785517,260.3,14.3991,-14.3991,179.011,2.59277,-144.558,480
1570785517,260.3,14.3991,-14.3991,179.011,2.59277,-144.558,480
1570785517,260.3,14.3991,-14.3991,179.011,2.59277,-144.558,480
1570785517,260.3,14.3991,-14.3991,179.011,2.59277,-144.558,480
1570785517,260.3,14.3991,-14.3991,179.011,2.59277,-144.558,480
1570785517,260.3,14.3991,-14.3991,179.011,2.59277,-144.558,480
1570785517,260.3,14.3991,-14.3991,179.011,2.59277,-144.558,480
1570785517,260.3,14.3991,-14.3991,179.011,2.59277,-144.558,480
1570785517,260.3,14.3991,-14.3991,179.011,2.59277,-144.558,480
1570785517,260.3,14.3991,-14.3991,179.011,2.59277,-144.558,480
1570785517,260.3,14.3991,-14.3991,179.011,2.59277,-144.558,480
1570785517,260.3,14.3991,-14.3991,179.011,2.59277,-144.558,480
1570785517,260.3,14.3991,-14.3991,179.011,2.59277,-144.558,480
1570785517,260.3,14.3991,-14.3991,179.011,2.59277,-144.558,480
1570785517,260.3,14.3991,-14.3991,179.011,2.59277,-144.558,480
1570785517,260.3,14.3991,-14.3991,179.011,2.59277,-144.558,480
1570785517,260.3,14.3991,-14.3991,179.011,2.59277,-144.558,480
1570785517,260.3,14.3991,-14.3991,179.011,2.59277,-144.558,480
1570785517,260.3,14.3991,-14.3991,179.011,2.59277,-144.558,480
1570785517,260.3,14.3991,-14.3991,179.011,2.59277,-144.558,480
1570785517,260.3,14.3991,-14.3991,179.011,2.59277,-144.558,480
1570785517,260.3,14.3991,-14.3991,179.011,2.59277,-144.558,480
1570785517,260.3,14.3991,-14.3991,179.011,2.59277,-144.558,480
1570785517,260.3,14.3991,-14.3991,179.011,2.59277,-144.558,480
1570785517,260.3,14.3991,-14.3991,179.011,2.59277,-144.558,480
1570785517,260.3,14.3991,-14.3991,179.011,2.59277,-144.558,480
1570785517,260.3,14.3991,-14.3991,179.011,2.59277,-144.558,480
1570785517,260.3,14.3991,-14.3991,179.011,2.59277,-144.558,480
1570785517,260.3,14.3991,-14.3991,179.011,2.59277,-144.558,480
1570785517,260.3,14.3991,-14.3991,179.011,2.59277,-144.558,480
1570785517,260.3,14.3991,-14.3991,179.011,2.59277,-144.558,480
1570785517,260.3,14.3991,-14.3991,179.011,2.59277,-144.558,480
1570785517,260.3,14.3991,-14.3991,179.011,2.59277,-144.558,480
1570785517,260.3,14.3991,-14.3991,179.011,2.59277,-144.558,480
1570785517,260.3,14.3991,-14.3991,179.011,2.59277,-144.558,480
1570785517,260.3,14.3991,-14.3991,179.011,2.59277,-144.558,480
1570785517,260.3,14.3991,-14.3991,179.011,2.59277,-144.558,480
1570785517,260.3,14.3991,-14.3991,179.011,2.59277,-144.558,480
1570785517,260.3,14.3991,-14.3991,179.011,2.59277,-144.558,480
1570785517,260.3,14.3991,-14.3991,179.011,2.59277,-144.558,480
1570785517,260.3,14.3991,-14.3991,179.011,2.59277,-144.558,480
1570785517,260.3,14.3991,-14.3991,179.011,2.59277,-144.558,480
1570785517,260.3,14.3991,-14.3991,179.011,2.59277,-144.558,480
1570785517,260.3,14.3991,-14.3991,179.011,2.59277,-144.558,480
1570785517,260.3,14.3991,-14.3991,179.011,2.59277,-144.558,480
1570785517,260.3,14.3991,-14.3991,179.011,2.59277,-144.558,480
1570785517,260.3,14.3991,-14.3991,179.011,2.59277,-144.558,480
1570785517,260.3,14.3991,-14.3991,179.011,2.59277,-144.558,480
1570785517,260.3,14.3991,-14.3991,179.011,2.59277,-144.558,476
1570785517,260.3,14.3991,-14.3991,179.011,2.59277,-144.558,476
1570785521,283.406,-9.82266,-13.0597,179.143,3.03223,-144.668,464
1570785521,283.406,-9.82266,-13.0597,179.143,3.03223,-144.668,464
1570785521,283.406,-9.82266,-13.0597,179.143,3.03223,-144.668,464
1570785521,283.406,-9.82266,-13.0597,179.143,3.03223,-144.668,464
1570785521,283.406,-9.82266,-13.0597,179.143,3.03223,-144.668,464
1570785521,283.406,-9.82266,-13.0597,179.143,3.03223,-144.668,468
1570785521,283.406,-9.82266,-13.0597,179.143,3.03223,-144.668,468
1570785521,283.406,-9.82266,-13.0597,179.143,3.03223,-144.668,468
1570785521,283.406,-9.82266,-13.0597,179.143,3.03223,-144.668,468
1570785521,283.406,-9.82266,-13.0597,179.143,3.03223,-144.668,468
1570785521,283.406,-9.82266,-13.0597,179.143,3.03223,-144.668,468
1570785521,283.406,-9.82266,-13.0597,179.143,3.03223,-144.668,468
1570785521,283.406,-9.71103,-13.0597,179.165,3.03223,-144.668,468
1570785521,283.406,-9.71103,-13.0597,179.165,3.03223,-144.668,472
1570785521,283.406,-9.71103,-13.0597,179.165,3.03223,-144.668,472
1570785521,283.406,-9.71103,-13.0597,179.165,3.03223,-144.668,472
1570785521,283.406,-9.71103,-13.0597,179.165,3.03223,-144.668,472
1570785521,283.406,-9.71103,-13.0597,179.165,3.03223,-144.668,472
1570785521,283.406,-9.71103,-13.0597,179.165,3.03223,-144.668,472
1570785521,283.406,-9.71103,-13.0597,179.165,3.03223,-144.668,472
1570785521,283.406,-9.71103,-13.0597,179.165,3.03223,-144.668,472
1570785521,283.406,-9.82266,-13.0597,179.165,3.03223,-144.668,472
1570785521,283.406,-9.82266,-13.0597,179.143,3.03223,-144.668,472
1570785521,283.406,-9.82266,-13.0597,179.143,3.03223,-144.668,472
1570785521,283.406,-9.82266,-13.0597,179.143,3.03223,-144.668,472
1570785521,283.406,-9.82266,-13.0597,179.143,3.03223,-144.668,472
1570785521,283.406,-9.82266,-13.0597,179.143,3.03223,-144.668,472
1570785521,283.406,-9.82266,-13.0597,179.143,3.03223,-144.668,472
1570785521,283.406,-9.82266,-13.0597,179.143,3.03223,-144.668,472
1570785521,283.406,-9.82266,-13.0597,179.143,3.03223,-144.668,472
1570785521,283.406,-9.82266,-13.0597,179.143,3.03223,-144.668,472
1570785521,283.406,-9.82266,-13.0597,179.143,3.03223,-144.668,472
1570785521,283.406,-9.82266,-13.0597,179.143,3.03223,-144.668,472
1570785521,283.406,-9.82266,-13.0597,179.143,3.03223,-144.668,472
1570785521,283.406,-9.82266,-13.0597,179.143,3.03223,-144.668,472
1570785521,283.406,-9.82266,-13.0597,179.143,3.03223,-144.668,472
1570785521,283.406,-9.82266,-13.0597,179.143,3.03223,-144.668,472
1570785521,283.406,-9.82266,-13.0597,179.143,3.03223,-144.668,472
1570785521,283.406,-9.82266,-13.0597,179.143,3.03223,-144.668,472
1570785521,283.406,-9.82266,-13.0597,179.143,3.03223,-144.668,472
1570785521,283.406,-9.82266,-13.0597,179.143,3.03223,-144.668,472
1570785521,283.406,-9.82266,-13.0597,179.143,3.03223,-144.668,472
1570785521,283.406,-9.82266,-13.0597,179.143,3.03223,-144.668,472
1570785521,283.406,-9.82266,-13.0597,179.143,3.03223,-144.668,472
1570785521,283.406,-9.82266,-13.0597,179.143,3.03223,-144.668,472
1570785521,283.406,-9.82266,-13.0597,179.143,3.03223,-144.668,476
1570785521,283.406,-9.82266,-13.0597,179.143,3.03223,-144.668,476
1570785521,283.406,-9.82266,-13.0597,179.143,3.03223,-144.668,476
1570785521,283.406,-9.82266,-13.0597,179.143,3.03223,-144.668,476
1570785521,283.406,-9.82266,-13.0597,179.143,3.03223,-144.668,476
1570785521,283.406,-9.82266,-13.0597,179.143,3.03223,-144.668,476
1570785521,283.406,-9.82266,-13.0597,179.143,3.03223,-144.668,472
1570785521,283.406,-9.82266,-13.0597,179.143,3.03223,-144.668,472
1570785521,283.406,-9.82266,-13.0597,179.143,3.03223,-144.668,472
1570785521,283.406,-9.82266,-13.0597,179.143,3.03223,-144.668,472
1570785521,283.406,-9.82266,-13.0597,179.143,3.03223,-144.668,472
1570785521,283.406,-9.82266,-13.0597,179.143,3.03223,-144.668,472
1570785521,283.406,-9.82266,-13.0597,179.143,3.03223,-144.668,472
1570785521,283.406,-9.82266,-13.0597,179.143,3.03223,-144.668,472
1570785521,283.406,-9.82266,-13.0597,179.143,3.03223,-144.668,472
1570785521,283.406,-9.82266,-13.0597,179.143,3.03223,-144.668,472
1570785521,283.406,-9.82266,-13.0597,179.143,3.03223,-144.668,472
1570785521,283.406,-9.82266,-13.0597,179.143,3.03223,-144.668,472
1570785521,283.406,-9.82266,-13.0597,179.143,3.03223,-144.668,472
1570785521,283.406,-9.82266,-13.0597,179.143,3.03223,-144.668,472
1570785521,283.406,-9.82266,-13.0597,179.143,3.03223,-144.668,472
1570785521,283.406,-9.82266,-13.0597,179.143,3.03223,-144.668,472
1570785521,283.406,-9.82266,-13.0597,179.143,3.03223,-144.668,472
1570785521,283.406,-9.82266,-13.0597,179.143,3.03223,-144.668,472
1570785521,283.406,-9.82266,-13.0597,179.143,3.03223,-144.668,472
1570785521,283.406,-9.82266,-13.0597,179.143,3.03223,-144.668,468
1570785521,283.406,-9.82266,-13.0597,179.143,3.03223,-144.668,468
1570785521,283.406,-9.82266,-13.0597,179.143,3.03223,-144.668,468
1570785521,283.406,-9.82266,-13.0597,179.143,3.03223,-144.668,468
1570785521,283.406,-9.82266,-13.0597,179.143,3.03223,-144.668,468
1570785521,283.406,-9.82266,-13.0597,179.143,3.03223,-144.668,468
1570785521,283.406,-9.82266,-13.0597,179.143,3.03223,-144.668,468
1570785521,283.406,-9.82266,-13.0597,179.143,3.03223,-144.668,468
1570785521,283.406,-9.82266,-13.0597,179.143,3.03223,-144.668,468
1570785521,283.406,-9.82266,-13.0597,179.143,3.03223,-144.668,464
1570785521,283.406,-9.82266,-13.0597,179.143,3.03223,-144.668,464
1570785522,283.406,-9.82266,-13.0597,179.143,3.03223,-144.668,464
1570785522,283.406,-9.82266,-13.0597,179.143,3.03223,-144.668,464
1570785522,283.406,-9.82266,-13.0597,179.143,3.03223,-144.668,464
1570785522,283.406,-9.82266,-13.0597,179.143,3.03223,-144.668,464
1570785522,283.406,-9.82266,-13.0597,179.143,3.0542,-144.668,464
1570785522,283.406,-9.82266,-13.0597,179.143,3.0542,-144.668,464
1570785522,283.406,-9.82266,-13.0597,179.143,3.0542,-144.668,464
1570785522,283.406,-9.82266,-13.0597,179.143,3.0542,-144.668,464
1570785522,283.406,-9.82266,-13.0597,179.143,3.0542,-144.668,464
1570785522,283.406,-9.82266,-13.0597,179.143,3.0542,-144.668,464
1570785522,283.406,-9.82266,-13.0597,179.143,3.0542,-144.668,464
1570785522,283.406,-9.82266,-13.0597,179.143,3.0542,-144.668,464
1570785522,283.406,-9.82266,-13.0597,179.143,3.0542,-144.668,464
1570785522,283.406,-9.82266,-13.0597,179.143,3.0542,-144.668,464
1570785522,283.406,-9.82266,-13.0597,179.143,3.0542,-144.668,464
1570785522,283.406,-9.82266,-13.0597,179.143,3.0542,-144.668,464
1570785522,283.406,-9.82266,-13.0597,179.143,3.0542,-144.668,464
1570785522,283.406,-9.82266,-13.0597,179.143,3.0542,-144.668,464
1570785522,283.406,-9.82266,-13.0597,179.143,3.0542,-144.668,464
1570785522,283.406,-9.82266,-13.0597,179.143,3.0542,-144.668,464
1570785522,283.406,-9.82266,-13.0597,179.143,3.0542,-144.668,464
1570785522,283.406,-9.82266,-13.0597,179.143,3.0542,-144.668,464
1570785522,283.406,-9.82266,-13.0597,179.143,3.0542,-144.668,464
1570785522,283.406,-9.82266,-13.0597,179.143,3.0542,-144.668,464
1570785522,283.406,-9.82266,-13.0597,179.143,3.0542,-144.668,464
1570785522,283.406,-9.82266,-13.0597,179.143,3.0542,-144.668,464
1570785522,283.406,-9.82266,-13.0597,179.143,3.0542,-144.668,468
1570785522,283.406,-9.82266,-13.0597,179.143,3.0542,-144.668,468
1570785522,283.406,-9.82266,-13.0597,179.143,3.0542,-144.668,468
1570785522,283.406,-9.82266,-13.0597,179.143,3.0542,-144.668,468
1570785522,283.406,-9.82266,-13.0597,179.143,3.0542,-144.668,468
1570785522,283.406,-9.82266,-13.0597,179.143,3.0542,-144.668,472
1570785522,283.406,-9.82266,-13.0597,179.143,3.0542,-144.668,472
1570785522,283.406,-9.82266,-13.0597,179.143,3.0542,-144.668,472
1570785522,283.406,-9.82266,-13.0597,179.143,3.0542,-144.668,472
1570785522,283.406,-9.82266,-13.0597,179.143,3.0542,-144.668,472
1570785522,283.406,-9.82266,-13.0597,179.143,3.0542,-144.668,476
1570785522,283.406,-9.82266,-13.0597,179.143,3.0542,-144.668,476
1570785522,283.406,-9.82266,-13.0597,179.143,3.0542,-144.668,476
1570785522,283.406,-9.82266,-13.0597,179.143,3.0542,-144.668,476
1570785522,283.406,-9.82266,-13.0597,179.143,3.0542,-144.668,476
1570785522,283.406,-9.82266,-13.0597,179.143,3.0542,-144.668,476
1570785522,283.406,-9.82266,-13.0597,179.143,3.0542,-144.668,476
1570785522,283.406,-9.82266,-13.0597,179.143,3.03223,-144.668,476
1570785522,283.406,-9.82266,-13.0597,179.143,3.03223,-144.668,476
1570785522,283.406,-9.82266,-13.0597,179.143,3.03223,-144.668,476
1570785522,283.406,-9.82266,-13.0597,179.143,3.03223,-144.668,476
1570785522,283.406,-9.71103,-13.0597,179.143,3.03223,-144.668,476
1570785522,283.406,-9.71103,-13.0597,179.143,3.03223,-144.668,476
1570785522,283.406,-9.71103,-13.0597,179.143,3.03223,-144.668,472
1570785522,283.406,-9.71103,-13.0597,179.143,3.03223,-144.668,472
1570785522,283.406,-9.71103,-13.0597,179.143,3.03223,-144.668,472
1570785522,283.406,-9.71103,-13.0597,179.143,3.03223,-144.668,472
1570785522,283.406,-9.71103,-13.0597,179.143,3.03223,-144.668,472
1570785522,283.406,-9.71103,-13.0597,179.143,3.03223,-144.668,472
1570785522,283.406,-9.71103,-13.0597,179.143,3.03223,-144.668,472
1570785522,283.406,-9.71103,-13.0597,179.165,3.03223,-144.668,472
1570785522,283.406,-9.71103,-13.0597,179.165,3.03223,-144.668,468
1570785522,283.406,-9.71103,-13.0597,179.165,3.03223,-144.668,468
1570785522,283.406,-9.71103,-13.0597,179.165,3.03223,-144.668,468
1570785522,283.406,-9.71103,-13.0597,179.165,3.03223,-144.668,468
1570785522,283.406,-9.71103,-13.0597,179.165,3.03223,-144.668,468
1570785522,283.406,-9.71103,-13.0597,179.143,3.03223,-144.668,468
1570785522,283.406,-9.71103,-13.0597,179.143,3.03223,-144.668,468
1570785522,283.406,-9.71103,-13.0597,179.143,3.03223,-144.668,468
1570785522,283.406,-9.71103,-13.0597,179.143,3.03223,-144.668,468
1570785522,283.406,-9.71103,-13.0597,179.143,3.03223,-144.668,468
1570785522,283.406,-9.71103,-13.0597,179.143,3.03223,-144.668,468
1570785522,283.406,-9.71103,-13.0597,179.143,3.03223,-144.668,468
1570785522,283.406,-9.71103,-13.0597,179.143,3.03223,-144.668,468
1570785522,283.406,-9.71103,-13.0597,179.143,3.03223,-144.668,468
1570785522,283.406,-9.71103,-13.0597,179.143,3.03223,-144.668,472
1570785522,283.406,-9.71103,-13.0597,179.143,3.03223,-144.668,472
1570785522,283.406,-9.71103,-13.0597,179.143,3.03223,-144.668,472
1570785522,283.406,-9.71103,-13.0597,179.143,3.03223,-144.668,472
1570785522,283.406,-9.71103,-13.0597,179.143,3.03223,-144.668,472
1570785522,283.406,-9.71103,-13.0597,179.143,3.03223,-144.668,472
1570785522,283.406,-9.71103,-13.0597,179.143,3.03223,-144.668,472
1570785522,283.406,-9.71103,-13.0597,179.143,3.03223,-144.668,472
1570785522,283.406,-9.71103,-13.0597,179.143,3.03223,-144.668,472
1570785522,283.406,-9.71103,-13.0597,179.143,3.0542,-144.668,472
1570785522,283.406,-9.71103,-13.0597,179.143,3.0542,-144.668,472
1570785522,283.406,-9.82266,-13.0597,179.143,3.0542,-144.668,472
1570785522,283.406,-9.82266,-13.0597,179.143,3.0542,-144.668,468
1570785522,283.406,-9.82266,-13.0597,179.143,3.0542,-144.668,468
1570785522,283.406,-9.82266,-13.0597,179.143,3.0542,-144.668,468
1570785522,283.406,-9.82266,-13.0597,179.143,3.0542,-144.668,468
1570785522,283.406,-9.82266,-13.0597,179.143,3.0542,-144.668,468
1570785522,283.406,-9.82266,-13.0597,179.143,3.0542,-144.668,468
1570785522,283.406,-9.82266,-13.0597,179.143,3.0542,-144.668,468
1570785522,283.406,-9.82266,-13.0597,179.143,3.0542,-144.668,468
1570785522,283.406,-9.82266,-13.0597,179.143,3.0542,-144.668,468
1570785522,283.406,-9.82266,-13.0597,179.143,3.0542,-144.668,468
1570785522,283.406,-9.82266,-13.0597,179.143,3.0542,-144.668,468
1570785522,283.406,-9.82266,-13.0597,179.143,3.0542,-144.668,468
1570785522,283.406,-9.82266,-13.0597,179.143,3.0542,-144.668,464
1570785522,283.406,-9.82266,-13.0597,179.143,3.0542,-144.668,464
1570785522,283.406,-9.82266,-13.0597,179.143,3.0542,-144.668,464
1570785522,283.406,-9.82266,-13.0597,179.143,3.0542,-144.668,464
1570785522,283.406,-9.82266,-13.0597,179.143,3.0542,-144.668,464
1570785523,283.406,-9.82266,-13.0597,179.143,3.0542,-144.668,464
1570785523,283.406,-9.82266,-13.0597,179.143,3.0542,-144.668,464
1570785523,283.406,-9.82266,-13.0597,179.143,3.0542,-144.668,464
1570785523,283.406,-9.82266,-13.0597,179.143,3.0542,-144.668,464
1570785523,283.406,-9.82266,-13.0597,179.143,3.0542,-144.668,464
1570785523,283.406,-9.82266,-13.0597,179.143,3.0542,-144.668,464
1570785523,283.406,-9.82266,-13.0597,179.143,3.0542,-144.668,464
1570785523,283.406,-9.82266,-13.0597,179.143,3.0542,-144.668,464
1570785523,283.406,-9.82266,-13.0597,179.143,3.0542,-144.668,464
1570785523,283.406,-9.82266,-13.0597,179.143,3.0542,-144.668,464
1570785523,283.406,-9.82266,-13.0597,179.143,3.0542,-144.668,464
1570785523,283.406,-9.82266,-13.0597,179.143,3.0542,-144.668,464
1570785523,283.406,-9.82266,-13.0597,179.143,3.0542,-144.668,464
1570785523,283.406,-9.82266,-13.0597,179.143,3.0542,-144.668,464
1570785523,283.406,-9.82266,-13.0597,179.143,3.0542,-144.668,464
1570785523,283.406,-9.82266,-13.0597,179.143,3.0542,-144.668,464
1570785523,283.406,-9.82266,-13.0597,179.143,3.0542,-144.668,464
1570785523,283.406,-9.82266,-13.0597,179.143,3.0542,-144.668,464
1570785523,283.406,-9.82266,-13.0597,179.143,3.0542,-144.668,464
1570785523,283.406,-9.82266,-13.0597,179.143,3.0542,-144.668,464
1570785523,283.406,-9.82266,-13.0597,179.143,3.0542,-144.668,464
1570785523,283.406,-9.82266,-13.0597,179.143,3.0542,-144.668,464
1570785523,283.406,-9.82266,-13.0597,179.143,3.0542,-144.668,464
1570785523,283.406,-9.82266,-13.0597,179.143,3.0542,-144.668,464
1570785523,283.406,-9.82266,-13.0597,179.143,3.0542,-144.668,464
1570785523,283.406,-9.82266,-13.0597,179.143,3.0542,-144.668,464
1570785523,283.406,-9.82266,-13.0597,179.143,3.0542,-144.668,460
1570785523,283.406,-9.82266,-13.0597,179.143,3.0542,-144.668,460
1570785523,283.406,-9.82266,-13.0597,179.143,3.0542,-144.668,460
1570785523,283.406,-9.82266,-13.0597,179.143,3.0542,-144.668,460
1570785523,283.406,-9.82266,-13.0597,179.143,3.0542,-144.668,460
1570785523,283.406,-9.82266,-13.0597,179.143,3.0542,-144.668,460
1570785523,283.406,-9.82266,-13.0597,179.143,3.0542,-144.668,460
1570785523,283.406,-9.82266,-13.0597,179.143,3.0542,-144.668,460
1570785523,283.406,-9.82266,-13.0597,179.143,3.0542,-144.668,460
1570785523,283.406,-9.82266,-13.0597,179.143,3.0542,-144.668,460
1570785523,283.406,-9.82266,-13.0597,179.143,3.0542,-144.668,460
1570785523,283.406,-9.82266,-13.0597,179.143,3.0542,-144.668,456
1570785523,283.406,-9.82266,-13.0597,179.143,3.0542,-144.668,456
1570785523,283.406,-9.82266,-13.0597,179.143,3.0542,-144.668,460
1570785523,283.406,-9.82266,-13.0597,179.143,3.0542,-144.668,460
1570785523,283.406,-9.82266,-13.0597,179.143,3.0542,-144.668,460
1570785523,283.406,-9.82266,-13.0597,179.143,3.0542,-144.668,460
1570785523,283.406,-9.82266,-13.0597,179.143,3.0542,-144.668,460
1570785523,283.406,-9.82266,-13.0597,179.143,3.0542,-144.668,460
1570785523,283.406,-9.82266,-13.0597,179.143,3.0542,-144.668,460
1570785523,283.406,-9.82266,-13.0597,179.143,3.0542,-144.668,460
1570785523,283.406,-9.82266,-13.0597,179.143,3.0542,-144.668,460
1570785523,283.406,-9.82266,-13.0597,179.143,3.0542,-144.668,460
1570785523,283.406,-9.82266,-13.0597,179.143,3.0542,-144.668,460
1570785523,283.406,-9.82266,-13.0597,179.143,3.0542,-144.668,464
1570785523,283.406,-9.82266,-13.0597,179.143,3.0542,-144.668,464
1570785523,283.406,-9.82266,-13.0597,179.143,3.0542,-144.668,464
1570785523,283.406,-9.82266,-13.0597,179.143,3.0542,-144.668,464
1570785523,283.406,-9.82266,-13.0597,179.143,3.0542,-144.668,464
1570785523,283.406,-9.82266,-13.0597,179.143,3.0542,-144.668,464
1570785523,283.406,-9.82266,-13.0597,179.143,3.0542,-144.668,464
1570785523,283.406,-9.82266,-13.0597,179.143,3.0542,-144.668,464
1570785523,283.406,-9.82266,-13.0597,179.143,3.0542,-144.668,464
1570785523,283.406,-9.82266,-13.0597,179.143,3.0542,-144.668,464
1570785523,283.406,-9.82266,-13.0597,179.143,3.0542,-144.668,468
1570785523,283.406,-9.82266,-13.0597,179.143,3.0542,-144.668,468
1570785523,283.406,-9.82266,-13.0597,179.143,3.0542,-144.668,468
1570785523,283.406,-9.82266,-13.0597,179.143,3.0542,-144.668,468
1570785523,283.406,-9.82266,-13.0597,179.143,3.0542,-144.668,468
1570785523,283.406,-9.82266,-13.0597,179.143,3.0542,-144.646,468
1570785523,283.406,-9.82266,-13.0597,179.143,3.0542,-144.646,472
1570785523,283.406,-9.82266,-13.0597,179.143,3.0542,-144.646,472
1570785523,283.406,-9.82266,-13.0597,179.143,3.0542,-144.646,472
1570785523,283.406,-9.82266,-13.0597,179.143,3.0542,-144.646,472
1570785523,283.406,-9.82266,-13.0597,179.143,3.0542,-144.646,472
1570785523,283.406,-9.82266,-13.0597,179.121,3.0542,-144.646,472
1570785523,283.406,-9.82266,-13.0597,179.121,3.0542,-144.646,472
1570785523,283.406,-9.82266,-13.0597,179.121,3.0542,-144.646,472
1570785523,283.406,-9.82266,-13.0597,179.121,3.0542,-144.646,476
1570785523,283.406,-9.82266,-13.0597,179.121,3.0542,-144.646,476
1570785523,283.406,-9.82266,-13.0597,179.121,3.0542,-144.646,476
1570785523,283.406,-9.82266,-13.0597,179.121,3.0542,-144.646,476
1570785523,283.406,-9.82266,-13.0597,179.121,3.0542,-144.646,476
1570785523,283.406,-9.82266,-13.0597,179.121,3.0542,-144.646,476
1570785523,283.406,-9.82266,-13.0597,179.121,3.0542,-144.646,476
1570785523,283.406,-9.82266,-13.0597,179.121,3.0542,-144.646,476
1570785523,283.406,-9.82266,-13.0597,179.121,3.0542,-144.646,480
1570785523,283.406,-9.82266,-13.0597,179.121,3.0542,-144.646,480
1570785523,283.406,-9.82266,-13.0597,179.121,3.0542,-144.646,480
1570785523,283.406,-9.82266,-13.0597,179.143,3.0542,-144.646,480
1570785523,283.406,-9.82266,-13.0597,179.143,3.0542,-144.668,480
1570785523,283.406,-9.82266,-13.0597,179.143,3.0542,-144.668,480
1570785523,283.406,-9.82266,-13.0597,179.143,3.0542,-144.668,480
1570785523,283.406,-9.82266,-13.0597,179.143,3.0542,-144.668,480
1570785523,283.406,-9.82266,-13.0597,179.143,3.0542,-144.668,480
1570785523,283.406,-9.82266,-13.0597,179.143,3.0542,-144.668,480
1570785523,283.406,-9.82266,-13.0597,179.143,3.0542,-144.668,480
1570785523,283.406,-9.82266,-13.0597,179.143,3.0542,-144.668,480
1570785523,283.406,-9.82266,-13.0597,179.143,3.0542,-144.668,480
1570785523,283.406,-9.82266,-13.0597,179.143,3.0542,-144.668,480
1570785523,283.406,-9.82266,-13.0597,179.121,3.0542,-144.668,480
1570785523,283.406,-9.82266,-13.0597,179.143,3.0542,-144.668,480
1570785523,283.406,-9.82266,-13.0597,179.143,3.0542,-144.668,480
1570785523,283.406,-9.82266,-13.0597,179.143,3.0542,-144.668,480
1570785524,283.406,-9.82266,-13.0597,179.121,3.0542,-144.668,476
1570785524,283.406,-9.82266,-13.0597,179.121,3.0542,-144.668,476
1570785524,283.406,-9.82266,-13.0597,179.121,3.0542,-144.668,476
1570785524,283.406,-9.82266,-13.0597,179.121,3.0542,-144.668,476
1570785524,283.406,-9.82266,-13.0597,179.121,3.0542,-144.668,476
1570785524,283.406,-9.82266,-13.0597,179.121,3.0542,-144.668,476
1570785524,283.406,-9.82266,-13.0597,179.121,3.0542,-144.668,472
1570785524,283.406,-9.82266,-13.0597,179.121,3.0542,-144.668,472
1570785524,283.406,-9.82266,-13.0597,179.121,3.0542,-144.668,472
1570785524,283.406,-9.82266,-13.0597,179.121,3.0542,-144.668,472
1570785524,283.406,-9.82266,-13.0597,179.121,3.0542,-144.646,472
1570785524,283.406,-9.82266,-13.0597,179.121,3.0542,-144.646,472
1570785524,283.406,-9.82266,-13.0597,179.121,3.0542,-144.646,468
1570785524,283.406,-9.82266,-13.0597,179.121,3.0542,-144.646,468
1570785524,283.406,-9.82266,-13.0597,179.121,3.0542,-144.646,468
1570785524,283.406,-9.82266,-13.0597,179.121,3.0542,-144.646,468
1570785524,283.406,-9.82266,-13.0597,179.121,3.0542,-144.646,468
1570785524,283.406,-9.82266,-13.0597,179.121,3.0542,-144.646,468
1570785524,283.406,-9.82266,-13.0597,179.121,3.0542,-144.668,468
1570785524,283.406,-9.82266,-13.0597,179.121,3.0542,-144.668,468
1570785524,283.406,-9.82266,-13.0597,179.143,3.0542,-144.668,468
1570785524,283.406,-9.82266,-13.0597,179.143,3.0542,-144.668,468
1570785524,283.406,-9.82266,-13.0597,179.143,3.0542,-144.668,468
1570785524,283.406,-9.82266,-13.0597,179.143,3.0542,-144.668,468
1570785524,283.406,-9.82266,-13.0597,179.143,3.0542,-144.668,468
1570785524,283.406,-9.82266,-13.0597,179.143,3.0542,-144.668,468
1570785524,283.406,-9.82266,-13.0597,179.143,3.0542,-144.668,468
1570785524,283.406,-9.82266,-13.0597,179.143,3.0542,-144.668,468
1570785524,283.406,-9.82266,-13.0597,179.143,3.0542,-144.668,468
1570785524,283.406,-9.82266,-13.0597,179.143,3.0542,-144.668,468
1570785524,283.406,-9.82266,-13.0597,179.143,3.0542,-144.668,468
1570785524,283.406,-9.82266,-13.0597,179.143,3.0542,-144.668,468
1570785524,283.406,-9.82266,-13.0597,179.143,3.0542,-144.668,468
1570785524,283.406,-9.82266,-13.0597,179.143,3.0542,-144.668,468
1570785524,283.406,-9.82266,-13.0597,179.143,3.0542,-144.668,468
1570785524,283.406,-9.82266,-13.0597,179.143,3.0542,-144.668,468
1570785524,283.406,-9.82266,-13.0597,179.143,3.03223,-144.668,468
1570785524,283.406,-9.82266,-13.0597,179.143,3.03223,-144.668,468
1570785524,283.406,-9.82266,-13.0597,179.121,3.03223,-144.668,468
1570785524,283.406,-9.82266,-13.0597,179.121,3.03223,-144.668,468
1570785524,283.406,-9.82266,-13.0597,179.121,3.03223,-144.668,468
1570785524,283.406,-9.82266,-13.0597,179.121,3.03223,-144.668,468
1570785524,283.406,-9.82266,-13.0597,179.121,3.03223,-144.668,468
1570785524,283.406,-9.82266,-13.0597,179.121,3.0542,-144.668,468
1570785524,283.406,-9.82266,-13.0597,179.143,3.0542,-144.668,468
1570785524,283.406,-9.82266,-13.0597,179.143,3.0542,-144.668,468
1570785524,283.406,-9.82266,-13.0597,179.143,3.0542,-144.668,468
1570785524,283.406,-9.82266,-13.0597,179.143,3.0542,-144.668,468
1570785524,283.406,-9.82266,-13.0597,179.143,3.0542,-144.668,472
1570785524,283.406,-9.82266,-13.0597,179.143,3.0542,-144.668,472
1570785524,283.406,-9.82266,-13.0597,179.143,3.0542,-144.668,472
1570785524,283.406,-9.82266,-13.0597,179.143,3.0542,-144.668,472
1570785524,283.406,-9.82266,-13.0597,179.143,3.0542,-144.668,472
1570785524,283.406,-9.82266,-13.0597,179.143,3.0542,-144.668,472
1570785524,283.406,-9.82266,-13.0597,179.121,3.0542,-144.668,472
1570785524,283.406,-9.82266,-13.0597,179.121,3.0542,-144.668,472
1570785524,283.406,-9.82266,-13.0597,179.121,3.0542,-144.668,472
1570785524,283.406,-9.82266,-13.0597,179.121,3.0542,-144.668,472
1570785524,283.406,-9.82266,-13.0597,179.121,3.0542,-144.668,472
1570785524,283.406,-9.82266,-13.0597,179.121,3.0542,-144.668,472
1570785524,283.406,-9.82266,-13.0597,179.121,3.0542,-144.668,472
1570785524,283.406,-9.82266,-13.0597,179.121,3.0542,-144.668,472
1570785524,283.406,-9.82266,-13.0597,179.121,3.0542,-144.668,472
1570785524,283.406,-9.82266,-13.0597,179.121,3.0542,-144.668,472
1570785524,283.406,-9.82266,-13.0597,179.121,3.0542,-144.668,472
1570785524,283.406,-9.82266,-13.0597,179.121,3.0542,-144.668,468
1570785524,283.406,-9.82266,-13.0597,179.121,3.0542,-144.646,468
1570785524,283.406,-9.82266,-13.0597,179.121,3.0542,-144.646,468
1570785524,283.406,-9.82266,-13.0597,179.121,3.0542,-144.646,468
1570785524,283.406,-9.82266,-13.0597,179.121,3.0542,-144.646,468
1570785524,283.406,-9.82266,-13.0597,179.121,3.0542,-144.646,468
1570785524,283.406,-9.82266,-13.0597,179.121,3.0542,-144.646,468
1570785524,283.406,-9.82266,-13.0597,179.121,3.0542,-144.646,468
1570785524,283.406,-9.82266,-13.0597,179.121,3.0542,-144.646,468
1570785524,283.406,-9.82266,-13.0597,179.121,3.0542,-144.646,468
1570785524,283.406,-9.82266,-13.0597,179.121,3.0542,-144.668,468
1570785524,283.406,-9.82266,-13.0597,179.121,3.0542,-144.668,468
1570785524,283.406,-9.82266,-13.0597,179.121,3.0542,-144.668,468
1570785524,283.406,-9.82266,-13.0597,179.143,3.0542,-144.668,468
1570785524,283.406,-9.82266,-13.0597,179.143,3.0542,-144.668,468
1570785524,283.406,-9.82266,-13.0597,179.143,3.0542,-144.668,468
1570785524,283.406,-9.82266,-13.0597,179.143,3.0542,-144.668,468
1570785524,283.406,-9.82266,-13.0597,179.143,3.0542,-144.668,468
1570785524,283.406,-9.82266,-13.0597,179.143,3.0542,-144.668,468
1570785524,283.406,-9.82266,-13.0597,179.143,3.0542,-144.668,468
1570785524,283.406,-9.82266,-13.0597,179.143,3.0542,-144.668,468
1570785524,283.406,-9.82266,-13.0597,179.143,3.0542,-144.668,468
1570785524,283.406,-9.82266,-13.0597,179.143,3.0542,-144.668,468
1570785524,283.406,-9.82266,-13.0597,179.143,3.0542,-144.668,468
1570785524,283.406,-9.82266,-13.0597,179.143,3.0542,-144.668,468
1570785524,283.406,-9.82266,-13.0597,179.143,3.0542,-144.668,468
1570785524,283.406,-9.82266,-13.0597,179.143,3.0542,-144.668,468
1570785524,283.406,-9.82266,-13.0597,179.143,3.0542,-144.668,468
1570785524,283.406,-9.82266,-13.0597,179.143,3.0542,-144.668,468
1570785524,283.406,-9.82266,-13.0597,179.143,3.0542,-144.668,468
1570785524,283.406,-9.82266,-13.0597,179.143,3.0542,-144.668,468
1570785524,283.406,-9.82266,-13.0597,179.143,3.0542,-144.668,468
1570785524,283.406,-9.82266,-13.0597,179.143,3.0542,-144.668,468
1570785524,283.406,-9.82266,-13.0597,179.143,3.0542,-144.668,468
1570785524,283.406,-9.82266,-13.0597,179.143,3.0542,-144.668,468
1570785525,283.406,-9.82266,-13.0597,179.143,3.0542,-144.668,464
1570785525,283.406,-9.82266,-13.0597,179.143,3.0542,-144.668,464
1570785525,283.406,-9.82266,-13.0597,179.143,3.0542,-144.668,464
1570785525,283.406,-9.82266,-13.0597,179.143,3.0542,-144.668,464
1570785525,283.406,-9.82266,-13.0597,179.143,3.0542,-144.668,464
1570785525,283.406,-9.82266,-13.0597,179.143,3.0542,-144.668,464
1570785525,283.406,-9.82266,-13.0597,179.143,3.0542,-144.668,464
1570785525,283.406,-9.82266,-13.0597,179.143,3.0542,-144.668,464
1570785525,283.406,-9.82266,-13.0597,179.143,3.0542,-144.668,464
1570785525,283.406,-9.82266,-13.0597,179.143,3.0542,-144.668,464
1570785525,283.406,-9.82266,-13.0597,179.143,3.0542,-144.646,464
1570785525,283.406,-9.82266,-13.0597,179.143,3.0542,-144.646,460
1570785525,283.406,-9.82266,-13.0597,179.143,3.0542,-144.646,460
1570785525,283.406,-9.82266,-13.0597,179.143,3.0542,-144.646,460
1570785525,283.406,-9.82266,-13.0597,179.143,3.0542,-144.646,460
1570785525,283.406,-9.82266,-13.0597,179.143,3.0542,-144.646,460
1570785525,283.406,-9.82266,-13.0597,179.143,3.0542,-144.646,460
1570785525,283.406,-9.82266,-13.0597,179.143,3.03223,-144.646,456
1570785525,283.406,-9.82266,-13.0597,179.143,3.03223,-144.646,456
1570785525,283.406,-9.82266,-13.0597,179.143,3.03223,-144.646,456
1570785525,283.406,-9.82266,-13.0597,179.143,3.03223,-144.646,456
1570785525,283.406,-9.82266,-13.0597,179.143,3.03223,-144.646,456
1570785525,283.406,-9.82266,-13.0597,179.143,3.03223,-144.646,456
1570785525,283.406,-9.82266,-13.0597,179.143,3.03223,-144.646,456
1570785525,283.406,-9.82266,-13.0597,179.143,3.03223,-144.646,456
1570785525,283.406,-9.82266,-13.0597,179.143,3.03223,-144.646,456
1570785525,283.406,-9.82266,-13.0597,179.143,3.0542,-144.646,456
1570785525,283.406,-9.82266,-13.0597,179.143,3.0542,-144.646,456
1570785525,283.406,-9.82266,-13.0597,179.143,3.0542,-144.646,460
1570785525,283.406,-9.82266,-13.0597,179.143,3.0542,-144.646,460
1570785525,283.406,-9.82266,-13.0597,179.143,3.0542,-144.668,460
1570785525,283.406,-9.82266,-13.0597,179.143,3.0542,-144.668,460
1570785525,283.406,-9.82266,-13.0597,179.143,3.0542,-144.668,460
1570785525,283.406,-9.82266,-13.0597,179.143,3.0542,-144.668,460
1570785525,283.406,-9.82266,-13.0597,179.143,3.0542,-144.668,460
1570785525,283.406,-9.82266,-13.0597,179.143,3.0542,-144.668,460
1570785525,283.406,-9.82266,-13.0597,179.143,3.0542,-144.668,460
1570785525,283.406,-9.82266,-13.0597,179.143,3.0542,-144.668,460
1570785525,283.406,-9.82266,-13.0597,179.143,3.0542,-144.668,464
1570785525,283.406,-9.82266,-13.0597,179.143,3.0542,-144.668,464
1570785525,283.406,-9.82266,-13.0597,179.143,3.0542,-144.668,464
1570785525,283.406,-9.82266,-13.0597,179.143,3.0542,-144.668,464
1570785525,283.406,-9.82266,-13.0597,179.143,3.0542,-144.668,464
1570785525,283.406,-9.82266,-13.0597,179.143,3.0542,-144.668,464
1570785525,283.406,-9.82266,-13.0597,179.143,3.0542,-144.668,464
1570785525,283.406,-9.82266,-13.0597,179.143,3.0542,-144.668,468
1570785525,283.406,-9.82266,-13.0597,179.143,3.0542,-144.668,468
1570785525,283.406,-9.82266,-13.0597,179.143,3.0542,-144.668,468
1570785525,283.406,-9.82266,-13.0597,179.143,3.0542,-144.668,468
1570785525,283.406,-9.82266,-13.0597,179.143,3.0542,-144.668,468
1570785525,283.406,-9.82266,-13.0597,179.143,3.0542,-144.668,468
1570785525,283.406,-9.82266,-13.0597,179.143,3.0542,-144.668,468
1570785525,283.406,-9.82266,-13.0597,179.143,3.0542,-144.668,468
1570785525,283.406,-9.82266,-13.0597,179.143,3.0542,-144.668,468
1570785525,283.406,-9.82266,-13.0597,179.143,3.0542,-144.668,468
1570785525,283.406,-9.82266,-13.0597,179.143,3.0542,-144.668,468
1570785525,283.406,-9.82266,-13.0597,179.143,3.0542,-144.668,468
1570785525,283.406,-9.82266,-13.0597,179.143,3.0542,-144.668,468
1570785525,283.406,-9.82266,-13.0597,179.143,3.0542,-144.668,468
1570785525,283.406,-9.82266,-13.0597,179.143,3.0542,-144.668,468
1570785525,283.406,-9.82266,-13.0597,179.143,3.0542,-144.668,464
1570785525,283.406,-9.82266,-13.0597,179.143,3.0542,-144.668,464
1570785525,283.406,-9.82266,-13.0597,179.143,3.0542,-144.668,464
1570785525,283.406,-9.82266,-13.0597,179.143,3.0542,-144.668,464
1570785525,283.406,-9.82266,-13.0597,179.143,3.0542,-144.668,464
1570785525,283.406,-9.82266,-13.0597,179.143,3.0542,-144.668,464
1570785525,283.406,-9.82266,-13.0597,179.143,3.0542,-144.668,464
1570785525,283.406,-9.82266,-13.0597,179.143,3.0542,-144.668,464
1570785525,283.406,-9.82266,-13.0597,179.143,3.0542,-144.668,464
1570785525,283.406,-9.82266,-13.0597,179.143,3.0542,-144.668,464
1570785525,283.406,-9.82266,-13.0597,179.143,3.0542,-144.668,464
1570785525,283.406,-9.82266,-13.0597,179.143,3.0542,-144.668,464
1570785525,283.406,-9.82266,-13.0597,179.143,3.0542,-144.668,464
1570785525,283.406,-9.82266,-13.0597,179.143,3.0542,-144.668,464
1570785525,283.406,-9.82266,-13.0597,179.143,3.0542,-144.668,464
1570785525,283.406,-9.82266,-13.0597,179.143,3.0542,-144.668,464
1570785525,283.406,-9.82266,-13.0597,179.143,3.0542,-144.668,464
1570785525,283.406,-9.82266,-13.0597,179.143,3.0542,-144.668,464
1570785525,283.406,-9.82266,-13.0597,179.143,3.03223,-144.668,464
1570785525,283.406,-9.82266,-13.0597,179.143,3.03223,-144.668,468
1570785525,283.406,-9.82266,-13.0597,179.143,3.03223,-144.668,468
1570785525,283.406,-9.82266,-13.0597,179.143,3.03223,-144.668,468
1570785525,283.406,-9.82266,-13.0597,179.143,3.03223,-144.668,468
1570785525,283.406,-9.82266,-13.0597,179.143,3.03223,-144.668,468
1570785525,283.406,-9.82266,-13.0597,179.143,3.03223,-144.668,468
1570785525,283.406,-9.82266,-13.0597,179.143,3.03223,-144.668,468
1570785525,283.406,-9.82266,-13.0597,179.143,3.03223,-144.668,468
1570785525,283.406,-9.82266,-13.0597,179.143,3.03223,-144.668,468
1570785525,283.406,-9.82266,-13.0597,179.143,3.0542,-144.668,468
1570785525,283.406,-9.82266,-13.0597,179.143,3.0542,-144.668,468
1570785525,283.406,-9.82266,-13.0597,179.143,3.0542,-144.668,468
1570785525,283.406,-9.82266,-13.0597,179.143,3.0542,-144.668,468
1570785525,283.406,-9.82266,-13.0597,179.143,3.0542,-144.668,468
1570785525,283.406,-9.82266,-13.0597,179.143,3.0542,-144.668,468
1570785525,283.406,-9.82266,-13.0597,179.143,3.0542,-144.668,468
1570785525,283.406,-9.82266,-13.0597,179.143,3.0542,-144.668,468
1570785525,283.406,-9.82266,-13.0597,179.143,3.0542,-144.668,468
1570785525,283.406,-9.82266,-13.0597,179.143,3.0542,-144.668,468
1570785525,283.406,-9.82266,-13.0597,179.143,3.0542,-144.668,468
1570785525,283.406,-9.82266,-13.0597,179.121,3.0542,-144.668,468
1570785526,283.406,-9.82266,-13.0597,179.121,3.0542,-144.668,468
1570785526,283.406,-9.82266,-13.0597,179.121,3.0542,-144.668,464
1570785526,283.406,-9.82266,-13.0597,179.121,3.0542,-144.668,464
1570785526,283.406,-9.82266,-13.0597,179.121,3.0542,-144.668,464
1570785526,283.406,-9.82266,-13.0597,179.121,3.0542,-144.668,464
1570785526,283.406,-9.82266,-13.0597,179.121,3.0542,-144.668,464
1570785526,283.406,-9.82266,-13.0597,179.121,3.0542,-144.668,464
1570785526,283.406,-9.82266,-13.0597,179.121,3.0542,-144.668,464
1570785526,283.406,-9.82266,-13.0597,179.143,3.0542,-144.668,464
1570785526,283.406,-9.82266,-13.0597,179.143,3.0542,-144.668,464
1570785526,283.406,-9.82266,-13.0597,179.143,3.0542,-144.668,464
1570785526,283.406,-9.82266,-13.0597,179.143,3.0542,-144.668,464
1570785526,283.406,-9.82266,-13.0597,179.143,3.0542,-144.668,460
1570785526,283.406,-9.82266,-13.0597,179.143,3.0542,-144.668,460
1570785526,283.406,-9.82266,-13.0597,179.143,3.0542,-144.668,460
1570785526,283.406,-9.82266,-13.0597,179.143,3.0542,-144.668,460
1570785526,283.406,-9.82266,-13.0597,179.143,3.0542,-144.668,460
1570785526,283.406,-9.82266,-13.0597,179.143,3.03223,-144.668,460
1570785526,283.406,-9.82266,-13.0597,179.143,3.03223,-144.668,460
1570785529,322.473,-49.8946,-10.0459,179.495,4.10889,-144.382,388
1570785529,322.473,-49.8946,-10.0459,179.495,4.10889,-144.382,388
1570785529,322.473,-49.8946,-10.0459,179.495,4.10889,-144.382,388
1570785529,322.473,-49.8946,-10.0459,179.495,4.10889,-144.382,388
1570785529,322.473,-49.8946,-10.0459,179.495,4.10889,-144.36,388
1570785529,322.473,-49.8946,-10.0459,179.495,4.10889,-144.36,388
1570785530,322.362,-49.8946,-10.0459,179.495,4.10889,-144.36,388
1570785530,322.362,-49.8946,-10.0459,179.495,4.10889,-144.36,388
1570785530,322.362,-49.8946,-10.0459,179.495,4.10889,-144.36,388
1570785530,322.362,-49.8946,-10.0459,179.495,4.10889,-144.36,388
1570785530,322.362,-49.8946,-10.0459,179.495,4.10889,-144.36,388
1570785530,322.362,-49.8946,-10.0459,179.495,4.10889,-144.36,392
1570785530,322.362,-49.8946,-10.0459,179.495,4.10889,-144.36,392
1570785530,322.362,-49.8946,-10.0459,179.495,4.13086,-144.36,392
1570785530,322.362,-49.8946,-10.0459,179.495,4.13086,-144.36,392
1570785530,322.362,-49.8946,-10.0459,179.495,4.13086,-144.36,396
1570785530,322.362,-49.8946,-10.0459,179.495,4.13086,-144.36,396
1570785530,322.362,-49.8946,-10.0459,179.495,4.13086,-144.382,396
1570785530,322.362,-49.8946,-10.0459,179.495,4.13086,-144.382,396
1570785530,322.362,-49.8946,-10.0459,179.495,4.13086,-144.382,396
1570785530,322.362,-49.8946,-10.0459,179.495,4.13086,-144.382,396
1570785530,322.362,-49.8946,-10.0459,179.495,4.13086,-144.382,400
1570785530,322.362,-49.8946,-10.0459,179.495,4.13086,-144.382,400
1570785530,322.362,-49.8946,-10.0459,179.473,4.13086,-144.382,400
1570785530,322.362,-49.8946,-10.0459,179.473,4.13086,-144.382,400
1570785530,322.362,-49.8946,-10.0459,179.473,4.13086,-144.382,400
1570785530,322.362,-49.8946,-10.0459,179.495,4.13086,-144.382,400
1570785530,322.362,-49.8946,-10.0459,179.495,4.13086,-144.382,400
1570785530,322.362,-49.8946,-10.0459,179.495,4.13086,-144.382,400
1570785530,322.362,-49.8946,-10.0459,179.495,4.10889,-144.382,400
1570785530,322.362,-49.8946,-10.0459,179.495,4.10889,-144.382,400
1570785530,322.362,-49.8946,-10.0459,179.495,4.10889,-144.382,400
1570785530,322.362,-49.8946,-10.0459,179.495,4.10889,-144.382,400
1570785530,322.362,-49.8946,-10.0459,179.495,4.10889,-144.382,400
1570785530,322.362,-49.8946,-10.0459,179.495,4.10889,-144.382,400
1570785530,322.362,-49.8946,-10.0459,179.495,4.10889,-144.382,400
1570785530,322.362,-49.8946,-10.0459,179.495,4.10889,-144.382,400
1570785530,322.362,-49.783,-10.0459,179.495,4.10889,-144.382,404
1570785530,322.362,-49.783,-10.0459,179.495,4.10889,-144.382,404
1570785530,322.362,-49.783,-10.0459,179.495,4.10889,-144.382,404
1570785530,322.362,-49.783,-10.0459,179.495,4.10889,-144.382,404
1570785530,322.362,-49.783,-10.0459,179.495,4.10889,-144.382,404
1570785530,322.362,-49.8946,-10.0459,179.495,4.10889,-144.382,404
1570785530,322.362,-49.8946,-10.0459,179.495,4.10889,-144.382,404
1570785530,322.362,-49.8946,-10.0459,179.495,4.10889,-144.382,404
1570785530,322.362,-49.8946,-10.0459,179.495,4.10889,-144.382,404
1570785530,322.362,-49.8946,-10.0459,179.495,4.10889,-144.382,404
1570785530,322.362,-49.8946,-10.0459,179.495,4.10889,-144.382,404
1570785530,322.362,-49.8946,-10.0459,179.495,4.10889,-144.382,404
1570785530,322.362,-49.8946,-10.0459,179.495,4.10889,-144.382,404
1570785530,322.362,-49.8946,-10.0459,179.495,4.10889,-144.382,404
1570785530,322.362,-49.8946,-10.0459,179.495,4.10889,-144.382,404
1570785530,322.362,-49.8946,-10.0459,179.495,4.10889,-144.36,404
1570785530,322.362,-49.8946,-10.0459,179.495,4.10889,-144.36,404
1570785530,322.362,-49.8946,-10.0459,179.495,4.10889,-144.36,404
1570785530,322.362,-49.8946,-10.0459,179.495,4.10889,-144.36,404
1570785530,322.362,-49.8946,-10.0459,179.495,4.10889,-144.36,404
1570785530,322.362,-49.8946,-10.0459,179.495,4.10889,-144.36,404
1570785530,322.362,-49.8946,-10.0459,179.495,4.10889,-144.36,404
1570785530,322.362,-49.783,-10.0459,179.495,4.10889,-144.36,404
1570785530,322.362,-49.783,-10.0459,179.495,4.10889,-144.36,404
1570785530,322.362,-49.783,-10.0459,179.495,4.10889,-144.36,404
1570785530,322.362,-49.783,-10.0459,179.495,4.10889,-144.36,404
1570785530,322.362,-49.783,-10.0459,179.495,4.10889,-144.36,404
1570785530,322.362,-49.783,-10.0459,179.495,4.10889,-144.36,404
1570785530,322.362,-49.783,-10.0459,179.495,4.10889,-144.36,404
1570785530,322.362,-49.783,-10.0459,179.495,4.10889,-144.36,400
1570785530,322.362,-49.783,-10.0459,179.495,4.10889,-144.36,400
1570785530,322.362,-49.783,-10.0459,179.495,4.10889,-144.36,400
1570785530,322.362,-49.783,-10.0459,179.495,4.10889,-144.36,400
1570785530,322.362,-49.783,-10.0459,179.495,4.10889,-144.36,400
1570785530,322.362,-49.783,-10.0459,179.495,4.10889,-144.36,400
1570785530,322.362,-49.783,-10.0459,179.495,4.10889,-144.36,400
1570785530,322.362,-49.783,-10.0459,179.495,4.10889,-144.36,400
1570785530,322.362,-49.783,-10.0459,179.495,4.10889,-144.36,400
1570785530,322.362,-49.783,-10.0459,179.495,4.10889,-144.36,400
1570785530,322.362,-49.783,-10.0459,179.495,4.10889,-144.36,400
1570785530,322.362,-49.783,-10.0459,179.495,4.10889,-144.36,400
1570785530,322.362,-49.783,-10.0459,179.495,4.10889,-144.36,404
1570785530,322.362,-49.783,-10.0459,179.495,4.10889,-144.36,404
1570785530,322.362,-49.783,-10.0459,179.495,4.10889,-144.36,404
1570785530,322.362,-49.8946,-10.0459,179.495,4.10889,-144.36,404
1570785530,322.362,-49.8946,-10.0459,179.495,4.10889,-144.36,404
1570785530,322.362,-49.8946,-10.0459,179.495,4.10889,-144.36,404
1570785530,322.362,-49.8946,-10.0459,179.495,4.10889,-144.36,404
1570785530,322.362,-49.8946,-10.0459,179.495,4.10889,-144.382,404
1570785530,322.362,-49.8946,-10.0459,179.495,4.10889,-144.382,404
1570785530,322.362,-49.8946,-10.0459,179.495,4.10889,-144.382,404
1570785530,322.362,-49.8946,-10.0459,179.495,4.10889,-144.382,404
1570785530,322.362,-49.8946,-10.0459,179.495,4.10889,-144.382,404
1570785530,322.362,-49.8946,-10.0459,179.495,4.10889,-144.382,404
1570785530,322.362,-49.8946,-10.0459,179.495,4.10889,-144.382,404
1570785530,322.362,-49.783,-10.0459,179.495,4.10889,-144.382,404
1570785530,322.362,-49.783,-10.0459,179.495,4.10889,-144.382,404
1570785530,322.362,-49.8946,-10.0459,179.495,4.10889,-144.382,404
1570785530,322.362,-49.8946,-10.0459,179.495,4.10889,-144.382,404
1570785530,322.362,-49.8946,-10.0459,179.495,4.10889,-144.382,404
1570785530,322.362,-49.8946,-10.0459,179.495,4.10889,-144.382,404
1570785530,322.362,-49.783,-10.0459,179.495,4.10889,-144.382,404
1570785530,322.362,-49.783,-10.0459,179.495,4.10889,-144.382,404
1570785530,322.362,-49.783,-10.0459,179.495,4.10889,-144.382,404
1570785530,322.362,-49.783,-10.0459,179.495,4.10889,-144.382,404
1570785530,322.362,-49.783,-10.0459,179.495,4.10889,-144.382,404
1570785530,322.362,-49.783,-10.0459,179.495,4.10889,-144.382,404
1570785530,322.362,-49.783,-10.0459,179.495,4.10889,-144.382,404
1570785531,322.362,-49.783,-10.0459,179.495,4.10889,-144.382,404
1570785531,322.362,-49.783,-10.0459,179.495,4.10889,-144.382,404
1570785531,322.362,-49.783,-10.0459,179.495,4.10889,-144.382,404
1570785531,322.362,-49.783,-10.0459,179.495,4.10889,-144.382,404
1570785531,322.362,-49.783,-10.0459,179.495,4.10889,-144.382,404
1570785531,322.362,-49.783,-10.0459,179.495,4.10889,-144.382,404
1570785531,322.362,-49.8946,-10.0459,179.495,4.10889,-144.382,404
1570785531,322.362,-49.8946,-10.0459,179.495,4.10889,-144.382,404
1570785531,322.362,-49.8946,-10.0459,179.495,4.10889,-144.382,404
1570785531,322.362,-49.8946,-10.0459,179.495,4.10889,-144.382,404
1570785531,322.362,-49.8946,-10.0459,179.495,4.10889,-144.36,404
1570785531,322.362,-49.8946,-10.0459,179.495,4.10889,-144.36,404
1570785531,322.362,-49.8946,-10.0459,179.495,4.10889,-144.36,400
1570785531,322.362,-49.8946,-10.0459,179.495,4.10889,-144.36,400
1570785531,322.362,-49.8946,-10.0459,179.495,4.10889,-144.36,400
1570785531,322.362,-49.8946,-10.0459,179.495,4.10889,-144.36,400
1570785531,322.362,-49.8946,-10.0459,179.495,4.10889,-144.36,400
1570785531,322.362,-49.8946,-10.0459,179.495,4.10889,-144.36,400
1570785531,322.362,-49.8946,-10.0459,179.495,4.10889,-144.36,400
1570785531,322.362,-49.8946,-10.0459,179.495,4.10889,-144.36,400
1570785531,322.362,-49.8946,-10.0459,179.495,4.10889,-144.36,400
1570785531,322.362,-49.8946,-10.0459,179.495,4.10889,-144.36,400
1570785531,322.362,-49.8946,-10.0459,179.495,4.10889,-144.36,400
1570785531,322.362,-49.8946,-10.0459,179.495,4.10889,-144.36,400
1570785531,322.362,-49.783,-10.0459,179.495,4.10889,-144.36,400
1570785531,322.362,-49.783,-10.0459,179.495,4.10889,-144.36,400
1570785531,322.362,-49.783,-10.0459,179.495,4.10889,-144.36,400
1570785531,322.362,-49.783,-10.0459,179.495,4.10889,-144.36,400
1570785531,322.362,-49.783,-10.0459,179.495,4.10889,-144.36,400
1570785531,322.362,-49.783,-10.0459,179.495,4.10889,-144.36,400
1570785531,322.362,-49.783,-10.0459,179.495,4.10889,-144.36,400
1570785531,322.362,-49.783,-10.0459,179.495,4.10889,-144.36,400
1570785531,322.362,-49.783,-10.0459,179.495,4.10889,-144.36,400
1570785531,322.362,-49.783,-10.0459,179.495,4.10889,-144.382,400
1570785531,322.362,-49.783,-10.0459,179.517,4.10889,-144.382,400
1570785531,322.362,-49.783,-10.0459,179.517,4.10889,-144.382,400
1570785531,322.362,-49.783,-10.0459,179.517,4.10889,-144.382,400
1570785531,322.362,-49.783,-10.0459,179.517,4.10889,-144.382,400
1570785531,322.362,-49.783,-10.0459,179.517,4.10889,-144.382,400
1570785531,322.473,-49.783,-10.0459,179.517,4.13086,-144.382,400
1570785531,322.473,-49.783,-10.0459,179.517,4.13086,-144.382,400
1570785531,322.473,-49.783,-10.0459,179.517,4.13086,-144.382,400
1570785531,322.473,-49.783,-10.0459,179.517,4.13086,-144.382,400
1570785531,322.473,-49.783,-10.0459,179.517,4.13086,-144.382,400
1570785531,322.473,-49.783,-10.0459,179.517,4.13086,-144.382,400
1570785531,322.473,-49.783,-9.93428,179.517,4.13086,-144.382,400
1570785531,322.473,-49.783,-9.93428,179.517,4.13086,-144.382,396
1570785531,322.473,-49.8946,-9.93428,179.517,4.13086,-144.382,396
1570785531,322.473,-49.8946,-9.93428,179.495,4.13086,-144.382,396
1570785531,322.473,-49.8946,-9.93428,179.495,4.13086,-144.36,396
1570785531,322.473,-49.8946,-9.93428,179.495,4.13086,-144.36,396
1570785531,322.473,-49.8946,-9.93428,179.495,4.13086,-144.36,396
1570785531,322.473,-49.8946,-9.93428,179.495,4.13086,-144.36,396
1570785531,322.473,-49.8946,-9.93428,179.495,4.13086,-144.36,396
1570785531,322.362,-49.8946,-9.93428,179.495,4.13086,-144.36,396
1570785531,322.362,-49.8946,-9.93428,179.495,4.13086,-144.36,396
1570785531,322.362,-49.8946,-9.93428,179.495,4.13086,-144.36,396
1570785531,322.362,-49.8946,-9.93428,179.495,4.13086,-144.36,396
1570785531,322.362,-49.8946,-9.93428,179.495,4.13086,-144.36,396
1570785531,322.362,-49.8946,-9.93428,179.495,4.13086,-144.36,396
1570785531,322.362,-49.783,-10.0459,179.495,4.13086,-144.36,396
1570785531,322.362,-49.783,-10.0459,179.495,4.13086,-144.36,396
1570785531,322.362,-49.783,-10.0459,179.517,4.13086,-144.36,400
1570785531,322.362,-49.783,-10.0459,179.517,4.13086,-144.36,400
1570785531,322.362,-49.783,-10.0459,179.517,4.10889,-144.36,400
1570785531,322.362,-49.783,-10.0459,179.517,4.10889,-144.36,400
1570785531,322.362,-49.783,-10.0459,179.517,4.10889,-144.36,400
1570785531,322.362,-49.783,-10.0459,179.517,4.10889,-144.36,400
1570785531,322.362,-49.783,-10.0459,179.517,4.10889,-144.36,400
1570785531,322.362,-49.783,-10.0459,179.495,4.10889,-144.36,404
1570785531,322.362,-49.783,-10.0459,179.495,4.10889,-144.36,404
1570785531,322.362,-49.783,-10.0459,179.495,4.10889,-144.36,404
1570785531,322.362,-49.783,-10.0459,179.495,4.10889,-144.36,404
1570785531,322.362,-49.783,-10.0459,179.495,4.10889,-144.36,404
1570785531,322.362,-49.783,-10.0459,179.517,4.10889,-144.382,404
1570785531,322.362,-49.783,-10.0459,179.517,4.10889,-144.382,404
1570785531,322.362,-49.783,-10.0459,179.495,4.10889,-144.382,404
1570785531,322.362,-49.783,-10.0459,179.495,4.13086,-144.382,404
1570785531,322.362,-49.783,-10.0459,179.495,4.13086,-144.382,404
1570785531,322.362,-49.783,-10.0459,179.495,4.13086,-144.382,404
1570785531,322.362,-49.783,-10.0459,179.495,4.13086,-144.382,404
1570785531,322.362,-49.783,-9.93428,179.495,4.13086,-144.382,404
1570785531,322.362,-49.783,-9.93428,179.495,4.13086,-144.382,404
1570785531,322.362,-49.783,-9.93428,179.495,4.13086,-144.382,404
1570785531,322.362,-49.783,-9.93428,179.495,4.13086,-144.382,408
1570785531,322.362,-49.783,-9.93428,179.495,4.13086,-144.382,408
1570785531,322.362,-49.783,-9.93428,179.517,4.13086,-144.382,408
1570785531,322.362,-49.783,-9.93428,179.517,4.13086,-144.382,408
1570785531,322.362,-49.783,-9.93428,179.517,4.13086,-144.382,408
1570785531,322.362,-49.783,-9.93428,179.517,4.13086,-144.382,408
1570785531,322.362,-49.783,-10.0459,179.517,4.13086,-144.382,408
1570785531,322.362,-49.783,-10.0459,179.517,4.13086,-144.36,408
1570785531,322.362,-49.783,-10.0459,179.517,4.10889,-144.36,408
1570785531,322.362,-49.783,-10.0459,179.517,4.10889,-144.36,408
1570785531,322.362,-49.783,-10.0459,179.517,4.10889,-144.36,408
1570785531,322.362,-49.783,-10.0459,179.517,4.10889,-144.36,408
1570785531,322.362,-49.783,-10.0459,179.517,4.10889,-144.36,408
1570785531,322.362,-49.783,-10.0459,179.517,4.10889,-144.36,408
1570785531,322.362,-49.783,-10.0459,179.517,4.10889,-144.36,408
1570785531,322.362,-49.783,-10.0459,179.517,4.10889,-144.36,404
1570785532,322.362,-49.783,-10.0459,179.517,4.10889,-144.36,404
1570785532,322.362,-49.783,-10.0459,179.517,4.10889,-144.36,404
1570785532,322.362,-49.783,-10.0459,179.517,4.10889,-144.36,404
1570785532,322.362,-49.783,-10.0459,179.517,4.10889,-144.36,400
1570785532,322.362,-49.783,-10.0459,179.517,4.10889,-144.36,400
1570785532,322.362,-49.783,-10.0459,179.517,4.10889,-144.36,400
1570785532,322.362,-49.783,-10.0459,179.517,4.10889,-144.36,396
1570785532,322.362,-49.783,-10.0459,179.517,4.10889,-144.36,396
1570785532,322.362,-49.783,-10.0459,179.517,4.10889,-144.36,396
1570785532,322.362,-49.783,-10.0459,179.517,4.10889,-144.36,396
1570785532,322.362,-49.783,-10.0459,179.517,4.10889,-144.36,396
1570785532,322.362,-49.783,-10.0459,179.517,4.10889,-144.36,396
1570785532,322.362,-49.783,-10.0459,179.517,4.10889,-144.36,392
1570785532,322.362,-49.783,-10.0459,179.517,4.10889,-144.36,392
1570785532,322.362,-49.783,-10.0459,179.517,4.10889,-144.36,392
1570785532,322.362,-49.783,-10.0459,179.517,4.10889,-144.36,392
1570785532,322.362,-49.783,-10.0459,179.517,4.08691,-144.36,392
1570785532,322.362,-49.783,-10.0459,179.517,4.08691,-144.36,392
1570785532,322.362,-49.783,-10.0459,179.517,4.08691,-144.36,392
1570785532,322.362,-49.783,-10.1575,179.517,4.08691,-144.36,392
1570785532,322.362,-49.783,-10.1575,179.517,4.08691,-144.36,392
1570785532,322.362,-49.783,-10.0459,179.517,4.08691,-144.36,392
1570785532,322.362,-49.783,-10.0459,179.517,4.08691,-144.36,392
1570785532,322.362,-49.783,-10.0459,179.517,4.08691,-144.36,392
1570785532,322.362,-49.783,-10.0459,179.517,4.08691,-144.36,392
1570785532,322.362,-49.783,-10.0459,179.517,4.10889,-144.36,392
1570785532,322.362,-49.783,-10.0459,179.517,4.10889,-144.36,392
1570785532,322.362,-49.783,-10.0459,179.517,4.10889,-144.36,392
1570785532,322.362,-49.783,-10.0459,179.517,4.10889,-144.36,392
1570785532,322.362,-49.783,-10.0459,179.517,4.10889,-144.36,392
1570785532,322.362,-49.783,-10.0459,179.517,4.10889,-144.36,392
1570785532,322.362,-49.783,-10.0459,179.517,4.10889,-144.36,392
1570785532,322.362,-49.783,-10.0459,179.517,4.10889,-144.36,392
1570785532,322.362,-49.783,-10.0459,179.517,4.10889,-144.36,392
1570785532,322.362,-49.783,-10.0459,179.517,4.10889,-144.36,392
1570785532,322.362,-49.783,-10.0459,179.517,4.10889,-144.36,392
1570785532,322.362,-49.783,-10.0459,179.517,4.10889,-144.36,392
1570785532,322.362,-49.783,-10.0459,179.495,4.10889,-144.36,392
1570785532,322.362,-49.783,-10.0459,179.495,4.10889,-144.36,392
1570785532,322.362,-49.783,-10.0459,179.495,4.10889,-144.36,392
1570785532,322.362,-49.783,-10.0459,179.495,4.10889,-144.36,392
1570785532,322.362,-49.8946,-10.0459,179.495,4.10889,-144.36,392
1570785532,322.362,-49.8946,-10.0459,179.495,4.10889,-144.36,392
1570785532,322.362,-49.8946,-10.0459,179.495,4.10889,-144.36,392
1570785532,322.362,-49.8946,-10.0459,179.495,4.10889,-144.36,392
1570785532,322.362,-49.8946,-10.0459,179.495,4.10889,-144.36,392
1570785532,322.362,-49.8946,-10.0459,179.495,4.10889,-144.36,392
1570785532,322.362,-49.8946,-10.0459,179.495,4.10889,-144.36,396
1570785532,322.362,-49.8946,-10.0459,179.495,4.10889,-144.36,396
1570785532,322.362,-49.8946,-10.0459,179.495,4.10889,-144.36,396
1570785532,322.362,-49.8946,-10.0459,179.495,4.10889,-144.36,396
1570785532,322.362,-49.8946,-10.0459,179.495,4.10889,-144.36,396
1570785532,322.362,-49.8946,-10.0459,179.495,4.10889,-144.36,396
1570785532,322.362,-49.783,-10.0459,179.495,4.10889,-144.36,396
1570785532,322.362,-49.783,-10.0459,179.495,4.10889,-144.36,396
1570785532,322.362,-49.783,-10.0459,179.495,4.10889,-144.338,396
1570785532,322.362,-49.783,-10.0459,179.517,4.10889,-144.338,396
1570785532,322.362,-49.783,-10.0459,179.517,4.10889,-144.338,396
1570785532,322.362,-49.783,-10.0459,179.517,4.10889,-144.338,396
1570785532,322.362,-49.783,-10.0459,179.517,4.10889,-144.338,396
1570785532,322.362,-49.783,-10.0459,179.517,4.10889,-144.338,396
1570785532,322.362,-49.783,-10.0459,179.517,4.10889,-144.338,400
1570785532,322.362,-49.783,-10.0459,179.517,4.10889,-144.338,400
1570785532,322.362,-49.783,-10.0459,179.517,4.10889,-144.338,400
1570785532,322.362,-49.783,-10.0459,179.517,4.10889,-144.36,400
1570785532,322.362,-49.783,-10.0459,179.517,4.10889,-144.36,400
1570785532,322.362,-49.783,-10.0459,179.517,4.10889,-144.36,400
1570785532,322.362,-49.783,-10.0459,179.517,4.10889,-144.36,400
1570785532,322.362,-49.783,-10.0459,179.495,4.10889,-144.36,400
1570785532,322.362,-49.783,-10.0459,179.495,4.10889,-144.36,400
1570785532,322.362,-49.8946,-10.0459,179.495,4.10889,-144.36,400
1570785532,322.362,-49.8946,-10.0459,179.495,4.10889,-144.36,404
1570785532,322.362,-49.8946,-10.0459,179.495,4.10889,-144.36,404
1570785532,322.362,-49.8946,-10.0459,179.495,4.08691,-144.36,404
1570785532,322.362,-49.8946,-10.0459,179.495,4.08691,-144.36,404
1570785532,322.362,-49.8946,-10.0459,179.495,4.08691,-144.36,404
1570785532,322.362,-49.8946,-10.0459,179.495,4.08691,-144.36,400
1570785532,322.362,-49.8946,-10.0459,179.495,4.08691,-144.36,400
1570785532,322.362,-49.8946,-10.0459,179.495,4.08691,-144.36,400
1570785532,322.362,-49.8946,-10.0459,179.495,4.08691,-144.36,400
1570785532,322.362,-49.783,-10.0459,179.495,4.08691,-144.36,400
1570785532,322.362,-49.783,-10.0459,179.495,4.08691,-144.36,400
1570785532,322.362,-49.783,-10.0459,179.495,4.08691,-144.36,404
1570785532,322.362,-49.783,-10.0459,179.495,4.08691,-144.36,404
1570785532,322.362,-49.783,-10.0459,179.495,4.08691,-144.36,404
1570785532,322.362,-49.783,-10.0459,179.517,4.08691,-144.36,404
1570785532,322.362,-49.783,-10.0459,179.517,4.10889,-144.36,404
1570785532,322.362,-49.783,-10.0459,179.517,4.10889,-144.36,404
1570785532,322.362,-49.783,-10.0459,179.517,4.10889,-144.36,404
1570785532,322.362,-49.783,-10.0459,179.517,4.10889,-144.36,404
1570785532,322.362,-49.783,-10.0459,179.517,4.10889,-144.36,404
1570785532,322.362,-49.783,-10.0459,179.517,4.10889,-144.36,404
1570785532,322.362,-49.783,-10.0459,179.517,4.10889,-144.36,404
1570785532,322.362,-49.783,-10.0459,179.517,4.10889,-144.36,404
1570785532,322.362,-49.783,-10.0459,179.517,4.13086,-144.36,404
1570785532,322.362,-49.783,-10.0459,179.517,4.13086,-144.36,404
1570785532,322.362,-49.783,-10.0459,179.517,4.13086,-144.36,404
1570785532,322.362,-49.783,-10.0459,179.517,4.13086,-144.36,404
1570785533,322.362,-49.783,-10.0459,179.495,4.13086,-144.36,404
1570785533,322.362,-49.783,-10.0459,179.495,4.13086,-144.36,404
1570785533,322.362,-49.783,-10.0459,179.495,4.13086,-144.36,404
1570785533,322.362,-49.8946,-10.0459,179.495,4.13086,-144.36,404
1570785533,322.362,-49.8946,-10.0459,179.495,4.13086,-144.36,404
1570785533,322.362,-49.8946,-10.0459,179.495,4.13086,-144.36,404
1570785533,322.362,-49.8946,-10.0459,179.495,4.13086,-144.36,404
1570785533,322.362,-49.8946,-10.0459,179.495,4.13086,-144.36,404
1570785533,322.362,-49.8946,-10.0459,179.495,4.13086,-144.36,404
1570785533,322.362,-49.8946,-9.93428,179.495,4.13086,-144.36,404
1570785533,322.362,-49.8946,-9.93428,179.495,4.13086,-144.36,404
1570785533,322.362,-49.8946,-9.93428,179.495,4.13086,-144.36,404
1570785533,322.362,-49.8946,-9.93428,179.495,4.13086,-144.36,408
1570785533,322.362,-49.8946,-9.93428,179.495,4.13086,-144.36,408
1570785533,322.362,-49.8946,-9.93428,179.495,4.13086,-144.36,408
1570785533,322.362,-49.8946,-9.93428,179.495,4.13086,-144.36,408
1570785533,322.362,-49.8946,-9.93428,179.495,4.13086,-144.36,408
1570785533,322.362,-49.8946,-9.93428,179.495,4.10889,-144.36,408
1570785533,322.362,-49.8946,-10.0459,179.495,4.10889,-144.36,408
1570785533,322.362,-49.8946,-10.0459,179.495,4.10889,-144.36,408
1570785533,322.362,-49.8946,-10.0459,179.495,4.10889,-144.36,408
1570785533,322.362,-49.8946,-10.0459,179.495,4.10889,-144.36,412
1570785533,322.362,-49.8946,-10.0459,179.495,4.10889,-144.36,412
1570785533,322.362,-49.8946,-10.0459,179.495,4.10889,-144.36,412
1570785533,322.362,-49.8946,-10.0459,179.495,4.10889,-144.36,412
1570785533,322.362,-49.783,-10.0459,179.495,4.10889,-144.36,412
1570785533,322.362,-49.783,-10.0459,179.495,4.10889,-144.36,412
1570785533,322.362,-49.783,-10.0459,179.495,4.13086,-144.36,412
1570785533,322.362,-49.783,-10.0459,179.495,4.13086,-144.36,408
1570785533,322.362,-49.783,-10.0459,179.495,4.13086,-144.36,408
