time,x,y,z,ax,ay,az,q
1569686314,298.475,-41.0766,-15.1805,179.583,1.8457,-145.151,408
1569686314,298.475,-41.0766,-15.1805,179.583,1.8457,-145.151,408
1569686314,298.475,-41.0766,-15.1805,179.583,1.8457,-145.151,408
1569686314,298.475,-41.0766,-15.1805,179.583,1.8457,-145.151,408
1569686314,298.475,-41.0766,-15.1805,179.583,1.8457,-145.151,408
1569686314,298.475,-41.0766,-15.1805,179.583,1.8457,-145.151,408
1569686314,298.475,-41.0766,-15.1805,179.583,1.8457,-145.151,408
1569686314,298.475,-41.0766,-15.1805,179.583,1.8457,-145.129,408
1569686314,298.475,-41.0766,-15.1805,179.583,1.8457,-145.129,408
1569686314,298.475,-41.0766,-15.1805,179.583,1.8457,-145.129,408
1569686314,298.475,-41.0766,-15.1805,179.583,1.8457,-145.129,408
1569686314,298.475,-41.0766,-15.1805,179.583,1.82373,-145.129,408
1569686314,298.475,-41.0766,-15.1805,179.583,1.82373,-145.129,412
1569686314,298.475,-41.0766,-15.1805,179.583,1.82373,-145.129,412
1569686314,298.475,-41.0766,-15.1805,179.561,1.82373,-145.129,412
1569686314,298.475,-41.0766,-15.1805,179.561,1.82373,-145.129,412
1569686315,298.475,-41.0766,-15.1805,179.561,1.82373,-145.129,412
1569686315,298.475,-41.0766,-15.1805,179.561,1.82373,-145.129,412
1569686315,298.475,-41.0766,-15.1805,179.561,1.82373,-145.129,412
1569686315,298.475,-41.0766,-15.1805,179.561,1.82373,-145.129,412
1569686315,298.475,-41.0766,-15.1805,179.561,1.82373,-145.129,412
1569686315,298.475,-41.0766,-15.1805,179.561,1.82373,-145.129,412
1569686315,298.475,-41.0766,-15.1805,179.561,1.82373,-145.129,412
1569686315,298.475,-41.0766,-15.1805,179.561,1.82373,-145.129,412
1569686315,298.475,-41.0766,-15.1805,179.561,1.8457,-145.129,412
1569686315,298.475,-41.0766,-15.1805,179.561,1.8457,-145.129,412
1569686315,298.475,-41.0766,-15.1805,179.561,1.8457,-145.129,412
1569686315,298.475,-41.0766,-15.1805,179.561,1.8457,-145.129,412
1569686315,298.363,-41.0766,-15.1805,179.561,1.8457,-145.129,412
1569686315,298.363,-41.0766,-15.1805,179.561,1.8457,-145.129,412
1569686315,298.363,-41.0766,-15.1805,179.561,1.8457,-145.129,412
1569686315,298.363,-41.0766,-15.1805,179.561,1.8457,-145.129,412
1569686315,298.363,-41.0766,-15.1805,179.561,1.8457,-145.129,412
1569686315,298.363,-41.0766,-15.1805,179.561,1.8457,-145.129,412
1569686315,298.363,-41.0766,-15.1805,179.561,1.8457,-145.129,412
1569686315,298.363,-41.0766,-15.1805,179.561,1.8457,-145.129,412
1569686315,298.363,-41.0766,-15.1805,179.561,1.8457,-145.129,412
1569686315,298.363,-41.0766,-15.1805,179.561,1.8457,-145.129,412
1569686315,298.363,-41.0766,-15.1805,179.561,1.8457,-145.129,412
1569686315,298.363,-41.0766,-15.1805,179.561,1.8457,-145.129,412
1569686315,298.363,-41.0766,-15.1805,179.561,1.8457,-145.129,412
1569686315,298.363,-41.0766,-15.1805,179.561,1.8457,-145.129,412
1569686315,298.363,-41.0766,-15.1805,179.583,1.8457,-145.129,412
1569686315,298.363,-41.0766,-15.1805,179.583,1.8457,-145.129,412
1569686315,298.363,-41.0766,-15.1805,179.583,1.8457,-145.129,412
1569686315,298.363,-41.0766,-15.1805,179.561,1.8457,-145.129,412
1569686315,298.363,-41.0766,-15.1805,179.561,1.8457,-145.129,412
1569686315,298.363,-41.0766,-15.1805,179.561,1.8457,-145.129,412
1569686315,298.363,-41.0766,-15.1805,179.561,1.8457,-145.129,412
1569686315,298.363,-41.0766,-15.1805,179.561,1.8457,-145.129,412
1569686315,298.363,-41.0766,-15.1805,179.561,1.8457,-145.129,412
1569686315,298.363,-41.0766,-15.1805,179.561,1.8457,-145.129,412
1569686315,298.363,-41.0766,-15.1805,179.561,1.8457,-145.129,412
1569686315,298.363,-41.0766,-15.1805,179.561,1.8457,-145.129,412
1569686315,298.363,-41.0766,-15.1805,179.561,1.8457,-145.129,412
1569686315,298.363,-41.0766,-15.1805,179.561,1.8457,-145.129,412
1569686315,298.475,-41.0766,-15.1805,179.583,1.8457,-145.129,412
1569686315,298.475,-41.0766,-15.1805,179.583,1.8457,-145.129,412
1569686315,298.475,-41.0766,-15.1805,179.583,1.8457,-145.129,412
1569686315,298.475,-41.0766,-15.1805,179.583,1.8457,-145.129,412
1569686315,298.475,-41.0766,-15.1805,179.583,1.8457,-145.129,412
1569686315,298.475,-41.0766,-15.1805,179.583,1.8457,-145.129,412
1569686315,298.475,-41.0766,-15.1805,179.583,1.8457,-145.129,412
1569686315,298.475,-41.0766,-15.1805,179.583,1.8457,-145.129,412
1569686315,298.475,-41.0766,-15.1805,179.583,1.82373,-145.129,412
1569686315,298.475,-41.0766,-15.1805,179.583,1.82373,-145.129,412
1569686315,298.475,-41.0766,-15.1805,179.583,1.82373,-145.129,412
1569686315,298.475,-41.0766,-15.1805,179.583,1.82373,-145.129,416
1569686315,298.363,-41.0766,-15.1805,179.583,1.82373,-145.129,416
1569686315,298.363,-41.0766,-15.1805,179.583,1.82373,-145.129,416
1569686315,298.363,-41.0766,-15.1805,179.583,1.82373,-145.129,416
1569686315,298.363,-41.0766,-15.1805,179.583,1.82373,-145.129,416
1569686315,298.363,-41.0766,-15.1805,179.583,1.82373,-145.129,416
1569686315,298.363,-41.0766,-15.1805,179.583,1.82373,-145.129,416
1569686315,298.363,-41.0766,-15.1805,179.583,1.82373,-145.129,416
1569686315,298.363,-41.0766,-15.1805,179.583,1.82373,-145.129,416
1569686315,298.363,-41.0766,-15.1805,179.583,1.82373,-145.129,416
1569686315,298.363,-41.0766,-15.1805,179.583,1.82373,-145.129,416
1569686315,298.363,-41.0766,-15.1805,179.583,1.82373,-145.129,420
1569686315,298.363,-41.0766,-15.1805,179.583,1.82373,-145.129,420
1569686315,298.363,-41.0766,-15.1805,179.583,1.82373,-145.129,420
1569686315,298.475,-41.0766,-15.1805,179.583,1.82373,-145.129,416
1569686315,298.475,-41.0766,-15.1805,179.583,1.82373,-145.129,416
1569686315,298.475,-41.0766,-15.1805,179.583,1.82373,-145.129,416
1569686315,298.475,-41.0766,-15.1805,179.583,1.82373,-145.129,416
1569686315,298.475,-41.0766,-15.1805,179.583,1.82373,-145.129,416
1569686315,298.475,-41.0766,-15.1805,179.583,1.82373,-145.129,416
1569686315,298.475,-41.0766,-15.1805,179.583,1.82373,-145.129,416
1569686315,298.475,-41.0766,-15.1805,179.583,1.82373,-145.129,416
1569686315,298.475,-41.0766,-15.1805,179.583,1.82373,-145.129,416
1569686315,298.475,-41.0766,-15.1805,179.583,1.82373,-145.129,416
1569686315,298.475,-41.0766,-15.1805,179.583,1.82373,-145.129,416
1569686315,298.475,-41.0766,-15.1805,179.583,1.82373,-145.129,412
1569686315,298.363,-41.0766,-15.1805,179.583,1.82373,-145.129,412
1569686315,298.363,-41.0766,-15.1805,179.583,1.82373,-145.129,412
1569686315,298.363,-41.0766,-15.1805,179.583,1.82373,-145.129,412
1569686315,298.363,-41.0766,-15.1805,179.583,1.82373,-145.129,412
1569686315,298.363,-41.0766,-15.1805,179.583,1.82373,-145.129,412
1569686315,298.363,-41.0766,-15.1805,179.583,1.82373,-145.129,412
1569686315,298.363,-41.0766,-15.1805,179.583,1.8457,-145.129,412
1569686315,298.363,-41.0766,-15.1805,179.583,1.8457,-145.129,412
1569686315,298.363,-41.0766,-15.1805,179.583,1.8457,-145.129,412
1569686315,298.363,-41.0766,-15.1805,179.583,1.8457,-145.129,412
1569686315,298.363,-41.0766,-15.1805,179.583,1.8457,-145.129,412
1569686315,298.475,-41.0766,-15.1805,179.583,1.8457,-145.129,412
1569686315,298.475,-41.0766,-15.1805,179.583,1.8457,-145.129,412
1569686315,298.475,-41.0766,-15.1805,179.583,1.8457,-145.129,412
1569686315,298.475,-41.0766,-15.1805,179.583,1.8457,-145.129,412
1569686315,298.475,-41.0766,-15.1805,179.583,1.8457,-145.129,408
1569686315,298.475,-41.0766,-15.1805,179.583,1.8457,-145.129,408
1569686315,298.475,-41.0766,-15.1805,179.583,1.8457,-145.129,408
1569686315,298.475,-41.0766,-15.1805,179.583,1.8457,-145.129,408
1569686315,298.475,-41.0766,-15.1805,179.583,1.8457,-145.129,408
1569686315,298.363,-41.0766,-15.1805,179.583,1.8457,-145.129,408
1569686315,298.363,-41.0766,-15.1805,179.583,1.8457,-145.129,412
1569686315,298.363,-41.0766,-15.1805,179.583,1.8457,-145.129,412
1569686316,298.363,-41.0766,-15.1805,179.583,1.8457,-145.129,412
1569686316,298.363,-41.0766,-15.1805,179.583,1.8457,-145.129,412
1569686316,298.363,-41.0766,-15.1805,179.583,1.8457,-145.129,412
1569686316,298.363,-41.0766,-15.1805,179.583,1.8457,-145.129,412
1569686316,298.363,-41.0766,-15.1805,179.583,1.8457,-145.129,412
1569686316,298.363,-41.0766,-15.1805,179.583,1.8457,-145.129,416
1569686316,298.363,-41.0766,-15.1805,179.583,1.8457,-145.129,416
1569686316,298.363,-41.0766,-15.1805,179.583,1.8457,-145.129,416
1569686316,298.363,-41.0766,-15.1805,179.583,1.8457,-145.129,416
1569686316,298.363,-41.0766,-15.1805,179.583,1.8457,-145.129,416
1569686316,298.363,-41.0766,-15.1805,179.583,1.8457,-145.129,412
1569686316,298.363,-41.0766,-15.1805,179.583,1.8457,-145.129,412
1569686316,298.363,-41.0766,-15.1805,179.583,1.8457,-145.129,412
1569686316,298.363,-41.0766,-15.1805,179.583,1.8457,-145.129,412
1569686316,298.363,-41.0766,-15.1805,179.583,1.8457,-145.129,412
1569686316,298.363,-41.0766,-15.1805,179.583,1.8457,-145.129,412
1569686316,298.363,-41.0766,-15.1805,179.583,1.8457,-145.129,412
1569686316,298.363,-41.0766,-15.1805,179.583,1.8457,-145.151,412
1569686316,298.363,-41.0766,-15.1805,179.583,1.8457,-145.151,412
1569686316,298.363,-41.0766,-15.1805,179.583,1.8457,-145.151,412
1569686316,298.363,-41.0766,-15.1805,179.583,1.8457,-145.151,412
1569686316,298.363,-41.0766,-15.1805,179.583,1.8457,-145.151,412
1569686316,298.363,-41.0766,-15.1805,179.583,1.8457,-145.151,412
1569686316,298.363,-41.0766,-15.1805,179.583,1.8457,-145.151,408
1569686316,298.363,-41.0766,-15.1805,179.583,1.8457,-145.151,408
1569686316,298.475,-41.0766,-15.1805,179.583,1.8457,-145.151,408
1569686316,298.475,-41.0766,-15.1805,179.583,1.8457,-145.151,408
1569686316,298.475,-41.0766,-15.1805,179.583,1.8457,-145.151,408
1569686316,298.475,-41.0766,-15.1805,179.583,1.8457,-145.151,408
1569686316,298.475,-41.0766,-15.1805,179.583,1.8457,-145.151,408
1569686316,298.475,-41.0766,-15.1805,179.583,1.8457,-145.151,408
1569686316,298.475,-41.0766,-15.1805,179.583,1.8457,-145.151,408
1569686316,298.475,-41.0766,-15.1805,179.583,1.8457,-145.151,408
1569686316,298.475,-41.0766,-15.1805,179.583,1.8457,-145.151,408
1569686316,298.475,-41.0766,-15.1805,179.583,1.8457,-145.151,408
1569686316,298.475,-41.0766,-15.1805,179.583,1.8457,-145.151,408
1569686316,298.475,-41.0766,-15.1805,179.583,1.8457,-145.151,408
1569686316,298.475,-41.0766,-15.1805,179.583,1.8457,-145.151,408
1569686316,298.475,-41.0766,-15.1805,179.583,1.8457,-145.151,408
1569686316,298.475,-41.0766,-15.1805,179.583,1.8457,-145.151,408
1569686316,298.475,-41.0766,-15.1805,179.583,1.8457,-145.151,408
1569686316,298.475,-41.0766,-15.1805,179.583,1.8457,-145.151,408
1569686316,298.475,-41.0766,-15.1805,179.583,1.8457,-145.151,408
1569686316,298.475,-41.0766,-15.1805,179.561,1.8457,-145.151,412
1569686316,298.475,-41.0766,-15.1805,179.561,1.8457,-145.151,412
1569686316,298.475,-41.0766,-15.1805,179.561,1.82373,-145.151,412
1569686316,298.475,-41.0766,-15.1805,179.561,1.82373,-145.151,412
1569686316,298.475,-41.0766,-15.1805,179.561,1.82373,-145.151,412
1569686316,298.475,-41.0766,-15.1805,179.561,1.82373,-145.151,412
1569686316,298.475,-41.0766,-15.1805,179.561,1.82373,-145.151,412
1569686316,298.475,-41.0766,-15.1805,179.561,1.82373,-145.151,412
1569686316,298.475,-41.0766,-15.1805,179.561,1.82373,-145.151,416
1569686316,298.475,-41.0766,-15.1805,179.561,1.82373,-145.151,416
1569686316,298.475,-41.0766,-15.1805,179.561,1.82373,-145.151,416
1569686316,298.475,-41.0766,-15.1805,179.561,1.82373,-145.151,416
1569686316,298.475,-41.0766,-15.1805,179.561,1.82373,-145.151,416
1569686316,298.363,-41.0766,-15.1805,179.561,1.82373,-145.151,416
1569686316,298.363,-41.0766,-15.1805,179.561,1.82373,-145.151,416
1569686316,298.363,-41.0766,-15.1805,179.561,1.82373,-145.151,416
1569686316,298.363,-41.0766,-15.1805,179.561,1.82373,-145.151,416
1569686316,298.363,-41.0766,-15.1805,179.561,1.82373,-145.151,416
1569686316,298.363,-41.0766,-15.1805,179.561,1.82373,-145.151,416
1569686316,298.363,-41.0766,-15.1805,179.561,1.82373,-145.129,416
1569686316,298.363,-41.0766,-15.1805,179.561,1.82373,-145.129,416
1569686316,298.363,-41.0766,-15.1805,179.561,1.82373,-145.129,416
1569686316,298.363,-41.0766,-15.1805,179.561,1.82373,-145.129,416
1569686316,298.363,-41.0766,-15.1805,179.561,1.82373,-145.129,416
1569686316,298.363,-41.0766,-15.1805,179.561,1.82373,-145.129,416
1569686316,298.475,-41.0766,-15.1805,179.561,1.82373,-145.129,416
1569686316,298.475,-41.0766,-15.1805,179.561,1.82373,-145.129,416
1569686316,298.475,-41.0766,-15.1805,179.561,1.82373,-145.129,416
1569686316,298.475,-41.0766,-15.1805,179.583,1.82373,-145.129,416
1569686316,298.475,-41.0766,-15.1805,179.583,1.82373,-145.129,416
1569686316,298.475,-41.0766,-15.1805,179.583,1.82373,-145.129,416
1569686316,298.475,-41.0766,-15.1805,179.583,1.82373,-145.129,416
1569686316,298.475,-41.0766,-15.1805,179.583,1.82373,-145.129,416
1569686316,298.475,-41.0766,-15.1805,179.583,1.82373,-145.129,416
1569686316,298.475,-41.0766,-15.1805,179.583,1.82373,-145.129,416
1569686316,298.475,-41.0766,-15.1805,179.583,1.82373,-145.129,416
1569686316,298.475,-41.0766,-15.1805,179.583,1.82373,-145.129,416
1569686316,298.475,-41.0766,-15.1805,179.583,1.82373,-145.151,416
1569686316,298.475,-41.0766,-15.1805,179.583,1.82373,-145.151,420
1569686316,298.475,-41.0766,-15.1805,179.583,1.8457,-145.151,420
1569686316,298.475,-41.0766,-15.1805,179.583,1.8457,-145.151,420
1569686316,298.475,-41.0766,-15.1805,179.583,1.8457,-145.151,420
1569686316,298.475,-41.0766,-15.1805,179.583,1.82373,-145.151,420
1569686316,298.475,-41.0766,-15.1805,179.583,1.82373,-145.151,420
1569686316,298.475,-41.0766,-15.1805,179.561,1.82373,-145.151,416
1569686316,298.475,-41.0766,-15.1805,179.561,1.82373,-145.151,416
1569686316,298.475,-41.0766,-15.1805,179.561,1.82373,-145.151,416
1569686316,298.475,-41.0766,-15.1805,179.561,1.82373,-145.151,416
1569686316,298.475,-41.0766,-15.1805,179.561,1.82373,-145.151,416
1569686316,298.475,-41.0766,-15.1805,179.561,1.82373,-145.151,416
1569686316,298.475,-41.0766,-15.1805,179.561,1.82373,-145.151,416
1569686316,298.475,-41.0766,-15.1805,179.561,1.82373,-145.151,416
1569686316,298.475,-41.0766,-15.1805,179.561,1.82373,-145.151,416
1569686316,298.475,-41.0766,-15.1805,179.561,1.82373,-145.151,416
1569686316,298.475,-41.0766,-15.1805,179.561,1.82373,-145.151,416
1569686316,298.475,-41.0766,-15.1805,179.583,1.82373,-145.151,416
1569686316,298.475,-41.0766,-15.1805,179.583,1.82373,-145.151,416
1569686317,298.475,-41.0766,-15.1805,179.583,1.82373,-145.151,416
1569686317,298.475,-41.0766,-15.1805,179.583,1.82373,-145.151,416
1569686317,298.475,-41.0766,-15.1805,179.583,1.82373,-145.151,416
1569686317,298.475,-41.0766,-15.1805,179.583,1.82373,-145.151,412
1569686317,298.475,-41.0766,-15.1805,179.583,1.82373,-145.151,412
1569686317,298.475,-41.0766,-15.1805,179.583,1.82373,-145.151,412
1569686317,298.475,-41.0766,-15.1805,179.583,1.82373,-145.151,412
1569686317,298.475,-41.0766,-15.1805,179.583,1.82373,-145.151,412
1569686317,298.475,-41.0766,-15.1805,179.583,1.82373,-145.151,412
1569686317,298.475,-41.0766,-15.1805,179.561,1.82373,-145.151,412
1569686317,298.475,-41.0766,-15.1805,179.561,1.82373,-145.151,412
1569686317,298.475,-41.0766,-15.1805,179.561,1.82373,-145.151,412
1569686317,298.475,-41.0766,-15.1805,179.561,1.82373,-145.151,412
1569686317,298.475,-41.0766,-15.1805,179.561,1.82373,-145.151,412
1569686317,298.475,-41.0766,-15.1805,179.561,1.82373,-145.151,412
1569686317,298.475,-41.0766,-15.1805,179.561,1.82373,-145.151,412
1569686317,298.475,-41.0766,-15.1805,179.561,1.82373,-145.151,412
1569686317,298.475,-41.0766,-15.1805,179.561,1.82373,-145.129,412
1569686317,298.475,-41.0766,-15.1805,179.561,1.82373,-145.129,412
1569686317,298.475,-41.0766,-15.1805,179.561,1.82373,-145.129,412
1569686317,298.475,-41.0766,-15.1805,179.561,1.82373,-145.129,412
1569686317,298.475,-41.0766,-15.1805,179.561,1.82373,-145.129,412
1569686317,298.475,-41.0766,-15.1805,179.561,1.8457,-145.129,412
1569686317,298.475,-41.0766,-15.1805,179.561,1.8457,-145.129,412
1569686317,298.475,-41.0766,-15.1805,179.561,1.8457,-145.129,412
1569686317,298.475,-41.0766,-15.1805,179.561,1.8457,-145.129,412
1569686317,298.475,-41.0766,-15.1805,179.561,1.8457,-145.129,412
1569686317,298.475,-41.0766,-15.1805,179.561,1.8457,-145.129,412
1569686317,298.475,-41.0766,-15.1805,179.561,1.8457,-145.129,412
1569686317,298.475,-41.0766,-15.1805,179.561,1.8457,-145.129,412
1569686317,298.475,-41.0766,-15.1805,179.561,1.8457,-145.129,412
1569686317,298.475,-41.0766,-15.1805,179.561,1.8457,-145.129,412
1569686317,298.475,-41.0766,-15.1805,179.561,1.8457,-145.129,412
1569686317,298.475,-41.0766,-15.1805,179.561,1.8457,-145.129,412
1569686317,298.475,-41.0766,-15.1805,179.561,1.8457,-145.129,412
1569686317,298.475,-41.0766,-15.1805,179.583,1.8457,-145.129,412
1569686317,298.475,-41.0766,-15.1805,179.583,1.8457,-145.129,412
1569686317,298.475,-41.0766,-15.1805,179.583,1.8457,-145.129,412
1569686317,298.475,-41.0766,-15.1805,179.583,1.8457,-145.129,412
1569686317,298.475,-41.0766,-15.1805,179.583,1.8457,-145.129,412
1569686317,298.475,-41.0766,-15.1805,179.583,1.8457,-145.129,412
1569686317,298.475,-41.0766,-15.1805,179.583,1.8457,-145.129,412
1569686317,298.475,-41.0766,-15.1805,179.583,1.8457,-145.129,412
1569686317,298.475,-41.0766,-15.1805,179.583,1.8457,-145.129,412
1569686317,298.475,-41.0766,-15.1805,179.583,1.8457,-145.129,412
1569686317,298.475,-41.0766,-15.1805,179.583,1.8457,-145.129,412
1569686317,298.475,-41.0766,-15.1805,179.583,1.8457,-145.129,412
1569686317,298.475,-41.0766,-15.1805,179.583,1.8457,-145.129,412
1569686317,298.475,-41.0766,-15.1805,179.583,1.8457,-145.129,412
1569686317,298.475,-41.0766,-15.1805,179.583,1.8457,-145.129,412
1569686317,298.475,-41.0766,-15.1805,179.583,1.8457,-145.129,412
1569686317,298.475,-41.0766,-15.1805,179.583,1.8457,-145.129,412
1569686317,298.475,-41.0766,-15.1805,179.583,1.8457,-145.129,412
1569686317,298.475,-41.0766,-15.1805,179.583,1.8457,-145.129,412
1569686317,298.475,-41.0766,-15.1805,179.583,1.8457,-145.129,412
1569686317,298.475,-41.0766,-15.1805,179.583,1.8457,-145.129,412
1569686317,298.475,-41.0766,-15.1805,179.583,1.8457,-145.129,412
1569686317,298.475,-41.0766,-15.1805,179.583,1.8457,-145.129,412
1569686317,298.475,-41.0766,-15.1805,179.583,1.8457,-145.129,412
1569686317,298.475,-41.0766,-15.1805,179.583,1.8457,-145.129,412
1569686317,298.475,-41.0766,-15.1805,179.583,1.8457,-145.129,412
1569686317,298.475,-41.0766,-15.1805,179.583,1.8457,-145.129,412
1569686317,298.475,-41.0766,-15.1805,179.583,1.8457,-145.129,412
1569686317,298.475,-41.0766,-15.1805,179.583,1.8457,-145.129,412
1569686317,298.475,-41.0766,-15.1805,179.583,1.8457,-145.129,408
1569686317,298.475,-41.0766,-15.1805,179.583,1.8457,-145.129,408
1569686317,298.475,-41.0766,-15.1805,179.583,1.8457,-145.129,408
1569686317,298.475,-41.0766,-15.1805,179.583,1.8457,-145.129,408
1569686317,298.475,-41.0766,-15.1805,179.583,1.8457,-145.129,408
1569686317,298.475,-41.0766,-15.1805,179.583,1.8457,-145.129,408
1569686317,298.475,-41.0766,-15.1805,179.583,1.8457,-145.129,408
1569686317,298.475,-41.0766,-15.1805,179.583,1.8457,-145.129,408
1569686317,298.475,-41.0766,-15.1805,179.583,1.8457,-145.129,408
1569686317,298.475,-41.0766,-15.1805,179.583,1.8457,-145.129,408
1569686317,298.475,-41.0766,-15.1805,179.583,1.8457,-145.129,408
1569686317,298.475,-41.0766,-15.1805,179.583,1.8457,-145.129,408
1569686317,298.475,-41.0766,-15.1805,179.583,1.8457,-145.129,408
1569686317,298.475,-41.0766,-15.1805,179.583,1.8457,-145.129,408
1569686317,298.475,-41.0766,-15.1805,179.583,1.8457,-145.129,408
1569686317,298.475,-41.0766,-15.1805,179.583,1.8457,-145.129,412
1569686317,298.475,-41.0766,-15.1805,179.583,1.8457,-145.129,412
1569686317,298.475,-41.0766,-15.1805,179.583,1.8457,-145.129,412
1569686317,298.475,-41.0766,-15.1805,179.583,1.8457,-145.129,412
1569686317,298.475,-41.0766,-15.1805,179.583,1.8457,-145.129,412
1569686317,298.475,-41.0766,-15.1805,179.583,1.8457,-145.129,412
1569686317,298.475,-41.0766,-15.1805,179.583,1.8457,-145.129,416
1569686317,298.363,-41.0766,-15.1805,179.561,1.8457,-145.129,416
1569686317,298.363,-41.0766,-15.1805,179.561,1.8457,-145.129,416
1569686317,298.363,-41.0766,-15.1805,179.561,1.8457,-145.129,416
1569686317,298.363,-41.0766,-15.1805,179.561,1.8457,-145.129,416
1569686317,298.363,-41.0766,-15.1805,179.561,1.8457,-145.129,420
1569686317,298.363,-41.0766,-15.1805,179.561,1.8457,-145.129,420
1569686317,298.363,-41.0766,-15.1805,179.561,1.8457,-145.129,420
1569686317,298.363,-41.0766,-15.1805,179.561,1.8457,-145.129,420
1569686317,298.475,-41.0766,-15.1805,179.583,1.8457,-145.129,420
1569686317,298.475,-41.0766,-15.1805,179.583,1.8457,-145.129,420
1569686317,298.475,-41.0766,-15.1805,179.583,1.8457,-145.129,420
1569686317,298.475,-41.0766,-15.1805,179.583,1.8457,-145.129,420
1569686317,298.475,-41.0766,-15.1805,179.583,1.8457,-145.129,420
1569686317,298.475,-41.0766,-15.1805,179.583,1.8457,-145.129,420
1569686318,298.475,-41.0766,-15.1805,179.583,1.8457,-145.129,420
1569686318,298.475,-41.0766,-15.1805,179.583,1.8457,-145.129,420
1569686318,298.475,-41.0766,-15.1805,179.583,1.8457,-145.129,420
1569686318,298.475,-41.0766,-15.1805,179.583,1.8457,-145.129,420
1569686318,298.475,-41.0766,-15.1805,179.583,1.8457,-145.129,420
1569686318,298.475,-41.0766,-15.1805,179.583,1.8457,-145.129,416
1569686318,298.475,-41.0766,-15.1805,179.583,1.8457,-145.129,416
1569686318,298.475,-41.0766,-15.1805,179.583,1.8457,-145.129,416
1569686318,298.475,-41.0766,-15.1805,179.583,1.8457,-145.129,416
1569686318,298.475,-41.0766,-15.1805,179.583,1.8457,-145.129,416
1569686318,298.475,-41.0766,-15.1805,179.583,1.8457,-145.129,416
1569686318,298.475,-41.0766,-15.1805,179.583,1.8457,-145.129,416
1569686318,298.475,-41.0766,-15.1805,179.583,1.8457,-145.129,416
1569686318,298.475,-41.0766,-15.1805,179.583,1.8457,-145.129,416
1569686318,298.475,-41.0766,-15.1805,179.583,1.8457,-145.129,416
1569686318,298.475,-41.0766,-15.1805,179.583,1.82373,-145.129,416
1569686318,298.475,-41.0766,-15.1805,179.583,1.82373,-145.129,416
1569686318,298.475,-41.0766,-15.1805,179.583,1.82373,-145.129,416
1569686318,298.475,-41.0766,-15.1805,179.583,1.82373,-145.129,416
1569686318,298.475,-41.0766,-15.1805,179.583,1.82373,-145.129,416
1569686318,298.475,-41.0766,-15.1805,179.583,1.82373,-145.129,416
1569686318,298.475,-41.0766,-15.1805,179.583,1.82373,-145.129,416
1569686318,298.475,-41.0766,-15.1805,179.583,1.82373,-145.129,412
1569686318,298.475,-41.0766,-15.1805,179.583,1.8457,-145.129,412
1569686318,298.475,-41.0766,-15.1805,179.583,1.8457,-145.129,412
1569686318,298.475,-41.0766,-15.1805,179.583,1.8457,-145.129,412
1569686318,298.475,-41.0766,-15.1805,179.583,1.8457,-145.129,412
1569686318,298.475,-41.0766,-15.1805,179.583,1.8457,-145.129,412
1569686318,298.475,-41.0766,-15.1805,179.583,1.8457,-145.129,412
1569686318,298.475,-41.0766,-15.1805,179.583,1.8457,-145.129,412
1569686318,298.475,-41.0766,-15.1805,179.583,1.8457,-145.129,408
1569686318,298.475,-41.0766,-15.1805,179.583,1.8457,-145.129,408
1569686318,298.475,-41.0766,-15.1805,179.583,1.8457,-145.129,408
1569686318,298.475,-41.0766,-15.1805,179.583,1.8457,-145.129,408
1569686318,298.475,-41.0766,-15.1805,179.583,1.8457,-145.129,408
1569686318,298.475,-41.0766,-15.1805,179.583,1.8457,-145.129,408
1569686318,298.475,-41.0766,-15.1805,179.583,1.8457,-145.129,408
1569686318,298.475,-41.0766,-15.1805,179.583,1.8457,-145.129,408
1569686318,298.475,-41.0766,-15.1805,179.583,1.8457,-145.129,408
1569686318,298.475,-41.0766,-15.1805,179.583,1.8457,-145.129,408
1569686318,298.475,-41.0766,-15.1805,179.583,1.8457,-145.129,408
1569686318,298.475,-41.0766,-15.1805,179.583,1.8457,-145.129,408
1569686318,298.475,-41.0766,-15.1805,179.583,1.8457,-145.129,408
1569686318,298.475,-41.0766,-15.1805,179.583,1.8457,-145.129,408
1569686318,298.475,-41.0766,-15.0688,179.583,1.8457,-145.129,408
1569686318,298.475,-41.0766,-15.0688,179.583,1.8457,-145.129,412
1569686318,298.475,-41.0766,-15.0688,179.583,1.8457,-145.129,412
1569686318,298.475,-41.0766,-15.1805,179.583,1.8457,-145.129,412
1569686318,298.475,-41.0766,-15.1805,179.583,1.8457,-145.129,412
1569686318,298.475,-41.0766,-15.1805,179.583,1.8457,-145.129,412
1569686318,298.475,-41.0766,-15.1805,179.583,1.8457,-145.129,412
1569686318,298.475,-41.0766,-15.1805,179.583,1.8457,-145.129,412
1569686318,298.475,-41.0766,-15.1805,179.583,1.8457,-145.129,412
1569686318,298.475,-41.0766,-15.1805,179.583,1.8457,-145.129,412
1569686318,298.475,-41.0766,-15.1805,179.583,1.8457,-145.129,412
1569686318,298.475,-41.0766,-15.1805,179.583,1.8457,-145.129,412
1569686318,298.475,-41.0766,-15.1805,179.583,1.8457,-145.129,412
1569686318,298.475,-41.0766,-15.1805,179.583,1.82373,-145.129,412
1569686318,298.475,-41.0766,-15.1805,179.583,1.82373,-145.129,408
1569686318,298.475,-41.0766,-15.1805,179.583,1.82373,-145.129,408
1569686318,298.475,-41.0766,-15.1805,179.583,1.82373,-145.129,408
1569686318,298.475,-41.0766,-15.1805,179.583,1.82373,-145.129,408
1569686318,298.475,-41.0766,-15.1805,179.583,1.82373,-145.129,408
1569686318,298.475,-41.0766,-15.1805,179.583,1.82373,-145.129,408
1569686318,298.475,-41.0766,-15.1805,179.583,1.82373,-145.129,408
1569686318,298.475,-41.0766,-15.1805,179.583,1.82373,-145.129,408
1569686318,298.475,-41.0766,-15.1805,179.583,1.82373,-145.129,408
1569686318,298.475,-41.0766,-15.1805,179.583,1.82373,-145.129,408
1569686318,298.475,-41.0766,-15.1805,179.583,1.82373,-145.129,408
1569686318,298.475,-41.0766,-15.1805,179.583,1.82373,-145.129,408
1569686318,298.475,-41.0766,-15.1805,179.583,1.82373,-145.129,408
1569686318,298.475,-41.0766,-15.1805,179.583,1.82373,-145.129,408
1569686318,298.475,-41.0766,-15.1805,179.583,1.82373,-145.129,408
1569686318,298.475,-41.0766,-15.1805,179.583,1.82373,-145.129,408
1569686318,298.475,-41.0766,-15.1805,179.583,1.82373,-145.129,408
1569686318,298.475,-41.0766,-15.1805,179.583,1.82373,-145.129,408
1569686318,298.475,-41.0766,-15.1805,179.583,1.82373,-145.129,408
1569686318,298.475,-41.0766,-15.1805,179.583,1.82373,-145.129,408
1569686318,298.475,-41.0766,-15.1805,179.583,1.8457,-145.129,408
1569686318,298.475,-41.0766,-15.1805,179.583,1.8457,-145.129,408
1569686318,298.475,-41.0766,-15.1805,179.583,1.8457,-145.129,408
1569686318,298.475,-41.0766,-15.1805,179.583,1.8457,-145.129,408
1569686318,298.475,-41.0766,-15.1805,179.583,1.8457,-145.129,408
1569686318,298.475,-41.0766,-15.1805,179.583,1.8457,-145.129,408
1569686318,298.475,-41.0766,-15.1805,179.583,1.82373,-145.129,408
1569686318,298.475,-41.0766,-15.1805,179.583,1.82373,-145.129,408
1569686318,298.475,-41.0766,-15.1805,179.583,1.82373,-145.129,408
1569686318,298.475,-41.0766,-15.1805,179.583,1.82373,-145.129,408
1569686318,298.475,-41.0766,-15.1805,179.583,1.82373,-145.129,408
1569686318,298.475,-41.0766,-15.1805,179.583,1.82373,-145.129,412
1569686318,298.475,-41.0766,-15.1805,179.583,1.82373,-145.129,412
1569686318,298.475,-41.0766,-15.1805,179.583,1.82373,-145.129,412
1569686318,298.475,-41.0766,-15.1805,179.583,1.82373,-145.129,412
1569686318,298.475,-41.0766,-15.1805,179.583,1.82373,-145.129,412
1569686318,298.363,-41.0766,-15.1805,179.583,1.82373,-145.129,412
1569686318,298.363,-41.0766,-15.1805,179.583,1.82373,-145.129,412
1569686318,298.363,-41.0766,-15.1805,179.583,1.82373,-145.129,412
1569686318,298.363,-41.0766,-15.1805,179.583,1.82373,-145.129,412
1569686318,298.363,-41.0766,-15.1805,179.583,1.82373,-145.129,412
1569686318,298.363,-41.0766,-15.1805,179.561,1.82373,-145.129,412
1569686319,298.363,-41.0766,-15.1805,179.561,1.82373,-145.129,412
1569686319,298.363,-41.0766,-15.1805,179.561,1.82373,-145.129,412
1569686319,298.363,-41.0766,-15.1805,179.561,1.82373,-145.129,412
1569686319,298.363,-41.0766,-15.1805,179.561,1.82373,-145.129,412
1569686319,298.363,-41.0766,-15.1805,179.561,1.82373,-145.129,412
1569686319,298.363,-41.0766,-15.1805,179.561,1.82373,-145.129,412
1569686319,298.363,-41.0766,-15.1805,179.561,1.82373,-145.129,412
1569686319,298.363,-41.0766,-15.1805,179.561,1.82373,-145.129,412
1569686319,298.363,-41.0766,-15.1805,179.583,1.82373,-145.129,412
1569686319,298.363,-41.0766,-15.1805,179.583,1.82373,-145.129,412
1569686319,298.363,-41.0766,-15.1805,179.583,1.82373,-145.129,412
1569686319,298.363,-41.0766,-15.1805,179.583,1.82373,-145.129,412
1569686319,298.363,-41.0766,-15.1805,179.561,1.82373,-145.129,412
1569686319,298.363,-41.0766,-15.1805,179.561,1.82373,-145.129,412
1569686319,298.363,-41.0766,-15.1805,179.561,1.82373,-145.129,412
1569686319,298.363,-41.0766,-15.1805,179.561,1.82373,-145.129,412
1569686319,298.363,-41.0766,-15.1805,179.561,1.82373,-145.129,412
1569686319,298.363,-41.0766,-15.1805,179.561,1.82373,-145.129,412
1569686319,298.363,-41.0766,-15.1805,179.561,1.82373,-145.129,412
1569686319,298.363,-41.0766,-15.1805,179.561,1.82373,-145.129,412
1569686319,298.363,-41.0766,-15.1805,179.561,1.8457,-145.129,412
1569686319,298.363,-41.0766,-15.1805,179.561,1.8457,-145.129,412
1569686319,298.363,-41.0766,-15.1805,179.561,1.8457,-145.151,412
1569686319,298.363,-41.0766,-15.1805,179.561,1.8457,-145.151,412
1569686319,298.363,-41.0766,-15.1805,179.561,1.8457,-145.151,412
1569686319,298.363,-41.0766,-15.1805,179.561,1.8457,-145.151,412
1569686319,298.363,-41.0766,-15.1805,179.561,1.8457,-145.151,412
1569686319,298.363,-41.0766,-15.1805,179.561,1.8457,-145.151,412
1569686319,298.363,-41.0766,-15.1805,179.561,1.8457,-145.151,416
1569686319,298.363,-41.0766,-15.1805,179.561,1.8457,-145.151,416
1569686319,298.363,-41.0766,-15.1805,179.561,1.8457,-145.151,416
1569686319,298.363,-41.0766,-15.1805,179.561,1.8457,-145.129,416
1569686319,298.363,-41.0766,-15.1805,179.561,1.8457,-145.129,416
1569686319,298.363,-41.0766,-15.1805,179.561,1.8457,-145.129,416
1569686319,298.363,-41.0766,-15.1805,179.561,1.8457,-145.129,416
1569686319,298.363,-41.0766,-15.1805,179.561,1.8457,-145.129,412
1569686319,298.363,-41.0766,-15.1805,179.561,1.82373,-145.129,412
1569686319,298.363,-41.0766,-15.1805,179.561,1.82373,-145.129,412
1569686319,298.363,-41.0766,-15.1805,179.561,1.82373,-145.129,412
1569686319,298.363,-41.0766,-15.1805,179.561,1.82373,-145.129,412
1569686319,298.363,-41.0766,-15.1805,179.561,1.82373,-145.129,412
1569686319,298.363,-41.0766,-15.1805,179.561,1.82373,-145.129,412
1569686319,298.363,-41.0766,-15.1805,179.561,1.82373,-145.129,412
1569686319,298.363,-41.0766,-15.1805,179.561,1.82373,-145.129,412
1569686319,298.363,-41.0766,-15.1805,179.561,1.82373,-145.129,416
1569686319,298.363,-41.0766,-15.1805,179.561,1.82373,-145.129,416
1569686319,298.363,-41.0766,-15.1805,179.561,1.82373,-145.129,416
1569686319,298.363,-41.0766,-15.1805,179.561,1.82373,-145.129,416
1569686319,298.475,-41.0766,-15.1805,179.561,1.82373,-145.129,416
1569686319,298.475,-41.0766,-15.1805,179.561,1.82373,-145.129,416
1569686319,298.475,-41.0766,-15.1805,179.561,1.82373,-145.129,416
1569686319,298.475,-41.0766,-15.1805,179.561,1.82373,-145.129,416
1569686319,298.475,-41.0766,-15.1805,179.561,1.82373,-145.129,416
1569686319,298.475,-41.0766,-15.1805,179.561,1.82373,-145.129,416
1569686319,298.475,-41.0766,-15.1805,179.561,1.82373,-145.129,416
1569686319,298.475,-41.0766,-15.1805,179.561,1.82373,-145.129,416
1569686319,298.475,-41.0766,-15.1805,179.561,1.82373,-145.129,416
1569686319,298.475,-41.0766,-15.1805,179.561,1.82373,-145.129,416
1569686319,298.475,-41.0766,-15.1805,179.561,1.82373,-145.129,416
1569686319,298.475,-41.0766,-15.1805,179.561,1.82373,-145.129,420
1569686319,298.475,-41.0766,-15.1805,179.561,1.82373,-145.129,420
1569686319,298.475,-41.0766,-15.1805,179.583,1.82373,-145.129,420
1569686319,298.475,-41.0766,-15.1805,179.583,1.82373,-145.129,420
1569686319,298.475,-41.0766,-15.1805,179.583,1.82373,-145.129,420
1569686319,298.475,-41.0766,-15.1805,179.583,1.8457,-145.129,420
1569686319,298.475,-41.0766,-15.1805,179.583,1.8457,-145.129,420
1569686319,298.475,-41.0766,-15.1805,179.583,1.8457,-145.129,420
1569686319,298.475,-41.0766,-15.1805,179.583,1.8457,-145.129,420
1569686319,298.475,-41.0766,-15.1805,179.583,1.8457,-145.129,420
1569686319,298.475,-41.0766,-15.1805,179.583,1.8457,-145.129,420
1569686319,298.475,-41.0766,-15.1805,179.583,1.8457,-145.129,420
1569686319,298.475,-41.0766,-15.1805,179.583,1.8457,-145.129,420
1569686319,298.475,-41.0766,-15.1805,179.583,1.8457,-145.129,420
1569686319,298.475,-41.0766,-15.1805,179.583,1.8457,-145.151,420
1569686319,298.475,-41.0766,-15.1805,179.583,1.8457,-145.151,420
1569686319,298.475,-41.0766,-15.1805,179.583,1.8457,-145.151,420
1569686319,298.475,-41.0766,-15.1805,179.583,1.8457,-145.151,420
1569686319,298.363,-41.0766,-15.1805,179.561,1.82373,-145.151,420
1569686319,298.363,-41.0766,-15.1805,179.561,1.82373,-145.151,420
1569686319,298.363,-41.0766,-15.1805,179.561,1.82373,-145.151,420
1569686319,298.363,-41.0766,-15.1805,179.561,1.82373,-145.151,420
1569686319,298.363,-41.0766,-15.1805,179.561,1.82373,-145.151,420
1569686319,298.363,-41.0766,-15.1805,179.561,1.82373,-145.151,416
1569686319,298.363,-41.0766,-15.1805,179.561,1.82373,-145.151,416
1569686324,313.655,-57.2616,-14.9572,179.692,1.69189,-144.8,448
1569686324,313.655,-57.2616,-14.9572,179.692,1.69189,-144.8,448
1569686324,313.655,-57.2616,-14.9572,179.692,1.66992,-144.8,448
1569686324,313.655,-57.2616,-14.9572,179.692,1.66992,-144.8,448
1569686324,313.655,-57.2616,-14.9572,179.692,1.66992,-144.8,448
1569686324,313.655,-57.2616,-14.9572,179.692,1.66992,-144.8,448
1569686324,313.655,-57.2616,-14.9572,179.692,1.66992,-144.8,448
1569686324,313.655,-57.2616,-14.9572,179.692,1.66992,-144.8,448
1569686324,313.655,-57.2616,-14.9572,179.692,1.66992,-144.8,448
1569686324,313.655,-57.2616,-14.9572,179.692,1.66992,-144.8,448
1569686324,313.655,-57.2616,-14.9572,179.692,1.66992,-144.8,448
1569686324,313.655,-57.2616,-14.9572,179.692,1.66992,-144.8,448
1569686324,313.655,-57.2616,-14.9572,179.692,1.66992,-144.8,448
1569686324,313.655,-57.2616,-14.9572,179.692,1.66992,-144.8,448
1569686324,313.655,-57.2616,-14.9572,179.692,1.66992,-144.8,448
1569686324,313.655,-57.2616,-14.9572,179.692,1.66992,-144.8,448
1569686324,313.655,-57.2616,-14.9572,179.692,1.66992,-144.8,448
1569686324,313.655,-57.2616,-14.9572,179.692,1.69189,-144.8,448
1569686324,313.655,-57.2616,-14.9572,179.692,1.69189,-144.8,448
1569686324,313.655,-57.2616,-14.9572,179.692,1.69189,-144.8,448
1569686324,313.655,-57.2616,-14.9572,179.692,1.69189,-144.8,448
1569686324,313.655,-57.2616,-14.9572,179.692,1.69189,-144.8,448
1569686324,313.655,-57.2616,-14.9572,179.692,1.69189,-144.8,452
1569686324,313.655,-57.2616,-14.9572,179.692,1.69189,-144.8,452
1569686324,313.655,-57.2616,-14.9572,179.692,1.69189,-144.8,452
1569686324,313.655,-57.2616,-14.9572,179.692,1.69189,-144.8,452
1569686324,313.655,-57.2616,-14.9572,179.692,1.69189,-144.8,452
1569686324,313.655,-57.2616,-14.9572,179.692,1.69189,-144.8,452
1569686324,313.655,-57.2616,-14.9572,179.692,1.69189,-144.8,452
1569686324,313.655,-57.2616,-14.9572,179.692,1.69189,-144.8,456
1569686324,313.655,-57.2616,-14.9572,179.692,1.69189,-144.8,456
1569686324,313.655,-57.2616,-14.9572,179.692,1.69189,-144.8,456
1569686324,313.767,-57.2616,-14.9572,179.692,1.69189,-144.8,456
1569686324,313.767,-57.2616,-14.9572,179.692,1.69189,-144.8,456
1569686324,313.767,-57.2616,-14.9572,179.692,1.69189,-144.8,456
1569686324,313.767,-57.2616,-14.9572,179.692,1.69189,-144.8,456
1569686324,313.767,-57.2616,-14.9572,179.692,1.69189,-144.8,456
1569686324,313.767,-57.2616,-14.9572,179.692,1.69189,-144.8,456
1569686324,313.767,-57.2616,-14.9572,179.692,1.69189,-144.8,456
1569686324,313.767,-57.2616,-14.9572,179.692,1.69189,-144.8,456
1569686324,313.767,-57.2616,-14.9572,179.692,1.69189,-144.8,456
1569686324,313.767,-57.2616,-14.9572,179.692,1.69189,-144.8,456
1569686324,313.767,-57.2616,-14.9572,179.692,1.69189,-144.778,456
1569686324,313.767,-57.2616,-14.9572,179.692,1.69189,-144.778,456
1569686324,313.655,-57.2616,-14.9572,179.692,1.69189,-144.778,452
1569686324,313.655,-57.2616,-14.9572,179.692,1.69189,-144.778,452
1569686324,313.655,-57.2616,-14.9572,179.692,1.69189,-144.778,452
1569686324,313.655,-57.2616,-14.9572,179.692,1.69189,-144.778,452
1569686324,313.767,-57.2616,-14.9572,179.692,1.69189,-144.778,452
1569686324,313.767,-57.2616,-14.9572,179.692,1.69189,-144.778,452
1569686324,313.767,-57.2616,-14.9572,179.692,1.69189,-144.778,452
1569686324,313.767,-57.2616,-14.9572,179.692,1.66992,-144.778,452
1569686324,313.767,-57.2616,-14.9572,179.692,1.66992,-144.778,452
1569686324,313.767,-57.2616,-14.9572,179.692,1.66992,-144.778,452
1569686324,313.767,-57.2616,-14.9572,179.692,1.66992,-144.778,452
1569686324,313.767,-57.2616,-14.9572,179.692,1.66992,-144.778,452
1569686324,313.767,-57.2616,-14.9572,179.692,1.69189,-144.778,452
1569686324,313.767,-57.2616,-14.9572,179.692,1.69189,-144.778,452
1569686324,313.767,-57.2616,-14.9572,179.692,1.69189,-144.778,452
1569686324,313.767,-57.2616,-14.9572,179.692,1.69189,-144.778,452
1569686324,313.767,-57.2616,-14.9572,179.692,1.66992,-144.778,452
1569686324,313.767,-57.2616,-14.9572,179.692,1.66992,-144.778,452
1569686324,313.767,-57.2616,-14.9572,179.692,1.66992,-144.778,452
1569686324,313.767,-57.2616,-14.9572,179.692,1.66992,-144.778,452
1569686324,313.767,-57.2616,-14.9572,179.692,1.66992,-144.778,456
1569686324,313.767,-57.2616,-14.9572,179.692,1.66992,-144.778,456
1569686324,313.767,-57.2616,-15.0688,179.692,1.66992,-144.778,456
1569686324,313.767,-57.2616,-15.0688,179.692,1.66992,-144.778,456
1569686324,313.767,-57.2616,-15.0688,179.692,1.66992,-144.778,456
1569686324,313.767,-57.2616,-15.0688,179.692,1.66992,-144.778,456
1569686324,313.767,-57.2616,-15.0688,179.692,1.66992,-144.778,456
1569686324,313.767,-57.2616,-15.0688,179.692,1.66992,-144.778,456
1569686324,313.767,-57.2616,-15.0688,179.692,1.66992,-144.778,456
1569686324,313.655,-57.2616,-15.0688,179.692,1.66992,-144.778,456
1569686324,313.655,-57.2616,-15.0688,179.692,1.66992,-144.778,456
1569686324,313.655,-57.2616,-15.0688,179.692,1.66992,-144.778,456
1569686324,313.655,-57.2616,-15.0688,179.692,1.66992,-144.778,456
1569686324,313.655,-57.2616,-15.0688,179.692,1.66992,-144.778,460
1569686324,313.655,-57.2616,-15.0688,179.692,1.66992,-144.778,460
1569686324,313.767,-57.2616,-15.0688,179.692,1.66992,-144.778,460
1569686324,313.767,-57.2616,-15.0688,179.692,1.66992,-144.778,456
1569686324,313.767,-57.2616,-15.0688,179.692,1.66992,-144.778,456
1569686324,313.767,-57.2616,-15.0688,179.692,1.66992,-144.778,456
1569686324,313.767,-57.2616,-15.0688,179.692,1.66992,-144.778,456
1569686324,313.767,-57.2616,-15.0688,179.692,1.66992,-144.778,456
1569686325,313.767,-57.2616,-15.0688,179.692,1.66992,-144.778,456
1569686325,313.767,-57.2616,-15.0688,179.692,1.66992,-144.778,456
1569686325,313.767,-57.2616,-15.0688,179.692,1.66992,-144.778,452
1569686325,313.767,-57.2616,-15.0688,179.692,1.66992,-144.778,452
1569686325,313.767,-57.2616,-15.0688,179.692,1.66992,-144.778,452
1569686325,313.767,-57.2616,-15.0688,179.692,1.66992,-144.778,452
1569686325,313.767,-57.2616,-15.0688,179.692,1.66992,-144.778,452
1569686325,313.767,-57.2616,-15.0688,179.692,1.66992,-144.778,448
1569686325,313.767,-57.2616,-15.0688,179.692,1.66992,-144.778,448
1569686325,313.767,-57.2616,-15.0688,179.692,1.66992,-144.778,448
1569686325,313.767,-57.2616,-15.0688,179.692,1.66992,-144.8,448
1569686325,313.767,-57.2616,-15.0688,179.692,1.66992,-144.778,448
1569686325,313.767,-57.2616,-15.0688,179.692,1.66992,-144.778,448
1569686325,313.767,-57.2616,-15.0688,179.692,1.66992,-144.778,448
1569686325,313.767,-57.2616,-15.0688,179.692,1.66992,-144.778,448
1569686325,313.767,-57.2616,-15.0688,179.692,1.66992,-144.778,448
1569686325,313.655,-57.2616,-15.0688,179.692,1.66992,-144.778,448
1569686325,313.655,-57.2616,-15.0688,179.692,1.66992,-144.778,448
1569686325,313.655,-57.2616,-15.0688,179.67,1.66992,-144.778,448
1569686325,313.655,-57.2616,-15.0688,179.67,1.66992,-144.778,448
1569686325,313.655,-57.2616,-15.0688,179.67,1.66992,-144.778,448
1569686325,313.655,-57.2616,-15.0688,179.67,1.66992,-144.778,444
1569686325,313.655,-57.2616,-14.9572,179.67,1.66992,-144.778,444
1569686325,313.655,-57.2616,-14.9572,179.67,1.69189,-144.8,444
1569686325,313.655,-57.2616,-14.9572,179.67,1.69189,-144.8,444
1569686325,313.655,-57.2616,-14.9572,179.67,1.69189,-144.8,444
1569686325,313.655,-57.2616,-14.9572,179.67,1.69189,-144.8,444
1569686325,313.655,-57.2616,-14.9572,179.67,1.69189,-144.778,444
1569686325,313.655,-57.2616,-14.9572,179.67,1.69189,-144.778,444
1569686325,313.655,-57.2616,-14.9572,179.67,1.69189,-144.778,444
1569686325,313.655,-57.2616,-14.9572,179.67,1.69189,-144.8,448
1569686325,313.655,-57.2616,-14.9572,179.692,1.69189,-144.8,448
1569686325,313.655,-57.2616,-14.9572,179.692,1.69189,-144.8,448
1569686325,313.655,-57.2616,-14.9572,179.692,1.69189,-144.8,448
1569686325,313.655,-57.2616,-14.9572,179.692,1.69189,-144.8,448
1569686325,313.655,-57.2616,-14.9572,179.692,1.69189,-144.8,448
1569686325,313.767,-57.2616,-14.9572,179.692,1.69189,-144.8,448
1569686325,313.767,-57.2616,-14.9572,179.692,1.69189,-144.8,448
1569686325,313.767,-57.2616,-14.9572,179.67,1.69189,-144.8,448
1569686325,313.767,-57.2616,-14.9572,179.67,1.69189,-144.8,444
1569686325,313.767,-57.2616,-14.9572,179.67,1.69189,-144.8,444
1569686325,313.767,-57.2616,-14.9572,179.67,1.69189,-144.8,444
1569686325,313.767,-57.2616,-14.9572,179.67,1.69189,-144.8,444
1569686325,313.767,-57.2616,-14.9572,179.67,1.69189,-144.8,444
1569686325,313.767,-57.2616,-14.9572,179.67,1.69189,-144.8,444
1569686325,313.767,-57.2616,-14.9572,179.692,1.69189,-144.8,440
1569686325,313.767,-57.2616,-14.9572,179.692,1.69189,-144.8,440
1569686325,313.767,-57.2616,-14.9572,179.692,1.69189,-144.8,440
1569686325,313.767,-57.2616,-14.9572,179.692,1.69189,-144.8,440
1569686325,313.767,-57.2616,-14.9572,179.692,1.69189,-144.8,440
1569686325,313.767,-57.2616,-14.9572,179.692,1.69189,-144.8,440
1569686325,313.767,-57.2616,-14.9572,179.692,1.69189,-144.8,440
1569686325,313.767,-57.2616,-14.9572,179.692,1.66992,-144.8,440
1569686325,313.767,-57.2616,-14.9572,179.692,1.66992,-144.8,436
1569686325,313.767,-57.2616,-14.9572,179.692,1.66992,-144.8,436
1569686325,313.767,-57.2616,-14.9572,179.692,1.66992,-144.8,436
1569686325,313.767,-57.2616,-14.9572,179.692,1.66992,-144.8,440
1569686325,313.767,-57.2616,-14.9572,179.692,1.66992,-144.8,440
1569686325,313.767,-57.2616,-14.9572,179.692,1.66992,-144.8,440
1569686325,313.767,-57.2616,-14.9572,179.692,1.66992,-144.8,440
1569686325,313.767,-57.2616,-14.9572,179.692,1.66992,-144.8,440
1569686325,313.767,-57.2616,-14.9572,179.692,1.66992,-144.8,440
1569686325,313.767,-57.2616,-14.9572,179.692,1.66992,-144.8,440
1569686325,313.767,-57.2616,-14.9572,179.692,1.66992,-144.8,440
1569686325,313.767,-57.2616,-14.9572,179.692,1.66992,-144.8,440
1569686325,313.767,-57.2616,-14.9572,179.692,1.66992,-144.8,440
1569686325,313.767,-57.2616,-14.9572,179.692,1.66992,-144.778,440
1569686325,313.767,-57.2616,-14.9572,179.692,1.66992,-144.778,440
1569686325,313.767,-57.2616,-14.9572,179.692,1.66992,-144.778,440
1569686325,313.767,-57.2616,-14.9572,179.692,1.66992,-144.778,440
1569686325,313.767,-57.2616,-14.9572,179.692,1.69189,-144.778,440
1569686325,313.767,-57.2616,-14.9572,179.692,1.69189,-144.778,440
1569686325,313.767,-57.2616,-14.9572,179.692,1.69189,-144.778,440
1569686325,313.767,-57.2616,-14.9572,179.692,1.69189,-144.778,440
1569686325,313.767,-57.2616,-14.9572,179.692,1.69189,-144.778,440
1569686325,313.767,-57.2616,-14.9572,179.692,1.69189,-144.778,440
1569686325,313.767,-57.2616,-14.9572,179.692,1.69189,-144.778,440
1569686325,313.767,-57.2616,-14.9572,179.692,1.69189,-144.778,440
1569686325,313.767,-57.2616,-14.9572,179.692,1.66992,-144.778,440
1569686325,313.767,-57.2616,-14.9572,179.692,1.66992,-144.778,440
1569686325,313.767,-57.2616,-14.9572,179.692,1.66992,-144.778,440
1569686325,313.767,-57.2616,-14.9572,179.692,1.66992,-144.778,440
1569686325,313.767,-57.2616,-14.9572,179.692,1.66992,-144.778,440
1569686325,313.767,-57.2616,-14.9572,179.692,1.66992,-144.8,440
1569686325,313.767,-57.2616,-14.9572,179.692,1.66992,-144.8,440
1569686325,313.767,-57.2616,-14.9572,179.692,1.66992,-144.8,440
1569686325,313.767,-57.2616,-14.9572,179.692,1.66992,-144.8,440
1569686325,313.767,-57.2616,-14.9572,179.692,1.66992,-144.8,440
1569686325,313.767,-57.2616,-14.9572,179.692,1.66992,-144.8,440
1569686325,313.767,-57.2616,-14.9572,179.692,1.66992,-144.8,440
1569686325,313.767,-57.2616,-14.9572,179.692,1.66992,-144.8,440
1569686325,313.767,-57.2616,-14.9572,179.692,1.66992,-144.8,440
1569686325,313.767,-57.2616,-14.9572,179.67,1.66992,-144.8,440
1569686325,313.767,-57.2616,-14.9572,179.67,1.66992,-144.8,440
1569686325,313.767,-57.2616,-14.9572,179.67,1.66992,-144.8,440
1569686325,313.767,-57.2616,-14.9572,179.67,1.66992,-144.8,440
1569686325,313.767,-57.2616,-14.9572,179.67,1.66992,-144.8,440
1569686325,313.767,-57.2616,-14.9572,179.67,1.66992,-144.8,440
1569686325,313.767,-57.2616,-14.9572,179.67,1.66992,-144.8,440
1569686325,313.767,-57.2616,-14.9572,179.67,1.66992,-144.8,440
1569686326,313.767,-57.2616,-14.9572,179.67,1.66992,-144.8,440
1569686326,313.767,-57.2616,-14.9572,179.67,1.66992,-144.8,440
1569686326,313.767,-57.2616,-14.9572,179.67,1.66992,-144.8,444
1569686326,313.767,-57.2616,-14.9572,179.67,1.66992,-144.8,444
1569686326,313.767,-57.2616,-14.9572,179.67,1.66992,-144.8,444
1569686326,313.767,-57.2616,-15.0688,179.67,1.66992,-144.8,444
1569686326,313.767,-57.2616,-15.0688,179.67,1.66992,-144.8,444
1569686326,313.767,-57.2616,-15.0688,179.67,1.66992,-144.8,444
1569686326,313.767,-57.2616,-14.9572,179.67,1.66992,-144.8,444
1569686326,313.767,-57.2616,-14.9572,179.67,1.66992,-144.8,444
1569686326,313.767,-57.2616,-14.9572,179.67,1.66992,-144.8,444
1569686326,313.767,-57.2616,-14.9572,179.67,1.66992,-144.8,444
1569686326,313.767,-57.2616,-14.9572,179.67,1.66992,-144.8,444
1569686326,313.767,-57.2616,-14.9572,179.67,1.69189,-144.8,448
1569686326,313.767,-57.2616,-14.9572,179.67,1.69189,-144.8,448
1569686326,313.767,-57.2616,-14.9572,179.67,1.69189,-144.8,448
1569686326,313.767,-57.2616,-14.9572,179.692,1.69189,-144.8,448
1569686326,313.767,-57.2616,-14.9572,179.692,1.69189,-144.8,448
1569686326,313.767,-57.2616,-14.9572,179.692,1.69189,-144.8,448
1569686326,313.767,-57.2616,-14.9572,179.692,1.69189,-144.8,448
1569686326,313.767,-57.2616,-14.9572,179.692,1.69189,-144.8,452
1569686326,313.655,-57.2616,-14.9572,179.692,1.69189,-144.8,452
1569686326,313.655,-57.2616,-14.9572,179.692,1.69189,-144.8,452
1569686326,313.655,-57.2616,-14.9572,179.692,1.69189,-144.8,452
1569686326,313.655,-57.2616,-14.9572,179.692,1.66992,-144.8,456
1569686326,313.655,-57.2616,-14.9572,179.692,1.66992,-144.8,456
1569686326,313.655,-57.2616,-14.9572,179.692,1.66992,-144.8,456
1569686326,313.655,-57.2616,-15.0688,179.692,1.66992,-144.8,456
1569686326,313.655,-57.2616,-15.0688,179.692,1.66992,-144.8,456
1569686326,313.655,-57.2616,-15.0688,179.692,1.66992,-144.8,456
1569686326,313.655,-57.2616,-15.0688,179.692,1.66992,-144.8,456
1569686326,313.767,-57.2616,-15.0688,179.692,1.66992,-144.8,456
1569686326,313.767,-57.2616,-15.0688,179.692,1.66992,-144.8,456
1569686326,313.767,-57.2616,-15.0688,179.692,1.66992,-144.8,456
1569686326,313.767,-57.2616,-15.0688,179.692,1.66992,-144.8,456
1569686326,313.767,-57.2616,-15.0688,179.692,1.66992,-144.8,456
1569686326,313.767,-57.2616,-15.0688,179.692,1.66992,-144.8,456
1569686326,313.767,-57.2616,-15.0688,179.692,1.66992,-144.8,456
1569686326,313.767,-57.2616,-15.0688,179.692,1.66992,-144.8,456
1569686326,313.767,-57.2616,-15.0688,179.692,1.66992,-144.8,452
1569686326,313.767,-57.2616,-15.0688,179.692,1.66992,-144.8,452
1569686326,313.767,-57.2616,-15.0688,179.692,1.66992,-144.8,452
1569686326,313.767,-57.2616,-15.0688,179.692,1.66992,-144.8,452
1569686326,313.767,-57.2616,-15.0688,179.692,1.66992,-144.8,452
1569686326,313.767,-57.2616,-15.0688,179.692,1.66992,-144.8,452
1569686326,313.767,-57.2616,-15.0688,179.692,1.66992,-144.8,452
1569686326,313.767,-57.2616,-15.0688,179.692,1.66992,-144.8,448
1569686326,313.655,-57.2616,-15.0688,179.692,1.66992,-144.8,448
1569686326,313.655,-57.2616,-15.0688,179.67,1.66992,-144.8,448
1569686326,313.655,-57.2616,-15.0688,179.67,1.66992,-144.8,448
1569686326,313.655,-57.2616,-15.0688,179.67,1.66992,-144.8,448
1569686326,313.655,-57.2616,-15.0688,179.67,1.66992,-144.8,448
1569686326,313.655,-57.2616,-15.0688,179.67,1.66992,-144.8,448
1569686326,313.655,-57.2616,-15.0688,179.67,1.66992,-144.8,448
1569686326,313.655,-57.2616,-15.0688,179.67,1.66992,-144.8,448
1569686326,313.655,-57.2616,-15.0688,179.67,1.66992,-144.8,448
1569686326,313.655,-57.2616,-15.0688,179.67,1.66992,-144.8,448
1569686326,313.655,-57.2616,-15.0688,179.67,1.66992,-144.8,448
1569686326,313.767,-57.2616,-15.0688,179.67,1.66992,-144.8,448
1569686326,313.767,-57.2616,-15.0688,179.67,1.66992,-144.8,448
1569686326,313.767,-57.2616,-15.0688,179.67,1.66992,-144.8,444
1569686326,313.767,-57.2616,-15.0688,179.67,1.66992,-144.8,444
1569686326,313.767,-57.2616,-15.0688,179.67,1.64795,-144.8,444
1569686326,313.767,-57.2616,-15.0688,179.67,1.64795,-144.8,444
1569686326,313.767,-57.2616,-15.0688,179.67,1.64795,-144.8,444
1569686326,313.767,-57.2616,-15.0688,179.67,1.64795,-144.8,444
1569686326,313.655,-57.2616,-15.0688,179.67,1.66992,-144.8,444
1569686326,313.655,-57.2616,-15.0688,179.67,1.66992,-144.8,444
1569686326,313.655,-57.2616,-15.0688,179.67,1.66992,-144.8,444
1569686326,313.655,-57.2616,-15.0688,179.67,1.66992,-144.8,444
1569686326,313.655,-57.2616,-15.0688,179.67,1.66992,-144.8,444
1569686326,313.655,-57.2616,-15.0688,179.67,1.66992,-144.8,448
1569686326,313.655,-57.2616,-15.0688,179.67,1.66992,-144.8,448
1569686326,313.767,-57.2616,-15.0688,179.67,1.66992,-144.8,448
1569686326,313.767,-57.2616,-15.0688,179.67,1.66992,-144.8,448
1569686326,313.767,-57.2616,-15.0688,179.67,1.66992,-144.8,448
1569686326,313.767,-57.2616,-15.0688,179.67,1.66992,-144.8,448
1569686326,313.767,-57.2616,-15.0688,179.67,1.66992,-144.8,448
1569686326,313.767,-57.2616,-14.9572,179.67,1.66992,-144.8,448
1569686326,313.767,-57.2616,-14.9572,179.67,1.66992,-144.8,448
1569686326,313.767,-57.2616,-14.9572,179.692,1.66992,-144.8,448
1569686326,313.767,-57.2616,-14.9572,179.692,1.66992,-144.8,448
1569686326,313.767,-57.2616,-14.9572,179.692,1.66992,-144.8,448
1569686326,313.767,-57.2616,-14.9572,179.692,1.69189,-144.8,448
1569686326,313.767,-57.2616,-14.9572,179.692,1.69189,-144.8,448
1569686326,313.767,-57.2616,-14.9572,179.692,1.69189,-144.8,448
1569686326,313.767,-57.2616,-14.9572,179.692,1.69189,-144.8,444
1569686326,313.767,-57.2616,-14.9572,179.692,1.69189,-144.8,444
1569686326,313.767,-57.2616,-14.9572,179.692,1.69189,-144.8,444
1569686326,313.767,-57.2616,-14.9572,179.692,1.69189,-144.8,444
1569686326,313.767,-57.2616,-14.9572,179.692,1.69189,-144.8,444
1569686326,313.767,-57.2616,-14.9572,179.692,1.69189,-144.8,444
1569686326,313.767,-57.2616,-14.9572,179.692,1.69189,-144.8,444
1569686326,313.767,-57.2616,-14.9572,179.692,1.69189,-144.8,444
1569686326,313.767,-57.2616,-14.9572,179.692,1.69189,-144.8,444
1569686326,313.767,-57.2616,-14.9572,179.692,1.69189,-144.8,444
1569686326,313.767,-57.2616,-14.9572,179.692,1.69189,-144.8,444
1569686326,313.767,-57.2616,-14.9572,179.692,1.69189,-144.8,444
1569686326,313.767,-57.2616,-14.9572,179.692,1.69189,-144.8,444
1569686326,313.767,-57.2616,-14.9572,179.692,1.69189,-144.8,444
1569686327,313.767,-57.2616,-14.9572,179.692,1.69189,-144.8,440
1569686327,313.767,-57.2616,-14.9572,179.692,1.69189,-144.8,440
1569686327,313.767,-57.2616,-14.9572,179.692,1.69189,-144.8,440
1569686327,313.767,-57.2616,-14.9572,179.692,1.69189,-144.8,440
1569686327,313.767,-57.2616,-14.9572,179.692,1.69189,-144.8,440
1569686327,313.767,-57.2616,-14.9572,179.692,1.69189,-144.8,440
1569686327,313.655,-57.2616,-14.9572,179.692,1.69189,-144.8,440
1569686327,313.655,-57.2616,-14.9572,179.692,1.69189,-144.8,440
1569686327,313.655,-57.2616,-14.9572,179.692,1.69189,-144.8,440
1569686327,313.655,-57.2616,-14.9572,179.692,1.69189,-144.8,440
1569686327,313.655,-57.2616,-14.9572,179.692,1.69189,-144.8,440
1569686327,313.655,-57.2616,-14.9572,179.692,1.69189,-144.8,444
1569686327,313.655,-57.2616,-14.9572,179.692,1.69189,-144.8,444
1569686327,313.655,-57.2616,-14.9572,179.692,1.69189,-144.8,444
1569686327,313.655,-57.2616,-14.9572,179.692,1.69189,-144.8,444
1569686327,313.655,-57.2616,-14.9572,179.692,1.69189,-144.8,444
1569686327,313.655,-57.2616,-14.9572,179.692,1.69189,-144.8,444
1569686327,313.767,-57.2616,-14.9572,179.692,1.69189,-144.8,444
1569686327,313.767,-57.2616,-14.9572,179.692,1.69189,-144.8,444
1569686327,313.767,-57.2616,-14.9572,179.692,1.69189,-144.8,444
1569686327,313.767,-57.2616,-14.9572,179.692,1.69189,-144.8,444
1569686327,313.655,-57.2616,-14.9572,179.692,1.66992,-144.8,440
1569686327,313.655,-57.2616,-14.9572,179.692,1.66992,-144.8,440
1569686327,313.655,-57.2616,-14.9572,179.692,1.66992,-144.8,440
1569686327,313.655,-57.2616,-14.9572,179.692,1.66992,-144.8,440
1569686327,313.655,-57.2616,-14.9572,179.692,1.66992,-144.8,440
1569686327,313.655,-57.2616,-14.9572,179.692,1.66992,-144.8,440
1569686327,313.655,-57.2616,-14.9572,179.692,1.66992,-144.778,440
1569686327,313.655,-57.2616,-14.9572,179.692,1.66992,-144.778,440
1569686327,313.655,-57.2616,-14.9572,179.692,1.66992,-144.778,440
1569686327,313.655,-57.2616,-14.9572,179.692,1.66992,-144.778,440
1569686327,313.655,-57.2616,-14.9572,179.692,1.66992,-144.778,440
1569686327,313.655,-57.2616,-14.9572,179.692,1.66992,-144.778,440
1569686327,313.655,-57.2616,-14.9572,179.692,1.66992,-144.778,440
1569686327,313.655,-57.2616,-14.9572,179.692,1.66992,-144.778,440
1569686327,313.655,-57.2616,-14.9572,179.692,1.69189,-144.778,440
1569686327,313.655,-57.2616,-14.9572,179.692,1.69189,-144.778,440
1569686327,313.655,-57.2616,-14.9572,179.692,1.69189,-144.778,440
1569686327,313.655,-57.2616,-14.9572,179.692,1.69189,-144.778,440
1569686327,313.655,-57.2616,-14.9572,179.692,1.69189,-144.778,440
1569686327,313.655,-57.2616,-14.9572,179.692,1.69189,-144.778,440
1569686327,313.655,-57.2616,-14.9572,179.692,1.69189,-144.778,440
1569686327,313.655,-57.2616,-14.9572,179.692,1.69189,-144.778,440
1569686327,313.655,-57.2616,-14.9572,179.67,1.69189,-144.778,440
1569686327,313.655,-57.2616,-14.9572,179.67,1.69189,-144.778,440
1569686327,313.655,-57.2616,-14.9572,179.67,1.69189,-144.778,440
1569686327,313.655,-57.2616,-14.9572,179.67,1.69189,-144.778,440
1569686327,313.767,-57.2616,-14.9572,179.67,1.69189,-144.778,440
1569686327,313.767,-57.2616,-14.9572,179.67,1.69189,-144.778,440
1569686327,313.767,-57.2616,-14.9572,179.67,1.69189,-144.778,440
1569686327,313.767,-57.2616,-14.9572,179.67,1.69189,-144.778,440
1569686327,313.767,-57.2616,-14.9572,179.67,1.69189,-144.778,440
1569686327,313.767,-57.2616,-14.9572,179.67,1.69189,-144.778,440
1569686327,313.767,-57.2616,-14.9572,179.67,1.69189,-144.778,440
1569686327,313.767,-57.2616,-14.9572,179.67,1.69189,-144.778,440
1569686327,313.767,-57.2616,-14.9572,179.67,1.69189,-144.778,440
1569686327,313.767,-57.2616,-14.9572,179.67,1.69189,-144.778,440
1569686327,313.767,-57.2616,-14.9572,179.67,1.71387,-144.778,440
1569686327,313.767,-57.2616,-14.9572,179.67,1.71387,-144.778,444
1569686327,313.767,-57.2616,-14.9572,179.67,1.71387,-144.778,444
1569686327,313.767,-57.2616,-14.9572,179.67,1.71387,-144.778,444
1569686327,313.767,-57.2616,-14.9572,179.67,1.71387,-144.778,444
1569686327,313.767,-57.2616,-14.9572,179.67,1.71387,-144.778,444
1569686327,313.767,-57.2616,-14.9572,179.67,1.71387,-144.778,444
1569686327,313.767,-57.2616,-14.9572,179.67,1.71387,-144.778,444
1569686327,313.767,-57.2616,-14.9572,179.67,1.71387,-144.778,444
1569686327,313.767,-57.2616,-14.9572,179.67,1.71387,-144.778,444
1569686327,313.767,-57.2616,-14.9572,179.67,1.71387,-144.778,444
1569686327,313.767,-57.2616,-14.9572,179.67,1.71387,-144.778,444
1569686327,313.767,-57.2616,-14.9572,179.67,1.71387,-144.778,444
1569686327,313.767,-57.2616,-14.9572,179.67,1.71387,-144.778,444
1569686327,313.767,-57.2616,-14.9572,179.67,1.71387,-144.778,444
1569686327,313.767,-57.2616,-14.9572,179.67,1.71387,-144.778,444
1569686327,313.767,-57.2616,-14.9572,179.67,1.71387,-144.778,444
1569686327,313.767,-57.2616,-14.9572,179.67,1.71387,-144.778,444
1569686327,313.767,-57.2616,-14.9572,179.67,1.71387,-144.778,444
1569686327,313.767,-57.2616,-14.9572,179.67,1.71387,-144.778,444
1569686327,313.767,-57.2616,-14.9572,179.67,1.71387,-144.778,444
1569686327,313.767,-57.2616,-14.9572,179.67,1.71387,-144.778,444
1569686327,313.767,-57.2616,-14.9572,179.67,1.71387,-144.778,444
1569686327,313.767,-57.2616,-14.9572,179.67,1.71387,-144.778,444
1569686327,313.767,-57.2616,-14.9572,179.67,1.71387,-144.778,444
1569686327,313.767,-57.2616,-14.9572,179.67,1.71387,-144.778,444
1569686327,313.767,-57.2616,-14.9572,179.67,1.69189,-144.778,444
1569686327,313.767,-57.2616,-14.9572,179.67,1.69189,-144.778,444
1569686327,313.767,-57.2616,-14.9572,179.67,1.69189,-144.778,444
1569686327,313.767,-57.2616,-14.9572,179.692,1.69189,-144.778,444
1569686327,313.767,-57.2616,-14.9572,179.692,1.69189,-144.778,444
1569686327,313.767,-57.2616,-14.9572,179.692,1.69189,-144.778,444
1569686327,313.767,-57.2616,-14.9572,179.692,1.69189,-144.778,444
1569686327,313.767,-57.2616,-14.9572,179.692,1.69189,-144.778,444
1569686327,313.767,-57.2616,-14.9572,179.692,1.69189,-144.778,444
1569686327,313.767,-57.2616,-14.9572,179.692,1.69189,-144.778,444
1569686327,313.767,-57.2616,-14.9572,179.692,1.69189,-144.778,444
1569686327,313.767,-57.2616,-14.9572,179.692,1.69189,-144.778,444
1569686327,313.767,-57.2616,-14.9572,179.692,1.69189,-144.778,444
1569686327,313.767,-57.2616,-14.9572,179.692,1.71387,-144.778,444
1569686327,313.767,-57.2616,-14.9572,179.692,1.71387,-144.778,444
1569686327,313.767,-57.2616,-14.9572,179.692,1.71387,-144.778,444
1569686327,313.767,-57.2616,-14.9572,179.692,1.69189,-144.778,444
1569686328,313.767,-57.2616,-14.9572,179.692,1.69189,-144.8,444
1569686328,313.767,-57.2616,-14.9572,179.692,1.69189,-144.8,440
1569686328,313.767,-57.2616,-14.9572,179.692,1.69189,-144.8,440
1569686328,313.767,-57.2616,-14.9572,179.692,1.69189,-144.8,440
1569686328,313.767,-57.2616,-14.9572,179.692,1.69189,-144.8,440
1569686328,313.767,-57.2616,-14.9572,179.692,1.69189,-144.8,440
1569686328,313.655,-57.2616,-14.9572,179.692,1.69189,-144.8,444
1569686328,313.655,-57.2616,-14.9572,179.692,1.69189,-144.8,444
1569686328,313.655,-57.2616,-14.9572,179.692,1.69189,-144.8,444
1569686328,313.655,-57.2616,-14.9572,179.692,1.69189,-144.8,444
1569686328,313.655,-57.2616,-14.9572,179.692,1.69189,-144.8,444
1569686328,313.655,-57.2616,-14.9572,179.692,1.69189,-144.8,444
1569686328,313.655,-57.2616,-14.9572,179.692,1.69189,-144.778,444
1569686328,313.655,-57.2616,-14.9572,179.692,1.69189,-144.778,444
1569686328,313.655,-57.2616,-14.9572,179.692,1.69189,-144.778,444
1569686328,313.655,-57.2616,-14.9572,179.692,1.69189,-144.8,444
1569686328,313.655,-57.2616,-14.9572,179.692,1.69189,-144.8,444
1569686328,313.655,-57.2616,-14.9572,179.692,1.69189,-144.8,444
1569686328,313.655,-57.2616,-14.9572,179.692,1.69189,-144.8,444
1569686328,313.655,-57.2616,-14.9572,179.692,1.69189,-144.8,444
1569686328,313.767,-57.2616,-14.9572,179.692,1.69189,-144.8,444
1569686328,313.767,-57.2616,-14.9572,179.692,1.69189,-144.8,444
1569686328,313.767,-57.2616,-14.9572,179.692,1.69189,-144.8,444
1569686328,313.767,-57.2616,-14.9572,179.692,1.69189,-144.8,448
1569686328,313.655,-57.2616,-14.9572,179.692,1.69189,-144.8,448
1569686328,313.767,-57.2616,-14.9572,179.692,1.69189,-144.8,448
1569686328,313.767,-57.2616,-14.9572,179.692,1.69189,-144.8,448
1569686328,313.767,-57.2616,-14.9572,179.692,1.69189,-144.8,448
1569686328,313.767,-57.2616,-14.9572,179.692,1.69189,-144.8,448
1569686328,313.767,-57.2616,-14.9572,179.692,1.69189,-144.8,448
1569686328,313.767,-57.2616,-14.9572,179.692,1.69189,-144.8,448
1569686328,313.767,-57.2616,-14.9572,179.714,1.69189,-144.8,448
1569686328,313.767,-57.2616,-14.9572,179.714,1.69189,-144.8,448
1569686328,313.767,-57.2616,-14.9572,179.714,1.69189,-144.8,448
1569686328,313.767,-57.2616,-14.9572,179.714,1.69189,-144.8,448
1569686328,313.767,-57.2616,-14.9572,179.714,1.69189,-144.8,448
1569686328,313.767,-57.2616,-14.9572,179.714,1.69189,-144.8,448
1569686328,313.767,-57.2616,-14.9572,179.714,1.69189,-144.8,448
1569686328,313.767,-57.2616,-14.9572,179.714,1.69189,-144.8,452
1569686328,313.767,-57.2616,-14.9572,179.714,1.69189,-144.8,452
1569686328,313.767,-57.2616,-14.9572,179.714,1.69189,-144.8,452
1569686328,313.767,-57.2616,-14.9572,179.714,1.69189,-144.778,452
1569686328,313.767,-57.2616,-14.9572,179.692,1.69189,-144.778,452
1569686328,313.767,-57.2616,-14.9572,179.714,1.69189,-144.778,452
1569686328,313.767,-57.2616,-14.9572,179.714,1.69189,-144.778,452
1569686328,313.767,-57.2616,-14.9572,179.714,1.69189,-144.778,452
1569686328,313.767,-57.2616,-14.9572,179.714,1.69189,-144.778,452
1569686328,313.767,-57.2616,-14.9572,179.714,1.69189,-144.8,452
1569686328,313.767,-57.2616,-14.9572,179.692,1.69189,-144.8,452
1569686328,313.767,-57.2616,-14.9572,179.692,1.69189,-144.8,452
1569686328,313.767,-57.2616,-14.9572,179.692,1.69189,-144.778,452
1569686328,313.767,-57.2616,-14.9572,179.692,1.69189,-144.778,452
1569686328,313.767,-57.2616,-14.9572,179.692,1.69189,-144.778,448
1569686328,313.767,-57.2616,-14.9572,179.692,1.69189,-144.778,448
1569686328,313.767,-57.2616,-14.9572,179.692,1.69189,-144.778,448
1569686328,313.655,-57.2616,-14.9572,179.692,1.69189,-144.778,448
1569686328,313.655,-57.2616,-14.9572,179.692,1.69189,-144.778,448
1569686328,313.655,-57.2616,-14.9572,179.692,1.69189,-144.778,448
1569686328,313.655,-57.2616,-14.9572,179.692,1.69189,-144.778,448
1569686328,313.655,-57.2616,-14.9572,179.692,1.69189,-144.778,448
1569686328,313.655,-57.2616,-14.9572,179.692,1.69189,-144.778,448
1569686328,313.655,-57.2616,-14.9572,179.692,1.69189,-144.778,448
1569686328,313.767,-57.2616,-14.9572,179.692,1.69189,-144.778,448
1569686328,313.767,-57.2616,-14.9572,179.692,1.69189,-144.778,448
1569686328,313.767,-57.2616,-14.9572,179.692,1.69189,-144.778,448
1569686328,313.767,-57.2616,-14.9572,179.692,1.69189,-144.778,444
1569686328,313.767,-57.2616,-14.9572,179.692,1.69189,-144.778,444
1569686328,313.767,-57.2616,-14.9572,179.692,1.69189,-144.778,444
1569686328,313.767,-57.2616,-14.9572,179.692,1.69189,-144.778,444
1569686328,313.767,-57.2616,-14.9572,179.692,1.69189,-144.778,444
1569686328,313.767,-57.2616,-14.9572,179.692,1.69189,-144.778,444
1569686328,313.767,-57.2616,-14.9572,179.692,1.69189,-144.778,444
1569686328,313.767,-57.2616,-14.9572,179.692,1.69189,-144.778,444
1569686328,313.767,-57.2616,-14.9572,179.692,1.69189,-144.778,444
1569686328,313.767,-57.2616,-14.9572,179.692,1.69189,-144.778,444
1569686328,313.767,-57.2616,-14.9572,179.692,1.69189,-144.778,444
1569686328,313.767,-57.2616,-14.9572,179.692,1.69189,-144.778,444
1569686328,313.767,-57.2616,-14.9572,179.692,1.69189,-144.778,444
1569686328,313.767,-57.2616,-14.9572,179.692,1.69189,-144.778,444
1569686328,313.767,-57.2616,-14.9572,179.692,1.69189,-144.778,444
1569686328,313.767,-57.2616,-14.9572,179.692,1.69189,-144.778,448
1569686328,313.767,-57.2616,-14.9572,179.692,1.69189,-144.778,448
1569686328,313.767,-57.2616,-14.9572,179.692,1.69189,-144.778,448
1569686328,313.767,-57.2616,-14.9572,179.692,1.69189,-144.8,448
1569686328,313.767,-57.2616,-14.9572,179.692,1.69189,-144.8,448
1569686328,313.767,-57.2616,-14.9572,179.692,1.66992,-144.8,448
1569686328,313.767,-57.2616,-14.9572,179.692,1.66992,-144.8,448
1569686328,313.767,-57.2616,-14.9572,179.692,1.66992,-144.8,448
1569686328,313.767,-57.2616,-15.0688,179.692,1.66992,-144.8,448
1569686328,313.767,-57.2616,-15.0688,179.692,1.66992,-144.8,448
1569686328,313.767,-57.2616,-15.0688,179.692,1.66992,-144.8,448
1569686328,313.767,-57.2616,-15.0688,179.692,1.66992,-144.8,448
1569686328,313.767,-57.2616,-15.0688,179.692,1.66992,-144.8,448
1569686328,313.767,-57.2616,-15.0688,179.692,1.66992,-144.8,448
1569686328,313.767,-57.2616,-15.0688,179.692,1.66992,-144.8,448
1569686328,313.767,-57.2616,-14.9572,179.692,1.66992,-144.8,448
1569686328,313.767,-57.2616,-14.9572,179.692,1.66992,-144.8,448
1569686328,313.767,-57.2616,-14.9572,179.692,1.66992,-144.8,448
1569686328,313.767,-57.2616,-14.9572,179.692,1.69189,-144.8,448
1569686328,313.767,-57.2616,-14.9572,179.692,1.69189,-144.8,448
1569686329,313.767,-57.2616,-14.9572,179.692,1.69189,-144.8,448
1569686329,313.767,-57.2616,-14.9572,179.692,1.69189,-144.778,444
1569686329,313.767,-57.2616,-14.9572,179.692,1.69189,-144.778,444
1569686329,313.767,-57.2616,-14.9572,179.692,1.69189,-144.778,444
1569686329,313.767,-57.2616,-14.9572,179.692,1.69189,-144.778,444
1569686329,313.767,-57.2616,-14.9572,179.692,1.69189,-144.778,444
1569686329,313.767,-57.2616,-14.9572,179.692,1.69189,-144.778,444
1569686329,313.767,-57.2616,-14.9572,179.692,1.69189,-144.778,444
1569686329,313.767,-57.2616,-14.9572,179.692,1.69189,-144.778,444
1569686329,313.767,-57.2616,-14.9572,179.692,1.69189,-144.778,444
1569686329,313.767,-57.2616,-14.9572,179.692,1.69189,-144.778,444
1569686329,313.767,-57.2616,-14.9572,179.692,1.69189,-144.778,448
1569686329,313.767,-57.2616,-14.9572,179.692,1.69189,-144.778,448
1569686329,313.767,-57.2616,-14.9572,179.692,1.66992,-144.778,448
1569686329,313.767,-57.2616,-14.9572,179.692,1.66992,-144.778,448
1569686332,336.984,-81.2602,-14.1759,179.802,2.04346,-144.998,492
1569686332,336.984,-81.2602,-14.1759,179.802,2.04346,-144.998,496
1569686332,336.984,-81.2602,-14.1759,179.802,2.04346,-144.998,496
1569686332,336.984,-81.2602,-14.1759,179.802,2.04346,-144.998,496
1569686332,336.984,-81.2602,-14.1759,179.802,2.04346,-144.998,496
1569686332,336.984,-81.3718,-14.1759,179.802,2.04346,-144.998,496
1569686332,336.984,-81.3718,-14.1759,179.802,2.04346,-144.998,496
1569686332,336.984,-81.3718,-14.1759,179.78,2.04346,-144.998,500
1569686332,336.984,-81.3718,-14.1759,179.78,2.04346,-144.998,500
1569686332,336.872,-81.3718,-14.1759,179.78,2.04346,-144.998,500
1569686332,336.872,-81.3718,-14.1759,179.78,2.04346,-144.998,500
1569686332,336.872,-81.3718,-14.1759,179.78,2.04346,-144.998,500
1569686332,336.872,-81.3718,-14.1759,179.78,2.04346,-144.998,500
1569686332,336.872,-81.3718,-14.1759,179.78,2.04346,-144.998,504
1569686332,336.872,-81.3718,-14.1759,179.78,2.04346,-144.998,504
1569686332,336.872,-81.3718,-14.1759,179.78,2.04346,-144.998,504
1569686332,336.872,-81.3718,-14.1759,179.78,2.04346,-144.998,504
1569686332,336.872,-81.3718,-14.1759,179.78,2.04346,-144.998,504
1569686332,336.872,-81.3718,-14.1759,179.78,2.02148,-144.998,504
1569686332,336.872,-81.3718,-14.2875,179.78,2.02148,-144.998,508
1569686332,336.872,-81.3718,-14.2875,179.78,2.02148,-144.998,508
1569686332,336.872,-81.3718,-14.2875,179.78,2.02148,-144.998,508
1569686332,336.872,-81.3718,-14.2875,179.78,2.02148,-144.998,508
1569686332,336.872,-81.3718,-14.2875,179.78,2.02148,-144.998,508
1569686332,336.872,-81.3718,-14.1759,179.78,2.04346,-144.998,508
1569686332,336.872,-81.3718,-14.1759,179.78,2.04346,-144.998,508
1569686332,336.872,-81.3718,-14.1759,179.78,2.04346,-144.998,508
1569686332,336.872,-81.3718,-14.1759,179.78,2.04346,-144.998,508
1569686332,336.872,-81.3718,-14.1759,179.78,2.04346,-144.998,508
1569686332,336.872,-81.3718,-14.1759,179.78,2.04346,-144.998,508
1569686332,336.872,-81.3718,-14.1759,179.78,2.04346,-144.998,508
1569686332,336.984,-81.3718,-14.1759,179.78,2.04346,-144.998,508
1569686332,336.984,-81.3718,-14.1759,179.78,2.04346,-144.998,508
1569686332,336.984,-81.3718,-14.1759,179.78,2.04346,-144.998,508
1569686332,336.984,-81.3718,-14.1759,179.78,2.04346,-144.998,508
1569686332,336.984,-81.3718,-14.1759,179.78,2.04346,-144.998,508
1569686332,336.984,-81.3718,-14.1759,179.802,2.04346,-144.998,508
1569686332,336.984,-81.3718,-14.1759,179.802,2.04346,-144.998,508
1569686332,336.984,-81.3718,-14.1759,179.802,2.04346,-144.998,508
1569686332,336.984,-81.3718,-14.1759,179.802,2.04346,-144.998,508
1569686332,336.984,-81.3718,-14.1759,179.802,2.04346,-144.998,504
1569686332,336.984,-81.2602,-14.1759,179.802,2.04346,-144.998,504
1569686332,336.984,-81.2602,-14.1759,179.802,2.04346,-144.998,504
1569686332,336.872,-81.2602,-14.1759,179.802,2.04346,-144.998,504
1569686332,336.872,-81.2602,-14.1759,179.802,2.04346,-144.976,504
1569686332,336.872,-81.2602,-14.1759,179.824,2.04346,-144.976,504
1569686332,336.872,-81.2602,-14.1759,179.824,2.04346,-144.976,504
1569686332,336.872,-81.2602,-14.1759,179.824,2.04346,-144.976,504
1569686332,336.872,-81.2602,-14.1759,179.824,2.04346,-144.976,504
1569686332,336.872,-81.2602,-14.1759,179.824,2.04346,-144.976,504
1569686332,336.872,-81.2602,-14.1759,179.824,2.02148,-144.976,504
1569686332,336.984,-81.2602,-14.2875,179.824,2.02148,-144.976,508
1569686332,336.984,-81.2602,-14.2875,179.824,2.02148,-144.976,508
1569686332,336.984,-81.2602,-14.2875,179.846,2.02148,-144.976,508
1569686332,336.984,-81.2602,-14.2875,179.846,2.02148,-144.976,508
1569686332,336.984,-81.2602,-14.2875,179.846,2.02148,-144.976,508
1569686332,336.872,-81.2602,-14.2875,179.846,2.02148,-144.976,508
1569686332,336.872,-81.2602,-14.2875,179.846,2.02148,-144.976,508
1569686332,336.872,-81.2602,-14.2875,179.846,2.02148,-144.976,508
1569686332,336.872,-81.2602,-14.2875,179.846,2.02148,-144.976,508
1569686332,336.872,-81.2602,-14.2875,179.846,2.02148,-144.976,508
1569686332,336.872,-81.2602,-14.2875,179.846,2.02148,-144.976,508
1569686332,336.872,-81.2602,-14.2875,179.846,2.02148,-144.976,508
1569686333,336.872,-81.2602,-14.2875,179.846,2.02148,-144.976,508
1569686333,336.872,-81.2602,-14.2875,179.846,2.02148,-144.976,508
1569686333,336.872,-81.2602,-14.2875,179.846,2.02148,-144.976,508
1569686333,336.872,-81.2602,-14.2875,179.846,2.02148,-144.976,508
1569686333,336.872,-81.2602,-14.2875,179.846,2.02148,-144.998,508
1569686333,336.872,-81.1485,-14.2875,179.846,2.02148,-144.998,508
1569686333,336.872,-81.1485,-14.2875,179.846,2.02148,-144.998,508
1569686333,336.872,-81.1485,-14.2875,179.846,2.02148,-144.998,508
1569686333,336.984,-81.1485,-14.2875,179.846,2.02148,-144.998,508
1569686333,336.984,-81.1485,-14.2875,179.846,2.02148,-144.998,508
1569686333,336.984,-81.1485,-14.2875,179.846,2.02148,-144.998,508
1569686333,336.984,-81.1485,-14.2875,179.846,2.02148,-144.998,504
1569686333,336.984,-81.1485,-14.2875,179.846,2.02148,-144.998,504
1569686333,336.984,-81.1485,-14.2875,179.846,2.02148,-144.998,504
1569686333,336.984,-81.1485,-14.2875,179.846,2.02148,-144.998,504
1569686333,336.984,-81.2602,-14.2875,179.846,2.02148,-144.998,504
1569686333,336.984,-81.2602,-14.2875,179.846,2.02148,-144.998,504
1569686333,336.984,-81.2602,-14.2875,179.846,2.02148,-144.998,500
1569686333,336.984,-81.2602,-14.2875,179.846,2.02148,-144.998,500
1569686333,336.984,-81.2602,-14.2875,179.846,2.02148,-144.998,500
1569686333,336.872,-81.2602,-14.2875,179.824,2.02148,-144.998,500
1569686333,336.872,-81.2602,-14.2875,179.824,2.02148,-144.998,500
1569686333,336.872,-81.2602,-14.2875,179.824,2.02148,-144.998,500
1569686333,336.872,-81.2602,-14.2875,179.824,2.02148,-144.998,500
1569686333,336.872,-81.2602,-14.2875,179.824,2.02148,-144.998,500
1569686333,336.872,-81.2602,-14.2875,179.824,2.02148,-144.998,504
1569686333,336.872,-81.2602,-14.2875,179.824,2.02148,-144.998,504
1569686333,336.872,-81.2602,-14.2875,179.824,2.02148,-144.998,504
1569686333,336.872,-81.2602,-14.2875,179.824,2.02148,-144.998,504
1569686333,336.872,-81.2602,-14.2875,179.824,2.02148,-144.998,504
1569686333,336.872,-81.2602,-14.2875,179.824,2.02148,-144.998,504
1569686333,336.872,-81.2602,-14.2875,179.824,2.02148,-144.998,504
1569686333,336.872,-81.2602,-14.2875,179.802,2.02148,-144.998,504
1569686333,336.872,-81.2602,-14.2875,179.802,2.02148,-144.998,504
1569686333,336.872,-81.2602,-14.2875,179.802,2.02148,-144.998,508
1569686333,336.872,-81.2602,-14.2875,179.802,2.02148,-144.998,508
1569686333,336.872,-81.2602,-14.2875,179.802,2.02148,-144.998,508
1569686333,336.872,-81.2602,-14.2875,179.802,2.02148,-144.998,508
1569686333,336.872,-81.2602,-14.2875,179.802,2.02148,-144.998,508
1569686333,336.872,-81.2602,-14.2875,179.802,2.02148,-144.998,508
1569686333,336.872,-81.2602,-14.2875,179.802,2.02148,-144.998,508
1569686333,336.872,-81.2602,-14.2875,179.802,2.02148,-144.998,508
1569686333,336.872,-81.2602,-14.2875,179.802,2.02148,-144.998,508
1569686333,336.872,-81.2602,-14.2875,179.802,2.02148,-144.998,508
1569686333,336.872,-81.2602,-14.2875,179.802,2.02148,-144.998,508
1569686333,336.872,-81.2602,-14.2875,179.802,2.02148,-144.998,508
1569686333,336.872,-81.2602,-14.2875,179.802,2.02148,-144.998,508
1569686333,336.872,-81.2602,-14.2875,179.802,2.02148,-144.998,508
1569686333,336.872,-81.2602,-14.2875,179.802,2.02148,-144.998,508
1569686333,336.872,-81.2602,-14.2875,179.802,2.02148,-144.998,508
1569686333,336.872,-81.2602,-14.2875,179.802,2.02148,-144.998,508
1569686333,336.872,-81.2602,-14.2875,179.802,2.02148,-144.998,508
1569686333,336.872,-81.2602,-14.2875,179.802,2.02148,-144.998,508
1569686333,336.872,-81.2602,-14.2875,179.802,2.02148,-144.998,508
1569686333,336.872,-81.2602,-14.2875,179.802,2.02148,-144.998,508
1569686333,336.872,-81.2602,-14.2875,179.824,2.02148,-144.998,508
1569686333,336.872,-81.2602,-14.2875,179.824,2.02148,-144.998,508
1569686333,336.872,-81.2602,-14.2875,179.824,2.02148,-144.998,508
1569686333,336.872,-81.2602,-14.2875,179.824,2.02148,-144.998,508
1569686333,336.872,-81.2602,-14.2875,179.824,2.02148,-144.998,508
1569686333,336.872,-81.2602,-14.2875,179.824,2.02148,-144.998,508
1569686333,336.872,-81.2602,-14.2875,179.824,2.02148,-144.998,508
1569686333,336.872,-81.2602,-14.2875,179.824,2.02148,-144.998,508
1569686333,336.872,-81.2602,-14.2875,179.824,2.02148,-144.998,508
1569686333,336.872,-81.2602,-14.2875,179.824,2.02148,-144.976,508
1569686333,336.872,-81.2602,-14.2875,179.824,2.02148,-144.976,508
1569686333,336.872,-81.2602,-14.2875,179.824,2.02148,-144.976,508
1569686333,336.872,-81.2602,-14.2875,179.824,2.02148,-144.976,508
1569686333,336.872,-81.2602,-14.2875,179.824,2.02148,-144.976,512
1569686333,336.872,-81.2602,-14.2875,179.824,2.02148,-144.976,512
1569686333,336.872,-81.2602,-14.2875,179.824,2.02148,-144.976,512
1569686333,336.872,-81.2602,-14.2875,179.824,2.02148,-144.976,512
1569686333,336.872,-81.2602,-14.2875,179.824,2.02148,-144.976,512
1569686333,336.872,-81.2602,-14.2875,179.824,2.02148,-144.976,512
1569686333,336.872,-81.2602,-14.2875,179.824,2.02148,-144.976,512
1569686333,336.872,-81.2602,-14.2875,179.824,2.02148,-144.976,512
1569686333,336.872,-81.2602,-14.2875,179.824,2.02148,-144.976,508
1569686333,336.872,-81.2602,-14.2875,179.824,2.02148,-144.976,508
1569686333,336.872,-81.2602,-14.2875,179.824,2.02148,-144.976,508
1569686333,336.872,-81.2602,-14.2875,179.824,2.02148,-144.976,508
1569686333,336.872,-81.2602,-14.2875,179.824,2.02148,-144.976,508
1569686333,336.872,-81.2602,-14.2875,179.824,2.02148,-144.976,508
1569686333,336.872,-81.2602,-14.2875,179.824,2.02148,-144.976,508
1569686333,336.872,-81.2602,-14.2875,179.824,2.02148,-144.976,508
1569686333,336.872,-81.2602,-14.2875,179.824,2.02148,-144.976,504
1569686333,336.872,-81.2602,-14.2875,179.824,2.02148,-144.976,504
1569686333,336.872,-81.2602,-14.2875,179.802,2.02148,-144.976,504
1569686333,336.872,-81.2602,-14.2875,179.802,2.02148,-144.976,504
1569686333,336.872,-81.2602,-14.2875,179.802,2.02148,-144.976,504
1569686333,336.872,-81.2602,-14.2875,179.802,2.02148,-144.976,504
1569686333,336.872,-81.2602,-14.2875,179.802,2.02148,-144.976,504
1569686333,336.872,-81.2602,-14.2875,179.802,2.02148,-144.976,504
1569686333,336.872,-81.2602,-14.2875,179.802,2.02148,-144.976,504
1569686333,336.872,-81.2602,-14.2875,179.802,2.02148,-144.976,504
1569686333,336.872,-81.2602,-14.2875,179.802,2.02148,-144.976,508
1569686333,336.872,-81.2602,-14.1759,179.802,2.04346,-144.976,508
1569686333,336.872,-81.2602,-14.1759,179.802,2.04346,-144.976,508
1569686333,336.872,-81.2602,-14.1759,179.802,2.04346,-144.976,508
1569686333,336.872,-81.2602,-14.1759,179.802,2.04346,-144.976,508
1569686333,336.872,-81.2602,-14.1759,179.802,2.04346,-144.976,508
1569686334,336.872,-81.2602,-14.1759,179.802,2.04346,-144.976,508
1569686334,336.872,-81.2602,-14.1759,179.802,2.04346,-144.976,508
1569686334,336.872,-81.2602,-14.1759,179.802,2.04346,-144.976,508
1569686334,336.872,-81.2602,-14.1759,179.802,2.04346,-144.976,508
1569686334,336.872,-81.2602,-14.1759,179.802,2.04346,-144.976,508
1569686334,336.872,-81.2602,-14.1759,179.78,2.04346,-144.976,508
1569686334,336.872,-81.3718,-14.1759,179.78,2.04346,-144.976,508
1569686334,336.872,-81.3718,-14.1759,179.78,2.04346,-144.976,508
1569686334,336.761,-81.3718,-14.1759,179.78,2.04346,-144.976,508
1569686334,336.761,-81.3718,-14.1759,179.78,2.04346,-144.976,508
1569686334,336.761,-81.3718,-14.2875,179.78,2.02148,-144.998,508
1569686334,336.761,-81.3718,-14.2875,179.78,2.02148,-144.998,508
1569686334,336.761,-81.3718,-14.2875,179.78,2.02148,-144.998,508
1569686334,336.761,-81.3718,-14.2875,179.78,2.02148,-144.998,508
1569686334,336.761,-81.3718,-14.2875,179.78,2.02148,-144.998,508
1569686334,336.761,-81.3718,-14.2875,179.78,2.02148,-144.998,508
1569686334,336.761,-81.3718,-14.2875,179.78,2.02148,-144.998,508
1569686334,336.761,-81.3718,-14.2875,179.78,2.02148,-144.998,508
1569686334,336.761,-81.3718,-14.2875,179.78,2.02148,-144.998,508
1569686334,336.761,-81.3718,-14.2875,179.78,2.02148,-144.998,508
1569686334,336.872,-81.3718,-14.2875,179.78,2.02148,-144.998,508
1569686334,336.872,-81.3718,-14.2875,179.78,2.02148,-144.998,508
1569686334,336.872,-81.3718,-14.2875,179.78,2.02148,-144.998,508
1569686334,336.872,-81.3718,-14.2875,179.78,2.02148,-144.998,508
1569686334,336.872,-81.3718,-14.2875,179.78,2.02148,-144.998,508
1569686334,336.872,-81.3718,-14.1759,179.78,2.02148,-144.998,508
1569686334,336.872,-81.3718,-14.1759,179.78,2.02148,-144.998,508
1569686334,336.872,-81.3718,-14.1759,179.78,2.04346,-144.998,508
1569686334,336.872,-81.3718,-14.1759,179.78,2.04346,-144.998,508
1569686334,336.872,-81.3718,-14.1759,179.78,2.04346,-144.998,508
1569686334,336.872,-81.2602,-14.1759,179.78,2.04346,-144.998,508
1569686334,336.872,-81.2602,-14.1759,179.78,2.04346,-144.998,508
1569686334,336.872,-81.2602,-14.1759,179.78,2.04346,-144.998,508
1569686334,336.872,-81.2602,-14.1759,179.802,2.04346,-144.998,508
1569686334,336.872,-81.2602,-14.1759,179.802,2.04346,-144.998,508
1569686334,336.872,-81.2602,-14.1759,179.802,2.04346,-144.998,508
1569686334,336.872,-81.2602,-14.1759,179.802,2.04346,-144.998,508
1569686334,336.872,-81.2602,-14.1759,179.802,2.04346,-144.998,508
1569686334,336.872,-81.2602,-14.1759,179.78,2.04346,-144.998,508
1569686334,336.872,-81.2602,-14.1759,179.78,2.04346,-144.976,508
1569686334,336.872,-81.2602,-14.1759,179.78,2.04346,-144.976,508
1569686334,336.872,-81.3718,-14.1759,179.78,2.04346,-144.976,508
1569686334,336.872,-81.3718,-14.1759,179.78,2.04346,-144.976,508
1569686334,336.872,-81.3718,-14.1759,179.78,2.02148,-144.976,508
1569686334,336.872,-81.3718,-14.1759,179.78,2.02148,-144.976,508
1569686334,336.872,-81.3718,-14.1759,179.78,2.02148,-144.976,508
1569686334,336.872,-81.3718,-14.1759,179.78,2.02148,-144.976,508
1569686334,336.872,-81.3718,-14.1759,179.78,2.02148,-144.976,508
1569686334,336.872,-81.3718,-14.1759,179.78,2.02148,-144.976,508
1569686334,336.872,-81.3718,-14.2875,179.78,2.02148,-144.976,508
1569686334,336.872,-81.3718,-14.2875,179.78,2.02148,-144.976,508
1569686334,336.872,-81.2602,-14.2875,179.78,2.02148,-144.976,508
1569686334,336.872,-81.2602,-14.2875,179.78,2.02148,-144.998,508
1569686334,336.872,-81.2602,-14.2875,179.78,2.02148,-144.998,508
1569686334,336.872,-81.2602,-14.2875,179.78,2.02148,-144.998,508
1569686334,336.872,-81.2602,-14.2875,179.78,2.02148,-144.998,508
1569686334,336.872,-81.2602,-14.2875,179.78,2.02148,-144.998,508
1569686334,336.872,-81.2602,-14.2875,179.78,2.02148,-144.998,508
1569686334,336.872,-81.2602,-14.2875,179.78,2.02148,-144.998,508
1569686334,336.872,-81.2602,-14.2875,179.78,2.02148,-144.998,508
1569686334,336.872,-81.2602,-14.2875,179.802,2.02148,-144.998,508
1569686334,336.872,-81.2602,-14.2875,179.802,1.99951,-144.998,508
1569686334,336.872,-81.2602,-14.2875,179.802,1.99951,-144.998,508
1569686334,336.872,-81.2602,-14.2875,179.78,1.99951,-144.998,508
1569686334,336.872,-81.2602,-14.2875,179.78,1.99951,-144.998,508
1569686334,336.872,-81.2602,-14.2875,179.78,1.99951,-144.998,508
1569686334,336.872,-81.2602,-14.2875,179.78,1.99951,-144.976,508
1569686334,336.872,-81.3718,-14.2875,179.78,1.99951,-144.976,508
1569686334,336.872,-81.3718,-14.2875,179.78,1.99951,-144.976,508
1569686334,336.872,-81.2602,-14.2875,179.78,1.99951,-144.976,508
1569686334,336.872,-81.2602,-14.2875,179.78,1.99951,-144.976,508
1569686334,336.872,-81.2602,-14.2875,179.78,1.99951,-144.976,508
1569686334,336.872,-81.2602,-14.2875,179.78,1.99951,-144.976,508
1569686334,336.872,-81.2602,-14.2875,179.802,1.99951,-144.976,508
1569686334,336.872,-81.2602,-14.2875,179.802,1.99951,-144.976,508
1569686334,336.872,-81.2602,-14.2875,179.802,1.99951,-144.976,508
1569686334,336.872,-81.2602,-14.2875,179.802,1.99951,-144.976,508
1569686334,336.872,-81.2602,-14.2875,179.802,2.02148,-144.976,508
1569686334,336.872,-81.2602,-14.2875,179.802,2.02148,-144.976,508
1569686334,336.872,-81.2602,-14.2875,179.802,2.02148,-144.976,508
1569686334,336.872,-81.2602,-14.2875,179.802,2.02148,-144.976,508
1569686334,336.872,-81.2602,-14.2875,179.802,2.02148,-144.976,508
1569686334,336.872,-81.2602,-14.2875,179.802,2.02148,-144.976,508
1569686334,336.872,-81.2602,-14.2875,179.802,2.02148,-144.976,508
1569686334,336.872,-81.2602,-14.2875,179.802,2.02148,-144.976,508
1569686334,336.872,-81.2602,-14.2875,179.802,2.02148,-144.976,508
1569686334,336.872,-81.2602,-14.2875,179.802,2.02148,-144.976,508
1569686334,336.872,-81.2602,-14.2875,179.802,2.02148,-144.976,508
1569686334,336.872,-81.2602,-14.2875,179.802,2.02148,-144.976,508
1569686334,336.872,-81.2602,-14.2875,179.802,2.02148,-144.976,508
1569686334,336.872,-81.2602,-14.2875,179.802,2.02148,-144.976,508
1569686334,336.872,-81.2602,-14.2875,179.802,2.02148,-144.976,508
1569686334,336.872,-81.2602,-14.2875,179.802,2.02148,-144.976,504
1569686334,336.872,-81.2602,-14.2875,179.802,1.99951,-144.976,504
1569686334,336.984,-81.2602,-14.2875,179.802,1.99951,-144.976,504
1569686334,336.984,-81.2602,-14.2875,179.802,1.99951,-144.976,504
1569686334,336.984,-81.2602,-14.2875,179.802,1.99951,-144.976,504
1569686334,336.984,-81.2602,-14.2875,179.802,1.99951,-144.976,504
1569686334,336.984,-81.2602,-14.2875,179.802,1.99951,-144.976,500
1569686334,336.984,-81.2602,-14.2875,179.802,1.99951,-144.976,500
1569686335,336.984,-81.3718,-14.2875,179.78,1.99951,-144.976,500
1569686335,336.984,-81.3718,-14.2875,179.78,1.99951,-144.976,500
1569686335,336.984,-81.3718,-14.2875,179.78,1.99951,-144.998,496
1569686335,336.984,-81.3718,-14.2875,179.78,1.99951,-144.998,496
1569686335,336.984,-81.3718,-14.2875,179.78,1.99951,-144.998,496
1569686335,336.984,-81.3718,-14.2875,179.78,1.99951,-144.998,492
1569686335,336.984,-81.3718,-14.2875,179.78,1.99951,-144.998,492
1569686335,336.984,-81.3718,-14.2875,179.78,1.99951,-144.998,492
1569686335,336.984,-81.3718,-14.2875,179.78,1.99951,-144.998,488
1569686335,336.984,-81.3718,-14.2875,179.78,1.99951,-144.998,488
1569686335,336.984,-81.3718,-14.2875,179.78,1.99951,-144.998,488
1569686335,336.984,-81.3718,-14.2875,179.78,1.99951,-144.998,488
1569686335,336.984,-81.3718,-14.2875,179.78,1.99951,-144.998,488
1569686335,336.984,-81.3718,-14.2875,179.78,1.99951,-144.998,484
1569686335,336.984,-81.3718,-14.2875,179.78,1.99951,-144.998,484
1569686335,336.984,-81.3718,-14.2875,179.78,1.99951,-144.998,484
1569686335,336.984,-81.3718,-14.2875,179.78,1.99951,-144.998,484
1569686335,336.984,-81.3718,-14.2875,179.78,1.99951,-144.998,484
1569686335,336.984,-81.3718,-14.2875,179.78,2.02148,-144.998,484
1569686335,336.872,-81.3718,-14.2875,179.78,2.02148,-144.998,484
1569686335,336.872,-81.3718,-14.2875,179.78,2.02148,-144.998,484
1569686335,336.872,-81.3718,-14.2875,179.78,2.02148,-144.998,484
1569686335,336.872,-81.3718,-14.2875,179.78,2.02148,-144.998,488
1569686335,336.872,-81.3718,-14.2875,179.78,2.02148,-144.998,488
1569686335,336.872,-81.3718,-14.2875,179.78,2.02148,-144.998,488
1569686335,336.872,-81.3718,-14.2875,179.78,2.02148,-144.998,488
1569686335,336.872,-81.3718,-14.2875,179.78,2.02148,-144.998,488
1569686335,336.872,-81.3718,-14.2875,179.78,2.02148,-144.998,492
1569686335,336.872,-81.3718,-14.2875,179.78,2.02148,-144.998,492
1569686335,336.872,-81.3718,-14.2875,179.78,2.02148,-144.998,492
1569686335,336.872,-81.3718,-14.2875,179.78,2.04346,-144.998,492
1569686335,336.872,-81.3718,-14.2875,179.78,2.04346,-144.998,496
1569686335,336.872,-81.3718,-14.2875,179.78,2.02148,-144.998,496
1569686335,336.872,-81.3718,-14.2875,179.78,2.02148,-144.998,496
1569686335,336.872,-81.2602,-14.2875,179.78,2.02148,-144.998,496
1569686335,336.872,-81.2602,-14.2875,179.78,2.02148,-144.998,500
1569686335,336.872,-81.2602,-14.2875,179.78,2.02148,-144.998,500
1569686335,336.872,-81.2602,-14.2875,179.78,2.02148,-144.998,500
1569686335,336.872,-81.2602,-14.2875,179.78,2.02148,-144.998,500
1569686335,336.872,-81.2602,-14.2875,179.78,2.02148,-144.998,500
1569686335,336.872,-81.2602,-14.2875,179.78,2.02148,-144.998,500
1569686335,336.872,-81.2602,-14.2875,179.78,2.02148,-144.998,500
1569686335,336.872,-81.2602,-14.2875,179.78,2.02148,-144.998,500
1569686335,336.872,-81.2602,-14.2875,179.78,2.02148,-144.998,500
1569686335,336.872,-81.2602,-14.2875,179.78,2.02148,-144.998,500
1569686335,336.872,-81.2602,-14.2875,179.78,2.02148,-144.998,500
1569686335,336.872,-81.2602,-14.2875,179.78,2.02148,-144.998,500
1569686335,336.872,-81.2602,-14.2875,179.802,2.02148,-144.998,500
1569686335,336.872,-81.2602,-14.2875,179.802,2.02148,-144.998,500
1569686335,336.872,-81.2602,-14.2875,179.802,2.02148,-144.998,504
1569686335,336.872,-81.2602,-14.2875,179.802,2.02148,-144.998,504
1569686335,336.872,-81.2602,-14.2875,179.802,2.02148,-144.998,504
1569686335,336.872,-81.2602,-14.2875,179.802,2.02148,-144.998,504
1569686335,336.872,-81.2602,-14.2875,179.802,2.02148,-144.998,504
1569686335,336.872,-81.2602,-14.2875,179.802,2.02148,-144.998,504
1569686335,336.872,-81.2602,-14.2875,179.802,2.02148,-144.998,504
1569686335,336.872,-81.2602,-14.2875,179.802,2.02148,-144.998,504
1569686335,336.872,-81.2602,-14.2875,179.802,2.02148,-144.998,504
1569686335,336.872,-81.2602,-14.2875,179.802,2.02148,-144.998,504
1569686335,336.872,-81.2602,-14.2875,179.802,2.02148,-144.998,504
1569686335,336.872,-81.2602,-14.2875,179.802,2.02148,-144.998,504
1569686335,336.872,-81.2602,-14.2875,179.802,2.02148,-144.998,504
1569686335,336.872,-81.2602,-14.2875,179.802,2.02148,-144.998,504
1569686335,336.872,-81.2602,-14.2875,179.802,2.02148,-144.998,504
1569686335,336.872,-81.2602,-14.2875,179.824,2.02148,-144.998,504
1569686335,336.872,-81.2602,-14.2875,179.824,2.02148,-144.998,504
1569686335,336.872,-81.2602,-14.2875,179.824,2.02148,-144.998,504
1569686335,336.872,-81.2602,-14.2875,179.824,2.02148,-144.998,504
1569686335,336.872,-81.2602,-14.2875,179.824,2.02148,-144.998,504
1569686335,336.872,-81.2602,-14.2875,179.824,2.02148,-144.998,504
1569686335,336.872,-81.2602,-14.2875,179.824,2.02148,-144.998,504
1569686335,336.872,-81.2602,-14.2875,179.824,2.02148,-144.998,504
1569686335,336.872,-81.2602,-14.2875,179.824,2.02148,-144.976,504
1569686335,336.872,-81.2602,-14.2875,179.824,2.02148,-144.976,504
1569686335,336.872,-81.2602,-14.2875,179.824,2.02148,-144.976,504
1569686335,336.872,-81.2602,-14.1759,179.824,2.02148,-144.976,508
1569686335,336.872,-81.2602,-14.1759,179.824,2.02148,-144.976,508
1569686335,336.872,-81.2602,-14.1759,179.824,2.02148,-144.976,508
1569686335,336.872,-81.2602,-14.1759,179.802,2.02148,-144.976,508
1569686335,336.872,-81.2602,-14.1759,179.802,2.02148,-144.976,508
1569686335,336.872,-81.2602,-14.1759,179.802,2.02148,-144.976,508
1569686335,336.872,-81.2602,-14.1759,179.802,2.02148,-144.976,508
1569686335,336.872,-81.2602,-14.1759,179.802,2.02148,-144.976,508
1569686335,336.872,-81.2602,-14.1759,179.802,2.02148,-144.976,508
1569686335,336.872,-81.2602,-14.1759,179.802,2.02148,-144.976,508
1569686335,336.872,-81.2602,-14.2875,179.802,2.02148,-144.976,508
1569686335,336.872,-81.2602,-14.2875,179.802,2.02148,-144.998,508
1569686335,336.872,-81.2602,-14.2875,179.802,2.02148,-144.998,508
1569686335,336.872,-81.2602,-14.2875,179.802,2.02148,-144.998,508
1569686335,336.872,-81.2602,-14.2875,179.802,2.02148,-144.998,508
1569686335,336.872,-81.2602,-14.2875,179.802,2.02148,-144.998,508
1569686335,336.872,-81.2602,-14.2875,179.802,2.02148,-144.998,508
1569686335,336.872,-81.2602,-14.2875,179.802,2.02148,-144.998,508
1569686335,336.872,-81.2602,-14.2875,179.802,2.02148,-144.998,508
1569686335,336.872,-81.2602,-14.2875,179.802,2.02148,-144.998,508
1569686335,336.872,-81.2602,-14.2875,179.802,2.02148,-144.998,508
1569686335,336.872,-81.2602,-14.2875,179.802,2.02148,-144.998,508
1569686335,336.872,-81.2602,-14.2875,179.802,2.02148,-144.998,508
1569686335,336.872,-81.2602,-14.2875,179.802,2.02148,-144.998,508
1569686335,336.872,-81.2602,-14.2875,179.802,2.02148,-144.998,504
1569686336,336.872,-81.2602,-14.2875,179.824,2.02148,-144.998,504
1569686336,336.872,-81.2602,-14.2875,179.824,1.99951,-144.998,504
1569686336,336.872,-81.2602,-14.2875,179.824,1.99951,-144.998,504
1569686336,336.872,-81.2602,-14.2875,179.824,1.99951,-144.998,504
1569686336,336.872,-81.2602,-14.2875,179.824,1.99951,-144.998,504
1569686336,336.872,-81.2602,-14.2875,179.824,1.99951,-144.998,504
1569686336,336.872,-81.2602,-14.2875,179.824,1.99951,-144.998,504
1569686336,336.872,-81.2602,-14.2875,179.824,1.99951,-144.998,504
1569686336,336.872,-81.2602,-14.2875,179.824,1.99951,-144.998,504
1569686336,336.872,-81.2602,-14.2875,179.824,1.99951,-144.998,504
1569686336,336.872,-81.2602,-14.2875,179.802,1.99951,-144.998,504
1569686336,336.872,-81.2602,-14.2875,179.802,1.99951,-144.998,508
1569686336,336.872,-81.2602,-14.2875,179.802,1.99951,-144.998,508
1569686336,336.872,-81.2602,-14.2875,179.802,1.99951,-144.998,508
1569686336,336.872,-81.2602,-14.2875,179.802,1.99951,-144.998,508
1569686336,336.872,-81.2602,-14.2875,179.802,1.99951,-144.998,508
1569686336,336.872,-81.2602,-14.2875,179.824,1.99951,-144.998,508
1569686336,336.872,-81.2602,-14.2875,179.824,1.99951,-144.998,512
1569686336,336.872,-81.2602,-14.2875,179.824,1.99951,-144.998,512
1569686336,336.872,-81.2602,-14.2875,179.824,1.99951,-144.998,512
1569686336,336.872,-81.2602,-14.2875,179.824,1.99951,-144.998,512
1569686336,336.872,-81.2602,-14.2875,179.824,1.99951,-144.998,512
1569686336,336.872,-81.2602,-14.2875,179.824,1.99951,-144.998,512
1569686336,336.872,-81.2602,-14.2875,179.824,1.99951,-144.998,516
1569686336,336.872,-81.2602,-14.2875,179.824,1.99951,-144.998,516
1569686336,336.872,-81.2602,-14.2875,179.824,1.99951,-144.998,516
1569686336,336.872,-81.2602,-14.2875,179.824,1.99951,-144.998,516
1569686336,336.872,-81.2602,-14.2875,179.824,1.99951,-144.998,516
1569686336,336.872,-81.2602,-14.2875,179.824,1.99951,-144.998,516
1569686336,336.872,-81.2602,-14.2875,179.824,1.99951,-144.998,516
1569686336,336.872,-81.2602,-14.2875,179.824,1.99951,-144.998,516
1569686336,336.872,-81.2602,-14.2875,179.824,1.99951,-144.998,516
1569686336,336.872,-81.2602,-14.2875,179.824,1.99951,-144.998,516
1569686336,336.872,-81.2602,-14.2875,179.824,2.02148,-144.998,516
1569686336,336.872,-81.2602,-14.2875,179.802,2.02148,-144.998,516
1569686336,336.872,-81.2602,-14.2875,179.802,2.02148,-144.998,516
1569686336,336.872,-81.2602,-14.2875,179.802,2.02148,-144.998,516
1569686336,336.872,-81.2602,-14.2875,179.802,2.02148,-144.998,516
1569686336,336.872,-81.2602,-14.2875,179.802,2.02148,-144.998,512
1569686336,336.872,-81.2602,-14.2875,179.802,2.02148,-144.998,512
1569686336,336.872,-81.2602,-14.2875,179.802,2.02148,-144.998,512
1569686336,336.872,-81.2602,-14.2875,179.802,2.02148,-144.998,512
1569686336,336.872,-81.2602,-14.2875,179.802,2.02148,-144.998,512
1569686336,336.872,-81.2602,-14.2875,179.802,2.02148,-144.998,512
1569686336,336.872,-81.2602,-14.2875,179.802,2.02148,-144.998,512
1569686336,336.872,-81.2602,-14.2875,179.802,2.02148,-144.998,512
1569686336,336.872,-81.2602,-14.2875,179.802,2.02148,-144.998,512
1569686336,336.872,-81.2602,-14.2875,179.802,2.02148,-144.998,512
1569686336,336.872,-81.2602,-14.2875,179.802,2.04346,-144.998,512
1569686336,336.872,-81.2602,-14.1759,179.802,2.04346,-144.998,512
1569686336,336.872,-81.2602,-14.1759,179.802,2.04346,-144.998,512
1569686336,336.872,-81.2602,-14.1759,179.802,2.04346,-144.998,512
1569686336,336.872,-81.2602,-14.1759,179.802,2.04346,-144.998,512
1569686336,336.872,-81.2602,-14.1759,179.802,2.04346,-144.998,512
1569686336,336.872,-81.2602,-14.1759,179.802,2.04346,-144.998,512
1569686336,336.872,-81.2602,-14.1759,179.802,2.04346,-144.998,512
1569686336,336.872,-81.2602,-14.1759,179.802,2.04346,-144.998,512
1569686336,336.872,-81.2602,-14.2875,179.802,2.02148,-144.998,512
1569686336,336.872,-81.2602,-14.2875,179.802,2.02148,-144.998,512
1569686336,336.872,-81.2602,-14.2875,179.802,2.02148,-144.998,512
1569686336,336.872,-81.2602,-14.2875,179.802,2.02148,-144.998,512
1569686336,336.872,-81.2602,-14.2875,179.802,2.02148,-144.998,512
1569686336,336.872,-81.2602,-14.2875,179.802,2.02148,-144.998,512
1569686336,336.872,-81.2602,-14.2875,179.802,2.02148,-144.998,512
1569686336,336.872,-81.2602,-14.2875,179.802,2.02148,-144.998,512
1569686336,336.872,-81.2602,-14.2875,179.802,2.02148,-144.998,508
1569686336,336.872,-81.2602,-14.2875,179.802,2.02148,-144.998,508
1569686336,336.872,-81.2602,-14.2875,179.802,2.02148,-144.998,508
1569686336,336.872,-81.2602,-14.2875,179.802,2.02148,-144.998,508
1569686336,336.872,-81.2602,-14.2875,179.78,2.02148,-144.998,508
1569686336,336.872,-81.2602,-14.2875,179.78,2.02148,-144.998,508
1569686336,336.872,-81.2602,-14.2875,179.78,2.02148,-144.998,508
1569686336,336.872,-81.2602,-14.2875,179.78,2.02148,-144.998,508
1569686336,336.872,-81.2602,-14.2875,179.78,2.02148,-144.998,508
1569686336,336.872,-81.2602,-14.2875,179.78,2.02148,-144.998,508
1569686336,336.872,-81.2602,-14.2875,179.78,2.02148,-144.998,508
1569686336,336.872,-81.2602,-14.2875,179.78,2.02148,-144.998,508
1569686336,336.872,-81.2602,-14.2875,179.78,2.02148,-144.998,508
1569686336,336.872,-81.2602,-14.2875,179.78,2.02148,-144.998,508
1569686336,336.872,-81.2602,-14.2875,179.78,2.02148,-144.998,508
1569686336,336.872,-81.2602,-14.2875,179.78,2.02148,-144.998,508
1569686336,336.872,-81.2602,-14.2875,179.78,2.02148,-144.998,508
1569686336,336.872,-81.2602,-14.2875,179.78,2.02148,-144.998,508
1569686336,336.872,-81.2602,-14.2875,179.802,2.02148,-144.998,508
1569686336,336.872,-81.2602,-14.2875,179.802,2.02148,-144.998,508
1569686336,336.872,-81.2602,-14.1759,179.802,2.02148,-144.998,508
1569686336,336.872,-81.2602,-14.1759,179.802,2.02148,-144.998,508
1569686336,336.872,-81.2602,-14.1759,179.802,2.04346,-144.998,508
1569686336,336.872,-81.2602,-14.1759,179.802,2.04346,-144.998,504
1569686336,336.872,-81.2602,-14.1759,179.802,2.04346,-144.998,504
1569686336,336.872,-81.2602,-14.1759,179.802,2.04346,-144.998,504
1569686336,336.872,-81.2602,-14.1759,179.802,2.04346,-144.998,504
1569686336,336.872,-81.2602,-14.1759,179.802,2.04346,-144.998,504
1569686336,336.872,-81.2602,-14.1759,179.802,2.04346,-144.998,504
1569686336,336.872,-81.2602,-14.1759,179.802,2.04346,-144.998,504
1569686336,336.872,-81.2602,-14.1759,179.802,2.04346,-144.998,504
1569686336,336.872,-81.2602,-14.1759,179.824,2.04346,-144.998,504
1569686336,336.872,-81.2602,-14.1759,179.824,2.04346,-144.998,504
1569686336,336.872,-81.2602,-14.1759,179.824,2.04346,-144.998,504
1569686336,336.872,-81.2602,-14.1759,179.824,2.04346,-144.998,504
1569686337,336.984,-81.2602,-14.1759,179.824,2.04346,-144.998,504
1569686337,336.984,-81.2602,-14.1759,179.824,2.04346,-144.998,504
1569686337,336.984,-81.2602,-14.1759,179.824,2.04346,-144.998,504
1569686337,336.984,-81.2602,-14.1759,179.824,2.04346,-144.998,504
1569686337,336.984,-81.2602,-14.1759,179.824,2.04346,-144.998,504
1569686337,336.984,-81.2602,-14.1759,179.824,2.04346,-144.998,504
1569686337,336.984,-81.2602,-14.1759,179.824,2.04346,-144.998,504
1569686337,336.984,-81.2602,-14.1759,179.824,2.04346,-144.998,504
1569686337,336.984,-81.2602,-14.1759,179.824,2.04346,-144.998,508
1569686337,336.984,-81.2602,-14.1759,179.824,2.04346,-144.998,508
1569686337,336.984,-81.2602,-14.1759,179.824,2.04346,-144.976,508
1569686337,336.984,-81.2602,-14.1759,179.824,2.04346,-144.976,508
1569686337,336.984,-81.2602,-14.1759,179.824,2.04346,-144.976,508
1569686337,336.984,-81.2602,-14.1759,179.824,2.04346,-144.976,508
1569686337,336.872,-81.2602,-14.1759,179.824,2.04346,-144.976,508
1569686337,336.872,-81.2602,-14.1759,179.824,2.04346,-144.976,508
1569686337,336.872,-81.2602,-14.1759,179.824,2.04346,-144.976,508
1569686337,336.872,-81.2602,-14.1759,179.824,2.04346,-144.976,508
1569686337,336.872,-81.2602,-14.1759,179.824,2.04346,-144.976,508
1569686337,336.872,-81.2602,-14.1759,179.824,2.04346,-144.976,508
1569686337,336.872,-81.2602,-14.1759,179.824,2.04346,-144.976,508
1569686337,336.872,-81.2602,-14.1759,179.824,2.04346,-144.976,508
1569686337,336.872,-81.2602,-14.1759,179.824,2.04346,-144.976,508
1569686337,336.872,-81.2602,-14.1759,179.824,2.04346,-144.976,508
1569686337,336.872,-81.2602,-14.1759,179.824,2.04346,-144.976,508
1569686337,336.872,-81.2602,-14.1759,179.824,2.04346,-144.976,508
1569686337,336.872,-81.2602,-14.1759,179.824,2.04346,-144.976,508
1569686337,336.872,-81.2602,-14.1759,179.824,2.04346,-144.976,508
1569686337,336.872,-81.2602,-14.1759,179.824,2.04346,-144.976,508
1569686337,336.872,-81.2602,-14.1759,179.824,2.04346,-144.976,508
1569686337,336.872,-81.2602,-14.1759,179.824,2.04346,-144.976,508
1569686337,336.872,-81.2602,-14.1759,179.824,2.04346,-144.976,508
1569686337,336.872,-81.2602,-14.1759,179.824,2.04346,-144.976,508
1569686337,336.872,-81.2602,-14.1759,179.824,2.04346,-144.976,508
1569686337,336.872,-81.2602,-14.1759,179.824,2.04346,-144.976,508
1569686337,336.872,-81.2602,-14.1759,179.824,2.04346,-144.976,508
1569686337,336.872,-81.2602,-14.1759,179.824,2.04346,-144.976,508
1569686342,375.717,-121.332,-12.6132,-179.868,2.68066,-144.778,544
1569686342,375.717,-121.332,-12.6132,-179.868,2.68066,-144.778,544
1569686342,375.717,-121.332,-12.6132,-179.868,2.68066,-144.778,544
1569686342,375.717,-121.332,-12.6132,-179.89,2.65869,-144.778,544
1569686342,375.717,-121.332,-12.6132,-179.89,2.65869,-144.778,544
1569686342,375.717,-121.332,-12.6132,-179.89,2.65869,-144.778,544
1569686342,375.717,-121.332,-12.6132,-179.89,2.65869,-144.778,544
1569686342,375.717,-121.332,-12.6132,-179.89,2.65869,-144.778,544
1569686342,375.717,-121.332,-12.7248,-179.89,2.65869,-144.778,544
1569686342,375.717,-121.332,-12.7248,-179.868,2.65869,-144.778,544
1569686342,375.717,-121.332,-12.7248,-179.868,2.65869,-144.778,544
1569686342,375.717,-121.332,-12.7248,-179.868,2.63672,-144.778,544
1569686342,375.717,-121.332,-12.7248,-179.868,2.63672,-144.778,544
1569686342,375.717,-121.332,-12.7248,-179.868,2.63672,-144.778,544
1569686342,375.717,-121.332,-12.7248,-179.868,2.63672,-144.778,544
1569686342,375.717,-121.332,-12.7248,-179.868,2.63672,-144.778,544
1569686342,375.717,-121.221,-12.7248,-179.868,2.63672,-144.778,544
1569686342,375.717,-121.221,-12.7248,-179.868,2.63672,-144.778,544
1569686342,375.717,-121.221,-12.7248,-179.868,2.63672,-144.778,544
1569686342,375.717,-121.221,-12.7248,-179.868,2.63672,-144.778,544
1569686342,375.717,-121.221,-12.7248,-179.868,2.63672,-144.778,544
1569686342,375.717,-121.221,-12.7248,-179.868,2.65869,-144.778,544
1569686342,375.717,-121.221,-12.7248,-179.868,2.65869,-144.778,544
1569686342,375.717,-121.221,-12.7248,-179.846,2.65869,-144.778,544
1569686342,375.717,-121.221,-12.7248,-179.846,2.65869,-144.778,544
1569686342,375.717,-121.221,-12.7248,-179.846,2.65869,-144.778,544
1569686342,375.717,-121.221,-12.7248,-179.846,2.65869,-144.778,544
1569686342,375.717,-121.221,-12.7248,-179.846,2.65869,-144.778,544
1569686342,375.717,-121.221,-12.7248,-179.846,2.65869,-144.778,544
1569686342,375.717,-121.221,-12.7248,-179.846,2.65869,-144.778,544
1569686342,375.717,-121.221,-12.7248,-179.846,2.65869,-144.778,544
1569686342,375.717,-121.221,-12.7248,-179.846,2.65869,-144.778,544
1569686342,375.717,-121.221,-12.7248,-179.846,2.65869,-144.778,544
1569686342,375.717,-121.221,-12.7248,-179.846,2.65869,-144.778,544
1569686342,375.717,-121.221,-12.7248,-179.846,2.65869,-144.778,544
1569686342,375.717,-121.221,-12.6132,-179.846,2.68066,-144.778,544
1569686342,375.717,-121.221,-12.6132,-179.846,2.68066,-144.778,544
1569686342,375.717,-121.221,-12.6132,-179.846,2.68066,-144.778,544
1569686342,375.717,-121.221,-12.6132,-179.846,2.68066,-144.778,544
1569686342,375.717,-121.221,-12.6132,-179.846,2.68066,-144.778,544
1569686342,375.717,-121.221,-12.6132,-179.846,2.68066,-144.778,544
1569686342,375.717,-121.221,-12.6132,-179.846,2.68066,-144.778,544
1569686342,375.717,-121.221,-12.6132,-179.868,2.68066,-144.778,544
1569686342,375.717,-121.332,-12.6132,-179.868,2.68066,-144.778,544
1569686342,375.717,-121.332,-12.6132,-179.868,2.68066,-144.778,544
1569686342,375.717,-121.332,-12.6132,-179.868,2.68066,-144.778,544
1569686342,375.717,-121.332,-12.6132,-179.868,2.68066,-144.778,540
1569686342,375.717,-121.332,-12.6132,-179.868,2.68066,-144.778,540
1569686342,375.717,-121.332,-12.6132,-179.846,2.68066,-144.778,540
1569686342,375.717,-121.332,-12.6132,-179.846,2.68066,-144.778,540
1569686342,375.717,-121.332,-12.6132,-179.846,2.65869,-144.778,540
1569686342,375.717,-121.332,-12.6132,-179.846,2.65869,-144.778,540
1569686342,375.717,-121.332,-12.7248,-179.868,2.65869,-144.778,540
1569686342,375.717,-121.332,-12.7248,-179.868,2.65869,-144.778,540
1569686342,375.717,-121.332,-12.7248,-179.868,2.65869,-144.778,540
1569686342,375.717,-121.332,-12.7248,-179.868,2.65869,-144.778,540
1569686342,375.717,-121.332,-12.7248,-179.868,2.65869,-144.778,540
1569686342,375.717,-121.332,-12.7248,-179.868,2.65869,-144.778,540
1569686342,375.717,-121.332,-12.7248,-179.868,2.65869,-144.778,540
1569686342,375.717,-121.332,-12.7248,-179.868,2.65869,-144.778,544
1569686342,375.717,-121.332,-12.7248,-179.868,2.65869,-144.778,544
1569686342,375.717,-121.332,-12.7248,-179.89,2.65869,-144.778,544
1569686342,375.717,-121.332,-12.7248,-179.89,2.65869,-144.778,544
1569686342,375.717,-121.332,-12.7248,-179.89,2.65869,-144.778,544
1569686342,375.717,-121.444,-12.6132,-179.89,2.65869,-144.778,544
1569686342,375.717,-121.444,-12.6132,-179.89,2.65869,-144.778,544
1569686342,375.717,-121.444,-12.6132,-179.89,2.68066,-144.778,544
1569686342,375.717,-121.444,-12.6132,-179.89,2.68066,-144.778,544
1569686342,375.717,-121.444,-12.6132,-179.89,2.68066,-144.778,544
1569686342,375.717,-121.444,-12.6132,-179.89,2.68066,-144.778,544
1569686342,375.717,-121.444,-12.6132,-179.89,2.70264,-144.778,544
1569686342,375.717,-121.332,-12.5016,-179.89,2.70264,-144.778,548
1569686342,375.717,-121.332,-12.5016,-179.89,2.70264,-144.778,548
1569686342,375.717,-121.332,-12.5016,-179.89,2.70264,-144.778,552
1569686342,375.717,-121.332,-12.5016,-179.868,2.70264,-144.778,552
1569686342,375.717,-121.332,-12.5016,-179.868,2.70264,-144.778,552
1569686342,375.717,-121.332,-12.5016,-179.868,2.70264,-144.778,556
1569686342,375.717,-121.332,-12.5016,-179.868,2.70264,-144.756,556
1569686342,375.717,-121.221,-12.5016,-179.868,2.70264,-144.756,560
1569686342,375.717,-121.221,-12.5016,-179.846,2.70264,-144.756,560
1569686342,375.717,-121.221,-12.5016,-179.846,2.70264,-144.756,560
1569686342,375.717,-121.221,-12.6132,-179.846,2.70264,-144.756,564
1569686342,375.717,-121.221,-12.6132,-179.846,2.68066,-144.756,564
1569686342,375.717,-121.221,-12.6132,-179.846,2.68066,-144.756,564
1569686342,375.717,-121.221,-12.6132,-179.846,2.68066,-144.756,564
1569686342,375.717,-121.221,-12.6132,-179.846,2.68066,-144.756,568
1569686343,375.717,-121.221,-12.6132,-179.846,2.68066,-144.756,568
1569686343,375.717,-121.221,-12.6132,-179.846,2.68066,-144.756,568
1569686343,375.717,-121.221,-12.6132,-179.846,2.68066,-144.756,568
1569686343,375.717,-121.221,-12.6132,-179.868,2.68066,-144.756,568
1569686343,375.717,-121.221,-12.6132,-179.868,2.68066,-144.756,568
1569686343,375.717,-121.221,-12.6132,-179.868,2.68066,-144.778,568
1569686343,375.717,-121.221,-12.6132,-179.868,2.68066,-144.778,568
1569686343,375.717,-121.221,-12.6132,-179.868,2.68066,-144.778,568
1569686343,375.717,-121.221,-12.6132,-179.868,2.68066,-144.778,568
1569686343,375.717,-121.221,-12.6132,-179.868,2.68066,-144.778,568
1569686343,375.717,-121.221,-12.6132,-179.868,2.68066,-144.778,568
1569686343,375.828,-121.221,-12.6132,-179.868,2.68066,-144.778,568
1569686343,375.828,-121.221,-12.6132,-179.868,2.68066,-144.778,568
1569686343,375.828,-121.221,-12.6132,-179.846,2.68066,-144.778,564
1569686343,375.828,-121.221,-12.6132,-179.846,2.68066,-144.778,564
1569686343,375.828,-121.221,-12.7248,-179.846,2.65869,-144.778,564
1569686343,375.828,-121.221,-12.7248,-179.846,2.65869,-144.778,560
1569686343,375.828,-121.221,-12.7248,-179.846,2.65869,-144.778,560
1569686343,375.828,-121.221,-12.7248,-179.846,2.65869,-144.778,560
1569686343,375.828,-121.221,-12.7248,-179.846,2.65869,-144.778,556
1569686343,375.828,-121.221,-12.7248,-179.846,2.65869,-144.778,556
1569686343,375.828,-121.221,-12.7248,-179.846,2.65869,-144.778,556
1569686343,375.828,-121.221,-12.7248,-179.846,2.65869,-144.778,556
1569686343,375.717,-121.221,-12.7248,-179.846,2.63672,-144.778,556
1569686343,375.717,-121.221,-12.7248,-179.846,2.63672,-144.778,556
1569686343,375.717,-121.221,-12.7248,-179.846,2.63672,-144.778,556
1569686343,375.717,-121.221,-12.7248,-179.846,2.63672,-144.778,556
1569686343,375.717,-121.221,-12.7248,-179.846,2.63672,-144.778,556
1569686343,375.717,-121.221,-12.7248,-179.846,2.63672,-144.778,556
1569686343,375.717,-121.221,-12.7248,-179.846,2.63672,-144.778,556
1569686343,375.717,-121.332,-12.7248,-179.846,2.63672,-144.778,552
1569686343,375.717,-121.332,-12.7248,-179.846,2.63672,-144.778,552
1569686343,375.828,-121.332,-12.8364,-179.846,2.63672,-144.778,552
1569686343,375.828,-121.332,-12.8364,-179.846,2.63672,-144.778,552
1569686343,375.828,-121.332,-12.8364,-179.846,2.63672,-144.778,552
1569686343,375.717,-121.332,-12.8364,-179.868,2.63672,-144.778,552
1569686343,375.717,-121.332,-12.8364,-179.868,2.63672,-144.778,552
1569686343,375.717,-121.332,-12.8364,-179.868,2.63672,-144.778,552
1569686343,375.717,-121.332,-12.8364,-179.868,2.63672,-144.778,552
1569686343,375.717,-121.332,-12.8364,-179.868,2.63672,-144.778,552
1569686343,375.717,-121.332,-12.8364,-179.868,2.63672,-144.778,548
1569686343,375.717,-121.332,-12.8364,-179.868,2.63672,-144.778,548
1569686343,375.717,-121.332,-12.8364,-179.868,2.63672,-144.778,548
1569686343,375.717,-121.332,-12.8364,-179.846,2.63672,-144.778,548
1569686343,375.717,-121.221,-12.8364,-179.846,2.63672,-144.778,548
1569686343,375.717,-121.221,-12.8364,-179.846,2.63672,-144.778,548
1569686343,375.717,-121.221,-12.8364,-179.846,2.63672,-144.778,544
1569686343,375.717,-121.221,-12.8364,-179.846,2.63672,-144.778,544
1569686343,375.717,-121.221,-12.8364,-179.846,2.61475,-144.778,544
1569686343,375.828,-121.221,-12.8364,-179.846,2.61475,-144.778,544
1569686343,375.828,-121.221,-12.8364,-179.846,2.61475,-144.778,540
1569686343,375.828,-121.221,-12.8364,-179.846,2.61475,-144.778,540
1569686343,375.828,-121.332,-12.8364,-179.846,2.61475,-144.778,540
1569686343,375.828,-121.332,-12.8364,-179.846,2.61475,-144.778,540
1569686343,375.828,-121.332,-12.8364,-179.846,2.61475,-144.778,540
1569686343,375.717,-121.332,-12.8364,-179.846,2.61475,-144.778,540
1569686343,375.717,-121.332,-12.8364,-179.846,2.61475,-144.778,540
1569686343,375.717,-121.332,-12.8364,-179.846,2.61475,-144.778,540
1569686343,375.717,-121.332,-12.8364,-179.846,2.61475,-144.778,540
1569686343,375.717,-121.332,-12.8364,-179.846,2.61475,-144.756,540
1569686343,375.717,-121.221,-12.8364,-179.846,2.61475,-144.756,540
1569686343,375.717,-121.221,-12.8364,-179.846,2.61475,-144.756,540
1569686343,375.717,-121.221,-12.8364,-179.846,2.61475,-144.756,540
1569686343,375.717,-121.221,-12.8364,-179.846,2.61475,-144.756,540
1569686343,375.717,-121.221,-12.8364,-179.846,2.61475,-144.756,540
1569686343,375.717,-121.221,-12.8364,-179.846,2.61475,-144.756,544
1569686343,375.717,-121.221,-12.8364,-179.846,2.59277,-144.756,544
1569686343,375.717,-121.221,-12.8364,-179.846,2.59277,-144.756,544
1569686343,375.717,-121.221,-12.8364,-179.846,2.59277,-144.756,548
1569686343,375.717,-121.221,-12.8364,-179.846,2.59277,-144.756,548
1569686343,375.605,-121.221,-12.8364,-179.846,2.59277,-144.756,548
1569686343,375.605,-121.221,-12.8364,-179.846,2.59277,-144.756,552
1569686343,375.605,-121.221,-12.8364,-179.846,2.59277,-144.756,552
1569686343,375.605,-121.221,-12.8364,-179.846,2.59277,-144.756,552
1569686343,375.605,-121.221,-12.8364,-179.846,2.59277,-144.756,552
1569686343,375.605,-121.221,-12.8364,-179.846,2.59277,-144.756,552
1569686343,375.605,-121.221,-12.8364,-179.846,2.59277,-144.756,556
1569686343,375.605,-121.221,-12.8364,-179.846,2.59277,-144.756,556
1569686343,375.605,-121.221,-12.8364,-179.846,2.59277,-144.756,556
1569686343,375.605,-121.221,-12.8364,-179.846,2.59277,-144.756,552
1569686343,375.605,-121.221,-12.8364,-179.846,2.59277,-144.756,552
1569686343,375.605,-121.221,-12.948,-179.868,2.59277,-144.756,552
1569686343,375.605,-121.221,-12.8364,-179.868,2.59277,-144.756,552
1569686343,375.605,-121.221,-12.8364,-179.868,2.59277,-144.756,552
1569686343,375.605,-121.221,-12.8364,-179.868,2.59277,-144.756,552
1569686343,375.605,-121.221,-12.8364,-179.868,2.61475,-144.756,552
1569686343,375.605,-121.221,-12.8364,-179.868,2.61475,-144.756,552
1569686343,375.605,-121.221,-12.8364,-179.868,2.61475,-144.756,556
1569686343,375.605,-121.221,-12.8364,-179.868,2.61475,-144.756,556
1569686343,375.605,-121.221,-12.8364,-179.868,2.61475,-144.778,556
1569686343,375.605,-121.221,-12.8364,-179.868,2.61475,-144.778,556
1569686343,375.605,-121.221,-12.8364,-179.868,2.63672,-144.778,556
1569686343,375.605,-121.221,-12.8364,-179.868,2.63672,-144.778,556
1569686343,375.605,-121.221,-12.8364,-179.868,2.63672,-144.778,556
1569686343,375.605,-121.221,-12.8364,-179.868,2.63672,-144.778,556
1569686343,375.605,-121.221,-12.8364,-179.868,2.63672,-144.778,560
1569686343,375.605,-121.221,-12.8364,-179.868,2.63672,-144.778,560
1569686343,375.605,-121.221,-12.8364,-179.868,2.63672,-144.778,560
1569686343,375.717,-121.221,-12.8364,-179.868,2.63672,-144.778,560
1569686343,375.717,-121.221,-12.8364,-179.868,2.63672,-144.8,560
1569686344,375.605,-121.221,-12.8364,-179.868,2.63672,-144.8,560
1569686344,375.605,-121.332,-12.8364,-179.868,2.63672,-144.8,556
1569686344,375.717,-121.332,-12.8364,-179.868,2.63672,-144.8,556
1569686344,375.605,-121.332,-12.8364,-179.868,2.63672,-144.8,556
1569686344,375.605,-121.332,-12.8364,-179.89,2.63672,-144.8,556
1569686344,375.717,-121.332,-12.8364,-179.89,2.63672,-144.778,556
1569686344,375.717,-121.332,-12.7248,-179.89,2.63672,-144.778,556
1569686344,375.717,-121.332,-12.7248,-179.89,2.63672,-144.778,552
1569686344,375.717,-121.332,-12.7248,-179.89,2.63672,-144.778,552
1569686344,375.717,-121.332,-12.7248,-179.89,2.63672,-144.778,552
1569686344,375.717,-121.332,-12.7248,-179.868,2.63672,-144.778,552
1569686344,375.717,-121.332,-12.7248,-179.868,2.63672,-144.778,548
1569686344,375.717,-121.332,-12.7248,-179.868,2.65869,-144.778,548
1569686344,375.717,-121.332,-12.7248,-179.868,2.65869,-144.778,548
1569686344,375.717,-121.332,-12.7248,-179.868,2.65869,-144.778,548
1569686344,375.717,-121.332,-12.7248,-179.868,2.65869,-144.778,544
1569686344,375.717,-121.332,-12.7248,-179.868,2.65869,-144.778,544
1569686344,375.717,-121.332,-12.7248,-179.868,2.65869,-144.778,544
1569686344,375.717,-121.332,-12.7248,-179.868,2.65869,-144.778,544
1569686344,375.717,-121.332,-12.7248,-179.868,2.65869,-144.778,540
1569686344,375.717,-121.332,-12.7248,-179.868,2.65869,-144.778,540
1569686344,375.717,-121.332,-12.7248,-179.868,2.65869,-144.778,540
1569686344,375.717,-121.221,-12.7248,-179.868,2.65869,-144.778,536
1569686344,375.717,-121.221,-12.7248,-179.868,2.65869,-144.778,536
1569686344,375.717,-121.221,-12.7248,-179.868,2.65869,-144.778,536
1569686344,375.717,-121.221,-12.7248,-179.868,2.65869,-144.778,536
1569686344,375.717,-121.221,-12.7248,-179.868,2.65869,-144.778,532
1569686344,375.717,-121.221,-12.7248,-179.868,2.65869,-144.778,532
1569686344,375.717,-121.221,-12.7248,-179.868,2.65869,-144.778,532
1569686344,375.717,-121.221,-12.7248,-179.868,2.65869,-144.778,528
1569686344,375.717,-121.221,-12.7248,-179.868,2.65869,-144.778,528
1569686344,375.717,-121.332,-12.7248,-179.868,2.65869,-144.778,528
1569686344,375.717,-121.332,-12.7248,-179.868,2.65869,-144.778,528
1569686344,375.717,-121.332,-12.7248,-179.868,2.65869,-144.778,528
1569686344,375.717,-121.332,-12.7248,-179.868,2.65869,-144.778,528
1569686344,375.717,-121.332,-12.6132,-179.868,2.68066,-144.778,528
1569686344,375.717,-121.332,-12.6132,-179.868,2.68066,-144.778,532
1569686344,375.717,-121.332,-12.6132,-179.868,2.68066,-144.778,532
1569686344,375.717,-121.332,-12.6132,-179.868,2.68066,-144.778,532
1569686344,375.717,-121.332,-12.6132,-179.868,2.68066,-144.778,532
1569686344,375.717,-121.332,-12.6132,-179.868,2.68066,-144.778,536
1569686344,375.717,-121.332,-12.6132,-179.868,2.68066,-144.778,536
1569686344,375.717,-121.332,-12.6132,-179.868,2.68066,-144.778,536
1569686344,375.717,-121.332,-12.6132,-179.89,2.68066,-144.778,536
1569686344,375.717,-121.332,-12.6132,-179.89,2.68066,-144.778,536
1569686344,375.717,-121.332,-12.6132,-179.89,2.68066,-144.778,540
1569686344,375.717,-121.332,-12.6132,-179.89,2.68066,-144.778,540
1569686344,375.717,-121.332,-12.6132,-179.89,2.68066,-144.778,540
1569686344,375.717,-121.332,-12.6132,-179.89,2.68066,-144.778,540
1569686344,375.717,-121.332,-12.6132,-179.89,2.68066,-144.778,540
1569686344,375.717,-121.332,-12.6132,-179.89,2.68066,-144.778,544
1569686344,375.717,-121.444,-12.6132,-179.89,2.68066,-144.778,544
1569686344,375.717,-121.444,-12.6132,-179.89,2.68066,-144.778,544
1569686344,375.717,-121.444,-12.6132,-179.89,2.68066,-144.778,548
1569686344,375.717,-121.444,-12.6132,-179.89,2.68066,-144.778,548
1569686344,375.717,-121.444,-12.6132,-179.89,2.68066,-144.778,548
1569686344,375.717,-121.444,-12.6132,-179.89,2.68066,-144.778,548
1569686344,375.717,-121.444,-12.6132,-179.89,2.68066,-144.778,552
1569686344,375.717,-121.444,-12.6132,-179.89,2.68066,-144.778,552
1569686344,375.717,-121.332,-12.6132,-179.89,2.68066,-144.778,552
1569686344,375.717,-121.332,-12.6132,-179.89,2.68066,-144.778,556
1569686344,375.717,-121.332,-12.6132,-179.89,2.65869,-144.778,556
1569686344,375.717,-121.444,-12.6132,-179.89,2.65869,-144.778,556
1569686344,375.717,-121.444,-12.6132,-179.89,2.65869,-144.778,560
1569686344,375.717,-121.444,-12.6132,-179.89,2.68066,-144.778,560
1569686344,375.717,-121.444,-12.6132,-179.89,2.68066,-144.778,560
1569686344,375.717,-121.444,-12.6132,-179.89,2.68066,-144.778,560
1569686344,375.717,-121.444,-12.6132,-179.912,2.68066,-144.778,560
1569686344,375.717,-121.444,-12.6132,-179.912,2.68066,-144.778,560
1569686344,375.717,-121.444,-12.6132,-179.912,2.68066,-144.778,564
1569686344,375.717,-121.444,-12.6132,-179.912,2.68066,-144.778,564
1569686344,375.717,-121.444,-12.6132,-179.912,2.68066,-144.778,564
1569686344,375.717,-121.444,-12.6132,-179.912,2.68066,-144.778,564
1569686344,375.717,-121.444,-12.6132,-179.912,2.68066,-144.778,564
1569686344,375.717,-121.444,-12.6132,-179.912,2.68066,-144.778,560
1569686344,375.717,-121.444,-12.6132,-179.912,2.68066,-144.778,560
1569686344,375.717,-121.444,-12.6132,-179.89,2.68066,-144.778,560
1569686344,375.717,-121.444,-12.7248,-179.89,2.68066,-144.778,560
1569686344,375.717,-121.332,-12.7248,-179.89,2.68066,-144.778,560
1569686344,375.717,-121.332,-12.7248,-179.89,2.65869,-144.778,560
1569686344,375.717,-121.332,-12.7248,-179.89,2.65869,-144.8,556
1569686344,375.717,-121.332,-12.7248,-179.89,2.65869,-144.8,556
1569686344,375.717,-121.332,-12.7248,-179.868,2.65869,-144.8,556
1569686344,375.717,-121.332,-12.7248,-179.868,2.68066,-144.8,552
1569686344,375.717,-121.332,-12.7248,-179.868,2.68066,-144.8,552
1569686344,375.717,-121.332,-12.7248,-179.868,2.68066,-144.8,552
1569686344,375.717,-121.332,-12.7248,-179.868,2.68066,-144.778,548
1569686344,375.717,-121.332,-12.7248,-179.846,2.68066,-144.778,548
1569686344,375.717,-121.332,-12.7248,-179.846,2.68066,-144.778,544
1569686344,375.717,-121.332,-12.7248,-179.846,2.68066,-144.778,544
1569686344,375.717,-121.332,-12.7248,-179.846,2.68066,-144.778,544
1569686344,375.717,-121.332,-12.7248,-179.846,2.68066,-144.778,540
1569686344,375.717,-121.332,-12.7248,-179.846,2.68066,-144.778,540
1569686344,375.717,-121.332,-12.7248,-179.846,2.68066,-144.778,540
1569686344,375.717,-121.332,-12.7248,-179.846,2.68066,-144.778,540
1569686344,375.717,-121.332,-12.7248,-179.846,2.68066,-144.778,540
1569686344,375.717,-121.332,-12.7248,-179.846,2.68066,-144.778,540
1569686344,375.717,-121.332,-12.7248,-179.846,2.68066,-144.778,540
1569686344,375.717,-121.332,-12.7248,-179.846,2.68066,-144.778,540
1569686344,375.828,-121.332,-12.7248,-179.846,2.68066,-144.778,540
1569686345,375.828,-121.332,-12.7248,-179.846,2.68066,-144.778,540
1569686345,375.828,-121.332,-12.7248,-179.846,2.68066,-144.778,540
1569686345,375.828,-121.332,-12.7248,-179.846,2.68066,-144.778,540
1569686345,375.828,-121.332,-12.7248,-179.846,2.68066,-144.778,540
1569686345,375.828,-121.332,-12.7248,-179.868,2.68066,-144.778,540
1569686345,375.717,-121.332,-12.7248,-179.868,2.65869,-144.778,540
1569686345,375.717,-121.332,-12.7248,-179.868,2.65869,-144.778,540
1569686345,375.717,-121.332,-12.7248,-179.868,2.65869,-144.756,540
1569686345,375.717,-121.332,-12.7248,-179.868,2.65869,-144.756,540
1569686345,375.717,-121.332,-12.7248,-179.868,2.65869,-144.756,540
1569686345,375.717,-121.332,-12.7248,-179.868,2.65869,-144.756,544
1569686345,375.717,-121.332,-12.6132,-179.868,2.65869,-144.756,544
1569686345,375.717,-121.332,-12.6132,-179.868,2.65869,-144.756,544
1569686345,375.717,-121.332,-12.6132,-179.868,2.65869,-144.756,548
1569686345,375.717,-121.332,-12.6132,-179.868,2.65869,-144.756,548
1569686345,375.717,-121.332,-12.6132,-179.868,2.65869,-144.756,552
1569686345,375.717,-121.332,-12.6132,-179.846,2.65869,-144.756,552
1569686345,375.717,-121.332,-12.7248,-179.846,2.65869,-144.756,556
