time,x,y,z,ax,ay,az,q
1565117082,265.77,158.279,-16.6315,178.462,1.604,-156.577,164
1565117082,265.77,158.279,-16.6315,178.462,1.604,-156.577,164
1565117082,265.77,158.279,-16.6315,178.462,1.604,-156.577,164
1565117082,265.77,158.279,-16.6315,178.462,1.604,-156.577,164
1565117082,265.77,158.279,-16.6315,178.462,1.604,-156.577,164
1565117082,265.77,158.279,-16.6315,178.462,1.604,-156.577,164
1565117082,265.77,158.279,-16.6315,178.462,1.604,-156.577,164
1565117082,265.77,158.279,-16.6315,178.462,1.604,-156.577,164
1565117082,265.77,158.279,-16.6315,178.462,1.604,-156.577,164
1565117082,265.77,158.279,-16.6315,178.462,1.604,-156.577,164
1565117082,265.77,158.279,-16.6315,178.462,1.604,-156.577,164
1565117082,265.77,158.279,-16.6315,178.462,1.604,-156.577,164
1565117082,265.77,158.279,-16.6315,178.462,1.604,-156.577,164
1565117082,265.77,158.279,-16.6315,178.462,1.604,-156.577,164
1565117082,265.77,158.279,-16.6315,178.462,1.604,-156.577,164
1565117082,265.77,158.279,-16.6315,178.462,1.604,-156.577,164
1565117082,265.77,158.279,-16.6315,178.462,1.604,-156.577,164
1565117082,265.77,158.279,-16.6315,178.462,1.604,-156.577,164
1565117082,265.77,158.279,-16.6315,178.462,1.604,-156.577,164
1565117082,265.77,158.279,-16.6315,178.462,1.604,-156.577,164
1565117082,265.77,158.279,-16.6315,178.462,1.604,-156.577,164
1565117082,265.77,158.279,-16.6315,178.462,1.604,-156.577,164
1565117082,265.77,158.279,-16.6315,178.462,1.62598,-156.577,160
1565117082,265.77,158.279,-16.6315,178.462,1.62598,-156.577,160
1565117082,265.77,158.279,-16.6315,178.462,1.62598,-156.577,160
1565117082,265.77,158.279,-16.6315,178.462,1.62598,-156.577,160
1565117082,265.77,158.279,-16.6315,178.462,1.62598,-156.577,160
1565117082,265.77,158.279,-16.6315,178.462,1.62598,-156.555,160
1565117082,265.77,158.279,-16.6315,178.462,1.604,-156.555,160
1565117082,265.77,158.279,-16.6315,178.462,1.604,-156.555,160
1565117082,265.77,158.279,-16.6315,178.462,1.604,-156.555,160
1565117082,265.77,158.279,-16.6315,178.462,1.604,-156.555,160
1565117082,265.77,158.279,-16.6315,178.462,1.604,-156.555,160
1565117082,265.77,158.279,-16.6315,178.462,1.604,-156.555,160
1565117082,265.77,158.279,-16.6315,178.462,1.604,-156.555,160
1565117082,265.77,158.167,-16.6315,178.462,1.604,-156.555,160
1565117082,265.77,158.167,-16.6315,178.462,1.604,-156.555,160
1565117082,265.77,158.167,-16.6315,178.462,1.604,-156.555,156
1565117082,265.77,158.167,-16.6315,178.462,1.604,-156.555,156
1565117082,265.77,158.167,-16.6315,178.462,1.604,-156.555,156
1565117082,265.77,158.167,-16.6315,178.462,1.604,-156.555,156
1565117082,265.77,158.167,-16.6315,178.462,1.604,-156.555,156
1565117082,265.77,158.167,-16.6315,178.462,1.604,-156.555,156
1565117082,265.77,158.167,-16.6315,178.462,1.604,-156.555,156
1565117082,265.77,158.167,-16.6315,178.462,1.604,-156.555,160
1565117082,265.77,158.279,-16.6315,178.462,1.604,-156.555,160
1565117082,265.77,158.279,-16.6315,178.462,1.604,-156.555,160
1565117082,265.77,158.279,-16.6315,178.462,1.604,-156.555,160
1565117082,265.77,158.279,-16.6315,178.462,1.604,-156.577,160
1565117082,265.77,158.279,-16.6315,178.462,1.604,-156.577,160
1565117082,265.77,158.279,-16.6315,178.462,1.604,-156.577,160
1565117082,265.77,158.279,-16.6315,178.462,1.604,-156.577,160
1565117082,265.77,158.279,-16.6315,178.462,1.604,-156.577,160
1565117082,265.77,158.279,-16.6315,178.484,1.604,-156.577,160
1565117082,265.77,158.279,-16.6315,178.484,1.604,-156.577,160
1565117082,265.77,158.279,-16.6315,178.484,1.604,-156.577,160
1565117082,265.77,158.279,-16.6315,178.462,1.604,-156.577,160
1565117082,265.77,158.279,-16.6315,178.462,1.604,-156.577,160
1565117082,265.77,158.279,-16.6315,178.462,1.604,-156.577,160
1565117082,265.77,158.279,-16.6315,178.484,1.604,-156.577,160
1565117082,265.77,158.279,-16.6315,178.484,1.604,-156.577,160
1565117082,265.77,158.279,-16.6315,178.484,1.604,-156.577,160
1565117082,265.77,158.279,-16.6315,178.484,1.604,-156.577,160
1565117082,265.77,158.279,-16.6315,178.484,1.604,-156.577,164
1565117082,265.77,158.279,-16.6315,178.462,1.62598,-156.577,164
1565117082,265.77,158.279,-16.6315,178.462,1.62598,-156.577,164
1565117082,265.77,158.279,-16.6315,178.462,1.62598,-156.577,164
1565117082,265.77,158.279,-16.6315,178.462,1.62598,-156.577,164
1565117082,265.77,158.279,-16.6315,178.462,1.62598,-156.577,164
1565117082,265.77,158.279,-16.6315,178.462,1.62598,-156.577,168
1565117082,265.77,158.279,-16.6315,178.462,1.62598,-156.577,168
1565117082,265.77,158.279,-16.6315,178.462,1.62598,-156.577,168
1565117082,265.77,158.279,-16.6315,178.462,1.604,-156.577,168
1565117082,265.77,158.279,-16.6315,178.462,1.604,-156.577,168
1565117082,265.77,158.279,-16.6315,178.462,1.604,-156.577,168
1565117082,265.77,158.167,-16.6315,178.462,1.604,-156.577,168
1565117082,265.77,158.167,-16.6315,178.462,1.604,-156.577,168
1565117082,265.77,158.167,-16.6315,178.462,1.604,-156.577,168
1565117082,265.77,158.167,-16.6315,178.462,1.604,-156.577,168
1565117082,265.77,158.167,-16.6315,178.462,1.604,-156.577,168
1565117082,265.77,158.167,-16.6315,178.462,1.604,-156.577,168
1565117082,265.77,158.167,-16.6315,178.462,1.604,-156.577,168
1565117082,265.77,158.167,-16.6315,178.462,1.604,-156.577,168
1565117082,265.77,158.167,-16.6315,178.462,1.604,-156.577,168
1565117083,265.77,158.167,-16.6315,178.462,1.604,-156.577,168
1565117083,265.77,158.167,-16.6315,178.462,1.604,-156.577,168
1565117083,265.77,158.167,-16.6315,178.462,1.604,-156.577,168
1565117083,265.77,158.167,-16.6315,178.462,1.604,-156.577,168
1565117083,265.77,158.167,-16.6315,178.462,1.604,-156.577,168
1565117083,265.77,158.167,-16.6315,178.462,1.604,-156.577,168
1565117083,265.77,158.167,-16.6315,178.462,1.58203,-156.577,168
1565117083,265.77,158.279,-16.6315,178.462,1.58203,-156.577,168
1565117083,265.77,158.279,-16.6315,178.462,1.58203,-156.577,168
1565117083,265.77,158.279,-16.7432,178.462,1.58203,-156.577,168
1565117083,265.77,158.279,-16.7432,178.462,1.58203,-156.577,168
1565117083,265.77,158.279,-16.7432,178.462,1.58203,-156.577,168
1565117083,265.77,158.167,-16.7432,178.462,1.58203,-156.577,168
1565117083,265.77,158.167,-16.7432,178.462,1.58203,-156.577,168
1565117083,265.77,158.167,-16.7432,178.462,1.58203,-156.577,168
1565117083,265.77,158.167,-16.7432,178.462,1.58203,-156.577,168
1565117083,265.77,158.167,-16.7432,178.462,1.58203,-156.577,168
1565117083,265.77,158.167,-16.7432,178.462,1.58203,-156.577,168
1565117083,265.77,158.167,-16.7432,178.462,1.58203,-156.577,168
1565117083,265.77,158.167,-16.7432,178.462,1.58203,-156.577,168
1565117083,265.77,158.167,-16.7432,178.44,1.58203,-156.577,168
1565117083,265.77,158.167,-16.7432,178.44,1.58203,-156.577,168
1565117083,265.77,158.167,-16.7432,178.44,1.58203,-156.577,168
1565117083,265.77,158.167,-16.7432,178.462,1.58203,-156.577,168
1565117083,265.77,158.167,-16.7432,178.462,1.58203,-156.555,168
1565117083,265.77,158.167,-16.7432,178.462,1.58203,-156.555,168
1565117083,265.77,158.167,-16.7432,178.462,1.58203,-156.555,168
1565117083,265.77,158.167,-16.7432,178.462,1.58203,-156.555,168
1565117083,265.77,158.167,-16.7432,178.462,1.58203,-156.555,168
1565117083,265.77,158.167,-16.7432,178.462,1.58203,-156.555,168
1565117083,265.77,158.167,-16.7432,178.462,1.58203,-156.555,164
1565117083,265.77,158.167,-16.7432,178.462,1.58203,-156.555,164
1565117083,265.77,158.167,-16.7432,178.462,1.58203,-156.555,164
1565117083,265.77,158.167,-16.7432,178.462,1.58203,-156.555,164
1565117083,265.77,158.167,-16.7432,178.462,1.58203,-156.555,164
1565117083,265.77,158.167,-16.7432,178.462,1.58203,-156.555,164
1565117083,265.77,158.167,-16.7432,178.462,1.58203,-156.555,168
1565117083,265.77,158.167,-16.7432,178.462,1.58203,-156.555,168
1565117083,265.77,158.167,-16.6315,178.462,1.58203,-156.577,168
1565117083,265.77,158.167,-16.6315,178.462,1.58203,-156.577,168
1565117083,265.77,158.167,-16.6315,178.462,1.604,-156.577,168
1565117083,265.77,158.167,-16.6315,178.462,1.604,-156.577,168
1565117083,265.77,158.279,-16.6315,178.462,1.604,-156.577,168
1565117083,265.77,158.279,-16.6315,178.462,1.604,-156.577,168
1565117083,265.77,158.279,-16.6315,178.462,1.604,-156.577,168
1565117083,265.77,158.279,-16.6315,178.462,1.604,-156.577,168
1565117083,265.77,158.279,-16.6315,178.462,1.604,-156.577,168
1565117083,265.77,158.279,-16.6315,178.462,1.604,-156.577,168
1565117083,265.77,158.279,-16.6315,178.484,1.604,-156.577,168
1565117083,265.77,158.279,-16.6315,178.484,1.604,-156.577,168
1565117083,265.77,158.279,-16.6315,178.484,1.604,-156.577,168
1565117083,265.77,158.279,-16.6315,178.484,1.604,-156.577,168
1565117083,265.77,158.279,-16.6315,178.484,1.604,-156.577,168
1565117083,265.77,158.279,-16.6315,178.484,1.604,-156.577,168
1565117083,265.77,158.279,-16.6315,178.484,1.604,-156.577,168
1565117083,265.77,158.279,-16.6315,178.484,1.604,-156.577,168
1565117083,265.77,158.279,-16.6315,178.484,1.604,-156.577,168
1565117083,265.77,158.279,-16.6315,178.484,1.604,-156.577,168
1565117083,265.77,158.279,-16.6315,178.484,1.604,-156.577,168
1565117083,265.77,158.279,-16.6315,178.484,1.604,-156.577,168
1565117083,265.77,158.279,-16.6315,178.484,1.604,-156.555,168
1565117083,265.77,158.279,-16.6315,178.484,1.604,-156.555,168
1565117083,265.77,158.279,-16.6315,178.484,1.604,-156.555,164
1565117083,265.77,158.279,-16.6315,178.484,1.604,-156.555,164
1565117083,265.77,158.279,-16.6315,178.484,1.604,-156.577,164
1565117083,265.77,158.279,-16.6315,178.484,1.604,-156.577,164
1565117083,265.77,158.279,-16.6315,178.484,1.604,-156.577,164
1565117083,265.77,158.279,-16.6315,178.484,1.604,-156.577,164
1565117083,265.77,158.279,-16.7432,178.484,1.604,-156.577,164
1565117083,265.77,158.279,-16.7432,178.484,1.604,-156.577,164
1565117083,265.77,158.279,-16.7432,178.484,1.604,-156.577,164
1565117083,265.77,158.279,-16.7432,178.484,1.604,-156.577,160
1565117083,265.77,158.279,-16.7432,178.484,1.604,-156.577,160
1565117083,265.77,158.279,-16.7432,178.484,1.604,-156.577,160
1565117083,265.77,158.279,-16.7432,178.484,1.604,-156.577,160
1565117083,265.77,158.279,-16.7432,178.484,1.604,-156.577,160
1565117083,265.77,158.279,-16.7432,178.484,1.604,-156.577,160
1565117083,265.77,158.279,-16.7432,178.484,1.604,-156.577,160
1565117083,265.77,158.279,-16.7432,178.484,1.604,-156.577,160
1565117083,265.77,158.279,-16.7432,178.484,1.604,-156.577,160
1565117083,265.77,158.279,-16.7432,178.484,1.604,-156.577,164
1565117083,265.77,158.279,-16.7432,178.484,1.604,-156.577,164
1565117083,265.77,158.279,-16.7432,178.484,1.604,-156.577,164
1565117083,265.77,158.279,-16.7432,178.484,1.58203,-156.577,164
1565117083,265.77,158.279,-16.7432,178.484,1.58203,-156.577,164
1565117083,265.77,158.279,-16.6315,178.484,1.58203,-156.577,164
1565117083,265.77,158.279,-16.6315,178.484,1.58203,-156.577,164
1565117083,265.77,158.279,-16.6315,178.484,1.58203,-156.577,164
1565117083,265.77,158.279,-16.6315,178.462,1.58203,-156.577,164
1565117083,265.77,158.279,-16.6315,178.462,1.58203,-156.577,164
1565117083,265.77,158.279,-16.6315,178.462,1.58203,-156.577,164
1565117083,265.77,158.279,-16.6315,178.462,1.58203,-156.577,164
1565117083,265.77,158.167,-16.6315,178.462,1.58203,-156.577,164
1565117083,265.77,158.167,-16.6315,178.462,1.58203,-156.577,164
1565117083,265.77,158.167,-16.6315,178.462,1.58203,-156.577,164
1565117083,265.77,158.167,-16.6315,178.462,1.58203,-156.577,164
1565117083,265.77,158.167,-16.6315,178.462,1.58203,-156.577,164
1565117083,265.77,158.167,-16.6315,178.462,1.58203,-156.577,168
1565117083,265.77,158.167,-16.6315,178.462,1.58203,-156.577,168
1565117083,265.77,158.167,-16.6315,178.462,1.58203,-156.577,168
1565117084,265.77,158.167,-16.6315,178.462,1.58203,-156.577,168
1565117084,265.77,158.167,-16.6315,178.462,1.604,-156.577,168
1565117084,265.77,158.167,-16.6315,178.462,1.604,-156.577,168
1565117084,265.77,158.167,-16.6315,178.462,1.604,-156.577,168
1565117084,265.77,158.167,-16.6315,178.462,1.604,-156.577,168
1565117084,265.77,158.167,-16.6315,178.462,1.604,-156.577,168
1565117084,265.77,158.167,-16.6315,178.462,1.604,-156.577,168
1565117084,265.77,158.167,-16.6315,178.462,1.604,-156.577,168
1565117084,265.77,158.167,-16.6315,178.462,1.604,-156.577,168
1565117084,265.77,158.167,-16.6315,178.462,1.604,-156.577,168
1565117084,265.77,158.167,-16.6315,178.462,1.604,-156.577,168
1565117084,265.77,158.167,-16.6315,178.462,1.604,-156.577,168
1565117084,265.77,158.167,-16.6315,178.462,1.604,-156.577,164
1565117084,265.77,158.167,-16.6315,178.462,1.604,-156.577,164
1565117084,265.77,158.167,-16.6315,178.462,1.604,-156.577,164
1565117084,265.77,158.167,-16.6315,178.462,1.604,-156.577,164
1565117084,265.77,158.167,-16.6315,178.462,1.604,-156.577,164
1565117084,265.77,158.167,-16.6315,178.462,1.604,-156.577,164
1565117084,265.77,158.167,-16.6315,178.462,1.604,-156.577,164
1565117084,265.77,158.167,-16.6315,178.462,1.604,-156.577,164
1565117084,265.77,158.167,-16.6315,178.462,1.604,-156.577,164
1565117084,265.77,158.167,-16.6315,178.462,1.604,-156.577,164
1565117084,265.77,158.167,-16.6315,178.462,1.604,-156.577,164
1565117084,265.77,158.167,-16.6315,178.44,1.604,-156.577,164
1565117084,265.77,158.167,-16.6315,178.44,1.604,-156.577,164
1565117084,265.77,158.167,-16.6315,178.462,1.604,-156.577,164
1565117084,265.77,158.167,-16.6315,178.462,1.604,-156.577,164
1565117084,265.77,158.167,-16.6315,178.462,1.604,-156.577,164
1565117084,265.77,158.167,-16.6315,178.462,1.604,-156.577,164
1565117084,265.77,158.167,-16.6315,178.462,1.604,-156.577,164
1565117084,265.77,158.167,-16.6315,178.462,1.604,-156.577,164
1565117084,265.77,158.167,-16.6315,178.462,1.604,-156.577,164
1565117084,265.77,158.167,-16.6315,178.462,1.604,-156.577,164
1565117084,265.77,158.167,-16.6315,178.462,1.604,-156.577,164
1565117084,265.77,158.167,-16.6315,178.462,1.604,-156.577,164
1565117084,265.77,158.167,-16.6315,178.462,1.604,-156.577,164
1565117084,265.77,158.167,-16.6315,178.462,1.604,-156.577,164
1565117084,265.77,158.167,-16.6315,178.44,1.604,-156.577,164
1565117084,265.77,158.167,-16.6315,178.44,1.604,-156.577,164
1565117084,265.77,158.167,-16.6315,178.44,1.604,-156.577,164
1565117084,265.77,158.167,-16.6315,178.44,1.604,-156.577,164
1565117084,265.77,158.167,-16.6315,178.44,1.604,-156.577,164
1565117084,265.77,158.167,-16.6315,178.44,1.604,-156.577,164
1565117084,265.77,158.167,-16.6315,178.44,1.604,-156.577,164
1565117084,265.77,158.167,-16.6315,178.44,1.604,-156.577,164
1565117084,265.77,158.167,-16.6315,178.44,1.604,-156.577,168
1565117084,265.77,158.167,-16.6315,178.44,1.604,-156.577,168
1565117084,265.77,158.167,-16.6315,178.44,1.604,-156.577,168
1565117084,265.77,158.167,-16.6315,178.44,1.604,-156.577,168
1565117084,265.77,158.167,-16.6315,178.44,1.604,-156.577,168
1565117084,265.77,158.167,-16.6315,178.44,1.604,-156.577,168
1565117084,265.77,158.167,-16.6315,178.462,1.604,-156.577,168
1565117084,265.77,158.167,-16.6315,178.462,1.604,-156.577,168
1565117084,265.77,158.167,-16.6315,178.462,1.604,-156.577,168
1565117084,265.77,158.167,-16.6315,178.462,1.604,-156.577,168
1565117084,265.77,158.167,-16.6315,178.462,1.604,-156.577,168
1565117084,265.77,158.167,-16.6315,178.462,1.604,-156.577,168
1565117084,265.77,158.167,-16.6315,178.462,1.604,-156.577,168
1565117084,265.77,158.167,-16.6315,178.462,1.604,-156.577,168
1565117084,265.77,158.167,-16.6315,178.462,1.58203,-156.577,168
1565117084,265.77,158.167,-16.6315,178.462,1.58203,-156.577,168
1565117084,265.77,158.167,-16.6315,178.462,1.58203,-156.577,168
1565117084,265.77,158.167,-16.7432,178.462,1.58203,-156.577,168
1565117084,265.77,158.167,-16.7432,178.462,1.58203,-156.577,168
1565117084,265.77,158.167,-16.7432,178.462,1.58203,-156.577,168
1565117084,265.77,158.167,-16.7432,178.462,1.604,-156.577,168
1565117084,265.77,158.167,-16.7432,178.462,1.604,-156.577,168
1565117084,265.77,158.167,-16.7432,178.462,1.604,-156.577,168
1565117084,265.77,158.167,-16.7432,178.462,1.604,-156.577,168
1565117084,265.77,158.167,-16.7432,178.462,1.604,-156.577,168
1565117084,265.77,158.279,-16.7432,178.462,1.604,-156.577,168
1565117084,265.77,158.279,-16.7432,178.462,1.604,-156.577,168
1565117084,265.77,158.279,-16.7432,178.462,1.58203,-156.577,168
1565117084,265.77,158.279,-16.7432,178.462,1.58203,-156.577,168
1565117084,265.77,158.279,-16.7432,178.462,1.58203,-156.577,168
1565117084,265.77,158.279,-16.7432,178.462,1.58203,-156.577,168
1565117084,265.77,158.279,-16.7432,178.462,1.58203,-156.577,168
1565117084,265.77,158.279,-16.7432,178.462,1.58203,-156.577,164
1565117084,265.77,158.279,-16.7432,178.462,1.58203,-156.577,164
1565117084,265.77,158.279,-16.7432,178.462,1.58203,-156.577,164
1565117084,265.77,158.279,-16.7432,178.462,1.58203,-156.577,164
1565117084,265.77,158.279,-16.7432,178.462,1.58203,-156.577,164
1565117084,265.77,158.279,-16.7432,178.462,1.58203,-156.577,164
1565117084,265.77,158.279,-16.7432,178.462,1.58203,-156.577,164
1565117084,265.77,158.279,-16.7432,178.462,1.58203,-156.577,164
1565117084,265.77,158.279,-16.7432,178.462,1.58203,-156.577,164
1565117084,265.77,158.279,-16.7432,178.462,1.58203,-156.577,164
1565117084,265.77,158.279,-16.7432,178.462,1.58203,-156.577,164
1565117084,265.77,158.279,-16.7432,178.462,1.58203,-156.577,164
1565117084,265.77,158.279,-16.7432,178.462,1.58203,-156.577,164
1565117084,265.77,158.279,-16.7432,178.484,1.58203,-156.577,164
1565117084,265.77,158.279,-16.7432,178.484,1.58203,-156.577,164
1565117084,265.77,158.279,-16.7432,178.484,1.58203,-156.577,164
1565117084,265.77,158.279,-16.7432,178.484,1.56006,-156.577,164
1565117084,265.77,158.279,-16.7432,178.484,1.56006,-156.577,164
1565117084,265.77,158.279,-16.7432,178.484,1.56006,-156.577,164
1565117084,265.77,158.279,-16.7432,178.484,1.56006,-156.577,164
1565117084,265.77,158.279,-16.7432,178.484,1.56006,-156.577,164
1565117084,265.77,158.279,-16.7432,178.484,1.56006,-156.577,164
1565117084,265.77,158.279,-16.7432,178.462,1.56006,-156.577,164
1565117085,265.77,158.279,-16.7432,178.462,1.56006,-156.577,164
1565117085,265.77,158.279,-16.7432,178.462,1.56006,-156.577,164
1565117085,265.77,158.167,-16.7432,178.462,1.58203,-156.577,164
1565117085,265.77,158.167,-16.7432,178.462,1.58203,-156.577,164
1565117085,265.77,158.167,-16.7432,178.462,1.58203,-156.577,168
1565117085,265.77,158.167,-16.7432,178.462,1.58203,-156.577,168
1565117085,265.77,158.167,-16.7432,178.462,1.58203,-156.577,168
1565117085,265.77,158.167,-16.7432,178.462,1.58203,-156.577,168
1565117085,265.77,158.167,-16.7432,178.462,1.58203,-156.577,168
1565117085,265.77,158.167,-16.7432,178.462,1.58203,-156.577,168
1565117085,265.77,158.167,-16.6315,178.462,1.58203,-156.577,168
1565117085,265.77,158.167,-16.6315,178.462,1.58203,-156.577,168
1565117085,265.77,158.167,-16.6315,178.462,1.58203,-156.577,168
1565117085,265.77,158.167,-16.6315,178.462,1.58203,-156.577,168
1565117085,265.77,158.167,-16.6315,178.462,1.58203,-156.577,168
1565117085,265.77,158.167,-16.6315,178.462,1.604,-156.577,164
1565117085,265.77,158.167,-16.6315,178.462,1.604,-156.577,164
1565117085,265.77,158.167,-16.6315,178.462,1.604,-156.577,164
1565117085,265.77,158.167,-16.6315,178.462,1.604,-156.599,164
1565117085,265.77,158.167,-16.6315,178.462,1.604,-156.599,164
1565117085,265.77,158.167,-16.6315,178.462,1.604,-156.599,164
1565117085,265.77,158.167,-16.6315,178.462,1.604,-156.599,164
1565117085,265.77,158.167,-16.6315,178.462,1.604,-156.599,164
1565117085,265.77,158.167,-16.6315,178.462,1.604,-156.599,164
1565117085,265.77,158.167,-16.6315,178.462,1.604,-156.577,164
1565117085,265.77,158.167,-16.6315,178.462,1.604,-156.577,164
1565117085,265.77,158.167,-16.6315,178.462,1.604,-156.577,164
1565117085,265.77,158.167,-16.6315,178.462,1.604,-156.577,164
1565117085,265.77,158.167,-16.6315,178.462,1.604,-156.577,164
1565117085,265.77,158.167,-16.6315,178.462,1.604,-156.577,164
1565117085,265.77,158.167,-16.6315,178.462,1.604,-156.577,164
1565117085,265.77,158.167,-16.6315,178.462,1.604,-156.577,164
1565117085,265.77,158.167,-16.6315,178.462,1.604,-156.577,164
1565117085,265.77,158.167,-16.6315,178.462,1.604,-156.577,164
1565117085,265.77,158.167,-16.6315,178.462,1.604,-156.577,164
1565117085,265.77,158.167,-16.6315,178.462,1.604,-156.577,164
1565117085,265.77,158.167,-16.6315,178.462,1.604,-156.577,164
1565117085,265.77,158.167,-16.6315,178.462,1.604,-156.577,164
1565117085,265.77,158.167,-16.6315,178.462,1.604,-156.577,164
1565117085,265.77,158.167,-16.6315,178.462,1.604,-156.577,164
1565117085,265.77,158.167,-16.6315,178.462,1.604,-156.577,164
1565117085,265.77,158.167,-16.6315,178.462,1.604,-156.577,164
1565117085,265.77,158.167,-16.6315,178.462,1.604,-156.577,164
1565117085,265.77,158.167,-16.6315,178.462,1.604,-156.577,164
1565117085,265.77,158.167,-16.6315,178.462,1.604,-156.577,164
1565117085,265.77,158.167,-16.6315,178.462,1.604,-156.577,164
1565117085,265.77,158.167,-16.6315,178.462,1.604,-156.577,164
1565117085,265.77,158.167,-16.6315,178.462,1.604,-156.577,164
1565117085,265.77,158.279,-16.6315,178.462,1.604,-156.577,164
1565117085,265.77,158.279,-16.6315,178.462,1.604,-156.577,164
1565117085,265.77,158.279,-16.6315,178.462,1.604,-156.577,164
1565117085,265.77,158.279,-16.6315,178.462,1.604,-156.577,164
1565117085,265.77,158.279,-16.6315,178.462,1.604,-156.577,164
1565117085,265.77,158.279,-16.6315,178.462,1.604,-156.577,164
1565117085,265.77,158.279,-16.6315,178.484,1.604,-156.577,164
1565117085,265.77,158.279,-16.6315,178.484,1.604,-156.555,164
1565117085,265.77,158.279,-16.6315,178.462,1.604,-156.555,164
1565117085,265.77,158.167,-16.6315,178.462,1.58203,-156.555,164
1565117085,265.77,158.167,-16.7432,178.462,1.58203,-156.555,164
1565117085,265.77,158.167,-16.7432,178.462,1.58203,-156.555,164
1565117085,265.77,158.167,-16.7432,178.462,1.58203,-156.555,164
1565117085,265.77,158.167,-16.7432,178.462,1.58203,-156.555,168
1565117085,265.77,158.167,-16.7432,178.462,1.58203,-156.555,168
1565117085,265.77,158.167,-16.7432,178.462,1.58203,-156.555,168
1565117085,265.77,158.167,-16.7432,178.462,1.58203,-156.555,168
1565117085,265.77,158.167,-16.7432,178.462,1.58203,-156.555,164
1565117085,265.77,158.167,-16.6315,178.462,1.58203,-156.555,164
1565117085,265.77,158.279,-16.6315,178.462,1.58203,-156.577,164
1565117085,265.77,158.279,-16.6315,178.462,1.58203,-156.577,164
1565117085,265.77,158.279,-16.6315,178.462,1.604,-156.577,164
1565117085,265.77,158.279,-16.6315,178.462,1.604,-156.577,164
1565117085,265.77,158.279,-16.6315,178.484,1.604,-156.577,164
1565117085,265.77,158.279,-16.6315,178.484,1.604,-156.577,164
1565117085,265.77,158.279,-16.6315,178.462,1.604,-156.577,164
1565117085,265.77,158.279,-16.6315,178.462,1.604,-156.577,164
1565117085,265.77,158.279,-16.6315,178.462,1.604,-156.577,164
1565117085,265.77,158.279,-16.6315,178.462,1.604,-156.577,164
1565117085,265.77,158.279,-16.6315,178.462,1.604,-156.577,164
1565117085,265.77,158.279,-16.6315,178.462,1.604,-156.577,164
1565117085,265.77,158.167,-16.6315,178.462,1.604,-156.577,164
1565117085,265.77,158.167,-16.6315,178.462,1.604,-156.577,164
1565117085,265.77,158.167,-16.6315,178.462,1.604,-156.577,168
1565117085,265.77,158.167,-16.6315,178.462,1.604,-156.577,168
1565117085,265.77,158.167,-16.6315,178.462,1.604,-156.577,168
1565117085,265.77,158.167,-16.6315,178.462,1.604,-156.577,168
1565117085,265.77,158.167,-16.6315,178.462,1.604,-156.577,168
1565117085,265.77,158.167,-16.6315,178.462,1.604,-156.577,168
1565117085,265.77,158.167,-16.6315,178.462,1.604,-156.577,168
1565117085,265.77,158.167,-16.6315,178.462,1.604,-156.577,168
1565117085,265.77,158.167,-16.6315,178.462,1.604,-156.577,168
1565117085,265.77,158.167,-16.6315,178.462,1.604,-156.577,168
1565117085,265.77,158.167,-16.6315,178.462,1.604,-156.577,168
1565117085,265.77,158.167,-16.6315,178.462,1.604,-156.577,168
1565117085,265.77,158.167,-16.6315,178.462,1.604,-156.577,168
1565117085,265.77,158.279,-16.6315,178.462,1.604,-156.577,168
1565117085,265.77,158.279,-16.6315,178.462,1.604,-156.577,168
1565117085,265.77,158.279,-16.6315,178.462,1.604,-156.577,168
1565117085,265.77,158.279,-16.6315,178.462,1.604,-156.577,168
1565117085,265.77,158.279,-16.6315,178.462,1.604,-156.577,168
1565117085,265.77,158.279,-16.6315,178.462,1.604,-156.599,168
1565117086,265.77,158.279,-16.6315,178.462,1.604,-156.599,168
1565117086,265.77,158.279,-16.6315,178.462,1.604,-156.599,168
1565117086,265.77,158.279,-16.6315,178.462,1.604,-156.599,168
1565117086,265.77,158.279,-16.6315,178.462,1.604,-156.599,168
1565117086,265.77,158.279,-16.6315,178.462,1.604,-156.599,164
1565117086,265.77,158.279,-16.6315,178.462,1.604,-156.599,164
1565117086,265.77,158.279,-16.6315,178.462,1.604,-156.599,164
1565117086,265.77,158.279,-16.6315,178.462,1.604,-156.599,164
1565117086,265.77,158.279,-16.6315,178.462,1.604,-156.599,164
1565117086,265.77,158.279,-16.6315,178.462,1.62598,-156.599,164
1565117086,265.77,158.279,-16.6315,178.462,1.62598,-156.599,164
1565117086,265.77,158.279,-16.6315,178.462,1.62598,-156.577,164
1565117086,265.77,158.279,-16.6315,178.462,1.62598,-156.577,164
1565117086,265.77,158.279,-16.6315,178.462,1.62598,-156.577,164
1565117086,265.77,158.279,-16.6315,178.484,1.62598,-156.577,164
1565117086,265.77,158.279,-16.6315,178.484,1.62598,-156.577,164
1565117086,265.77,158.279,-16.6315,178.484,1.62598,-156.577,164
1565117086,265.77,158.279,-16.6315,178.484,1.62598,-156.577,164
1565117086,265.77,158.279,-16.6315,178.484,1.62598,-156.577,164
1565117086,265.77,158.279,-16.6315,178.484,1.62598,-156.577,164
1565117086,265.77,158.279,-16.6315,178.484,1.62598,-156.577,164
1565117086,265.77,158.279,-16.6315,178.484,1.62598,-156.577,164
1565117086,265.77,158.279,-16.6315,178.484,1.604,-156.577,164
1565117086,265.77,158.279,-16.6315,178.484,1.604,-156.577,164
1565117086,265.77,158.279,-16.6315,178.462,1.604,-156.577,164
1565117086,265.77,158.279,-16.6315,178.462,1.604,-156.577,164
1565117086,265.77,158.279,-16.6315,178.462,1.604,-156.577,164
1565117086,265.77,158.279,-16.6315,178.462,1.604,-156.577,164
1565117086,265.77,158.279,-16.6315,178.462,1.604,-156.577,164
1565117086,265.77,158.279,-16.6315,178.462,1.604,-156.577,164
1565117086,265.77,158.279,-16.6315,178.462,1.604,-156.577,164
1565117086,265.77,158.279,-16.6315,178.462,1.604,-156.577,164
1565117086,265.77,158.279,-16.6315,178.462,1.604,-156.577,164
1565117086,265.77,158.279,-16.6315,178.462,1.604,-156.577,164
1565117086,265.77,158.279,-16.6315,178.462,1.604,-156.577,164
1565117086,265.77,158.279,-16.6315,178.462,1.604,-156.577,164
1565117086,265.77,158.279,-16.6315,178.462,1.604,-156.577,164
1565117086,265.77,158.279,-16.6315,178.462,1.604,-156.577,164
1565117086,265.77,158.279,-16.6315,178.462,1.604,-156.577,164
1565117086,265.77,158.279,-16.6315,178.462,1.604,-156.577,164
1565117086,265.77,158.279,-16.6315,178.462,1.604,-156.577,164
1565117086,265.77,158.279,-16.6315,178.462,1.604,-156.577,164
1565117086,265.77,158.279,-16.6315,178.484,1.604,-156.577,164
1565117086,265.77,158.279,-16.6315,178.484,1.604,-156.577,164
1565117086,265.77,158.279,-16.6315,178.484,1.604,-156.577,168
1565117086,265.77,158.279,-16.6315,178.484,1.604,-156.577,168
1565117086,265.77,158.279,-16.6315,178.462,1.604,-156.577,168
1565117086,265.77,158.279,-16.6315,178.462,1.604,-156.577,168
1565117086,265.77,158.279,-16.6315,178.462,1.604,-156.577,168
1565117086,265.77,158.279,-16.6315,178.462,1.604,-156.577,168
1565117086,265.77,158.279,-16.6315,178.462,1.604,-156.577,168
1565117086,265.77,158.279,-16.6315,178.462,1.604,-156.577,168
1565117086,265.77,158.279,-16.6315,178.462,1.604,-156.577,168
1565117086,265.77,158.279,-16.6315,178.462,1.604,-156.577,172
1565117086,265.77,158.279,-16.6315,178.462,1.604,-156.577,172
1565117086,265.77,158.279,-16.6315,178.462,1.604,-156.577,172
1565117086,265.77,158.279,-16.6315,178.462,1.604,-156.577,172
1565117086,265.77,158.279,-16.6315,178.462,1.604,-156.577,168
1565117086,265.77,158.279,-16.6315,178.462,1.604,-156.577,168
1565117086,265.77,158.279,-16.6315,178.462,1.604,-156.577,168
1565117086,265.77,158.279,-16.6315,178.462,1.604,-156.577,168
1565117086,265.77,158.279,-16.6315,178.462,1.604,-156.577,168
1565117086,265.77,158.279,-16.6315,178.462,1.604,-156.577,168
1565117086,265.77,158.279,-16.6315,178.462,1.604,-156.577,168
1565117086,265.77,158.279,-16.6315,178.462,1.604,-156.577,168
1565117086,265.77,158.279,-16.6315,178.462,1.604,-156.577,168
1565117086,265.77,158.279,-16.6315,178.462,1.604,-156.577,168
1565117086,265.77,158.279,-16.6315,178.462,1.604,-156.577,168
1565117086,265.77,158.167,-16.6315,178.462,1.604,-156.577,168
1565117086,265.77,158.167,-16.6315,178.462,1.604,-156.577,168
1565117086,265.77,158.167,-16.6315,178.462,1.604,-156.577,168
1565117086,265.77,158.167,-16.6315,178.462,1.604,-156.577,168
1565117086,265.77,158.167,-16.6315,178.462,1.604,-156.577,168
1565117086,265.77,158.167,-16.6315,178.462,1.604,-156.577,168
1565117086,265.77,158.167,-16.6315,178.462,1.604,-156.577,168
1565117086,265.77,158.167,-16.6315,178.462,1.604,-156.577,168
1565117086,265.77,158.167,-16.6315,178.462,1.604,-156.577,168
1565117086,265.77,158.167,-16.6315,178.462,1.604,-156.577,168
1565117086,265.77,158.167,-16.6315,178.462,1.604,-156.577,168
1565117086,265.77,158.167,-16.6315,178.462,1.604,-156.577,168
1565117086,265.77,158.167,-16.6315,178.462,1.604,-156.577,168
1565117086,265.77,158.167,-16.6315,178.462,1.604,-156.577,168
1565117086,265.77,158.167,-16.6315,178.462,1.604,-156.577,168
1565117086,265.77,158.167,-16.6315,178.462,1.604,-156.577,168
1565117086,265.77,158.167,-16.6315,178.462,1.604,-156.577,168
1565117086,265.77,158.167,-16.6315,178.462,1.604,-156.577,168
1565117086,265.77,158.167,-16.6315,178.462,1.604,-156.577,168
1565117086,265.77,158.167,-16.6315,178.462,1.604,-156.577,168
1565117086,265.77,158.167,-16.6315,178.462,1.604,-156.577,168
1565117086,265.77,158.167,-16.6315,178.462,1.604,-156.577,168
1565117086,265.77,158.167,-16.6315,178.462,1.604,-156.577,164
1565117086,265.77,158.279,-16.6315,178.462,1.604,-156.577,164
1565117086,265.77,158.279,-16.6315,178.462,1.604,-156.577,164
1565117086,265.77,158.279,-16.6315,178.462,1.604,-156.577,164
1565117086,265.77,158.279,-16.6315,178.462,1.604,-156.577,164
1565117086,265.77,158.279,-16.6315,178.462,1.604,-156.577,164
1565117086,265.77,158.279,-16.6315,178.462,1.604,-156.577,164
1565117086,265.77,158.167,-16.6315,178.462,1.604,-156.577,164
1565117086,265.77,158.167,-16.6315,178.462,1.604,-156.577,164
1565117086,265.77,158.167,-16.6315,178.462,1.604,-156.577,164
1565117087,265.77,158.167,-16.6315,178.462,1.604,-156.577,164
1565117087,265.77,158.167,-16.6315,178.462,1.604,-156.577,164
1565117087,265.77,158.167,-16.6315,178.462,1.604,-156.577,164
1565117087,265.77,158.167,-16.6315,178.462,1.604,-156.577,164
1565117087,265.77,158.167,-16.6315,178.462,1.604,-156.577,164
1565117087,265.77,158.167,-16.6315,178.462,1.604,-156.577,164
1565117087,265.77,158.167,-16.6315,178.462,1.604,-156.577,164
1565117087,265.77,158.167,-16.6315,178.462,1.604,-156.577,164
1565117087,265.77,158.167,-16.6315,178.462,1.604,-156.577,164
1565117087,265.77,158.279,-16.6315,178.462,1.604,-156.577,168
1565117087,265.77,158.279,-16.6315,178.462,1.604,-156.577,168
1565117087,265.77,158.279,-16.6315,178.462,1.604,-156.577,168
1565117087,265.77,158.279,-16.6315,178.462,1.604,-156.577,168
1565117087,265.77,158.279,-16.6315,178.462,1.604,-156.577,168
1565117087,265.77,158.279,-16.6315,178.462,1.604,-156.577,168
1565117087,265.77,158.279,-16.6315,178.484,1.604,-156.577,168
1565117095,281.062,141.87,-16.6315,178.572,1.47217,-156.401,184
1565117096,281.062,141.87,-16.6315,178.572,1.47217,-156.401,184
1565117096,281.062,141.87,-16.6315,178.572,1.47217,-156.401,184
1565117096,281.062,141.87,-16.6315,178.572,1.47217,-156.401,184
1565117096,281.062,141.87,-16.6315,178.572,1.47217,-156.401,184
1565117096,281.062,141.87,-16.6315,178.572,1.47217,-156.401,184
1565117096,281.062,141.87,-16.6315,178.572,1.47217,-156.401,184
1565117096,281.062,141.87,-16.6315,178.572,1.47217,-156.401,184
1565117096,281.062,141.87,-16.6315,178.572,1.47217,-156.401,184
1565117096,281.174,141.87,-16.6315,178.572,1.47217,-156.401,184
1565117096,281.174,141.87,-16.6315,178.572,1.47217,-156.401,184
1565117096,281.174,141.87,-16.6315,178.572,1.47217,-156.401,184
1565117096,281.174,141.87,-16.6315,178.572,1.47217,-156.401,184
1565117096,281.174,141.87,-16.6315,178.572,1.47217,-156.401,184
1565117096,281.174,141.87,-16.6315,178.572,1.47217,-156.401,184
1565117096,281.174,141.87,-16.6315,178.572,1.47217,-156.401,184
1565117096,281.174,141.87,-16.6315,178.572,1.47217,-156.401,184
1565117096,281.174,141.87,-16.6315,178.572,1.47217,-156.401,184
1565117096,281.174,141.87,-16.6315,178.572,1.47217,-156.401,180
1565117096,281.174,141.87,-16.6315,178.572,1.47217,-156.401,180
1565117096,281.174,141.87,-16.6315,178.572,1.47217,-156.401,180
1565117096,281.174,141.87,-16.6315,178.572,1.47217,-156.401,180
1565117096,281.174,141.87,-16.6315,178.572,1.47217,-156.401,180
1565117096,281.174,141.87,-16.6315,178.572,1.47217,-156.401,180
1565117096,281.174,141.87,-16.6315,178.572,1.47217,-156.401,180
1565117096,281.174,141.87,-16.6315,178.572,1.47217,-156.401,180
1565117096,281.174,141.87,-16.6315,178.572,1.47217,-156.401,180
1565117096,281.174,141.87,-16.6315,178.572,1.47217,-156.401,180
1565117096,281.174,141.87,-16.6315,178.572,1.47217,-156.401,176
1565117096,281.174,141.87,-16.6315,178.572,1.47217,-156.401,176
1565117096,281.174,141.87,-16.6315,178.572,1.47217,-156.401,176
1565117096,281.174,141.87,-16.6315,178.572,1.47217,-156.401,176
1565117096,281.174,141.87,-16.6315,178.572,1.47217,-156.401,176
1565117096,281.174,141.87,-16.6315,178.572,1.47217,-156.401,180
1565117096,281.174,141.87,-16.6315,178.572,1.47217,-156.401,180
1565117096,281.174,141.87,-16.6315,178.572,1.47217,-156.401,180
1565117096,281.174,141.87,-16.6315,178.572,1.47217,-156.401,180
1565117096,281.174,141.87,-16.6315,178.55,1.47217,-156.401,180
1565117096,281.174,141.87,-16.6315,178.55,1.47217,-156.401,180
1565117096,281.174,141.87,-16.6315,178.55,1.47217,-156.401,180
1565117096,281.174,141.87,-16.6315,178.55,1.47217,-156.401,180
1565117096,281.174,141.87,-16.6315,178.55,1.47217,-156.401,180
1565117096,281.174,141.87,-16.6315,178.572,1.47217,-156.401,180
1565117096,281.174,141.87,-16.6315,178.572,1.47217,-156.401,180
1565117096,281.174,141.87,-16.6315,178.572,1.47217,-156.401,180
1565117096,281.174,141.87,-16.6315,178.572,1.47217,-156.401,180
1565117096,281.174,141.87,-16.6315,178.572,1.47217,-156.401,180
1565117096,281.174,141.87,-16.6315,178.572,1.47217,-156.401,180
1565117096,281.174,141.87,-16.6315,178.572,1.47217,-156.401,180
1565117096,281.174,141.87,-16.6315,178.572,1.47217,-156.401,180
1565117096,281.174,141.87,-16.6315,178.572,1.47217,-156.401,180
1565117096,281.174,141.87,-16.6315,178.572,1.47217,-156.401,180
1565117096,281.174,141.87,-16.6315,178.572,1.47217,-156.401,180
1565117096,281.062,141.87,-16.6315,178.572,1.47217,-156.401,180
1565117096,281.062,141.87,-16.6315,178.572,1.47217,-156.401,180
1565117096,281.062,141.87,-16.6315,178.572,1.47217,-156.401,180
1565117096,281.062,141.87,-16.6315,178.572,1.47217,-156.401,180
1565117096,281.062,141.87,-16.6315,178.572,1.47217,-156.401,180
1565117096,281.062,141.87,-16.6315,178.572,1.49414,-156.401,180
1565117096,281.062,141.87,-16.6315,178.572,1.49414,-156.401,180
1565117096,281.062,141.87,-16.6315,178.572,1.49414,-156.401,180
1565117096,281.062,141.87,-16.6315,178.572,1.49414,-156.401,180
1565117096,281.062,141.87,-16.6315,178.572,1.49414,-156.401,180
1565117096,281.062,141.87,-16.6315,178.572,1.49414,-156.401,180
1565117096,281.062,141.759,-16.6315,178.55,1.49414,-156.401,180
1565117096,281.062,141.759,-16.6315,178.55,1.49414,-156.401,184
1565117096,281.062,141.759,-16.6315,178.55,1.49414,-156.401,184
1565117096,281.062,141.759,-16.6315,178.55,1.49414,-156.401,184
1565117096,281.062,141.759,-16.6315,178.55,1.49414,-156.401,184
1565117096,281.062,141.759,-16.6315,178.55,1.49414,-156.401,184
1565117096,281.062,141.759,-16.6315,178.55,1.49414,-156.401,184
1565117096,281.062,141.759,-16.6315,178.55,1.49414,-156.401,184
1565117096,281.062,141.759,-16.6315,178.55,1.47217,-156.401,184
1565117096,281.062,141.759,-16.6315,178.55,1.47217,-156.401,188
1565117096,281.062,141.759,-16.6315,178.55,1.47217,-156.401,188
1565117096,281.062,141.759,-16.6315,178.55,1.47217,-156.401,188
1565117096,281.062,141.759,-16.6315,178.55,1.47217,-156.401,188
1565117096,281.062,141.759,-16.6315,178.55,1.47217,-156.401,188
1565117096,281.062,141.759,-16.6315,178.55,1.47217,-156.401,188
1565117096,281.062,141.759,-16.6315,178.55,1.47217,-156.401,192
1565117096,281.062,141.759,-16.6315,178.55,1.47217,-156.401,192
1565117096,281.062,141.759,-16.6315,178.55,1.47217,-156.401,192
1565117096,281.062,141.759,-16.6315,178.55,1.47217,-156.401,192
1565117096,281.062,141.759,-16.6315,178.55,1.47217,-156.401,192
1565117096,281.062,141.759,-16.6315,178.55,1.47217,-156.401,192
1565117096,281.062,141.759,-16.6315,178.55,1.47217,-156.401,192
1565117096,281.062,141.759,-16.6315,178.55,1.4502,-156.401,192
1565117096,281.062,141.759,-16.6315,178.55,1.4502,-156.401,188
1565117096,281.062,141.759,-16.6315,178.572,1.4502,-156.401,188
1565117096,281.062,141.759,-16.6315,178.572,1.4502,-156.401,188
1565117096,281.062,141.87,-16.6315,178.572,1.4502,-156.401,188
1565117096,281.062,141.87,-16.6315,178.572,1.4502,-156.401,188
1565117096,281.062,141.87,-16.6315,178.572,1.4502,-156.401,188
1565117096,281.062,141.87,-16.6315,178.572,1.4502,-156.401,192
1565117096,281.062,141.87,-16.6315,178.572,1.4502,-156.401,192
1565117096,281.062,141.87,-16.6315,178.572,1.4502,-156.401,192
1565117096,281.062,141.87,-16.6315,178.572,1.4502,-156.401,192
1565117096,281.062,141.87,-16.6315,178.572,1.4502,-156.401,192
1565117096,281.062,141.87,-16.6315,178.572,1.4502,-156.401,192
1565117096,281.062,141.87,-16.6315,178.572,1.4502,-156.401,192
1565117096,281.062,141.759,-16.6315,178.572,1.4502,-156.401,192
1565117097,281.062,141.759,-16.6315,178.572,1.4502,-156.401,196
1565117097,281.062,141.759,-16.6315,178.572,1.4502,-156.401,196
1565117097,281.062,141.759,-16.6315,178.572,1.4502,-156.401,196
1565117097,281.062,141.759,-16.6315,178.572,1.4502,-156.401,196
1565117097,281.062,141.759,-16.6315,178.572,1.4502,-156.401,196
1565117097,281.062,141.759,-16.6315,178.572,1.4502,-156.401,196
1565117097,281.062,141.759,-16.6315,178.572,1.4502,-156.401,196
1565117097,281.062,141.759,-16.6315,178.55,1.4502,-156.401,196
1565117097,281.062,141.759,-16.6315,178.55,1.4502,-156.401,196
1565117097,281.062,141.759,-16.6315,178.55,1.4502,-156.401,196
1565117097,281.062,141.759,-16.6315,178.55,1.4502,-156.401,196
1565117097,281.062,141.759,-16.6315,178.55,1.4502,-156.401,196
1565117097,281.062,141.759,-16.6315,178.55,1.4502,-156.401,196
1565117097,281.062,141.759,-16.6315,178.55,1.4502,-156.401,196
1565117097,281.062,141.759,-16.6315,178.55,1.4502,-156.401,196
1565117097,281.062,141.759,-16.6315,178.55,1.4502,-156.401,196
1565117097,281.062,141.759,-16.6315,178.55,1.4502,-156.401,196
1565117097,281.062,141.759,-16.6315,178.55,1.4502,-156.401,196
1565117097,281.062,141.759,-16.6315,178.55,1.4502,-156.401,196
1565117097,281.062,141.759,-16.6315,178.572,1.4502,-156.401,196
1565117097,281.062,141.759,-16.6315,178.572,1.4502,-156.401,196
1565117097,281.062,141.759,-16.6315,178.572,1.47217,-156.401,196
1565117097,281.062,141.759,-16.6315,178.572,1.47217,-156.401,196
1565117097,281.062,141.759,-16.6315,178.572,1.47217,-156.401,196
1565117097,281.062,141.759,-16.6315,178.572,1.4502,-156.401,196
1565117097,281.062,141.759,-16.6315,178.572,1.4502,-156.379,192
1565117097,281.062,141.759,-16.6315,178.572,1.4502,-156.379,192
1565117097,281.062,141.759,-16.6315,178.572,1.4502,-156.379,192
1565117097,281.062,141.759,-16.6315,178.572,1.4502,-156.379,192
1565117097,281.062,141.759,-16.6315,178.572,1.4502,-156.401,192
1565117097,281.062,141.759,-16.7432,178.572,1.4502,-156.401,192
1565117097,281.062,141.759,-16.7432,178.572,1.4502,-156.401,192
1565117097,281.062,141.759,-16.7432,178.572,1.4502,-156.401,192
1565117097,281.062,141.759,-16.7432,178.572,1.4502,-156.401,192
1565117097,281.062,141.759,-16.7432,178.572,1.4502,-156.401,188
1565117097,281.062,141.87,-16.7432,178.572,1.4502,-156.401,188
1565117097,281.062,141.87,-16.7432,178.572,1.4502,-156.379,188
1565117097,281.062,141.87,-16.7432,178.572,1.4502,-156.379,188
1565117097,281.062,141.87,-16.7432,178.572,1.4502,-156.379,188
1565117097,281.062,141.87,-16.7432,178.572,1.4502,-156.379,188
1565117097,281.062,141.87,-16.7432,178.572,1.4502,-156.379,188
1565117097,281.062,141.87,-16.7432,178.572,1.4502,-156.379,188
1565117097,281.062,141.87,-16.7432,178.572,1.4502,-156.379,184
1565117097,281.062,141.87,-16.7432,178.572,1.42822,-156.379,184
1565117097,281.062,141.87,-16.7432,178.572,1.42822,-156.379,184
1565117097,281.062,141.87,-16.7432,178.572,1.42822,-156.379,184
1565117097,281.062,141.87,-16.7432,178.572,1.42822,-156.379,184
1565117097,281.062,141.759,-16.7432,178.572,1.42822,-156.379,184
1565117097,281.062,141.759,-16.7432,178.572,1.42822,-156.379,184
1565117097,281.062,141.759,-16.7432,178.572,1.42822,-156.401,184
1565117097,281.062,141.759,-16.7432,178.572,1.42822,-156.401,184
1565117097,281.062,141.759,-16.7432,178.572,1.42822,-156.401,184
1565117097,281.062,141.759,-16.7432,178.572,1.42822,-156.401,184
1565117097,281.062,141.759,-16.7432,178.572,1.42822,-156.401,184
1565117097,281.062,141.87,-16.7432,178.572,1.42822,-156.401,184
1565117097,281.062,141.87,-16.7432,178.572,1.42822,-156.401,184
1565117097,281.062,141.87,-16.7432,178.572,1.4502,-156.401,184
1565117097,281.062,141.87,-16.7432,178.572,1.4502,-156.401,184
1565117097,281.062,141.87,-16.7432,178.572,1.4502,-156.401,184
1565117097,281.062,141.87,-16.7432,178.572,1.4502,-156.401,184
1565117097,281.062,141.87,-16.7432,178.572,1.4502,-156.401,184
1565117097,281.062,141.87,-16.7432,178.572,1.4502,-156.401,184
1565117097,281.062,141.87,-16.6315,178.572,1.4502,-156.401,184
1565117097,281.062,141.87,-16.6315,178.572,1.4502,-156.401,184
1565117097,281.062,141.759,-16.6315,178.572,1.47217,-156.401,184
1565117097,281.062,141.759,-16.6315,178.572,1.47217,-156.401,184
1565117097,281.062,141.759,-16.6315,178.55,1.47217,-156.401,184
1565117097,281.062,141.759,-16.6315,178.55,1.47217,-156.401,184
1565117097,281.062,141.759,-16.6315,178.55,1.47217,-156.401,184
1565117097,281.062,141.759,-16.6315,178.55,1.47217,-156.401,184
1565117097,281.062,141.759,-16.6315,178.55,1.47217,-156.401,184
1565117097,281.062,141.759,-16.6315,178.55,1.47217,-156.401,184
1565117097,281.062,141.759,-16.6315,178.55,1.47217,-156.401,184
1565117097,281.062,141.759,-16.6315,178.55,1.47217,-156.401,184
1565117097,281.062,141.759,-16.6315,178.55,1.47217,-156.401,184
1565117097,281.062,141.759,-16.6315,178.55,1.47217,-156.401,184
1565117097,281.062,141.759,-16.6315,178.55,1.47217,-156.401,184
1565117097,281.062,141.759,-16.6315,178.55,1.47217,-156.401,184
1565117097,281.062,141.759,-16.6315,178.55,1.47217,-156.401,184
1565117097,281.062,141.759,-16.6315,178.55,1.47217,-156.401,184
1565117097,281.062,141.759,-16.6315,178.55,1.47217,-156.401,184
1565117097,281.062,141.759,-16.6315,178.55,1.47217,-156.401,184
1565117097,281.062,141.759,-16.6315,178.55,1.47217,-156.401,184
1565117097,281.062,141.759,-16.6315,178.55,1.47217,-156.401,184
1565117097,281.062,141.759,-16.6315,178.55,1.47217,-156.401,184
1565117097,281.062,141.759,-16.6315,178.55,1.47217,-156.401,184
1565117097,281.062,141.759,-16.6315,178.55,1.47217,-156.401,184
1565117097,281.062,141.759,-16.6315,178.55,1.47217,-156.401,184
1565117097,281.062,141.759,-16.6315,178.55,1.47217,-156.401,184
1565117097,281.062,141.759,-16.6315,178.55,1.47217,-156.401,184
1565117097,281.174,141.759,-16.6315,178.55,1.47217,-156.401,184
1565117097,281.174,141.759,-16.6315,178.55,1.47217,-156.401,184
1565117097,281.174,141.759,-16.6315,178.55,1.47217,-156.401,184
1565117097,281.174,141.759,-16.6315,178.55,1.47217,-156.401,184
1565117097,281.174,141.759,-16.6315,178.55,1.4502,-156.401,180
1565117097,281.174,141.759,-16.6315,178.55,1.4502,-156.401,180
1565117097,281.174,141.759,-16.6315,178.55,1.4502,-156.401,180
1565117097,281.174,141.759,-16.6315,178.55,1.4502,-156.401,180
1565117097,281.174,141.759,-16.6315,178.55,1.4502,-156.401,180
1565117097,281.174,141.759,-16.6315,178.528,1.4502,-156.401,184
1565117098,281.174,141.759,-16.6315,178.528,1.4502,-156.401,184
1565117098,281.174,141.759,-16.6315,178.528,1.47217,-156.401,184
1565117098,281.174,141.759,-16.6315,178.528,1.47217,-156.401,184
1565117098,281.174,141.759,-16.6315,178.528,1.47217,-156.401,184
1565117098,281.174,141.759,-16.6315,178.528,1.47217,-156.401,184
1565117098,281.174,141.759,-16.6315,178.528,1.47217,-156.401,184
1565117098,281.174,141.759,-16.6315,178.528,1.47217,-156.401,184
1565117098,281.174,141.759,-16.6315,178.528,1.47217,-156.401,184
1565117098,281.174,141.759,-16.6315,178.528,1.47217,-156.401,184
1565117098,281.174,141.759,-16.6315,178.528,1.47217,-156.401,184
1565117098,281.174,141.759,-16.6315,178.528,1.47217,-156.401,184
1565117098,281.174,141.759,-16.6315,178.55,1.47217,-156.401,184
1565117098,281.174,141.759,-16.6315,178.55,1.47217,-156.401,184
1565117098,281.174,141.759,-16.6315,178.55,1.47217,-156.401,188
1565117098,281.174,141.759,-16.6315,178.55,1.4502,-156.401,188
1565117098,281.174,141.759,-16.6315,178.55,1.4502,-156.401,188
1565117098,281.174,141.759,-16.7432,178.55,1.4502,-156.401,188
1565117098,281.174,141.759,-16.7432,178.55,1.4502,-156.401,188
1565117098,281.174,141.759,-16.7432,178.55,1.4502,-156.401,188
1565117098,281.174,141.759,-16.7432,178.55,1.4502,-156.401,188
1565117098,281.174,141.759,-16.7432,178.55,1.4502,-156.401,188
1565117098,281.174,141.759,-16.7432,178.55,1.4502,-156.401,188
1565117098,281.174,141.759,-16.7432,178.55,1.4502,-156.401,184
1565117098,281.174,141.759,-16.7432,178.55,1.4502,-156.401,184
1565117098,281.174,141.87,-16.7432,178.55,1.4502,-156.401,184
1565117098,281.174,141.87,-16.7432,178.572,1.4502,-156.401,184
1565117098,281.174,141.87,-16.7432,178.572,1.4502,-156.401,184
1565117098,281.174,141.87,-16.7432,178.572,1.4502,-156.401,184
1565117098,281.174,141.87,-16.7432,178.572,1.4502,-156.401,184
1565117098,281.062,141.87,-16.7432,178.572,1.4502,-156.379,184
1565117098,281.062,141.87,-16.7432,178.572,1.4502,-156.379,184
1565117098,281.062,141.87,-16.7432,178.572,1.4502,-156.379,184
1565117098,281.062,141.87,-16.7432,178.572,1.4502,-156.379,180
1565117098,281.062,141.87,-16.7432,178.572,1.4502,-156.379,184
1565117098,281.062,141.87,-16.7432,178.572,1.4502,-156.379,184
1565117098,281.062,141.87,-16.7432,178.572,1.4502,-156.379,184
1565117098,281.062,141.87,-16.7432,178.572,1.4502,-156.379,184
1565117098,281.062,141.87,-16.7432,178.572,1.4502,-156.379,184
1565117098,281.062,141.87,-16.7432,178.572,1.4502,-156.379,184
1565117098,281.062,141.87,-16.7432,178.572,1.4502,-156.379,184
1565117098,281.062,141.87,-16.7432,178.572,1.4502,-156.379,184
1565117098,281.062,141.87,-16.7432,178.572,1.4502,-156.379,184
1565117098,281.062,141.87,-16.7432,178.572,1.4502,-156.379,184
1565117098,281.062,141.87,-16.7432,178.572,1.4502,-156.379,184
1565117098,281.062,141.87,-16.7432,178.572,1.4502,-156.379,184
1565117098,281.062,141.87,-16.7432,178.572,1.4502,-156.379,184
1565117098,281.062,141.87,-16.7432,178.572,1.4502,-156.379,180
1565117098,281.062,141.87,-16.7432,178.572,1.4502,-156.379,180
1565117098,281.062,141.87,-16.7432,178.572,1.4502,-156.379,180
1565117098,281.062,141.87,-16.7432,178.572,1.4502,-156.379,180
1565117098,281.062,141.87,-16.7432,178.572,1.4502,-156.379,180
1565117098,281.174,141.87,-16.7432,178.572,1.4502,-156.401,180
1565117098,281.174,141.87,-16.7432,178.572,1.4502,-156.401,180
1565117098,281.174,141.87,-16.7432,178.572,1.4502,-156.401,180
1565117098,281.174,141.87,-16.7432,178.572,1.4502,-156.401,180
1565117098,281.174,141.87,-16.7432,178.572,1.4502,-156.401,180
1565117098,281.174,141.87,-16.7432,178.572,1.4502,-156.401,180
1565117098,281.174,141.87,-16.7432,178.572,1.4502,-156.401,180
1565117098,281.174,141.87,-16.7432,178.572,1.4502,-156.401,180
1565117098,281.174,141.87,-16.7432,178.572,1.4502,-156.401,180
1565117098,281.174,141.87,-16.7432,178.572,1.4502,-156.401,180
1565117098,281.174,141.87,-16.7432,178.572,1.4502,-156.401,180
1565117098,281.174,141.87,-16.7432,178.572,1.4502,-156.401,180
1565117098,281.174,141.87,-16.7432,178.572,1.4502,-156.401,180
1565117098,281.174,141.87,-16.7432,178.572,1.4502,-156.401,180
1565117098,281.174,141.87,-16.6315,178.572,1.4502,-156.401,180
1565117098,281.174,141.87,-16.6315,178.572,1.47217,-156.401,184
1565117098,281.174,141.87,-16.6315,178.572,1.47217,-156.401,184
1565117098,281.174,141.87,-16.6315,178.572,1.47217,-156.401,184
1565117098,281.174,141.87,-16.6315,178.572,1.47217,-156.401,184
1565117098,281.174,141.87,-16.6315,178.572,1.47217,-156.401,184
1565117098,281.174,141.87,-16.6315,178.572,1.47217,-156.401,184
1565117098,281.174,141.87,-16.6315,178.572,1.47217,-156.401,184
1565117098,281.174,141.87,-16.6315,178.572,1.4502,-156.401,184
1565117098,281.174,141.87,-16.6315,178.572,1.4502,-156.401,184
1565117098,281.174,141.87,-16.6315,178.572,1.4502,-156.401,184
1565117098,281.174,141.87,-16.7432,178.572,1.4502,-156.401,184
1565117098,281.174,141.87,-16.7432,178.572,1.4502,-156.401,184
1565117098,281.174,141.87,-16.7432,178.572,1.4502,-156.401,184
1565117098,281.174,141.87,-16.7432,178.572,1.4502,-156.401,184
1565117098,281.174,141.87,-16.7432,178.572,1.4502,-156.401,184
1565117098,281.174,141.87,-16.7432,178.572,1.4502,-156.401,184
1565117098,281.174,141.87,-16.7432,178.572,1.4502,-156.401,184
1565117098,281.174,141.87,-16.6315,178.572,1.47217,-156.401,184
1565117098,281.174,141.87,-16.6315,178.572,1.47217,-156.401,184
1565117098,281.174,141.87,-16.6315,178.572,1.47217,-156.401,184
1565117098,281.174,141.87,-16.6315,178.572,1.47217,-156.401,180
1565117098,281.174,141.87,-16.6315,178.572,1.47217,-156.401,180
1565117098,281.174,141.87,-16.6315,178.572,1.47217,-156.401,180
1565117098,281.174,141.87,-16.6315,178.572,1.47217,-156.401,180
1565117098,281.174,141.87,-16.6315,178.572,1.47217,-156.401,180
1565117098,281.174,141.87,-16.6315,178.572,1.47217,-156.401,180
1565117098,281.174,141.87,-16.6315,178.572,1.47217,-156.401,180
1565117098,281.062,141.87,-16.6315,178.572,1.47217,-156.401,180
1565117098,281.062,141.87,-16.6315,178.572,1.47217,-156.401,180
1565117098,281.062,141.87,-16.6315,178.572,1.47217,-156.401,180
1565117098,281.062,141.87,-16.6315,178.572,1.47217,-156.401,180
1565117098,281.062,141.87,-16.6315,178.572,1.47217,-156.401,180
1565117098,281.062,141.87,-16.6315,178.572,1.47217,-156.401,180
1565117098,281.062,141.87,-16.6315,178.572,1.47217,-156.401,180
1565117099,281.062,141.87,-16.6315,178.572,1.47217,-156.401,180
1565117099,281.062,141.87,-16.6315,178.572,1.47217,-156.401,180
1565117099,281.062,141.759,-16.6315,178.55,1.47217,-156.401,184
1565117099,281.062,141.759,-16.6315,178.55,1.47217,-156.401,184
1565117099,281.062,141.759,-16.6315,178.55,1.47217,-156.401,184
1565117099,281.062,141.759,-16.6315,178.55,1.49414,-156.401,184
1565117099,281.062,141.759,-16.6315,178.55,1.49414,-156.401,184
1565117099,281.062,141.759,-16.6315,178.55,1.49414,-156.401,184
1565117099,281.062,141.759,-16.6315,178.55,1.49414,-156.401,184
1565117099,281.062,141.759,-16.6315,178.55,1.49414,-156.401,184
1565117099,281.062,141.759,-16.6315,178.55,1.49414,-156.401,184
1565117099,281.062,141.759,-16.6315,178.55,1.49414,-156.401,184
1565117099,281.062,141.759,-16.6315,178.55,1.49414,-156.401,184
1565117099,281.062,141.759,-16.6315,178.55,1.49414,-156.401,184
1565117099,281.062,141.759,-16.6315,178.55,1.49414,-156.401,184
1565117099,281.062,141.759,-16.6315,178.55,1.49414,-156.401,184
1565117099,281.062,141.759,-16.6315,178.572,1.49414,-156.401,184
1565117099,281.062,141.759,-16.6315,178.572,1.49414,-156.401,184
1565117099,281.062,141.759,-16.6315,178.572,1.49414,-156.401,184
1565117099,281.062,141.759,-16.6315,178.572,1.49414,-156.401,184
1565117099,281.062,141.759,-16.6315,178.572,1.49414,-156.401,184
1565117099,281.062,141.759,-16.6315,178.572,1.49414,-156.401,184
1565117099,281.062,141.759,-16.6315,178.572,1.49414,-156.401,184
1565117099,281.062,141.759,-16.6315,178.572,1.49414,-156.401,184
1565117099,281.062,141.759,-16.6315,178.572,1.49414,-156.401,184
1565117099,281.062,141.759,-16.6315,178.572,1.49414,-156.401,184
1565117099,281.062,141.759,-16.6315,178.572,1.49414,-156.401,184
1565117099,281.062,141.759,-16.6315,178.572,1.47217,-156.401,184
1565117099,281.062,141.759,-16.6315,178.572,1.47217,-156.401,184
1565117099,281.062,141.759,-16.6315,178.572,1.47217,-156.401,184
1565117099,281.062,141.759,-16.6315,178.572,1.47217,-156.401,184
1565117099,281.062,141.759,-16.6315,178.572,1.47217,-156.401,184
1565117099,281.062,141.87,-16.6315,178.572,1.47217,-156.401,184
1565117099,281.062,141.87,-16.6315,178.572,1.47217,-156.401,184
1565117099,281.062,141.87,-16.6315,178.572,1.47217,-156.401,184
1565117099,281.062,141.87,-16.6315,178.572,1.47217,-156.401,184
1565117099,281.062,141.87,-16.6315,178.572,1.47217,-156.401,184
1565117099,281.062,141.87,-16.6315,178.572,1.47217,-156.401,184
1565117099,281.062,141.87,-16.6315,178.572,1.47217,-156.401,184
1565117099,281.062,141.87,-16.6315,178.572,1.47217,-156.401,184
1565117099,281.062,141.87,-16.6315,178.572,1.47217,-156.401,184
1565117099,281.062,141.87,-16.7432,178.572,1.4502,-156.401,184
1565117099,281.062,141.87,-16.7432,178.572,1.4502,-156.401,184
1565117099,281.062,141.87,-16.7432,178.572,1.4502,-156.401,184
1565117099,281.174,141.87,-16.7432,178.572,1.4502,-156.401,180
1565117099,281.174,141.759,-16.7432,178.572,1.4502,-156.401,180
1565117099,281.174,141.759,-16.7432,178.55,1.4502,-156.401,180
1565117099,281.174,141.759,-16.7432,178.55,1.4502,-156.401,180
1565117099,281.174,141.759,-16.7432,178.55,1.4502,-156.401,180
1565117099,281.174,141.759,-16.7432,178.55,1.4502,-156.401,180
1565117099,281.174,141.759,-16.7432,178.55,1.4502,-156.401,180
1565117099,281.174,141.759,-16.7432,178.55,1.4502,-156.401,180
1565117099,281.174,141.759,-16.7432,178.55,1.4502,-156.401,176
1565117099,281.174,141.759,-16.7432,178.55,1.4502,-156.401,176
1565117099,281.174,141.759,-16.7432,178.55,1.4502,-156.401,176
1565117099,281.174,141.759,-16.7432,178.55,1.4502,-156.401,176
1565117099,281.174,141.759,-16.7432,178.55,1.4502,-156.401,176
1565117099,281.174,141.759,-16.7432,178.55,1.4502,-156.401,176
1565117099,281.174,141.759,-16.7432,178.55,1.4502,-156.401,176
1565117099,281.174,141.759,-16.7432,178.55,1.4502,-156.401,176
1565117099,281.174,141.759,-16.7432,178.55,1.4502,-156.401,176
1565117099,281.174,141.759,-16.7432,178.55,1.4502,-156.401,176
1565117099,281.062,141.759,-16.7432,178.55,1.4502,-156.401,176
1565117099,281.062,141.759,-16.7432,178.55,1.4502,-156.401,180
1565117099,281.062,141.759,-16.7432,178.55,1.4502,-156.401,180
1565117099,281.062,141.87,-16.7432,178.572,1.4502,-156.401,180
1565117099,281.062,141.87,-16.7432,178.572,1.4502,-156.401,180
1565117099,281.062,141.87,-16.7432,178.572,1.4502,-156.401,180
1565117099,281.062,141.759,-16.6315,178.572,1.4502,-156.401,180
1565117099,281.062,141.759,-16.6315,178.572,1.4502,-156.401,180
1565117099,281.062,141.759,-16.6315,178.572,1.4502,-156.401,180
1565117099,281.062,141.759,-16.6315,178.572,1.47217,-156.401,180
1565117099,281.062,141.759,-16.6315,178.572,1.47217,-156.401,180
1565117099,281.062,141.759,-16.6315,178.572,1.47217,-156.401,180
1565117099,281.062,141.759,-16.6315,178.572,1.47217,-156.401,180
1565117099,281.062,141.759,-16.6315,178.572,1.47217,-156.401,184
1565117099,281.062,141.759,-16.6315,178.572,1.47217,-156.401,184
1565117099,281.062,141.759,-16.6315,178.572,1.47217,-156.401,184
1565117099,281.062,141.759,-16.6315,178.572,1.47217,-156.401,184
1565117099,281.062,141.87,-16.6315,178.572,1.47217,-156.401,184
1565117099,281.062,141.87,-16.6315,178.572,1.47217,-156.401,184
1565117099,281.062,141.87,-16.6315,178.572,1.47217,-156.401,184
1565117099,281.062,141.87,-16.6315,178.572,1.47217,-156.401,184
1565117099,281.062,141.87,-16.6315,178.572,1.47217,-156.401,184
1565117099,281.062,141.87,-16.6315,178.572,1.47217,-156.401,184
1565117099,281.062,141.87,-16.6315,178.572,1.47217,-156.401,184
1565117099,281.062,141.87,-16.6315,178.572,1.4502,-156.401,184
1565117099,281.062,141.87,-16.6315,178.572,1.47217,-156.401,184
1565117099,281.062,141.87,-16.6315,178.572,1.47217,-156.401,184
1565117099,281.062,141.87,-16.6315,178.572,1.47217,-156.401,184
1565117099,281.062,141.759,-16.6315,178.572,1.47217,-156.401,184
1565117099,281.062,141.759,-16.6315,178.572,1.47217,-156.401,184
1565117099,281.062,141.759,-16.6315,178.572,1.47217,-156.401,184
1565117099,281.062,141.759,-16.6315,178.55,1.47217,-156.401,184
1565117099,281.062,141.759,-16.6315,178.55,1.47217,-156.401,184
1565117099,281.062,141.759,-16.6315,178.55,1.47217,-156.401,184
1565117099,281.062,141.759,-16.6315,178.55,1.47217,-156.401,184
1565117099,281.062,141.759,-16.6315,178.55,1.47217,-156.401,184
1565117099,281.062,141.759,-16.6315,178.55,1.47217,-156.401,184
1565117099,281.062,141.759,-16.6315,178.55,1.47217,-156.401,188
1565117100,281.062,141.759,-16.6315,178.55,1.47217,-156.401,188
1565117100,281.174,141.759,-16.6315,178.55,1.47217,-156.401,188
1565117100,281.174,141.759,-16.6315,178.55,1.47217,-156.401,188
1565117100,281.174,141.759,-16.6315,178.55,1.47217,-156.401,188
1565117100,281.174,141.759,-16.6315,178.55,1.47217,-156.401,188
1565117100,281.174,141.759,-16.6315,178.55,1.47217,-156.401,188
1565117100,281.174,141.759,-16.6315,178.528,1.47217,-156.401,188
1565117100,281.174,141.759,-16.6315,178.528,1.47217,-156.401,188
1565117100,281.174,141.759,-16.6315,178.528,1.47217,-156.401,188
1565117100,281.174,141.759,-16.6315,178.528,1.47217,-156.401,184
1565117100,281.174,141.759,-16.6315,178.528,1.47217,-156.401,184
1565117100,281.174,141.759,-16.6315,178.528,1.47217,-156.401,184
1565117100,281.174,141.759,-16.6315,178.528,1.47217,-156.401,184
1565117100,281.174,141.759,-16.6315,178.55,1.47217,-156.401,184
1565117100,281.174,141.759,-16.6315,178.55,1.47217,-156.401,184
1565117100,281.174,141.759,-16.6315,178.55,1.4502,-156.401,184
1565117100,281.174,141.759,-16.6315,178.55,1.4502,-156.401,184
1565117100,281.174,141.759,-16.7432,178.55,1.4502,-156.401,184
1565117100,281.174,141.759,-16.7432,178.55,1.4502,-156.401,184
1565117100,281.174,141.759,-16.7432,178.55,1.4502,-156.401,184
1565117100,281.174,141.87,-16.7432,178.55,1.4502,-156.401,184
1565117100,281.174,141.87,-16.7432,178.572,1.4502,-156.401,184
1565117100,281.062,141.87,-16.7432,178.572,1.47217,-156.401,184
1565117100,281.062,141.87,-16.6315,178.572,1.47217,-156.401,184
1565117100,281.062,141.87,-16.6315,178.572,1.47217,-156.401,184
1565117100,281.062,141.87,-16.6315,178.572,1.47217,-156.401,184
1565117100,281.174,141.759,-16.6315,178.55,1.47217,-156.401,184
1565117100,281.174,141.759,-16.6315,178.55,1.47217,-156.401,184
1565117100,281.174,141.759,-16.6315,178.55,1.47217,-156.401,184
1565117100,281.174,141.759,-16.6315,178.55,1.47217,-156.401,184
1565117100,281.174,141.759,-16.6315,178.55,1.47217,-156.401,184
1565117100,281.174,141.759,-16.7432,178.55,1.47217,-156.401,180
1565117100,281.174,141.759,-16.7432,178.55,1.47217,-156.401,180
1565117100,281.174,141.759,-16.7432,178.55,1.4502,-156.401,180
1565117100,281.174,141.759,-16.7432,178.55,1.4502,-156.401,180
1565117100,281.174,141.759,-16.7432,178.55,1.4502,-156.401,180
1565117100,281.174,141.759,-16.7432,178.55,1.4502,-156.401,180
1565117100,281.174,141.759,-16.7432,178.55,1.4502,-156.401,180
1565117100,281.174,141.759,-16.7432,178.55,1.4502,-156.401,180
1565117100,281.174,141.759,-16.7432,178.572,1.4502,-156.401,180
1565117100,281.174,141.87,-16.7432,178.572,1.4502,-156.401,180
1565117100,281.174,141.87,-16.7432,178.572,1.4502,-156.401,180
1565117100,281.062,141.87,-16.7432,178.572,1.4502,-156.401,180
1565117100,281.174,141.87,-16.7432,178.572,1.4502,-156.401,180
1565117100,281.174,141.87,-16.7432,178.572,1.4502,-156.401,180
1565117100,281.062,141.87,-16.7432,178.572,1.4502,-156.401,180
1565117100,281.062,141.87,-16.7432,178.572,1.4502,-156.401,180
1565117100,281.062,141.87,-16.7432,178.572,1.4502,-156.401,180
1565117100,281.062,141.87,-16.7432,178.572,1.4502,-156.401,180
1565117100,281.062,141.87,-16.7432,178.572,1.4502,-156.401,180
1565117100,281.062,141.87,-16.7432,178.572,1.4502,-156.401,180
1565117100,281.062,141.87,-16.7432,178.572,1.4502,-156.401,180
1565117100,281.062,141.87,-16.7432,178.572,1.4502,-156.401,180
1565117100,281.062,141.87,-16.7432,178.572,1.4502,-156.401,180
1565117100,281.062,141.87,-16.7432,178.572,1.4502,-156.401,180
1565117100,281.062,141.87,-16.7432,178.572,1.4502,-156.401,180
1565117100,281.062,141.87,-16.7432,178.572,1.4502,-156.401,180
1565117100,281.062,141.87,-16.6315,178.572,1.4502,-156.401,180
1565117100,281.062,141.759,-16.6315,178.55,1.4502,-156.401,180
1565117100,281.062,141.759,-16.6315,178.55,1.4502,-156.401,180
1565117100,281.062,141.759,-16.6315,178.55,1.4502,-156.401,180
1565117100,281.062,141.759,-16.6315,178.55,1.47217,-156.401,184
1565117100,281.062,141.759,-16.6315,178.55,1.47217,-156.401,184
1565117100,281.174,141.759,-16.6315,178.55,1.47217,-156.401,184
1565117100,281.174,141.759,-16.6315,178.55,1.47217,-156.401,184
1565117100,281.174,141.759,-16.6315,178.55,1.47217,-156.401,184
1565117100,281.174,141.759,-16.6315,178.55,1.47217,-156.401,188
1565117100,281.174,141.759,-16.6315,178.55,1.47217,-156.401,188
1565117100,281.174,141.759,-16.6315,178.55,1.47217,-156.401,188
1565117100,281.174,141.759,-16.6315,178.55,1.47217,-156.401,188
1565117100,281.174,141.759,-16.6315,178.55,1.47217,-156.401,188
1565117100,281.062,141.759,-16.6315,178.55,1.47217,-156.401,188
1565117100,281.062,141.759,-16.6315,178.55,1.47217,-156.401,188
1565117100,281.062,141.759,-16.6315,178.55,1.47217,-156.401,192
1565117100,281.062,141.759,-16.6315,178.55,1.47217,-156.401,192
1565117100,281.062,141.759,-16.6315,178.55,1.47217,-156.401,192
1565117100,281.062,141.759,-16.6315,178.55,1.47217,-156.401,192
1565117100,281.062,141.759,-16.6315,178.55,1.47217,-156.401,192
1565117100,281.062,141.759,-16.6315,178.55,1.47217,-156.401,192
1565117100,281.062,141.759,-16.6315,178.572,1.47217,-156.401,192
1565117100,281.062,141.759,-16.6315,178.572,1.47217,-156.401,192
1565117100,281.062,141.759,-16.6315,178.572,1.47217,-156.401,192
1565117100,281.062,141.759,-16.6315,178.572,1.47217,-156.401,192
1565117100,281.062,141.87,-16.6315,178.572,1.47217,-156.401,192
1565117100,281.062,141.87,-16.6315,178.572,1.47217,-156.379,192
1565117100,281.062,141.87,-16.6315,178.572,1.47217,-156.379,192
1565117100,281.062,141.87,-16.6315,178.572,1.47217,-156.379,192
1565117100,281.062,141.87,-16.6315,178.572,1.47217,-156.379,192
1565117100,281.062,141.87,-16.6315,178.572,1.47217,-156.379,192
1565117100,281.062,141.87,-16.6315,178.572,1.47217,-156.379,192
1565117100,281.062,141.87,-16.6315,178.572,1.47217,-156.379,192
1565117100,281.062,141.87,-16.6315,178.572,1.47217,-156.379,192
1565117100,281.062,141.87,-16.6315,178.572,1.47217,-156.379,192
1565117100,281.062,141.87,-16.6315,178.572,1.47217,-156.401,192
1565117100,281.062,141.87,-16.6315,178.572,1.47217,-156.401,192
1565117100,281.062,141.87,-16.6315,178.572,1.47217,-156.401,192
1565117100,281.062,141.87,-16.6315,178.572,1.47217,-156.401,192
1565117100,281.062,141.87,-16.6315,178.572,1.47217,-156.401,192
1565117100,281.062,141.87,-16.6315,178.572,1.47217,-156.379,192
1565117107,304.279,117.314,-16.2967,178.682,1.604,-156.467,216
1565117108,304.279,117.314,-16.2967,178.682,1.604,-156.467,216
1565117108,304.279,117.314,-16.2967,178.682,1.604,-156.467,220
1565117108,304.279,117.314,-16.2967,178.682,1.604,-156.467,220
1565117108,304.279,117.314,-16.2967,178.682,1.604,-156.467,220
1565117108,304.279,117.314,-16.2967,178.704,1.604,-156.467,220
1565117108,304.279,117.314,-16.2967,178.704,1.604,-156.467,220
1565117108,304.279,117.314,-16.2967,178.704,1.604,-156.467,220
1565117108,304.279,117.314,-16.2967,178.704,1.604,-156.467,224
1565117108,304.279,117.314,-16.2967,178.704,1.604,-156.467,224
1565117108,304.279,117.314,-16.2967,178.704,1.604,-156.467,224
1565117108,304.279,117.314,-16.2967,178.704,1.604,-156.467,224
1565117108,304.279,117.314,-16.2967,178.704,1.604,-156.467,224
1565117108,304.279,117.314,-16.2967,178.704,1.604,-156.467,224
1565117108,304.279,117.314,-16.2967,178.704,1.604,-156.467,224
1565117108,304.279,117.314,-16.2967,178.704,1.604,-156.467,224
1565117108,304.279,117.314,-16.2967,178.704,1.604,-156.467,224
1565117108,304.279,117.314,-16.2967,178.704,1.604,-156.467,224
1565117108,304.279,117.314,-16.2967,178.704,1.604,-156.467,224
1565117108,304.279,117.314,-16.2967,178.704,1.604,-156.467,224
1565117108,304.279,117.314,-16.2967,178.704,1.604,-156.467,224
1565117108,304.279,117.314,-16.2967,178.704,1.604,-156.467,220
1565117108,304.279,117.314,-16.2967,178.704,1.604,-156.467,220
1565117108,304.279,117.314,-16.2967,178.682,1.604,-156.467,220
1565117108,304.279,117.314,-16.2967,178.682,1.604,-156.467,220
1565117108,304.279,117.314,-16.2967,178.682,1.604,-156.467,220
1565117108,304.279,117.314,-16.2967,178.682,1.604,-156.467,220
1565117108,304.279,117.314,-16.2967,178.682,1.62598,-156.467,220
1565117108,304.279,117.314,-16.2967,178.682,1.62598,-156.467,220
1565117108,304.279,117.314,-16.2967,178.682,1.62598,-156.467,220
1565117108,304.279,117.314,-16.2967,178.682,1.62598,-156.467,220
1565117108,304.279,117.314,-16.2967,178.682,1.62598,-156.489,220
1565117108,304.279,117.314,-16.2967,178.682,1.62598,-156.489,220
1565117108,304.279,117.314,-16.2967,178.682,1.62598,-156.489,220
1565117108,304.279,117.314,-16.2967,178.682,1.62598,-156.489,220
1565117108,304.279,117.314,-16.2967,178.682,1.62598,-156.467,220
1565117108,304.279,117.314,-16.2967,178.682,1.62598,-156.467,220
1565117108,304.279,117.314,-16.2967,178.682,1.62598,-156.467,216
1565117108,304.279,117.425,-16.2967,178.682,1.62598,-156.467,216
1565117108,304.279,117.425,-16.2967,178.682,1.62598,-156.467,216
1565117108,304.279,117.425,-16.2967,178.704,1.62598,-156.467,216
1565117108,304.279,117.425,-16.2967,178.704,1.62598,-156.467,216
1565117108,304.279,117.425,-16.2967,178.704,1.604,-156.467,216
1565117108,304.279,117.425,-16.2967,178.704,1.604,-156.467,216
1565117108,304.279,117.425,-16.2967,178.704,1.604,-156.489,216
1565117108,304.279,117.425,-16.2967,178.704,1.604,-156.489,216
1565117108,304.279,117.425,-16.2967,178.704,1.604,-156.489,216
1565117108,304.279,117.425,-16.2967,178.704,1.604,-156.489,216
1565117108,304.279,117.425,-16.2967,178.704,1.604,-156.489,216
1565117108,304.279,117.425,-16.2967,178.704,1.604,-156.489,216
1565117108,304.279,117.425,-16.2967,178.704,1.604,-156.489,216
1565117108,304.279,117.425,-16.2967,178.704,1.604,-156.489,212
1565117108,304.279,117.425,-16.2967,178.704,1.604,-156.489,212
1565117108,304.279,117.425,-16.2967,178.704,1.604,-156.489,212
1565117108,304.279,117.425,-16.2967,178.704,1.604,-156.489,212
1565117108,304.279,117.425,-16.2967,178.704,1.604,-156.489,212
1565117108,304.279,117.425,-16.2967,178.704,1.604,-156.489,212
1565117108,304.279,117.425,-16.2967,178.704,1.604,-156.489,212
1565117108,304.279,117.425,-16.2967,178.704,1.604,-156.489,212
1565117108,304.279,117.425,-16.4083,178.704,1.604,-156.489,212
1565117108,304.279,117.425,-16.4083,178.704,1.58203,-156.489,212
1565117108,304.279,117.425,-16.4083,178.704,1.58203,-156.489,212
1565117108,304.279,117.425,-16.4083,178.704,1.58203,-156.489,212
1565117108,304.279,117.425,-16.4083,178.704,1.58203,-156.489,212
1565117108,304.279,117.425,-16.4083,178.704,1.58203,-156.489,212
1565117108,304.279,117.425,-16.4083,178.704,1.58203,-156.489,212
1565117108,304.279,117.425,-16.4083,178.704,1.58203,-156.489,212
1565117108,304.279,117.425,-16.4083,178.704,1.56006,-156.489,212
1565117108,304.279,117.425,-16.4083,178.704,1.56006,-156.489,212
1565117108,304.279,117.425,-16.4083,178.704,1.56006,-156.489,212
1565117108,304.279,117.425,-16.4083,178.704,1.56006,-156.489,212
1565117108,304.279,117.425,-16.4083,178.704,1.58203,-156.489,212
1565117108,304.279,117.425,-16.4083,178.704,1.58203,-156.489,212
1565117108,304.279,117.425,-16.4083,178.704,1.58203,-156.489,212
1565117108,304.279,117.425,-16.4083,178.704,1.58203,-156.489,212
1565117108,304.279,117.314,-16.4083,178.704,1.58203,-156.489,212
1565117108,304.279,117.314,-16.4083,178.704,1.58203,-156.489,212
1565117108,304.279,117.314,-16.4083,178.704,1.58203,-156.489,212
1565117108,304.279,117.314,-16.4083,178.682,1.58203,-156.489,212
1565117108,304.279,117.314,-16.4083,178.682,1.58203,-156.489,212
1565117108,304.279,117.314,-16.4083,178.682,1.58203,-156.489,212
1565117108,304.279,117.314,-16.4083,178.682,1.58203,-156.489,212
1565117108,304.279,117.314,-16.4083,178.682,1.58203,-156.489,212
1565117108,304.279,117.314,-16.4083,178.682,1.58203,-156.489,212
1565117108,304.279,117.314,-16.4083,178.682,1.58203,-156.489,212
1565117108,304.279,117.314,-16.4083,178.682,1.58203,-156.489,212
1565117108,304.279,117.314,-16.4083,178.682,1.58203,-156.489,212
1565117108,304.279,117.314,-16.4083,178.682,1.58203,-156.489,212
1565117108,304.279,117.314,-16.4083,178.682,1.58203,-156.489,212
1565117108,304.279,117.314,-16.4083,178.682,1.58203,-156.489,212
1565117108,304.279,117.314,-16.4083,178.682,1.58203,-156.489,212
1565117108,304.279,117.314,-16.4083,178.682,1.58203,-156.489,212
1565117108,304.279,117.314,-16.4083,178.682,1.58203,-156.489,212
1565117108,304.279,117.314,-16.4083,178.682,1.58203,-156.489,212
1565117108,304.279,117.314,-16.4083,178.682,1.58203,-156.489,212
1565117108,304.279,117.314,-16.4083,178.682,1.604,-156.489,212
1565117108,304.279,117.314,-16.4083,178.682,1.604,-156.489,212
1565117108,304.279,117.314,-16.4083,178.682,1.604,-156.489,212
1565117108,304.279,117.314,-16.4083,178.682,1.604,-156.489,212
1565117108,304.279,117.314,-16.4083,178.682,1.604,-156.489,212
1565117108,304.279,117.314,-16.4083,178.682,1.604,-156.489,212
1565117109,304.279,117.314,-16.4083,178.682,1.604,-156.489,212
1565117109,304.279,117.314,-16.4083,178.682,1.604,-156.489,212
1565117109,304.279,117.314,-16.4083,178.682,1.604,-156.489,212
1565117109,304.279,117.314,-16.4083,178.682,1.604,-156.489,212
1565117109,304.279,117.314,-16.4083,178.682,1.604,-156.489,212
1565117109,304.279,117.314,-16.4083,178.682,1.604,-156.489,212
1565117109,304.279,117.314,-16.4083,178.682,1.604,-156.489,212
1565117109,304.279,117.314,-16.2967,178.682,1.604,-156.489,212
1565117109,304.279,117.314,-16.2967,178.682,1.604,-156.489,216
1565117109,304.279,117.314,-16.2967,178.682,1.604,-156.489,216
1565117109,304.279,117.314,-16.2967,178.682,1.604,-156.489,216
1565117109,304.279,117.314,-16.2967,178.682,1.604,-156.489,216
1565117109,304.279,117.314,-16.2967,178.682,1.604,-156.489,216
1565117109,304.279,117.314,-16.2967,178.682,1.604,-156.489,216
1565117109,304.279,117.314,-16.2967,178.682,1.604,-156.489,216
1565117109,304.279,117.314,-16.2967,178.682,1.604,-156.489,216
1565117109,304.279,117.314,-16.2967,178.682,1.604,-156.489,216
1565117109,304.279,117.314,-16.2967,178.682,1.604,-156.489,216
1565117109,304.279,117.425,-16.2967,178.682,1.604,-156.489,216
1565117109,304.279,117.425,-16.2967,178.682,1.604,-156.489,216
1565117109,304.279,117.425,-16.2967,178.682,1.604,-156.489,216
1565117109,304.279,117.425,-16.2967,178.704,1.604,-156.489,216
1565117109,304.279,117.425,-16.4083,178.704,1.604,-156.489,216
1565117109,304.279,117.425,-16.4083,178.704,1.604,-156.489,216
1565117109,304.279,117.425,-16.4083,178.704,1.604,-156.489,216
1565117109,304.279,117.425,-16.4083,178.704,1.58203,-156.489,216
1565117109,304.279,117.425,-16.4083,178.704,1.58203,-156.489,216
1565117109,304.279,117.425,-16.4083,178.704,1.58203,-156.489,216
1565117109,304.279,117.425,-16.4083,178.704,1.58203,-156.489,216
1565117109,304.279,117.314,-16.4083,178.682,1.58203,-156.489,216
1565117109,304.279,117.314,-16.4083,178.682,1.58203,-156.489,220
1565117109,304.279,117.314,-16.4083,178.682,1.58203,-156.467,220
1565117109,304.279,117.314,-16.4083,178.682,1.58203,-156.467,220
1565117109,304.279,117.314,-16.4083,178.682,1.58203,-156.467,220
1565117109,304.279,117.314,-16.4083,178.682,1.58203,-156.467,220
1565117109,304.279,117.314,-16.4083,178.682,1.604,-156.467,220
1565117109,304.279,117.314,-16.2967,178.682,1.604,-156.467,220
1565117109,304.279,117.314,-16.2967,178.682,1.604,-156.467,224
1565117109,304.279,117.314,-16.2967,178.682,1.604,-156.467,224
1565117109,304.279,117.314,-16.2967,178.682,1.604,-156.467,224
1565117109,304.279,117.314,-16.2967,178.682,1.604,-156.467,224
1565117109,304.279,117.314,-16.2967,178.682,1.604,-156.467,224
1565117109,304.279,117.314,-16.2967,178.704,1.604,-156.467,224
1565117109,304.279,117.314,-16.2967,178.704,1.604,-156.467,224
1565117109,304.279,117.314,-16.2967,178.704,1.604,-156.467,224
1565117109,304.279,117.314,-16.2967,178.704,1.604,-156.467,224
1565117109,304.279,117.314,-16.2967,178.704,1.604,-156.467,224
1565117109,304.279,117.314,-16.2967,178.704,1.604,-156.467,224
1565117109,304.279,117.314,-16.2967,178.704,1.604,-156.467,224
1565117109,304.279,117.314,-16.2967,178.704,1.604,-156.467,224
1565117109,304.279,117.314,-16.2967,178.704,1.604,-156.467,224
1565117109,304.279,117.314,-16.2967,178.704,1.604,-156.467,224
1565117109,304.279,117.314,-16.2967,178.704,1.604,-156.467,224
1565117109,304.279,117.314,-16.2967,178.704,1.604,-156.467,224
1565117109,304.279,117.314,-16.2967,178.704,1.604,-156.467,224
1565117109,304.167,117.314,-16.2967,178.704,1.604,-156.467,224
1565117109,304.167,117.314,-16.2967,178.704,1.604,-156.467,224
1565117109,304.167,117.314,-16.2967,178.704,1.604,-156.467,224
1565117109,304.167,117.314,-16.2967,178.704,1.604,-156.467,224
1565117109,304.167,117.314,-16.2967,178.704,1.604,-156.467,224
1565117109,304.167,117.314,-16.2967,178.704,1.604,-156.467,224
1565117109,304.167,117.314,-16.2967,178.704,1.604,-156.467,228
1565117109,304.167,117.314,-16.4083,178.682,1.604,-156.467,228
1565117109,304.167,117.314,-16.4083,178.682,1.604,-156.467,224
1565117109,304.279,117.314,-16.4083,178.682,1.604,-156.467,224
1565117109,304.279,117.314,-16.4083,178.682,1.604,-156.467,224
1565117109,304.279,117.314,-16.4083,178.682,1.604,-156.467,224
1565117109,304.279,117.314,-16.4083,178.682,1.604,-156.467,224
1565117109,304.279,117.314,-16.2967,178.682,1.604,-156.467,224
1565117109,304.279,117.314,-16.2967,178.682,1.604,-156.467,224
1565117109,304.279,117.314,-16.2967,178.682,1.604,-156.467,224
1565117109,304.279,117.314,-16.2967,178.682,1.604,-156.467,224
1565117109,304.279,117.314,-16.2967,178.682,1.604,-156.467,224
1565117109,304.279,117.314,-16.2967,178.682,1.604,-156.467,224
1565117109,304.279,117.314,-16.2967,178.682,1.604,-156.467,224
1565117109,304.279,117.314,-16.2967,178.682,1.604,-156.467,224
1565117109,304.279,117.314,-16.2967,178.682,1.604,-156.467,224
1565117109,304.279,117.314,-16.4083,178.682,1.604,-156.467,224
1565117109,304.279,117.314,-16.4083,178.682,1.604,-156.467,224
1565117109,304.279,117.314,-16.4083,178.682,1.604,-156.467,224
1565117109,304.279,117.314,-16.2967,178.682,1.604,-156.467,224
1565117109,304.279,117.314,-16.2967,178.682,1.604,-156.467,224
1565117109,304.279,117.314,-16.2967,178.682,1.604,-156.467,224
1565117109,304.279,117.314,-16.2967,178.682,1.604,-156.467,224
1565117109,304.279,117.314,-16.2967,178.682,1.604,-156.467,224
1565117109,304.279,117.314,-16.2967,178.682,1.604,-156.467,224
1565117109,304.279,117.314,-16.2967,178.682,1.604,-156.467,220
1565117109,304.279,117.314,-16.2967,178.682,1.604,-156.467,220
1565117109,304.279,117.314,-16.2967,178.682,1.604,-156.467,220
1565117109,304.279,117.314,-16.2967,178.682,1.604,-156.467,220
1565117109,304.279,117.314,-16.2967,178.682,1.604,-156.467,220
1565117109,304.279,117.314,-16.2967,178.682,1.604,-156.467,220
1565117109,304.279,117.314,-16.2967,178.682,1.604,-156.467,220
1565117109,304.279,117.314,-16.2967,178.682,1.604,-156.467,220
1565117109,304.279,117.314,-16.2967,178.682,1.604,-156.467,220
1565117109,304.279,117.314,-16.2967,178.682,1.604,-156.467,220
1565117109,304.279,117.314,-16.2967,178.682,1.604,-156.467,220
1565117109,304.279,117.314,-16.2967,178.682,1.62598,-156.467,220
1565117109,304.279,117.314,-16.2967,178.682,1.62598,-156.467,220
1565117109,304.279,117.314,-16.2967,178.682,1.62598,-156.467,220
1565117110,304.279,117.314,-16.2967,178.682,1.62598,-156.467,220
1565117110,304.279,117.314,-16.2967,178.682,1.62598,-156.467,220
1565117110,304.279,117.314,-16.2967,178.682,1.62598,-156.467,220
1565117110,304.279,117.314,-16.2967,178.682,1.62598,-156.467,224
1565117110,304.279,117.314,-16.2967,178.682,1.62598,-156.489,224
1565117110,304.279,117.314,-16.2967,178.682,1.62598,-156.489,224
1565117110,304.279,117.314,-16.2967,178.682,1.62598,-156.489,220
1565117110,304.279,117.314,-16.2967,178.682,1.62598,-156.489,220
1565117110,304.279,117.314,-16.2967,178.682,1.62598,-156.489,220
1565117110,304.279,117.314,-16.2967,178.682,1.604,-156.467,220
1565117110,304.279,117.314,-16.2967,178.682,1.604,-156.467,220
1565117110,304.279,117.314,-16.2967,178.682,1.604,-156.467,220
1565117110,304.279,117.314,-16.2967,178.682,1.604,-156.467,220
1565117110,304.279,117.314,-16.2967,178.682,1.604,-156.467,220
1565117110,304.279,117.314,-16.2967,178.682,1.604,-156.467,220
1565117110,304.279,117.314,-16.2967,178.682,1.604,-156.467,220
1565117110,304.279,117.314,-16.2967,178.682,1.604,-156.467,220
1565117110,304.279,117.314,-16.2967,178.682,1.604,-156.467,220
1565117110,304.279,117.314,-16.2967,178.682,1.604,-156.467,220
1565117110,304.279,117.314,-16.2967,178.682,1.604,-156.467,220
1565117110,304.279,117.314,-16.2967,178.682,1.604,-156.467,220
1565117110,304.279,117.314,-16.2967,178.682,1.604,-156.467,220
1565117110,304.279,117.314,-16.2967,178.682,1.604,-156.467,220
1565117110,304.279,117.314,-16.2967,178.682,1.604,-156.467,220
1565117110,304.279,117.314,-16.2967,178.682,1.604,-156.467,220
1565117110,304.279,117.314,-16.2967,178.682,1.604,-156.467,220
1565117110,304.279,117.314,-16.2967,178.682,1.604,-156.467,220
1565117110,304.279,117.314,-16.2967,178.682,1.604,-156.467,220
1565117110,304.279,117.314,-16.2967,178.682,1.604,-156.467,220
1565117110,304.279,117.314,-16.4083,178.682,1.604,-156.467,220
1565117110,304.279,117.314,-16.4083,178.682,1.604,-156.467,216
1565117110,304.279,117.314,-16.4083,178.66,1.58203,-156.467,216
1565117110,304.279,117.314,-16.4083,178.66,1.58203,-156.467,216
1565117110,304.279,117.314,-16.4083,178.66,1.58203,-156.467,216
1565117110,304.279,117.314,-16.4083,178.66,1.58203,-156.467,216
1565117110,304.279,117.314,-16.4083,178.66,1.58203,-156.467,216
1565117110,304.279,117.314,-16.4083,178.66,1.58203,-156.467,216
1565117110,304.279,117.314,-16.4083,178.66,1.58203,-156.467,216
1565117110,304.279,117.314,-16.4083,178.66,1.58203,-156.467,216
1565117110,304.279,117.314,-16.4083,178.66,1.58203,-156.467,216
1565117110,304.279,117.314,-16.4083,178.66,1.58203,-156.467,216
1565117110,304.279,117.314,-16.4083,178.66,1.58203,-156.467,216
1565117110,304.279,117.314,-16.4083,178.66,1.58203,-156.467,216
1565117110,304.279,117.314,-16.4083,178.66,1.58203,-156.467,220
1565117110,304.279,117.314,-16.4083,178.66,1.58203,-156.467,220
1565117110,304.279,117.314,-16.4083,178.66,1.58203,-156.467,220
1565117110,304.279,117.314,-16.4083,178.66,1.58203,-156.467,220
1565117110,304.279,117.314,-16.4083,178.66,1.58203,-156.467,220
1565117110,304.279,117.314,-16.4083,178.66,1.58203,-156.467,220
1565117110,304.279,117.314,-16.4083,178.66,1.58203,-156.467,220
1565117110,304.279,117.314,-16.4083,178.66,1.58203,-156.467,220
1565117110,304.279,117.314,-16.4083,178.66,1.604,-156.467,220
1565117110,304.279,117.314,-16.4083,178.66,1.604,-156.467,220
1565117110,304.279,117.314,-16.4083,178.682,1.604,-156.467,220
1565117110,304.279,117.314,-16.2967,178.682,1.604,-156.467,220
1565117110,304.279,117.314,-16.2967,178.682,1.604,-156.467,220
1565117110,304.279,117.314,-16.2967,178.682,1.604,-156.467,220
1565117110,304.279,117.314,-16.2967,178.682,1.604,-156.467,220
1565117110,304.279,117.314,-16.2967,178.682,1.604,-156.467,220
1565117110,304.279,117.314,-16.2967,178.682,1.604,-156.467,220
1565117110,304.279,117.314,-16.2967,178.682,1.604,-156.467,220
1565117110,304.279,117.314,-16.4083,178.682,1.58203,-156.467,220
1565117110,304.279,117.314,-16.4083,178.682,1.58203,-156.467,220
1565117110,304.279,117.314,-16.4083,178.682,1.58203,-156.467,220
1565117110,304.279,117.314,-16.4083,178.682,1.58203,-156.467,220
1565117110,304.279,117.314,-16.4083,178.682,1.58203,-156.467,220
1565117110,304.279,117.314,-16.4083,178.682,1.58203,-156.467,220
1565117110,304.279,117.314,-16.4083,178.682,1.58203,-156.467,220
1565117110,304.279,117.314,-16.4083,178.682,1.58203,-156.467,220
1565117110,304.279,117.314,-16.4083,178.682,1.58203,-156.467,220
1565117110,304.279,117.314,-16.4083,178.682,1.58203,-156.467,220
1565117110,304.279,117.314,-16.4083,178.682,1.58203,-156.467,220
1565117110,304.279,117.314,-16.4083,178.682,1.58203,-156.467,220
1565117110,304.279,117.314,-16.4083,178.682,1.58203,-156.467,220
1565117110,304.279,117.314,-16.4083,178.682,1.58203,-156.467,220
1565117110,304.279,117.314,-16.4083,178.682,1.58203,-156.467,220
1565117110,304.279,117.314,-16.4083,178.682,1.58203,-156.467,220
1565117110,304.279,117.314,-16.4083,178.682,1.58203,-156.467,220
1565117110,304.279,117.314,-16.4083,178.682,1.604,-156.467,220
1565117110,304.279,117.314,-16.4083,178.682,1.604,-156.467,220
1565117110,304.279,117.314,-16.4083,178.682,1.604,-156.467,220
1565117110,304.279,117.314,-16.4083,178.682,1.604,-156.467,220
1565117110,304.279,117.314,-16.4083,178.682,1.604,-156.467,220
1565117110,304.279,117.314,-16.4083,178.682,1.604,-156.467,220
1565117110,304.279,117.314,-16.4083,178.682,1.604,-156.467,220
1565117110,304.279,117.314,-16.4083,178.682,1.604,-156.467,220
1565117110,304.279,117.314,-16.4083,178.682,1.604,-156.467,220
1565117110,304.279,117.314,-16.4083,178.682,1.604,-156.467,220
1565117110,304.279,117.314,-16.4083,178.682,1.604,-156.467,220
1565117110,304.279,117.314,-16.4083,178.682,1.604,-156.467,220
1565117110,304.279,117.314,-16.4083,178.682,1.604,-156.467,220
1565117110,304.279,117.314,-16.4083,178.682,1.604,-156.467,220
1565117110,304.279,117.314,-16.4083,178.682,1.604,-156.467,220
1565117110,304.279,117.314,-16.4083,178.682,1.604,-156.467,220
1565117110,304.279,117.314,-16.4083,178.682,1.604,-156.467,220
1565117110,304.279,117.314,-16.2967,178.682,1.604,-156.467,220
1565117110,304.279,117.314,-16.2967,178.682,1.604,-156.489,220
1565117110,304.279,117.314,-16.2967,178.682,1.604,-156.489,220
1565117110,304.279,117.314,-16.2967,178.682,1.604,-156.467,220
1565117110,304.279,117.314,-16.2967,178.682,1.604,-156.467,220
1565117111,304.279,117.314,-16.2967,178.682,1.604,-156.467,224
1565117111,304.279,117.314,-16.2967,178.682,1.604,-156.467,224
1565117111,304.279,117.314,-16.2967,178.682,1.604,-156.467,224
1565117111,304.279,117.314,-16.2967,178.704,1.604,-156.467,224
1565117111,304.279,117.314,-16.2967,178.704,1.604,-156.467,224
1565117111,304.279,117.314,-16.4083,178.704,1.604,-156.467,224
1565117111,304.279,117.314,-16.4083,178.704,1.58203,-156.467,224
1565117111,304.279,117.314,-16.4083,178.704,1.58203,-156.467,224
1565117111,304.279,117.314,-16.4083,178.704,1.58203,-156.467,224
1565117111,304.279,117.314,-16.4083,178.704,1.58203,-156.467,224
1565117111,304.279,117.314,-16.4083,178.704,1.58203,-156.467,224
1565117111,304.167,117.314,-16.4083,178.704,1.58203,-156.467,224
1565117111,304.167,117.314,-16.4083,178.704,1.58203,-156.467,224
1565117111,304.167,117.314,-16.4083,178.704,1.58203,-156.467,224
1565117111,304.167,117.314,-16.4083,178.704,1.56006,-156.467,224
1565117111,304.167,117.314,-16.4083,178.682,1.56006,-156.467,224
1565117111,304.167,117.314,-16.4083,178.682,1.56006,-156.467,224
1565117111,304.167,117.314,-16.4083,178.682,1.56006,-156.467,224
1565117111,304.167,117.314,-16.4083,178.682,1.56006,-156.467,224
1565117111,304.279,117.314,-16.4083,178.682,1.56006,-156.467,224
1565117111,304.279,117.314,-16.4083,178.682,1.56006,-156.467,224
1565117111,304.279,117.314,-16.4083,178.682,1.56006,-156.467,224
1565117111,304.279,117.314,-16.4083,178.682,1.56006,-156.467,224
1565117111,304.279,117.314,-16.4083,178.682,1.56006,-156.467,224
1565117111,304.279,117.314,-16.4083,178.682,1.56006,-156.467,220
1565117111,304.279,117.314,-16.4083,178.682,1.56006,-156.467,220
1565117111,304.279,117.314,-16.4083,178.682,1.56006,-156.467,220
1565117111,304.279,117.314,-16.4083,178.682,1.56006,-156.467,220
1565117111,304.279,117.314,-16.4083,178.682,1.56006,-156.467,220
1565117111,304.279,117.314,-16.4083,178.682,1.56006,-156.467,220
1565117111,304.279,117.314,-16.5199,178.682,1.56006,-156.467,220
1565117111,304.279,117.314,-16.5199,178.682,1.56006,-156.467,220
1565117111,304.279,117.314,-16.5199,178.682,1.56006,-156.467,220
1565117111,304.279,117.314,-16.5199,178.682,1.56006,-156.467,220
1565117111,304.279,117.314,-16.5199,178.682,1.56006,-156.467,220
1565117111,304.279,117.314,-16.5199,178.682,1.56006,-156.467,220
1565117111,304.279,117.314,-16.5199,178.682,1.56006,-156.467,216
1565117111,304.279,117.314,-16.4083,178.682,1.56006,-156.467,216
1565117111,304.279,117.314,-16.4083,178.682,1.56006,-156.467,216
1565117111,304.279,117.314,-16.4083,178.682,1.56006,-156.467,216
1565117111,304.279,117.314,-16.4083,178.682,1.56006,-156.467,216
1565117111,304.279,117.314,-16.4083,178.682,1.56006,-156.467,216
1565117111,304.279,117.314,-16.4083,178.682,1.56006,-156.467,216
1565117111,304.279,117.314,-16.4083,178.704,1.56006,-156.467,216
1565117111,304.279,117.314,-16.4083,178.704,1.56006,-156.467,220
1565117111,304.279,117.314,-16.4083,178.704,1.56006,-156.467,220
1565117111,304.279,117.314,-16.4083,178.704,1.56006,-156.467,220
1565117111,304.279,117.314,-16.4083,178.704,1.56006,-156.467,220
1565117111,304.279,117.314,-16.4083,178.704,1.56006,-156.467,220
1565117111,304.279,117.314,-16.4083,178.704,1.56006,-156.467,220
1565117111,304.279,117.314,-16.4083,178.704,1.56006,-156.467,220
1565117111,304.279,117.314,-16.4083,178.704,1.56006,-156.467,220
1565117111,304.279,117.314,-16.4083,178.704,1.56006,-156.467,220
1565117111,304.279,117.314,-16.4083,178.704,1.56006,-156.467,220
1565117111,304.279,117.314,-16.4083,178.704,1.56006,-156.467,220
1565117111,304.279,117.314,-16.4083,178.704,1.58203,-156.467,220
1565117111,304.279,117.314,-16.4083,178.704,1.58203,-156.467,220
1565117111,304.279,117.314,-16.4083,178.704,1.58203,-156.467,220
1565117111,304.279,117.314,-16.4083,178.704,1.58203,-156.467,220
1565117111,304.279,117.314,-16.4083,178.704,1.58203,-156.467,216
1565117111,304.279,117.314,-16.4083,178.682,1.58203,-156.467,216
1565117111,304.279,117.314,-16.4083,178.682,1.58203,-156.467,216
1565117111,304.279,117.314,-16.4083,178.682,1.58203,-156.467,216
1565117111,304.279,117.314,-16.4083,178.682,1.58203,-156.467,216
1565117111,304.279,117.314,-16.4083,178.682,1.58203,-156.467,216
1565117111,304.279,117.314,-16.4083,178.682,1.58203,-156.467,216
1565117111,304.279,117.314,-16.4083,178.682,1.58203,-156.467,216
1565117111,304.279,117.314,-16.4083,178.682,1.58203,-156.467,216
1565117111,304.279,117.314,-16.4083,178.682,1.58203,-156.467,216
1565117111,304.279,117.314,-16.4083,178.682,1.58203,-156.467,220
1565117111,304.279,117.314,-16.4083,178.682,1.58203,-156.467,220
1565117111,304.279,117.314,-16.4083,178.682,1.58203,-156.467,220
1565117111,304.279,117.314,-16.4083,178.682,1.58203,-156.467,220
1565117111,304.279,117.314,-16.4083,178.682,1.58203,-156.467,220
1565117111,304.279,117.314,-16.4083,178.682,1.58203,-156.467,220
1565117111,304.279,117.314,-16.4083,178.682,1.58203,-156.467,220
1565117111,304.279,117.314,-16.4083,178.682,1.58203,-156.467,220
1565117111,304.279,117.314,-16.4083,178.682,1.58203,-156.467,220
1565117111,304.279,117.314,-16.4083,178.682,1.58203,-156.467,220
1565117111,304.279,117.314,-16.4083,178.682,1.58203,-156.467,220
1565117111,304.279,117.314,-16.4083,178.682,1.58203,-156.467,220
1565117111,304.279,117.314,-16.4083,178.682,1.58203,-156.467,220
1565117111,304.279,117.314,-16.4083,178.682,1.58203,-156.467,220
1565117111,304.279,117.314,-16.4083,178.682,1.58203,-156.467,220
1565117111,304.279,117.314,-16.4083,178.704,1.58203,-156.467,220
1565117111,304.279,117.314,-16.4083,178.704,1.58203,-156.467,220
1565117111,304.279,117.314,-16.4083,178.704,1.58203,-156.467,220
1565117111,304.279,117.314,-16.4083,178.704,1.58203,-156.467,220
1565117111,304.279,117.314,-16.4083,178.704,1.58203,-156.467,220
1565117111,304.279,117.314,-16.4083,178.704,1.58203,-156.467,216
1565117111,304.279,117.314,-16.4083,178.704,1.58203,-156.467,216
1565117111,304.279,117.314,-16.4083,178.704,1.58203,-156.467,216
1565117111,304.279,117.314,-16.4083,178.704,1.58203,-156.467,216
1565117111,304.279,117.314,-16.4083,178.704,1.58203,-156.467,216
1565117111,304.279,117.314,-16.4083,178.704,1.58203,-156.467,216
1565117111,304.279,117.314,-16.4083,178.704,1.58203,-156.467,216
1565117111,304.279,117.314,-16.4083,178.704,1.58203,-156.467,216
1565117111,304.279,117.314,-16.4083,178.704,1.58203,-156.467,216
1565117111,304.279,117.314,-16.4083,178.682,1.58203,-156.467,216
1565117111,304.279,117.314,-16.4083,178.682,1.58203,-156.467,216
1565117112,304.279,117.314,-16.4083,178.682,1.58203,-156.467,216
1565117112,304.279,117.314,-16.4083,178.682,1.58203,-156.467,216
1565117112,304.279,117.314,-16.4083,178.682,1.58203,-156.467,216
1565117112,304.279,117.314,-16.4083,178.682,1.58203,-156.467,220
1565117112,304.279,117.314,-16.4083,178.682,1.58203,-156.467,220
1565117112,304.279,117.314,-16.4083,178.682,1.604,-156.467,220
1565117112,304.279,117.314,-16.4083,178.682,1.604,-156.467,220
1565117112,304.279,117.314,-16.4083,178.682,1.58203,-156.467,220
1565117112,304.279,117.314,-16.4083,178.682,1.58203,-156.467,220
1565117112,304.279,117.314,-16.4083,178.682,1.58203,-156.467,220
1565117112,304.279,117.314,-16.4083,178.682,1.58203,-156.467,220
1565117112,304.279,117.314,-16.4083,178.682,1.58203,-156.467,220
1565117112,304.279,117.314,-16.4083,178.682,1.58203,-156.467,220
1565117112,304.279,117.314,-16.4083,178.682,1.58203,-156.467,220
1565117112,304.279,117.314,-16.4083,178.682,1.58203,-156.467,220
1565117112,304.279,117.314,-16.4083,178.682,1.58203,-156.467,220
1565117112,304.279,117.314,-16.4083,178.682,1.58203,-156.467,220
1565117112,304.279,117.314,-16.4083,178.682,1.58203,-156.467,220
1565117112,304.279,117.314,-16.4083,178.682,1.58203,-156.467,220
1565117112,304.279,117.314,-16.4083,178.682,1.58203,-156.467,220
1565117112,304.279,117.314,-16.4083,178.682,1.58203,-156.467,220
1565117112,304.279,117.314,-16.4083,178.682,1.58203,-156.467,220
1565117112,304.279,117.314,-16.4083,178.682,1.58203,-156.467,220
1565117112,304.279,117.314,-16.4083,178.682,1.58203,-156.467,220
1565117112,304.279,117.314,-16.4083,178.682,1.58203,-156.467,224
1565117112,304.279,117.314,-16.4083,178.682,1.58203,-156.467,224
1565117112,304.279,117.314,-16.4083,178.682,1.58203,-156.467,224
1565117112,304.279,117.314,-16.4083,178.682,1.58203,-156.467,224
1565117112,304.279,117.314,-16.4083,178.66,1.58203,-156.467,224
1565117112,304.279,117.314,-16.4083,178.66,1.58203,-156.467,224
1565117112,304.279,117.314,-16.4083,178.66,1.58203,-156.467,224
1565117112,304.279,117.314,-16.4083,178.682,1.58203,-156.467,220
1565117112,304.279,117.314,-16.4083,178.682,1.58203,-156.467,220
1565117112,304.279,117.314,-16.4083,178.682,1.58203,-156.467,220
1565117112,304.279,117.314,-16.4083,178.682,1.58203,-156.467,220
1565117112,304.279,117.314,-16.4083,178.682,1.58203,-156.467,220
1565117112,304.279,117.314,-16.4083,178.682,1.58203,-156.467,220
1565117112,304.279,117.314,-16.4083,178.682,1.58203,-156.467,220
1565117112,304.279,117.314,-16.4083,178.682,1.58203,-156.467,220
1565117112,304.279,117.314,-16.4083,178.682,1.58203,-156.467,220
1565117112,304.279,117.314,-16.4083,178.682,1.58203,-156.467,220
1565117112,304.279,117.314,-16.4083,178.682,1.58203,-156.467,220
1565117112,304.279,117.314,-16.4083,178.682,1.58203,-156.467,224
1565117112,304.279,117.314,-16.4083,178.682,1.58203,-156.467,224
1565117112,304.279,117.314,-16.4083,178.682,1.58203,-156.467,224
1565117112,304.279,117.314,-16.4083,178.682,1.58203,-156.467,224
1565117112,304.279,117.314,-16.4083,178.682,1.58203,-156.467,224
1565117112,304.279,117.314,-16.4083,178.682,1.58203,-156.467,224
1565117112,304.279,117.314,-16.4083,178.682,1.58203,-156.467,224
1565117112,304.279,117.314,-16.4083,178.682,1.58203,-156.467,224
1565117112,304.279,117.314,-16.4083,178.682,1.58203,-156.467,224
1565117112,304.279,117.314,-16.4083,178.682,1.58203,-156.467,224
1565117112,304.279,117.314,-16.4083,178.682,1.58203,-156.467,224
1565117112,304.279,117.314,-16.4083,178.682,1.58203,-156.467,224
1565117112,304.279,117.314,-16.4083,178.682,1.58203,-156.467,224
1565117112,304.279,117.314,-16.4083,178.682,1.604,-156.467,224
1565117112,304.279,117.314,-16.4083,178.682,1.604,-156.467,224
1565117112,304.279,117.314,-16.4083,178.682,1.604,-156.467,224
1565117112,304.279,117.314,-16.4083,178.682,1.604,-156.467,224
1565117112,304.279,117.314,-16.4083,178.682,1.604,-156.467,224
1565117112,304.279,117.314,-16.4083,178.682,1.604,-156.467,224
1565117112,304.279,117.314,-16.4083,178.682,1.604,-156.467,224
1565117112,304.279,117.314,-16.2967,178.682,1.604,-156.467,224
1565117112,304.279,117.314,-16.2967,178.682,1.604,-156.467,224
1565117112,304.279,117.314,-16.2967,178.682,1.604,-156.467,224
1565117112,304.279,117.314,-16.2967,178.682,1.604,-156.467,224
1565117112,304.279,117.314,-16.2967,178.682,1.604,-156.467,224
1565117112,304.279,117.314,-16.2967,178.682,1.604,-156.467,224
1565117112,304.279,117.314,-16.2967,178.682,1.604,-156.467,224
1565117112,304.279,117.314,-16.2967,178.682,1.604,-156.467,224
1565117112,304.279,117.314,-16.2967,178.682,1.604,-156.467,224
1565117112,304.279,117.314,-16.2967,178.682,1.604,-156.467,224
1565117112,304.279,117.314,-16.2967,178.682,1.604,-156.467,224
1565117112,304.279,117.314,-16.2967,178.682,1.604,-156.467,224
1565117112,304.279,117.314,-16.2967,178.682,1.604,-156.467,224
1565117112,304.279,117.314,-16.2967,178.682,1.604,-156.467,224
1565117112,304.279,117.314,-16.2967,178.682,1.604,-156.467,224
1565117112,304.279,117.314,-16.2967,178.682,1.604,-156.467,224
1565117112,304.279,117.314,-16.2967,178.682,1.604,-156.467,224
1565117112,304.279,117.314,-16.2967,178.682,1.604,-156.467,224
1565117112,304.279,117.314,-16.2967,178.682,1.604,-156.467,224
1565117112,304.279,117.314,-16.4083,178.682,1.604,-156.467,224
1565117112,304.279,117.314,-16.4083,178.682,1.604,-156.467,224
1565117112,304.279,117.314,-16.4083,178.682,1.604,-156.467,224
1565117112,304.279,117.314,-16.4083,178.682,1.604,-156.467,224
1565117112,304.279,117.314,-16.4083,178.682,1.604,-156.467,224
1565117112,304.279,117.314,-16.4083,178.682,1.604,-156.467,224
1565117112,304.279,117.314,-16.4083,178.682,1.604,-156.467,224
1565117112,304.279,117.314,-16.4083,178.66,1.604,-156.467,224
1565117112,304.279,117.314,-16.4083,178.66,1.604,-156.467,224
1565117112,304.279,117.314,-16.2967,178.66,1.604,-156.467,224
1565117112,304.279,117.314,-16.2967,178.66,1.604,-156.467,224
1565117112,304.279,117.314,-16.2967,178.66,1.604,-156.467,224
1565117112,304.279,117.314,-16.2967,178.66,1.604,-156.467,224
1565117112,304.279,117.314,-16.2967,178.66,1.604,-156.467,224
1565117112,304.279,117.314,-16.2967,178.66,1.604,-156.467,224
1565117112,304.279,117.314,-16.2967,178.66,1.604,-156.467,224
1565117112,304.279,117.202,-16.4083,178.66,1.604,-156.467,224
1565117112,304.279,117.202,-16.4083,178.66,1.604,-156.467,224
1565117124,343.012,76.7953,-15.9618,178.945,1.80176,-156.665,252
1565117124,343.012,76.7953,-15.9618,178.945,1.80176,-156.665,252
1565117124,343.012,76.7953,-15.9618,178.945,1.80176,-156.687,252
1565117124,343.012,76.7953,-15.8502,178.945,1.82373,-156.687,252
1565117124,343.012,76.7953,-15.8502,178.945,1.82373,-156.687,252
1565117124,343.012,76.7953,-15.8502,178.945,1.82373,-156.687,252
1565117124,343.012,76.7953,-15.8502,178.945,1.82373,-156.687,248
1565117124,343.012,76.7953,-15.8502,178.945,1.82373,-156.665,248
1565117124,343.012,76.7953,-15.8502,178.945,1.82373,-156.665,248
1565117124,343.012,76.7953,-15.8502,178.945,1.82373,-156.665,248
1565117124,343.012,76.7953,-15.8502,178.945,1.82373,-156.665,248
1565117124,343.012,76.7953,-15.8502,178.945,1.82373,-156.665,248
1565117124,343.012,76.7953,-15.8502,178.945,1.82373,-156.665,248
1565117124,343.012,76.7953,-15.8502,178.945,1.82373,-156.665,248
1565117124,343.012,76.7953,-15.8502,178.945,1.82373,-156.665,248
1565117124,343.012,76.7953,-15.8502,178.945,1.82373,-156.665,248
1565117124,343.012,76.7953,-15.8502,178.945,1.82373,-156.665,244
1565117124,343.012,76.7953,-15.8502,178.945,1.82373,-156.665,244
1565117124,343.012,76.7953,-15.8502,178.945,1.82373,-156.665,244
1565117124,343.012,76.7953,-15.8502,178.945,1.82373,-156.665,244
1565117124,343.012,76.7953,-15.8502,178.945,1.82373,-156.665,244
1565117124,343.012,76.7953,-15.8502,178.945,1.82373,-156.665,244
1565117124,343.012,76.7953,-15.8502,178.945,1.82373,-156.665,240
1565117124,343.012,76.7953,-15.8502,178.945,1.82373,-156.665,240
1565117124,343.012,76.7953,-15.8502,178.923,1.82373,-156.665,240
1565117124,343.012,76.7953,-15.8502,178.923,1.82373,-156.665,240
1565117124,343.012,76.7953,-15.8502,178.923,1.82373,-156.665,240
1565117124,343.012,76.7953,-15.8502,178.923,1.82373,-156.665,240
1565117124,343.012,76.7953,-15.8502,178.923,1.82373,-156.665,240
1565117124,343.012,76.7953,-15.8502,178.923,1.82373,-156.665,240
1565117124,343.012,76.7953,-15.8502,178.923,1.82373,-156.665,240
1565117124,343.012,76.7953,-15.8502,178.923,1.82373,-156.665,244
1565117124,343.012,76.7953,-15.8502,178.923,1.82373,-156.665,244
1565117124,343.012,76.7953,-15.8502,178.923,1.82373,-156.665,244
1565117124,343.012,76.7953,-15.9618,178.923,1.82373,-156.665,244
1565117124,343.012,76.7953,-15.9618,178.923,1.82373,-156.665,244
1565117124,343.012,76.7953,-15.9618,178.923,1.82373,-156.665,244
1565117124,343.012,76.7953,-15.9618,178.923,1.82373,-156.665,244
1565117124,343.012,76.7953,-15.9618,178.923,1.82373,-156.665,244
1565117124,343.012,76.7953,-15.9618,178.923,1.82373,-156.665,248
1565117124,343.012,76.7953,-15.8502,178.923,1.82373,-156.665,248
1565117124,343.012,76.7953,-15.8502,178.923,1.82373,-156.665,248
1565117124,343.012,76.7953,-15.8502,178.923,1.82373,-156.665,248
1565117124,343.012,76.7953,-15.8502,178.923,1.82373,-156.665,248
1565117124,343.012,76.7953,-15.8502,178.923,1.82373,-156.665,248
1565117124,343.012,76.7953,-15.8502,178.923,1.82373,-156.665,248
1565117124,343.012,76.7953,-15.8502,178.923,1.82373,-156.665,252
1565117124,343.012,76.7953,-15.9618,178.945,1.82373,-156.665,252
1565117124,343.012,76.7953,-15.9618,178.945,1.82373,-156.665,252
1565117124,343.012,76.7953,-15.9618,178.945,1.80176,-156.665,252
1565117124,343.012,76.9069,-15.9618,178.945,1.80176,-156.665,252
1565117125,343.012,76.9069,-15.9618,178.967,1.80176,-156.665,252
1565117125,343.012,76.9069,-15.9618,178.967,1.80176,-156.665,252
1565117125,343.012,76.9069,-15.9618,178.967,1.80176,-156.665,252
1565117125,343.012,76.9069,-15.9618,178.967,1.80176,-156.665,252
1565117125,343.012,76.9069,-15.9618,178.967,1.80176,-156.665,252
1565117125,343.012,76.9069,-15.9618,178.967,1.80176,-156.665,252
1565117125,343.012,76.9069,-15.9618,178.967,1.80176,-156.665,252
1565117125,343.012,76.9069,-15.9618,178.967,1.80176,-156.665,252
1565117125,343.012,76.9069,-15.9618,178.967,1.80176,-156.665,252
1565117125,343.012,76.9069,-15.9618,178.967,1.80176,-156.665,252
1565117125,343.012,76.9069,-15.9618,178.967,1.80176,-156.665,252
1565117125,343.012,76.9069,-15.9618,178.967,1.80176,-156.665,252
1565117125,343.012,76.9069,-15.9618,178.967,1.80176,-156.665,252
1565117125,343.012,76.9069,-15.9618,178.967,1.80176,-156.665,252
1565117125,343.012,76.9069,-15.9618,178.967,1.80176,-156.665,252
1565117125,343.012,76.9069,-15.9618,178.967,1.80176,-156.665,252
1565117125,343.012,76.9069,-15.9618,178.967,1.80176,-156.665,252
1565117125,343.012,76.9069,-15.9618,178.967,1.80176,-156.665,252
1565117125,343.012,76.9069,-15.9618,178.989,1.80176,-156.665,252
1565117125,343.012,76.9069,-15.9618,178.989,1.80176,-156.665,252
1565117125,343.012,76.9069,-15.9618,178.989,1.80176,-156.665,252
1565117125,343.012,76.9069,-15.9618,178.989,1.80176,-156.665,252
1565117125,343.012,76.9069,-15.9618,178.989,1.80176,-156.665,252
1565117125,343.012,76.9069,-15.9618,178.989,1.80176,-156.665,252
1565117125,343.012,76.9069,-15.9618,178.989,1.80176,-156.665,252
1565117125,343.012,76.9069,-15.9618,178.989,1.80176,-156.665,248
1565117125,343.012,76.9069,-15.9618,178.967,1.80176,-156.665,248
1565117125,343.012,76.9069,-15.9618,178.967,1.80176,-156.665,248
1565117125,343.012,76.9069,-15.9618,178.967,1.80176,-156.665,248
1565117125,343.012,76.9069,-15.9618,178.967,1.80176,-156.687,248
1565117125,343.012,76.9069,-15.9618,178.967,1.80176,-156.687,248
1565117125,343.012,76.9069,-15.9618,178.967,1.80176,-156.687,248
1565117125,343.012,76.9069,-15.9618,178.967,1.80176,-156.687,248
1565117125,343.012,76.9069,-15.9618,178.967,1.80176,-156.687,248
1565117125,343.012,76.9069,-15.9618,178.967,1.80176,-156.687,244
1565117125,343.012,76.9069,-15.9618,178.967,1.80176,-156.687,244
1565117125,343.012,76.9069,-15.9618,178.967,1.82373,-156.687,244
1565117125,343.012,76.9069,-15.9618,178.967,1.82373,-156.687,244
1565117125,343.012,76.9069,-15.8502,178.967,1.82373,-156.687,240
1565117125,343.012,76.9069,-15.8502,178.989,1.82373,-156.687,240
1565117125,343.012,76.9069,-15.8502,178.989,1.82373,-156.687,240
1565117125,343.012,76.9069,-15.8502,178.989,1.82373,-156.687,240
1565117125,343.012,76.9069,-15.8502,178.989,1.82373,-156.687,240
1565117125,343.012,76.9069,-15.8502,178.989,1.82373,-156.687,240
1565117125,343.012,76.9069,-15.8502,178.989,1.82373,-156.687,240
1565117125,343.012,76.9069,-15.8502,178.989,1.82373,-156.687,240
1565117125,343.012,76.9069,-15.8502,178.967,1.82373,-156.665,240
1565117125,343.012,76.9069,-15.8502,178.967,1.82373,-156.665,240
1565117125,343.012,76.9069,-15.8502,178.967,1.82373,-156.665,240
1565117125,343.012,76.9069,-15.8502,178.967,1.82373,-156.665,240
1565117125,343.012,76.9069,-15.8502,178.967,1.82373,-156.665,240
1565117125,343.012,76.9069,-15.8502,178.967,1.82373,-156.665,240
1565117125,343.012,76.9069,-15.8502,178.967,1.82373,-156.665,240
1565117125,342.9,76.9069,-15.8502,178.967,1.82373,-156.665,240
1565117125,342.9,76.9069,-15.8502,178.967,1.82373,-156.665,240
1565117125,342.9,76.9069,-15.8502,178.967,1.82373,-156.665,240
1565117125,342.9,76.9069,-15.8502,178.967,1.82373,-156.665,240
1565117125,342.9,76.9069,-15.8502,178.967,1.82373,-156.665,240
1565117125,342.9,76.9069,-15.8502,178.967,1.82373,-156.665,240
1565117125,342.9,76.9069,-15.8502,178.967,1.82373,-156.665,240
1565117125,342.9,76.9069,-15.8502,178.967,1.82373,-156.665,240
1565117125,342.9,76.9069,-15.8502,178.967,1.82373,-156.665,240
1565117125,342.9,76.9069,-15.8502,178.967,1.82373,-156.665,240
1565117125,342.9,76.9069,-15.8502,178.967,1.82373,-156.665,244
1565117125,342.9,76.9069,-15.8502,178.967,1.82373,-156.665,244
1565117125,342.9,76.9069,-15.8502,178.967,1.82373,-156.665,244
1565117125,342.9,76.9069,-15.8502,178.967,1.82373,-156.665,244
1565117125,342.9,76.9069,-15.8502,178.967,1.82373,-156.665,244
1565117125,342.9,76.9069,-15.8502,178.967,1.82373,-156.665,244
1565117125,342.9,76.9069,-15.8502,178.967,1.82373,-156.665,244
1565117125,342.9,76.9069,-15.8502,178.967,1.82373,-156.665,244
1565117125,342.9,76.9069,-15.8502,178.967,1.82373,-156.665,244
1565117125,342.9,76.9069,-15.8502,178.967,1.8457,-156.665,244
1565117125,342.9,76.9069,-15.8502,178.967,1.8457,-156.665,244
1565117125,342.9,76.9069,-15.8502,178.967,1.8457,-156.665,248
1565117125,342.9,76.9069,-15.8502,178.967,1.8457,-156.665,248
1565117125,342.9,76.9069,-15.8502,178.967,1.8457,-156.665,248
1565117125,342.9,76.9069,-15.8502,178.967,1.8457,-156.665,248
1565117125,342.9,76.9069,-15.8502,178.967,1.8457,-156.665,248
1565117125,342.9,76.9069,-15.8502,178.967,1.8457,-156.665,248
1565117125,342.9,76.9069,-15.8502,178.967,1.8457,-156.665,248
1565117125,342.9,76.9069,-15.8502,178.967,1.8457,-156.665,248
1565117125,342.9,76.9069,-15.8502,178.967,1.8457,-156.665,248
1565117125,342.9,76.9069,-15.8502,178.967,1.8457,-156.665,252
1565117125,342.9,76.9069,-15.8502,178.967,1.8457,-156.665,252
1565117125,342.9,76.9069,-15.8502,178.967,1.8457,-156.665,252
1565117125,342.9,76.9069,-15.8502,178.967,1.8457,-156.665,252
1565117125,342.9,76.9069,-15.8502,178.967,1.82373,-156.665,252
1565117125,342.9,76.9069,-15.8502,178.967,1.82373,-156.665,252
1565117125,342.9,76.9069,-15.8502,178.967,1.82373,-156.665,256
1565117125,342.9,76.9069,-15.8502,178.967,1.82373,-156.665,256
1565117125,342.9,76.9069,-15.8502,178.967,1.82373,-156.665,256
1565117125,342.9,76.9069,-15.9618,178.967,1.82373,-156.665,256
1565117125,342.9,76.9069,-15.9618,178.967,1.82373,-156.665,256
1565117125,342.9,76.9069,-15.9618,178.967,1.82373,-156.665,256
1565117125,342.9,76.9069,-15.9618,178.967,1.82373,-156.665,256
1565117125,342.9,76.9069,-15.9618,178.967,1.82373,-156.665,256
1565117125,342.9,76.7953,-15.9618,178.967,1.82373,-156.665,256
1565117125,342.9,76.7953,-15.9618,178.967,1.82373,-156.665,256
1565117125,342.9,76.7953,-15.9618,178.967,1.82373,-156.665,256
1565117126,342.9,76.7953,-15.9618,178.945,1.82373,-156.665,256
1565117126,342.9,76.7953,-15.9618,178.945,1.82373,-156.665,256
1565117126,342.9,76.7953,-15.9618,178.945,1.82373,-156.665,256
1565117126,342.9,76.7953,-15.9618,178.945,1.82373,-156.665,256
1565117126,342.9,76.7953,-15.9618,178.945,1.82373,-156.665,256
1565117126,342.9,76.7953,-15.9618,178.945,1.82373,-156.665,256
1565117126,342.9,76.7953,-15.9618,178.945,1.82373,-156.665,256
1565117126,342.9,76.7953,-15.9618,178.945,1.82373,-156.665,256
1565117126,342.9,76.7953,-15.9618,178.945,1.82373,-156.665,256
1565117126,343.012,76.7953,-15.9618,178.945,1.82373,-156.665,256
1565117126,343.012,76.7953,-15.8502,178.945,1.82373,-156.665,256
1565117126,343.012,76.7953,-15.8502,178.945,1.82373,-156.665,256
1565117126,342.9,76.7953,-15.8502,178.945,1.82373,-156.665,256
1565117126,342.9,76.7953,-15.8502,178.945,1.82373,-156.665,256
1565117126,342.9,76.7953,-15.8502,178.923,1.82373,-156.665,256
1565117126,342.9,76.7953,-15.8502,178.923,1.82373,-156.665,256
1565117126,342.9,76.7953,-15.8502,178.923,1.82373,-156.665,256
1565117126,342.9,76.7953,-15.9618,178.923,1.82373,-156.643,256
1565117126,342.9,76.7953,-15.9618,178.923,1.82373,-156.643,256
1565117126,342.9,76.7953,-15.9618,178.923,1.82373,-156.643,260
1565117126,342.9,76.7953,-15.9618,178.923,1.82373,-156.643,260
1565117126,342.9,76.7953,-15.9618,178.923,1.82373,-156.643,260
1565117126,342.9,76.7953,-15.9618,178.923,1.82373,-156.643,260
1565117126,342.9,76.7953,-15.9618,178.923,1.80176,-156.643,260
1565117126,342.9,76.7953,-15.9618,178.923,1.80176,-156.643,260
1565117126,342.9,76.7953,-15.9618,178.923,1.80176,-156.643,260
1565117126,342.9,76.7953,-15.9618,178.923,1.80176,-156.643,260
1565117126,342.9,76.7953,-15.9618,178.923,1.80176,-156.643,260
1565117126,342.9,76.7953,-15.9618,178.923,1.80176,-156.643,260
1565117126,342.9,76.7953,-15.9618,178.923,1.82373,-156.643,264
1565117126,342.9,76.7953,-15.9618,178.923,1.80176,-156.643,264
1565117126,342.9,76.7953,-15.9618,178.923,1.80176,-156.643,264
1565117126,342.9,76.7953,-15.9618,178.923,1.80176,-156.665,264
1565117126,342.9,76.7953,-15.9618,178.923,1.80176,-156.665,264
1565117126,342.9,76.7953,-15.9618,178.923,1.80176,-156.665,268
1565117126,342.9,76.7953,-15.9618,178.923,1.80176,-156.665,268
1565117126,342.9,76.7953,-15.9618,178.923,1.80176,-156.665,268
1565117126,342.9,76.7953,-15.9618,178.923,1.80176,-156.665,268
1565117126,342.9,76.7953,-15.9618,178.923,1.80176,-156.665,268
1565117126,342.9,76.7953,-15.9618,178.945,1.80176,-156.665,268
1565117126,342.9,76.7953,-15.9618,178.945,1.80176,-156.665,272
1565117126,342.9,76.7953,-15.9618,178.945,1.80176,-156.665,272
1565117126,342.9,76.7953,-15.9618,178.945,1.80176,-156.665,272
1565117126,342.9,76.7953,-15.9618,178.945,1.80176,-156.665,272
1565117126,342.9,76.7953,-15.9618,178.945,1.80176,-156.665,268
1565117126,342.9,76.7953,-15.9618,178.945,1.80176,-156.665,268
1565117126,342.9,76.7953,-15.9618,178.945,1.80176,-156.665,268
1565117126,342.9,76.7953,-15.9618,178.945,1.80176,-156.665,268
1565117126,342.9,76.7953,-15.9618,178.945,1.80176,-156.665,268
1565117126,342.9,76.7953,-15.9618,178.945,1.80176,-156.665,268
1565117126,342.9,76.7953,-15.9618,178.945,1.80176,-156.665,268
1565117126,342.9,76.7953,-15.9618,178.945,1.80176,-156.665,268
1565117126,342.9,76.7953,-15.9618,178.945,1.80176,-156.665,268
1565117126,342.9,76.7953,-15.9618,178.945,1.80176,-156.665,268
1565117126,342.9,76.7953,-15.9618,178.945,1.80176,-156.665,264
1565117126,342.9,76.7953,-15.9618,178.945,1.80176,-156.665,264
1565117126,342.9,76.7953,-15.9618,178.945,1.80176,-156.665,264
1565117126,342.9,76.7953,-15.9618,178.945,1.80176,-156.665,264
1565117126,342.9,76.7953,-15.9618,178.945,1.80176,-156.665,264
1565117126,342.9,76.7953,-15.9618,178.945,1.80176,-156.665,264
1565117126,342.9,76.7953,-15.9618,178.945,1.80176,-156.665,264
1565117126,342.9,76.7953,-15.9618,178.945,1.80176,-156.665,260
1565117126,342.9,76.7953,-15.9618,178.945,1.80176,-156.665,260
1565117126,342.9,76.7953,-15.9618,178.945,1.80176,-156.665,260
1565117126,342.9,76.7953,-15.9618,178.945,1.80176,-156.665,260
1565117126,342.9,76.7953,-15.9618,178.945,1.80176,-156.665,260
1565117126,342.9,76.7953,-15.9618,178.945,1.80176,-156.665,260
1565117126,342.9,76.7953,-15.9618,178.945,1.80176,-156.665,260
1565117126,342.9,76.7953,-15.9618,178.967,1.80176,-156.665,260
1565117126,342.9,76.9069,-15.9618,178.967,1.80176,-156.665,260
1565117126,342.9,76.9069,-15.9618,178.967,1.80176,-156.665,260
1565117126,342.9,76.9069,-15.9618,178.967,1.80176,-156.665,260
1565117126,342.9,76.9069,-15.9618,178.967,1.80176,-156.665,260
1565117126,342.9,76.9069,-15.9618,178.967,1.80176,-156.665,260
1565117126,342.9,76.9069,-15.9618,178.967,1.80176,-156.665,260
1565117126,342.9,76.9069,-15.9618,178.967,1.80176,-156.665,260
1565117126,342.9,76.9069,-15.9618,178.967,1.80176,-156.665,260
1565117126,342.9,76.9069,-15.9618,178.967,1.80176,-156.665,260
1565117126,342.9,76.9069,-15.9618,178.967,1.80176,-156.665,260
1565117126,342.9,76.9069,-15.9618,178.967,1.80176,-156.665,260
1565117126,342.9,76.9069,-15.9618,178.967,1.80176,-156.665,260
1565117126,342.9,76.9069,-15.9618,178.967,1.80176,-156.665,260
1565117126,342.9,76.9069,-15.9618,178.967,1.80176,-156.665,260
1565117126,342.9,76.9069,-15.9618,178.967,1.80176,-156.665,256
1565117126,342.9,76.9069,-15.9618,178.967,1.80176,-156.687,256
1565117126,342.9,76.9069,-15.9618,178.967,1.80176,-156.687,256
1565117126,342.9,76.9069,-15.9618,178.967,1.80176,-156.687,256
1565117126,342.9,76.9069,-15.9618,178.967,1.80176,-156.687,256
1565117126,342.9,76.9069,-15.9618,178.967,1.80176,-156.687,256
1565117126,342.9,76.9069,-15.9618,178.967,1.80176,-156.687,256
1565117126,342.9,76.9069,-15.9618,178.967,1.80176,-156.687,256
1565117126,342.9,76.9069,-15.9618,178.967,1.80176,-156.687,256
1565117126,342.9,76.9069,-15.9618,178.967,1.82373,-156.687,256
1565117126,342.9,76.9069,-15.9618,178.967,1.82373,-156.687,256
1565117126,342.9,76.9069,-15.8502,178.967,1.82373,-156.687,256
1565117126,342.9,76.9069,-15.8502,178.967,1.82373,-156.687,256
1565117126,342.9,76.9069,-15.8502,178.967,1.82373,-156.687,256
1565117126,342.9,76.9069,-15.8502,178.967,1.82373,-156.687,256
1565117126,342.9,76.9069,-15.8502,178.967,1.82373,-156.687,256
1565117126,342.9,76.7953,-15.8502,178.945,1.82373,-156.687,256
1565117127,342.9,76.7953,-15.8502,178.945,1.82373,-156.687,256
1565117127,342.9,76.7953,-15.8502,178.945,1.82373,-156.687,256
1565117127,342.9,76.7953,-15.8502,178.945,1.82373,-156.687,256
1565117127,342.9,76.7953,-15.8502,178.945,1.82373,-156.709,256
1565117127,342.9,76.7953,-15.8502,178.945,1.82373,-156.709,256
1565117127,342.9,76.7953,-15.8502,178.945,1.82373,-156.709,260
1565117127,342.9,76.7953,-15.8502,178.945,1.82373,-156.709,260
1565117127,342.9,76.7953,-15.8502,178.945,1.82373,-156.709,260
1565117127,342.9,76.7953,-15.9618,178.945,1.82373,-156.687,260
1565117127,342.9,76.7953,-15.9618,178.945,1.82373,-156.687,260
1565117127,342.9,76.7953,-15.9618,178.945,1.82373,-156.687,260
1565117127,342.9,76.7953,-15.9618,178.945,1.82373,-156.687,260
1565117127,342.9,76.7953,-15.9618,178.945,1.82373,-156.687,260
1565117127,342.9,76.7953,-15.9618,178.945,1.80176,-156.687,260
1565117127,342.9,76.7953,-15.9618,178.945,1.80176,-156.687,260
1565117127,342.9,76.7953,-15.9618,178.945,1.80176,-156.687,260
1565117127,342.9,76.7953,-15.9618,178.945,1.80176,-156.687,260
1565117127,342.9,76.7953,-15.9618,178.945,1.80176,-156.687,260
1565117127,342.9,76.7953,-15.9618,178.945,1.80176,-156.687,260
1565117127,342.9,76.7953,-15.9618,178.945,1.80176,-156.687,260
1565117127,342.9,76.7953,-15.9618,178.945,1.80176,-156.687,260
1565117127,342.9,76.7953,-15.9618,178.945,1.80176,-156.687,260
1565117127,342.9,76.7953,-15.9618,178.945,1.80176,-156.687,260
1565117127,342.9,76.9069,-15.9618,178.945,1.80176,-156.687,256
1565117127,342.9,76.9069,-15.9618,178.945,1.80176,-156.687,256
1565117127,342.9,76.9069,-15.9618,178.945,1.80176,-156.687,256
1565117127,342.9,76.9069,-15.9618,178.945,1.80176,-156.687,256
1565117127,342.9,76.9069,-15.9618,178.945,1.80176,-156.687,256
1565117127,342.9,76.9069,-15.9618,178.967,1.80176,-156.665,252
1565117127,342.9,76.9069,-15.9618,178.967,1.80176,-156.665,252
1565117127,342.9,76.9069,-15.9618,178.967,1.80176,-156.665,252
1565117127,342.9,76.9069,-15.9618,178.967,1.80176,-156.665,252
1565117127,342.9,76.9069,-15.9618,178.967,1.80176,-156.665,252
1565117127,342.9,76.9069,-15.9618,178.967,1.80176,-156.665,252
1565117127,342.9,76.9069,-15.9618,178.967,1.80176,-156.665,252
1565117127,342.9,76.9069,-15.9618,178.967,1.80176,-156.665,248
1565117127,342.9,76.9069,-15.9618,178.967,1.80176,-156.665,248
1565117127,342.9,76.9069,-15.9618,178.967,1.80176,-156.665,248
1565117127,342.9,76.9069,-15.9618,178.967,1.80176,-156.665,248
1565117127,342.9,76.9069,-15.9618,178.967,1.80176,-156.665,248
1565117127,342.9,76.9069,-15.9618,178.967,1.80176,-156.665,248
1565117127,342.9,76.9069,-15.9618,178.967,1.80176,-156.665,248
1565117127,342.9,76.9069,-15.9618,178.967,1.80176,-156.665,248
1565117127,342.9,76.9069,-15.9618,178.967,1.80176,-156.665,248
1565117127,342.9,76.9069,-15.9618,178.967,1.80176,-156.687,248
1565117127,342.9,76.9069,-15.9618,178.967,1.80176,-156.687,248
1565117127,342.9,76.9069,-15.9618,178.967,1.80176,-156.687,248
1565117127,342.9,76.9069,-15.9618,178.967,1.80176,-156.687,248
1565117127,342.9,76.9069,-15.9618,178.967,1.80176,-156.687,248
1565117127,342.9,76.9069,-15.9618,178.967,1.80176,-156.687,248
1565117127,342.9,76.9069,-15.9618,178.967,1.80176,-156.687,248
1565117127,342.9,76.9069,-15.9618,178.967,1.80176,-156.687,248
1565117127,342.9,76.9069,-15.9618,178.967,1.80176,-156.687,248
1565117127,342.9,76.9069,-15.9618,178.967,1.80176,-156.687,248
1565117127,342.9,76.9069,-15.9618,178.967,1.80176,-156.687,248
1565117127,342.9,76.9069,-15.9618,178.967,1.80176,-156.687,248
1565117127,342.9,76.9069,-15.9618,178.989,1.80176,-156.687,248
1565117127,342.9,76.9069,-15.9618,178.989,1.80176,-156.687,248
1565117127,342.9,76.9069,-15.9618,178.989,1.80176,-156.687,248
1565117127,342.9,76.9069,-15.9618,178.989,1.80176,-156.687,248
1565117127,342.9,76.9069,-15.9618,178.989,1.80176,-156.687,248
1565117127,342.9,76.9069,-15.9618,178.989,1.80176,-156.687,248
1565117127,342.9,76.9069,-15.9618,178.989,1.80176,-156.687,248
1565117127,342.9,76.9069,-15.9618,178.989,1.80176,-156.687,244
1565117127,342.9,76.9069,-15.9618,178.989,1.80176,-156.687,244
1565117127,342.9,76.9069,-15.9618,178.989,1.80176,-156.687,244
1565117127,342.9,76.9069,-15.9618,178.989,1.80176,-156.687,244
1565117127,342.9,76.9069,-15.9618,178.989,1.80176,-156.687,244
1565117127,342.9,76.9069,-15.9618,178.967,1.80176,-156.687,244
1565117127,342.9,76.9069,-15.9618,178.967,1.80176,-156.687,244
1565117127,342.9,76.9069,-15.9618,178.967,1.80176,-156.687,244
1565117127,342.9,76.9069,-15.9618,178.967,1.80176,-156.687,244
1565117127,342.9,76.9069,-15.9618,178.967,1.80176,-156.687,244
1565117127,342.9,76.9069,-15.9618,178.967,1.80176,-156.687,244
1565117127,342.9,76.9069,-15.9618,178.967,1.80176,-156.687,244
1565117127,342.9,76.9069,-15.9618,178.967,1.80176,-156.687,244
1565117127,342.9,76.9069,-15.9618,178.967,1.80176,-156.687,244
1565117127,342.9,76.9069,-15.9618,178.967,1.80176,-156.687,244
1565117127,342.9,76.9069,-15.9618,178.967,1.80176,-156.687,248
1565117127,342.9,76.9069,-15.9618,178.967,1.80176,-156.687,248
1565117127,342.9,76.9069,-15.9618,178.967,1.80176,-156.687,248
1565117127,342.9,76.9069,-15.9618,178.967,1.80176,-156.687,248
1565117127,342.9,76.9069,-15.9618,178.967,1.80176,-156.687,248
1565117127,342.9,76.9069,-15.9618,178.967,1.80176,-156.687,248
1565117127,342.9,76.9069,-15.9618,178.967,1.80176,-156.687,248
1565117127,342.9,76.9069,-15.9618,178.967,1.80176,-156.687,248
1565117127,342.9,76.9069,-15.9618,178.967,1.80176,-156.687,248
1565117127,342.9,76.9069,-15.9618,178.967,1.80176,-156.687,248
1565117127,342.9,76.9069,-15.9618,178.967,1.80176,-156.687,248
1565117127,342.9,76.9069,-15.9618,178.967,1.80176,-156.687,248
1565117127,342.9,76.9069,-15.9618,178.967,1.80176,-156.687,248
1565117127,342.9,76.9069,-15.9618,178.967,1.80176,-156.687,248
1565117127,342.9,76.9069,-15.9618,178.967,1.77979,-156.665,252
1565117127,342.9,76.9069,-15.9618,178.967,1.77979,-156.665,252
1565117127,342.9,76.9069,-15.9618,178.967,1.77979,-156.665,252
1565117127,342.9,76.9069,-15.9618,178.967,1.77979,-156.665,252
1565117127,342.9,76.9069,-15.9618,178.967,1.77979,-156.665,252
1565117127,342.9,76.9069,-15.9618,178.967,1.77979,-156.665,256
1565117127,342.9,76.9069,-15.9618,178.967,1.77979,-156.665,256
1565117127,342.9,76.9069,-16.0734,178.967,1.77979,-156.665,256
1565117128,342.9,76.9069,-16.0734,178.967,1.77979,-156.665,256
1565117128,342.9,76.9069,-16.0734,178.967,1.77979,-156.665,256
1565117128,342.9,76.9069,-16.0734,178.967,1.77979,-156.665,260
1565117128,342.9,76.9069,-16.0734,178.967,1.77979,-156.665,260
1565117128,342.9,76.9069,-16.0734,178.967,1.77979,-156.665,260
1565117128,342.9,76.9069,-16.0734,178.967,1.77979,-156.665,260
1565117128,342.9,76.9069,-16.0734,178.967,1.77979,-156.665,260
1565117128,342.9,76.9069,-15.9618,178.967,1.77979,-156.665,260
1565117128,342.9,76.9069,-15.9618,178.967,1.77979,-156.665,260
1565117128,342.9,76.9069,-15.9618,178.967,1.77979,-156.665,260
