time,x,y,z,ax,ay,az,q
1569849742,293.229,150.019,-4.46484,176.177,4.98779,-146.865,512
1569849742,293.229,150.019,-4.46484,176.177,4.98779,-146.865,512
1569849742,293.229,150.019,-4.46484,176.177,4.98779,-146.865,512
1569849742,293.229,150.019,-4.57646,176.177,4.98779,-146.865,508
1569849742,293.229,150.019,-4.57646,176.177,4.98779,-146.865,512
1569849742,293.229,150.13,-4.57646,176.177,4.98779,-146.865,512
1569849742,293.229,150.13,-4.57646,176.177,4.98779,-146.865,512
1569849742,293.229,150.13,-4.57646,176.177,4.98779,-146.865,512
1569849742,293.229,150.13,-4.57646,176.177,4.98779,-146.865,512
1569849742,293.229,150.13,-4.57646,176.177,4.98779,-146.865,512
1569849742,293.229,150.13,-4.57646,176.177,4.98779,-146.865,512
1569849742,293.229,150.13,-4.57646,176.177,4.98779,-146.865,512
1569849742,293.229,150.13,-4.46484,176.177,4.98779,-146.865,512
1569849742,293.229,150.13,-4.46484,176.177,4.98779,-146.865,512
1569849742,293.229,150.13,-4.46484,176.199,5.00977,-146.865,512
1569849742,293.229,150.13,-4.46484,176.199,5.00977,-146.865,512
1569849742,293.229,150.13,-4.46484,176.199,5.00977,-146.865,512
1569849742,293.229,150.13,-4.46484,176.199,5.00977,-146.865,512
1569849742,293.229,150.13,-4.46484,176.199,5.00977,-146.865,512
1569849742,293.229,150.13,-4.46484,176.199,5.00977,-146.865,512
1569849742,293.229,150.13,-4.46484,176.199,5.00977,-146.865,512
1569849742,293.229,150.13,-4.57646,176.199,4.98779,-146.865,508
1569849742,293.229,150.13,-4.57646,176.199,4.98779,-146.865,508
1569849742,293.229,150.13,-4.57646,176.199,4.98779,-146.865,508
1569849742,293.229,150.13,-4.57646,176.199,4.98779,-146.865,508
1569849742,293.229,150.13,-4.57646,176.199,4.98779,-146.865,508
1569849742,293.229,150.13,-4.57646,176.199,4.98779,-146.865,508
1569849742,293.229,150.13,-4.57646,176.177,4.98779,-146.865,508
1569849742,293.229,150.13,-4.57646,176.177,4.98779,-146.865,508
1569849742,293.229,150.13,-4.57646,176.177,4.98779,-146.865,504
1569849742,293.229,150.13,-4.57646,176.177,4.98779,-146.865,504
1569849742,293.229,150.13,-4.57646,176.177,4.98779,-146.865,504
1569849742,293.229,150.13,-4.57646,176.177,4.98779,-146.865,504
1569849742,293.229,150.13,-4.57646,176.177,4.98779,-146.865,504
1569849742,293.229,150.019,-4.57646,176.177,4.98779,-146.865,504
1569849742,293.229,150.13,-4.57646,176.177,4.98779,-146.865,504
1569849742,293.229,150.13,-4.57646,176.177,4.98779,-146.865,504
1569849742,293.229,150.13,-4.57646,176.177,4.98779,-146.865,504
1569849742,293.229,150.13,-4.57646,176.177,4.98779,-146.865,504
1569849742,293.229,150.13,-4.57646,176.177,4.98779,-146.865,504
1569849742,293.229,150.019,-4.57646,176.177,4.98779,-146.865,504
1569849742,293.229,150.019,-4.57646,176.177,4.98779,-146.865,500
1569849742,293.229,150.13,-4.57646,176.177,4.98779,-146.865,500
1569849742,293.229,150.13,-4.57646,176.199,4.98779,-146.865,500
1569849742,293.229,150.13,-4.57646,176.199,4.98779,-146.865,500
1569849742,293.229,150.13,-4.57646,176.199,4.98779,-146.865,500
1569849742,293.229,150.13,-4.57646,176.199,4.98779,-146.865,500
1569849742,293.229,150.13,-4.46484,176.199,4.98779,-146.865,500
1569849742,293.229,150.13,-4.46484,176.199,4.98779,-146.865,500
1569849742,293.229,150.13,-4.46484,176.199,4.98779,-146.865,500
1569849742,293.229,150.13,-4.46484,176.199,5.00977,-146.865,500
1569849742,293.229,150.13,-4.46484,176.199,5.00977,-146.865,500
1569849742,293.229,150.13,-4.46484,176.199,5.00977,-146.865,500
1569849742,293.229,150.13,-4.46484,176.199,5.00977,-146.865,500
1569849742,293.229,150.13,-4.46484,176.199,5.00977,-146.865,500
1569849742,293.229,150.13,-4.46484,176.199,5.00977,-146.865,500
1569849742,293.229,150.13,-4.46484,176.199,5.00977,-146.865,500
1569849742,293.229,150.13,-4.46484,176.199,5.00977,-146.865,500
1569849742,293.229,150.13,-4.46484,176.199,5.00977,-146.865,500
1569849742,293.117,150.13,-4.46484,176.199,5.00977,-146.865,500
1569849742,293.117,150.13,-4.46484,176.199,5.00977,-146.865,500
1569849742,293.117,150.13,-4.46484,176.199,5.00977,-146.865,500
1569849742,293.229,150.13,-4.46484,176.199,5.00977,-146.865,500
1569849742,293.229,150.13,-4.46484,176.199,5.00977,-146.865,500
1569849742,293.229,150.13,-4.46484,176.199,5.00977,-146.865,504
1569849742,293.229,150.13,-4.46484,176.199,5.00977,-146.865,504
1569849742,293.229,150.13,-4.46484,176.199,5.00977,-146.865,504
1569849742,293.229,150.13,-4.46484,176.199,5.00977,-146.865,504
1569849742,293.229,150.13,-4.46484,176.199,5.00977,-146.865,504
1569849742,293.229,150.019,-4.46484,176.199,5.00977,-146.865,504
1569849742,293.229,150.019,-4.46484,176.199,5.00977,-146.865,504
1569849742,293.229,150.019,-4.46484,176.177,5.00977,-146.865,504
1569849742,293.229,150.019,-4.46484,176.177,5.00977,-146.865,504
1569849742,293.229,150.019,-4.46484,176.177,5.00977,-146.865,504
1569849742,293.229,150.019,-4.46484,176.177,5.00977,-146.865,504
1569849742,293.229,150.019,-4.46484,176.177,5.00977,-146.865,504
1569849742,293.229,150.019,-4.46484,176.177,5.00977,-146.887,504
1569849742,293.229,150.019,-4.46484,176.177,5.00977,-146.887,504
1569849742,293.229,150.019,-4.46484,176.177,5.00977,-146.887,504
1569849742,293.229,150.019,-4.46484,176.177,5.00977,-146.887,504
1569849742,293.229,150.019,-4.46484,176.177,4.98779,-146.865,504
1569849742,293.229,150.019,-4.46484,176.177,4.98779,-146.865,504
1569849742,293.229,150.019,-4.57646,176.177,4.98779,-146.865,504
1569849742,293.229,150.019,-4.57646,176.177,4.98779,-146.865,504
1569849743,293.229,150.019,-4.57646,176.177,4.98779,-146.865,504
1569849743,293.229,150.019,-4.57646,176.177,4.98779,-146.865,504
1569849743,293.229,150.019,-4.57646,176.177,4.98779,-146.865,504
1569849743,293.229,150.019,-4.57646,176.177,4.98779,-146.865,504
1569849743,293.229,150.019,-4.57646,176.177,4.98779,-146.865,504
1569849743,293.229,150.019,-4.57646,176.177,4.98779,-146.865,504
1569849743,293.229,150.019,-4.57646,176.177,4.98779,-146.865,504
1569849743,293.229,150.019,-4.57646,176.177,4.98779,-146.865,508
1569849743,293.229,150.019,-4.57646,176.177,4.98779,-146.865,508
1569849743,293.229,150.019,-4.57646,176.177,4.98779,-146.865,508
1569849743,293.229,150.019,-4.57646,176.177,4.98779,-146.865,508
1569849743,293.229,150.019,-4.57646,176.177,4.98779,-146.865,508
1569849743,293.229,150.019,-4.57646,176.177,4.98779,-146.865,508
1569849743,293.229,150.019,-4.57646,176.177,4.98779,-146.865,512
1569849743,293.229,150.019,-4.57646,176.177,4.98779,-146.865,512
1569849743,293.229,150.019,-4.57646,176.177,4.98779,-146.865,512
1569849743,293.229,150.13,-4.57646,176.177,4.98779,-146.865,512
1569849743,293.229,150.13,-4.57646,176.177,4.98779,-146.865,512
1569849743,293.229,150.13,-4.57646,176.177,4.98779,-146.865,512
1569849743,293.229,150.13,-4.57646,176.177,4.98779,-146.865,512
1569849743,293.229,150.13,-4.57646,176.177,4.98779,-146.865,512
1569849743,293.229,150.13,-4.57646,176.177,4.98779,-146.843,512
1569849743,293.229,150.13,-4.57646,176.177,4.98779,-146.843,512
1569849743,293.229,150.13,-4.57646,176.177,4.98779,-146.843,512
1569849743,293.229,150.13,-4.57646,176.199,4.98779,-146.865,512
1569849743,293.229,150.13,-4.57646,176.199,4.98779,-146.865,512
1569849743,293.229,150.13,-4.57646,176.199,4.98779,-146.865,512
1569849743,293.229,150.13,-4.57646,176.199,4.98779,-146.865,512
1569849743,293.229,150.13,-4.57646,176.199,4.98779,-146.865,512
1569849743,293.229,150.13,-4.57646,176.199,4.98779,-146.865,512
1569849743,293.229,150.13,-4.57646,176.199,4.98779,-146.865,512
1569849743,293.229,150.13,-4.57646,176.199,4.98779,-146.865,512
1569849743,293.229,150.13,-4.57646,176.199,4.98779,-146.865,512
1569849743,293.229,150.13,-4.57646,176.199,4.98779,-146.865,512
1569849743,293.229,150.13,-4.57646,176.199,4.98779,-146.865,512
1569849743,293.229,150.13,-4.46484,176.199,4.98779,-146.865,512
1569849743,293.229,150.13,-4.46484,176.199,5.00977,-146.865,512
1569849743,293.229,150.13,-4.46484,176.199,5.00977,-146.865,512
1569849743,293.229,150.13,-4.46484,176.199,5.00977,-146.865,512
1569849743,293.229,150.13,-4.46484,176.199,5.00977,-146.865,512
1569849743,293.229,150.13,-4.46484,176.199,5.00977,-146.865,512
1569849743,293.229,150.13,-4.46484,176.199,5.00977,-146.865,512
1569849743,293.229,150.13,-4.46484,176.199,5.00977,-146.865,512
1569849743,293.229,150.13,-4.46484,176.199,5.00977,-146.865,512
1569849743,293.229,150.13,-4.46484,176.199,5.00977,-146.865,512
1569849743,293.229,150.13,-4.46484,176.199,5.00977,-146.865,512
1569849743,293.229,150.13,-4.46484,176.199,5.00977,-146.865,512
1569849743,293.229,150.13,-4.46484,176.199,5.00977,-146.865,512
1569849743,293.229,150.13,-4.46484,176.199,5.00977,-146.865,512
1569849743,293.229,150.13,-4.46484,176.199,5.00977,-146.865,512
1569849743,293.229,150.13,-4.46484,176.199,5.00977,-146.865,512
1569849743,293.229,150.13,-4.46484,176.199,5.00977,-146.865,512
1569849743,293.229,150.13,-4.46484,176.199,5.00977,-146.865,512
1569849743,293.229,150.13,-4.46484,176.199,5.00977,-146.865,512
1569849743,293.229,150.13,-4.46484,176.199,5.00977,-146.865,512
1569849743,293.229,150.13,-4.46484,176.199,5.00977,-146.865,512
1569849743,293.229,150.13,-4.46484,176.199,5.00977,-146.865,512
1569849743,293.229,150.13,-4.46484,176.221,5.00977,-146.865,512
1569849743,293.229,150.13,-4.46484,176.221,5.00977,-146.865,512
1569849743,293.229,150.13,-4.46484,176.221,5.00977,-146.865,508
1569849743,293.229,150.13,-4.46484,176.221,5.00977,-146.865,508
1569849743,293.229,150.13,-4.46484,176.221,5.00977,-146.865,508
1569849743,293.229,150.13,-4.46484,176.221,5.00977,-146.865,508
1569849743,293.117,150.13,-4.46484,176.221,5.00977,-146.865,508
1569849743,293.117,150.13,-4.46484,176.221,5.00977,-146.865,508
1569849743,293.117,150.13,-4.46484,176.221,4.98779,-146.865,508
1569849743,293.117,150.13,-4.46484,176.221,4.98779,-146.865,508
1569849743,293.117,150.13,-4.57646,176.221,4.98779,-146.865,508
1569849743,293.117,150.13,-4.57646,176.221,4.98779,-146.865,508
1569849743,293.117,150.13,-4.57646,176.221,4.98779,-146.865,508
1569849743,293.117,150.13,-4.57646,176.221,4.98779,-146.865,508
1569849743,293.117,150.13,-4.57646,176.221,4.98779,-146.865,504
1569849743,293.117,150.13,-4.57646,176.221,4.98779,-146.865,504
1569849743,293.117,150.13,-4.57646,176.221,4.98779,-146.865,504
1569849743,293.117,150.13,-4.57646,176.221,4.98779,-146.865,504
1569849743,293.117,150.13,-4.57646,176.221,4.98779,-146.865,504
1569849743,293.117,150.13,-4.57646,176.199,4.98779,-146.865,504
1569849743,293.117,150.13,-4.57646,176.199,4.98779,-146.865,504
1569849743,293.117,150.13,-4.57646,176.199,4.98779,-146.865,504
1569849743,293.117,150.13,-4.57646,176.199,4.98779,-146.865,504
1569849743,293.117,150.13,-4.57646,176.199,4.98779,-146.865,504
1569849743,293.229,150.13,-4.57646,176.199,4.98779,-146.865,504
1569849743,293.229,150.13,-4.57646,176.199,4.98779,-146.865,504
1569849743,293.229,150.13,-4.57646,176.199,4.98779,-146.865,504
1569849743,293.229,150.13,-4.57646,176.199,4.98779,-146.865,504
1569849743,293.229,150.13,-4.57646,176.199,4.98779,-146.865,504
1569849743,293.229,150.13,-4.57646,176.199,4.98779,-146.865,504
1569849743,293.229,150.13,-4.57646,176.199,4.98779,-146.865,504
1569849743,293.229,150.13,-4.57646,176.199,5.00977,-146.865,504
1569849743,293.229,150.13,-4.57646,176.199,5.00977,-146.865,504
1569849743,293.229,150.13,-4.46484,176.199,5.00977,-146.865,504
1569849743,293.229,150.13,-4.46484,176.199,5.00977,-146.865,504
1569849743,293.229,150.13,-4.46484,176.199,5.00977,-146.865,504
1569849743,293.229,150.13,-4.46484,176.199,5.00977,-146.865,504
1569849743,293.229,150.13,-4.46484,176.199,5.00977,-146.865,504
1569849743,293.229,150.13,-4.46484,176.199,5.00977,-146.865,504
1569849743,293.229,150.13,-4.46484,176.199,5.00977,-146.865,504
1569849743,293.229,150.13,-4.46484,176.199,5.00977,-146.865,504
1569849743,293.229,150.13,-4.46484,176.199,5.00977,-146.865,500
1569849743,293.229,150.13,-4.46484,176.199,5.00977,-146.865,500
1569849744,293.229,150.13,-4.46484,176.199,5.00977,-146.865,500
1569849744,293.229,150.13,-4.46484,176.199,5.00977,-146.865,500
1569849744,293.229,150.13,-4.46484,176.199,5.00977,-146.865,500
1569849744,293.229,150.13,-4.46484,176.199,5.00977,-146.865,500
1569849744,293.229,150.13,-4.46484,176.199,5.00977,-146.865,500
1569849744,293.229,150.13,-4.46484,176.199,5.00977,-146.865,500
1569849744,293.229,150.13,-4.46484,176.199,5.00977,-146.865,500
1569849744,293.229,150.13,-4.46484,176.199,5.00977,-146.865,500
1569849744,293.229,150.13,-4.46484,176.199,5.00977,-146.865,500
1569849744,293.229,150.13,-4.46484,176.199,5.00977,-146.865,500
1569849744,293.229,150.13,-4.46484,176.199,5.00977,-146.865,504
1569849744,293.229,150.13,-4.46484,176.199,5.00977,-146.865,504
1569849744,293.229,150.13,-4.46484,176.199,5.00977,-146.865,504
1569849744,293.229,150.13,-4.46484,176.199,5.00977,-146.865,504
1569849744,293.229,150.13,-4.57646,176.199,5.00977,-146.865,504
1569849744,293.229,150.13,-4.57646,176.199,4.98779,-146.865,504
1569849744,293.229,150.13,-4.57646,176.199,4.98779,-146.865,504
1569849744,293.229,150.13,-4.57646,176.199,4.98779,-146.865,504
1569849744,293.229,150.13,-4.57646,176.199,4.98779,-146.865,508
1569849744,293.229,150.13,-4.57646,176.199,4.98779,-146.865,508
1569849744,293.229,150.13,-4.57646,176.221,4.98779,-146.865,508
1569849744,293.229,150.13,-4.57646,176.221,4.98779,-146.865,508
1569849744,293.229,150.13,-4.57646,176.221,4.98779,-146.865,508
1569849744,293.229,150.13,-4.57646,176.199,4.98779,-146.865,508
1569849744,293.229,150.13,-4.57646,176.199,4.98779,-146.865,508
1569849744,293.229,150.13,-4.57646,176.199,4.98779,-146.865,508
1569849744,293.229,150.13,-4.57646,176.199,4.98779,-146.865,508
1569849744,293.229,150.13,-4.57646,176.199,4.98779,-146.865,508
1569849744,293.229,150.13,-4.57646,176.199,4.96582,-146.865,508
1569849744,293.229,150.13,-4.57646,176.199,4.96582,-146.865,508
1569849744,293.117,150.13,-4.57646,176.199,4.96582,-146.865,508
1569849744,293.117,150.13,-4.57646,176.199,4.96582,-146.865,504
1569849744,293.117,150.13,-4.57646,176.199,4.96582,-146.865,504
1569849744,293.117,150.13,-4.57646,176.199,4.96582,-146.865,504
1569849744,293.117,150.13,-4.57646,176.199,4.96582,-146.865,504
1569849744,293.117,150.13,-4.57646,176.199,4.96582,-146.865,504
1569849744,293.117,150.13,-4.57646,176.199,4.96582,-146.865,504
1569849744,293.117,150.13,-4.57646,176.199,4.96582,-146.865,504
1569849744,293.117,150.13,-4.57646,176.199,4.96582,-146.865,504
1569849744,293.117,150.13,-4.57646,176.199,4.96582,-146.865,504
1569849744,293.117,150.13,-4.57646,176.199,4.96582,-146.865,504
1569849744,293.229,150.13,-4.57646,176.199,4.96582,-146.865,504
1569849744,293.229,150.13,-4.57646,176.199,4.96582,-146.865,504
1569849744,293.229,150.13,-4.57646,176.199,4.96582,-146.865,504
1569849744,293.229,150.13,-4.57646,176.199,4.96582,-146.865,504
1569849744,293.229,150.13,-4.57646,176.199,4.96582,-146.865,504
1569849744,293.229,150.13,-4.57646,176.199,4.96582,-146.865,504
1569849744,293.229,150.13,-4.57646,176.199,4.96582,-146.865,504
1569849744,293.229,150.13,-4.57646,176.199,4.96582,-146.865,508
1569849744,293.229,150.13,-4.57646,176.199,4.96582,-146.865,508
1569849744,293.229,150.13,-4.57646,176.199,4.96582,-146.865,508
1569849744,293.229,150.13,-4.57646,176.199,4.96582,-146.865,508
1569849744,293.229,150.13,-4.57646,176.199,4.96582,-146.865,508
1569849744,293.229,150.13,-4.57646,176.199,4.96582,-146.865,508
1569849744,293.229,150.13,-4.57646,176.199,4.96582,-146.865,508
1569849744,293.229,150.13,-4.57646,176.199,4.96582,-146.865,508
1569849744,293.229,150.13,-4.57646,176.199,4.96582,-146.865,508
1569849744,293.229,150.13,-4.57646,176.199,4.96582,-146.865,508
1569849744,293.229,150.13,-4.57646,176.199,4.96582,-146.865,508
1569849744,293.229,150.13,-4.57646,176.199,4.96582,-146.865,508
1569849744,293.229,150.13,-4.57646,176.199,4.96582,-146.865,508
1569849744,293.229,150.13,-4.57646,176.199,4.96582,-146.865,508
1569849744,293.229,150.13,-4.57646,176.199,4.96582,-146.865,508
1569849744,293.229,150.13,-4.57646,176.199,4.96582,-146.865,508
1569849744,293.229,150.13,-4.57646,176.199,4.96582,-146.865,508
1569849744,293.229,150.13,-4.57646,176.199,4.96582,-146.865,508
1569849744,293.229,150.13,-4.57646,176.199,4.96582,-146.865,508
1569849744,293.229,150.13,-4.57646,176.199,4.96582,-146.865,508
1569849744,293.229,150.13,-4.57646,176.199,4.96582,-146.865,504
1569849744,293.229,150.13,-4.57646,176.199,4.96582,-146.865,504
1569849744,293.229,150.13,-4.57646,176.177,4.96582,-146.865,504
1569849744,293.229,150.13,-4.57646,176.177,4.96582,-146.865,504
1569849744,293.229,150.13,-4.57646,176.177,4.96582,-146.865,504
1569849744,293.229,150.13,-4.57646,176.177,4.96582,-146.865,504
1569849744,293.229,150.13,-4.57646,176.177,4.96582,-146.865,504
1569849744,293.229,150.13,-4.57646,176.177,4.96582,-146.865,504
1569849744,293.229,150.13,-4.57646,176.177,4.96582,-146.865,504
1569849744,293.229,150.13,-4.57646,176.177,4.96582,-146.865,504
1569849744,293.229,150.13,-4.57646,176.177,4.96582,-146.865,504
1569849744,293.229,150.13,-4.57646,176.177,4.98779,-146.865,504
1569849744,293.229,150.13,-4.57646,176.177,4.96582,-146.865,504
1569849744,293.229,150.13,-4.57646,176.199,4.96582,-146.865,504
1569849744,293.229,150.13,-4.57646,176.199,4.96582,-146.865,504
1569849744,293.229,150.13,-4.57646,176.199,4.96582,-146.865,504
1569849744,293.229,150.13,-4.57646,176.199,4.96582,-146.865,504
1569849744,293.229,150.13,-4.57646,176.199,4.96582,-146.865,504
1569849744,293.229,150.13,-4.57646,176.199,4.96582,-146.865,504
1569849744,293.229,150.13,-4.57646,176.199,4.96582,-146.865,504
1569849744,293.229,150.13,-4.57646,176.199,4.96582,-146.865,504
1569849744,293.229,150.13,-4.57646,176.199,4.96582,-146.865,504
1569849744,293.229,150.13,-4.57646,176.199,4.96582,-146.865,504
1569849744,293.229,150.13,-4.57646,176.199,4.96582,-146.865,504
1569849744,293.229,150.13,-4.57646,176.199,4.96582,-146.865,504
1569849744,293.229,150.13,-4.57646,176.199,4.96582,-146.865,504
1569849744,293.229,150.13,-4.57646,176.199,4.96582,-146.865,504
1569849744,293.229,150.13,-4.57646,176.199,4.96582,-146.865,504
1569849744,293.229,150.13,-4.57646,176.177,4.96582,-146.865,504
1569849744,293.229,150.13,-4.57646,176.177,4.96582,-146.865,504
1569849744,293.229,150.13,-4.57646,176.177,4.96582,-146.887,504
1569849744,293.229,150.13,-4.57646,176.177,4.96582,-146.887,504
1569849745,293.229,150.13,-4.57646,176.177,4.96582,-146.887,504
1569849745,293.229,150.13,-4.57646,176.177,4.96582,-146.887,504
1569849745,293.229,150.13,-4.57646,176.177,4.96582,-146.887,504
1569849745,293.229,150.13,-4.57646,176.199,4.96582,-146.887,504
1569849745,293.229,150.13,-4.57646,176.199,4.96582,-146.887,504
1569849745,293.229,150.13,-4.57646,176.199,4.96582,-146.887,504
1569849745,293.229,150.13,-4.57646,176.199,4.96582,-146.887,504
1569849745,293.229,150.13,-4.57646,176.199,4.96582,-146.887,504
1569849745,293.229,150.13,-4.57646,176.199,4.96582,-146.865,504
1569849745,293.229,150.13,-4.57646,176.199,4.96582,-146.865,504
1569849745,293.229,150.13,-4.57646,176.199,4.96582,-146.865,504
1569849745,293.229,150.13,-4.57646,176.199,4.96582,-146.865,504
1569849745,293.229,150.13,-4.57646,176.199,4.98779,-146.865,504
1569849745,293.229,150.13,-4.57646,176.199,4.98779,-146.865,504
1569849745,293.229,150.13,-4.57646,176.199,4.98779,-146.865,504
1569849745,293.229,150.13,-4.57646,176.199,4.98779,-146.865,504
1569849745,293.229,150.13,-4.57646,176.199,4.98779,-146.865,504
1569849745,293.229,150.13,-4.57646,176.199,4.98779,-146.865,504
1569849745,293.229,150.13,-4.57646,176.199,4.98779,-146.865,504
1569849745,293.229,150.13,-4.57646,176.199,4.98779,-146.865,500
1569849745,293.229,150.13,-4.57646,176.199,4.98779,-146.865,500
1569849745,293.229,150.13,-4.57646,176.199,4.98779,-146.865,500
1569849745,293.229,150.13,-4.57646,176.199,4.98779,-146.865,500
1569849745,293.229,150.13,-4.57646,176.177,4.98779,-146.865,500
1569849745,293.229,150.13,-4.57646,176.177,4.98779,-146.865,500
1569849745,293.229,150.13,-4.57646,176.177,4.98779,-146.865,500
1569849745,293.229,150.13,-4.57646,176.177,4.98779,-146.865,504
1569849745,293.229,150.13,-4.57646,176.177,4.98779,-146.865,504
1569849745,293.229,150.13,-4.57646,176.177,4.98779,-146.865,504
1569849745,293.229,150.13,-4.57646,176.177,4.98779,-146.865,504
1569849745,293.229,150.13,-4.57646,176.177,4.98779,-146.865,504
1569849745,293.229,150.13,-4.57646,176.177,4.98779,-146.865,504
1569849745,293.229,150.13,-4.57646,176.177,4.98779,-146.865,504
1569849745,293.229,150.13,-4.57646,176.177,4.98779,-146.865,504
1569849745,293.229,150.13,-4.57646,176.177,4.98779,-146.865,504
1569849745,293.229,150.13,-4.57646,176.177,4.98779,-146.865,504
1569849745,293.229,150.13,-4.57646,176.199,4.98779,-146.865,504
1569849745,293.229,150.13,-4.57646,176.199,4.98779,-146.865,504
1569849745,293.229,150.13,-4.57646,176.199,4.98779,-146.865,504
1569849745,293.229,150.13,-4.57646,176.199,4.98779,-146.865,504
1569849745,293.229,150.13,-4.57646,176.199,4.98779,-146.865,504
1569849745,293.229,150.13,-4.57646,176.199,4.98779,-146.865,504
1569849745,293.229,150.13,-4.57646,176.199,4.98779,-146.865,504
1569849745,293.229,150.13,-4.57646,176.199,4.98779,-146.865,508
1569849745,293.229,150.13,-4.57646,176.199,4.98779,-146.865,508
1569849745,293.229,150.13,-4.57646,176.199,4.98779,-146.865,508
1569849745,293.229,150.13,-4.57646,176.199,4.98779,-146.865,508
1569849745,293.229,150.13,-4.57646,176.199,4.98779,-146.865,508
1569849745,293.229,150.13,-4.57646,176.199,4.98779,-146.865,508
1569849745,293.229,150.13,-4.57646,176.199,4.98779,-146.865,508
1569849745,293.229,150.13,-4.57646,176.199,4.98779,-146.865,508
1569849745,293.229,150.13,-4.57646,176.199,4.98779,-146.865,512
1569849745,293.229,150.13,-4.57646,176.199,4.98779,-146.865,512
1569849745,293.229,150.13,-4.57646,176.199,4.98779,-146.865,512
1569849745,293.229,150.13,-4.57646,176.199,4.98779,-146.865,512
1569849745,293.229,150.13,-4.57646,176.199,4.98779,-146.865,512
1569849745,293.229,150.13,-4.57646,176.199,4.98779,-146.865,512
1569849745,293.229,150.13,-4.57646,176.199,4.98779,-146.865,512
1569849745,293.229,150.13,-4.57646,176.199,4.98779,-146.865,512
1569849745,293.229,150.13,-4.57646,176.199,4.98779,-146.865,512
1569849745,293.229,150.13,-4.57646,176.199,4.98779,-146.865,512
1569849745,293.229,150.13,-4.57646,176.199,4.98779,-146.865,512
1569849745,293.229,150.13,-4.57646,176.199,4.98779,-146.865,512
1569849745,293.229,150.13,-4.57646,176.199,4.98779,-146.865,512
1569849745,293.229,150.13,-4.57646,176.199,4.98779,-146.865,512
1569849745,293.229,150.13,-4.57646,176.199,4.98779,-146.865,512
1569849745,293.229,150.13,-4.57646,176.199,4.98779,-146.865,512
1569849745,293.229,150.13,-4.57646,176.199,4.98779,-146.865,512
1569849745,293.229,150.13,-4.57646,176.199,4.98779,-146.865,512
1569849745,293.229,150.13,-4.57646,176.199,4.98779,-146.865,512
1569849745,293.229,150.13,-4.57646,176.199,4.98779,-146.865,512
1569849745,293.229,150.13,-4.57646,176.199,4.98779,-146.865,512
1569849745,293.229,150.13,-4.57646,176.199,4.98779,-146.865,512
1569849745,293.229,150.13,-4.57646,176.199,4.98779,-146.865,512
1569849745,293.229,150.13,-4.57646,176.199,4.98779,-146.865,512
1569849745,293.229,150.13,-4.57646,176.199,4.98779,-146.865,512
1569849745,293.229,150.13,-4.57646,176.199,4.98779,-146.865,512
1569849745,293.229,150.13,-4.57646,176.199,4.98779,-146.865,512
1569849745,293.229,150.13,-4.57646,176.199,4.98779,-146.865,512
1569849745,293.229,150.13,-4.57646,176.199,4.98779,-146.865,512
1569849745,293.229,150.13,-4.57646,176.199,4.98779,-146.865,512
1569849745,293.229,150.13,-4.57646,176.199,4.98779,-146.865,508
1569849745,293.229,150.13,-4.57646,176.199,4.98779,-146.865,508
1569849745,293.229,150.13,-4.57646,176.199,4.98779,-146.865,508
1569849745,293.229,150.13,-4.57646,176.199,4.98779,-146.865,508
1569849745,293.229,150.13,-4.57646,176.199,4.96582,-146.865,508
1569849745,293.229,150.13,-4.57646,176.199,4.96582,-146.865,508
1569849745,293.229,150.13,-4.57646,176.199,4.96582,-146.865,508
1569849745,293.117,150.13,-4.57646,176.199,4.96582,-146.865,508
1569849745,293.117,150.13,-4.57646,176.199,4.96582,-146.865,508
1569849745,293.117,150.13,-4.57646,176.199,4.96582,-146.865,508
1569849745,293.117,150.13,-4.57646,176.199,4.96582,-146.865,508
1569849745,293.117,150.13,-4.57646,176.199,4.96582,-146.865,508
1569849745,293.117,150.13,-4.57646,176.199,4.96582,-146.865,508
1569849745,293.117,150.13,-4.57646,176.199,4.98779,-146.865,508
1569849745,293.117,150.13,-4.57646,176.199,4.98779,-146.865,508
1569849745,293.117,150.13,-4.57646,176.199,4.98779,-146.865,508
1569849745,293.117,150.13,-4.57646,176.199,4.98779,-146.865,508
1569849745,293.117,150.13,-4.57646,176.199,4.98779,-146.865,508
1569849745,293.117,150.13,-4.57646,176.199,4.98779,-146.865,508
1569849746,293.117,150.13,-4.57646,176.199,4.98779,-146.865,508
1569849746,293.117,150.13,-4.57646,176.199,4.98779,-146.865,508
1569849746,293.117,150.13,-4.57646,176.199,4.98779,-146.865,508
1569849746,293.117,150.13,-4.57646,176.199,4.98779,-146.865,508
1569849746,293.117,150.13,-4.57646,176.199,4.98779,-146.865,504
1569849746,293.117,150.13,-4.57646,176.199,4.98779,-146.865,504
1569849746,293.117,150.13,-4.46484,176.199,4.98779,-146.865,508
1569849746,293.117,150.13,-4.46484,176.199,4.98779,-146.865,508
1569849746,293.117,150.13,-4.46484,176.199,4.98779,-146.865,508
1569849746,293.117,150.13,-4.46484,176.199,4.98779,-146.865,508
1569849746,293.117,150.13,-4.46484,176.199,5.00977,-146.865,508
1569849746,293.229,150.13,-4.46484,176.199,5.00977,-146.865,508
1569849746,293.229,150.13,-4.46484,176.199,5.00977,-146.865,508
1569849746,293.229,150.13,-4.46484,176.199,5.00977,-146.865,508
1569849746,293.229,150.13,-4.46484,176.199,5.00977,-146.865,508
1569849746,293.229,150.13,-4.46484,176.199,5.00977,-146.865,508
1569849746,293.229,150.13,-4.46484,176.199,5.00977,-146.865,508
1569849746,293.229,150.13,-4.46484,176.199,5.00977,-146.865,508
1569849746,293.229,150.13,-4.46484,176.199,5.00977,-146.865,508
1569849746,293.229,150.13,-4.46484,176.199,5.00977,-146.865,508
1569849746,293.229,150.13,-4.46484,176.199,5.00977,-146.865,508
1569849746,293.229,150.13,-4.46484,176.199,5.00977,-146.865,508
1569849746,293.229,150.13,-4.46484,176.199,5.00977,-146.865,508
1569849746,293.229,150.13,-4.46484,176.199,5.00977,-146.865,508
1569849746,293.229,150.13,-4.46484,176.199,5.00977,-146.865,508
1569849746,293.229,150.13,-4.46484,176.199,5.00977,-146.865,508
1569849746,293.229,150.13,-4.46484,176.199,5.00977,-146.865,508
1569849746,293.229,150.13,-4.46484,176.199,5.00977,-146.865,508
1569849746,293.229,150.13,-4.46484,176.199,5.00977,-146.865,508
1569849746,293.229,150.13,-4.46484,176.199,5.00977,-146.865,508
1569849746,293.229,150.13,-4.46484,176.199,5.00977,-146.865,504
1569849746,293.229,150.13,-4.46484,176.199,5.00977,-146.865,504
1569849746,293.229,150.13,-4.46484,176.199,5.00977,-146.865,504
1569849746,293.229,150.13,-4.46484,176.199,5.03174,-146.865,504
1569849746,293.229,150.13,-4.46484,176.199,5.03174,-146.865,504
1569849746,293.229,150.13,-4.46484,176.199,5.03174,-146.865,500
1569849746,293.229,150.13,-4.46484,176.199,5.03174,-146.865,500
1569849746,293.229,150.13,-4.46484,176.199,5.03174,-146.865,500
1569849746,293.229,150.13,-4.46484,176.199,5.00977,-146.865,500
1569849746,293.229,150.13,-4.46484,176.199,5.00977,-146.865,500
1569849746,293.229,150.13,-4.46484,176.199,5.00977,-146.865,500
1569849746,293.229,150.13,-4.46484,176.199,5.00977,-146.865,500
1569849746,293.229,150.13,-4.46484,176.199,5.00977,-146.865,496
1569849746,293.229,150.13,-4.46484,176.199,5.00977,-146.865,496
1569849746,293.229,150.13,-4.46484,176.199,5.00977,-146.865,496
1569849746,293.229,150.13,-4.46484,176.177,5.00977,-146.865,496
1569849746,293.229,150.13,-4.46484,176.177,5.00977,-146.865,496
1569849746,293.229,150.13,-4.46484,176.177,5.00977,-146.865,496
1569849746,293.229,150.13,-4.46484,176.177,5.00977,-146.865,496
1569849746,293.229,150.13,-4.46484,176.177,5.00977,-146.865,492
1569849746,293.229,150.13,-4.46484,176.199,5.00977,-146.865,492
1569849746,293.229,150.13,-4.46484,176.199,5.00977,-146.865,492
1569849746,293.229,150.13,-4.46484,176.199,5.00977,-146.865,492
1569849746,293.229,150.13,-4.46484,176.199,5.00977,-146.865,492
1569849746,293.229,150.13,-4.46484,176.199,5.00977,-146.865,492
1569849746,293.229,150.13,-4.46484,176.199,5.00977,-146.865,492
1569849746,293.229,150.13,-4.46484,176.199,5.00977,-146.865,492
1569849746,293.229,150.13,-4.46484,176.199,5.00977,-146.865,492
1569849746,293.229,150.13,-4.46484,176.199,5.00977,-146.865,492
1569849746,293.229,150.13,-4.46484,176.199,5.00977,-146.865,492
1569849746,293.229,150.13,-4.46484,176.199,5.00977,-146.865,492
1569849746,293.229,150.13,-4.46484,176.199,5.00977,-146.865,492
1569849746,293.229,150.13,-4.46484,176.199,5.00977,-146.865,496
1569849746,293.229,150.13,-4.46484,176.199,5.00977,-146.865,496
1569849746,293.229,150.13,-4.46484,176.199,4.98779,-146.865,496
1569849746,293.229,150.13,-4.46484,176.199,4.98779,-146.865,496
1569849746,293.229,150.13,-4.46484,176.199,4.98779,-146.865,496
1569849746,293.229,150.13,-4.57646,176.199,4.98779,-146.865,500
1569849746,293.229,150.13,-4.57646,176.221,4.98779,-146.865,500
1569849746,293.229,150.13,-4.57646,176.221,4.98779,-146.865,500
1569849746,293.229,150.13,-4.57646,176.221,4.98779,-146.865,500
1569849746,293.229,150.13,-4.46484,176.221,4.98779,-146.865,500
1569849746,293.229,150.13,-4.46484,176.221,4.98779,-146.865,500
1569849746,293.229,150.13,-4.46484,176.221,4.98779,-146.865,500
1569849746,293.229,150.13,-4.46484,176.221,4.98779,-146.865,504
1569849746,293.229,150.13,-4.46484,176.221,4.98779,-146.865,504
1569849746,293.229,150.13,-4.46484,176.199,4.98779,-146.865,504
1569849746,293.229,150.13,-4.46484,176.199,4.98779,-146.865,504
1569849746,293.229,150.13,-4.46484,176.199,4.98779,-146.865,504
1569849746,293.229,150.13,-4.46484,176.199,4.98779,-146.865,504
1569849746,293.229,150.13,-4.46484,176.199,4.98779,-146.865,504
1569849746,293.229,150.13,-4.46484,176.199,4.98779,-146.865,504
1569849746,293.229,150.13,-4.46484,176.199,4.98779,-146.865,504
1569849746,293.229,150.13,-4.46484,176.199,5.00977,-146.865,508
1569849746,293.229,150.13,-4.46484,176.199,5.00977,-146.865,508
1569849746,293.229,150.13,-4.46484,176.199,5.00977,-146.865,508
1569849746,293.229,150.13,-4.46484,176.199,5.00977,-146.865,508
1569849746,293.229,150.13,-4.46484,176.199,5.00977,-146.865,508
1569849746,293.229,150.13,-4.46484,176.199,5.00977,-146.865,508
1569849746,293.229,150.13,-4.46484,176.199,5.00977,-146.865,508
1569849746,293.229,150.13,-4.46484,176.199,5.00977,-146.865,508
1569849746,293.229,150.13,-4.46484,176.199,5.00977,-146.865,512
1569849746,293.229,150.13,-4.46484,176.199,5.00977,-146.865,512
1569849746,293.229,150.13,-4.46484,176.199,5.00977,-146.865,512
1569849746,293.229,150.13,-4.46484,176.199,5.00977,-146.865,512
1569849746,293.229,150.13,-4.46484,176.199,5.00977,-146.865,512
1569849746,293.229,150.13,-4.46484,176.199,5.00977,-146.865,512
1569849746,293.229,150.13,-4.46484,176.199,5.00977,-146.865,512
1569849746,293.229,150.13,-4.46484,176.199,5.00977,-146.865,512
1569849746,293.229,150.13,-4.46484,176.199,5.00977,-146.865,512
1569849747,293.229,150.13,-4.46484,176.199,5.00977,-146.887,512
1569849747,293.229,150.13,-4.46484,176.199,5.00977,-146.887,512
1569849747,293.229,150.13,-4.46484,176.199,5.00977,-146.887,512
1569849747,293.229,150.13,-4.46484,176.199,5.00977,-146.865,512
1569849747,293.229,150.13,-4.46484,176.199,5.00977,-146.865,512
1569849747,293.229,150.13,-4.46484,176.199,5.00977,-146.865,512
1569849747,293.229,150.13,-4.46484,176.199,5.00977,-146.865,512
1569849747,293.229,150.13,-4.46484,176.199,5.00977,-146.865,512
1569849747,293.229,150.13,-4.46484,176.199,5.00977,-146.865,512
1569849747,293.229,150.13,-4.46484,176.199,4.98779,-146.865,512
1569849747,293.229,150.13,-4.46484,176.199,4.98779,-146.865,512
1569849747,293.229,150.13,-4.46484,176.199,4.98779,-146.865,512
1569849747,293.229,150.13,-4.57646,176.199,4.98779,-146.865,508
1569849747,293.229,150.13,-4.57646,176.199,4.98779,-146.865,508
1569849747,293.229,150.13,-4.57646,176.199,4.98779,-146.865,508
1569849747,293.229,150.13,-4.57646,176.199,4.98779,-146.865,508
1569849752,308.409,133.834,-3.90674,176.375,5.00977,-146.514,672
1569849752,308.409,133.834,-3.90674,176.375,5.00977,-146.514,672
1569849752,308.409,133.834,-3.90674,176.375,5.03174,-146.514,672
1569849752,308.409,133.834,-3.90674,176.375,5.03174,-146.514,672
1569849752,308.409,133.834,-3.90674,176.375,5.03174,-146.514,672
1569849752,308.409,133.834,-3.90674,176.375,5.00977,-146.514,672
1569849752,308.409,133.834,-3.90674,176.375,5.00977,-146.514,672
1569849752,308.409,133.834,-3.90674,176.375,5.00977,-146.514,672
1569849752,308.409,133.834,-4.01836,176.375,5.00977,-146.492,672
1569849752,308.409,133.834,-4.01836,176.375,5.00977,-146.492,672
1569849752,308.409,133.834,-4.01836,176.396,5.00977,-146.492,672
1569849752,308.409,133.834,-4.01836,176.396,5.00977,-146.492,672
1569849752,308.409,133.834,-4.01836,176.396,5.00977,-146.492,672
1569849752,308.297,133.834,-4.01836,176.396,5.00977,-146.492,672
1569849752,308.297,133.834,-4.01836,176.396,5.00977,-146.492,672
1569849752,308.297,133.834,-4.01836,176.396,5.00977,-146.492,672
1569849752,308.297,133.834,-4.01836,176.396,5.00977,-146.492,672
1569849752,308.297,133.834,-4.01836,176.396,5.00977,-146.492,672
1569849752,308.297,133.834,-4.01836,176.396,5.00977,-146.492,672
1569849752,308.297,133.834,-4.01836,176.396,5.00977,-146.492,672
1569849752,308.297,133.834,-4.01836,176.396,5.00977,-146.492,672
1569849752,308.297,133.834,-4.01836,176.396,5.00977,-146.492,672
1569849752,308.297,133.834,-4.01836,176.396,5.00977,-146.492,672
1569849752,308.297,133.834,-4.01836,176.396,5.00977,-146.492,672
1569849752,308.297,133.834,-4.01836,176.396,5.00977,-146.492,668
1569849752,308.297,133.834,-4.01836,176.396,5.00977,-146.492,668
1569849752,308.297,133.834,-4.01836,176.396,5.00977,-146.492,668
1569849752,308.297,133.834,-4.01836,176.396,5.00977,-146.492,668
1569849752,308.297,133.834,-4.01836,176.396,5.00977,-146.492,664
1569849752,308.297,133.834,-3.90674,176.396,5.00977,-146.492,664
1569849752,308.297,133.834,-3.90674,176.396,5.00977,-146.492,664
1569849752,308.297,133.834,-3.90674,176.396,5.00977,-146.492,664
1569849752,308.297,133.834,-3.90674,176.396,5.03174,-146.492,664
1569849752,308.297,133.834,-3.90674,176.396,5.03174,-146.492,664
1569849752,308.297,133.834,-3.90674,176.396,5.03174,-146.492,664
1569849752,308.297,133.834,-3.90674,176.396,5.03174,-146.492,660
1569849752,308.297,133.834,-3.90674,176.396,5.03174,-146.514,660
1569849752,308.297,133.834,-3.90674,176.396,5.03174,-146.514,660
1569849752,308.297,133.834,-3.90674,176.396,5.03174,-146.514,660
1569849752,308.297,133.834,-3.90674,176.396,5.03174,-146.514,660
1569849752,308.297,133.834,-3.90674,176.396,5.03174,-146.514,660
1569849752,308.297,133.834,-3.90674,176.396,5.03174,-146.514,660
1569849752,308.297,133.834,-3.90674,176.396,5.03174,-146.514,660
1569849752,308.297,133.834,-3.90674,176.396,5.03174,-146.514,660
1569849752,308.297,133.834,-3.90674,176.396,5.03174,-146.514,660
1569849752,308.297,133.834,-3.90674,176.396,5.03174,-146.514,660
1569849752,308.297,133.834,-3.90674,176.396,5.03174,-146.514,660
1569849752,308.297,133.834,-3.90674,176.396,5.03174,-146.514,660
1569849752,308.297,133.834,-3.90674,176.396,5.03174,-146.514,660
1569849752,308.297,133.834,-3.90674,176.396,5.03174,-146.514,660
1569849752,308.297,133.834,-3.90674,176.396,5.03174,-146.514,660
1569849752,308.297,133.834,-3.90674,176.396,5.03174,-146.514,660
1569849752,308.297,133.834,-3.90674,176.396,5.03174,-146.514,660
1569849752,308.297,133.834,-3.90674,176.396,5.03174,-146.514,660
1569849752,308.297,133.834,-3.90674,176.396,5.03174,-146.514,660
1569849752,308.297,133.834,-3.90674,176.396,5.03174,-146.514,660
1569849752,308.297,133.834,-3.90674,176.396,5.03174,-146.514,660
1569849752,308.297,133.834,-3.90674,176.396,5.03174,-146.514,660
1569849752,308.297,133.834,-3.90674,176.396,5.03174,-146.514,660
1569849752,308.297,133.834,-3.90674,176.396,5.03174,-146.514,660
1569849752,308.297,133.834,-3.90674,176.396,5.03174,-146.514,660
1569849752,308.297,133.834,-3.90674,176.396,5.03174,-146.514,656
1569849752,308.297,133.834,-3.90674,176.396,5.03174,-146.514,656
1569849752,308.297,133.834,-3.90674,176.396,5.03174,-146.514,656
1569849752,308.297,133.834,-3.90674,176.396,5.03174,-146.514,656
1569849752,308.297,133.834,-3.90674,176.396,5.03174,-146.514,656
1569849752,308.297,133.834,-3.90674,176.396,5.03174,-146.514,656
1569849752,308.297,133.834,-3.90674,176.396,5.03174,-146.514,656
1569849752,308.297,133.834,-3.90674,176.396,5.03174,-146.514,656
1569849752,308.297,133.834,-3.90674,176.396,5.03174,-146.514,656
1569849752,308.297,133.834,-3.90674,176.396,5.03174,-146.514,656
1569849752,308.297,133.834,-3.90674,176.396,5.03174,-146.514,656
1569849752,308.297,133.834,-3.90674,176.396,5.03174,-146.514,652
1569849752,308.297,133.834,-3.90674,176.396,5.03174,-146.514,652
1569849752,308.297,133.834,-3.90674,176.396,5.03174,-146.514,652
1569849752,308.297,133.834,-3.90674,176.396,5.03174,-146.514,652
1569849752,308.297,133.834,-3.90674,176.396,5.03174,-146.514,652
1569849752,308.297,133.834,-3.90674,176.396,5.03174,-146.514,652
1569849752,308.297,133.834,-3.90674,176.396,5.03174,-146.514,652
1569849752,308.297,133.834,-3.90674,176.396,5.03174,-146.514,648
1569849752,308.297,133.834,-3.90674,176.396,5.03174,-146.514,648
1569849753,308.297,133.834,-3.90674,176.396,5.03174,-146.514,648
1569849753,308.297,133.834,-3.90674,176.396,5.03174,-146.514,648
1569849753,308.297,133.834,-3.90674,176.396,5.03174,-146.514,648
1569849753,308.297,133.834,-3.90674,176.396,5.03174,-146.514,652
1569849753,308.297,133.834,-3.90674,176.396,5.03174,-146.492,652
1569849753,308.297,133.834,-3.90674,176.396,5.03174,-146.492,652
1569849753,308.297,133.834,-3.90674,176.396,5.03174,-146.492,652
1569849753,308.297,133.834,-3.90674,176.396,5.00977,-146.492,652
1569849753,308.297,133.834,-3.90674,176.396,5.00977,-146.492,656
1569849753,308.297,133.834,-3.90674,176.396,5.00977,-146.492,656
1569849753,308.297,133.834,-3.90674,176.396,5.00977,-146.492,656
1569849753,308.297,133.834,-3.90674,176.396,5.00977,-146.492,656
1569849753,308.297,133.834,-3.90674,176.396,5.00977,-146.492,660
1569849753,308.297,133.834,-3.90674,176.396,5.00977,-146.492,660
1569849753,308.297,133.834,-4.01836,176.396,5.00977,-146.492,660
1569849753,308.297,133.834,-4.01836,176.396,5.00977,-146.492,664
1569849753,308.297,133.834,-4.01836,176.396,5.00977,-146.492,664
1569849753,308.297,133.834,-4.01836,176.396,5.00977,-146.492,664
1569849753,308.297,133.834,-4.01836,176.396,5.00977,-146.492,668
1569849753,308.297,133.834,-4.01836,176.396,5.00977,-146.492,668
1569849753,308.297,133.834,-4.01836,176.396,5.00977,-146.492,668
1569849753,308.297,133.834,-4.01836,176.396,5.00977,-146.492,668
1569849753,308.297,133.834,-4.01836,176.375,5.00977,-146.492,668
1569849753,308.297,133.834,-4.01836,176.375,5.03174,-146.492,672
1569849753,308.297,133.834,-4.01836,176.375,5.03174,-146.492,672
1569849753,308.297,133.834,-3.90674,176.375,5.03174,-146.492,672
1569849753,308.297,133.834,-3.90674,176.375,5.03174,-146.492,672
1569849753,308.297,133.834,-3.90674,176.375,5.03174,-146.492,672
1569849753,308.297,133.834,-3.90674,176.375,5.03174,-146.492,672
1569849753,308.297,133.834,-3.90674,176.375,5.03174,-146.492,672
1569849753,308.297,133.834,-3.90674,176.375,5.03174,-146.492,672
1569849753,308.297,133.834,-3.90674,176.375,5.03174,-146.492,672
1569849753,308.297,133.834,-3.90674,176.375,5.03174,-146.492,672
1569849753,308.297,133.834,-3.90674,176.375,5.03174,-146.492,672
1569849753,308.297,133.834,-3.90674,176.375,5.03174,-146.492,672
1569849753,308.297,133.834,-3.90674,176.375,5.03174,-146.492,676
1569849753,308.297,133.834,-3.90674,176.375,5.03174,-146.514,676
1569849753,308.297,133.834,-3.90674,176.375,5.03174,-146.492,676
1569849753,308.297,133.834,-3.90674,176.375,5.03174,-146.492,676
1569849753,308.297,133.834,-3.90674,176.375,5.03174,-146.514,676
1569849753,308.297,133.834,-3.90674,176.375,5.03174,-146.514,676
1569849753,308.297,133.834,-3.90674,176.396,5.03174,-146.514,676
1569849753,308.297,133.834,-3.90674,176.396,5.03174,-146.514,676
1569849753,308.297,133.834,-3.90674,176.396,5.03174,-146.514,676
1569849753,308.297,133.834,-3.90674,176.396,5.03174,-146.514,676
1569849753,308.297,133.834,-3.90674,176.396,5.03174,-146.514,676
1569849753,308.297,133.834,-3.90674,176.396,5.03174,-146.514,676
1569849753,308.297,133.834,-3.90674,176.396,5.05371,-146.514,676
1569849753,308.297,133.834,-3.90674,176.375,5.05371,-146.514,672
1569849753,308.297,133.834,-3.90674,176.375,5.05371,-146.514,672
1569849753,308.297,133.834,-3.90674,176.375,5.05371,-146.514,672
1569849753,308.409,133.834,-3.90674,176.375,5.05371,-146.514,672
1569849753,308.409,133.834,-3.90674,176.375,5.05371,-146.514,672
1569849753,308.409,133.834,-3.90674,176.375,5.05371,-146.514,672
1569849753,308.409,133.834,-3.90674,176.375,5.05371,-146.514,672
1569849753,308.409,133.834,-3.90674,176.375,5.05371,-146.514,672
1569849753,308.409,133.834,-3.90674,176.375,5.05371,-146.514,672
1569849753,308.409,133.834,-3.90674,176.375,5.05371,-146.514,672
1569849753,308.409,133.834,-3.90674,176.375,5.05371,-146.514,672
1569849753,308.409,133.834,-3.90674,176.375,5.05371,-146.514,672
1569849753,308.409,133.834,-3.90674,176.375,5.03174,-146.514,672
1569849753,308.409,133.834,-3.90674,176.375,5.03174,-146.514,672
1569849753,308.409,133.834,-3.90674,176.375,5.03174,-146.514,672
1569849753,308.409,133.834,-3.90674,176.375,5.03174,-146.514,672
1569849753,308.409,133.834,-3.90674,176.375,5.03174,-146.514,672
1569849753,308.409,133.834,-3.90674,176.375,5.03174,-146.514,672
1569849753,308.409,133.834,-3.90674,176.375,5.03174,-146.514,672
1569849753,308.409,133.834,-3.90674,176.375,5.03174,-146.514,676
1569849753,308.409,133.834,-3.90674,176.375,5.03174,-146.514,676
1569849753,308.409,133.834,-3.90674,176.375,5.05371,-146.514,676
1569849753,308.409,133.834,-3.90674,176.375,5.05371,-146.514,676
1569849753,308.409,133.834,-3.90674,176.375,5.05371,-146.514,676
1569849753,308.409,133.834,-3.90674,176.375,5.05371,-146.514,676
1569849753,308.409,133.834,-3.90674,176.375,5.05371,-146.514,676
1569849753,308.409,133.834,-3.90674,176.375,5.05371,-146.514,676
1569849753,308.409,133.834,-3.90674,176.375,5.05371,-146.514,676
1569849753,308.409,133.834,-3.90674,176.375,5.03174,-146.514,676
1569849753,308.409,133.834,-3.90674,176.375,5.03174,-146.514,676
1569849753,308.409,133.834,-3.90674,176.375,5.03174,-146.514,672
1569849753,308.297,133.834,-3.90674,176.375,5.03174,-146.514,672
1569849753,308.297,133.834,-3.90674,176.375,5.03174,-146.514,672
1569849753,308.297,133.834,-3.90674,176.375,5.03174,-146.514,672
1569849753,308.297,133.834,-3.90674,176.375,5.03174,-146.514,672
1569849753,308.297,133.834,-3.90674,176.375,5.03174,-146.514,672
1569849753,308.297,133.834,-3.90674,176.396,5.03174,-146.514,672
1569849753,308.297,133.834,-3.90674,176.396,5.03174,-146.514,672
1569849753,308.297,133.834,-3.90674,176.396,5.03174,-146.514,672
1569849753,308.297,133.834,-3.90674,176.396,5.03174,-146.514,672
1569849753,308.297,133.834,-3.90674,176.396,5.03174,-146.514,668
1569849753,308.297,133.834,-3.90674,176.396,5.03174,-146.514,668
1569849753,308.297,133.834,-3.90674,176.396,5.03174,-146.514,668
1569849753,308.297,133.834,-3.90674,176.396,5.03174,-146.514,668
1569849753,308.297,133.834,-3.90674,176.396,5.05371,-146.514,668
1569849753,308.297,133.834,-3.90674,176.396,5.05371,-146.514,668
1569849753,308.297,133.834,-3.90674,176.396,5.05371,-146.514,668
1569849753,308.297,133.834,-3.90674,176.396,5.05371,-146.514,664
1569849753,308.297,133.834,-3.90674,176.396,5.05371,-146.514,664
1569849753,308.297,133.834,-3.90674,176.396,5.05371,-146.514,664
1569849753,308.297,133.834,-3.90674,176.396,5.05371,-146.514,664
1569849753,308.297,133.834,-3.90674,176.396,5.05371,-146.514,664
1569849754,308.297,133.834,-3.90674,176.396,5.05371,-146.514,664
1569849754,308.297,133.834,-3.90674,176.396,5.03174,-146.514,664
1569849754,308.297,133.834,-3.90674,176.396,5.03174,-146.514,664
1569849754,308.297,133.834,-3.90674,176.396,5.03174,-146.514,660
1569849754,308.297,133.834,-3.90674,176.396,5.03174,-146.514,660
1569849754,308.297,133.834,-3.90674,176.396,5.03174,-146.514,660
1569849754,308.297,133.834,-3.90674,176.396,5.03174,-146.514,660
1569849754,308.297,133.834,-3.90674,176.396,5.03174,-146.514,660
1569849754,308.297,133.834,-3.90674,176.396,5.03174,-146.514,660
1569849754,308.297,133.834,-3.90674,176.396,5.03174,-146.514,660
1569849754,308.297,133.834,-3.90674,176.396,5.03174,-146.492,660
1569849754,308.297,133.834,-3.90674,176.396,5.03174,-146.492,660
1569849754,308.297,133.834,-3.90674,176.396,5.03174,-146.492,660
1569849754,308.297,133.834,-3.90674,176.396,5.03174,-146.492,660
1569849754,308.297,133.834,-3.90674,176.396,5.03174,-146.492,660
1569849754,308.297,133.834,-3.90674,176.396,5.03174,-146.492,660
1569849754,308.297,133.834,-3.90674,176.396,5.03174,-146.492,660
1569849754,308.297,133.834,-3.90674,176.396,5.03174,-146.492,660
1569849754,308.297,133.834,-3.90674,176.396,5.03174,-146.492,660
1569849754,308.297,133.834,-3.90674,176.396,5.03174,-146.492,660
1569849754,308.297,133.834,-3.90674,176.396,5.03174,-146.492,660
1569849754,308.297,133.834,-3.90674,176.396,5.05371,-146.492,660
1569849754,308.297,133.834,-3.90674,176.396,5.05371,-146.492,660
1569849754,308.297,133.834,-3.90674,176.396,5.05371,-146.492,660
1569849754,308.297,133.834,-3.90674,176.396,5.05371,-146.492,660
1569849754,308.297,133.834,-3.90674,176.396,5.05371,-146.492,660
1569849754,308.297,133.834,-3.90674,176.396,5.05371,-146.492,660
1569849754,308.297,133.834,-3.90674,176.396,5.05371,-146.492,660
1569849754,308.297,133.834,-3.90674,176.396,5.05371,-146.492,660
1569849754,308.297,133.834,-3.90674,176.396,5.05371,-146.514,660
1569849754,308.297,133.834,-3.90674,176.396,5.05371,-146.514,660
1569849754,308.297,133.834,-3.90674,176.396,5.05371,-146.514,660
1569849754,308.297,133.834,-3.90674,176.396,5.05371,-146.514,660
1569849754,308.297,133.834,-3.90674,176.396,5.05371,-146.514,660
1569849754,308.297,133.834,-3.90674,176.396,5.05371,-146.514,660
1569849754,308.297,133.834,-3.90674,176.396,5.05371,-146.492,660
1569849754,308.297,133.834,-3.90674,176.396,5.05371,-146.492,660
1569849754,308.297,133.834,-3.90674,176.396,5.05371,-146.492,660
1569849754,308.297,133.834,-3.90674,176.396,5.05371,-146.492,660
1569849754,308.297,133.834,-3.90674,176.396,5.05371,-146.492,660
1569849754,308.297,133.834,-3.90674,176.396,5.05371,-146.492,660
1569849754,308.297,133.834,-3.90674,176.396,5.05371,-146.492,660
1569849754,308.297,133.834,-3.90674,176.396,5.05371,-146.492,660
1569849754,308.297,133.834,-3.90674,176.396,5.05371,-146.492,664
1569849754,308.297,133.834,-3.90674,176.396,5.05371,-146.492,664
1569849754,308.297,133.834,-3.90674,176.396,5.05371,-146.492,664
1569849754,308.297,133.834,-3.90674,176.396,5.05371,-146.492,664
1569849754,308.297,133.834,-3.90674,176.396,5.05371,-146.492,664
1569849754,308.297,133.834,-3.90674,176.396,5.05371,-146.492,664
1569849754,308.297,133.834,-3.90674,176.396,5.05371,-146.492,668
1569849754,308.297,133.834,-3.90674,176.396,5.05371,-146.492,668
1569849754,308.297,133.834,-3.90674,176.396,5.05371,-146.492,668
1569849754,308.297,133.834,-3.90674,176.396,5.05371,-146.492,668
1569849754,308.297,133.834,-3.90674,176.396,5.05371,-146.514,668
1569849754,308.297,133.834,-3.90674,176.396,5.05371,-146.514,668
1569849754,308.297,133.834,-3.90674,176.396,5.03174,-146.514,672
1569849754,308.297,133.834,-3.90674,176.396,5.03174,-146.514,672
1569849754,308.297,133.834,-3.90674,176.396,5.03174,-146.514,672
1569849754,308.409,133.834,-3.90674,176.396,5.03174,-146.514,672
1569849754,308.409,133.834,-3.90674,176.396,5.03174,-146.514,672
1569849754,308.409,133.834,-3.90674,176.396,5.03174,-146.514,676
1569849754,308.409,133.834,-3.90674,176.396,5.03174,-146.514,676
1569849754,308.409,133.834,-3.90674,176.396,5.03174,-146.514,676
1569849754,308.409,133.834,-3.90674,176.396,5.03174,-146.514,676
1569849754,308.409,133.834,-3.90674,176.396,5.03174,-146.514,676
1569849754,308.409,133.834,-3.90674,176.396,5.03174,-146.514,676
1569849754,308.409,133.834,-3.90674,176.396,5.03174,-146.514,676
1569849754,308.409,133.834,-3.90674,176.396,5.03174,-146.514,676
1569849754,308.409,133.834,-3.90674,176.396,5.03174,-146.514,676
1569849754,308.297,133.834,-3.90674,176.396,5.03174,-146.514,676
1569849754,308.297,133.834,-3.90674,176.396,5.03174,-146.514,676
1569849754,308.297,133.834,-3.90674,176.396,5.03174,-146.514,676
1569849754,308.297,133.834,-3.90674,176.396,5.03174,-146.514,676
1569849754,308.297,133.834,-3.90674,176.396,5.03174,-146.514,676
1569849754,308.297,133.834,-3.90674,176.396,5.03174,-146.514,676
1569849754,308.297,133.834,-3.90674,176.396,5.03174,-146.514,672
1569849754,308.297,133.945,-3.90674,176.396,5.03174,-146.514,672
1569849754,308.297,133.945,-3.90674,176.396,5.03174,-146.514,672
1569849754,308.297,133.834,-3.90674,176.396,5.03174,-146.514,672
1569849754,308.297,133.834,-3.90674,176.396,5.03174,-146.514,672
1569849754,308.297,133.834,-3.90674,176.396,5.03174,-146.514,672
1569849754,308.297,133.834,-3.90674,176.396,5.03174,-146.514,672
1569849754,308.297,133.834,-3.90674,176.396,5.03174,-146.514,672
1569849754,308.297,133.834,-3.90674,176.396,5.03174,-146.514,672
1569849754,308.297,133.834,-3.90674,176.396,5.03174,-146.514,672
1569849754,308.409,133.834,-3.90674,176.396,5.00977,-146.514,672
1569849754,308.409,133.834,-3.90674,176.396,5.00977,-146.514,672
1569849754,308.409,133.834,-3.90674,176.396,5.00977,-146.514,672
1569849754,308.409,133.834,-3.90674,176.396,5.00977,-146.514,672
1569849754,308.409,133.834,-3.90674,176.396,5.00977,-146.514,672
1569849754,308.409,133.834,-3.90674,176.396,5.00977,-146.514,672
1569849754,308.409,133.834,-3.90674,176.396,5.00977,-146.514,672
1569849754,308.409,133.834,-3.90674,176.396,5.00977,-146.514,672
1569849754,308.409,133.834,-3.90674,176.396,5.00977,-146.514,672
1569849754,308.409,133.834,-3.90674,176.396,5.00977,-146.514,672
1569849754,308.409,133.834,-3.90674,176.396,5.03174,-146.514,672
1569849754,308.297,133.834,-3.90674,176.396,5.03174,-146.514,672
1569849754,308.297,133.834,-3.90674,176.396,5.03174,-146.514,672
1569849754,308.297,133.834,-3.90674,176.396,5.03174,-146.514,672
1569849754,308.297,133.834,-3.90674,176.396,5.03174,-146.514,672
1569849755,308.297,133.834,-3.90674,176.396,5.03174,-146.514,668
1569849755,308.297,133.834,-3.90674,176.396,5.03174,-146.514,668
1569849755,308.297,133.834,-3.90674,176.396,5.03174,-146.514,668
1569849755,308.297,133.834,-3.90674,176.396,5.03174,-146.514,668
1569849755,308.297,133.834,-3.90674,176.396,5.03174,-146.514,668
1569849755,308.297,133.834,-3.90674,176.396,5.03174,-146.514,668
1569849755,308.297,133.834,-3.90674,176.396,5.03174,-146.514,668
1569849755,308.297,133.834,-3.90674,176.396,5.03174,-146.514,668
1569849755,308.297,133.834,-3.90674,176.396,5.03174,-146.514,668
1569849755,308.297,133.834,-3.90674,176.396,5.03174,-146.514,668
1569849755,308.297,133.834,-3.90674,176.396,5.03174,-146.514,668
1569849755,308.297,133.834,-3.90674,176.396,5.00977,-146.514,668
1569849755,308.297,133.834,-3.90674,176.396,5.00977,-146.514,668
1569849755,308.297,133.834,-3.90674,176.396,5.00977,-146.514,664
1569849755,308.297,133.834,-3.90674,176.396,5.00977,-146.514,664
1569849755,308.297,133.834,-3.90674,176.396,5.00977,-146.514,664
1569849755,308.297,133.834,-3.90674,176.396,5.00977,-146.514,664
1569849755,308.297,133.834,-3.90674,176.396,5.00977,-146.514,664
1569849755,308.297,133.834,-3.90674,176.396,5.00977,-146.514,664
1569849755,308.297,133.834,-3.90674,176.396,5.00977,-146.514,664
1569849755,308.297,133.834,-3.90674,176.396,5.00977,-146.514,664
1569849755,308.297,133.834,-3.90674,176.396,5.03174,-146.514,664
1569849755,308.297,133.834,-3.90674,176.396,5.03174,-146.514,664
1569849755,308.297,133.834,-3.90674,176.396,5.03174,-146.514,664
1569849755,308.297,133.834,-3.90674,176.396,5.03174,-146.514,664
1569849755,308.297,133.834,-3.90674,176.396,5.03174,-146.514,664
1569849755,308.297,133.834,-3.90674,176.396,5.03174,-146.514,664
1569849755,308.297,133.834,-3.90674,176.396,5.03174,-146.514,660
1569849755,308.297,133.834,-3.90674,176.396,5.03174,-146.514,660
1569849755,308.297,133.834,-3.90674,176.396,5.03174,-146.514,660
1569849755,308.297,133.834,-3.90674,176.396,5.05371,-146.514,660
1569849755,308.297,133.834,-3.90674,176.396,5.05371,-146.514,660
1569849755,308.297,133.834,-3.90674,176.396,5.05371,-146.514,660
1569849755,308.297,133.834,-3.90674,176.396,5.05371,-146.514,660
1569849755,308.297,133.834,-3.90674,176.396,5.05371,-146.514,656
1569849755,308.297,133.834,-3.79512,176.396,5.05371,-146.514,656
1569849755,308.297,133.834,-3.79512,176.396,5.05371,-146.514,656
1569849755,308.297,133.834,-3.79512,176.396,5.05371,-146.514,656
1569849755,308.297,133.834,-3.79512,176.396,5.05371,-146.514,656
1569849755,308.297,133.834,-3.79512,176.396,5.05371,-146.514,656
1569849755,308.297,133.834,-3.79512,176.396,5.05371,-146.514,656
1569849755,308.297,133.834,-3.79512,176.396,5.05371,-146.536,656
1569849755,308.297,133.834,-3.79512,176.396,5.05371,-146.536,660
1569849755,308.297,133.834,-3.79512,176.396,5.05371,-146.536,660
1569849755,308.297,133.834,-3.79512,176.396,5.05371,-146.514,660
1569849755,308.297,133.834,-3.79512,176.396,5.05371,-146.514,660
1569849755,308.297,133.834,-3.79512,176.396,5.05371,-146.514,660
1569849755,308.297,133.834,-3.90674,176.396,5.05371,-146.514,664
1569849755,308.297,133.834,-3.90674,176.396,5.05371,-146.514,664
1569849755,308.297,133.834,-3.90674,176.396,5.05371,-146.514,664
1569849755,308.297,133.834,-3.90674,176.396,5.05371,-146.514,664
1569849755,308.297,133.834,-3.90674,176.396,5.05371,-146.514,664
1569849755,308.297,133.834,-3.90674,176.396,5.05371,-146.514,664
1569849755,308.297,133.834,-3.90674,176.396,5.05371,-146.514,664
1569849755,308.297,133.834,-3.90674,176.396,5.03174,-146.514,664
1569849755,308.297,133.834,-3.90674,176.396,5.03174,-146.514,664
1569849755,308.297,133.834,-3.90674,176.396,5.03174,-146.514,664
1569849755,308.297,133.834,-3.90674,176.396,5.03174,-146.514,664
1569849755,308.297,133.834,-3.90674,176.396,5.03174,-146.514,664
1569849755,308.297,133.834,-3.90674,176.396,5.03174,-146.514,664
1569849755,308.297,133.834,-3.90674,176.396,5.03174,-146.536,664
1569849755,308.297,133.834,-3.90674,176.396,5.03174,-146.536,664
1569849755,308.297,133.834,-3.90674,176.396,5.03174,-146.536,664
1569849755,308.297,133.834,-3.90674,176.396,5.03174,-146.536,664
1569849755,308.297,133.834,-3.90674,176.396,5.03174,-146.514,664
1569849755,308.297,133.834,-3.90674,176.396,5.03174,-146.514,664
1569849755,308.297,133.834,-3.90674,176.396,5.03174,-146.514,664
1569849755,308.297,133.834,-3.90674,176.396,5.03174,-146.514,664
1569849755,308.297,133.834,-3.90674,176.396,5.03174,-146.514,664
1569849755,308.297,133.834,-3.90674,176.396,5.03174,-146.514,664
1569849755,308.297,133.834,-3.90674,176.396,5.03174,-146.514,664
1569849755,308.297,133.834,-3.90674,176.396,5.03174,-146.514,664
1569849755,308.297,133.834,-3.90674,176.396,5.03174,-146.514,664
1569849755,308.297,133.834,-3.90674,176.396,5.03174,-146.514,664
1569849755,308.297,133.834,-3.90674,176.396,5.03174,-146.514,664
1569849755,308.297,133.834,-3.90674,176.396,5.03174,-146.536,664
1569849755,308.297,133.834,-3.90674,176.396,5.03174,-146.536,664
1569849755,308.297,133.834,-3.90674,176.396,5.05371,-146.536,664
1569849755,308.297,133.834,-3.90674,176.396,5.05371,-146.536,664
1569849755,308.297,133.834,-3.90674,176.396,5.05371,-146.536,664
1569849755,308.297,133.834,-3.79512,176.375,5.05371,-146.536,664
1569849755,308.297,133.834,-3.79512,176.375,5.05371,-146.536,664
1569849755,308.297,133.834,-3.79512,176.375,5.05371,-146.536,664
1569849755,308.297,133.834,-3.79512,176.375,5.05371,-146.536,664
1569849755,308.297,133.834,-3.79512,176.375,5.05371,-146.536,664
1569849755,308.297,133.834,-3.79512,176.375,5.05371,-146.536,664
1569849755,308.297,133.834,-3.79512,176.375,5.05371,-146.536,664
1569849755,308.297,133.834,-3.79512,176.375,5.05371,-146.514,664
1569849755,308.297,133.834,-3.79512,176.375,5.05371,-146.514,664
1569849755,308.409,133.834,-3.79512,176.375,5.05371,-146.514,664
1569849755,308.409,133.834,-3.90674,176.375,5.05371,-146.536,664
1569849755,308.409,133.834,-3.90674,176.375,5.05371,-146.536,668
1569849755,308.409,133.834,-3.90674,176.375,5.05371,-146.536,668
1569849755,308.409,133.834,-3.90674,176.375,5.05371,-146.536,668
1569849755,308.409,133.834,-3.90674,176.375,5.05371,-146.536,668
1569849755,308.409,133.834,-3.90674,176.375,5.03174,-146.536,668
1569849755,308.409,133.834,-3.90674,176.375,5.03174,-146.536,668
1569849755,308.409,133.834,-3.90674,176.375,5.03174,-146.514,668
1569849755,308.409,133.834,-3.90674,176.375,5.03174,-146.514,668
1569849755,308.409,133.834,-3.90674,176.375,5.03174,-146.514,668
1569849756,308.409,133.834,-3.90674,176.375,5.03174,-146.514,668
1569849756,308.297,133.834,-3.90674,176.375,5.03174,-146.514,668
1569849756,308.297,133.834,-3.90674,176.375,5.05371,-146.514,668
1569849756,308.297,133.834,-3.90674,176.375,5.05371,-146.514,668
1569849756,308.297,133.834,-3.90674,176.375,5.05371,-146.514,668
1569849756,308.297,133.834,-3.90674,176.375,5.05371,-146.514,668
1569849756,308.297,133.834,-3.90674,176.375,5.05371,-146.514,668
1569849756,308.297,133.834,-3.90674,176.375,5.05371,-146.514,664
1569849756,308.297,133.834,-3.90674,176.375,5.05371,-146.514,664
1569849756,308.297,133.834,-3.90674,176.375,5.05371,-146.514,664
1569849756,308.297,133.834,-3.90674,176.375,5.05371,-146.514,664
1569849756,308.297,133.834,-3.90674,176.375,5.05371,-146.514,664
1569849756,308.297,133.834,-3.90674,176.375,5.05371,-146.514,664
1569849756,308.297,133.834,-3.79512,176.375,5.05371,-146.514,660
1569849756,308.297,133.834,-3.79512,176.375,5.05371,-146.514,660
1569849756,308.297,133.834,-3.79512,176.375,5.05371,-146.514,660
1569849756,308.297,133.834,-3.79512,176.375,5.05371,-146.514,660
1569849756,308.297,133.834,-3.79512,176.375,5.05371,-146.514,660
1569849756,308.297,133.834,-3.79512,176.375,5.05371,-146.514,656
1569849756,308.297,133.834,-3.79512,176.375,5.05371,-146.514,656
1569849756,308.297,133.834,-3.79512,176.375,5.05371,-146.514,656
1569849756,308.297,133.834,-3.79512,176.375,5.05371,-146.514,656
1569849756,308.297,133.834,-3.79512,176.375,5.05371,-146.536,656
1569849756,308.297,133.834,-3.79512,176.375,5.05371,-146.536,656
1569849756,308.297,133.834,-3.79512,176.375,5.05371,-146.514,656
1569849756,308.297,133.834,-3.79512,176.375,5.05371,-146.514,656
1569849756,308.297,133.834,-3.79512,176.375,5.03174,-146.514,656
1569849756,308.297,133.834,-3.90674,176.375,5.03174,-146.514,656
1569849756,308.297,133.834,-3.90674,176.375,5.03174,-146.514,656
1569849756,308.297,133.834,-3.90674,176.375,5.03174,-146.514,656
1569849756,308.297,133.834,-3.90674,176.375,5.03174,-146.514,656
1569849756,308.297,133.834,-3.90674,176.375,5.03174,-146.514,656
1569849756,308.297,133.834,-3.90674,176.375,5.03174,-146.514,652
1569849756,308.297,133.834,-3.90674,176.375,5.03174,-146.514,652
1569849756,308.297,133.834,-3.90674,176.375,5.03174,-146.514,652
1569849756,308.297,133.834,-3.90674,176.375,5.03174,-146.514,652
1569849756,308.297,133.834,-3.90674,176.375,5.03174,-146.514,652
1569849756,308.297,133.834,-3.90674,176.375,5.03174,-146.514,652
1569849756,308.297,133.834,-3.90674,176.375,5.03174,-146.514,652
1569849756,308.297,133.834,-3.90674,176.375,5.03174,-146.514,652
1569849756,308.297,133.834,-3.90674,176.375,5.03174,-146.514,652
1569849756,308.297,133.834,-3.90674,176.375,5.03174,-146.514,652
1569849756,308.297,133.834,-3.90674,176.375,5.03174,-146.514,652
1569849756,308.297,133.834,-3.90674,176.375,5.03174,-146.514,652
1569849756,308.297,133.834,-3.90674,176.375,5.03174,-146.514,652
1569849756,308.297,133.834,-3.90674,176.375,5.03174,-146.514,652
1569849756,308.297,133.834,-3.90674,176.396,5.03174,-146.514,652
1569849756,308.297,133.834,-3.90674,176.396,5.03174,-146.514,652
1569849756,308.297,133.834,-3.90674,176.396,5.03174,-146.514,652
1569849756,308.297,133.834,-3.90674,176.396,5.03174,-146.514,652
1569849756,308.297,133.834,-3.90674,176.396,5.00977,-146.514,652
1569849756,308.297,133.834,-3.90674,176.396,5.00977,-146.514,652
1569849756,308.297,133.834,-3.90674,176.396,5.00977,-146.514,656
1569849756,308.297,133.834,-3.90674,176.396,5.00977,-146.514,656
1569849756,308.297,133.834,-3.90674,176.396,5.00977,-146.514,656
1569849756,308.297,133.834,-3.90674,176.396,5.00977,-146.514,656
1569849756,308.297,133.834,-3.90674,176.396,5.00977,-146.514,656
1569849756,308.297,133.834,-3.90674,176.396,5.00977,-146.514,656
1569849756,308.297,133.834,-3.90674,176.396,5.00977,-146.514,656
1569849756,308.297,133.834,-3.90674,176.396,5.00977,-146.514,656
1569849756,308.297,133.834,-3.90674,176.396,5.00977,-146.514,656
1569849756,308.297,133.834,-3.90674,176.375,5.00977,-146.514,656
1569849756,308.297,133.834,-3.90674,176.396,5.03174,-146.514,656
1569849756,308.297,133.834,-3.90674,176.396,5.03174,-146.514,656
1569849756,308.297,133.834,-3.90674,176.396,5.03174,-146.514,656
1569849756,308.297,133.834,-3.90674,176.396,5.03174,-146.514,656
1569849756,308.297,133.834,-3.90674,176.396,5.03174,-146.514,656
1569849756,308.297,133.834,-3.90674,176.396,5.03174,-146.514,656
1569849756,308.297,133.834,-3.90674,176.396,5.03174,-146.514,656
1569849756,308.297,133.834,-3.90674,176.396,5.03174,-146.514,656
1569849756,308.297,133.834,-3.90674,176.396,5.03174,-146.514,656
1569849756,308.297,133.834,-3.90674,176.396,5.03174,-146.514,656
1569849756,308.297,133.834,-3.90674,176.396,5.03174,-146.514,656
1569849756,308.297,133.834,-3.90674,176.396,5.03174,-146.514,656
1569849756,308.297,133.834,-3.90674,176.396,5.03174,-146.514,656
1569849756,308.297,133.834,-3.90674,176.396,5.03174,-146.514,656
1569849756,308.297,133.834,-3.90674,176.396,5.03174,-146.514,656
1569849756,308.297,133.834,-3.90674,176.396,5.03174,-146.514,656
1569849756,308.297,133.834,-3.90674,176.396,5.03174,-146.514,656
1569849756,308.297,133.834,-3.90674,176.396,5.03174,-146.514,656
1569849756,308.297,133.834,-3.90674,176.396,5.03174,-146.492,656
1569849756,308.297,133.834,-3.90674,176.396,5.03174,-146.492,656
1569849756,308.297,133.834,-3.90674,176.396,5.03174,-146.492,656
1569849756,308.297,133.834,-3.90674,176.396,5.03174,-146.492,656
1569849756,308.297,133.834,-3.90674,176.396,5.03174,-146.492,656
1569849756,308.297,133.834,-3.90674,176.396,5.03174,-146.492,656
1569849756,308.297,133.834,-3.90674,176.396,5.03174,-146.492,656
1569849756,308.297,133.834,-3.90674,176.396,5.03174,-146.492,656
1569849756,308.297,133.834,-3.90674,176.396,5.03174,-146.492,656
1569849756,308.297,133.834,-3.90674,176.396,5.03174,-146.492,656
1569849756,308.297,133.834,-3.90674,176.396,5.03174,-146.492,656
1569849756,308.297,133.834,-3.90674,176.396,5.03174,-146.492,656
1569849756,308.297,133.834,-3.90674,176.396,5.03174,-146.492,656
1569849756,308.297,133.834,-3.90674,176.396,5.03174,-146.492,656
1569849756,308.297,133.834,-3.90674,176.396,5.03174,-146.492,656
1569849756,308.297,133.834,-3.90674,176.396,5.03174,-146.492,660
1569849756,308.297,133.834,-3.90674,176.396,5.03174,-146.492,660
1569849756,308.297,133.834,-3.90674,176.396,5.03174,-146.492,660
1569849756,308.409,133.834,-3.90674,176.396,5.03174,-146.492,660
1569849756,308.409,133.834,-3.90674,176.396,5.03174,-146.492,660
1569849757,308.409,133.834,-3.90674,176.396,5.03174,-146.492,664
1569849757,308.409,133.834,-3.90674,176.396,5.03174,-146.492,664
1569849757,308.409,133.834,-3.90674,176.396,5.03174,-146.492,664
1569849757,308.409,133.834,-3.90674,176.375,5.03174,-146.492,664
1569849757,308.409,133.834,-3.90674,176.375,5.03174,-146.492,664
1569849757,308.409,133.834,-3.90674,176.375,5.03174,-146.492,664
1569849757,308.409,133.834,-3.90674,176.375,5.03174,-146.492,664
1569849757,308.409,133.834,-3.90674,176.375,5.03174,-146.492,664
1569849757,308.409,133.834,-3.90674,176.375,5.03174,-146.492,664
1569849757,308.409,133.834,-3.90674,176.375,5.03174,-146.492,664
1569849757,308.409,133.834,-3.90674,176.396,5.03174,-146.492,668
1569849757,308.409,133.834,-3.90674,176.396,5.03174,-146.492,668
1569849757,308.409,133.834,-3.90674,176.396,5.03174,-146.492,668
1569849757,308.409,133.834,-3.90674,176.396,5.03174,-146.492,668
1569849757,308.409,133.834,-3.90674,176.396,5.03174,-146.492,668
1569849757,308.409,133.834,-3.90674,176.396,5.03174,-146.492,668
1569849757,308.409,133.834,-3.90674,176.396,5.03174,-146.492,668
1569849757,308.409,133.834,-3.90674,176.396,5.03174,-146.514,668
1569849757,308.409,133.834,-3.90674,176.396,5.03174,-146.514,668
1569849760,331.515,109.835,-2.79053,176.66,5.44922,-146.624,924
1569849760,331.515,109.835,-2.79053,176.66,5.42725,-146.624,924
1569849761,331.403,109.835,-2.79053,176.66,5.42725,-146.624,924
1569849761,331.403,109.835,-2.79053,176.66,5.42725,-146.624,924
1569849761,331.403,109.835,-2.79053,176.66,5.42725,-146.624,924
1569849761,331.403,109.835,-2.79053,176.66,5.42725,-146.624,924
1569849761,331.403,109.835,-2.79053,176.66,5.42725,-146.624,924
1569849761,331.403,109.835,-2.79053,176.66,5.42725,-146.624,924
1569849761,331.403,109.835,-2.79053,176.682,5.42725,-146.624,924
1569849761,331.403,109.835,-2.79053,176.682,5.44922,-146.624,924
1569849761,331.403,109.835,-2.79053,176.682,5.44922,-146.624,924
1569849761,331.403,109.835,-2.79053,176.682,5.44922,-146.624,924
1569849761,331.403,109.835,-2.79053,176.682,5.44922,-146.624,924
1569849761,331.403,109.835,-2.79053,176.682,5.44922,-146.624,924
1569849761,331.403,109.835,-2.79053,176.682,5.44922,-146.624,924
1569849761,331.403,109.835,-2.79053,176.682,5.44922,-146.624,924
1569849761,331.403,109.835,-2.79053,176.682,5.44922,-146.624,924
1569849761,331.403,109.835,-2.90215,176.682,5.44922,-146.624,924
1569849761,331.403,109.835,-2.90215,176.66,5.44922,-146.624,924
1569849761,331.403,109.835,-2.90215,176.66,5.44922,-146.624,924
1569849761,331.403,109.835,-2.90215,176.66,5.42725,-146.624,924
1569849761,331.403,109.835,-2.90215,176.66,5.42725,-146.624,920
1569849761,331.403,109.835,-2.90215,176.66,5.42725,-146.624,920
1569849761,331.403,109.835,-2.90215,176.66,5.42725,-146.624,920
1569849761,331.403,109.835,-2.90215,176.66,5.42725,-146.624,920
1569849761,331.403,109.724,-2.90215,176.66,5.42725,-146.624,920
1569849761,331.403,109.724,-2.90215,176.66,5.42725,-146.624,920
1569849761,331.403,109.724,-2.90215,176.66,5.42725,-146.624,920
1569849761,331.403,109.724,-2.90215,176.66,5.42725,-146.624,920
1569849761,331.403,109.724,-2.90215,176.66,5.42725,-146.624,920
1569849761,331.403,109.724,-2.90215,176.66,5.42725,-146.624,920
1569849761,331.403,109.724,-2.90215,176.66,5.42725,-146.624,920
1569849761,331.403,109.835,-2.90215,176.66,5.42725,-146.624,920
1569849761,331.403,109.835,-2.90215,176.66,5.42725,-146.624,924
1569849761,331.403,109.835,-2.90215,176.66,5.42725,-146.624,924
1569849761,331.403,109.835,-2.90215,176.66,5.42725,-146.624,924
1569849761,331.403,109.835,-2.90215,176.66,5.42725,-146.624,924
1569849761,331.403,109.835,-2.90215,176.66,5.42725,-146.624,924
1569849761,331.403,109.835,-2.90215,176.66,5.42725,-146.624,924
1569849761,331.403,109.835,-2.90215,176.66,5.42725,-146.624,928
1569849761,331.403,109.835,-2.90215,176.66,5.42725,-146.624,928
1569849761,331.403,109.835,-2.90215,176.66,5.42725,-146.624,928
1569849761,331.403,109.835,-2.90215,176.66,5.42725,-146.624,928
1569849761,331.403,109.835,-2.90215,176.66,5.42725,-146.624,928
1569849761,331.403,109.835,-2.90215,176.66,5.42725,-146.624,928
1569849761,331.403,109.835,-2.90215,176.66,5.42725,-146.624,928
1569849761,331.403,109.835,-2.90215,176.66,5.42725,-146.602,932
1569849761,331.403,109.835,-2.90215,176.66,5.42725,-146.602,932
1569849761,331.403,109.835,-2.90215,176.66,5.42725,-146.602,932
1569849761,331.403,109.835,-2.90215,176.66,5.42725,-146.602,932
1569849761,331.403,109.835,-2.90215,176.66,5.42725,-146.602,932
1569849761,331.403,109.835,-2.90215,176.66,5.42725,-146.602,932
1569849761,331.403,109.835,-2.90215,176.66,5.42725,-146.602,932
1569849761,331.403,109.835,-2.90215,176.66,5.42725,-146.602,932
1569849761,331.403,109.835,-2.90215,176.66,5.42725,-146.624,932
1569849761,331.403,109.835,-2.90215,176.66,5.44922,-146.624,932
1569849761,331.403,109.835,-2.90215,176.66,5.44922,-146.624,932
1569849761,331.403,109.835,-2.90215,176.66,5.44922,-146.624,932
1569849761,331.403,109.835,-2.90215,176.66,5.44922,-146.602,932
1569849761,331.403,109.835,-2.90215,176.66,5.44922,-146.602,932
1569849761,331.403,109.835,-2.90215,176.66,5.44922,-146.602,932
1569849761,331.403,109.835,-2.90215,176.66,5.44922,-146.602,932
1569849761,331.403,109.835,-2.90215,176.66,5.44922,-146.602,932
1569849761,331.403,109.835,-2.90215,176.66,5.44922,-146.602,932
1569849761,331.403,109.835,-2.90215,176.66,5.44922,-146.602,932
1569849761,331.403,109.835,-2.90215,176.66,5.44922,-146.602,932
1569849761,331.403,109.835,-2.90215,176.66,5.44922,-146.602,932
1569849761,331.403,109.835,-2.90215,176.66,5.44922,-146.602,932
1569849761,331.403,109.835,-2.90215,176.66,5.44922,-146.602,932
1569849761,331.403,109.835,-2.90215,176.66,5.44922,-146.602,932
1569849761,331.403,109.835,-2.90215,176.66,5.44922,-146.602,932
1569849761,331.403,109.835,-2.90215,176.66,5.44922,-146.602,932
1569849761,331.403,109.835,-2.90215,176.66,5.44922,-146.602,932
1569849761,331.403,109.835,-2.90215,176.638,5.44922,-146.602,932
1569849761,331.403,109.835,-2.90215,176.638,5.44922,-146.602,932
1569849761,331.403,109.835,-2.90215,176.638,5.44922,-146.602,932
1569849761,331.403,109.724,-2.90215,176.638,5.44922,-146.624,932
1569849761,331.403,109.724,-2.90215,176.638,5.44922,-146.624,932
1569849761,331.403,109.724,-2.90215,176.638,5.44922,-146.624,932
1569849761,331.403,109.724,-2.90215,176.638,5.44922,-146.624,932
1569849761,331.403,109.724,-2.90215,176.638,5.44922,-146.624,932
1569849761,331.403,109.724,-2.90215,176.66,5.42725,-146.624,928
1569849761,331.403,109.835,-2.90215,176.66,5.42725,-146.624,928
1569849761,331.403,109.835,-2.90215,176.66,5.42725,-146.624,928
1569849761,331.403,109.835,-2.90215,176.66,5.42725,-146.624,928
1569849761,331.403,109.835,-2.90215,176.66,5.42725,-146.624,928
1569849761,331.403,109.835,-2.90215,176.66,5.44922,-146.624,928
1569849761,331.403,109.835,-2.90215,176.66,5.44922,-146.624,924
1569849761,331.403,109.835,-2.90215,176.66,5.44922,-146.624,924
1569849761,331.403,109.835,-2.79053,176.66,5.44922,-146.624,924
1569849761,331.403,109.835,-2.79053,176.66,5.44922,-146.624,924
1569849761,331.403,109.835,-2.79053,176.66,5.44922,-146.624,920
1569849761,331.403,109.835,-2.79053,176.66,5.44922,-146.624,920
1569849761,331.403,109.835,-2.79053,176.66,5.44922,-146.624,920
1569849761,331.403,109.724,-2.79053,176.66,5.44922,-146.624,920
1569849761,331.515,109.724,-2.79053,176.66,5.44922,-146.624,920
1569849761,331.515,109.724,-2.79053,176.638,5.44922,-146.624,916
1569849761,331.515,109.724,-2.79053,176.638,5.44922,-146.624,916
1569849761,331.515,109.724,-2.79053,176.638,5.44922,-146.624,916
1569849761,331.515,109.724,-2.79053,176.638,5.44922,-146.624,916
1569849761,331.515,109.724,-2.79053,176.638,5.47119,-146.624,916
1569849762,331.515,109.835,-2.79053,176.638,5.47119,-146.624,916
1569849762,331.515,109.835,-2.79053,176.638,5.47119,-146.624,920
1569849762,331.515,109.835,-2.79053,176.638,5.47119,-146.624,920
1569849762,331.515,109.835,-2.79053,176.66,5.47119,-146.624,920
1569849762,331.515,109.835,-2.79053,176.66,5.47119,-146.624,920
1569849762,331.515,109.835,-2.79053,176.66,5.47119,-146.624,920
1569849762,331.515,109.835,-2.79053,176.66,5.47119,-146.624,920
1569849762,331.515,109.835,-2.79053,176.66,5.47119,-146.624,920
1569849762,331.515,109.835,-2.79053,176.66,5.47119,-146.624,924
1569849762,331.515,109.835,-2.79053,176.66,5.47119,-146.624,924
1569849762,331.515,109.835,-2.79053,176.66,5.44922,-146.624,924
1569849762,331.515,109.835,-2.79053,176.66,5.44922,-146.624,924
1569849762,331.515,109.835,-2.79053,176.66,5.44922,-146.624,924
1569849762,331.515,109.835,-2.79053,176.66,5.44922,-146.624,928
1569849762,331.515,109.835,-2.79053,176.66,5.44922,-146.624,928
1569849762,331.515,109.835,-2.79053,176.66,5.44922,-146.624,928
1569849762,331.515,109.835,-2.79053,176.66,5.44922,-146.624,932
1569849762,331.515,109.835,-2.79053,176.66,5.44922,-146.624,932
1569849762,331.515,109.835,-2.79053,176.66,5.44922,-146.624,932
1569849762,331.515,109.835,-2.79053,176.66,5.44922,-146.624,932
1569849762,331.515,109.835,-2.90215,176.66,5.44922,-146.624,936
1569849762,331.515,109.835,-2.90215,176.66,5.44922,-146.624,936
1569849762,331.515,109.835,-2.90215,176.66,5.44922,-146.624,936
1569849762,331.515,109.835,-2.90215,176.66,5.44922,-146.624,936
1569849762,331.515,109.835,-2.90215,176.66,5.44922,-146.624,936
1569849762,331.515,109.835,-2.90215,176.66,5.42725,-146.624,936
1569849762,331.515,109.835,-2.90215,176.66,5.42725,-146.624,936
1569849762,331.515,109.835,-2.90215,176.66,5.42725,-146.624,936
1569849762,331.403,109.835,-2.90215,176.66,5.42725,-146.624,936
1569849762,331.403,109.835,-2.90215,176.66,5.44922,-146.624,936
1569849762,331.403,109.835,-2.90215,176.682,5.44922,-146.624,936
1569849762,331.403,109.835,-2.90215,176.682,5.44922,-146.624,936
1569849762,331.403,109.835,-2.90215,176.682,5.44922,-146.624,936
1569849762,331.403,109.835,-2.90215,176.682,5.44922,-146.624,936
1569849762,331.403,109.835,-2.90215,176.682,5.44922,-146.624,936
1569849762,331.403,109.835,-2.79053,176.682,5.44922,-146.624,936
1569849762,331.403,109.835,-2.79053,176.682,5.44922,-146.624,936
1569849762,331.403,109.835,-2.79053,176.682,5.44922,-146.624,936
1569849762,331.403,109.835,-2.79053,176.66,5.44922,-146.624,936
1569849762,331.403,109.835,-2.79053,176.66,5.44922,-146.624,936
1569849762,331.515,109.835,-2.79053,176.66,5.44922,-146.624,936
1569849762,331.515,109.835,-2.79053,176.66,5.44922,-146.624,936
1569849762,331.515,109.835,-2.79053,176.66,5.44922,-146.624,936
1569849762,331.515,109.835,-2.90215,176.66,5.44922,-146.624,936
1569849762,331.515,109.835,-2.90215,176.682,5.42725,-146.624,936
1569849762,331.403,109.835,-2.90215,176.682,5.42725,-146.624,936
1569849762,331.403,109.835,-2.90215,176.682,5.42725,-146.624,936
1569849762,331.403,109.835,-2.90215,176.682,5.42725,-146.624,936
1569849762,331.403,109.835,-2.90215,176.682,5.42725,-146.624,936
1569849762,331.403,109.835,-2.90215,176.682,5.42725,-146.624,936
1569849762,331.403,109.835,-2.90215,176.682,5.42725,-146.624,936
1569849762,331.403,109.835,-2.90215,176.682,5.42725,-146.624,936
1569849762,331.403,109.835,-2.90215,176.682,5.42725,-146.624,936
1569849762,331.403,109.835,-2.90215,176.66,5.42725,-146.624,936
1569849762,331.515,109.835,-2.90215,176.66,5.42725,-146.624,936
1569849762,331.515,109.835,-2.90215,176.66,5.42725,-146.624,940
1569849762,331.515,109.835,-2.90215,176.66,5.42725,-146.624,940
1569849762,331.515,109.835,-2.90215,176.66,5.42725,-146.624,940
1569849762,331.515,109.835,-2.90215,176.66,5.42725,-146.624,940
1569849762,331.515,109.835,-2.90215,176.66,5.42725,-146.624,940
1569849762,331.515,109.835,-2.90215,176.66,5.42725,-146.624,940
1569849762,331.515,109.835,-2.90215,176.66,5.42725,-146.624,940
1569849762,331.515,109.835,-2.90215,176.66,5.42725,-146.624,944
1569849762,331.515,109.835,-2.90215,176.66,5.42725,-146.624,944
1569849762,331.515,109.835,-2.90215,176.66,5.42725,-146.624,944
1569849762,331.515,109.835,-2.90215,176.66,5.42725,-146.624,944
1569849762,331.403,109.835,-2.90215,176.66,5.42725,-146.624,944
1569849762,331.515,109.835,-2.90215,176.66,5.42725,-146.624,944
1569849762,331.515,109.835,-2.90215,176.66,5.42725,-146.624,944
1569849762,331.515,109.835,-2.90215,176.66,5.42725,-146.624,944
1569849762,331.515,109.835,-2.90215,176.66,5.42725,-146.624,944
1569849762,331.515,109.835,-2.90215,176.66,5.42725,-146.624,944
1569849762,331.515,109.835,-2.90215,176.66,5.42725,-146.624,940
1569849762,331.515,109.835,-2.90215,176.682,5.42725,-146.624,940
1569849762,331.515,109.835,-2.90215,176.682,5.42725,-146.624,940
1569849762,331.403,109.835,-2.90215,176.682,5.42725,-146.624,940
1569849762,331.403,109.835,-2.90215,176.682,5.42725,-146.624,940
1569849762,331.403,109.835,-2.90215,176.682,5.42725,-146.624,940
1569849762,331.403,109.835,-2.90215,176.682,5.42725,-146.624,940
1569849762,331.403,109.835,-2.90215,176.682,5.42725,-146.624,940
1569849762,331.403,109.835,-2.90215,176.682,5.42725,-146.624,940
1569849762,331.403,109.835,-2.90215,176.682,5.42725,-146.624,936
1569849762,331.403,109.835,-2.90215,176.66,5.42725,-146.624,936
1569849762,331.403,109.835,-2.90215,176.66,5.42725,-146.624,936
1569849762,331.403,109.835,-2.90215,176.66,5.42725,-146.624,936
1569849762,331.403,109.835,-2.90215,176.66,5.40527,-146.624,932
1569849762,331.403,109.835,-2.90215,176.66,5.40527,-146.624,932
1569849762,331.403,109.835,-2.90215,176.66,5.40527,-146.624,932
1569849762,331.403,109.835,-2.90215,176.66,5.42725,-146.624,928
1569849762,331.403,109.835,-2.90215,176.66,5.42725,-146.624,928
1569849762,331.403,109.835,-2.90215,176.66,5.42725,-146.624,928
1569849762,331.403,109.835,-2.90215,176.66,5.42725,-146.624,924
1569849762,331.403,109.835,-2.90215,176.66,5.42725,-146.624,924
1569849762,331.403,109.835,-2.90215,176.66,5.42725,-146.624,924
1569849762,331.403,109.835,-2.90215,176.66,5.42725,-146.624,924
1569849762,331.403,109.835,-2.90215,176.66,5.42725,-146.624,920
1569849762,331.403,109.835,-2.90215,176.66,5.42725,-146.624,920
1569849762,331.403,109.835,-2.90215,176.66,5.42725,-146.624,920
1569849762,331.403,109.835,-2.90215,176.66,5.42725,-146.624,920
1569849762,331.403,109.835,-2.90215,176.66,5.42725,-146.624,920
1569849763,331.403,109.835,-2.90215,176.66,5.42725,-146.624,916
1569849763,331.403,109.835,-2.90215,176.66,5.42725,-146.624,916
1569849763,331.403,109.835,-2.90215,176.66,5.42725,-146.624,916
1569849763,331.403,109.835,-2.90215,176.66,5.42725,-146.624,916
1569849763,331.403,109.835,-2.90215,176.66,5.42725,-146.624,916
1569849763,331.403,109.835,-2.90215,176.66,5.42725,-146.624,916
1569849763,331.403,109.835,-2.90215,176.66,5.42725,-146.624,916
1569849763,331.403,109.835,-2.90215,176.66,5.42725,-146.624,916
1569849763,331.403,109.835,-2.90215,176.66,5.42725,-146.624,916
1569849763,331.403,109.835,-2.90215,176.66,5.42725,-146.624,916
1569849763,331.403,109.835,-2.90215,176.66,5.42725,-146.624,916
1569849763,331.403,109.835,-2.90215,176.66,5.42725,-146.624,916
1569849763,331.403,109.835,-2.90215,176.66,5.42725,-146.624,916
1569849763,331.403,109.835,-2.90215,176.66,5.42725,-146.624,916
1569849763,331.403,109.835,-2.90215,176.66,5.42725,-146.624,916
1569849763,331.403,109.835,-2.90215,176.66,5.42725,-146.624,916
1569849763,331.403,109.835,-2.90215,176.66,5.42725,-146.624,916
1569849763,331.403,109.835,-2.90215,176.66,5.42725,-146.624,916
1569849763,331.515,109.835,-2.90215,176.682,5.40527,-146.624,920
1569849763,331.515,109.835,-2.90215,176.682,5.40527,-146.624,920
1569849763,331.515,109.835,-2.90215,176.682,5.40527,-146.624,920
1569849763,331.515,109.835,-2.90215,176.682,5.40527,-146.624,920
1569849763,331.515,109.835,-2.90215,176.682,5.40527,-146.624,920
1569849763,331.515,109.835,-2.90215,176.682,5.40527,-146.624,920
1569849763,331.515,109.835,-2.90215,176.682,5.40527,-146.624,924
1569849763,331.515,109.835,-2.90215,176.682,5.40527,-146.624,924
1569849763,331.515,109.835,-2.90215,176.682,5.40527,-146.624,924
1569849763,331.515,109.835,-2.90215,176.682,5.40527,-146.624,924
1569849763,331.515,109.835,-2.90215,176.682,5.40527,-146.624,924
1569849763,331.403,109.835,-2.90215,176.682,5.40527,-146.624,924
1569849763,331.403,109.835,-2.90215,176.682,5.40527,-146.624,924
1569849763,331.403,109.835,-2.90215,176.66,5.40527,-146.624,924
1569849763,331.403,109.835,-2.90215,176.66,5.40527,-146.624,924
1569849763,331.403,109.835,-2.90215,176.66,5.40527,-146.624,924
1569849763,331.403,109.835,-2.90215,176.66,5.40527,-146.624,920
1569849763,331.403,109.835,-2.90215,176.66,5.40527,-146.624,920
1569849763,331.403,109.835,-2.90215,176.66,5.42725,-146.624,920
1569849763,331.403,109.835,-2.90215,176.66,5.42725,-146.624,920
1569849763,331.403,109.835,-2.90215,176.66,5.42725,-146.624,920
1569849763,331.403,109.835,-2.90215,176.66,5.42725,-146.624,920
1569849763,331.403,109.835,-2.90215,176.66,5.42725,-146.624,920
1569849763,331.403,109.835,-2.90215,176.66,5.42725,-146.624,920
1569849763,331.515,109.835,-2.90215,176.66,5.42725,-146.602,920
1569849763,331.515,109.835,-2.90215,176.66,5.42725,-146.602,920
1569849763,331.515,109.835,-2.90215,176.66,5.42725,-146.602,924
1569849763,331.515,109.835,-2.90215,176.66,5.42725,-146.602,924
1569849763,331.515,109.835,-2.90215,176.66,5.42725,-146.602,924
1569849763,331.515,109.835,-2.90215,176.66,5.42725,-146.602,924
1569849763,331.515,109.835,-2.90215,176.66,5.42725,-146.602,924
1569849763,331.515,109.835,-2.90215,176.66,5.42725,-146.602,924
1569849763,331.515,109.835,-2.90215,176.66,5.42725,-146.602,924
1569849763,331.515,109.835,-2.90215,176.66,5.42725,-146.602,924
1569849763,331.515,109.835,-2.90215,176.66,5.42725,-146.602,924
1569849763,331.515,109.835,-2.90215,176.66,5.42725,-146.602,924
1569849763,331.515,109.835,-2.90215,176.66,5.42725,-146.602,924
1569849763,331.515,109.835,-2.90215,176.66,5.42725,-146.602,928
1569849763,331.515,109.835,-2.90215,176.66,5.42725,-146.602,928
1569849763,331.515,109.835,-2.90215,176.66,5.42725,-146.602,928
1569849763,331.515,109.835,-2.90215,176.66,5.42725,-146.602,928
1569849763,331.515,109.835,-2.90215,176.66,5.42725,-146.602,928
1569849763,331.515,109.835,-2.90215,176.66,5.42725,-146.602,928
1569849763,331.515,109.835,-2.90215,176.66,5.42725,-146.602,928
1569849763,331.515,109.835,-2.90215,176.682,5.42725,-146.602,928
1569849763,331.515,109.835,-2.90215,176.682,5.42725,-146.602,928
1569849763,331.515,109.835,-2.90215,176.682,5.42725,-146.602,928
1569849763,331.515,109.835,-2.90215,176.682,5.42725,-146.602,928
1569849763,331.515,109.835,-2.90215,176.682,5.42725,-146.602,928
1569849763,331.515,109.835,-2.90215,176.682,5.42725,-146.602,928
1569849763,331.515,109.835,-2.90215,176.682,5.42725,-146.602,928
1569849763,331.515,109.835,-2.90215,176.682,5.42725,-146.602,928
1569849763,331.515,109.835,-2.90215,176.682,5.42725,-146.602,928
1569849763,331.515,109.835,-2.90215,176.682,5.42725,-146.602,928
1569849763,331.515,109.835,-2.90215,176.682,5.42725,-146.602,928
1569849763,331.515,109.835,-2.90215,176.682,5.42725,-146.602,928
1569849763,331.515,109.835,-2.90215,176.682,5.42725,-146.602,928
1569849763,331.515,109.835,-2.90215,176.682,5.42725,-146.602,928
1569849763,331.515,109.835,-2.90215,176.682,5.42725,-146.602,928
1569849763,331.515,109.835,-2.90215,176.682,5.42725,-146.602,928
1569849763,331.403,109.835,-2.90215,176.682,5.42725,-146.602,928
1569849763,331.403,109.835,-2.90215,176.682,5.42725,-146.602,924
1569849763,331.403,109.835,-2.90215,176.682,5.42725,-146.602,924
1569849763,331.403,109.835,-2.90215,176.682,5.42725,-146.602,924
1569849763,331.515,109.835,-2.90215,176.682,5.42725,-146.602,924
1569849763,331.515,109.835,-2.90215,176.682,5.42725,-146.602,924
1569849763,331.515,109.835,-2.90215,176.682,5.42725,-146.602,928
1569849763,331.515,109.835,-2.90215,176.682,5.42725,-146.602,928
1569849763,331.515,109.835,-2.90215,176.682,5.42725,-146.602,928
1569849763,331.515,109.835,-2.90215,176.682,5.42725,-146.602,928
1569849763,331.515,109.835,-2.90215,176.682,5.44922,-146.602,928
1569849763,331.515,109.835,-2.90215,176.682,5.44922,-146.602,928
1569849763,331.515,109.835,-2.90215,176.682,5.44922,-146.602,928
1569849763,331.515,109.835,-2.90215,176.682,5.44922,-146.602,932
1569849763,331.403,109.835,-2.90215,176.682,5.44922,-146.602,932
1569849763,331.403,109.835,-2.90215,176.682,5.44922,-146.602,932
1569849763,331.403,109.835,-2.90215,176.682,5.44922,-146.602,932
1569849763,331.403,109.835,-2.90215,176.682,5.44922,-146.602,932
1569849763,331.403,109.835,-2.79053,176.682,5.44922,-146.602,936
1569849763,331.403,109.835,-2.79053,176.682,5.44922,-146.602,936
1569849763,331.403,109.835,-2.79053,176.682,5.44922,-146.602,936
1569849763,331.403,109.835,-2.79053,176.682,5.44922,-146.602,936
1569849764,331.403,109.835,-2.79053,176.682,5.44922,-146.602,936
1569849764,331.403,109.835,-2.79053,176.682,5.44922,-146.602,936
1569849764,331.403,109.835,-2.79053,176.682,5.44922,-146.602,936
1569849764,331.403,109.835,-2.79053,176.682,5.44922,-146.602,936
1569849764,331.403,109.835,-2.79053,176.682,5.44922,-146.602,936
1569849764,331.403,109.835,-2.79053,176.682,5.44922,-146.624,936
1569849764,331.403,109.835,-2.79053,176.682,5.44922,-146.624,936
1569849764,331.403,109.947,-2.79053,176.682,5.44922,-146.624,936
1569849764,331.403,109.947,-2.79053,176.682,5.44922,-146.624,936
1569849764,331.403,109.947,-2.79053,176.682,5.44922,-146.624,936
1569849764,331.403,109.947,-2.79053,176.682,5.44922,-146.624,936
1569849764,331.403,109.947,-2.79053,176.682,5.44922,-146.624,936
1569849764,331.403,109.947,-2.79053,176.682,5.44922,-146.624,932
1569849764,331.515,109.947,-2.79053,176.682,5.44922,-146.624,932
1569849764,331.515,109.947,-2.79053,176.682,5.44922,-146.624,932
1569849764,331.515,109.947,-2.79053,176.682,5.44922,-146.624,932
1569849764,331.515,109.947,-2.79053,176.682,5.44922,-146.624,932
1569849764,331.515,109.835,-2.79053,176.682,5.44922,-146.624,932
1569849764,331.515,109.835,-2.79053,176.682,5.47119,-146.624,932
1569849764,331.515,109.835,-2.79053,176.682,5.47119,-146.624,932
1569849764,331.515,109.835,-2.79053,176.682,5.47119,-146.624,932
1569849764,331.515,109.835,-2.79053,176.682,5.47119,-146.624,932
1569849764,331.515,109.835,-2.79053,176.682,5.47119,-146.624,932
1569849764,331.515,109.835,-2.79053,176.682,5.44922,-146.624,932
1569849764,331.515,109.835,-2.79053,176.682,5.44922,-146.602,928
1569849764,331.515,109.835,-2.79053,176.682,5.44922,-146.602,928
1569849764,331.403,109.835,-2.79053,176.682,5.44922,-146.602,928
1569849764,331.403,109.835,-2.79053,176.682,5.44922,-146.602,928
1569849764,331.403,109.835,-2.79053,176.682,5.44922,-146.602,924
1569849764,331.403,109.835,-2.79053,176.66,5.44922,-146.602,924
1569849764,331.403,109.835,-2.79053,176.66,5.44922,-146.602,924
1569849764,331.403,109.835,-2.79053,176.66,5.44922,-146.602,924
1569849764,331.403,109.835,-2.79053,176.66,5.44922,-146.602,920
1569849764,331.403,109.835,-2.79053,176.66,5.44922,-146.624,920
1569849764,331.403,109.835,-2.79053,176.66,5.44922,-146.624,920
1569849764,331.403,109.835,-2.79053,176.66,5.44922,-146.624,920
1569849764,331.403,109.835,-2.79053,176.66,5.44922,-146.624,916
1569849764,331.403,109.835,-2.79053,176.66,5.44922,-146.624,916
1569849764,331.403,109.835,-2.79053,176.66,5.44922,-146.624,916
1569849764,331.403,109.835,-2.79053,176.66,5.44922,-146.624,916
1569849764,331.403,109.835,-2.79053,176.66,5.44922,-146.624,916
1569849764,331.403,109.835,-2.79053,176.66,5.44922,-146.624,916
1569849764,331.403,109.835,-2.79053,176.66,5.44922,-146.624,916
1569849764,331.403,109.835,-2.79053,176.66,5.44922,-146.624,916
1569849764,331.403,109.835,-2.79053,176.66,5.44922,-146.624,916
1569849764,331.403,109.835,-2.79053,176.66,5.44922,-146.624,916
1569849764,331.403,109.835,-2.79053,176.66,5.44922,-146.624,916
1569849764,331.403,109.835,-2.79053,176.682,5.44922,-146.624,916
1569849764,331.403,109.835,-2.79053,176.682,5.44922,-146.624,916
1569849764,331.403,109.835,-2.79053,176.682,5.44922,-146.624,916
1569849764,331.403,109.835,-2.79053,176.682,5.44922,-146.624,916
1569849764,331.515,109.835,-2.79053,176.682,5.44922,-146.624,916
1569849764,331.515,109.835,-2.79053,176.682,5.44922,-146.624,916
1569849764,331.403,109.835,-2.90215,176.682,5.44922,-146.602,916
1569849764,331.403,109.835,-2.90215,176.682,5.44922,-146.602,916
1569849764,331.403,109.835,-2.90215,176.682,5.44922,-146.602,916
1569849764,331.403,109.835,-2.90215,176.682,5.44922,-146.602,916
1569849764,331.403,109.835,-2.90215,176.682,5.42725,-146.602,916
1569849764,331.403,109.835,-2.90215,176.682,5.44922,-146.602,916
1569849764,331.403,109.835,-2.90215,176.682,5.44922,-146.602,916
1569849764,331.403,109.835,-2.90215,176.682,5.44922,-146.602,916
1569849764,331.403,109.835,-2.90215,176.682,5.44922,-146.602,916
1569849764,331.403,109.835,-2.79053,176.682,5.44922,-146.602,912
1569849764,331.403,109.835,-2.79053,176.682,5.44922,-146.602,912
1569849764,331.403,109.835,-2.79053,176.682,5.44922,-146.602,912
1569849764,331.403,109.835,-2.79053,176.682,5.44922,-146.602,912
1569849764,331.403,109.835,-2.79053,176.682,5.44922,-146.602,912
1569849764,331.403,109.835,-2.90215,176.682,5.44922,-146.602,912
1569849764,331.403,109.835,-2.90215,176.682,5.44922,-146.602,912
1569849764,331.403,109.835,-2.90215,176.682,5.42725,-146.602,916
1569849764,331.403,109.835,-2.90215,176.682,5.42725,-146.602,916
1569849764,331.403,109.835,-2.90215,176.682,5.42725,-146.602,916
1569849764,331.403,109.835,-2.90215,176.682,5.42725,-146.602,916
1569849764,331.403,109.835,-2.90215,176.682,5.42725,-146.602,916
1569849764,331.403,109.835,-2.90215,176.682,5.42725,-146.602,916
1569849764,331.403,109.835,-2.90215,176.682,5.42725,-146.602,920
1569849764,331.403,109.835,-2.90215,176.682,5.44922,-146.602,920
1569849764,331.403,109.835,-2.90215,176.682,5.44922,-146.602,920
1569849764,331.403,109.835,-2.90215,176.682,5.44922,-146.602,920
1569849764,331.403,109.835,-2.90215,176.682,5.44922,-146.602,920
1569849764,331.403,109.835,-2.90215,176.682,5.42725,-146.602,924
1569849764,331.403,109.835,-2.90215,176.682,5.42725,-146.602,924
1569849764,331.403,109.835,-2.90215,176.682,5.42725,-146.602,924
1569849764,331.403,109.835,-2.90215,176.682,5.42725,-146.602,924
1569849764,331.403,109.835,-2.90215,176.682,5.42725,-146.602,924
1569849764,331.403,109.835,-2.90215,176.682,5.42725,-146.602,924
1569849764,331.403,109.835,-2.90215,176.682,5.42725,-146.602,924
1569849764,331.403,109.835,-2.90215,176.682,5.42725,-146.602,924
1569849764,331.403,109.835,-2.90215,176.682,5.42725,-146.602,924
1569849764,331.403,109.835,-2.90215,176.682,5.42725,-146.602,924
1569849764,331.403,109.835,-2.90215,176.682,5.42725,-146.602,924
1569849764,331.403,109.835,-2.90215,176.682,5.42725,-146.602,924
1569849764,331.403,109.835,-2.90215,176.682,5.42725,-146.602,924
1569849764,331.403,109.835,-2.90215,176.682,5.42725,-146.602,924
1569849764,331.515,109.835,-2.90215,176.682,5.40527,-146.602,924
1569849764,331.515,109.835,-2.90215,176.682,5.40527,-146.602,924
1569849764,331.403,109.835,-2.90215,176.682,5.40527,-146.602,924
1569849764,331.403,109.835,-2.90215,176.682,5.40527,-146.602,924
1569849764,331.403,109.835,-2.90215,176.682,5.40527,-146.602,924
1569849764,331.403,109.835,-2.90215,176.682,5.40527,-146.602,920
1569849765,331.403,109.835,-2.90215,176.682,5.40527,-146.602,920
1569849765,331.403,109.835,-2.90215,176.682,5.40527,-146.602,920
1569849765,331.403,109.835,-2.90215,176.682,5.40527,-146.602,920
1569849765,331.403,109.835,-2.90215,176.682,5.40527,-146.602,920
1569849765,331.403,109.835,-2.90215,176.682,5.40527,-146.602,920
1569849765,331.403,109.835,-2.90215,176.682,5.40527,-146.602,920
1569849765,331.403,109.835,-2.90215,176.682,5.42725,-146.624,920
1569849765,331.403,109.835,-2.90215,176.682,5.42725,-146.624,920
1569849765,331.403,109.835,-2.90215,176.66,5.42725,-146.624,920
1569849765,331.403,109.835,-2.90215,176.66,5.42725,-146.624,920
1569849765,331.403,109.835,-2.90215,176.66,5.42725,-146.624,920
1569849765,331.403,109.835,-2.90215,176.66,5.42725,-146.624,920
1569849765,331.403,109.835,-2.90215,176.66,5.42725,-146.624,920
1569849765,331.403,109.835,-2.90215,176.66,5.42725,-146.624,916
1569849765,331.403,109.835,-2.90215,176.66,5.42725,-146.624,916
1569849765,331.403,109.835,-2.90215,176.66,5.42725,-146.624,916
1569849765,331.403,109.835,-2.90215,176.66,5.42725,-146.624,916
1569849765,331.403,109.835,-2.90215,176.66,5.42725,-146.624,916
1569849765,331.403,109.835,-2.90215,176.66,5.42725,-146.624,916
1569849765,331.403,109.835,-2.90215,176.66,5.42725,-146.624,916
1569849765,331.403,109.835,-2.90215,176.66,5.42725,-146.624,916
1569849765,331.403,109.835,-2.90215,176.66,5.42725,-146.624,916
1569849765,331.403,109.835,-2.90215,176.66,5.42725,-146.624,912
1569849765,331.403,109.835,-2.90215,176.66,5.42725,-146.624,912
1569849765,331.403,109.835,-2.90215,176.66,5.42725,-146.624,912
1569849765,331.403,109.835,-2.90215,176.66,5.42725,-146.624,912
1569849765,331.403,109.835,-2.90215,176.66,5.42725,-146.624,912
1569849765,331.403,109.835,-2.90215,176.66,5.42725,-146.624,912
1569849765,331.403,109.835,-2.90215,176.66,5.42725,-146.624,912
1569849765,331.403,109.835,-2.90215,176.66,5.42725,-146.624,912
1569849765,331.403,109.835,-2.90215,176.66,5.42725,-146.624,912
1569849765,331.403,109.835,-2.90215,176.66,5.42725,-146.624,912
1569849765,331.403,109.835,-2.90215,176.66,5.42725,-146.624,912
1569849765,331.403,109.835,-2.90215,176.66,5.40527,-146.624,912
1569849765,331.403,109.835,-2.90215,176.66,5.40527,-146.624,912
1569849765,331.403,109.835,-2.90215,176.66,5.40527,-146.624,912
1569849765,331.403,109.835,-2.90215,176.66,5.40527,-146.624,912
1569849765,331.403,109.835,-2.90215,176.66,5.40527,-146.624,912
1569849765,331.403,109.835,-2.90215,176.66,5.40527,-146.624,912
1569849765,331.403,109.835,-2.90215,176.66,5.40527,-146.624,912
1569849765,331.403,109.724,-2.90215,176.66,5.40527,-146.624,912
1569849765,331.403,109.724,-2.90215,176.638,5.40527,-146.624,912
1569849765,331.403,109.724,-2.90215,176.638,5.40527,-146.624,912
1569849765,331.403,109.724,-2.90215,176.638,5.40527,-146.624,912
1569849765,331.403,109.724,-2.90215,176.66,5.40527,-146.624,912
1569849765,331.403,109.724,-2.90215,176.66,5.40527,-146.624,912
1569849765,331.403,109.835,-2.90215,176.66,5.42725,-146.624,912
1569849765,331.403,109.835,-2.90215,176.66,5.42725,-146.624,912
1569849765,331.403,109.835,-2.90215,176.66,5.42725,-146.624,912
1569849765,331.403,109.835,-2.90215,176.66,5.42725,-146.624,912
1569849765,331.403,109.835,-2.90215,176.66,5.42725,-146.624,912
1569849765,331.403,109.835,-2.90215,176.66,5.42725,-146.624,912
1569849765,331.403,109.835,-2.90215,176.66,5.42725,-146.624,912
1569849765,331.403,109.835,-2.90215,176.66,5.42725,-146.624,912
1569849765,331.403,109.835,-2.90215,176.66,5.42725,-146.624,912
1569849765,331.403,109.835,-2.90215,176.66,5.42725,-146.624,912
1569849765,331.403,109.835,-2.90215,176.66,5.42725,-146.624,912
1569849765,331.403,109.835,-2.90215,176.638,5.42725,-146.624,916
1569849765,331.515,109.835,-2.90215,176.638,5.42725,-146.624,916
1569849765,331.515,109.724,-2.90215,176.638,5.42725,-146.624,916
1569849765,331.515,109.724,-2.90215,176.638,5.42725,-146.624,916
1569849765,331.515,109.724,-2.90215,176.638,5.42725,-146.624,920
1569849765,331.515,109.835,-2.90215,176.638,5.42725,-146.624,920
1569849765,331.515,109.835,-2.90215,176.638,5.42725,-146.624,920
1569849765,331.515,109.835,-2.90215,176.638,5.42725,-146.624,924
1569849765,331.515,109.835,-2.90215,176.638,5.42725,-146.624,924
1569849765,331.515,109.835,-2.90215,176.638,5.40527,-146.624,924
1569849765,331.515,109.835,-2.90215,176.638,5.40527,-146.624,928
1569849765,331.515,109.835,-2.90215,176.638,5.40527,-146.624,928
1569849765,331.515,109.835,-2.90215,176.66,5.40527,-146.624,928
1569849765,331.515,109.835,-2.90215,176.66,5.40527,-146.602,928
1569849765,331.515,109.835,-2.90215,176.66,5.40527,-146.602,928
1569849765,331.515,109.835,-2.90215,176.66,5.40527,-146.602,932
1569849765,331.515,109.835,-2.90215,176.66,5.40527,-146.602,932
1569849765,331.515,109.835,-2.90215,176.66,5.40527,-146.602,928
1569849765,331.515,109.835,-2.90215,176.66,5.40527,-146.602,928
1569849765,331.515,109.835,-2.90215,176.66,5.40527,-146.602,928
1569849765,331.515,109.835,-2.90215,176.66,5.40527,-146.602,928
1569849765,331.515,109.835,-2.90215,176.66,5.40527,-146.602,928
1569849765,331.515,109.835,-2.90215,176.66,5.42725,-146.602,928
1569849765,331.515,109.835,-2.90215,176.66,5.42725,-146.602,928
1569849765,331.515,109.835,-2.90215,176.66,5.42725,-146.602,928
1569849765,331.515,109.835,-2.90215,176.66,5.42725,-146.602,928
1569849765,331.515,109.724,-2.90215,176.66,5.42725,-146.602,928
1569849765,331.515,109.724,-2.90215,176.66,5.42725,-146.602,928
1569849765,331.515,109.724,-2.90215,176.66,5.42725,-146.602,928
1569849765,331.515,109.724,-2.90215,176.638,5.42725,-146.602,928
1569849765,331.515,109.724,-2.90215,176.638,5.42725,-146.602,928
1569849765,331.515,109.724,-2.90215,176.638,5.42725,-146.602,928
1569849765,331.515,109.724,-2.90215,176.638,5.42725,-146.602,928
1569849765,331.515,109.724,-2.90215,176.638,5.42725,-146.602,928
1569849765,331.515,109.724,-2.90215,176.638,5.42725,-146.602,928
1569849765,331.515,109.724,-2.90215,176.638,5.42725,-146.602,928
1569849765,331.515,109.724,-2.90215,176.638,5.42725,-146.602,928
1569849765,331.515,109.724,-2.90215,176.638,5.42725,-146.602,928
1569849765,331.515,109.724,-2.90215,176.638,5.42725,-146.602,928
1569849765,331.515,109.724,-2.90215,176.638,5.42725,-146.602,924
1569849765,331.515,109.724,-2.90215,176.638,5.42725,-146.602,924
1569849765,331.515,109.724,-2.90215,176.638,5.42725,-146.602,924
1569849769,370.47,69.8748,-2.1208,177.231,5.47119,-145.723,1348
1569849769,370.47,69.8748,-2.1208,177.231,5.49316,-145.723,1348
1569849769,370.47,69.8748,-2.1208,177.231,5.49316,-145.723,1348
1569849769,370.47,69.8748,-2.1208,177.231,5.49316,-145.723,1348
1569849769,370.47,69.8748,-2.1208,177.231,5.49316,-145.723,1348
1569849769,370.47,69.8748,-2.1208,177.231,5.49316,-145.723,1348
1569849769,370.47,69.8748,-2.1208,177.231,5.49316,-145.723,1348
1569849769,370.47,69.8748,-2.00918,177.231,5.49316,-145.723,1348
1569849769,370.47,69.8748,-2.00918,177.231,5.49316,-145.723,1348
1569849769,370.47,69.8748,-2.00918,177.231,5.49316,-145.723,1352
1569849769,370.47,69.8748,-2.00918,177.231,5.49316,-145.723,1352
1569849769,370.47,69.8748,-2.00918,177.231,5.49316,-145.723,1352
1569849769,370.47,69.8748,-2.00918,177.231,5.49316,-145.723,1352
1569849769,370.47,69.8748,-2.00918,177.231,5.49316,-145.723,1352
1569849769,370.47,69.8748,-2.00918,177.231,5.49316,-145.723,1352
1569849769,370.47,69.8748,-2.00918,177.231,5.49316,-145.723,1352
1569849769,370.47,69.8748,-2.00918,177.231,5.49316,-145.723,1352
1569849769,370.47,69.8748,-2.00918,177.231,5.49316,-145.723,1352
1569849769,370.47,69.8748,-2.00918,177.231,5.49316,-145.723,1352
1569849769,370.47,69.8748,-2.00918,177.231,5.49316,-145.723,1352
1569849769,370.47,69.8748,-2.00918,177.231,5.49316,-145.723,1352
1569849769,370.47,69.8748,-2.1208,177.231,5.49316,-145.723,1352
1569849769,370.47,69.8748,-2.1208,177.231,5.49316,-145.723,1352
1569849769,370.47,69.8748,-2.1208,177.231,5.49316,-145.723,1352
1569849769,370.47,69.8748,-2.1208,177.231,5.47119,-145.723,1352
1569849769,370.47,69.8748,-2.1208,177.231,5.47119,-145.723,1356
1569849769,370.47,69.8748,-2.1208,177.231,5.47119,-145.723,1356
1569849769,370.47,69.8748,-2.1208,177.231,5.47119,-145.723,1356
1569849769,370.47,69.8748,-2.1208,177.231,5.47119,-145.723,1356
1569849769,370.47,69.9864,-2.1208,177.231,5.47119,-145.723,1360
1569849770,370.47,69.9864,-2.1208,177.231,5.47119,-145.723,1360
1569849770,370.47,69.9864,-2.1208,177.231,5.47119,-145.723,1360
1569849770,370.47,69.9864,-2.1208,177.231,5.47119,-145.723,1364
1569849770,370.47,69.9864,-2.1208,177.253,5.47119,-145.723,1364
1569849770,370.47,69.9864,-2.1208,177.253,5.47119,-145.723,1364
1569849770,370.47,69.9864,-2.1208,177.253,5.47119,-145.723,1368
1569849770,370.47,69.9864,-2.1208,177.253,5.47119,-145.723,1368
1569849770,370.47,69.9864,-2.1208,177.253,5.47119,-145.723,1368
1569849770,370.47,69.9864,-2.1208,177.253,5.47119,-145.723,1372
1569849770,370.47,69.9864,-2.1208,177.253,5.47119,-145.723,1372
1569849770,370.47,69.9864,-2.1208,177.253,5.47119,-145.723,1372
1569849770,370.47,69.9864,-2.1208,177.253,5.47119,-145.723,1376
1569849770,370.47,69.9864,-2.1208,177.253,5.47119,-145.723,1376
1569849770,370.47,69.9864,-2.1208,177.253,5.47119,-145.723,1376
1569849770,370.47,69.9864,-2.1208,177.231,5.47119,-145.723,1380
1569849770,370.47,69.9864,-2.1208,177.231,5.47119,-145.723,1380
1569849770,370.47,69.9864,-2.1208,177.231,5.47119,-145.723,1384
1569849770,370.47,69.9864,-2.1208,177.231,5.47119,-145.723,1384
1569849770,370.47,69.9864,-2.1208,177.231,5.47119,-145.723,1384
1569849770,370.47,69.8748,-2.1208,177.231,5.47119,-145.723,1384
1569849770,370.47,69.8748,-2.1208,177.231,5.47119,-145.723,1384
1569849770,370.47,69.8748,-2.1208,177.231,5.47119,-145.723,1384
1569849770,370.47,69.8748,-2.1208,177.231,5.47119,-145.723,1384
1569849770,370.47,69.8748,-2.1208,177.231,5.47119,-145.723,1384
1569849770,370.47,69.8748,-2.1208,177.209,5.47119,-145.723,1384
1569849770,370.47,69.8748,-2.1208,177.209,5.47119,-145.723,1384
1569849770,370.47,69.8748,-2.1208,177.209,5.47119,-145.723,1384
1569849770,370.47,69.8748,-2.1208,177.209,5.47119,-145.723,1384
1569849770,370.47,69.8748,-2.1208,177.209,5.47119,-145.723,1384
1569849770,370.47,69.8748,-2.1208,177.209,5.47119,-145.723,1384
1569849770,370.47,69.8748,-2.1208,177.209,5.47119,-145.723,1380
1569849770,370.47,69.8748,-2.1208,177.209,5.47119,-145.723,1380
1569849770,370.47,69.8748,-2.1208,177.209,5.47119,-145.723,1380
1569849770,370.47,69.8748,-2.1208,177.209,5.47119,-145.723,1380
1569849770,370.47,69.8748,-2.1208,177.209,5.47119,-145.723,1380
1569849770,370.47,69.8748,-2.1208,177.209,5.47119,-145.723,1376
1569849770,370.47,69.8748,-2.1208,177.209,5.47119,-145.723,1376
1569849770,370.47,69.8748,-2.1208,177.209,5.47119,-145.723,1376
1569849770,370.47,69.8748,-2.1208,177.209,5.47119,-145.723,1376
1569849770,370.47,69.8748,-2.1208,177.209,5.47119,-145.723,1372
1569849770,370.47,69.8748,-2.1208,177.209,5.47119,-145.723,1372
1569849770,370.47,69.8748,-2.1208,177.209,5.47119,-145.723,1372
1569849770,370.47,69.8748,-2.1208,177.209,5.47119,-145.723,1372
1569849770,370.47,69.8748,-2.1208,177.231,5.47119,-145.723,1368
1569849770,370.47,69.8748,-2.1208,177.231,5.47119,-145.723,1368
1569849770,370.47,69.8748,-2.1208,177.231,5.47119,-145.723,1368
1569849770,370.47,69.8748,-2.1208,177.231,5.47119,-145.723,1368
1569849770,370.47,69.8748,-2.1208,177.231,5.47119,-145.723,1364
1569849770,370.47,69.9864,-2.23242,177.231,5.47119,-145.723,1364
1569849770,370.47,69.9864,-2.23242,177.231,5.47119,-145.723,1364
1569849770,370.47,69.9864,-2.23242,177.231,5.47119,-145.723,1364
1569849770,370.47,69.9864,-2.23242,177.231,5.47119,-145.723,1364
1569849770,370.47,69.9864,-2.23242,177.231,5.47119,-145.723,1364
1569849770,370.47,69.9864,-2.23242,177.231,5.47119,-145.723,1364
1569849770,370.47,69.9864,-2.23242,177.231,5.44922,-145.723,1360
1569849770,370.47,69.9864,-2.23242,177.231,5.44922,-145.723,1360
1569849770,370.47,69.9864,-2.23242,177.231,5.44922,-145.723,1360
1569849770,370.47,69.9864,-2.23242,177.231,5.44922,-145.723,1360
1569849770,370.47,69.9864,-2.23242,177.231,5.44922,-145.723,1360
1569849770,370.47,69.8748,-2.23242,177.231,5.44922,-145.723,1356
1569849770,370.47,69.8748,-2.23242,177.231,5.44922,-145.723,1356
1569849770,370.47,69.8748,-2.23242,177.231,5.44922,-145.723,1356
1569849770,370.359,69.8748,-2.23242,177.231,5.44922,-145.723,1356
1569849770,370.359,69.8748,-2.23242,177.231,5.44922,-145.723,1352
1569849770,370.359,69.8748,-2.23242,177.231,5.44922,-145.723,1352
1569849770,370.359,69.8748,-2.23242,177.231,5.44922,-145.723,1352
1569849770,370.47,69.9864,-2.23242,177.231,5.44922,-145.723,1348
1569849770,370.47,69.9864,-2.23242,177.231,5.44922,-145.723,1348
1569849770,370.47,69.9864,-2.23242,177.231,5.47119,-145.723,1348
1569849770,370.47,69.9864,-2.23242,177.231,5.47119,-145.723,1348
1569849770,370.47,69.9864,-2.1208,177.231,5.47119,-145.723,1348
1569849770,370.47,69.9864,-2.1208,177.231,5.47119,-145.723,1344
1569849770,370.47,69.9864,-2.1208,177.231,5.47119,-145.745,1344
1569849770,370.359,69.9864,-2.1208,177.253,5.47119,-145.745,1344
1569849770,370.359,69.9864,-2.1208,177.253,5.47119,-145.745,1344
1569849770,370.359,69.9864,-2.1208,177.253,5.47119,-145.745,1344
1569849770,370.359,69.9864,-2.1208,177.253,5.47119,-145.745,1344
1569849770,370.359,69.9864,-2.1208,177.253,5.47119,-145.745,1344
1569849770,370.47,69.9864,-2.1208,177.253,5.47119,-145.745,1344
1569849770,370.47,69.9864,-2.1208,177.253,5.47119,-145.745,1344
1569849770,370.47,69.9864,-2.1208,177.253,5.47119,-145.745,1344
1569849770,370.47,69.9864,-2.1208,177.253,5.47119,-145.745,1344
1569849770,370.47,69.9864,-2.1208,177.253,5.47119,-145.745,1344
1569849770,370.47,69.9864,-2.1208,177.253,5.47119,-145.767,1344
1569849770,370.47,69.9864,-2.1208,177.253,5.47119,-145.767,1344
1569849770,370.47,69.9864,-2.1208,177.253,5.47119,-145.767,1344
1569849770,370.47,69.9864,-2.1208,177.253,5.49316,-145.767,1344
1569849770,370.47,69.9864,-2.1208,177.253,5.49316,-145.767,1344
1569849770,370.47,69.9864,-2.00918,177.253,5.49316,-145.767,1344
1569849770,370.47,69.9864,-2.00918,177.253,5.49316,-145.767,1344
1569849770,370.47,69.9864,-2.00918,177.253,5.49316,-145.767,1344
1569849770,370.47,69.9864,-2.00918,177.231,5.49316,-145.767,1344
1569849770,370.47,69.9864,-2.00918,177.231,5.49316,-145.767,1344
1569849770,370.47,69.9864,-2.00918,177.231,5.49316,-145.767,1344
1569849770,370.47,69.9864,-2.00918,177.231,5.49316,-145.767,1344
1569849770,370.47,69.9864,-2.00918,177.231,5.49316,-145.767,1344
1569849770,370.47,69.9864,-2.00918,177.231,5.49316,-145.767,1344
1569849770,370.47,69.9864,-2.00918,177.231,5.49316,-145.767,1344
1569849770,370.47,69.9864,-2.00918,177.231,5.49316,-145.745,1344
1569849770,370.47,69.9864,-2.00918,177.231,5.49316,-145.745,1344
1569849771,370.47,69.9864,-2.00918,177.231,5.49316,-145.745,1344
1569849771,370.47,69.9864,-2.00918,177.231,5.49316,-145.745,1344
1569849771,370.47,69.9864,-2.00918,177.231,5.49316,-145.745,1344
1569849771,370.47,69.9864,-2.00918,177.231,5.49316,-145.745,1348
1569849771,370.47,69.9864,-2.00918,177.231,5.51514,-145.745,1348
1569849771,370.47,69.9864,-2.00918,177.231,5.51514,-145.745,1348
1569849771,370.47,69.9864,-2.00918,177.231,5.51514,-145.745,1348
1569849771,370.47,69.9864,-2.00918,177.231,5.51514,-145.745,1348
1569849771,370.47,69.9864,-2.00918,177.231,5.51514,-145.745,1348
1569849771,370.47,69.9864,-2.00918,177.231,5.51514,-145.745,1348
1569849771,370.47,69.9864,-2.00918,177.231,5.51514,-145.745,1348
1569849771,370.47,69.9864,-2.00918,177.231,5.51514,-145.745,1348
1569849771,370.47,69.9864,-2.00918,177.231,5.51514,-145.723,1348
1569849771,370.47,69.9864,-2.00918,177.231,5.51514,-145.723,1348
1569849771,370.47,69.9864,-2.00918,177.231,5.51514,-145.723,1348
1569849771,370.47,69.9864,-2.00918,177.231,5.49316,-145.723,1348
1569849771,370.47,69.9864,-2.00918,177.231,5.49316,-145.723,1352
1569849771,370.47,69.9864,-2.00918,177.231,5.49316,-145.723,1352
1569849771,370.47,69.8748,-2.00918,177.231,5.49316,-145.723,1352
1569849771,370.47,69.8748,-2.00918,177.231,5.49316,-145.723,1352
1569849771,370.47,69.8748,-2.00918,177.231,5.49316,-145.723,1352
1569849771,370.47,69.8748,-2.00918,177.209,5.49316,-145.723,1352
1569849771,370.47,69.8748,-2.00918,177.209,5.49316,-145.723,1352
1569849771,370.47,69.8748,-2.00918,177.209,5.49316,-145.723,1352
1569849771,370.47,69.8748,-2.00918,177.209,5.49316,-145.723,1352
1569849771,370.47,69.8748,-2.00918,177.209,5.49316,-145.723,1352
1569849771,370.47,69.8748,-2.00918,177.209,5.49316,-145.723,1352
1569849771,370.47,69.8748,-2.00918,177.209,5.49316,-145.723,1352
1569849771,370.47,69.8748,-2.00918,177.209,5.49316,-145.723,1352
1569849771,370.47,69.8748,-2.00918,177.231,5.49316,-145.723,1356
1569849771,370.47,69.8748,-2.1208,177.231,5.49316,-145.723,1356
1569849771,370.47,69.8748,-2.1208,177.231,5.49316,-145.723,1356
1569849771,370.47,69.8748,-2.1208,177.231,5.49316,-145.723,1356
1569849771,370.47,69.8748,-2.1208,177.231,5.49316,-145.723,1356
1569849771,370.47,69.8748,-2.1208,177.231,5.49316,-145.723,1356
1569849771,370.47,69.8748,-2.1208,177.231,5.49316,-145.723,1352
1569849771,370.47,69.8748,-2.1208,177.231,5.47119,-145.723,1352
1569849771,370.47,69.8748,-2.1208,177.231,5.47119,-145.723,1352
1569849771,370.359,69.8748,-2.1208,177.231,5.47119,-145.723,1352
1569849771,370.359,69.8748,-2.1208,177.231,5.47119,-145.723,1352
1569849771,370.359,69.8748,-2.1208,177.231,5.47119,-145.723,1352
1569849771,370.359,69.8748,-2.1208,177.231,5.47119,-145.723,1352
1569849771,370.359,69.8748,-2.1208,177.231,5.47119,-145.723,1348
1569849771,370.359,69.8748,-2.1208,177.231,5.47119,-145.723,1348
1569849771,370.359,69.8748,-2.1208,177.231,5.47119,-145.723,1348
1569849771,370.47,69.8748,-2.1208,177.209,5.47119,-145.723,1348
1569849771,370.47,69.8748,-2.1208,177.209,5.47119,-145.723,1348
1569849771,370.47,69.8748,-2.1208,177.209,5.47119,-145.723,1348
1569849771,370.47,69.8748,-2.1208,177.209,5.47119,-145.723,1348
1569849771,370.47,69.8748,-2.1208,177.209,5.47119,-145.723,1348
1569849771,370.47,69.8748,-2.1208,177.209,5.47119,-145.723,1348
1569849771,370.47,69.8748,-2.1208,177.209,5.47119,-145.723,1348
1569849771,370.47,69.8748,-2.1208,177.209,5.47119,-145.723,1352
1569849771,370.47,69.8748,-2.1208,177.209,5.47119,-145.723,1352
1569849771,370.47,69.8748,-2.1208,177.209,5.47119,-145.723,1352
1569849771,370.47,69.8748,-2.1208,177.209,5.47119,-145.723,1352
1569849771,370.47,69.8748,-2.1208,177.188,5.47119,-145.723,1352
1569849771,370.47,69.8748,-2.1208,177.188,5.47119,-145.723,1352
1569849771,370.47,69.8748,-2.1208,177.188,5.47119,-145.723,1348
1569849771,370.47,69.8748,-2.1208,177.188,5.47119,-145.723,1348
1569849771,370.47,69.8748,-2.1208,177.188,5.47119,-145.723,1348
1569849771,370.47,69.8748,-2.1208,177.188,5.47119,-145.723,1348
1569849771,370.47,69.8748,-2.1208,177.188,5.47119,-145.723,1348
1569849771,370.47,69.8748,-2.1208,177.188,5.47119,-145.745,1348
1569849771,370.47,69.8748,-2.1208,177.188,5.47119,-145.745,1348
1569849771,370.47,69.8748,-2.1208,177.188,5.47119,-145.745,1348
1569849771,370.47,69.8748,-2.1208,177.188,5.49316,-145.745,1348
1569849771,370.47,69.8748,-2.1208,177.188,5.49316,-145.745,1348
1569849771,370.47,69.8748,-2.1208,177.188,5.49316,-145.745,1352
1569849771,370.47,69.8748,-2.1208,177.209,5.49316,-145.745,1352
1569849771,370.582,69.8748,-2.1208,177.209,5.49316,-145.745,1352
1569849771,370.582,69.8748,-2.1208,177.209,5.49316,-145.745,1352
1569849771,370.582,69.8748,-2.1208,177.209,5.49316,-145.745,1356
1569849771,370.582,69.9864,-2.1208,177.209,5.49316,-145.745,1356
1569849771,370.582,69.9864,-2.1208,177.209,5.49316,-145.745,1360
1569849771,370.582,69.9864,-2.1208,177.209,5.49316,-145.745,1360
1569849771,370.582,69.9864,-2.1208,177.231,5.49316,-145.745,1360
1569849771,370.582,69.9864,-2.1208,177.231,5.49316,-145.745,1360
1569849771,370.582,69.9864,-2.00918,177.231,5.49316,-145.745,1364
1569849771,370.582,69.9864,-2.00918,177.231,5.49316,-145.745,1364
1569849771,370.582,69.9864,-2.00918,177.231,5.49316,-145.745,1364
1569849771,370.582,69.9864,-2.00918,177.231,5.49316,-145.723,1364
1569849771,370.582,69.9864,-2.00918,177.231,5.49316,-145.723,1364
1569849771,370.582,69.9864,-2.00918,177.231,5.49316,-145.723,1364
1569849771,370.582,69.9864,-2.00918,177.231,5.51514,-145.723,1364
1569849771,370.582,69.9864,-2.00918,177.231,5.51514,-145.723,1364
1569849771,370.582,69.9864,-2.00918,177.231,5.51514,-145.723,1364
1569849771,370.582,69.9864,-2.00918,177.231,5.51514,-145.723,1364
1569849771,370.47,69.9864,-2.00918,177.231,5.51514,-145.723,1360
1569849771,370.47,69.9864,-2.00918,177.231,5.51514,-145.723,1360
1569849771,370.47,69.9864,-2.00918,177.231,5.51514,-145.723,1360
1569849771,370.47,69.8748,-2.00918,177.231,5.51514,-145.723,1360
1569849771,370.47,69.8748,-2.00918,177.231,5.51514,-145.723,1360
1569849771,370.47,69.8748,-2.00918,177.209,5.49316,-145.723,1356
1569849771,370.47,69.8748,-2.00918,177.209,5.49316,-145.723,1356
1569849771,370.47,69.8748,-2.00918,177.209,5.49316,-145.723,1356
1569849771,370.582,69.8748,-2.00918,177.209,5.49316,-145.723,1356
1569849771,370.582,69.8748,-2.00918,177.209,5.49316,-145.723,1356
1569849771,370.582,69.8748,-2.00918,177.209,5.49316,-145.723,1356
1569849771,370.582,69.8748,-2.00918,177.209,5.49316,-145.723,1356
1569849772,370.582,69.8748,-2.1208,177.209,5.47119,-145.723,1356
1569849772,370.582,69.8748,-2.1208,177.209,5.47119,-145.723,1352
1569849772,370.582,69.8748,-2.1208,177.209,5.47119,-145.723,1352
1569849772,370.582,69.8748,-2.1208,177.209,5.47119,-145.723,1352
1569849772,370.582,69.8748,-2.1208,177.209,5.47119,-145.723,1352
1569849772,370.582,69.8748,-2.1208,177.209,5.47119,-145.745,1352
1569849772,370.582,69.8748,-2.1208,177.209,5.47119,-145.745,1352
1569849772,370.582,69.8748,-2.1208,177.209,5.47119,-145.745,1352
1569849772,370.582,69.8748,-2.1208,177.209,5.47119,-145.745,1352
1569849772,370.582,69.8748,-2.1208,177.209,5.47119,-145.745,1352
1569849772,370.582,69.8748,-2.1208,177.209,5.47119,-145.745,1352
1569849772,370.582,69.8748,-2.1208,177.188,5.47119,-145.745,1352
1569849772,370.582,69.8748,-2.1208,177.188,5.47119,-145.745,1352
1569849772,370.582,69.8748,-2.1208,177.188,5.47119,-145.745,1352
1569849772,370.582,69.8748,-2.1208,177.188,5.47119,-145.745,1352
1569849772,370.582,69.8748,-2.1208,177.188,5.47119,-145.745,1352
1569849772,370.582,69.8748,-2.1208,177.188,5.47119,-145.745,1348
1569849772,370.582,69.8748,-2.1208,177.188,5.47119,-145.745,1348
1569849772,370.582,69.8748,-2.1208,177.188,5.47119,-145.745,1348
1569849772,370.582,69.8748,-2.1208,177.209,5.47119,-145.745,1348
1569849772,370.582,69.8748,-2.1208,177.209,5.47119,-145.745,1348
1569849772,370.47,69.8748,-2.1208,177.209,5.47119,-145.745,1344
1569849772,370.47,69.8748,-2.1208,177.209,5.47119,-145.745,1344
1569849772,370.47,69.8748,-2.1208,177.209,5.47119,-145.745,1344
1569849772,370.47,69.8748,-2.1208,177.209,5.47119,-145.745,1344
1569849772,370.47,69.8748,-2.1208,177.209,5.47119,-145.745,1340
1569849772,370.47,69.8748,-2.1208,177.209,5.47119,-145.745,1340
1569849772,370.47,69.8748,-2.1208,177.209,5.47119,-145.745,1340
1569849772,370.47,69.8748,-2.1208,177.209,5.47119,-145.745,1340
1569849772,370.47,69.8748,-2.1208,177.209,5.47119,-145.745,1340
1569849772,370.47,69.8748,-2.1208,177.209,5.47119,-145.745,1340
1569849772,370.47,69.8748,-2.1208,177.209,5.47119,-145.745,1336
1569849772,370.47,69.8748,-2.1208,177.209,5.47119,-145.745,1336
1569849772,370.47,69.8748,-2.1208,177.209,5.47119,-145.745,1336
1569849772,370.47,69.8748,-2.1208,177.209,5.47119,-145.745,1336
1569849772,370.47,69.8748,-2.1208,177.209,5.47119,-145.745,1336
1569849772,370.47,69.8748,-2.1208,177.209,5.47119,-145.745,1336
1569849772,370.47,69.8748,-2.1208,177.209,5.47119,-145.745,1336
1569849772,370.47,69.9864,-2.1208,177.209,5.47119,-145.745,1336
1569849772,370.47,69.9864,-2.1208,177.209,5.47119,-145.745,1336
1569849772,370.47,69.9864,-2.1208,177.209,5.47119,-145.745,1340
1569849772,370.47,69.9864,-2.1208,177.209,5.47119,-145.745,1340
1569849772,370.47,69.9864,-2.1208,177.231,5.47119,-145.745,1340
1569849772,370.47,69.9864,-2.1208,177.231,5.47119,-145.745,1344
1569849772,370.47,69.9864,-2.1208,177.231,5.47119,-145.745,1344
1569849772,370.47,69.9864,-2.1208,177.231,5.47119,-145.745,1344
1569849772,370.47,69.9864,-2.1208,177.231,5.47119,-145.745,1348
1569849772,370.47,69.9864,-2.1208,177.231,5.47119,-145.745,1348
1569849772,370.47,69.9864,-2.1208,177.231,5.47119,-145.745,1352
1569849772,370.47,69.9864,-2.1208,177.231,5.47119,-145.745,1352
1569849772,370.47,69.9864,-2.1208,177.209,5.47119,-145.745,1352
1569849772,370.47,69.9864,-2.1208,177.209,5.47119,-145.745,1352
1569849772,370.47,69.9864,-2.1208,177.209,5.47119,-145.745,1352
1569849772,370.47,69.8748,-2.1208,177.209,5.47119,-145.745,1352
1569849772,370.47,69.8748,-2.1208,177.209,5.47119,-145.745,1352
1569849772,370.47,69.8748,-2.1208,177.209,5.47119,-145.745,1356
1569849772,370.47,69.8748,-2.1208,177.209,5.47119,-145.745,1356
1569849772,370.47,69.8748,-2.1208,177.209,5.47119,-145.745,1356
1569849772,370.47,69.8748,-2.1208,177.209,5.47119,-145.745,1356
1569849772,370.47,69.8748,-2.1208,177.209,5.47119,-145.745,1356
1569849772,370.47,69.8748,-2.1208,177.209,5.47119,-145.745,1352
1569849772,370.47,69.8748,-2.1208,177.209,5.47119,-145.745,1352
1569849772,370.47,69.8748,-2.1208,177.209,5.47119,-145.745,1352
1569849772,370.47,69.8748,-2.1208,177.209,5.47119,-145.745,1352
1569849772,370.47,69.8748,-2.1208,177.209,5.47119,-145.745,1352
1569849772,370.47,69.8748,-2.1208,177.209,5.47119,-145.745,1356
1569849772,370.47,69.8748,-2.1208,177.209,5.47119,-145.723,1356
1569849772,370.47,69.8748,-2.1208,177.209,5.47119,-145.723,1356
1569849772,370.47,69.8748,-2.1208,177.209,5.47119,-145.745,1356
1569849772,370.47,69.8748,-2.1208,177.209,5.47119,-145.745,1356
1569849772,370.47,69.8748,-2.1208,177.209,5.47119,-145.745,1356
1569849772,370.47,69.8748,-2.1208,177.209,5.47119,-145.745,1356
1569849772,370.47,69.8748,-2.1208,177.209,5.47119,-145.745,1356
1569849772,370.47,69.8748,-2.1208,177.209,5.47119,-145.745,1356
1569849772,370.47,69.8748,-2.1208,177.209,5.47119,-145.745,1356
1569849772,370.47,69.8748,-2.1208,177.209,5.47119,-145.745,1360
1569849772,370.47,69.8748,-2.1208,177.209,5.47119,-145.745,1360
1569849772,370.47,69.8748,-2.1208,177.209,5.47119,-145.745,1360
1569849772,370.47,69.8748,-2.1208,177.209,5.47119,-145.745,1360
1569849772,370.47,69.8748,-2.1208,177.209,5.47119,-145.745,1360
1569849772,370.47,69.8748,-2.1208,177.231,5.47119,-145.723,1360
1569849772,370.47,69.8748,-2.1208,177.231,5.47119,-145.723,1360
1569849772,370.47,69.8748,-2.1208,177.231,5.47119,-145.723,1360
1569849772,370.47,69.8748,-2.1208,177.231,5.47119,-145.723,1360
1569849772,370.47,69.8748,-2.1208,177.231,5.47119,-145.723,1360
1569849772,370.47,69.8748,-2.1208,177.231,5.47119,-145.723,1360
1569849772,370.47,69.8748,-2.1208,177.209,5.47119,-145.723,1360
1569849772,370.47,69.8748,-2.1208,177.209,5.47119,-145.723,1360
1569849772,370.47,69.8748,-2.1208,177.209,5.47119,-145.723,1360
1569849772,370.47,69.8748,-2.1208,177.209,5.47119,-145.723,1360
1569849772,370.47,69.8748,-2.1208,177.209,5.47119,-145.723,1360
1569849772,370.47,69.8748,-2.1208,177.209,5.47119,-145.723,1360
1569849772,370.47,69.8748,-2.1208,177.209,5.47119,-145.723,1360
1569849772,370.47,69.8748,-2.23242,177.209,5.47119,-145.723,1360
1569849772,370.47,69.8748,-2.23242,177.209,5.47119,-145.723,1360
1569849772,370.47,69.8748,-2.23242,177.209,5.47119,-145.723,1360
1569849772,370.47,69.8748,-2.23242,177.209,5.47119,-145.723,1360
1569849772,370.47,69.8748,-2.1208,177.209,5.47119,-145.723,1356
1569849772,370.47,69.8748,-2.1208,177.209,5.47119,-145.723,1356
1569849772,370.47,69.8748,-2.1208,177.209,5.47119,-145.723,1356
1569849773,370.47,69.8748,-2.1208,177.209,5.47119,-145.723,1356
