time,x,y,z,ax,ay,az,q
1571223715,327.831,154.037,-18.7523,178.484,0.571289,-145.393,520
1571223715,327.831,154.037,-18.7523,178.484,0.571289,-145.393,516
1571223715,327.831,154.037,-18.7523,178.484,0.571289,-145.393,516
1571223715,327.831,154.037,-18.7523,178.484,0.571289,-145.393,516
1571223715,327.831,154.037,-18.7523,178.484,0.571289,-145.393,516
1571223715,327.831,154.037,-18.7523,178.484,0.571289,-145.393,516
1571223715,327.831,154.037,-18.7523,178.462,0.571289,-145.393,516
1571223715,327.831,154.037,-18.7523,178.462,0.593262,-145.393,516
1571223715,327.831,154.037,-18.7523,178.462,0.593262,-145.393,516
1571223715,327.831,154.037,-18.7523,178.462,0.593262,-145.371,512
1571223715,327.831,154.037,-18.7523,178.462,0.593262,-145.371,512
1571223715,327.831,154.037,-18.6407,178.484,0.593262,-145.371,512
1571223716,327.831,154.037,-18.6407,178.484,0.593262,-145.371,512
1571223716,327.831,154.037,-18.6407,178.484,0.593262,-145.371,512
1571223716,327.831,154.037,-18.6407,178.484,0.593262,-145.371,512
1571223716,327.831,154.037,-18.6407,178.484,0.615234,-145.371,512
1571223716,327.831,154.037,-18.6407,178.484,0.593262,-145.393,516
1571223716,327.831,154.037,-18.6407,178.484,0.615234,-145.393,516
1571223716,327.831,154.037,-18.6407,178.484,0.615234,-145.393,516
1571223716,327.831,154.037,-18.6407,178.484,0.593262,-145.393,516
1571223716,327.831,154.037,-18.6407,178.484,0.593262,-145.393,516
1571223716,327.831,154.037,-18.6407,178.484,0.593262,-145.393,516
1571223716,327.831,154.037,-18.6407,178.484,0.593262,-145.393,520
1571223716,327.831,154.037,-18.6407,178.484,0.615234,-145.393,520
1571223716,327.831,154.037,-18.6407,178.506,0.615234,-145.393,520
1571223716,327.72,154.037,-18.6407,178.506,0.615234,-145.393,520
1571223716,327.72,154.037,-18.6407,178.506,0.615234,-145.393,520
1571223716,327.72,154.037,-18.6407,178.506,0.615234,-145.393,520
1571223716,327.72,154.037,-18.6407,178.506,0.615234,-145.393,524
1571223716,327.72,154.037,-18.6407,178.506,0.615234,-145.393,524
1571223716,327.72,154.037,-18.6407,178.506,0.615234,-145.393,524
1571223716,327.72,154.037,-18.6407,178.506,0.615234,-145.393,524
1571223716,327.72,154.037,-18.6407,178.506,0.615234,-145.393,524
1571223716,327.72,154.037,-18.6407,178.528,0.615234,-145.393,528
1571223716,327.72,154.037,-18.6407,178.528,0.593262,-145.393,528
1571223716,327.72,154.037,-18.6407,178.528,0.593262,-145.393,528
1571223716,327.72,154.037,-18.6407,178.528,0.593262,-145.393,528
1571223716,327.72,154.037,-18.6407,178.528,0.593262,-145.393,532
1571223716,327.72,154.037,-18.7523,178.528,0.593262,-145.393,532
1571223716,327.72,154.037,-18.7523,178.528,0.593262,-145.393,532
1571223716,327.72,154.037,-18.7523,178.528,0.571289,-145.393,536
1571223716,327.72,154.037,-18.7523,178.528,0.571289,-145.393,536
1571223716,327.72,154.037,-18.7523,178.528,0.571289,-145.393,536
1571223716,327.72,154.037,-18.7523,178.528,0.571289,-145.393,540
1571223716,327.72,154.037,-18.7523,178.528,0.571289,-145.393,540
1571223716,327.72,154.037,-18.7523,178.528,0.571289,-145.393,540
1571223716,327.72,154.037,-18.7523,178.506,0.571289,-145.393,544
1571223716,327.72,154.037,-18.7523,178.506,0.571289,-145.393,544
1571223716,327.72,154.037,-18.7523,178.506,0.571289,-145.371,544
1571223716,327.72,154.037,-18.7523,178.506,0.571289,-145.371,544
1571223716,327.72,154.037,-18.7523,178.506,0.571289,-145.371,544
1571223716,327.72,154.037,-18.7523,178.506,0.571289,-145.371,548
1571223716,327.72,154.037,-18.7523,178.506,0.571289,-145.371,548
1571223716,327.72,154.037,-18.7523,178.506,0.571289,-145.371,548
1571223716,327.72,154.037,-18.7523,178.506,0.571289,-145.371,548
1571223716,327.72,154.037,-18.7523,178.506,0.549316,-145.371,548
1571223716,327.72,154.037,-18.864,178.506,0.549316,-145.371,548
1571223716,327.72,154.037,-18.864,178.506,0.549316,-145.371,548
1571223716,327.72,154.037,-18.864,178.506,0.549316,-145.371,544
1571223716,327.72,154.037,-18.864,178.506,0.549316,-145.371,544
1571223716,327.72,154.037,-18.864,178.506,0.549316,-145.371,544
1571223716,327.72,154.037,-18.864,178.506,0.549316,-145.371,544
1571223716,327.72,154.037,-18.864,178.506,0.549316,-145.371,544
1571223716,327.72,154.037,-18.864,178.506,0.549316,-145.371,544
1571223716,327.72,154.037,-18.864,178.506,0.549316,-145.371,544
1571223716,327.72,154.037,-18.864,178.506,0.549316,-145.371,540
1571223716,327.608,154.037,-18.864,178.506,0.549316,-145.371,540
1571223716,327.608,154.037,-18.864,178.506,0.549316,-145.371,540
1571223716,327.608,154.037,-18.864,178.506,0.549316,-145.371,540
1571223716,327.608,154.037,-18.864,178.506,0.549316,-145.371,540
1571223716,327.608,154.037,-18.864,178.506,0.549316,-145.371,540
1571223716,327.608,154.037,-18.864,178.506,0.549316,-145.371,540
1571223716,327.608,154.037,-18.864,178.506,0.549316,-145.371,540
1571223716,327.608,154.037,-18.864,178.506,0.549316,-145.371,540
1571223716,327.608,154.037,-18.864,178.506,0.549316,-145.371,540
1571223716,327.608,154.037,-18.864,178.506,0.549316,-145.371,540
1571223716,327.608,153.925,-18.864,178.506,0.549316,-145.371,544
1571223716,327.608,153.925,-18.864,178.506,0.549316,-145.371,544
1571223716,327.608,153.925,-18.7523,178.506,0.571289,-145.371,544
1571223716,327.608,153.925,-18.7523,178.506,0.571289,-145.371,544
1571223716,327.608,153.925,-18.7523,178.506,0.571289,-145.371,548
1571223716,327.608,153.925,-18.7523,178.506,0.571289,-145.371,548
1571223716,327.608,153.925,-18.7523,178.506,0.571289,-145.371,548
1571223716,327.608,153.925,-18.7523,178.506,0.593262,-145.393,548
1571223716,327.608,153.925,-18.7523,178.506,0.593262,-145.393,552
1571223716,327.608,153.925,-18.6407,178.506,0.593262,-145.393,552
1571223716,327.608,153.925,-18.6407,178.506,0.593262,-145.393,552
1571223716,327.608,154.037,-18.6407,178.506,0.593262,-145.393,552
1571223716,327.608,154.037,-18.6407,178.506,0.593262,-145.393,552
1571223716,327.608,154.037,-18.6407,178.506,0.593262,-145.393,552
1571223716,327.608,154.037,-18.6407,178.506,0.593262,-145.393,552
1571223716,327.608,154.037,-18.6407,178.506,0.593262,-145.393,552
1571223716,327.608,154.037,-18.7523,178.506,0.593262,-145.393,548
1571223716,327.608,154.037,-18.7523,178.506,0.593262,-145.393,548
1571223716,327.608,154.037,-18.7523,178.506,0.593262,-145.393,548
1571223716,327.608,154.037,-18.7523,178.506,0.571289,-145.393,548
1571223716,327.72,154.037,-18.7523,178.484,0.571289,-145.393,544
1571223716,327.72,154.037,-18.7523,178.484,0.571289,-145.371,544
1571223716,327.72,154.037,-18.7523,178.484,0.571289,-145.371,540
1571223716,327.72,154.037,-18.864,178.484,0.571289,-145.371,540
1571223716,327.72,154.037,-18.864,178.484,0.571289,-145.371,540
1571223716,327.72,154.037,-18.864,178.484,0.571289,-145.371,536
1571223716,327.72,154.037,-18.864,178.484,0.571289,-145.371,536
1571223716,327.72,154.037,-18.864,178.484,0.549316,-145.371,536
1571223716,327.72,154.037,-18.864,178.484,0.549316,-145.371,532
1571223716,327.72,154.037,-18.864,178.484,0.549316,-145.371,532
1571223716,327.72,154.037,-18.864,178.484,0.549316,-145.371,532
1571223716,327.72,154.037,-18.864,178.484,0.549316,-145.371,528
1571223716,327.72,154.037,-18.864,178.484,0.549316,-145.371,528
1571223716,327.72,154.037,-18.864,178.484,0.549316,-145.371,528
1571223716,327.72,154.037,-18.864,178.484,0.549316,-145.371,528
1571223716,327.72,154.037,-18.864,178.484,0.549316,-145.371,524
1571223716,327.72,154.037,-18.864,178.484,0.549316,-145.371,524
1571223717,327.72,154.037,-18.864,178.484,0.549316,-145.393,524
1571223717,327.72,154.037,-18.864,178.484,0.549316,-145.393,524
1571223717,327.72,154.037,-18.864,178.484,0.549316,-145.393,524
1571223717,327.72,154.037,-18.864,178.484,0.571289,-145.393,524
1571223717,327.72,154.037,-18.864,178.484,0.571289,-145.393,524
1571223717,327.72,154.037,-18.864,178.484,0.571289,-145.393,524
1571223717,327.72,154.037,-18.864,178.484,0.571289,-145.393,524
1571223717,327.72,154.037,-18.7523,178.484,0.571289,-145.393,524
1571223717,327.72,154.037,-18.7523,178.484,0.571289,-145.393,524
1571223717,327.72,154.037,-18.7523,178.484,0.571289,-145.393,524
1571223717,327.72,154.037,-18.7523,178.484,0.571289,-145.393,524
1571223717,327.72,154.037,-18.7523,178.484,0.571289,-145.393,524
1571223717,327.72,154.037,-18.7523,178.484,0.571289,-145.393,524
1571223717,327.72,154.037,-18.7523,178.484,0.571289,-145.393,524
1571223717,327.72,154.037,-18.7523,178.484,0.571289,-145.393,524
1571223717,327.72,154.037,-18.7523,178.484,0.571289,-145.393,524
1571223717,327.72,154.037,-18.7523,178.484,0.571289,-145.393,524
1571223717,327.72,154.037,-18.7523,178.484,0.571289,-145.393,524
1571223717,327.831,154.037,-18.7523,178.484,0.571289,-145.371,524
1571223717,327.831,154.037,-18.7523,178.462,0.571289,-145.393,524
1571223717,327.831,154.037,-18.7523,178.462,0.571289,-145.393,524
1571223717,327.831,154.037,-18.7523,178.462,0.571289,-145.393,524
1571223717,327.831,154.037,-18.7523,178.462,0.571289,-145.393,524
1571223717,327.831,153.925,-18.7523,178.462,0.571289,-145.393,524
1571223717,327.831,153.925,-18.7523,178.462,0.571289,-145.393,524
1571223717,327.831,154.037,-18.7523,178.462,0.571289,-145.393,524
1571223717,327.831,154.037,-18.7523,178.462,0.571289,-145.393,524
1571223717,327.831,154.037,-18.7523,178.462,0.571289,-145.393,524
1571223717,327.72,154.037,-18.7523,178.462,0.571289,-145.393,524
1571223717,327.72,154.037,-18.7523,178.462,0.571289,-145.393,524
1571223717,327.72,154.037,-18.7523,178.462,0.571289,-145.393,524
1571223717,327.72,154.037,-18.7523,178.484,0.571289,-145.393,524
1571223717,327.72,154.037,-18.7523,178.484,0.571289,-145.393,524
1571223717,327.72,154.037,-18.7523,178.484,0.571289,-145.393,524
1571223717,327.72,154.037,-18.7523,178.484,0.571289,-145.393,524
1571223717,327.72,154.037,-18.7523,178.484,0.593262,-145.393,524
1571223717,327.72,154.037,-18.7523,178.484,0.593262,-145.393,524
1571223717,327.72,154.037,-18.7523,178.484,0.593262,-145.393,524
1571223717,327.72,154.037,-18.7523,178.484,0.593262,-145.393,524
1571223717,327.72,154.037,-18.7523,178.484,0.571289,-145.393,524
1571223717,327.72,154.037,-18.7523,178.484,0.571289,-145.393,524
1571223717,327.72,154.037,-18.7523,178.484,0.571289,-145.393,524
1571223717,327.72,154.037,-18.7523,178.484,0.571289,-145.393,524
1571223717,327.72,154.037,-18.7523,178.506,0.571289,-145.393,524
1571223717,327.72,154.037,-18.7523,178.506,0.571289,-145.393,524
1571223717,327.72,154.037,-18.7523,178.506,0.571289,-145.393,524
1571223717,327.72,154.037,-18.7523,178.506,0.571289,-145.393,524
1571223717,327.72,154.037,-18.7523,178.506,0.571289,-145.393,524
1571223717,327.72,154.037,-18.7523,178.484,0.571289,-145.393,524
1571223717,327.72,154.037,-18.7523,178.484,0.571289,-145.393,524
1571223717,327.72,154.037,-18.7523,178.484,0.571289,-145.393,524
1571223717,327.72,154.037,-18.7523,178.484,0.571289,-145.393,524
1571223717,327.72,154.037,-18.7523,178.484,0.593262,-145.393,524
1571223717,327.72,154.037,-18.7523,178.484,0.593262,-145.393,524
1571223717,327.72,154.037,-18.7523,178.484,0.593262,-145.393,524
1571223717,327.72,154.037,-18.7523,178.484,0.593262,-145.393,524
1571223717,327.72,154.037,-18.7523,178.484,0.593262,-145.393,524
1571223717,327.72,154.037,-18.7523,178.484,0.593262,-145.393,524
1571223717,327.72,154.037,-18.7523,178.484,0.593262,-145.393,524
1571223717,327.72,154.037,-18.7523,178.484,0.593262,-145.393,524
1571223717,327.72,154.037,-18.7523,178.484,0.593262,-145.393,524
1571223717,327.72,154.037,-18.7523,178.484,0.593262,-145.393,528
1571223717,327.72,154.037,-18.7523,178.484,0.593262,-145.393,528
1571223717,327.72,154.037,-18.7523,178.506,0.593262,-145.393,528
1571223717,327.72,154.037,-18.7523,178.506,0.593262,-145.393,528
1571223717,327.72,154.037,-18.7523,178.506,0.571289,-145.393,528
1571223717,327.72,154.037,-18.7523,178.506,0.571289,-145.393,532
1571223717,327.72,154.037,-18.7523,178.506,0.571289,-145.393,532
1571223717,327.72,154.037,-18.7523,178.506,0.571289,-145.393,532
1571223717,327.608,154.037,-18.7523,178.506,0.571289,-145.393,532
1571223717,327.72,154.037,-18.7523,178.506,0.571289,-145.393,536
1571223717,327.72,154.037,-18.7523,178.506,0.571289,-145.393,536
1571223717,327.72,154.037,-18.7523,178.506,0.571289,-145.393,536
1571223717,327.72,154.037,-18.7523,178.506,0.571289,-145.393,536
1571223717,327.72,154.037,-18.7523,178.506,0.571289,-145.393,536
1571223717,327.72,154.037,-18.7523,178.506,0.571289,-145.393,536
1571223717,327.72,154.037,-18.7523,178.506,0.571289,-145.393,536
1571223717,327.72,154.037,-18.7523,178.506,0.571289,-145.393,536
1571223717,327.72,154.037,-18.7523,178.506,0.571289,-145.393,536
1571223717,327.72,154.037,-18.7523,178.506,0.571289,-145.393,536
1571223717,327.72,154.037,-18.7523,178.506,0.571289,-145.393,536
1571223717,327.72,154.037,-18.7523,178.506,0.571289,-145.393,536
1571223717,327.72,154.037,-18.7523,178.506,0.571289,-145.393,536
1571223717,327.72,154.037,-18.7523,178.506,0.571289,-145.393,536
1571223717,327.72,154.037,-18.7523,178.506,0.571289,-145.393,536
1571223717,327.72,154.037,-18.7523,178.506,0.571289,-145.393,536
1571223717,327.72,154.037,-18.7523,178.506,0.571289,-145.393,536
1571223717,327.72,154.037,-18.7523,178.506,0.571289,-145.393,536
1571223717,327.72,154.037,-18.7523,178.506,0.571289,-145.393,536
1571223717,327.72,154.037,-18.7523,178.506,0.571289,-145.393,536
1571223717,327.72,154.037,-18.7523,178.484,0.571289,-145.415,536
1571223717,327.72,154.037,-18.7523,178.484,0.571289,-145.415,532
1571223717,327.72,154.037,-18.7523,178.484,0.571289,-145.415,532
1571223717,327.72,154.037,-18.7523,178.484,0.571289,-145.415,532
1571223717,327.72,154.037,-18.7523,178.484,0.549316,-145.393,532
1571223717,327.72,154.037,-18.7523,178.484,0.549316,-145.393,528
1571223717,327.72,154.037,-18.864,178.484,0.549316,-145.393,528
1571223717,327.72,154.037,-18.864,178.484,0.549316,-145.393,528
1571223717,327.72,154.037,-18.864,178.484,0.549316,-145.393,524
1571223717,327.72,154.037,-18.864,178.484,0.549316,-145.393,524
1571223718,327.72,154.037,-18.864,178.484,0.549316,-145.415,524
1571223718,327.72,154.037,-18.864,178.484,0.549316,-145.415,524
1571223718,327.72,154.037,-18.864,178.484,0.549316,-145.415,524
1571223718,327.72,154.037,-18.864,178.484,0.549316,-145.393,520
1571223718,327.72,154.037,-18.864,178.484,0.549316,-145.393,520
1571223718,327.72,154.037,-18.864,178.484,0.549316,-145.393,520
1571223718,327.72,154.037,-18.864,178.484,0.549316,-145.393,520
1571223718,327.72,154.037,-18.864,178.484,0.549316,-145.393,520
1571223718,327.72,154.037,-18.864,178.484,0.549316,-145.393,520
1571223718,327.72,154.037,-18.864,178.484,0.549316,-145.393,520
1571223718,327.72,154.037,-18.864,178.484,0.549316,-145.393,520
1571223718,327.72,154.037,-18.864,178.484,0.549316,-145.393,520
1571223718,327.72,154.037,-18.864,178.484,0.549316,-145.393,520
1571223718,327.72,154.037,-18.864,178.484,0.549316,-145.393,516
1571223718,327.72,154.037,-18.864,178.484,0.549316,-145.393,516
1571223718,327.72,154.037,-18.864,178.484,0.549316,-145.393,516
1571223718,327.72,154.037,-18.7523,178.484,0.549316,-145.393,516
1571223718,327.72,154.037,-18.7523,178.484,0.549316,-145.393,516
1571223718,327.72,154.037,-18.7523,178.484,0.549316,-145.393,516
1571223718,327.72,154.037,-18.7523,178.506,0.571289,-145.393,516
1571223718,327.72,154.037,-18.7523,178.506,0.571289,-145.393,516
1571223718,327.72,154.037,-18.7523,178.506,0.571289,-145.393,516
1571223718,327.72,154.037,-18.7523,178.506,0.571289,-145.393,516
1571223718,327.72,154.037,-18.7523,178.506,0.571289,-145.393,516
1571223718,327.72,154.037,-18.7523,178.506,0.571289,-145.393,516
1571223718,327.72,154.037,-18.7523,178.484,0.571289,-145.393,516
1571223718,327.72,154.037,-18.7523,178.484,0.571289,-145.393,516
1571223718,327.72,154.037,-18.7523,178.484,0.571289,-145.393,516
1571223718,327.72,154.037,-18.7523,178.484,0.549316,-145.393,516
1571223718,327.72,154.037,-18.7523,178.484,0.549316,-145.393,516
1571223718,327.72,154.037,-18.7523,178.484,0.549316,-145.393,516
1571223718,327.72,154.037,-18.7523,178.484,0.549316,-145.393,516
1571223718,327.72,154.037,-18.7523,178.484,0.549316,-145.393,516
1571223718,327.72,154.037,-18.7523,178.484,0.549316,-145.393,516
1571223718,327.72,154.037,-18.7523,178.484,0.549316,-145.415,516
1571223718,327.72,154.037,-18.7523,178.484,0.549316,-145.415,516
1571223718,327.72,154.037,-18.7523,178.484,0.549316,-145.415,520
1571223718,327.72,154.037,-18.7523,178.484,0.571289,-145.415,520
1571223718,327.72,154.037,-18.7523,178.484,0.571289,-145.415,520
1571223718,327.72,154.037,-18.7523,178.484,0.571289,-145.415,520
1571223718,327.72,154.037,-18.7523,178.484,0.571289,-145.415,520
1571223718,327.72,154.037,-18.7523,178.484,0.571289,-145.415,516
1571223718,327.72,154.037,-18.7523,178.484,0.571289,-145.415,516
1571223718,327.72,154.037,-18.7523,178.484,0.571289,-145.415,516
1571223718,327.72,154.037,-18.7523,178.484,0.571289,-145.415,516
1571223718,327.831,154.037,-18.7523,178.484,0.571289,-145.415,516
1571223718,327.831,154.037,-18.7523,178.484,0.571289,-145.415,516
1571223718,327.831,154.037,-18.7523,178.484,0.571289,-145.415,516
1571223718,327.831,154.037,-18.7523,178.484,0.571289,-145.415,516
1571223718,327.831,154.037,-18.7523,178.484,0.571289,-145.415,516
1571223718,327.831,154.037,-18.7523,178.484,0.571289,-145.415,516
1571223718,327.831,154.037,-18.7523,178.484,0.571289,-145.415,516
1571223718,327.831,154.037,-18.7523,178.484,0.571289,-145.415,516
1571223718,327.72,154.037,-18.7523,178.484,0.571289,-145.415,516
1571223718,327.72,154.037,-18.7523,178.484,0.571289,-145.415,516
1571223718,327.831,154.037,-18.6407,178.484,0.571289,-145.415,516
1571223718,327.831,154.037,-18.6407,178.484,0.593262,-145.415,516
1571223718,327.831,154.037,-18.6407,178.484,0.593262,-145.415,516
1571223718,327.831,154.037,-18.6407,178.484,0.593262,-145.415,516
1571223718,327.831,154.037,-18.6407,178.484,0.593262,-145.415,516
1571223718,327.831,154.037,-18.6407,178.484,0.593262,-145.415,520
1571223718,327.831,154.037,-18.6407,178.484,0.593262,-145.415,520
1571223718,327.831,154.037,-18.6407,178.484,0.593262,-145.415,520
1571223718,327.831,154.037,-18.6407,178.484,0.593262,-145.415,520
1571223718,327.831,154.037,-18.6407,178.484,0.593262,-145.415,520
1571223718,327.831,154.037,-18.6407,178.484,0.593262,-145.415,520
1571223718,327.831,154.037,-18.6407,178.484,0.593262,-145.415,520
1571223718,327.831,153.925,-18.6407,178.484,0.593262,-145.415,524
1571223718,327.831,153.925,-18.6407,178.462,0.593262,-145.415,524
1571223718,327.831,153.925,-18.6407,178.462,0.593262,-145.415,524
1571223718,327.831,153.925,-18.6407,178.462,0.593262,-145.415,524
1571223718,327.831,153.925,-18.6407,178.462,0.593262,-145.415,524
1571223718,327.72,153.925,-18.6407,178.462,0.593262,-145.415,528
1571223718,327.72,153.925,-18.6407,178.462,0.593262,-145.415,528
1571223718,327.72,153.925,-18.6407,178.462,0.593262,-145.415,528
1571223718,327.831,153.925,-18.6407,178.462,0.593262,-145.415,528
1571223718,327.831,153.925,-18.6407,178.462,0.593262,-145.415,532
1571223718,327.831,153.925,-18.6407,178.462,0.593262,-145.415,532
1571223718,327.831,153.925,-18.6407,178.462,0.593262,-145.415,532
1571223718,327.831,153.925,-18.6407,178.462,0.593262,-145.415,532
1571223718,327.831,153.925,-18.6407,178.462,0.593262,-145.415,532
1571223718,327.831,153.925,-18.6407,178.462,0.593262,-145.415,532
1571223718,327.831,153.925,-18.6407,178.462,0.593262,-145.415,532
1571223718,327.831,153.925,-18.6407,178.462,0.593262,-145.415,532
1571223718,327.831,153.925,-18.7523,178.462,0.593262,-145.415,532
1571223718,327.831,153.925,-18.7523,178.462,0.593262,-145.415,528
1571223718,327.831,153.925,-18.7523,178.462,0.593262,-145.415,528
1571223718,327.831,153.925,-18.7523,178.462,0.571289,-145.415,528
1571223718,327.831,153.925,-18.7523,178.462,0.571289,-145.415,528
1571223718,327.831,153.925,-18.7523,178.462,0.571289,-145.415,528
1571223718,327.831,153.925,-18.7523,178.462,0.571289,-145.415,524
1571223718,327.831,153.925,-18.7523,178.462,0.571289,-145.415,524
1571223718,327.831,153.925,-18.7523,178.462,0.571289,-145.415,524
1571223718,327.831,153.925,-18.7523,178.462,0.571289,-145.415,520
1571223718,327.831,153.925,-18.7523,178.462,0.571289,-145.415,520
1571223718,327.831,153.925,-18.7523,178.462,0.571289,-145.415,520
1571223718,327.831,153.925,-18.7523,178.462,0.571289,-145.415,520
1571223718,327.831,153.925,-18.7523,178.462,0.571289,-145.415,520
1571223718,327.831,153.925,-18.7523,178.462,0.571289,-145.415,516
1571223718,327.831,153.925,-18.7523,178.462,0.571289,-145.415,516
1571223719,327.831,153.925,-18.7523,178.462,0.571289,-145.415,516
1571223719,327.831,153.925,-18.7523,178.462,0.571289,-145.415,516
1571223719,327.831,153.925,-18.7523,178.462,0.571289,-145.415,516
1571223719,327.831,153.925,-18.7523,178.462,0.571289,-145.415,520
1571223719,327.831,153.925,-18.7523,178.462,0.571289,-145.415,520
1571223719,327.831,153.925,-18.7523,178.462,0.571289,-145.415,520
1571223719,327.831,153.925,-18.7523,178.462,0.571289,-145.393,520
1571223719,327.831,153.925,-18.7523,178.462,0.571289,-145.393,520
1571223719,327.831,153.925,-18.7523,178.462,0.571289,-145.393,520
1571223719,327.831,153.925,-18.7523,178.462,0.571289,-145.393,520
1571223719,327.831,153.925,-18.7523,178.462,0.571289,-145.415,524
1571223719,327.831,153.925,-18.7523,178.462,0.571289,-145.415,524
1571223719,327.72,153.925,-18.7523,178.462,0.571289,-145.415,524
1571223719,327.72,153.925,-18.7523,178.462,0.571289,-145.415,524
1571223719,327.72,153.925,-18.7523,178.462,0.571289,-145.415,524
1571223719,327.72,153.925,-18.7523,178.462,0.571289,-145.415,524
1571223719,327.72,153.925,-18.7523,178.462,0.571289,-145.415,524
1571223719,327.72,153.925,-18.7523,178.462,0.571289,-145.415,524
1571223719,327.72,153.925,-18.7523,178.462,0.571289,-145.415,524
1571223719,327.72,153.925,-18.7523,178.462,0.571289,-145.393,524
1571223719,327.72,153.925,-18.7523,178.462,0.571289,-145.393,524
1571223719,327.72,153.925,-18.7523,178.462,0.571289,-145.393,524
1571223719,327.72,153.925,-18.7523,178.462,0.571289,-145.393,524
1571223719,327.72,153.925,-18.7523,178.462,0.571289,-145.393,528
1571223719,327.72,153.925,-18.7523,178.462,0.571289,-145.393,528
1571223719,327.72,153.925,-18.7523,178.462,0.571289,-145.393,528
1571223719,327.72,153.925,-18.7523,178.462,0.571289,-145.393,528
1571223719,327.72,153.925,-18.7523,178.462,0.571289,-145.393,528
1571223719,327.72,153.925,-18.7523,178.462,0.571289,-145.393,528
1571223719,327.72,153.925,-18.7523,178.462,0.571289,-145.393,532
1571223719,327.72,153.925,-18.7523,178.462,0.593262,-145.393,532
1571223719,327.72,153.925,-18.7523,178.462,0.593262,-145.393,532
1571223719,327.72,153.925,-18.7523,178.462,0.593262,-145.393,536
1571223719,327.72,153.925,-18.7523,178.462,0.593262,-145.393,536
1571223719,327.72,153.925,-18.7523,178.462,0.593262,-145.393,536
1571223719,327.72,153.925,-18.7523,178.462,0.571289,-145.393,536
1571223719,327.72,153.925,-18.7523,178.462,0.571289,-145.393,540
1571223719,327.72,153.925,-18.7523,178.462,0.571289,-145.393,540
1571223719,327.72,153.925,-18.7523,178.462,0.571289,-145.393,540
1571223719,327.72,153.925,-18.7523,178.462,0.571289,-145.393,540
1571223719,327.72,153.925,-18.7523,178.484,0.571289,-145.393,540
1571223719,327.72,153.925,-18.7523,178.484,0.571289,-145.393,540
1571223719,327.72,153.925,-18.7523,178.484,0.549316,-145.393,544
1571223719,327.72,153.925,-18.7523,178.484,0.549316,-145.393,544
1571223719,327.72,153.925,-18.7523,178.484,0.549316,-145.393,544
1571223719,327.72,153.925,-18.7523,178.484,0.549316,-145.393,544
1571223719,327.72,153.925,-18.7523,178.484,0.549316,-145.393,544
1571223719,327.72,153.925,-18.864,178.484,0.549316,-145.393,544
1571223719,327.72,153.925,-18.864,178.484,0.549316,-145.393,544
1571223719,327.72,153.925,-18.864,178.484,0.549316,-145.393,544
1571223719,327.72,153.925,-18.864,178.484,0.549316,-145.393,544
1571223719,327.72,153.925,-18.864,178.484,0.549316,-145.371,544
1571223719,327.72,153.925,-18.864,178.484,0.549316,-145.371,544
1571223719,327.72,153.925,-18.864,178.462,0.549316,-145.371,544
1571223719,327.72,153.925,-18.864,178.462,0.549316,-145.371,544
1571223719,327.72,153.925,-18.7523,178.462,0.549316,-145.371,540
1571223719,327.72,153.925,-18.7523,178.462,0.549316,-145.371,540
1571223719,327.72,153.925,-18.7523,178.462,0.571289,-145.371,540
1571223719,327.72,153.925,-18.7523,178.462,0.571289,-145.393,540
1571223719,327.72,153.925,-18.7523,178.462,0.571289,-145.393,540
1571223719,327.72,153.925,-18.7523,178.462,0.571289,-145.393,540
1571223719,327.72,153.925,-18.7523,178.462,0.571289,-145.393,536
1571223719,327.72,153.925,-18.7523,178.462,0.571289,-145.393,536
1571223719,327.72,153.925,-18.7523,178.462,0.571289,-145.393,536
1571223719,327.72,153.925,-18.7523,178.462,0.571289,-145.393,536
1571223719,327.72,153.925,-18.7523,178.462,0.571289,-145.393,536
1571223719,327.72,153.925,-18.7523,178.462,0.549316,-145.393,536
1571223719,327.72,153.925,-18.7523,178.462,0.549316,-145.393,536
1571223719,327.72,153.925,-18.7523,178.462,0.549316,-145.393,536
1571223719,327.72,153.925,-18.7523,178.462,0.549316,-145.393,536
1571223719,327.72,153.925,-18.7523,178.484,0.549316,-145.393,536
1571223719,327.72,153.925,-18.7523,178.484,0.549316,-145.393,536
1571223719,327.72,153.925,-18.7523,178.484,0.549316,-145.393,536
1571223719,327.72,153.925,-18.7523,178.484,0.571289,-145.393,536
1571223719,327.72,153.925,-18.7523,178.484,0.571289,-145.393,536
1571223719,327.72,153.925,-18.7523,178.484,0.571289,-145.393,536
1571223719,327.72,153.925,-18.7523,178.484,0.571289,-145.393,540
1571223719,327.72,153.925,-18.7523,178.484,0.571289,-145.393,540
1571223719,327.72,153.925,-18.7523,178.484,0.571289,-145.393,540
1571223719,327.72,153.925,-18.7523,178.484,0.571289,-145.415,540
1571223719,327.72,153.925,-18.7523,178.484,0.571289,-145.415,540
1571223719,327.72,154.037,-18.7523,178.484,0.571289,-145.415,540
1571223719,327.72,154.037,-18.7523,178.484,0.571289,-145.415,540
1571223719,327.72,154.037,-18.6407,178.484,0.593262,-145.415,540
1571223719,327.72,154.037,-18.6407,178.484,0.593262,-145.415,540
1571223719,327.72,154.037,-18.6407,178.484,0.593262,-145.415,540
1571223719,327.72,154.037,-18.6407,178.484,0.593262,-145.415,540
1571223719,327.72,154.037,-18.6407,178.506,0.593262,-145.415,540
1571223719,327.72,154.037,-18.7523,178.506,0.593262,-145.415,540
1571223719,327.72,154.037,-18.7523,178.506,0.593262,-145.415,540
1571223719,327.72,154.037,-18.7523,178.506,0.571289,-145.415,540
1571223719,327.72,154.037,-18.7523,178.506,0.571289,-145.415,540
1571223719,327.72,154.037,-18.7523,178.506,0.571289,-145.415,540
1571223719,327.72,154.037,-18.7523,178.506,0.571289,-145.415,540
1571223719,327.72,154.037,-18.7523,178.528,0.571289,-145.415,536
1571223719,327.72,154.037,-18.7523,178.528,0.571289,-145.415,536
1571223719,327.72,154.037,-18.7523,178.528,0.571289,-145.415,536
1571223719,327.72,154.037,-18.7523,178.528,0.571289,-145.415,536
1571223719,327.72,154.037,-18.7523,178.528,0.571289,-145.415,536
1571223719,327.72,154.037,-18.7523,178.528,0.571289,-145.415,536
1571223720,327.72,154.037,-18.7523,178.506,0.571289,-145.415,536
1571223720,327.72,154.037,-18.7523,178.506,0.571289,-145.415,536
1571223720,327.72,154.037,-18.7523,178.506,0.571289,-145.415,536
1571223720,327.72,154.037,-18.7523,178.506,0.571289,-145.415,536
1571223720,327.72,154.037,-18.7523,178.506,0.571289,-145.415,536
1571223720,327.72,154.037,-18.7523,178.506,0.571289,-145.415,536
1571223720,327.72,154.037,-18.7523,178.506,0.571289,-145.415,536
1571223720,327.72,154.037,-18.7523,178.506,0.571289,-145.415,536
1571223720,327.72,154.037,-18.7523,178.506,0.571289,-145.415,536
1571223720,327.72,154.037,-18.7523,178.506,0.571289,-145.415,536
1571223720,327.72,154.037,-18.7523,178.506,0.571289,-145.415,536
1571223720,327.72,154.037,-18.7523,178.506,0.571289,-145.415,536
1571223720,327.72,154.037,-18.7523,178.506,0.571289,-145.415,536
1571223720,327.72,154.037,-18.7523,178.506,0.571289,-145.415,536
1571223720,327.72,154.037,-18.7523,178.528,0.571289,-145.415,536
1571223720,327.72,154.037,-18.7523,178.528,0.571289,-145.415,532
1571223720,327.72,154.037,-18.7523,178.528,0.571289,-145.415,532
1571223720,327.72,154.037,-18.7523,178.528,0.571289,-145.415,532
1571223720,327.72,154.037,-18.7523,178.528,0.571289,-145.415,532
1571223720,327.72,154.037,-18.7523,178.528,0.571289,-145.415,532
1571223720,327.72,154.037,-18.7523,178.506,0.571289,-145.415,532
1571223720,327.72,154.037,-18.7523,178.506,0.571289,-145.415,532
1571223720,327.72,154.037,-18.7523,178.506,0.571289,-145.415,532
1571223720,327.72,154.037,-18.7523,178.506,0.571289,-145.415,532
1571223720,327.72,154.037,-18.7523,178.506,0.571289,-145.415,532
1571223720,327.72,154.037,-18.7523,178.506,0.571289,-145.415,532
1571223720,327.72,154.037,-18.7523,178.506,0.571289,-145.415,528
1571223720,327.72,154.037,-18.7523,178.506,0.571289,-145.415,528
1571223720,327.72,154.037,-18.7523,178.506,0.571289,-145.415,528
1571223720,327.72,154.037,-18.7523,178.506,0.571289,-145.415,528
1571223720,327.72,154.037,-18.7523,178.506,0.549316,-145.393,528
1571223720,327.72,154.037,-18.7523,178.506,0.549316,-145.393,528
1571223720,327.72,154.037,-18.864,178.506,0.549316,-145.393,528
1571223720,327.72,154.037,-18.864,178.506,0.549316,-145.393,524
1571223720,327.72,154.037,-18.864,178.506,0.549316,-145.393,524
1571223720,327.72,154.037,-18.864,178.506,0.549316,-145.393,524
1571223720,327.72,154.037,-18.864,178.506,0.549316,-145.393,524
1571223720,327.72,154.037,-18.864,178.506,0.549316,-145.393,524
1571223720,327.72,154.037,-18.7523,178.506,0.549316,-145.393,524
1571223720,327.72,154.037,-18.7523,178.506,0.571289,-145.393,524
1571223720,327.72,154.037,-18.7523,178.506,0.571289,-145.393,524
1571223720,327.72,154.037,-18.7523,178.506,0.571289,-145.393,524
1571223720,327.72,154.037,-18.7523,178.506,0.571289,-145.393,524
1571223720,327.72,154.037,-18.7523,178.506,0.571289,-145.393,524
1571223720,327.72,154.037,-18.7523,178.506,0.571289,-145.393,528
1571223720,327.72,154.037,-18.7523,178.506,0.571289,-145.393,528
1571223720,327.72,154.037,-18.7523,178.506,0.571289,-145.393,528
1571223720,327.72,154.037,-18.7523,178.506,0.571289,-145.393,528
1571223720,327.72,154.037,-18.7523,178.506,0.571289,-145.393,528
1571223720,327.72,154.037,-18.7523,178.506,0.571289,-145.393,528
1571223720,327.72,154.037,-18.7523,178.506,0.571289,-145.393,528
1571223720,327.72,154.037,-18.7523,178.506,0.571289,-145.393,528
1571223720,327.72,154.037,-18.7523,178.506,0.571289,-145.393,528
1571223720,327.72,154.037,-18.7523,178.506,0.571289,-145.393,528
1571223720,327.72,154.037,-18.7523,178.506,0.571289,-145.393,532
1571223720,327.72,154.037,-18.7523,178.506,0.571289,-145.393,532
1571223720,327.72,154.037,-18.7523,178.506,0.571289,-145.393,532
1571223720,327.72,154.037,-18.7523,178.506,0.571289,-145.393,528
1571223720,327.72,154.037,-18.7523,178.506,0.571289,-145.415,528
1571223720,327.72,154.037,-18.7523,178.506,0.571289,-145.415,528
1571223720,327.72,154.037,-18.7523,178.506,0.571289,-145.415,528
1571223720,327.72,154.037,-18.7523,178.506,0.571289,-145.415,528
1571223720,327.72,154.037,-18.7523,178.506,0.571289,-145.415,528
1571223720,327.72,154.037,-18.7523,178.506,0.571289,-145.415,528
1571223720,327.72,154.037,-18.7523,178.506,0.571289,-145.415,532
1571223720,327.72,154.037,-18.7523,178.506,0.571289,-145.415,532
1571223720,327.72,154.037,-18.7523,178.506,0.571289,-145.415,532
1571223720,327.72,154.037,-18.7523,178.484,0.571289,-145.415,532
1571223720,327.72,154.037,-18.7523,178.484,0.571289,-145.415,532
1571223720,327.72,154.037,-18.7523,178.484,0.571289,-145.415,532
1571223720,327.72,154.037,-18.7523,178.484,0.571289,-145.415,532
1571223720,327.72,154.037,-18.7523,178.484,0.593262,-145.415,532
1571223720,327.72,154.037,-18.7523,178.484,0.593262,-145.415,532
1571223720,327.72,154.037,-18.7523,178.484,0.593262,-145.415,532
1571223720,327.72,154.037,-18.7523,178.484,0.593262,-145.415,532
1571223720,327.72,154.037,-18.7523,178.484,0.593262,-145.415,532
1571223720,327.72,154.037,-18.7523,178.484,0.593262,-145.415,532
1571223720,327.72,154.037,-18.7523,178.484,0.593262,-145.415,536
1571223720,327.72,154.037,-18.7523,178.484,0.593262,-145.415,536
1571223720,327.72,154.037,-18.7523,178.484,0.593262,-145.415,536
1571223720,327.72,154.037,-18.7523,178.484,0.593262,-145.415,536
1571223720,327.72,154.037,-18.7523,178.484,0.593262,-145.415,536
1571223720,327.72,154.037,-18.7523,178.484,0.593262,-145.415,536
1571223720,327.72,154.037,-18.7523,178.484,0.593262,-145.415,536
1571223720,327.72,154.037,-18.7523,178.484,0.593262,-145.415,536
1571223720,327.72,154.037,-18.7523,178.484,0.593262,-145.415,536
1571223720,327.72,154.037,-18.7523,178.484,0.593262,-145.415,536
1571223724,342.788,137.517,-18.9756,178.572,0.351563,-145.129,580
1571223724,342.788,137.517,-18.9756,178.572,0.351563,-145.129,580
1571223724,342.788,137.517,-18.9756,178.572,0.351563,-145.129,580
1571223724,342.788,137.517,-18.9756,178.572,0.351563,-145.129,580
1571223724,342.788,137.517,-18.9756,178.572,0.351563,-145.129,580
1571223724,342.788,137.517,-18.9756,178.572,0.351563,-145.151,580
1571223724,342.788,137.517,-18.9756,178.572,0.351563,-145.151,580
1571223724,342.788,137.517,-18.9756,178.572,0.351563,-145.151,580
1571223724,342.788,137.517,-18.9756,178.572,0.351563,-145.151,580
1571223724,342.788,137.517,-18.9756,178.572,0.351563,-145.151,584
1571223724,342.788,137.517,-18.9756,178.572,0.351563,-145.151,584
1571223724,342.788,137.517,-18.9756,178.572,0.351563,-145.151,584
1571223724,342.788,137.517,-18.9756,178.572,0.351563,-145.151,584
1571223724,342.788,137.517,-18.9756,178.572,0.351563,-145.151,584
1571223724,342.788,137.517,-18.9756,178.572,0.351563,-145.151,584
1571223724,342.788,137.517,-18.9756,178.55,0.351563,-145.151,584
1571223724,342.788,137.517,-18.9756,178.55,0.351563,-145.151,584
1571223724,342.788,137.517,-18.9756,178.55,0.373535,-145.151,588
1571223724,342.788,137.517,-18.864,178.55,0.373535,-145.151,588
1571223724,342.788,137.517,-18.864,178.55,0.373535,-145.151,588
1571223724,342.9,137.517,-18.864,178.55,0.373535,-145.151,588
1571223724,342.9,137.517,-18.864,178.55,0.373535,-145.151,588
1571223724,342.9,137.517,-18.864,178.55,0.373535,-145.151,588
1571223724,342.9,137.517,-18.864,178.55,0.373535,-145.151,588
1571223724,342.9,137.517,-18.864,178.55,0.373535,-145.151,588
1571223724,342.9,137.517,-18.864,178.572,0.373535,-145.151,588
1571223724,342.9,137.517,-18.864,178.572,0.373535,-145.151,588
1571223724,342.9,137.517,-18.864,178.572,0.373535,-145.151,588
1571223724,342.9,137.517,-18.864,178.572,0.373535,-145.151,588
1571223724,342.9,137.517,-18.864,178.572,0.373535,-145.151,588
1571223724,342.9,137.517,-18.864,178.572,0.373535,-145.151,584
1571223724,342.9,137.517,-18.864,178.572,0.373535,-145.151,584
1571223724,342.9,137.517,-18.864,178.572,0.373535,-145.151,584
1571223724,342.9,137.517,-18.9756,178.572,0.373535,-145.151,584
1571223724,342.9,137.517,-18.9756,178.572,0.373535,-145.151,584
1571223724,342.9,137.629,-18.9756,178.572,0.373535,-145.151,580
1571223724,342.9,137.629,-18.9756,178.572,0.373535,-145.151,580
1571223724,342.9,137.629,-18.864,178.572,0.373535,-145.151,580
1571223724,342.9,137.629,-18.864,178.572,0.373535,-145.151,580
1571223724,342.9,137.629,-18.864,178.572,0.373535,-145.151,576
1571223724,342.9,137.517,-18.864,178.572,0.373535,-145.151,576
1571223724,342.9,137.517,-18.864,178.572,0.373535,-145.151,576
1571223724,342.9,137.517,-18.864,178.572,0.373535,-145.151,576
1571223724,342.9,137.517,-18.864,178.572,0.373535,-145.151,576
1571223724,342.788,137.517,-18.864,178.572,0.373535,-145.151,576
1571223724,342.788,137.517,-18.864,178.572,0.373535,-145.151,576
1571223724,342.788,137.517,-18.864,178.572,0.373535,-145.151,576
1571223724,342.788,137.517,-18.864,178.572,0.373535,-145.151,576
1571223724,342.788,137.517,-18.864,178.572,0.373535,-145.151,572
1571223724,342.788,137.517,-18.864,178.572,0.395508,-145.151,572
1571223724,342.788,137.517,-18.864,178.572,0.395508,-145.151,572
1571223724,342.788,137.517,-18.864,178.572,0.395508,-145.151,572
1571223724,342.788,137.517,-18.864,178.572,0.395508,-145.151,572
1571223724,342.788,137.517,-18.864,178.572,0.395508,-145.151,572
1571223724,342.788,137.517,-18.864,178.572,0.395508,-145.151,572
1571223724,342.788,137.517,-18.864,178.572,0.373535,-145.151,572
1571223724,342.788,137.517,-18.864,178.572,0.373535,-145.151,572
1571223724,342.788,137.517,-18.864,178.572,0.373535,-145.151,572
1571223724,342.788,137.517,-18.864,178.572,0.373535,-145.151,572
1571223724,342.788,137.517,-18.864,178.572,0.373535,-145.151,572
1571223724,342.788,137.517,-18.864,178.572,0.373535,-145.151,572
1571223724,342.788,137.517,-18.864,178.572,0.351563,-145.151,572
1571223724,342.788,137.517,-18.9756,178.572,0.351563,-145.151,572
1571223724,342.788,137.517,-18.9756,178.572,0.351563,-145.151,572
1571223724,342.788,137.517,-18.9756,178.572,0.351563,-145.173,576
1571223724,342.788,137.517,-18.9756,178.572,0.351563,-145.173,576
1571223724,342.788,137.517,-18.9756,178.572,0.351563,-145.173,576
1571223724,342.788,137.517,-18.9756,178.572,0.351563,-145.151,576
1571223725,342.788,137.517,-18.9756,178.572,0.351563,-145.151,576
1571223725,342.788,137.517,-18.9756,178.572,0.351563,-145.151,576
1571223725,342.788,137.517,-18.9756,178.572,0.351563,-145.151,576
1571223725,342.788,137.517,-18.9756,178.572,0.351563,-145.151,576
1571223725,342.788,137.517,-18.9756,178.572,0.351563,-145.151,576
1571223725,342.788,137.517,-18.9756,178.572,0.351563,-145.151,576
1571223725,342.788,137.517,-18.9756,178.572,0.351563,-145.151,572
1571223725,342.788,137.517,-18.9756,178.572,0.351563,-145.151,572
1571223725,342.788,137.517,-18.9756,178.572,0.351563,-145.151,576
1571223725,342.788,137.517,-18.9756,178.572,0.351563,-145.151,576
1571223725,342.788,137.517,-18.9756,178.572,0.351563,-145.151,576
1571223725,342.788,137.517,-18.9756,178.572,0.351563,-145.151,576
1571223725,342.788,137.517,-18.9756,178.572,0.351563,-145.151,576
1571223725,342.788,137.517,-18.9756,178.572,0.351563,-145.151,576
1571223725,342.788,137.517,-18.9756,178.572,0.32959,-145.151,580
1571223725,342.788,137.517,-18.9756,178.594,0.32959,-145.151,580
1571223725,342.677,137.629,-18.9756,178.594,0.32959,-145.151,580
1571223725,342.677,137.629,-18.9756,178.594,0.32959,-145.151,580
1571223725,342.677,137.629,-18.9756,178.594,0.32959,-145.151,580
1571223725,342.788,137.629,-18.9756,178.594,0.32959,-145.151,580
1571223725,342.788,137.629,-18.9756,178.594,0.32959,-145.151,584
1571223725,342.788,137.629,-18.9756,178.594,0.351563,-145.151,584
1571223725,342.788,137.629,-18.9756,178.594,0.351563,-145.151,584
1571223725,342.788,137.629,-18.9756,178.594,0.351563,-145.151,584
1571223725,342.788,137.629,-18.9756,178.594,0.351563,-145.151,584
1571223725,342.788,137.629,-18.9756,178.594,0.351563,-145.151,584
1571223725,342.788,137.629,-18.9756,178.594,0.351563,-145.151,584
1571223725,342.788,137.629,-18.9756,178.594,0.351563,-145.151,584
1571223725,342.788,137.629,-18.9756,178.594,0.351563,-145.151,588
1571223725,342.788,137.629,-18.9756,178.594,0.351563,-145.151,588
1571223725,342.788,137.629,-18.9756,178.594,0.351563,-145.151,588
1571223725,342.788,137.629,-18.9756,178.594,0.351563,-145.151,588
1571223725,342.788,137.629,-18.9756,178.594,0.351563,-145.151,588
1571223725,342.788,137.629,-18.9756,178.594,0.351563,-145.151,588
1571223725,342.788,137.629,-18.9756,178.594,0.351563,-145.151,588
1571223725,342.788,137.629,-18.9756,178.594,0.351563,-145.151,588
1571223725,342.788,137.629,-18.9756,178.572,0.351563,-145.151,592
1571223725,342.788,137.629,-18.9756,178.572,0.351563,-145.151,592
1571223725,342.788,137.629,-18.9756,178.572,0.351563,-145.151,592
1571223725,342.788,137.629,-18.9756,178.572,0.351563,-145.151,592
1571223725,342.788,137.629,-18.9756,178.572,0.351563,-145.151,592
1571223725,342.788,137.629,-18.9756,178.572,0.351563,-145.151,592
1571223725,342.788,137.629,-18.9756,178.572,0.351563,-145.151,592
1571223725,342.788,137.629,-18.9756,178.572,0.351563,-145.151,592
1571223725,342.788,137.517,-18.9756,178.572,0.351563,-145.151,592
1571223725,342.788,137.517,-18.9756,178.572,0.351563,-145.151,592
1571223725,342.788,137.517,-18.9756,178.572,0.351563,-145.151,592
1571223725,342.788,137.517,-18.9756,178.572,0.351563,-145.151,592
1571223725,342.788,137.517,-18.9756,178.572,0.351563,-145.151,592
1571223725,342.788,137.517,-18.9756,178.572,0.32959,-145.129,588
1571223725,342.788,137.517,-18.9756,178.572,0.32959,-145.129,588
1571223725,342.788,137.517,-18.9756,178.572,0.32959,-145.129,588
1571223725,342.788,137.517,-18.9756,178.572,0.32959,-145.129,588
1571223725,342.788,137.517,-18.9756,178.572,0.32959,-145.129,588
1571223725,342.788,137.517,-18.9756,178.572,0.351563,-145.129,584
1571223725,342.788,137.517,-18.9756,178.572,0.351563,-145.129,584
1571223725,342.788,137.517,-18.9756,178.572,0.351563,-145.129,584
1571223725,342.788,137.517,-18.9756,178.572,0.351563,-145.129,584
1571223725,342.788,137.517,-18.9756,178.572,0.351563,-145.129,584
1571223725,342.788,137.517,-18.9756,178.572,0.351563,-145.129,584
1571223725,342.788,137.517,-18.9756,178.572,0.351563,-145.129,584
1571223725,342.788,137.517,-18.9756,178.572,0.351563,-145.129,584
1571223725,342.788,137.517,-18.9756,178.572,0.351563,-145.129,584
1571223725,342.788,137.517,-18.9756,178.572,0.351563,-145.129,584
1571223725,342.788,137.517,-18.9756,178.572,0.373535,-145.129,584
1571223725,342.788,137.517,-18.9756,178.572,0.373535,-145.129,584
1571223725,342.788,137.517,-18.9756,178.572,0.373535,-145.129,584
1571223725,342.788,137.517,-18.9756,178.572,0.373535,-145.129,584
1571223725,342.788,137.517,-18.9756,178.572,0.373535,-145.129,584
1571223725,342.788,137.517,-18.9756,178.572,0.373535,-145.129,584
1571223725,342.788,137.517,-18.9756,178.572,0.351563,-145.129,584
1571223725,342.788,137.517,-18.9756,178.572,0.351563,-145.129,584
1571223725,342.788,137.517,-18.9756,178.572,0.351563,-145.129,584
1571223725,342.788,137.517,-18.9756,178.572,0.351563,-145.129,584
1571223725,342.788,137.517,-18.9756,178.572,0.351563,-145.129,584
1571223725,342.788,137.517,-18.9756,178.572,0.351563,-145.129,588
1571223725,342.788,137.517,-18.9756,178.572,0.351563,-145.129,588
1571223725,342.788,137.517,-18.9756,178.572,0.351563,-145.129,584
1571223725,342.788,137.517,-18.9756,178.572,0.351563,-145.129,584
1571223725,342.788,137.517,-18.9756,178.572,0.351563,-145.129,584
1571223725,342.788,137.517,-18.9756,178.572,0.351563,-145.129,584
1571223725,342.788,137.517,-18.9756,178.572,0.351563,-145.129,584
1571223725,342.788,137.517,-18.9756,178.572,0.351563,-145.129,584
1571223725,342.788,137.517,-18.9756,178.55,0.351563,-145.129,580
1571223725,342.788,137.517,-18.9756,178.55,0.351563,-145.129,580
1571223725,342.9,137.517,-18.9756,178.55,0.351563,-145.129,580
1571223725,342.9,137.517,-18.9756,178.55,0.351563,-145.129,580
1571223725,342.9,137.517,-18.9756,178.55,0.351563,-145.129,580
1571223725,342.9,137.517,-18.9756,178.55,0.351563,-145.129,576
1571223725,342.9,137.517,-18.9756,178.55,0.351563,-145.129,576
1571223725,342.9,137.517,-18.9756,178.55,0.351563,-145.129,576
1571223725,342.9,137.517,-18.9756,178.55,0.351563,-145.129,576
1571223725,342.9,137.517,-18.9756,178.55,0.351563,-145.129,576
1571223725,342.9,137.517,-18.9756,178.55,0.351563,-145.129,576
1571223725,342.9,137.517,-18.9756,178.55,0.351563,-145.129,576
1571223725,342.9,137.517,-18.9756,178.55,0.351563,-145.129,576
1571223725,342.9,137.517,-18.9756,178.55,0.351563,-145.129,580
1571223725,342.9,137.517,-18.9756,178.55,0.351563,-145.129,580
1571223725,342.9,137.517,-18.9756,178.55,0.351563,-145.129,580
1571223725,342.9,137.517,-18.9756,178.55,0.351563,-145.129,580
1571223726,342.9,137.517,-18.9756,178.55,0.351563,-145.129,584
1571223726,342.9,137.406,-18.9756,178.55,0.351563,-145.129,584
1571223726,342.788,137.406,-18.9756,178.55,0.351563,-145.129,584
1571223726,342.788,137.406,-18.9756,178.55,0.351563,-145.129,584
1571223726,342.788,137.406,-18.9756,178.55,0.351563,-145.129,584
1571223726,342.788,137.406,-18.9756,178.55,0.351563,-145.129,584
1571223726,342.788,137.406,-18.9756,178.55,0.373535,-145.129,588
1571223726,342.788,137.406,-18.9756,178.55,0.373535,-145.129,588
1571223726,342.788,137.517,-18.9756,178.55,0.373535,-145.151,588
1571223726,342.788,137.517,-18.9756,178.55,0.373535,-145.151,588
1571223726,342.9,137.517,-18.9756,178.55,0.373535,-145.151,588
1571223726,342.9,137.517,-18.864,178.55,0.373535,-145.151,588
1571223726,342.9,137.517,-18.864,178.55,0.373535,-145.151,588
1571223726,342.9,137.517,-18.864,178.572,0.373535,-145.151,584
1571223726,342.788,137.517,-18.864,178.572,0.373535,-145.151,584
1571223726,342.788,137.517,-18.864,178.572,0.373535,-145.151,584
1571223726,342.788,137.517,-18.864,178.572,0.373535,-145.151,584
1571223726,342.788,137.517,-18.864,178.572,0.373535,-145.151,584
1571223726,342.788,137.517,-18.864,178.572,0.373535,-145.151,584
1571223726,342.788,137.517,-18.864,178.572,0.373535,-145.151,584
1571223726,342.788,137.517,-18.864,178.572,0.373535,-145.151,584
1571223726,342.788,137.517,-18.864,178.572,0.373535,-145.151,584
1571223726,342.788,137.517,-18.864,178.572,0.373535,-145.151,584
1571223726,342.788,137.517,-18.864,178.572,0.373535,-145.151,580
1571223726,342.788,137.517,-18.864,178.572,0.373535,-145.151,584
1571223726,342.788,137.517,-18.864,178.572,0.373535,-145.151,584
1571223726,342.788,137.517,-18.864,178.572,0.373535,-145.151,584
1571223726,342.788,137.517,-18.864,178.572,0.373535,-145.151,584
1571223726,342.788,137.517,-18.864,178.572,0.373535,-145.151,584
1571223726,342.788,137.517,-18.864,178.572,0.373535,-145.151,584
1571223726,342.788,137.517,-18.864,178.572,0.373535,-145.151,584
1571223726,342.788,137.517,-18.864,178.572,0.373535,-145.151,584
1571223726,342.788,137.517,-18.864,178.572,0.373535,-145.151,588
1571223726,342.788,137.517,-18.864,178.572,0.373535,-145.151,588
1571223726,342.788,137.517,-18.864,178.572,0.373535,-145.151,588
1571223726,342.788,137.517,-18.864,178.572,0.373535,-145.151,588
1571223726,342.788,137.517,-18.864,178.572,0.373535,-145.151,588
1571223726,342.788,137.517,-18.864,178.572,0.373535,-145.151,592
1571223726,342.788,137.517,-18.864,178.572,0.373535,-145.151,592
1571223726,342.788,137.517,-18.864,178.572,0.373535,-145.151,592
1571223726,342.788,137.517,-18.864,178.572,0.373535,-145.151,592
1571223726,342.788,137.517,-18.864,178.55,0.373535,-145.129,592
1571223726,342.788,137.517,-18.864,178.55,0.373535,-145.129,592
1571223726,342.788,137.517,-18.864,178.55,0.373535,-145.129,592
1571223726,342.788,137.517,-18.864,178.55,0.373535,-145.129,592
1571223726,342.788,137.517,-18.864,178.55,0.373535,-145.129,592
1571223726,342.788,137.517,-18.9756,178.55,0.373535,-145.129,592
1571223726,342.788,137.517,-18.9756,178.572,0.373535,-145.129,592
1571223726,342.788,137.517,-18.9756,178.572,0.373535,-145.129,592
1571223726,342.788,137.517,-18.9756,178.572,0.373535,-145.129,592
1571223726,342.788,137.517,-18.9756,178.572,0.373535,-145.129,592
1571223726,342.788,137.517,-18.9756,178.572,0.373535,-145.129,592
1571223726,342.788,137.517,-18.9756,178.572,0.373535,-145.129,592
1571223726,342.788,137.517,-18.9756,178.572,0.351563,-145.129,592
1571223726,342.788,137.517,-18.9756,178.572,0.351563,-145.129,592
1571223726,342.788,137.517,-18.9756,178.572,0.351563,-145.129,592
1571223726,342.788,137.517,-18.9756,178.572,0.351563,-145.129,592
1571223726,342.788,137.517,-18.9756,178.572,0.351563,-145.129,592
1571223726,342.788,137.517,-18.9756,178.572,0.351563,-145.129,592
1571223726,342.788,137.517,-18.9756,178.572,0.351563,-145.129,592
1571223726,342.788,137.517,-18.9756,178.572,0.351563,-145.129,592
1571223726,342.788,137.517,-18.9756,178.572,0.351563,-145.129,592
1571223726,342.788,137.517,-18.9756,178.572,0.351563,-145.129,592
1571223726,342.788,137.517,-18.9756,178.572,0.351563,-145.129,592
1571223726,342.788,137.517,-18.9756,178.572,0.351563,-145.129,592
1571223726,342.788,137.629,-18.9756,178.572,0.351563,-145.129,592
1571223726,342.788,137.629,-18.9756,178.572,0.351563,-145.129,592
1571223726,342.788,137.629,-18.9756,178.572,0.351563,-145.129,592
1571223726,342.788,137.629,-18.9756,178.572,0.351563,-145.129,592
1571223726,342.9,137.629,-18.9756,178.572,0.351563,-145.129,592
1571223726,342.9,137.629,-18.9756,178.572,0.351563,-145.151,592
1571223726,342.9,137.517,-18.9756,178.572,0.351563,-145.151,592
1571223726,342.9,137.517,-18.9756,178.572,0.351563,-145.151,588
1571223726,342.9,137.517,-18.9756,178.572,0.351563,-145.151,588
1571223726,342.9,137.517,-18.9756,178.572,0.351563,-145.151,588
1571223726,342.9,137.517,-18.9756,178.572,0.351563,-145.151,588
1571223726,342.9,137.517,-18.9756,178.572,0.351563,-145.151,588
1571223726,342.9,137.517,-18.9756,178.572,0.351563,-145.151,588
1571223726,342.9,137.517,-18.9756,178.572,0.351563,-145.151,588
1571223726,342.9,137.517,-18.9756,178.572,0.351563,-145.151,588
1571223726,342.9,137.517,-18.9756,178.572,0.351563,-145.151,588
1571223726,342.9,137.517,-18.9756,178.572,0.351563,-145.151,588
1571223726,342.9,137.517,-18.9756,178.572,0.351563,-145.151,588
1571223726,342.9,137.517,-18.9756,178.572,0.351563,-145.151,588
1571223726,342.9,137.517,-18.9756,178.572,0.351563,-145.151,588
1571223726,342.9,137.517,-18.9756,178.572,0.351563,-145.151,592
1571223726,342.9,137.517,-18.9756,178.572,0.351563,-145.151,592
1571223726,342.788,137.517,-18.9756,178.572,0.351563,-145.151,592
1571223726,342.788,137.517,-18.9756,178.572,0.351563,-145.151,592
1571223726,342.788,137.517,-18.9756,178.572,0.351563,-145.151,592
1571223726,342.788,137.517,-18.9756,178.572,0.351563,-145.151,592
1571223726,342.788,137.517,-18.9756,178.572,0.351563,-145.151,592
1571223726,342.788,137.517,-18.9756,178.572,0.351563,-145.151,592
1571223726,342.788,137.517,-18.9756,178.572,0.351563,-145.151,592
1571223726,342.788,137.517,-18.9756,178.572,0.32959,-145.151,592
1571223726,342.788,137.517,-18.9756,178.572,0.32959,-145.151,592
1571223726,342.788,137.517,-18.9756,178.572,0.32959,-145.151,592
1571223726,342.788,137.517,-18.9756,178.572,0.32959,-145.151,592
1571223726,342.788,137.517,-18.9756,178.572,0.32959,-145.151,592
1571223726,342.9,137.517,-18.9756,178.572,0.32959,-145.151,592
1571223727,342.9,137.517,-18.9756,178.572,0.32959,-145.151,592
1571223727,342.9,137.517,-18.9756,178.572,0.32959,-145.151,592
1571223727,342.9,137.517,-18.9756,178.55,0.32959,-145.151,592
1571223727,342.788,137.517,-18.9756,178.55,0.32959,-145.151,592
1571223727,342.788,137.517,-18.9756,178.55,0.32959,-145.151,588
1571223727,342.788,137.517,-18.9756,178.55,0.32959,-145.151,588
1571223727,342.788,137.517,-18.9756,178.55,0.32959,-145.151,588
1571223727,342.788,137.517,-18.9756,178.55,0.32959,-145.151,588
1571223727,342.788,137.517,-18.9756,178.55,0.32959,-145.151,588
1571223727,342.788,137.517,-18.9756,178.55,0.32959,-145.151,588
1571223727,342.788,137.517,-18.9756,178.55,0.351563,-145.151,588
1571223727,342.788,137.517,-18.9756,178.55,0.351563,-145.151,592
1571223727,342.788,137.517,-18.9756,178.55,0.351563,-145.151,592
1571223727,342.788,137.517,-18.9756,178.55,0.351563,-145.151,592
1571223727,342.788,137.517,-18.9756,178.55,0.351563,-145.151,592
1571223727,342.788,137.517,-18.9756,178.55,0.351563,-145.151,592
1571223727,342.788,137.517,-18.9756,178.55,0.351563,-145.151,592
1571223727,342.788,137.517,-18.9756,178.55,0.351563,-145.151,592
1571223727,342.788,137.517,-18.9756,178.55,0.351563,-145.151,592
1571223727,342.788,137.517,-18.9756,178.55,0.351563,-145.151,592
1571223727,342.788,137.517,-18.9756,178.55,0.351563,-145.151,592
1571223727,342.788,137.517,-18.9756,178.55,0.351563,-145.151,592
1571223727,342.788,137.517,-18.9756,178.55,0.351563,-145.151,592
1571223727,342.788,137.517,-18.9756,178.572,0.351563,-145.151,592
1571223727,342.788,137.517,-18.9756,178.572,0.351563,-145.151,592
1571223727,342.788,137.517,-18.9756,178.572,0.351563,-145.151,592
1571223727,342.788,137.517,-18.9756,178.572,0.351563,-145.129,592
1571223727,342.788,137.517,-18.9756,178.572,0.373535,-145.129,592
1571223727,342.788,137.517,-18.9756,178.572,0.373535,-145.129,592
1571223727,342.788,137.517,-18.9756,178.572,0.373535,-145.129,592
1571223727,342.788,137.517,-18.9756,178.572,0.373535,-145.129,592
1571223727,342.788,137.517,-18.9756,178.572,0.373535,-145.129,592
1571223727,342.788,137.517,-18.9756,178.572,0.373535,-145.129,592
1571223727,342.788,137.517,-18.9756,178.572,0.373535,-145.129,592
1571223727,342.788,137.517,-18.9756,178.572,0.373535,-145.129,592
1571223727,342.788,137.517,-18.9756,178.572,0.373535,-145.129,592
1571223727,342.788,137.517,-18.9756,178.572,0.373535,-145.129,588
1571223727,342.788,137.517,-18.9756,178.572,0.373535,-145.129,588
1571223727,342.788,137.517,-18.9756,178.55,0.373535,-145.129,588
1571223727,342.788,137.517,-18.9756,178.55,0.351563,-145.129,588
1571223727,342.788,137.517,-18.9756,178.55,0.351563,-145.129,588
1571223727,342.788,137.517,-18.9756,178.55,0.351563,-145.129,588
1571223727,342.788,137.406,-18.9756,178.55,0.351563,-145.129,584
1571223727,342.788,137.406,-18.9756,178.55,0.351563,-145.129,584
1571223727,342.788,137.406,-19.0872,178.55,0.351563,-145.129,584
1571223727,342.788,137.406,-19.0872,178.55,0.351563,-145.129,584
1571223727,342.788,137.406,-19.0872,178.55,0.351563,-145.129,584
1571223727,342.788,137.406,-19.0872,178.55,0.32959,-145.129,580
1571223727,342.788,137.406,-19.0872,178.55,0.32959,-145.129,580
1571223727,342.788,137.406,-19.0872,178.55,0.32959,-145.129,580
1571223727,342.788,137.406,-19.0872,178.55,0.32959,-145.129,580
1571223727,342.788,137.406,-19.0872,178.55,0.32959,-145.129,580
1571223727,342.788,137.406,-19.0872,178.55,0.351563,-145.129,580
1571223727,342.788,137.517,-19.0872,178.572,0.351563,-145.151,576
1571223727,342.788,137.517,-19.0872,178.572,0.351563,-145.151,576
1571223727,342.788,137.517,-19.0872,178.572,0.351563,-145.151,576
1571223727,342.788,137.517,-18.9756,178.572,0.351563,-145.151,576
1571223727,342.788,137.517,-18.9756,178.572,0.351563,-145.151,576
1571223727,342.788,137.517,-18.9756,178.572,0.351563,-145.151,572
1571223727,342.788,137.517,-18.9756,178.572,0.351563,-145.151,572
1571223727,342.788,137.517,-18.9756,178.572,0.351563,-145.151,572
1571223727,342.788,137.517,-18.9756,178.55,0.351563,-145.151,572
1571223727,342.788,137.517,-18.9756,178.55,0.351563,-145.151,568
1571223727,342.788,137.517,-18.9756,178.55,0.351563,-145.151,568
1571223727,342.788,137.517,-18.9756,178.55,0.351563,-145.151,568
1571223727,342.788,137.517,-18.9756,178.55,0.351563,-145.151,568
1571223727,342.788,137.517,-18.9756,178.55,0.351563,-145.151,568
1571223727,342.788,137.517,-18.9756,178.55,0.351563,-145.151,568
1571223727,342.788,137.517,-18.9756,178.55,0.351563,-145.151,568
1571223727,342.788,137.517,-18.9756,178.55,0.351563,-145.151,568
1571223727,342.788,137.517,-18.9756,178.572,0.351563,-145.151,568
1571223727,342.788,137.517,-18.9756,178.572,0.351563,-145.151,564
1571223727,342.788,137.517,-18.9756,178.572,0.351563,-145.151,564
1571223727,342.788,137.517,-18.9756,178.572,0.351563,-145.151,564
1571223727,342.788,137.517,-18.9756,178.572,0.351563,-145.129,564
1571223727,342.788,137.517,-18.9756,178.572,0.351563,-145.129,564
1571223727,342.788,137.517,-18.9756,178.572,0.351563,-145.129,564
1571223727,342.788,137.517,-18.9756,178.572,0.351563,-145.129,564
1571223727,342.788,137.517,-18.9756,178.572,0.351563,-145.151,564
1571223727,342.788,137.517,-18.9756,178.572,0.351563,-145.151,564
1571223727,342.788,137.517,-18.9756,178.572,0.351563,-145.151,568
1571223727,342.788,137.517,-18.9756,178.572,0.351563,-145.151,568
1571223727,342.788,137.517,-18.9756,178.572,0.351563,-145.151,568
1571223727,342.788,137.517,-18.9756,178.572,0.351563,-145.151,568
1571223727,342.788,137.517,-18.9756,178.572,0.351563,-145.151,568
1571223727,342.788,137.517,-18.9756,178.572,0.373535,-145.151,568
1571223727,342.788,137.517,-18.9756,178.572,0.373535,-145.151,568
1571223727,342.788,137.517,-18.9756,178.572,0.373535,-145.151,572
1571223727,342.788,137.517,-18.9756,178.572,0.373535,-145.151,572
1571223727,342.788,137.517,-18.9756,178.572,0.373535,-145.151,572
1571223727,342.788,137.517,-18.9756,178.572,0.373535,-145.151,572
1571223727,342.788,137.517,-18.9756,178.572,0.373535,-145.151,572
1571223727,342.788,137.517,-18.9756,178.572,0.373535,-145.151,572
1571223727,342.788,137.517,-18.9756,178.594,0.373535,-145.151,572
1571223727,342.788,137.517,-18.9756,178.594,0.373535,-145.151,572
1571223727,342.788,137.517,-18.864,178.594,0.373535,-145.151,572
1571223727,342.788,137.517,-18.864,178.594,0.373535,-145.151,572
1571223727,342.788,137.517,-18.864,178.594,0.373535,-145.151,572
1571223727,342.788,137.517,-18.864,178.572,0.373535,-145.151,576
1571223727,342.788,137.517,-18.864,178.572,0.373535,-145.151,576
1571223728,342.788,137.517,-18.864,178.572,0.395508,-145.151,576
1571223728,342.788,137.517,-18.864,178.594,0.395508,-145.151,576
1571223728,342.788,137.517,-18.864,178.594,0.395508,-145.151,580
1571223728,342.788,137.517,-18.864,178.594,0.395508,-145.151,580
1571223728,342.788,137.517,-18.864,178.594,0.395508,-145.151,580
1571223728,342.788,137.517,-18.864,178.594,0.395508,-145.151,580
1571223728,342.788,137.517,-18.864,178.594,0.395508,-145.151,584
1571223728,342.788,137.517,-18.864,178.594,0.373535,-145.151,584
1571223728,342.788,137.629,-18.864,178.594,0.373535,-145.151,584
1571223728,342.788,137.629,-18.864,178.594,0.373535,-145.151,584
1571223728,342.788,137.629,-18.864,178.594,0.373535,-145.151,588
1571223728,342.788,137.629,-18.864,178.594,0.373535,-145.151,588
1571223728,342.788,137.629,-18.864,178.594,0.373535,-145.151,588
1571223728,342.788,137.629,-18.864,178.594,0.373535,-145.151,588
1571223728,342.788,137.629,-18.864,178.594,0.373535,-145.151,588
1571223728,342.788,137.629,-18.864,178.594,0.373535,-145.151,588
1571223728,342.788,137.629,-18.9756,178.594,0.373535,-145.151,592
1571223728,342.788,137.629,-18.9756,178.594,0.373535,-145.151,592
1571223728,342.788,137.629,-18.9756,178.594,0.373535,-145.151,592
1571223728,342.788,137.629,-18.9756,178.594,0.373535,-145.151,592
1571223728,342.788,137.629,-18.9756,178.594,0.373535,-145.151,592
1571223728,342.788,137.629,-18.9756,178.594,0.373535,-145.151,592
1571223728,342.788,137.629,-18.9756,178.594,0.373535,-145.151,592
1571223728,342.788,137.629,-18.864,178.594,0.373535,-145.151,592
1571223728,342.788,137.629,-18.864,178.594,0.373535,-145.151,592
1571223728,342.788,137.629,-18.864,178.594,0.373535,-145.151,592
1571223728,342.788,137.629,-18.864,178.594,0.373535,-145.151,592
1571223728,342.788,137.629,-18.864,178.594,0.373535,-145.151,592
1571223728,342.788,137.629,-18.864,178.594,0.373535,-145.151,592
1571223728,342.788,137.629,-18.864,178.594,0.373535,-145.151,592
1571223728,342.788,137.629,-18.864,178.594,0.373535,-145.151,592
1571223728,342.788,137.629,-18.864,178.594,0.373535,-145.151,592
1571223728,342.788,137.629,-18.864,178.594,0.373535,-145.151,592
1571223728,342.788,137.629,-18.864,178.594,0.373535,-145.151,592
1571223728,342.788,137.629,-18.864,178.594,0.373535,-145.151,592
1571223728,342.788,137.629,-18.864,178.594,0.373535,-145.151,592
1571223728,342.788,137.629,-18.864,178.594,0.373535,-145.151,592
1571223728,342.788,137.629,-18.864,178.594,0.373535,-145.151,592
1571223728,342.788,137.629,-18.864,178.594,0.373535,-145.151,588
1571223728,342.788,137.629,-18.864,178.594,0.373535,-145.151,588
1571223728,342.788,137.629,-18.864,178.572,0.373535,-145.151,588
1571223728,342.788,137.629,-18.864,178.572,0.373535,-145.151,588
1571223728,342.788,137.629,-18.864,178.572,0.373535,-145.151,588
1571223728,342.788,137.629,-18.864,178.572,0.373535,-145.151,588
1571223728,342.9,137.629,-18.864,178.572,0.373535,-145.151,588
1571223728,342.9,137.629,-18.864,178.572,0.373535,-145.151,588
1571223728,342.788,137.629,-18.864,178.572,0.373535,-145.151,588
1571223728,342.788,137.629,-18.864,178.572,0.373535,-145.151,588
1571223728,342.788,137.629,-18.9756,178.572,0.373535,-145.151,588
1571223728,342.788,137.629,-18.9756,178.572,0.373535,-145.151,588
1571223728,342.788,137.629,-18.9756,178.572,0.373535,-145.151,588
1571223728,342.788,137.629,-18.9756,178.572,0.373535,-145.151,584
1571223728,342.9,137.629,-18.9756,178.572,0.373535,-145.151,584
1571223728,342.9,137.629,-18.9756,178.572,0.373535,-145.151,584
1571223728,342.9,137.629,-18.9756,178.572,0.373535,-145.151,584
1571223728,342.9,137.629,-18.9756,178.572,0.373535,-145.151,584
1571223728,342.9,137.517,-18.9756,178.572,0.373535,-145.151,580
1571223728,342.9,137.517,-18.9756,178.55,0.373535,-145.151,580
1571223728,342.9,137.517,-18.9756,178.55,0.351563,-145.151,580
1571223728,342.9,137.517,-18.9756,178.55,0.351563,-145.151,580
1571223728,342.9,137.517,-18.9756,178.55,0.351563,-145.151,580
1571223728,342.9,137.517,-18.9756,178.55,0.351563,-145.151,580
1571223728,342.9,137.517,-18.9756,178.55,0.351563,-145.151,580
1571223728,342.9,137.517,-18.9756,178.55,0.351563,-145.151,580
1571223728,342.788,137.517,-18.9756,178.55,0.351563,-145.151,580
1571223728,342.788,137.517,-18.9756,178.55,0.351563,-145.151,580
1571223728,342.788,137.517,-18.9756,178.572,0.351563,-145.151,580
1571223728,342.788,137.517,-18.9756,178.572,0.351563,-145.151,580
1571223728,342.788,137.517,-18.9756,178.572,0.351563,-145.151,580
1571223728,342.788,137.517,-18.9756,178.572,0.351563,-145.129,580
1571223728,342.788,137.517,-18.9756,178.572,0.351563,-145.129,580
1571223728,342.788,137.517,-18.9756,178.572,0.351563,-145.129,580
1571223728,342.788,137.517,-18.9756,178.572,0.351563,-145.129,580
1571223728,342.788,137.517,-18.9756,178.572,0.351563,-145.129,580
1571223728,342.788,137.517,-18.9756,178.572,0.351563,-145.129,580
1571223728,342.788,137.517,-18.9756,178.572,0.351563,-145.129,580
1571223728,342.788,137.517,-18.9756,178.572,0.351563,-145.129,576
1571223728,342.788,137.517,-18.9756,178.572,0.351563,-145.129,576
1571223728,342.788,137.517,-18.9756,178.572,0.351563,-145.129,576
1571223728,342.788,137.517,-18.9756,178.572,0.351563,-145.129,576
1571223728,342.788,137.517,-18.9756,178.572,0.351563,-145.129,576
1571223728,342.788,137.517,-18.9756,178.572,0.351563,-145.129,576
1571223728,342.788,137.517,-18.9756,178.572,0.351563,-145.129,576
1571223728,342.788,137.517,-18.9756,178.572,0.351563,-145.129,576
1571223728,342.788,137.517,-18.9756,178.572,0.351563,-145.129,576
1571223728,342.788,137.517,-18.9756,178.572,0.351563,-145.129,576
1571223728,342.788,137.517,-18.9756,178.572,0.351563,-145.129,572
1571223728,342.788,137.517,-18.9756,178.572,0.351563,-145.129,572
1571223728,342.788,137.517,-19.0872,178.572,0.351563,-145.129,572
1571223728,342.788,137.517,-19.0872,178.572,0.32959,-145.129,572
1571223728,342.788,137.517,-19.0872,178.572,0.32959,-145.129,572
1571223728,342.788,137.517,-19.0872,178.572,0.32959,-145.129,568
1571223728,342.788,137.517,-19.0872,178.572,0.32959,-145.129,568
1571223728,342.788,137.517,-19.0872,178.572,0.32959,-145.129,568
1571223728,342.788,137.517,-19.0872,178.572,0.32959,-145.129,568
1571223728,342.788,137.517,-19.0872,178.572,0.32959,-145.129,568
1571223728,342.788,137.517,-19.0872,178.572,0.307617,-145.129,568
1571223728,342.788,137.517,-19.0872,178.572,0.307617,-145.129,564
1571223728,342.788,137.517,-19.0872,178.572,0.307617,-145.129,564
1571223728,342.788,137.517,-19.0872,178.572,0.307617,-145.129,564
1571223729,342.788,137.517,-19.0872,178.572,0.32959,-145.129,564
1571223729,342.788,137.517,-19.0872,178.572,0.32959,-145.129,564
1571223729,342.788,137.517,-19.0872,178.572,0.32959,-145.129,564
1571223729,342.788,137.517,-19.0872,178.572,0.32959,-145.129,564
1571223729,342.788,137.517,-19.0872,178.572,0.32959,-145.129,564
1571223729,342.788,137.517,-19.0872,178.572,0.32959,-145.129,564
1571223729,342.788,137.517,-19.0872,178.572,0.32959,-145.129,564
1571223729,342.788,137.517,-19.0872,178.572,0.351563,-145.129,568
1571223729,342.788,137.629,-19.0872,178.572,0.351563,-145.129,568
1571223729,342.788,137.629,-18.9756,178.572,0.351563,-145.129,568
1571223729,342.788,137.629,-18.9756,178.572,0.351563,-145.129,568
1571223729,342.788,137.629,-18.9756,178.594,0.351563,-145.129,568
1571223729,342.788,137.629,-18.9756,178.594,0.351563,-145.129,568
1571223729,342.788,137.629,-18.9756,178.594,0.351563,-145.129,568
1571223729,342.788,137.629,-18.9756,178.594,0.351563,-145.129,568
1571223729,342.788,137.629,-18.9756,178.594,0.351563,-145.129,568
1571223729,342.788,137.629,-18.9756,178.594,0.351563,-145.129,568
1571223729,342.788,137.629,-18.9756,178.594,0.351563,-145.129,568
1571223729,342.788,137.629,-18.9756,178.594,0.351563,-145.129,568
1571223729,342.788,137.629,-18.9756,178.594,0.351563,-145.129,568
1571223729,342.788,137.629,-18.9756,178.594,0.351563,-145.129,568
1571223729,342.788,137.629,-18.9756,178.572,0.351563,-145.129,568
1571223729,342.788,137.629,-18.9756,178.572,0.351563,-145.129,568
1571223729,342.788,137.629,-18.9756,178.572,0.351563,-145.129,568
1571223729,342.788,137.629,-18.9756,178.572,0.351563,-145.129,568
1571223729,342.788,137.629,-18.9756,178.572,0.351563,-145.129,568
1571223729,342.788,137.629,-18.9756,178.572,0.351563,-145.129,568
1571223729,342.788,137.629,-18.9756,178.572,0.351563,-145.129,568
1571223729,342.788,137.517,-18.9756,178.572,0.351563,-145.129,572
1571223729,342.788,137.517,-18.9756,178.572,0.351563,-145.151,572
1571223729,342.788,137.517,-18.9756,178.572,0.351563,-145.151,572
1571223729,342.788,137.517,-18.9756,178.572,0.351563,-145.151,572
1571223732,365.671,113.072,-18.9756,178.66,0.483398,-145.371,656
1571223732,365.671,113.072,-18.9756,178.66,0.483398,-145.371,656
1571223732,365.671,113.072,-18.9756,178.66,0.483398,-145.371,656
1571223732,365.671,113.072,-18.9756,178.66,0.483398,-145.371,656
1571223732,365.671,113.072,-18.9756,178.66,0.483398,-145.371,656
1571223732,365.671,113.072,-18.9756,178.66,0.483398,-145.371,656
1571223732,365.671,113.072,-18.9756,178.66,0.483398,-145.371,656
1571223732,365.671,113.072,-18.9756,178.66,0.483398,-145.371,656
1571223732,365.671,113.072,-18.9756,178.66,0.483398,-145.371,656
1571223732,365.671,113.072,-18.9756,178.66,0.483398,-145.371,656
1571223732,365.671,113.072,-18.9756,178.66,0.483398,-145.371,656
1571223732,365.671,113.072,-18.9756,178.66,0.483398,-145.371,656
1571223732,365.671,113.072,-18.9756,178.66,0.483398,-145.371,656
1571223732,365.671,113.072,-18.9756,178.66,0.483398,-145.371,656
1571223732,365.671,113.072,-18.9756,178.66,0.483398,-145.371,656
1571223732,365.671,113.072,-18.9756,178.66,0.483398,-145.371,656
1571223732,365.671,113.072,-18.9756,178.66,0.483398,-145.371,656
1571223732,365.671,113.072,-18.9756,178.66,0.483398,-145.371,656
1571223732,365.671,113.072,-18.9756,178.66,0.483398,-145.371,656
1571223732,365.671,113.072,-18.9756,178.66,0.483398,-145.371,656
1571223732,365.671,113.072,-18.9756,178.66,0.483398,-145.371,656
1571223732,365.671,113.072,-18.9756,178.66,0.483398,-145.371,656
1571223732,365.671,113.072,-18.9756,178.66,0.483398,-145.371,656
1571223732,365.671,113.072,-18.9756,178.66,0.483398,-145.349,656
1571223732,365.671,113.072,-18.9756,178.66,0.483398,-145.349,656
1571223732,365.671,113.072,-18.9756,178.66,0.483398,-145.349,656
1571223732,365.671,113.072,-18.9756,178.66,0.483398,-145.349,656
1571223732,365.671,113.072,-18.9756,178.638,0.483398,-145.349,656
1571223732,365.671,113.072,-18.9756,178.638,0.483398,-145.349,656
1571223732,365.671,113.072,-18.9756,178.638,0.483398,-145.349,660
1571223732,365.671,113.072,-18.9756,178.638,0.483398,-145.349,660
1571223732,365.671,113.072,-18.9756,178.638,0.483398,-145.349,660
1571223732,365.671,113.072,-18.9756,178.638,0.483398,-145.349,660
1571223732,365.671,113.072,-18.9756,178.638,0.483398,-145.349,664
1571223732,365.671,113.072,-18.9756,178.638,0.483398,-145.349,664
1571223732,365.671,113.072,-18.9756,178.638,0.483398,-145.349,664
1571223732,365.671,112.961,-18.9756,178.638,0.483398,-145.349,664
1571223732,365.671,112.961,-18.9756,178.638,0.483398,-145.349,668
1571223732,365.671,112.961,-18.9756,178.638,0.483398,-145.349,668
1571223732,365.559,112.961,-18.9756,178.638,0.483398,-145.349,668
1571223732,365.559,112.961,-18.9756,178.638,0.483398,-145.349,672
1571223732,365.559,112.961,-18.9756,178.638,0.505371,-145.349,672
1571223732,365.559,112.961,-18.9756,178.638,0.505371,-145.349,672
1571223732,365.559,112.961,-18.9756,178.638,0.505371,-145.349,672
1571223732,365.559,112.961,-18.9756,178.638,0.505371,-145.349,672
1571223732,365.559,112.961,-18.864,178.638,0.505371,-145.349,672
1571223732,365.559,112.961,-18.864,178.638,0.505371,-145.349,676
1571223732,365.559,112.961,-18.864,178.638,0.505371,-145.349,676
1571223733,365.559,113.072,-18.864,178.638,0.505371,-145.349,676
1571223733,365.559,113.072,-18.864,178.638,0.505371,-145.349,676
1571223733,365.559,113.072,-18.864,178.638,0.505371,-145.349,672
1571223733,365.559,113.072,-18.864,178.638,0.505371,-145.349,672
1571223733,365.559,113.072,-18.864,178.66,0.505371,-145.349,672
1571223733,365.559,113.072,-18.864,178.66,0.505371,-145.349,672
1571223733,365.559,113.072,-18.864,178.66,0.505371,-145.349,672
1571223733,365.559,113.072,-18.864,178.66,0.505371,-145.349,668
1571223733,365.559,113.072,-18.864,178.66,0.505371,-145.349,668
1571223733,365.559,113.072,-18.864,178.66,0.505371,-145.349,668
1571223733,365.559,113.072,-18.864,178.638,0.505371,-145.349,668
1571223733,365.559,113.072,-18.864,178.638,0.505371,-145.349,668
1571223733,365.671,113.072,-18.864,178.638,0.505371,-145.349,668
1571223733,365.671,113.072,-18.864,178.638,0.505371,-145.349,664
1571223733,365.671,113.072,-18.864,178.638,0.505371,-145.349,664
1571223733,365.671,113.072,-18.864,178.638,0.505371,-145.349,664
1571223733,365.671,113.072,-18.864,178.638,0.505371,-145.349,664
1571223733,365.671,113.072,-18.864,178.638,0.505371,-145.371,660
1571223733,365.671,113.072,-18.864,178.638,0.505371,-145.371,660
1571223733,365.671,113.072,-18.864,178.638,0.505371,-145.371,660
1571223733,365.671,113.072,-18.864,178.638,0.505371,-145.371,660
1571223733,365.671,113.072,-18.864,178.638,0.505371,-145.371,656
1571223733,365.671,112.961,-18.864,178.638,0.505371,-145.371,656
1571223733,365.671,112.961,-18.9756,178.638,0.505371,-145.371,656
1571223733,365.671,113.072,-18.9756,178.638,0.483398,-145.371,656
1571223733,365.671,113.072,-18.9756,178.638,0.483398,-145.371,652
1571223733,365.671,113.072,-18.9756,178.638,0.483398,-145.371,652
1571223733,365.671,113.072,-18.9756,178.638,0.483398,-145.349,652
1571223733,365.671,113.072,-18.9756,178.638,0.483398,-145.349,648
1571223733,365.671,113.072,-18.9756,178.638,0.483398,-145.349,648
1571223733,365.671,113.072,-18.9756,178.638,0.483398,-145.349,648
1571223733,365.671,113.072,-18.9756,178.638,0.483398,-145.349,644
1571223733,365.671,113.072,-18.9756,178.638,0.483398,-145.349,644
1571223733,365.671,113.072,-18.9756,178.638,0.483398,-145.349,644
1571223733,365.671,113.072,-18.9756,178.638,0.483398,-145.349,640
1571223733,365.671,113.072,-18.9756,178.638,0.483398,-145.349,640
1571223733,365.671,113.072,-18.9756,178.638,0.483398,-145.349,640
1571223733,365.671,113.072,-18.9756,178.638,0.483398,-145.349,640
1571223733,365.671,113.072,-18.9756,178.638,0.483398,-145.349,640
1571223733,365.671,113.072,-18.9756,178.638,0.483398,-145.349,640
1571223733,365.671,113.072,-18.9756,178.638,0.483398,-145.349,640
1571223733,365.671,113.072,-18.9756,178.66,0.483398,-145.349,640
1571223733,365.671,113.072,-19.0872,178.66,0.461426,-145.349,640
1571223733,365.671,113.072,-19.0872,178.66,0.461426,-145.349,640
1571223733,365.559,113.072,-19.0872,178.66,0.461426,-145.349,640
1571223733,365.559,113.072,-19.0872,178.66,0.461426,-145.349,640
1571223733,365.559,113.072,-19.0872,178.66,0.461426,-145.349,640
1571223733,365.559,113.072,-19.0872,178.66,0.461426,-145.349,640
1571223733,365.559,113.072,-19.0872,178.66,0.461426,-145.349,640
1571223733,365.559,113.072,-19.0872,178.66,0.461426,-145.349,640
1571223733,365.559,113.072,-19.0872,178.66,0.461426,-145.371,636
1571223733,365.559,113.072,-19.0872,178.638,0.461426,-145.371,636
1571223733,365.559,113.072,-19.0872,178.638,0.461426,-145.371,636
1571223733,365.559,113.072,-19.0872,178.638,0.461426,-145.371,636
1571223733,365.559,113.072,-19.0872,178.66,0.461426,-145.371,636
1571223733,365.559,113.072,-18.9756,178.66,0.461426,-145.371,636
1571223733,365.559,113.072,-18.9756,178.66,0.461426,-145.371,636
1571223733,365.559,113.072,-18.9756,178.66,0.461426,-145.371,636
1571223733,365.559,113.072,-18.9756,178.66,0.461426,-145.371,636
1571223733,365.559,113.184,-18.9756,178.66,0.483398,-145.371,632
1571223733,365.559,113.184,-18.9756,178.66,0.483398,-145.371,632
1571223733,365.559,113.184,-18.9756,178.66,0.483398,-145.371,632
1571223733,365.559,113.184,-18.9756,178.66,0.483398,-145.371,632
1571223733,365.559,113.184,-18.9756,178.66,0.483398,-145.371,632
1571223733,365.671,113.184,-18.9756,178.682,0.483398,-145.371,632
1571223733,365.671,113.184,-18.9756,178.682,0.483398,-145.371,632
1571223733,365.671,113.184,-18.9756,178.682,0.483398,-145.349,632
1571223733,365.671,113.184,-18.9756,178.682,0.483398,-145.349,628
1571223733,365.671,113.184,-18.9756,178.682,0.483398,-145.349,628
1571223733,365.671,113.184,-18.9756,178.66,0.483398,-145.349,628
1571223733,365.671,113.184,-18.9756,178.66,0.483398,-145.349,628
1571223733,365.671,113.184,-18.9756,178.66,0.483398,-145.349,628
1571223733,365.671,113.184,-18.9756,178.66,0.483398,-145.349,628
1571223733,365.671,113.184,-18.9756,178.66,0.483398,-145.349,624
1571223733,365.671,113.184,-18.9756,178.66,0.483398,-145.349,624
1571223733,365.671,113.184,-18.9756,178.66,0.483398,-145.349,624
1571223733,365.671,113.184,-18.9756,178.66,0.483398,-145.349,624
1571223733,365.671,113.072,-18.9756,178.66,0.483398,-145.349,624
1571223733,365.671,113.072,-18.9756,178.66,0.483398,-145.349,628
1571223733,365.671,113.072,-18.9756,178.66,0.483398,-145.349,628
1571223733,365.671,113.072,-18.9756,178.66,0.483398,-145.349,628
1571223733,365.671,113.072,-18.9756,178.66,0.483398,-145.349,628
1571223733,365.671,113.072,-18.9756,178.66,0.483398,-145.349,632
1571223733,365.671,113.072,-18.9756,178.66,0.483398,-145.349,632
1571223733,365.671,113.072,-18.9756,178.66,0.483398,-145.349,636
1571223733,365.671,113.072,-18.9756,178.66,0.483398,-145.349,636
1571223733,365.671,113.072,-18.9756,178.66,0.483398,-145.349,636
1571223733,365.671,113.072,-18.9756,178.66,0.483398,-145.349,640
1571223733,365.671,113.072,-18.9756,178.66,0.483398,-145.349,640
1571223733,365.671,113.072,-18.9756,178.638,0.483398,-145.349,644
1571223733,365.671,113.072,-18.9756,178.638,0.483398,-145.349,644
1571223733,365.671,113.072,-18.9756,178.638,0.483398,-145.349,644
1571223733,365.671,113.072,-18.9756,178.638,0.483398,-145.349,644
1571223733,365.671,113.072,-18.9756,178.638,0.483398,-145.349,644
1571223733,365.671,113.072,-18.9756,178.638,0.483398,-145.349,648
1571223733,365.671,113.072,-18.9756,178.638,0.483398,-145.349,648
1571223733,365.671,113.072,-19.0872,178.638,0.483398,-145.349,648
1571223733,365.671,113.072,-19.0872,178.638,0.461426,-145.349,648
1571223733,365.671,113.072,-19.0872,178.638,0.483398,-145.349,648
1571223733,365.671,113.072,-19.0872,178.638,0.483398,-145.349,652
1571223734,365.671,113.072,-19.0872,178.638,0.483398,-145.349,652
1571223734,365.671,113.072,-19.0872,178.638,0.483398,-145.349,652
1571223734,365.671,113.072,-18.9756,178.638,0.483398,-145.349,652
1571223734,365.671,113.072,-18.9756,178.638,0.483398,-145.349,652
1571223734,365.671,113.072,-18.9756,178.638,0.483398,-145.371,652
1571223734,365.671,113.072,-18.9756,178.638,0.483398,-145.371,652
1571223734,365.671,113.072,-18.9756,178.638,0.505371,-145.371,652
1571223734,365.671,113.072,-18.9756,178.638,0.505371,-145.371,656
1571223734,365.559,113.072,-18.9756,178.638,0.505371,-145.371,656
1571223734,365.559,113.072,-18.9756,178.638,0.505371,-145.371,656
1571223734,365.559,113.072,-18.9756,178.638,0.505371,-145.371,652
1571223734,365.559,113.072,-18.9756,178.638,0.505371,-145.371,652
1571223734,365.559,113.072,-18.9756,178.638,0.505371,-145.371,652
1571223734,365.559,113.072,-18.9756,178.638,0.505371,-145.371,652
1571223734,365.559,113.072,-18.9756,178.638,0.505371,-145.371,652
1571223734,365.559,113.072,-18.9756,178.638,0.505371,-145.371,652
1571223734,365.559,113.072,-18.9756,178.638,0.505371,-145.371,652
1571223734,365.559,113.072,-18.9756,178.638,0.483398,-145.371,652
1571223734,365.559,112.961,-18.9756,178.616,0.483398,-145.371,652
1571223734,365.559,112.961,-18.9756,178.638,0.505371,-145.371,652
1571223734,365.559,113.072,-18.9756,178.638,0.505371,-145.371,652
1571223734,365.559,113.072,-18.9756,178.638,0.505371,-145.371,652
1571223734,365.559,113.072,-18.9756,178.638,0.505371,-145.371,652
1571223734,365.559,113.072,-18.9756,178.638,0.505371,-145.371,652
1571223734,365.559,113.072,-18.9756,178.638,0.505371,-145.371,652
1571223734,365.671,113.072,-18.9756,178.638,0.505371,-145.371,652
1571223734,365.671,113.072,-18.9756,178.638,0.505371,-145.371,648
1571223734,365.671,113.072,-18.9756,178.66,0.505371,-145.393,648
1571223734,365.671,113.072,-18.9756,178.66,0.505371,-145.393,648
1571223734,365.671,113.072,-18.9756,178.66,0.505371,-145.393,648
1571223734,365.671,113.072,-18.9756,178.66,0.505371,-145.393,644
1571223734,365.671,113.072,-18.9756,178.66,0.505371,-145.393,644
1571223734,365.671,113.072,-18.9756,178.66,0.483398,-145.371,644
1571223734,365.671,113.072,-18.9756,178.66,0.483398,-145.371,644
1571223734,365.671,113.072,-18.9756,178.66,0.483398,-145.371,644
1571223734,365.671,113.072,-18.9756,178.66,0.483398,-145.371,644
1571223734,365.671,113.072,-18.9756,178.66,0.483398,-145.371,644
1571223734,365.671,113.072,-18.9756,178.638,0.483398,-145.371,644
1571223734,365.671,113.072,-18.9756,178.638,0.483398,-145.371,644
1571223734,365.671,113.072,-18.9756,178.638,0.483398,-145.371,644
1571223734,365.671,113.072,-18.9756,178.638,0.483398,-145.371,644
1571223734,365.671,113.072,-18.9756,178.638,0.483398,-145.371,644
1571223734,365.671,113.072,-18.9756,178.638,0.483398,-145.371,644
1571223734,365.671,113.072,-18.9756,178.638,0.483398,-145.371,644
1571223734,365.671,113.072,-18.9756,178.638,0.483398,-145.371,644
1571223734,365.671,113.072,-18.9756,178.638,0.483398,-145.371,644
1571223734,365.671,113.072,-18.9756,178.638,0.483398,-145.371,644
1571223734,365.671,113.072,-18.9756,178.638,0.483398,-145.371,644
1571223734,365.671,113.072,-18.9756,178.638,0.483398,-145.371,644
1571223734,365.671,113.072,-18.9756,178.638,0.483398,-145.371,644
1571223734,365.671,113.072,-18.9756,178.638,0.483398,-145.371,644
1571223734,365.671,113.072,-18.9756,178.638,0.483398,-145.371,644
1571223734,365.671,113.072,-18.9756,178.638,0.483398,-145.371,644
1571223734,365.671,113.072,-18.9756,178.66,0.483398,-145.371,644
1571223734,365.671,113.072,-18.9756,178.66,0.483398,-145.371,644
1571223734,365.671,113.072,-18.9756,178.66,0.483398,-145.371,644
1571223734,365.671,113.072,-18.9756,178.66,0.483398,-145.371,644
1571223734,365.671,113.072,-18.9756,178.66,0.483398,-145.371,644
1571223734,365.671,113.072,-18.9756,178.66,0.483398,-145.371,644
1571223734,365.671,113.072,-18.9756,178.638,0.483398,-145.371,644
1571223734,365.671,113.072,-18.9756,178.638,0.483398,-145.371,644
1571223734,365.671,113.072,-18.9756,178.638,0.505371,-145.371,648
1571223734,365.671,113.072,-18.9756,178.638,0.505371,-145.371,648
1571223734,365.671,113.072,-18.9756,178.638,0.505371,-145.371,648
1571223734,365.671,113.072,-18.9756,178.638,0.505371,-145.371,648
1571223734,365.671,113.072,-18.9756,178.638,0.505371,-145.371,648
1571223734,365.671,113.072,-18.9756,178.638,0.505371,-145.371,648
1571223734,365.671,113.072,-18.9756,178.638,0.483398,-145.371,648
1571223734,365.671,113.072,-18.9756,178.638,0.483398,-145.371,648
1571223734,365.559,113.072,-18.9756,178.66,0.483398,-145.371,648
1571223734,365.559,113.072,-18.9756,178.66,0.483398,-145.371,648
1571223734,365.559,113.072,-18.9756,178.66,0.483398,-145.371,652
1571223734,365.559,113.072,-18.9756,178.66,0.483398,-145.371,652
1571223734,365.559,113.072,-18.9756,178.66,0.483398,-145.371,652
1571223734,365.559,113.072,-18.9756,178.66,0.483398,-145.371,652
1571223734,365.559,113.072,-18.9756,178.66,0.483398,-145.371,652
1571223734,365.559,113.072,-18.9756,178.66,0.505371,-145.349,652
1571223734,365.559,113.184,-18.9756,178.682,0.505371,-145.349,652
1571223734,365.559,113.184,-18.9756,178.682,0.505371,-145.349,652
1571223734,365.559,113.184,-18.9756,178.682,0.505371,-145.349,652
1571223734,365.671,113.184,-18.9756,178.682,0.505371,-145.349,652
1571223734,365.671,113.184,-18.9756,178.682,0.505371,-145.349,652
1571223734,365.671,113.184,-18.9756,178.682,0.505371,-145.349,652
1571223734,365.671,113.184,-18.9756,178.682,0.505371,-145.349,652
1571223734,365.671,113.184,-18.9756,178.682,0.505371,-145.349,652
1571223734,365.671,113.184,-18.9756,178.682,0.505371,-145.349,648
1571223734,365.671,113.184,-18.9756,178.682,0.505371,-145.349,648
1571223734,365.671,113.184,-18.9756,178.682,0.505371,-145.349,648
1571223734,365.671,113.184,-18.9756,178.682,0.505371,-145.349,648
1571223734,365.671,113.184,-18.9756,178.682,0.505371,-145.349,648
1571223734,365.671,113.184,-18.9756,178.682,0.505371,-145.349,648
1571223734,365.671,113.184,-18.9756,178.682,0.505371,-145.349,648
1571223734,365.671,113.184,-18.9756,178.682,0.505371,-145.349,648
1571223734,365.671,113.184,-18.9756,178.682,0.505371,-145.349,648
1571223734,365.671,113.184,-18.9756,178.66,0.505371,-145.349,648
1571223734,365.671,113.184,-18.9756,178.66,0.505371,-145.349,648
1571223734,365.671,113.072,-18.9756,178.66,0.505371,-145.349,648
1571223734,365.671,113.072,-18.9756,178.66,0.505371,-145.349,652
1571223734,365.671,113.072,-18.9756,178.66,0.505371,-145.349,652
1571223734,365.671,113.072,-18.9756,178.66,0.505371,-145.349,652
1571223735,365.671,113.072,-18.9756,178.66,0.505371,-145.349,652
1571223735,365.559,113.072,-18.9756,178.66,0.505371,-145.349,652
1571223735,365.559,113.072,-18.9756,178.66,0.505371,-145.349,656
1571223735,365.559,113.072,-18.9756,178.66,0.505371,-145.349,656
1571223735,365.559,113.072,-18.864,178.66,0.505371,-145.371,656
1571223735,365.559,113.072,-18.864,178.66,0.505371,-145.371,656
1571223735,365.671,113.072,-18.864,178.66,0.505371,-145.371,660
1571223735,365.671,113.072,-18.864,178.66,0.505371,-145.371,660
1571223735,365.671,113.072,-18.864,178.638,0.527344,-145.371,660
1571223735,365.671,113.072,-18.864,178.638,0.527344,-145.371,660
1571223735,365.671,113.072,-18.864,178.638,0.527344,-145.371,660
1571223735,365.671,113.072,-18.864,178.638,0.527344,-145.371,660
1571223735,365.671,113.072,-18.864,178.638,0.527344,-145.371,660
1571223735,365.671,113.072,-18.864,178.638,0.527344,-145.371,660
1571223735,365.559,113.072,-18.864,178.638,0.527344,-145.393,660
1571223735,365.559,113.072,-18.864,178.66,0.527344,-145.393,660
1571223735,365.559,113.072,-18.864,178.66,0.527344,-145.393,660
1571223735,365.559,113.072,-18.864,178.66,0.527344,-145.393,656
1571223735,365.559,113.072,-18.864,178.66,0.527344,-145.393,656
1571223735,365.559,113.184,-18.864,178.66,0.527344,-145.393,656
1571223735,365.559,113.184,-18.864,178.66,0.527344,-145.393,656
1571223735,365.671,113.184,-18.864,178.66,0.527344,-145.393,652
1571223735,365.671,113.184,-18.864,178.66,0.505371,-145.393,652
1571223735,365.671,113.184,-18.864,178.66,0.505371,-145.393,652
1571223735,365.671,113.184,-18.864,178.66,0.505371,-145.393,652
1571223735,365.671,113.184,-18.864,178.66,0.505371,-145.393,652
1571223735,365.671,113.072,-18.864,178.66,0.505371,-145.393,648
1571223735,365.671,113.072,-18.864,178.66,0.505371,-145.393,648
1571223735,365.671,113.072,-18.864,178.66,0.505371,-145.371,648
1571223735,365.671,113.072,-18.864,178.66,0.505371,-145.371,648
1571223735,365.671,113.072,-18.864,178.66,0.505371,-145.371,648
1571223735,365.671,113.072,-18.864,178.66,0.527344,-145.371,648
1571223735,365.671,113.072,-18.864,178.638,0.527344,-145.371,648
1571223735,365.671,113.072,-18.864,178.638,0.527344,-145.371,648
1571223735,365.671,113.072,-18.864,178.638,0.527344,-145.371,648
1571223735,365.671,113.072,-18.864,178.638,0.527344,-145.371,648
1571223735,365.671,113.072,-18.864,178.638,0.527344,-145.371,648
1571223735,365.671,113.072,-18.864,178.638,0.527344,-145.371,648
1571223735,365.671,113.072,-18.864,178.638,0.527344,-145.371,648
1571223735,365.671,113.072,-18.864,178.638,0.527344,-145.371,644
1571223735,365.671,113.072,-18.864,178.638,0.527344,-145.371,644
1571223735,365.671,113.072,-18.864,178.638,0.527344,-145.371,644
1571223735,365.671,113.072,-18.864,178.638,0.527344,-145.371,644
1571223735,365.671,113.072,-18.864,178.638,0.505371,-145.371,644
1571223735,365.671,113.072,-18.864,178.638,0.505371,-145.371,644
1571223735,365.671,112.961,-18.864,178.638,0.505371,-145.371,644
1571223735,365.671,112.961,-18.9756,178.638,0.505371,-145.371,644
1571223735,365.671,112.961,-18.9756,178.638,0.505371,-145.371,644
1571223735,365.671,112.961,-18.9756,178.638,0.505371,-145.371,644
1571223735,365.671,112.961,-18.9756,178.638,0.483398,-145.371,640
1571223735,365.671,112.961,-18.9756,178.638,0.483398,-145.371,640
1571223735,365.671,112.961,-18.9756,178.638,0.483398,-145.371,640
1571223735,365.671,112.961,-18.9756,178.638,0.483398,-145.371,640
1571223735,365.671,112.961,-18.9756,178.638,0.483398,-145.371,640
1571223735,365.671,112.961,-18.9756,178.638,0.505371,-145.371,640
1571223735,365.671,112.961,-18.9756,178.638,0.505371,-145.371,636
1571223735,365.671,112.961,-18.9756,178.638,0.505371,-145.371,636
1571223735,365.671,112.961,-18.9756,178.638,0.505371,-145.371,636
1571223735,365.671,112.961,-18.9756,178.616,0.505371,-145.371,636
1571223735,365.671,112.961,-18.9756,178.638,0.505371,-145.371,636
1571223735,365.671,112.961,-18.9756,178.638,0.505371,-145.371,636
1571223735,365.671,112.961,-18.9756,178.638,0.505371,-145.371,636
1571223735,365.671,112.961,-18.9756,178.638,0.505371,-145.371,636
1571223735,365.671,112.961,-18.9756,178.638,0.505371,-145.371,636
1571223735,365.671,112.961,-18.9756,178.638,0.505371,-145.371,640
1571223735,365.671,112.961,-18.9756,178.638,0.483398,-145.349,640
1571223735,365.559,112.961,-18.9756,178.638,0.483398,-145.371,640
1571223735,365.559,113.072,-18.9756,178.638,0.483398,-145.371,640
1571223735,365.559,113.072,-18.9756,178.638,0.483398,-145.371,644
1571223735,365.559,113.072,-18.9756,178.66,0.483398,-145.371,644
1571223735,365.559,113.072,-18.9756,178.66,0.483398,-145.371,644
1571223735,365.559,113.072,-18.9756,178.66,0.483398,-145.371,648
1571223735,365.559,113.072,-18.9756,178.66,0.483398,-145.371,648
1571223735,365.559,113.072,-18.9756,178.66,0.483398,-145.371,648
1571223735,365.559,113.072,-18.9756,178.66,0.483398,-145.371,648
1571223735,365.559,113.072,-18.9756,178.682,0.483398,-145.371,652
1571223735,365.559,113.072,-18.9756,178.682,0.483398,-145.371,652
1571223735,365.559,113.072,-18.9756,178.682,0.483398,-145.371,652
1571223735,365.559,113.072,-18.9756,178.682,0.483398,-145.371,652
1571223735,365.559,113.184,-18.9756,178.682,0.483398,-145.371,656
1571223735,365.559,113.184,-18.9756,178.682,0.483398,-145.371,656
1571223735,365.559,113.184,-18.9756,178.682,0.483398,-145.371,656
1571223735,365.559,113.072,-18.9756,178.682,0.483398,-145.371,656
1571223735,365.559,113.072,-18.9756,178.66,0.483398,-145.371,656
1571223735,365.559,113.072,-18.9756,178.66,0.483398,-145.371,656
1571223735,365.559,113.072,-18.9756,178.66,0.483398,-145.371,656
1571223735,365.559,113.072,-18.9756,178.66,0.483398,-145.371,656
1571223735,365.559,113.072,-18.9756,178.66,0.483398,-145.371,656
1571223735,365.559,113.072,-18.864,178.66,0.505371,-145.371,656
1571223735,365.559,113.072,-18.864,178.638,0.505371,-145.371,656
1571223735,365.559,113.072,-18.864,178.638,0.505371,-145.371,656
1571223735,365.559,113.072,-18.864,178.638,0.505371,-145.371,656
1571223735,365.559,113.072,-18.864,178.638,0.505371,-145.371,656
1571223735,365.559,113.072,-18.864,178.638,0.505371,-145.371,656
1571223735,365.671,113.072,-18.864,178.638,0.505371,-145.371,656
1571223735,365.671,113.072,-18.864,178.638,0.505371,-145.371,652
1571223735,365.671,113.072,-18.864,178.638,0.505371,-145.371,652
1571223735,365.671,113.072,-18.864,178.638,0.505371,-145.371,652
1571223735,365.671,113.072,-18.864,178.638,0.505371,-145.371,652
1571223735,365.671,113.072,-18.864,178.638,0.483398,-145.371,652
1571223736,365.671,113.072,-18.864,178.638,0.483398,-145.371,652
1571223736,365.671,113.072,-18.864,178.66,0.483398,-145.371,648
1571223736,365.671,113.072,-18.9756,178.66,0.483398,-145.371,648
1571223736,365.671,113.072,-18.9756,178.66,0.483398,-145.371,648
1571223736,365.671,113.072,-18.9756,178.66,0.483398,-145.371,648
1571223736,365.671,113.072,-18.9756,178.66,0.483398,-145.371,648
1571223736,365.671,113.072,-18.9756,178.66,0.483398,-145.393,648
1571223736,365.671,113.072,-18.9756,178.66,0.483398,-145.393,648
1571223736,365.671,113.072,-18.9756,178.66,0.483398,-145.393,652
1571223736,365.671,113.072,-18.9756,178.66,0.483398,-145.393,652
1571223736,365.671,113.184,-18.9756,178.66,0.483398,-145.393,652
1571223736,365.559,113.184,-18.9756,178.66,0.483398,-145.393,652
1571223736,365.559,113.184,-18.9756,178.66,0.483398,-145.393,652
1571223736,365.559,113.184,-18.9756,178.66,0.483398,-145.393,652
1571223736,365.559,113.184,-18.9756,178.66,0.483398,-145.393,652
1571223736,365.559,113.184,-18.9756,178.66,0.483398,-145.393,652
1571223736,365.559,113.184,-18.9756,178.66,0.483398,-145.393,652
1571223736,365.559,113.184,-18.9756,178.66,0.483398,-145.393,652
1571223736,365.559,113.184,-18.9756,178.66,0.483398,-145.393,652
1571223736,365.559,113.184,-18.9756,178.66,0.483398,-145.393,652
1571223736,365.559,113.184,-18.9756,178.66,0.505371,-145.393,652
1571223736,365.559,113.072,-18.9756,178.66,0.505371,-145.371,652
1571223736,365.559,113.072,-18.9756,178.66,0.505371,-145.371,652
1571223736,365.559,113.072,-18.9756,178.66,0.505371,-145.371,652
1571223736,365.559,113.072,-18.9756,178.66,0.505371,-145.371,652
1571223736,365.559,113.072,-18.9756,178.66,0.505371,-145.371,652
1571223736,365.671,113.072,-18.9756,178.66,0.505371,-145.371,652
1571223736,365.671,113.072,-18.9756,178.66,0.505371,-145.371,656
1571223736,365.671,113.072,-18.9756,178.66,0.505371,-145.371,656
1571223736,365.671,113.072,-18.9756,178.66,0.483398,-145.371,656
1571223736,365.671,113.072,-18.9756,178.66,0.483398,-145.371,656
1571223736,365.671,113.072,-18.9756,178.66,0.483398,-145.371,656
1571223736,365.671,113.072,-18.9756,178.66,0.483398,-145.371,656
1571223736,365.671,113.072,-18.9756,178.66,0.483398,-145.371,656
1571223736,365.671,113.072,-18.9756,178.66,0.483398,-145.371,656
1571223736,365.671,113.072,-18.9756,178.66,0.483398,-145.371,656
1571223736,365.671,113.072,-18.9756,178.66,0.483398,-145.371,656
1571223736,365.671,113.072,-18.9756,178.66,0.483398,-145.371,656
1571223736,365.671,113.072,-18.9756,178.66,0.483398,-145.371,656
1571223736,365.671,113.072,-18.9756,178.66,0.483398,-145.371,656
1571223736,365.671,113.072,-18.9756,178.66,0.461426,-145.371,656
1571223736,365.671,113.072,-19.0872,178.66,0.461426,-145.371,652
1571223736,365.671,113.072,-19.0872,178.66,0.461426,-145.371,652
1571223736,365.671,113.072,-19.0872,178.66,0.461426,-145.371,652
1571223736,365.671,113.184,-19.0872,178.66,0.461426,-145.371,652
1571223736,365.671,113.184,-19.0872,178.66,0.461426,-145.371,652
1571223736,365.671,113.184,-19.0872,178.66,0.461426,-145.371,652
1571223736,365.671,113.184,-19.0872,178.66,0.461426,-145.371,652
1571223736,365.671,113.184,-19.0872,178.66,0.461426,-145.371,652
1571223736,365.671,113.184,-19.0872,178.66,0.461426,-145.371,648
1571223736,365.671,113.184,-19.0872,178.66,0.461426,-145.371,648
1571223736,365.671,113.184,-19.0872,178.66,0.461426,-145.371,648
1571223736,365.671,113.184,-19.0872,178.66,0.439453,-145.371,648
1571223736,365.671,113.184,-19.0872,178.66,0.439453,-145.371,648
1571223736,365.671,113.184,-19.0872,178.66,0.439453,-145.371,648
1571223736,365.671,113.184,-19.0872,178.66,0.439453,-145.371,644
1571223736,365.671,113.184,-19.0872,178.66,0.439453,-145.371,644
1571223736,365.671,113.184,-19.0872,178.66,0.439453,-145.371,644
1571223736,365.671,113.184,-19.0872,178.66,0.439453,-145.371,644
1571223736,365.671,113.072,-19.0872,178.66,0.439453,-145.371,644
1571223736,365.671,113.072,-19.0872,178.66,0.439453,-145.371,644
1571223736,365.671,113.072,-19.0872,178.66,0.439453,-145.371,644
1571223736,365.671,113.072,-19.0872,178.66,0.439453,-145.349,648
1571223736,365.671,113.072,-19.0872,178.66,0.439453,-145.349,648
1571223736,365.671,113.072,-19.0872,178.66,0.439453,-145.349,648
1571223736,365.671,113.072,-19.0872,178.66,0.439453,-145.371,648
1571223736,365.671,113.072,-19.0872,178.66,0.439453,-145.371,652
1571223736,365.559,113.184,-19.0872,178.682,0.439453,-145.371,652
1571223736,365.559,113.184,-19.0872,178.682,0.439453,-145.349,652
1571223736,365.559,113.184,-19.0872,178.682,0.439453,-145.349,652
1571223736,365.559,113.184,-19.0872,178.682,0.461426,-145.349,656
1571223736,365.559,113.184,-19.0872,178.682,0.461426,-145.349,656
1571223736,365.559,113.184,-19.0872,178.682,0.461426,-145.349,656
1571223736,365.559,113.184,-19.0872,178.682,0.461426,-145.349,656
1571223736,365.559,113.184,-19.0872,178.682,0.461426,-145.349,656
1571223736,365.559,113.184,-19.0872,178.682,0.461426,-145.349,660
1571223736,365.559,113.184,-19.0872,178.682,0.461426,-145.349,660
1571223736,365.559,113.184,-19.0872,178.682,0.461426,-145.349,660
1571223736,365.559,113.184,-19.0872,178.682,0.461426,-145.349,660
1571223736,365.559,113.184,-19.0872,178.682,0.461426,-145.349,660
1571223736,365.559,113.184,-19.0872,178.682,0.461426,-145.349,660
1571223736,365.559,113.184,-19.0872,178.682,0.461426,-145.349,660
1571223736,365.559,113.184,-19.0872,178.682,0.461426,-145.349,660
1571223736,365.559,113.184,-19.0872,178.682,0.461426,-145.349,660
1571223736,365.559,113.184,-18.9756,178.682,0.461426,-145.349,660
1571223736,365.559,113.184,-18.9756,178.682,0.461426,-145.349,660
1571223736,365.559,113.184,-18.9756,178.682,0.461426,-145.349,660
1571223736,365.559,113.184,-18.9756,178.682,0.461426,-145.349,660
1571223736,365.559,113.184,-18.9756,178.682,0.483398,-145.349,660
1571223736,365.559,113.072,-18.9756,178.682,0.483398,-145.349,660
1571223736,365.559,113.072,-18.9756,178.682,0.483398,-145.349,660
1571223736,365.559,113.072,-18.9756,178.682,0.483398,-145.349,660
1571223736,365.671,113.072,-18.9756,178.682,0.483398,-145.349,660
1571223736,365.671,113.072,-18.9756,178.66,0.483398,-145.349,660
1571223736,365.671,113.072,-18.9756,178.66,0.483398,-145.349,656
1571223736,365.671,113.072,-18.9756,178.66,0.483398,-145.349,656
1571223736,365.671,113.072,-18.9756,178.66,0.483398,-145.349,656
1571223736,365.671,113.072,-18.9756,178.66,0.483398,-145.349,656
1571223736,365.671,113.072,-18.9756,178.638,0.483398,-145.349,656
1571223736,365.671,113.072,-18.9756,178.638,0.461426,-145.349,656
1571223737,365.671,112.961,-18.9756,178.638,0.483398,-145.349,656
1571223737,365.671,112.961,-18.9756,178.638,0.483398,-145.349,656
1571223737,365.671,112.961,-18.9756,178.616,0.483398,-145.349,656
1571223737,365.671,112.961,-18.9756,178.616,0.483398,-145.349,656
1571223737,365.671,112.961,-18.9756,178.616,0.483398,-145.349,652
1571223737,365.671,112.961,-18.9756,178.616,0.483398,-145.349,652
1571223737,365.671,112.961,-18.9756,178.616,0.483398,-145.349,652
1571223737,365.671,112.961,-18.9756,178.616,0.461426,-145.349,652
1571223737,365.671,112.961,-18.9756,178.616,0.461426,-145.349,652
1571223737,365.671,112.961,-18.9756,178.616,0.461426,-145.349,652
1571223737,365.671,112.961,-18.9756,178.616,0.461426,-145.349,652
1571223737,365.671,112.961,-18.9756,178.638,0.461426,-145.349,652
1571223737,365.671,112.961,-18.9756,178.638,0.461426,-145.349,652
1571223737,365.671,113.072,-18.9756,178.638,0.461426,-145.349,652
1571223737,365.671,113.072,-18.9756,178.638,0.461426,-145.349,652
1571223737,365.671,113.072,-18.9756,178.638,0.483398,-145.349,652
1571223737,365.671,113.072,-18.9756,178.638,0.483398,-145.349,652
1571223737,365.671,113.072,-18.9756,178.638,0.483398,-145.349,652
1571223737,365.671,113.072,-18.9756,178.638,0.483398,-145.349,652
1571223737,365.671,113.072,-18.9756,178.638,0.483398,-145.371,652
1571223737,365.671,113.072,-18.9756,178.638,0.483398,-145.371,652
1571223737,365.671,113.072,-18.9756,178.638,0.483398,-145.371,652
1571223737,365.671,113.072,-18.9756,178.638,0.483398,-145.371,652
1571223737,365.671,113.072,-18.9756,178.638,0.483398,-145.371,652
1571223737,365.671,113.072,-18.9756,178.638,0.483398,-145.371,652
1571223737,365.671,113.072,-18.9756,178.638,0.483398,-145.371,652
1571223737,365.671,113.072,-18.9756,178.638,0.483398,-145.371,652
1571223737,365.671,113.072,-18.9756,178.638,0.483398,-145.371,656
1571223737,365.671,113.072,-18.9756,178.638,0.483398,-145.371,656
1571223737,365.671,113.072,-18.9756,178.638,0.483398,-145.371,656
1571223737,365.671,113.072,-18.9756,178.638,0.483398,-145.371,656
1571223737,365.671,113.072,-18.9756,178.638,0.483398,-145.371,656
1571223737,365.671,113.072,-18.9756,178.638,0.483398,-145.371,656
1571223737,365.671,113.072,-18.9756,178.638,0.483398,-145.371,660
1571223737,365.559,113.072,-18.9756,178.638,0.483398,-145.371,660
1571223737,365.559,113.072,-18.9756,178.638,0.483398,-145.371,660
1571223737,365.559,113.072,-18.9756,178.638,0.483398,-145.349,664
1571223737,365.559,113.072,-18.9756,178.638,0.483398,-145.349,664
1571223737,365.671,113.072,-18.9756,178.66,0.483398,-145.349,664
1571223737,365.671,113.072,-18.9756,178.66,0.483398,-145.349,664
1571223737,365.671,113.072,-18.9756,178.66,0.483398,-145.349,668
1571223737,365.671,113.072,-18.9756,178.66,0.505371,-145.349,668
1571223737,365.671,113.072,-18.9756,178.66,0.505371,-145.349,668
1571223737,365.671,113.072,-18.9756,178.66,0.505371,-145.349,668
1571223737,365.671,113.072,-18.9756,178.66,0.505371,-145.349,668
1571223737,365.671,113.072,-18.9756,178.66,0.505371,-145.349,668
1571223737,365.671,113.072,-18.9756,178.66,0.505371,-145.349,664
1571223737,365.671,113.072,-18.9756,178.66,0.505371,-145.349,664
1571223737,365.671,113.072,-18.9756,178.66,0.505371,-145.349,664
1571223737,365.671,113.072,-18.9756,178.66,0.505371,-145.349,664
1571223737,365.671,113.072,-18.9756,178.66,0.505371,-145.349,664
1571223737,365.671,113.072,-18.9756,178.66,0.505371,-145.349,660
1571223740,403.51,72.3305,-19.0872,178.835,0.681152,-145.525,768
1571223740,403.51,72.3305,-19.0872,178.835,0.681152,-145.525,768
1571223740,403.51,72.3305,-19.0872,178.835,0.681152,-145.525,768
1571223740,403.51,72.3305,-19.0872,178.835,0.681152,-145.525,768
1571223740,403.51,72.3305,-19.0872,178.835,0.681152,-145.525,768
1571223740,403.51,72.3305,-19.0872,178.835,0.681152,-145.525,768
1571223740,403.51,72.3305,-19.0872,178.835,0.681152,-145.525,768
1571223740,403.51,72.3305,-19.0872,178.835,0.681152,-145.525,768
1571223740,403.51,72.3305,-19.0872,178.835,0.681152,-145.525,768
1571223740,403.51,72.3305,-19.0872,178.835,0.65918,-145.525,768
1571223740,403.51,72.3305,-19.0872,178.835,0.65918,-145.525,768
1571223740,403.51,72.3305,-19.0872,178.835,0.65918,-145.525,768
1571223740,403.51,72.3305,-19.0872,178.835,0.65918,-145.525,768
1571223740,403.51,72.3305,-19.0872,178.835,0.65918,-145.525,768
1571223740,403.51,72.3305,-19.0872,178.835,0.65918,-145.525,764
1571223740,403.51,72.3305,-19.0872,178.835,0.65918,-145.525,764
1571223740,403.51,72.3305,-19.0872,178.857,0.65918,-145.525,764
1571223740,403.399,72.4421,-19.0872,178.857,0.65918,-145.525,764
1571223740,403.399,72.4421,-19.0872,178.857,0.65918,-145.525,764
1571223740,403.399,72.4421,-19.0872,178.857,0.65918,-145.525,760
1571223740,403.399,72.4421,-19.0872,178.879,0.65918,-145.525,760
1571223740,403.399,72.4421,-19.0872,178.879,0.65918,-145.525,760
1571223740,403.399,72.4421,-19.0872,178.879,0.65918,-145.525,760
1571223740,403.399,72.4421,-19.0872,178.879,0.65918,-145.525,760
1571223740,403.399,72.4421,-19.0872,178.879,0.65918,-145.525,760
1571223740,403.399,72.4421,-19.0872,178.879,0.65918,-145.525,760
1571223740,403.399,72.4421,-19.0872,178.879,0.65918,-145.525,760
1571223740,403.399,72.4421,-19.0872,178.879,0.65918,-145.525,760
1571223740,403.399,72.4421,-19.0872,178.879,0.65918,-145.525,760
1571223740,403.399,72.4421,-19.0872,178.879,0.65918,-145.525,760
1571223740,403.399,72.4421,-19.0872,178.879,0.65918,-145.525,760
1571223740,403.51,72.4421,-19.0872,178.879,0.681152,-145.525,756
1571223740,403.51,72.4421,-19.0872,178.879,0.681152,-145.525,756
1571223740,403.51,72.4421,-19.0872,178.857,0.681152,-145.525,756
1571223740,403.51,72.4421,-19.0872,178.857,0.681152,-145.525,756
1571223740,403.51,72.3305,-19.0872,178.857,0.681152,-145.525,756
1571223740,403.51,72.3305,-19.0872,178.857,0.681152,-145.525,756
1571223740,403.51,72.3305,-19.0872,178.857,0.681152,-145.525,752
1571223740,403.51,72.4421,-19.0872,178.857,0.681152,-145.525,752
1571223740,403.51,72.4421,-19.0872,178.857,0.681152,-145.525,752
1571223740,403.51,72.4421,-19.0872,178.857,0.681152,-145.525,752
1571223740,403.51,72.4421,-19.0872,178.857,0.681152,-145.525,748
1571223740,403.51,72.4421,-19.0872,178.857,0.681152,-145.525,748
1571223740,403.51,72.4421,-19.0872,178.857,0.681152,-145.525,748
1571223740,403.622,72.4421,-19.0872,178.857,0.681152,-145.525,748
1571223740,403.622,72.4421,-19.0872,178.857,0.681152,-145.525,748
1571223740,403.622,72.4421,-19.0872,178.879,0.681152,-145.525,744
1571223740,403.622,72.4421,-19.0872,178.879,0.681152,-145.525,744
1571223740,403.622,72.4421,-19.0872,178.879,0.703125,-145.525,744
1571223740,403.622,72.5537,-19.0872,178.879,0.703125,-145.525,744
1571223740,403.622,72.5537,-19.0872,178.879,0.703125,-145.547,740
1571223740,403.622,72.5537,-19.0872,178.879,0.703125,-145.547,740
1571223740,403.622,72.5537,-19.0872,178.901,0.703125,-145.547,740
1571223740,403.622,72.5537,-19.0872,178.901,0.703125,-145.547,736
1571223740,403.622,72.5537,-19.0872,178.901,0.703125,-145.547,736
1571223740,403.622,72.5537,-19.0872,178.901,0.681152,-145.547,736
1571223740,403.622,72.5537,-19.0872,178.901,0.681152,-145.547,736
1571223740,403.622,72.5537,-19.0872,178.901,0.681152,-145.547,732
1571223740,403.622,72.5537,-19.0872,178.901,0.681152,-145.547,732
1571223740,403.622,72.5537,-19.0872,178.901,0.681152,-145.547,732
1571223740,403.622,72.5537,-19.0872,178.901,0.681152,-145.547,732
1571223741,403.622,72.5537,-19.0872,178.901,0.681152,-145.547,732
1571223741,403.622,72.6653,-19.0872,178.901,0.681152,-145.547,732
1571223741,403.622,72.6653,-19.0872,178.901,0.681152,-145.547,728
1571223741,403.622,72.6653,-19.0872,178.901,0.681152,-145.547,728
1571223741,403.622,72.6653,-19.0872,178.901,0.681152,-145.547,728
1571223741,403.622,72.6653,-19.0872,178.901,0.681152,-145.547,728
1571223741,403.733,72.6653,-19.0872,178.901,0.681152,-145.525,728
1571223741,403.733,72.6653,-19.0872,178.901,0.681152,-145.525,728
1571223741,403.733,72.6653,-19.0872,178.901,0.681152,-145.525,724
1571223741,403.733,72.5537,-19.0872,178.901,0.681152,-145.525,724
1571223741,403.733,72.5537,-19.0872,178.879,0.681152,-145.525,724
1571223741,403.733,72.5537,-19.0872,178.879,0.681152,-145.525,724
1571223741,403.733,72.5537,-19.0872,178.879,0.681152,-145.525,720
1571223741,403.622,72.5537,-19.0872,178.879,0.65918,-145.525,720
1571223741,403.622,72.5537,-19.0872,178.879,0.65918,-145.525,720
1571223741,403.622,72.5537,-19.0872,178.879,0.65918,-145.525,720
1571223741,403.622,72.5537,-19.1988,178.879,0.65918,-145.525,720
1571223741,403.622,72.5537,-19.1988,178.879,0.65918,-145.525,720
1571223741,403.622,72.5537,-19.1988,178.879,0.637207,-145.525,720
1571223741,403.51,72.5537,-19.1988,178.879,0.637207,-145.525,720
1571223741,403.51,72.4421,-19.1988,178.879,0.637207,-145.525,720
1571223741,403.51,72.4421,-19.1988,178.857,0.637207,-145.525,720
1571223741,403.51,72.4421,-19.1988,178.857,0.637207,-145.525,720
1571223741,403.51,72.4421,-19.1988,178.857,0.637207,-145.525,720
1571223741,403.51,72.4421,-19.1988,178.857,0.637207,-145.525,724
1571223741,403.51,72.4421,-19.1988,178.857,0.637207,-145.525,724
1571223741,403.51,72.4421,-19.1988,178.857,0.637207,-145.525,724
1571223741,403.51,72.4421,-19.1988,178.857,0.637207,-145.503,724
1571223741,403.51,72.4421,-19.1988,178.857,0.637207,-145.503,728
1571223741,403.51,72.4421,-19.1988,178.857,0.637207,-145.503,728
1571223741,403.51,72.4421,-19.1988,178.857,0.637207,-145.503,728
1571223741,403.51,72.4421,-19.1988,178.857,0.615234,-145.503,728
1571223741,403.51,72.4421,-19.1988,178.857,0.615234,-145.503,728
1571223741,403.51,72.4421,-19.3104,178.857,0.615234,-145.503,728
1571223741,403.51,72.4421,-19.3104,178.857,0.615234,-145.503,728
1571223741,403.51,72.4421,-19.3104,178.857,0.615234,-145.503,732
1571223741,403.51,72.4421,-19.3104,178.879,0.615234,-145.503,732
1571223741,403.51,72.4421,-19.3104,178.879,0.615234,-145.503,728
1571223741,403.51,72.5537,-19.3104,178.879,0.615234,-145.503,728
1571223741,403.51,72.5537,-19.3104,178.879,0.637207,-145.503,728
1571223741,403.51,72.5537,-19.1988,178.879,0.637207,-145.503,728
1571223741,403.51,72.5537,-19.1988,178.879,0.637207,-145.503,728
1571223741,403.51,72.5537,-19.1988,178.879,0.637207,-145.525,728
1571223741,403.51,72.5537,-19.1988,178.879,0.637207,-145.525,728
1571223741,403.51,72.5537,-19.1988,178.879,0.65918,-145.525,728
1571223741,403.51,72.5537,-19.1988,178.879,0.65918,-145.525,728
1571223741,403.51,72.4421,-19.1988,178.879,0.65918,-145.525,728
1571223741,403.51,72.4421,-19.1988,178.879,0.65918,-145.525,728
1571223741,403.51,72.4421,-19.1988,178.857,0.65918,-145.525,728
1571223741,403.51,72.4421,-19.1988,178.857,0.65918,-145.525,728
1571223741,403.51,72.4421,-19.1988,178.857,0.65918,-145.525,732
1571223741,403.51,72.4421,-19.1988,178.857,0.65918,-145.525,732
1571223741,403.51,72.4421,-19.1988,178.857,0.65918,-145.525,732
1571223741,403.51,72.4421,-19.1988,178.857,0.65918,-145.525,732
1571223741,403.51,72.4421,-19.1988,178.857,0.65918,-145.525,736
1571223741,403.51,72.4421,-19.1988,178.857,0.65918,-145.525,736
1571223741,403.51,72.4421,-19.1988,178.857,0.65918,-145.525,736
1571223741,403.51,72.4421,-19.1988,178.857,0.65918,-145.525,740
1571223741,403.51,72.4421,-19.1988,178.857,0.65918,-145.525,740
1571223741,403.51,72.4421,-19.1988,178.857,0.65918,-145.525,744
1571223741,403.51,72.4421,-19.1988,178.857,0.65918,-145.525,744
1571223741,403.51,72.3305,-19.1988,178.857,0.65918,-145.525,748
1571223741,403.51,72.3305,-19.1988,178.857,0.65918,-145.525,748
1571223741,403.399,72.3305,-19.1988,178.835,0.65918,-145.525,752
1571223741,403.399,72.3305,-19.1988,178.835,0.65918,-145.525,752
1571223741,403.399,72.3305,-19.1988,178.835,0.65918,-145.525,756
1571223741,403.399,72.3305,-19.1988,178.835,0.65918,-145.525,760
1571223741,403.399,72.3305,-19.1988,178.835,0.65918,-145.525,760
1571223741,403.399,72.3305,-19.1988,178.835,0.65918,-145.525,764
1571223741,403.399,72.3305,-19.1988,178.835,0.65918,-145.525,764
1571223741,403.399,72.3305,-19.1988,178.835,0.65918,-145.525,768
1571223741,403.51,72.3305,-19.1988,178.835,0.65918,-145.525,768
1571223741,403.51,72.3305,-19.1988,178.835,0.65918,-145.525,768
1571223741,403.51,72.3305,-19.1988,178.835,0.65918,-145.525,768
1571223741,403.51,72.3305,-19.0872,178.835,0.65918,-145.525,768
1571223741,403.51,72.3305,-19.0872,178.835,0.65918,-145.525,772
1571223741,403.51,72.3305,-19.0872,178.835,0.65918,-145.525,772
1571223741,403.51,72.3305,-19.0872,178.835,0.65918,-145.525,772
1571223741,403.51,72.3305,-19.0872,178.835,0.65918,-145.525,772
1571223741,403.51,72.3305,-19.0872,178.835,0.65918,-145.525,772
1571223741,403.51,72.4421,-19.0872,178.857,0.65918,-145.525,772
1571223741,403.51,72.4421,-19.0872,178.857,0.65918,-145.525,772
1571223741,403.51,72.4421,-19.0872,178.857,0.65918,-145.525,772
1571223741,403.51,72.4421,-19.0872,178.857,0.65918,-145.525,772
1571223741,403.51,72.4421,-19.0872,178.857,0.681152,-145.525,772
1571223741,403.51,72.4421,-19.0872,178.857,0.681152,-145.525,772
1571223741,403.51,72.4421,-19.0872,178.857,0.681152,-145.525,772
1571223741,403.51,72.5537,-19.0872,178.879,0.681152,-145.525,772
1571223741,403.51,72.5537,-19.0872,178.879,0.681152,-145.525,772
1571223741,403.51,72.5537,-19.0872,178.879,0.681152,-145.525,772
1571223741,403.51,72.5537,-19.0872,178.879,0.681152,-145.503,772
1571223741,403.51,72.5537,-19.0872,178.879,0.681152,-145.503,772
1571223741,403.51,72.5537,-19.0872,178.879,0.681152,-145.503,772
1571223741,403.51,72.5537,-19.0872,178.879,0.681152,-145.503,768
1571223741,403.51,72.5537,-19.0872,178.901,0.681152,-145.503,768
1571223741,403.51,72.5537,-19.0872,178.901,0.681152,-145.503,768
1571223741,403.51,72.5537,-19.0872,178.901,0.681152,-145.503,768
1571223741,403.51,72.5537,-19.0872,178.901,0.681152,-145.503,768
1571223741,403.51,72.5537,-19.0872,178.901,0.681152,-145.503,768
1571223741,403.51,72.5537,-19.0872,178.901,0.681152,-145.503,768
1571223742,403.51,72.6653,-19.0872,178.901,0.681152,-145.503,768
1571223742,403.51,72.6653,-19.0872,178.901,0.681152,-145.503,768
1571223742,403.51,72.6653,-19.0872,178.901,0.681152,-145.503,768
1571223742,403.51,72.6653,-19.0872,178.901,0.681152,-145.503,768
1571223742,403.51,72.6653,-19.0872,178.901,0.681152,-145.503,764
1571223742,403.51,72.6653,-19.0872,178.901,0.681152,-145.503,764
1571223742,403.51,72.6653,-19.0872,178.901,0.681152,-145.503,760
1571223742,403.51,72.5537,-19.0872,178.901,0.681152,-145.503,760
1571223742,403.51,72.5537,-19.0872,178.901,0.681152,-145.503,760
1571223742,403.51,72.5537,-19.0872,178.901,0.681152,-145.503,756
1571223742,403.51,72.5537,-19.0872,178.901,0.65918,-145.503,756
1571223742,403.51,72.5537,-19.0872,178.879,0.65918,-145.503,756
1571223742,403.51,72.5537,-19.0872,178.879,0.65918,-145.503,752
1571223742,403.51,72.5537,-19.0872,178.879,0.65918,-145.503,752
1571223742,403.51,72.5537,-19.0872,178.879,0.65918,-145.503,752
1571223742,403.51,72.5537,-19.0872,178.879,0.65918,-145.503,748
1571223742,403.51,72.5537,-19.0872,178.879,0.65918,-145.503,748
1571223742,403.51,72.5537,-19.0872,178.879,0.65918,-145.525,748
1571223742,403.622,72.5537,-19.0872,178.879,0.65918,-145.525,748
1571223742,403.622,72.5537,-19.0872,178.879,0.65918,-145.525,748
1571223742,403.622,72.5537,-19.1988,178.879,0.65918,-145.525,748
1571223742,403.622,72.5537,-19.1988,178.879,0.65918,-145.525,744
1571223742,403.622,72.5537,-19.1988,178.879,0.65918,-145.525,744
1571223742,403.622,72.5537,-19.1988,178.879,0.65918,-145.525,744
1571223742,403.622,72.5537,-19.1988,178.879,0.65918,-145.525,744
1571223742,403.622,72.5537,-19.1988,178.879,0.65918,-145.503,744
1571223742,403.622,72.5537,-19.1988,178.879,0.65918,-145.503,744
1571223742,403.51,72.5537,-19.1988,178.879,0.65918,-145.503,744
1571223742,403.51,72.5537,-19.0872,178.879,0.681152,-145.503,744
1571223742,403.51,72.5537,-19.0872,178.879,0.681152,-145.503,744
1571223742,403.51,72.5537,-19.0872,178.879,0.681152,-145.503,744
1571223742,403.51,72.5537,-19.0872,178.879,0.681152,-145.503,744
1571223742,403.51,72.5537,-19.0872,178.879,0.681152,-145.503,744
1571223742,403.51,72.5537,-19.0872,178.879,0.681152,-145.503,744
1571223742,403.51,72.5537,-19.0872,178.879,0.681152,-145.503,744
1571223742,403.51,72.5537,-19.0872,178.879,0.681152,-145.525,748
1571223742,403.51,72.5537,-19.0872,178.879,0.681152,-145.525,748
1571223742,403.51,72.5537,-19.0872,178.879,0.681152,-145.525,748
1571223742,403.51,72.5537,-19.0872,178.879,0.65918,-145.525,748
1571223742,403.51,72.5537,-19.0872,178.879,0.65918,-145.525,752
1571223742,403.51,72.5537,-19.0872,178.879,0.65918,-145.525,752
1571223742,403.399,72.5537,-19.0872,178.879,0.681152,-145.525,756
1571223742,403.399,72.5537,-19.0872,178.879,0.681152,-145.525,756
1571223742,403.399,72.5537,-19.0872,178.879,0.681152,-145.525,760
1571223742,403.399,72.5537,-19.0872,178.879,0.681152,-145.525,760
1571223742,403.399,72.5537,-19.0872,178.879,0.681152,-145.525,764
1571223742,403.399,72.4421,-19.0872,178.879,0.681152,-145.525,768
1571223742,403.399,72.4421,-19.0872,178.857,0.681152,-145.525,768
1571223742,403.399,72.4421,-19.0872,178.857,0.681152,-145.525,772
1571223742,403.399,72.4421,-19.0872,178.857,0.681152,-145.525,772
1571223742,403.399,72.4421,-19.0872,178.857,0.681152,-145.525,772
1571223742,403.399,72.4421,-19.0872,178.857,0.681152,-145.525,776
1571223742,403.399,72.4421,-19.0872,178.857,0.681152,-145.525,776
1571223742,403.399,72.4421,-19.0872,178.857,0.681152,-145.503,776
1571223742,403.399,72.4421,-19.0872,178.857,0.681152,-145.503,780
1571223742,403.399,72.4421,-19.0872,178.857,0.681152,-145.503,780
1571223742,403.399,72.4421,-19.0872,178.857,0.65918,-145.503,780
1571223742,403.399,72.4421,-19.0872,178.857,0.65918,-145.503,780
1571223742,403.399,72.4421,-19.0872,178.857,0.65918,-145.503,780
1571223742,403.399,72.4421,-19.0872,178.879,0.65918,-145.503,780
1571223742,403.399,72.5537,-19.0872,178.879,0.65918,-145.503,780
1571223742,403.399,72.5537,-19.0872,178.879,0.65918,-145.503,776
1571223742,403.399,72.5537,-19.0872,178.879,0.65918,-145.503,776
1571223742,403.51,72.5537,-19.0872,178.879,0.65918,-145.503,776
1571223742,403.51,72.5537,-19.0872,178.879,0.65918,-145.503,776
1571223742,403.51,72.5537,-19.0872,178.879,0.681152,-145.503,772
1571223742,403.51,72.5537,-19.0872,178.879,0.681152,-145.503,772
1571223742,403.51,72.5537,-19.0872,178.879,0.681152,-145.503,772
1571223742,403.51,72.5537,-19.0872,178.879,0.681152,-145.503,768
1571223742,403.51,72.5537,-19.0872,178.901,0.681152,-145.503,768
1571223742,403.51,72.5537,-19.0872,178.901,0.681152,-145.481,764
1571223742,403.51,72.5537,-19.0872,178.901,0.681152,-145.481,764
1571223742,403.51,72.5537,-19.0872,178.901,0.681152,-145.481,764
1571223742,403.51,72.5537,-19.0872,178.901,0.681152,-145.481,764
1571223742,403.51,72.5537,-19.0872,178.901,0.681152,-145.481,764
1571223742,403.51,72.5537,-19.0872,178.901,0.681152,-145.481,760
1571223742,403.51,72.5537,-19.0872,178.879,0.703125,-145.481,760
1571223742,403.51,72.5537,-19.0872,178.879,0.703125,-145.481,760
1571223742,403.51,72.5537,-19.0872,178.879,0.703125,-145.481,760
1571223742,403.51,72.5537,-19.0872,178.879,0.703125,-145.481,760
1571223742,403.51,72.5537,-19.0872,178.879,0.703125,-145.481,760
1571223742,403.51,72.5537,-18.9756,178.879,0.703125,-145.481,760
1571223742,403.51,72.5537,-18.9756,178.879,0.703125,-145.481,760
1571223742,403.51,72.5537,-18.9756,178.879,0.703125,-145.481,756
1571223742,403.51,72.5537,-18.9756,178.879,0.703125,-145.503,756
1571223742,403.51,72.5537,-18.9756,178.901,0.703125,-145.503,756
1571223742,403.51,72.5537,-18.9756,178.901,0.703125,-145.503,756
1571223742,403.51,72.5537,-18.9756,178.901,0.703125,-145.503,756
1571223742,403.51,72.5537,-18.9756,178.901,0.703125,-145.503,756
1571223742,403.51,72.5537,-18.9756,178.901,0.703125,-145.503,756
1571223742,403.51,72.5537,-18.9756,178.901,0.703125,-145.503,756
1571223742,403.51,72.5537,-18.9756,178.901,0.703125,-145.525,756
1571223742,403.51,72.5537,-18.9756,178.901,0.703125,-145.525,756
1571223742,403.51,72.5537,-18.9756,178.901,0.703125,-145.525,756
1571223742,403.51,72.5537,-18.9756,178.901,0.703125,-145.525,756
1571223742,403.51,72.5537,-18.9756,178.901,0.703125,-145.525,752
1571223742,403.51,72.5537,-19.0872,178.901,0.703125,-145.525,752
1571223742,403.51,72.5537,-19.0872,178.901,0.681152,-145.525,752
1571223742,403.51,72.5537,-19.0872,178.901,0.681152,-145.525,752
1571223742,403.51,72.5537,-19.0872,178.901,0.681152,-145.525,752
1571223743,403.51,72.5537,-19.0872,178.901,0.681152,-145.525,752
1571223743,403.51,72.5537,-19.0872,178.901,0.681152,-145.525,752
1571223743,403.51,72.5537,-19.0872,178.901,0.681152,-145.525,752
1571223743,403.51,72.5537,-19.0872,178.901,0.703125,-145.525,752
1571223743,403.51,72.5537,-19.0872,178.901,0.703125,-145.525,752
1571223743,403.51,72.5537,-18.9756,178.901,0.703125,-145.525,752
1571223743,403.51,72.5537,-18.9756,178.901,0.703125,-145.525,752
1571223743,403.51,72.5537,-18.9756,178.901,0.703125,-145.525,752
1571223743,403.51,72.5537,-18.9756,178.901,0.703125,-145.525,752
1571223743,403.51,72.5537,-18.9756,178.901,0.703125,-145.525,752
1571223743,403.51,72.5537,-18.9756,178.901,0.703125,-145.525,752
1571223743,403.51,72.5537,-18.9756,178.901,0.703125,-145.525,752
1571223743,403.51,72.5537,-19.0872,178.901,0.703125,-145.525,752
1571223743,403.51,72.5537,-19.0872,178.901,0.681152,-145.547,752
1571223743,403.51,72.5537,-19.0872,178.901,0.681152,-145.547,752
1571223743,403.51,72.5537,-19.0872,178.901,0.681152,-145.525,752
1571223743,403.51,72.5537,-19.0872,178.901,0.681152,-145.525,752
1571223743,403.51,72.5537,-19.0872,178.901,0.681152,-145.525,752
1571223743,403.51,72.5537,-19.0872,178.901,0.681152,-145.525,752
1571223743,403.51,72.5537,-19.0872,178.901,0.681152,-145.525,748
1571223743,403.51,72.5537,-19.0872,178.879,0.681152,-145.525,748
1571223743,403.51,72.5537,-19.0872,178.879,0.681152,-145.525,748
1571223743,403.622,72.5537,-19.0872,178.879,0.681152,-145.525,748
1571223743,403.622,72.5537,-19.0872,178.879,0.681152,-145.525,748
1571223743,403.622,72.5537,-19.0872,178.879,0.681152,-145.525,748
1571223743,403.622,72.5537,-19.0872,178.879,0.681152,-145.525,744
1571223743,403.622,72.5537,-19.0872,178.879,0.681152,-145.525,744
1571223743,403.622,72.5537,-19.0872,178.879,0.681152,-145.525,744
1571223743,403.622,72.5537,-19.0872,178.879,0.681152,-145.525,744
1571223743,403.622,72.5537,-19.0872,178.879,0.681152,-145.525,744
1571223743,403.622,72.5537,-19.0872,178.879,0.681152,-145.525,740
1571223743,403.622,72.5537,-19.0872,178.879,0.681152,-145.525,740
1571223743,403.622,72.5537,-19.0872,178.879,0.681152,-145.525,740
1571223743,403.622,72.4421,-19.0872,178.879,0.681152,-145.525,736
1571223743,403.622,72.4421,-19.0872,178.879,0.681152,-145.525,736
1571223743,403.622,72.4421,-19.0872,178.879,0.681152,-145.525,736
1571223743,403.622,72.4421,-19.0872,178.879,0.681152,-145.525,736
1571223743,403.622,72.5537,-19.0872,178.879,0.681152,-145.503,736
1571223743,403.622,72.5537,-19.0872,178.879,0.703125,-145.503,736
1571223743,403.622,72.5537,-19.0872,178.879,0.703125,-145.503,732
1571223743,403.622,72.4421,-19.0872,178.879,0.703125,-145.503,732
1571223743,403.622,72.4421,-19.0872,178.879,0.703125,-145.503,732
1571223743,403.622,72.4421,-19.0872,178.879,0.703125,-145.503,732
1571223743,403.622,72.4421,-19.0872,178.879,0.703125,-145.503,736
1571223743,403.622,72.4421,-19.0872,178.879,0.703125,-145.525,736
1571223743,403.622,72.4421,-18.9756,178.857,0.703125,-145.525,736
1571223743,403.622,72.4421,-18.9756,178.857,0.703125,-145.525,736
1571223743,403.622,72.4421,-18.9756,178.857,0.703125,-145.525,736
1571223743,403.51,72.4421,-18.9756,178.857,0.703125,-145.525,736
1571223743,403.51,72.4421,-18.9756,178.857,0.703125,-145.525,736
1571223743,403.51,72.4421,-18.9756,178.857,0.703125,-145.525,740
