time,x,y,z,ax,ay,az,q
1571223715,369.131,112.737,22.7707,178.176,-1.82373,88.8135,428
1571223715,369.131,112.737,22.7707,178.176,-1.82373,88.8135,428
1571223715,369.131,112.737,22.7707,178.176,-1.82373,88.8135,428
1571223715,369.131,112.737,22.7707,178.176,-1.82373,88.8135,428
1571223715,369.243,112.737,22.7707,178.176,-1.82373,88.8135,428
1571223715,369.243,112.737,22.7707,178.176,-1.82373,88.8135,428
1571223715,369.243,112.737,22.7707,178.176,-1.82373,88.8135,428
1571223715,369.243,112.737,22.7707,178.176,-1.82373,88.8135,428
1571223715,369.243,112.737,22.7707,178.176,-1.82373,88.8135,428
1571223715,369.243,112.737,22.7707,178.176,-1.82373,88.8135,428
1571223715,369.243,112.737,22.7707,178.176,-1.82373,88.8135,428
1571223715,369.243,112.737,22.7707,178.176,-1.82373,88.8135,428
1571223716,369.243,112.737,22.7707,178.176,-1.82373,88.8135,428
1571223716,369.243,112.737,22.7707,178.176,-1.82373,88.8135,428
1571223716,369.243,112.737,22.7707,178.176,-1.82373,88.8135,428
1571223716,369.243,112.737,22.7707,178.176,-1.82373,88.8135,428
1571223716,369.243,112.737,22.7707,178.176,-1.82373,88.8135,428
1571223716,369.243,112.737,22.7707,178.176,-1.82373,88.8135,428
1571223716,369.243,112.737,22.7707,178.176,-1.82373,88.8135,428
1571223716,369.243,112.737,22.7707,178.176,-1.82373,88.8135,428
1571223716,369.243,112.737,22.7707,178.176,-1.82373,88.8135,428
1571223716,369.243,112.737,22.7707,178.176,-1.82373,88.8135,428
1571223716,369.243,112.737,22.7707,178.176,-1.82373,88.8135,428
1571223716,369.243,112.737,22.7707,178.176,-1.82373,88.8135,428
1571223716,369.243,112.737,22.7707,178.176,-1.82373,88.8135,428
1571223716,369.243,112.737,22.7707,178.176,-1.82373,88.8135,428
1571223716,369.243,112.737,22.7707,178.176,-1.82373,88.8135,428
1571223716,369.243,112.737,22.7707,178.176,-1.82373,88.8135,428
1571223716,369.243,112.737,22.7707,178.176,-1.82373,88.8135,428
1571223716,369.243,112.737,22.7707,178.176,-1.82373,88.8135,428
1571223716,369.243,112.737,22.7707,178.176,-1.82373,88.8135,428
1571223716,369.243,112.737,22.7707,178.176,-1.82373,88.8135,428
1571223716,369.243,112.737,22.7707,178.176,-1.82373,88.8135,428
1571223716,369.243,112.737,22.7707,178.176,-1.82373,88.8135,428
1571223716,369.243,112.737,22.7707,178.176,-1.82373,88.8135,428
1571223716,369.243,112.737,22.7707,178.176,-1.82373,88.8135,428
1571223716,369.243,112.737,22.7707,178.176,-1.82373,88.8135,428
1571223716,369.243,112.737,22.7707,178.176,-1.82373,88.8135,428
1571223716,369.243,112.737,22.7707,178.176,-1.82373,88.8135,428
1571223716,369.243,112.737,22.7707,178.176,-1.82373,88.8135,428
1571223716,369.243,112.737,22.7707,178.176,-1.82373,88.8135,428
1571223716,369.243,112.737,22.7707,178.176,-1.82373,88.8135,428
1571223716,369.243,112.737,22.7707,178.176,-1.82373,88.8135,428
1571223716,369.243,112.737,22.7707,178.176,-1.82373,88.8135,428
1571223716,369.243,112.737,22.7707,178.176,-1.82373,88.8135,428
1571223716,369.243,112.737,22.7707,178.176,-1.82373,88.8135,428
1571223716,369.243,112.737,22.7707,178.176,-1.82373,88.8135,428
1571223716,369.243,112.737,22.7707,178.176,-1.82373,88.8135,428
1571223716,369.243,112.737,22.7707,178.176,-1.82373,88.8135,428
1571223716,369.243,112.737,22.7707,178.176,-1.82373,88.8135,428
1571223716,369.243,112.737,22.7707,178.176,-1.82373,88.8135,428
1571223716,369.243,112.737,22.7707,178.176,-1.82373,88.8135,428
1571223716,369.243,112.737,22.7707,178.176,-1.82373,88.8135,428
1571223716,369.243,112.737,22.7707,178.176,-1.82373,88.8135,428
1571223716,369.243,112.737,22.7707,178.176,-1.82373,88.8135,428
1571223716,369.243,112.737,22.7707,178.176,-1.82373,88.8135,428
1571223716,369.243,112.737,22.7707,178.176,-1.82373,88.8135,428
1571223716,369.243,112.737,22.7707,178.176,-1.82373,88.8135,428
1571223716,369.243,112.737,22.7707,178.176,-1.82373,88.8135,428
1571223716,369.243,112.737,22.7707,178.176,-1.82373,88.8135,428
1571223716,369.243,112.737,22.7707,178.176,-1.82373,88.8135,428
1571223716,369.243,112.737,22.7707,178.176,-1.82373,88.8135,428
1571223716,369.243,112.737,22.7707,178.176,-1.82373,88.8135,428
1571223716,369.243,112.737,22.7707,178.176,-1.82373,88.8135,428
1571223716,369.243,112.737,22.7707,178.176,-1.82373,88.8135,428
1571223716,369.243,112.737,22.7707,178.176,-1.82373,88.8135,428
1571223716,369.243,112.737,22.7707,178.176,-1.82373,88.8135,428
1571223716,369.243,112.737,22.7707,178.176,-1.82373,88.8135,428
1571223716,369.243,112.737,22.7707,178.176,-1.82373,88.8135,428
1571223716,369.243,112.737,22.7707,178.176,-1.82373,88.8135,428
1571223716,369.243,112.737,22.7707,178.176,-1.82373,88.8135,428
1571223716,369.243,112.737,22.7707,178.176,-1.82373,88.8135,428
1571223716,369.243,112.737,22.7707,178.176,-1.82373,88.8135,424
1571223716,369.243,112.737,22.7707,178.176,-1.82373,88.8135,424
1571223716,369.243,112.737,22.7707,178.176,-1.82373,88.8135,424
1571223716,369.243,112.737,22.7707,178.176,-1.82373,88.8135,424
1571223716,369.243,112.737,22.7707,178.176,-1.82373,88.8135,424
1571223716,369.243,112.737,22.7707,178.176,-1.82373,88.8135,424
1571223716,369.243,112.737,22.7707,178.176,-1.82373,88.8135,424
1571223716,369.243,112.737,22.7707,178.176,-1.82373,88.8135,424
1571223716,369.243,112.737,22.7707,178.176,-1.82373,88.8135,424
1571223716,369.243,112.737,22.7707,178.176,-1.82373,88.8135,424
1571223716,369.243,112.737,22.7707,178.176,-1.82373,88.8135,428
1571223716,369.243,112.737,22.7707,178.176,-1.82373,88.8135,428
1571223716,369.243,112.737,22.7707,178.176,-1.82373,88.8135,428
1571223716,369.243,112.737,22.7707,178.176,-1.82373,88.8135,428
1571223716,369.243,112.737,22.7707,178.176,-1.82373,88.8135,428
1571223716,369.243,112.737,22.7707,178.176,-1.82373,88.8135,428
1571223716,369.243,112.737,22.7707,178.176,-1.82373,88.8135,428
1571223716,369.243,112.737,22.7707,178.176,-1.82373,88.8135,428
1571223716,369.243,112.737,22.7707,178.176,-1.82373,88.8135,428
1571223716,369.243,112.737,22.7707,178.176,-1.82373,88.8135,428
1571223716,369.243,112.737,22.7707,178.176,-1.82373,88.8135,428
1571223716,369.243,112.737,22.7707,178.176,-1.82373,88.8135,428
1571223716,369.243,112.737,22.7707,178.176,-1.82373,88.8135,428
1571223716,369.243,112.737,22.7707,178.176,-1.82373,88.8135,428
1571223716,369.243,112.737,22.7707,178.176,-1.82373,88.8354,428
1571223716,369.243,112.737,22.7707,178.176,-1.82373,88.8354,428
1571223716,369.243,112.737,22.7707,178.176,-1.82373,88.8354,428
1571223716,369.243,112.737,22.7707,178.176,-1.82373,88.8354,428
1571223716,369.243,112.737,22.7707,178.176,-1.82373,88.8354,428
1571223716,369.243,112.737,22.7707,178.176,-1.82373,88.8354,428
1571223716,369.243,112.737,22.7707,178.176,-1.82373,88.8354,428
1571223716,369.243,112.737,22.7707,178.176,-1.82373,88.8354,424
1571223716,369.243,112.737,22.7707,178.176,-1.82373,88.8354,424
1571223716,369.243,112.737,22.7707,178.176,-1.82373,88.8354,424
1571223716,369.243,112.737,22.7707,178.176,-1.82373,88.8354,424
1571223716,369.243,112.737,22.7707,178.176,-1.82373,88.8354,424
1571223716,369.243,112.737,22.7707,178.176,-1.82373,88.8354,424
1571223716,369.243,112.737,22.7707,178.176,-1.82373,88.8354,424
1571223716,369.243,112.737,22.7707,178.176,-1.82373,88.8354,424
1571223716,369.243,112.737,22.7707,178.176,-1.82373,88.8354,424
1571223716,369.243,112.737,22.7707,178.176,-1.82373,88.8354,424
1571223717,369.243,112.737,22.7707,178.176,-1.82373,88.8354,424
1571223717,369.243,112.737,22.7707,178.176,-1.82373,88.8354,424
1571223717,369.243,112.737,22.7707,178.176,-1.82373,88.8354,424
1571223717,369.243,112.737,22.7707,178.176,-1.82373,88.8354,424
1571223717,369.243,112.737,22.7707,178.176,-1.82373,88.8354,424
1571223717,369.243,112.737,22.7707,178.176,-1.82373,88.8354,424
1571223717,369.243,112.737,22.7707,178.176,-1.82373,88.8354,424
1571223717,369.243,112.737,22.7707,178.176,-1.82373,88.8354,424
1571223717,369.243,112.737,22.7707,178.176,-1.82373,88.8354,424
1571223717,369.243,112.737,22.7707,178.176,-1.82373,88.8354,424
1571223717,369.243,112.737,22.7707,178.176,-1.82373,88.8354,424
1571223717,369.243,112.737,22.7707,178.176,-1.82373,88.8354,424
1571223717,369.243,112.737,22.7707,178.176,-1.82373,88.8354,424
1571223717,369.243,112.737,22.7707,178.176,-1.82373,88.8354,424
1571223717,369.243,112.737,22.7707,178.176,-1.82373,88.8354,424
1571223717,369.243,112.737,22.7707,178.176,-1.82373,88.8135,424
1571223717,369.243,112.737,22.7707,178.176,-1.82373,88.8135,424
1571223717,369.243,112.737,22.7707,178.176,-1.82373,88.8135,424
1571223717,369.243,112.737,22.7707,178.176,-1.82373,88.8135,424
1571223717,369.243,112.737,22.7707,178.176,-1.82373,88.8135,424
1571223717,369.243,112.737,22.7707,178.176,-1.82373,88.8135,424
1571223717,369.243,112.737,22.7707,178.176,-1.82373,88.8135,424
1571223717,369.243,112.737,22.7707,178.176,-1.82373,88.8135,424
1571223717,369.243,112.737,22.7707,178.176,-1.82373,88.8135,424
1571223717,369.243,112.737,22.7707,178.176,-1.82373,88.8135,424
1571223717,369.243,112.737,22.7707,178.176,-1.82373,88.8135,424
1571223717,369.243,112.737,22.7707,178.176,-1.82373,88.8135,424
1571223717,369.131,112.737,22.7707,178.176,-1.82373,88.8135,424
1571223717,369.131,112.737,22.7707,178.176,-1.82373,88.8135,424
1571223717,369.131,112.737,22.7707,178.176,-1.82373,88.8135,428
1571223717,369.131,112.737,22.7707,178.176,-1.82373,88.8135,428
1571223717,369.131,112.737,22.7707,178.176,-1.82373,88.8135,428
1571223717,369.131,112.737,22.7707,178.176,-1.82373,88.8135,428
1571223717,369.131,112.737,22.7707,178.176,-1.82373,88.8135,428
1571223717,369.131,112.737,22.7707,178.176,-1.82373,88.8135,428
1571223717,369.131,112.737,22.7707,178.176,-1.82373,88.8135,428
1571223717,369.131,112.737,22.7707,178.176,-1.82373,88.8135,428
1571223717,369.131,112.737,22.7707,178.176,-1.82373,88.8135,428
1571223717,369.131,112.737,22.7707,178.176,-1.82373,88.8135,428
1571223717,369.131,112.737,22.7707,178.176,-1.82373,88.8135,428
1571223717,369.131,112.737,22.7707,178.176,-1.82373,88.8135,428
1571223717,369.131,112.737,22.7707,178.176,-1.82373,88.8135,428
1571223717,369.131,112.737,22.7707,178.176,-1.82373,88.8135,428
1571223717,369.131,112.737,22.7707,178.176,-1.82373,88.8135,428
1571223717,369.131,112.737,22.7707,178.176,-1.82373,88.8135,428
1571223717,369.131,112.737,22.7707,178.176,-1.82373,88.8135,428
1571223717,369.131,112.849,22.7707,178.176,-1.82373,88.8135,428
1571223717,369.131,112.849,22.7707,178.176,-1.82373,88.8135,428
1571223717,369.131,112.849,22.7707,178.176,-1.82373,88.8354,428
1571223717,369.131,112.849,22.7707,178.176,-1.82373,88.8354,428
1571223717,369.131,112.849,22.7707,178.176,-1.82373,88.8354,428
1571223717,369.131,112.849,22.7707,178.176,-1.82373,88.8354,428
1571223717,369.131,112.849,22.7707,178.176,-1.82373,88.8354,428
1571223717,369.131,112.849,22.7707,178.176,-1.82373,88.8354,428
1571223717,369.131,112.849,22.7707,178.176,-1.82373,88.8354,428
1571223717,369.131,112.849,22.7707,178.176,-1.82373,88.8354,428
1571223717,369.131,112.849,22.7707,178.176,-1.82373,88.8354,428
1571223717,369.131,112.849,22.7707,178.176,-1.82373,88.8354,428
1571223717,369.131,112.849,22.7707,178.176,-1.82373,88.8135,428
1571223717,369.131,112.849,22.7707,178.176,-1.82373,88.8135,428
1571223717,369.131,112.849,22.7707,178.176,-1.82373,88.8135,428
1571223717,369.131,112.849,22.7707,178.176,-1.82373,88.8135,428
1571223717,369.131,112.849,22.7707,178.176,-1.82373,88.8135,428
1571223717,369.131,112.849,22.7707,178.176,-1.82373,88.8135,428
1571223717,369.131,112.849,22.7707,178.176,-1.82373,88.8135,428
1571223717,369.131,112.849,22.7707,178.176,-1.82373,88.8135,428
1571223717,369.131,112.737,22.7707,178.176,-1.82373,88.8135,428
1571223717,369.131,112.737,22.7707,178.176,-1.82373,88.8135,428
1571223717,369.131,112.737,22.7707,178.176,-1.82373,88.8135,428
1571223717,369.131,112.737,22.7707,178.176,-1.82373,88.8135,428
1571223717,369.131,112.737,22.7707,178.176,-1.82373,88.8135,428
1571223717,369.131,112.737,22.7707,178.176,-1.82373,88.8135,428
1571223717,369.131,112.737,22.7707,178.176,-1.82373,88.8354,428
1571223717,369.131,112.737,22.7707,178.176,-1.82373,88.8354,428
1571223717,369.131,112.737,22.7707,178.176,-1.82373,88.8354,428
1571223717,369.131,112.737,22.7707,178.176,-1.82373,88.8354,428
1571223717,369.131,112.737,22.7707,178.176,-1.82373,88.8354,428
1571223717,369.131,112.737,22.7707,178.176,-1.82373,88.8354,428
1571223717,369.243,112.737,22.7707,178.176,-1.82373,88.8354,428
1571223717,369.243,112.737,22.7707,178.176,-1.82373,88.8354,428
1571223717,369.243,112.737,22.7707,178.176,-1.82373,88.8135,428
1571223717,369.243,112.737,22.7707,178.176,-1.82373,88.8135,428
1571223717,369.243,112.737,22.7707,178.176,-1.82373,88.8135,428
1571223717,369.243,112.737,22.7707,178.176,-1.82373,88.8135,428
1571223717,369.243,112.737,22.7707,178.176,-1.82373,88.8135,428
1571223717,369.243,112.737,22.7707,178.176,-1.82373,88.8135,424
1571223717,369.243,112.737,22.7707,178.176,-1.82373,88.8135,424
1571223717,369.243,112.737,22.7707,178.176,-1.82373,88.8135,424
1571223717,369.243,112.737,22.7707,178.176,-1.82373,88.8354,424
1571223717,369.243,112.737,22.7707,178.176,-1.82373,88.8354,424
1571223717,369.243,112.737,22.7707,178.176,-1.82373,88.8354,424
1571223717,369.243,112.737,22.7707,178.176,-1.82373,88.8354,424
1571223717,369.243,112.849,22.7707,178.176,-1.82373,88.8354,424
1571223717,369.243,112.849,22.7707,178.176,-1.82373,88.8354,424
1571223717,369.243,112.849,22.7707,178.176,-1.82373,88.8354,424
1571223717,369.243,112.849,22.7707,178.176,-1.82373,88.8354,424
1571223717,369.243,112.849,22.7707,178.176,-1.82373,88.8354,424
1571223717,369.243,112.849,22.7707,178.176,-1.82373,88.8354,424
1571223717,369.131,112.849,22.7707,178.176,-1.82373,88.8354,424
1571223717,369.131,112.849,22.7707,178.176,-1.82373,88.8354,424
1571223718,369.131,112.849,22.7707,178.176,-1.82373,88.8354,424
1571223718,369.131,112.849,22.7707,178.176,-1.82373,88.8354,424
1571223718,369.131,112.849,22.7707,178.176,-1.82373,88.8354,424
1571223718,369.131,112.849,22.7707,178.176,-1.82373,88.8354,424
1571223718,369.131,112.849,22.7707,178.176,-1.82373,88.8354,424
1571223718,369.131,112.849,22.7707,178.176,-1.82373,88.8354,424
1571223718,369.131,112.849,22.7707,178.176,-1.82373,88.8354,424
1571223718,369.131,112.737,22.7707,178.176,-1.82373,88.8354,424
1571223718,369.131,112.737,22.7707,178.176,-1.82373,88.8354,424
1571223718,369.131,112.737,22.7707,178.176,-1.82373,88.8354,424
1571223718,369.131,112.737,22.7707,178.176,-1.82373,88.8354,424
1571223718,369.131,112.737,22.7707,178.176,-1.82373,88.8354,424
1571223718,369.131,112.737,22.7707,178.176,-1.82373,88.8354,424
1571223718,369.131,112.737,22.7707,178.176,-1.82373,88.8135,424
1571223718,369.131,112.737,22.7707,178.176,-1.82373,88.8135,428
1571223718,369.131,112.737,22.7707,178.176,-1.82373,88.8135,428
1571223718,369.131,112.737,22.7707,178.176,-1.82373,88.8135,428
1571223718,369.131,112.737,22.7707,178.176,-1.82373,88.8135,428
1571223718,369.131,112.737,22.7707,178.176,-1.82373,88.8135,428
1571223718,369.131,112.737,22.7707,178.176,-1.82373,88.8135,428
1571223718,369.131,112.737,22.7707,178.176,-1.82373,88.8135,428
1571223718,369.131,112.737,22.7707,178.176,-1.82373,88.8135,428
1571223718,369.131,112.737,22.7707,178.176,-1.82373,88.8135,428
1571223718,369.131,112.737,22.7707,178.176,-1.82373,88.8135,428
1571223718,369.131,112.737,22.7707,178.176,-1.82373,88.8135,428
1571223718,369.131,112.737,22.7707,178.176,-1.82373,88.8135,428
1571223718,369.131,112.737,22.7707,178.176,-1.82373,88.8135,428
1571223718,369.131,112.737,22.7707,178.176,-1.82373,88.8135,428
1571223718,369.131,112.737,22.7707,178.176,-1.82373,88.8135,428
1571223718,369.131,112.737,22.7707,178.176,-1.82373,88.8135,428
1571223718,369.131,112.737,22.7707,178.176,-1.82373,88.8135,428
1571223718,369.131,112.737,22.7707,178.176,-1.82373,88.8135,428
1571223718,369.131,112.737,22.7707,178.176,-1.82373,88.8135,428
1571223718,369.131,112.737,22.7707,178.176,-1.82373,88.8135,428
1571223718,369.131,112.737,22.7707,178.176,-1.82373,88.8135,428
1571223718,369.131,112.737,22.7707,178.176,-1.82373,88.8135,428
1571223718,369.131,112.737,22.7707,178.176,-1.82373,88.8135,428
1571223718,369.131,112.737,22.7707,178.176,-1.82373,88.8135,428
1571223718,369.131,112.737,22.7707,178.176,-1.82373,88.8135,428
1571223718,369.131,112.737,22.7707,178.176,-1.82373,88.8135,428
1571223718,369.131,112.737,22.7707,178.176,-1.82373,88.8135,428
1571223718,369.131,112.737,22.7707,178.176,-1.82373,88.8135,428
1571223718,369.131,112.737,22.7707,178.176,-1.82373,88.8135,428
1571223718,369.131,112.737,22.7707,178.176,-1.82373,88.8135,428
1571223718,369.131,112.737,22.7707,178.176,-1.82373,88.8135,428
1571223718,369.131,112.737,22.7707,178.176,-1.82373,88.8135,428
1571223718,369.131,112.737,22.7707,178.176,-1.82373,88.8135,428
1571223718,369.131,112.737,22.7707,178.176,-1.82373,88.8135,428
1571223718,369.131,112.737,22.7707,178.176,-1.82373,88.8135,428
1571223718,369.243,112.737,22.7707,178.176,-1.82373,88.8135,428
1571223718,369.243,112.737,22.7707,178.176,-1.82373,88.8135,428
1571223718,369.243,112.737,22.7707,178.176,-1.82373,88.8135,428
1571223718,369.243,112.737,22.7707,178.176,-1.82373,88.8135,428
1571223718,369.131,112.737,22.7707,178.176,-1.82373,88.8135,428
1571223718,369.131,112.737,22.7707,178.176,-1.82373,88.8135,428
1571223718,369.131,112.737,22.7707,178.176,-1.82373,88.8135,424
1571223718,369.131,112.737,22.7707,178.176,-1.82373,88.8135,424
1571223718,369.131,112.737,22.7707,178.176,-1.82373,88.8135,424
1571223718,369.131,112.737,22.7707,178.176,-1.82373,88.8135,424
1571223718,369.131,112.737,22.7707,178.176,-1.82373,88.8135,424
1571223718,369.131,112.737,22.7707,178.176,-1.82373,88.8135,424
1571223718,369.131,112.737,22.7707,178.176,-1.82373,88.8135,424
1571223718,369.131,112.737,22.7707,178.176,-1.82373,88.8135,424
1571223718,369.131,112.737,22.7707,178.176,-1.82373,88.8135,424
1571223718,369.131,112.737,22.7707,178.176,-1.82373,88.8135,424
1571223718,369.131,112.737,22.7707,178.176,-1.82373,88.8135,428
1571223718,369.131,112.737,22.7707,178.176,-1.82373,88.8135,428
1571223718,369.131,112.737,22.7707,178.176,-1.82373,88.8135,428
1571223718,369.131,112.737,22.7707,178.176,-1.82373,88.8135,428
1571223718,369.131,112.737,22.7707,178.176,-1.82373,88.8135,428
1571223718,369.131,112.737,22.7707,178.176,-1.82373,88.8135,428
1571223718,369.131,112.737,22.7707,178.176,-1.82373,88.8135,428
1571223718,369.131,112.737,22.7707,178.176,-1.82373,88.8135,428
1571223718,369.131,112.737,22.7707,178.176,-1.82373,88.8135,428
1571223718,369.131,112.737,22.7707,178.176,-1.82373,88.8135,428
1571223718,369.131,112.737,22.7707,178.176,-1.82373,88.8135,428
1571223718,369.131,112.737,22.7707,178.176,-1.82373,88.8135,428
1571223718,369.131,112.737,22.7707,178.176,-1.82373,88.8135,428
1571223718,369.131,112.737,22.7707,178.176,-1.82373,88.8135,428
1571223718,369.131,112.737,22.7707,178.176,-1.82373,88.8135,428
1571223718,369.131,112.737,22.7707,178.176,-1.82373,88.8135,428
1571223718,369.131,112.737,22.7707,178.176,-1.82373,88.8135,428
1571223718,369.131,112.737,22.7707,178.176,-1.82373,88.8135,428
1571223718,369.131,112.737,22.7707,178.176,-1.82373,88.8135,428
1571223718,369.131,112.737,22.7707,178.176,-1.82373,88.8135,428
1571223718,369.131,112.737,22.7707,178.176,-1.82373,88.8135,428
1571223718,369.131,112.737,22.7707,178.176,-1.82373,88.8135,428
1571223718,369.131,112.737,22.7707,178.176,-1.82373,88.8135,428
1571223718,369.131,112.737,22.7707,178.176,-1.82373,88.8135,428
1571223718,369.131,112.737,22.7707,178.176,-1.82373,88.8135,428
1571223718,369.131,112.737,22.7707,178.176,-1.82373,88.8135,428
1571223718,369.131,112.737,22.7707,178.176,-1.82373,88.8354,428
1571223718,369.131,112.737,22.7707,178.176,-1.82373,88.8354,428
1571223718,369.131,112.737,22.7707,178.176,-1.82373,88.8354,428
1571223718,369.131,112.737,22.7707,178.176,-1.82373,88.8354,428
1571223718,369.131,112.737,22.7707,178.176,-1.82373,88.8354,428
1571223718,369.131,112.737,22.7707,178.176,-1.82373,88.8354,428
1571223718,369.131,112.737,22.7707,178.176,-1.82373,88.8354,428
1571223718,369.131,112.737,22.7707,178.176,-1.82373,88.8354,428
1571223718,369.131,112.737,22.7707,178.176,-1.82373,88.8354,428
1571223719,369.131,112.737,22.7707,178.176,-1.82373,88.8354,428
1571223719,369.131,112.737,22.7707,178.176,-1.82373,88.8354,428
1571223719,369.131,112.737,22.7707,178.176,-1.82373,88.8354,428
1571223719,369.131,112.737,22.7707,178.176,-1.82373,88.8354,428
1571223719,369.131,112.737,22.7707,178.176,-1.82373,88.8354,428
1571223719,369.131,112.737,22.7707,178.176,-1.82373,88.8354,428
1571223719,369.131,112.737,22.7707,178.176,-1.82373,88.8354,428
1571223719,369.131,112.737,22.7707,178.176,-1.82373,88.8354,428
1571223719,369.131,112.737,22.7707,178.176,-1.82373,88.8354,428
1571223719,369.131,112.737,22.7707,178.176,-1.82373,88.8354,428
1571223719,369.131,112.737,22.7707,178.176,-1.82373,88.8354,428
1571223719,369.131,112.737,22.7707,178.176,-1.82373,88.8354,428
1571223719,369.131,112.737,22.7707,178.176,-1.82373,88.8354,428
1571223719,369.131,112.737,22.7707,178.176,-1.82373,88.8354,428
1571223719,369.131,112.737,22.7707,178.176,-1.82373,88.8354,428
1571223719,369.131,112.737,22.7707,178.176,-1.82373,88.8354,428
1571223719,369.131,112.737,22.7707,178.176,-1.82373,88.8354,428
1571223719,369.131,112.737,22.7707,178.176,-1.82373,88.8354,428
1571223719,369.131,112.737,22.7707,178.176,-1.82373,88.8354,428
1571223719,369.131,112.737,22.7707,178.176,-1.82373,88.8354,428
1571223719,369.131,112.737,22.7707,178.176,-1.82373,88.8354,428
1571223719,369.131,112.737,22.7707,178.176,-1.82373,88.8354,428
1571223719,369.131,112.737,22.7707,178.176,-1.82373,88.8354,428
1571223719,369.131,112.737,22.7707,178.176,-1.82373,88.8354,428
1571223719,369.131,112.737,22.7707,178.176,-1.82373,88.8354,428
1571223719,369.131,112.737,22.7707,178.176,-1.82373,88.8135,428
1571223719,369.131,112.737,22.7707,178.176,-1.82373,88.8135,428
1571223719,369.131,112.737,22.7707,178.176,-1.82373,88.8135,428
1571223719,369.131,112.737,22.7707,178.176,-1.82373,88.8135,428
1571223719,369.131,112.737,22.7707,178.176,-1.82373,88.8135,428
1571223719,369.131,112.737,22.7707,178.176,-1.82373,88.8354,428
1571223719,369.131,112.737,22.7707,178.176,-1.82373,88.8354,428
1571223719,369.131,112.737,22.7707,178.176,-1.82373,88.8354,428
1571223719,369.131,112.737,22.7707,178.176,-1.82373,88.8354,428
1571223719,369.131,112.737,22.7707,178.176,-1.82373,88.8354,428
1571223719,369.131,112.737,22.7707,178.176,-1.82373,88.8354,428
1571223719,369.131,112.737,22.7707,178.176,-1.82373,88.8354,428
1571223719,369.131,112.737,22.7707,178.176,-1.82373,88.8354,428
1571223719,369.131,112.737,22.7707,178.176,-1.82373,88.8354,428
1571223719,369.131,112.737,22.7707,178.176,-1.82373,88.8354,428
1571223719,369.131,112.737,22.7707,178.176,-1.82373,88.8354,428
1571223719,369.131,112.737,22.7707,178.176,-1.82373,88.8354,428
1571223719,369.131,112.737,22.7707,178.176,-1.82373,88.8354,428
1571223719,369.131,112.737,22.7707,178.176,-1.82373,88.8354,428
1571223719,369.131,112.737,22.7707,178.176,-1.82373,88.8354,428
1571223719,369.131,112.737,22.7707,178.176,-1.82373,88.8354,428
1571223719,369.131,112.737,22.7707,178.176,-1.82373,88.8354,428
1571223719,369.131,112.737,22.7707,178.176,-1.82373,88.8354,428
1571223719,369.131,112.737,22.7707,178.176,-1.82373,88.8354,428
1571223719,369.131,112.737,22.7707,178.176,-1.82373,88.8354,428
1571223719,369.131,112.737,22.7707,178.176,-1.82373,88.8354,428
1571223719,369.131,112.737,22.7707,178.176,-1.82373,88.8354,428
1571223719,369.131,112.737,22.7707,178.176,-1.82373,88.8354,428
1571223719,369.131,112.737,22.7707,178.176,-1.82373,88.8354,428
1571223719,369.131,112.737,22.7707,178.176,-1.82373,88.8354,428
1571223719,369.131,112.737,22.7707,178.176,-1.82373,88.8354,428
1571223719,369.131,112.737,22.7707,178.176,-1.82373,88.8354,428
1571223719,369.131,112.737,22.7707,178.176,-1.82373,88.8354,428
1571223719,369.131,112.737,22.7707,178.176,-1.82373,88.8354,428
1571223719,369.131,112.737,22.7707,178.176,-1.82373,88.8354,428
1571223719,369.131,112.737,22.7707,178.176,-1.82373,88.8135,428
1571223719,369.131,112.737,22.7707,178.176,-1.82373,88.8135,428
1571223719,369.131,112.737,22.7707,178.176,-1.82373,88.8135,428
1571223719,369.131,112.737,22.7707,178.176,-1.82373,88.8135,428
1571223719,369.131,112.737,22.7707,178.176,-1.82373,88.8135,428
1571223719,369.131,112.737,22.7707,178.176,-1.82373,88.8135,428
1571223719,369.131,112.737,22.7707,178.176,-1.82373,88.8135,428
1571223719,369.131,112.737,22.7707,178.176,-1.82373,88.8135,428
1571223719,369.131,112.737,22.7707,178.176,-1.82373,88.8135,428
1571223719,369.131,112.737,22.7707,178.176,-1.82373,88.8135,428
1571223719,369.131,112.737,22.7707,178.176,-1.82373,88.8135,428
1571223719,369.131,112.737,22.7707,178.176,-1.82373,88.8135,428
1571223719,369.131,112.737,22.7707,178.176,-1.82373,88.8135,428
1571223719,369.131,112.737,22.7707,178.176,-1.82373,88.8135,428
1571223719,369.131,112.737,22.7707,178.176,-1.82373,88.8135,428
1571223719,369.131,112.737,22.7707,178.176,-1.82373,88.8135,428
1571223719,369.131,112.737,22.7707,178.176,-1.82373,88.8135,428
1571223719,369.131,112.737,22.7707,178.176,-1.82373,88.8135,428
1571223719,369.131,112.737,22.7707,178.176,-1.82373,88.8135,428
1571223719,369.131,112.737,22.7707,178.176,-1.82373,88.8135,428
1571223719,369.131,112.737,22.7707,178.176,-1.82373,88.8135,428
1571223719,369.131,112.737,22.7707,178.176,-1.82373,88.8135,428
1571223719,369.131,112.737,22.7707,178.176,-1.82373,88.8354,428
1571223719,369.131,112.737,22.7707,178.176,-1.82373,88.8354,428
1571223719,369.131,112.737,22.7707,178.176,-1.82373,88.8354,428
1571223719,369.131,112.737,22.7707,178.176,-1.82373,88.8354,428
1571223719,369.131,112.737,22.7707,178.176,-1.82373,88.8354,428
1571223719,369.131,112.737,22.7707,178.176,-1.82373,88.8354,428
1571223719,369.131,112.737,22.7707,178.176,-1.82373,88.8354,428
1571223719,369.131,112.737,22.7707,178.176,-1.82373,88.8354,428
1571223719,369.131,112.737,22.7707,178.176,-1.82373,88.8354,428
1571223719,369.131,112.737,22.7707,178.176,-1.82373,88.8354,428
1571223719,369.131,112.737,22.7707,178.176,-1.82373,88.8354,428
1571223719,369.131,112.737,22.7707,178.176,-1.82373,88.8354,428
1571223719,369.131,112.737,22.7707,178.176,-1.82373,88.8354,428
1571223719,369.131,112.737,22.7707,178.176,-1.82373,88.8354,428
1571223719,369.131,112.737,22.7707,178.176,-1.82373,88.8354,428
1571223719,369.131,112.737,22.7707,178.176,-1.82373,88.8354,428
1571223719,369.131,112.737,22.7707,178.176,-1.82373,88.8354,428
1571223719,369.131,112.737,22.7707,178.176,-1.82373,88.8354,428
1571223720,369.131,112.737,22.7707,178.176,-1.82373,88.8354,428
1571223720,369.131,112.737,22.7707,178.176,-1.82373,88.8354,424
1571223720,369.131,112.737,22.7707,178.176,-1.82373,88.8354,424
1571223720,369.243,112.737,22.7707,178.176,-1.82373,88.8354,424
1571223720,369.243,112.737,22.7707,178.176,-1.82373,88.8354,424
1571223720,369.243,112.737,22.7707,178.176,-1.82373,88.8354,424
1571223720,369.243,112.737,22.7707,178.176,-1.82373,88.8354,424
1571223720,369.243,112.737,22.7707,178.176,-1.82373,88.8354,424
1571223720,369.243,112.737,22.7707,178.176,-1.82373,88.8354,424
1571223720,369.243,112.737,22.7707,178.176,-1.82373,88.8354,424
1571223720,369.243,112.737,22.7707,178.176,-1.82373,88.8354,424
1571223720,369.243,112.737,22.7707,178.176,-1.82373,88.8354,424
1571223720,369.243,112.737,22.7707,178.176,-1.82373,88.8354,424
1571223720,369.243,112.737,22.7707,178.176,-1.82373,88.8354,424
1571223720,369.243,112.737,22.7707,178.176,-1.82373,88.8354,424
1571223720,369.131,112.737,22.7707,178.176,-1.82373,88.8354,424
1571223720,369.131,112.737,22.7707,178.176,-1.82373,88.8354,424
1571223720,369.131,112.737,22.7707,178.176,-1.82373,88.8354,424
1571223720,369.131,112.737,22.7707,178.176,-1.82373,88.8354,424
1571223720,369.131,112.737,22.7707,178.176,-1.82373,88.8354,424
1571223720,369.131,112.737,22.7707,178.176,-1.82373,88.8354,424
1571223720,369.131,112.737,22.7707,178.176,-1.82373,88.8354,424
1571223720,369.131,112.737,22.7707,178.176,-1.82373,88.8354,424
1571223720,369.131,112.737,22.7707,178.176,-1.82373,88.8354,424
1571223720,369.131,112.737,22.7707,178.176,-1.82373,88.8354,424
1571223720,369.131,112.737,22.7707,178.176,-1.82373,88.8354,424
1571223720,369.243,112.737,22.7707,178.176,-1.82373,88.8354,424
1571223720,369.243,112.737,22.7707,178.176,-1.82373,88.8354,424
1571223720,369.243,112.737,22.7707,178.176,-1.82373,88.8354,424
1571223720,369.243,112.737,22.7707,178.176,-1.82373,88.8354,424
1571223720,369.243,112.737,22.7707,178.176,-1.82373,88.8354,424
1571223720,369.243,112.737,22.7707,178.176,-1.82373,88.8354,424
1571223720,369.243,112.737,22.7707,178.176,-1.82373,88.8354,424
1571223720,369.243,112.737,22.7707,178.176,-1.82373,88.8354,424
1571223720,369.243,112.737,22.7707,178.176,-1.82373,88.8354,424
1571223720,369.243,112.737,22.7707,178.176,-1.82373,88.8354,424
1571223720,369.243,112.737,22.7707,178.176,-1.82373,88.8354,424
1571223720,369.243,112.737,22.7707,178.176,-1.82373,88.8354,424
1571223720,369.243,112.737,22.7707,178.176,-1.82373,88.8354,424
1571223720,369.243,112.737,22.7707,178.176,-1.82373,88.8354,424
1571223720,369.243,112.737,22.7707,178.176,-1.82373,88.8135,424
1571223720,369.243,112.737,22.7707,178.176,-1.82373,88.8135,424
1571223720,369.243,112.737,22.7707,178.176,-1.82373,88.8135,424
1571223720,369.243,112.737,22.7707,178.176,-1.82373,88.8135,424
1571223720,369.243,112.737,22.7707,178.176,-1.82373,88.8135,424
1571223720,369.243,112.737,22.7707,178.176,-1.82373,88.8135,424
1571223720,369.243,112.737,22.7707,178.176,-1.82373,88.8135,424
1571223720,369.243,112.737,22.7707,178.176,-1.82373,88.8135,424
1571223720,369.243,112.737,22.7707,178.176,-1.82373,88.8135,424
1571223720,369.243,112.737,22.7707,178.176,-1.82373,88.8135,424
1571223720,369.243,112.737,22.7707,178.176,-1.82373,88.8135,428
1571223720,369.243,112.737,22.7707,178.176,-1.82373,88.8135,428
1571223720,369.243,112.737,22.7707,178.176,-1.82373,88.8135,428
1571223720,369.243,112.737,22.7707,178.176,-1.82373,88.8135,428
1571223720,369.243,112.737,22.7707,178.176,-1.82373,88.8135,428
1571223720,369.243,112.737,22.7707,178.176,-1.82373,88.8135,428
1571223720,369.243,112.737,22.7707,178.176,-1.82373,88.8135,428
1571223720,369.243,112.737,22.7707,178.176,-1.82373,88.8135,428
1571223720,369.131,112.737,22.7707,178.176,-1.82373,88.8135,428
1571223720,369.131,112.737,22.7707,178.176,-1.82373,88.8135,428
1571223720,369.131,112.737,22.7707,178.176,-1.82373,88.8135,428
1571223720,369.131,112.737,22.7707,178.176,-1.82373,88.8135,428
1571223720,369.131,112.737,22.7707,178.176,-1.82373,88.8135,428
1571223720,369.131,112.737,22.7707,178.176,-1.82373,88.8135,428
1571223720,369.131,112.737,22.7707,178.176,-1.82373,88.8135,428
1571223720,369.131,112.737,22.7707,178.176,-1.82373,88.8135,428
1571223720,369.131,112.737,22.7707,178.176,-1.82373,88.8135,428
1571223720,369.131,112.737,22.7707,178.176,-1.82373,88.8135,428
1571223720,369.131,112.737,22.7707,178.176,-1.82373,88.8135,428
1571223720,369.131,112.737,22.7707,178.176,-1.82373,88.8135,428
1571223720,369.131,112.737,22.7707,178.176,-1.82373,88.8135,428
1571223720,369.131,112.737,22.7707,178.176,-1.82373,88.8135,428
1571223720,369.131,112.737,22.7707,178.176,-1.82373,88.8135,428
1571223720,369.131,112.737,22.7707,178.176,-1.82373,88.8135,428
1571223720,369.131,112.737,22.7707,178.176,-1.82373,88.8135,428
1571223720,369.131,112.737,22.7707,178.176,-1.82373,88.8135,428
1571223720,369.131,112.737,22.7707,178.176,-1.82373,88.8135,428
1571223720,369.131,112.737,22.7707,178.176,-1.82373,88.8135,428
1571223720,369.131,112.737,22.7707,178.176,-1.82373,88.8135,428
1571223720,369.131,112.737,22.7707,178.176,-1.82373,88.8135,428
1571223720,369.131,112.737,22.7707,178.176,-1.82373,88.8135,428
1571223720,369.131,112.737,22.7707,178.176,-1.82373,88.8135,428
1571223720,369.131,112.737,22.7707,178.176,-1.82373,88.8135,428
1571223720,369.131,112.737,22.7707,178.176,-1.82373,88.8135,428
1571223720,369.131,112.737,22.7707,178.176,-1.82373,88.8135,428
1571223720,369.131,112.737,22.7707,178.176,-1.82373,88.8135,428
1571223720,369.131,112.737,22.7707,178.176,-1.82373,88.8135,428
1571223724,369.131,112.737,22.7707,178.176,-1.82373,88.8135,428
1571223724,369.131,112.737,22.7707,178.176,-1.82373,88.8135,428
1571223724,369.131,112.737,22.7707,178.176,-1.82373,88.8135,428
1571223724,369.131,112.737,22.7707,178.176,-1.82373,88.8135,428
1571223724,369.131,112.737,22.7707,178.176,-1.82373,88.8135,428
1571223724,369.131,112.737,22.7707,178.176,-1.82373,88.8135,428
1571223724,369.131,112.737,22.7707,178.176,-1.82373,88.8135,428
1571223724,369.131,112.737,22.7707,178.176,-1.82373,88.8135,428
1571223724,369.131,112.737,22.7707,178.176,-1.82373,88.8135,428
1571223724,369.131,112.737,22.7707,178.176,-1.82373,88.8135,428
1571223724,369.131,112.737,22.7707,178.176,-1.82373,88.8135,428
1571223724,369.131,112.737,22.7707,178.176,-1.82373,88.8135,428
1571223724,369.131,112.737,22.7707,178.176,-1.82373,88.8135,428
1571223724,369.131,112.737,22.7707,178.176,-1.82373,88.8135,428
1571223724,369.131,112.737,22.7707,178.176,-1.82373,88.8135,428
1571223724,369.131,112.737,22.7707,178.176,-1.82373,88.8135,428
1571223724,369.131,112.737,22.7707,178.176,-1.82373,88.8135,428
1571223724,369.131,112.737,22.7707,178.176,-1.82373,88.8135,428
1571223724,369.131,112.737,22.7707,178.176,-1.82373,88.8135,428
1571223724,369.131,112.737,22.7707,178.176,-1.82373,88.8135,428
1571223724,369.131,112.737,22.7707,178.176,-1.82373,88.8135,428
1571223724,369.131,112.737,22.7707,178.176,-1.82373,88.8135,428
1571223724,369.131,112.737,22.7707,178.176,-1.82373,88.8135,428
1571223724,369.131,112.737,22.7707,178.176,-1.82373,88.8135,428
1571223724,369.131,112.737,22.7707,178.176,-1.82373,88.8135,428
1571223724,369.131,112.737,22.7707,178.176,-1.82373,88.8135,428
1571223724,369.131,112.737,22.7707,178.176,-1.82373,88.8135,428
1571223724,369.131,112.737,22.7707,178.176,-1.82373,88.8135,428
1571223724,369.131,112.737,22.7707,178.176,-1.82373,88.8135,428
1571223724,369.131,112.737,22.7707,178.176,-1.82373,88.8135,428
1571223724,369.131,112.737,22.7707,178.176,-1.82373,88.8135,428
1571223724,369.131,112.737,22.7707,178.176,-1.82373,88.8135,428
1571223724,369.243,112.737,22.7707,178.176,-1.82373,88.8135,428
1571223724,369.243,112.737,22.7707,178.176,-1.82373,88.8135,428
1571223724,369.243,112.737,22.7707,178.176,-1.82373,88.8135,428
1571223724,369.243,112.737,22.7707,178.176,-1.82373,88.8135,428
1571223724,369.243,112.737,22.7707,178.176,-1.82373,88.8135,428
1571223724,369.243,112.737,22.7707,178.176,-1.82373,88.8135,428
1571223724,369.243,112.737,22.7707,178.176,-1.82373,88.8135,428
1571223724,369.243,112.737,22.7707,178.176,-1.82373,88.8135,428
1571223724,369.131,112.737,22.7707,178.176,-1.82373,88.8135,428
1571223724,369.131,112.737,22.7707,178.176,-1.82373,88.8135,428
1571223724,369.131,112.737,22.7707,178.176,-1.82373,88.8135,428
1571223724,369.131,112.737,22.7707,178.176,-1.82373,88.8135,428
1571223724,369.131,112.737,22.7707,178.176,-1.82373,88.8135,428
1571223724,369.131,112.737,22.7707,178.176,-1.82373,88.8135,428
1571223724,369.131,112.737,22.7707,178.176,-1.82373,88.8135,428
1571223724,369.131,112.737,22.7707,178.176,-1.82373,88.8135,428
1571223724,369.131,112.737,22.7707,178.176,-1.82373,88.8135,428
1571223724,369.131,112.737,22.7707,178.176,-1.82373,88.8135,428
1571223724,369.131,112.737,22.7707,178.176,-1.82373,88.8135,428
1571223724,369.131,112.737,22.7707,178.176,-1.82373,88.8135,428
1571223724,369.131,112.737,22.7707,178.176,-1.82373,88.8135,428
1571223724,369.131,112.737,22.7707,178.176,-1.82373,88.8135,428
1571223724,369.131,112.737,22.7707,178.176,-1.82373,88.8135,428
1571223724,369.131,112.737,22.7707,178.176,-1.82373,88.8135,428
1571223724,369.131,112.737,22.7707,178.176,-1.82373,88.8135,428
1571223724,369.243,112.737,22.7707,178.176,-1.82373,88.8135,428
1571223724,369.243,112.737,22.7707,178.176,-1.82373,88.8135,428
1571223724,369.243,112.737,22.7707,178.176,-1.82373,88.8135,428
1571223724,369.243,112.737,22.7707,178.176,-1.82373,88.8135,428
1571223724,369.243,112.737,22.7707,178.176,-1.82373,88.8135,428
1571223724,369.243,112.737,22.7707,178.176,-1.82373,88.8135,428
1571223724,369.243,112.737,22.7707,178.176,-1.82373,88.8135,428
1571223724,369.243,112.737,22.7707,178.176,-1.82373,88.8135,428
1571223724,369.243,112.737,22.7707,178.176,-1.82373,88.8135,428
1571223724,369.243,112.737,22.7707,178.176,-1.82373,88.8135,428
1571223724,369.243,112.737,22.7707,178.176,-1.82373,88.8135,428
1571223725,369.243,112.737,22.7707,178.176,-1.82373,88.8135,428
1571223725,369.243,112.737,22.7707,178.176,-1.82373,88.8135,428
1571223725,369.243,112.737,22.7707,178.176,-1.82373,88.8135,428
1571223725,369.243,112.737,22.7707,178.176,-1.82373,88.8135,428
1571223725,369.243,112.737,22.7707,178.176,-1.82373,88.8135,428
1571223725,369.243,112.737,22.7707,178.176,-1.82373,88.8135,428
1571223725,369.243,112.737,22.7707,178.176,-1.82373,88.8135,428
1571223725,369.243,112.737,22.7707,178.176,-1.82373,88.8135,428
1571223725,369.243,112.737,22.7707,178.176,-1.82373,88.8135,428
1571223725,369.243,112.737,22.7707,178.176,-1.82373,88.8135,428
1571223725,369.243,112.737,22.7707,178.176,-1.82373,88.8135,428
1571223725,369.243,112.737,22.7707,178.176,-1.82373,88.8135,428
1571223725,369.243,112.737,22.7707,178.176,-1.82373,88.8135,428
1571223725,369.243,112.737,22.7707,178.176,-1.82373,88.8135,428
1571223725,369.243,112.737,22.7707,178.176,-1.82373,88.8135,428
1571223725,369.243,112.737,22.7707,178.176,-1.82373,88.8135,428
1571223725,369.243,112.737,22.7707,178.176,-1.82373,88.8135,428
1571223725,369.243,112.737,22.7707,178.176,-1.82373,88.8135,428
1571223725,369.243,112.737,22.7707,178.176,-1.82373,88.8135,428
1571223725,369.243,112.737,22.7707,178.176,-1.82373,88.8135,428
1571223725,369.243,112.737,22.7707,178.176,-1.82373,88.8135,428
1571223725,369.243,112.737,22.7707,178.176,-1.82373,88.8135,428
1571223725,369.243,112.737,22.7707,178.176,-1.82373,88.8135,428
1571223725,369.243,112.737,22.7707,178.176,-1.82373,88.8135,428
1571223725,369.243,112.737,22.7707,178.176,-1.82373,88.8135,428
1571223725,369.243,112.737,22.7707,178.176,-1.82373,88.8135,428
1571223725,369.243,112.737,22.7707,178.176,-1.82373,88.8135,428
1571223725,369.243,112.737,22.7707,178.176,-1.82373,88.8135,428
1571223725,369.243,112.737,22.7707,178.176,-1.82373,88.8135,428
1571223725,369.243,112.737,22.7707,178.176,-1.82373,88.8135,428
1571223725,369.243,112.737,22.7707,178.176,-1.82373,88.8135,428
1571223725,369.243,112.737,22.7707,178.176,-1.82373,88.8135,428
1571223725,369.243,112.737,22.7707,178.176,-1.82373,88.8135,428
1571223725,369.243,112.737,22.7707,178.176,-1.82373,88.8135,428
1571223725,369.243,112.737,22.7707,178.176,-1.82373,88.8135,428
1571223725,369.243,112.737,22.7707,178.176,-1.82373,88.8135,428
1571223725,369.243,112.737,22.7707,178.176,-1.82373,88.8135,428
1571223725,369.243,112.737,22.7707,178.176,-1.82373,88.8135,428
1571223725,369.243,112.737,22.7707,178.176,-1.82373,88.8135,428
1571223725,369.243,112.737,22.7707,178.176,-1.82373,88.8135,428
1571223725,369.243,112.737,22.7707,178.176,-1.82373,88.8135,428
1571223725,369.243,112.737,22.7707,178.176,-1.82373,88.8135,428
1571223725,369.243,112.737,22.7707,178.176,-1.82373,88.8135,428
1571223725,369.243,112.737,22.7707,178.176,-1.82373,88.8135,428
1571223725,369.243,112.737,22.7707,178.176,-1.82373,88.8135,428
1571223725,369.243,112.737,22.7707,178.176,-1.82373,88.8135,428
1571223725,369.243,112.737,22.7707,178.176,-1.82373,88.8135,428
1571223725,369.131,112.737,22.7707,178.176,-1.82373,88.8135,428
1571223725,369.131,112.737,22.7707,178.176,-1.82373,88.8135,428
1571223725,369.131,112.737,22.7707,178.176,-1.82373,88.8135,428
1571223725,369.131,112.737,22.7707,178.176,-1.82373,88.8135,428
1571223725,369.131,112.737,22.7707,178.176,-1.82373,88.8135,428
1571223725,369.131,112.737,22.7707,178.176,-1.82373,88.8135,428
1571223725,369.131,112.737,22.7707,178.176,-1.82373,88.8135,428
1571223725,369.131,112.737,22.7707,178.176,-1.82373,88.8135,428
1571223725,369.131,112.737,22.7707,178.176,-1.82373,88.8135,428
1571223725,369.131,112.737,22.7707,178.176,-1.82373,88.8135,428
1571223725,369.131,112.737,22.7707,178.176,-1.82373,88.8135,428
1571223725,369.131,112.737,22.7707,178.176,-1.82373,88.8135,428
1571223725,369.131,112.737,22.7707,178.176,-1.82373,88.8135,428
1571223725,369.131,112.737,22.7707,178.176,-1.82373,88.8135,428
1571223725,369.131,112.737,22.7707,178.176,-1.82373,88.8135,428
1571223725,369.131,112.737,22.7707,178.176,-1.82373,88.8135,428
1571223725,369.131,112.737,22.7707,178.176,-1.82373,88.8135,428
1571223725,369.131,112.737,22.7707,178.176,-1.82373,88.8135,428
1571223725,369.131,112.737,22.7707,178.176,-1.82373,88.8135,428
1571223725,369.131,112.737,22.7707,178.176,-1.82373,88.8135,428
1571223725,369.131,112.737,22.7707,178.176,-1.82373,88.8135,428
1571223725,369.131,112.737,22.7707,178.176,-1.82373,88.8135,428
1571223725,369.131,112.737,22.7707,178.176,-1.82373,88.8135,428
1571223725,369.131,112.737,22.7707,178.176,-1.82373,88.8135,428
1571223725,369.131,112.737,22.7707,178.176,-1.82373,88.8135,428
1571223725,369.131,112.737,22.7707,178.176,-1.82373,88.8135,428
1571223725,369.131,112.737,22.7707,178.176,-1.82373,88.8135,428
1571223725,369.131,112.737,22.7707,178.176,-1.82373,88.8135,428
1571223725,369.131,112.737,22.7707,178.176,-1.82373,88.8135,428
1571223725,369.131,112.737,22.7707,178.176,-1.82373,88.8135,428
1571223725,369.131,112.737,22.7707,178.176,-1.82373,88.8135,428
1571223725,369.131,112.737,22.7707,178.176,-1.82373,88.8135,428
1571223725,369.131,112.737,22.7707,178.176,-1.82373,88.8135,428
1571223725,369.131,112.737,22.7707,178.176,-1.82373,88.8135,428
1571223725,369.131,112.737,22.7707,178.176,-1.82373,88.8135,428
1571223725,369.131,112.737,22.7707,178.176,-1.82373,88.8135,428
1571223725,369.131,112.737,22.7707,178.176,-1.82373,88.8135,428
1571223725,369.131,112.737,22.7707,178.176,-1.82373,88.8135,428
1571223725,369.131,112.737,22.7707,178.176,-1.82373,88.8135,428
1571223725,369.131,112.737,22.7707,178.176,-1.82373,88.8135,428
1571223725,369.131,112.737,22.7707,178.176,-1.82373,88.8135,428
1571223725,369.131,112.737,22.7707,178.176,-1.82373,88.8135,428
1571223725,369.131,112.737,22.7707,178.176,-1.82373,88.8135,428
1571223725,369.131,112.737,22.7707,178.176,-1.82373,88.8135,428
1571223725,369.131,112.737,22.7707,178.176,-1.82373,88.8135,428
1571223725,369.131,112.737,22.7707,178.176,-1.82373,88.8135,428
1571223725,369.131,112.737,22.7707,178.176,-1.82373,88.8135,428
1571223725,369.131,112.737,22.7707,178.176,-1.82373,88.8135,428
1571223725,369.131,112.737,22.7707,178.176,-1.82373,88.8135,428
1571223725,369.131,112.737,22.7707,178.176,-1.82373,88.8135,428
1571223725,369.131,112.737,22.7707,178.176,-1.82373,88.8135,428
1571223725,369.131,112.737,22.7707,178.176,-1.82373,88.8135,428
1571223725,369.131,112.737,22.7707,178.176,-1.82373,88.8135,428
1571223726,369.131,112.737,22.7707,178.176,-1.82373,88.8135,428
1571223726,369.131,112.737,22.7707,178.176,-1.82373,88.8135,428
1571223726,369.131,112.737,22.7707,178.176,-1.82373,88.8135,428
1571223726,369.131,112.737,22.7707,178.176,-1.82373,88.8135,428
1571223726,369.131,112.737,22.7707,178.176,-1.82373,88.8135,428
1571223726,369.131,112.737,22.7707,178.176,-1.82373,88.8135,428
1571223726,369.131,112.737,22.7707,178.176,-1.82373,88.8135,428
1571223726,369.131,112.737,22.7707,178.176,-1.82373,88.8135,428
1571223726,369.131,112.737,22.7707,178.176,-1.82373,88.8135,428
1571223726,369.131,112.737,22.7707,178.176,-1.82373,88.8135,428
1571223726,369.131,112.737,22.7707,178.176,-1.82373,88.8135,428
1571223726,369.131,112.737,22.7707,178.176,-1.82373,88.8135,428
1571223726,369.131,112.737,22.7707,178.176,-1.82373,88.8135,428
1571223726,369.131,112.737,22.7707,178.176,-1.82373,88.8135,428
1571223726,369.131,112.737,22.7707,178.176,-1.82373,88.8135,428
1571223726,369.131,112.737,22.7707,178.176,-1.82373,88.8135,428
1571223726,369.131,112.737,22.7707,178.176,-1.82373,88.8135,428
1571223726,369.131,112.737,22.7707,178.176,-1.82373,88.8135,428
1571223726,369.131,112.737,22.7707,178.176,-1.82373,88.8135,428
1571223726,369.131,112.737,22.7707,178.176,-1.82373,88.8135,428
1571223726,369.131,112.737,22.7707,178.176,-1.82373,88.8135,428
1571223726,369.131,112.737,22.7707,178.176,-1.82373,88.8135,428
1571223726,369.131,112.737,22.7707,178.176,-1.82373,88.8135,428
1571223726,369.131,112.737,22.7707,178.176,-1.82373,88.8135,428
1571223726,369.131,112.737,22.7707,178.176,-1.82373,88.8135,428
1571223726,369.131,112.737,22.7707,178.176,-1.82373,88.8135,428
1571223726,369.131,112.737,22.7707,178.176,-1.82373,88.8135,428
1571223726,369.131,112.737,22.7707,178.176,-1.82373,88.8135,428
1571223726,369.131,112.737,22.7707,178.176,-1.82373,88.8135,428
1571223726,369.131,112.737,22.7707,178.176,-1.82373,88.8135,428
1571223726,369.131,112.737,22.7707,178.176,-1.82373,88.8135,428
1571223726,369.131,112.737,22.7707,178.176,-1.82373,88.8135,428
1571223726,369.131,112.737,22.7707,178.176,-1.82373,88.8135,428
1571223726,369.131,112.737,22.7707,178.176,-1.82373,88.8135,428
1571223726,369.131,112.737,22.7707,178.176,-1.82373,88.8135,428
1571223726,369.131,112.737,22.7707,178.176,-1.82373,88.8135,428
1571223726,369.131,112.737,22.7707,178.176,-1.82373,88.8135,428
1571223726,369.131,112.737,22.7707,178.176,-1.82373,88.8135,428
1571223726,369.131,112.737,22.7707,178.176,-1.82373,88.8135,428
1571223726,369.131,112.737,22.7707,178.176,-1.82373,88.8135,428
1571223726,369.243,112.737,22.7707,178.176,-1.82373,88.8135,428
1571223726,369.243,112.737,22.7707,178.176,-1.82373,88.8135,428
1571223726,369.243,112.737,22.7707,178.176,-1.82373,88.8135,428
1571223726,369.243,112.737,22.7707,178.176,-1.82373,88.8135,428
1571223726,369.243,112.737,22.7707,178.176,-1.82373,88.8135,428
1571223726,369.243,112.737,22.7707,178.176,-1.82373,88.8135,428
1571223726,369.243,112.737,22.7707,178.176,-1.82373,88.8135,428
1571223726,369.243,112.737,22.7707,178.176,-1.82373,88.8135,428
1571223726,369.243,112.737,22.7707,178.176,-1.82373,88.8135,428
1571223726,369.243,112.737,22.7707,178.176,-1.82373,88.8135,428
1571223726,369.243,112.737,22.7707,178.176,-1.82373,88.8135,428
1571223726,369.243,112.737,22.7707,178.176,-1.82373,88.8135,428
1571223726,369.243,112.737,22.7707,178.176,-1.82373,88.8135,428
1571223726,369.243,112.737,22.7707,178.176,-1.82373,88.8135,428
1571223726,369.243,112.737,22.7707,178.176,-1.82373,88.8135,428
1571223726,369.243,112.737,22.7707,178.176,-1.82373,88.8135,428
1571223726,369.243,112.737,22.7707,178.176,-1.82373,88.8135,428
1571223726,369.243,112.737,22.7707,178.176,-1.82373,88.8135,428
1571223726,369.243,112.737,22.7707,178.176,-1.82373,88.8135,428
1571223726,369.243,112.737,22.7707,178.176,-1.82373,88.8135,428
1571223726,369.243,112.737,22.7707,178.176,-1.82373,88.8135,428
1571223726,369.243,112.737,22.7707,178.176,-1.82373,88.8135,428
1571223726,369.243,112.737,22.7707,178.176,-1.82373,88.8135,428
1571223726,369.243,112.737,22.7707,178.176,-1.82373,88.8135,428
1571223726,369.243,112.737,22.7707,178.176,-1.82373,88.8135,428
1571223726,369.243,112.737,22.7707,178.176,-1.82373,88.8135,428
1571223726,369.243,112.737,22.7707,178.176,-1.82373,88.8135,428
1571223726,369.243,112.737,22.7707,178.176,-1.82373,88.8135,428
1571223726,369.243,112.737,22.7707,178.176,-1.82373,88.8135,428
1571223726,369.243,112.737,22.7707,178.176,-1.82373,88.8135,428
1571223726,369.131,112.737,22.7707,178.176,-1.82373,88.8135,428
1571223726,369.131,112.737,22.7707,178.176,-1.82373,88.8135,428
1571223726,369.131,112.737,22.7707,178.176,-1.82373,88.8135,428
1571223726,369.131,112.737,22.7707,178.176,-1.82373,88.8135,428
1571223726,369.131,112.737,22.7707,178.176,-1.82373,88.8135,428
1571223726,369.131,112.737,22.7707,178.176,-1.82373,88.8135,428
1571223726,369.131,112.737,22.7707,178.176,-1.82373,88.8135,428
1571223726,369.131,112.737,22.7707,178.176,-1.82373,88.8135,428
1571223726,369.131,112.737,22.7707,178.176,-1.82373,88.8135,428
1571223726,369.131,112.737,22.7707,178.176,-1.82373,88.8135,428
1571223726,369.131,112.737,22.7707,178.176,-1.82373,88.8135,428
1571223726,369.131,112.737,22.7707,178.176,-1.82373,88.8135,428
1571223726,369.131,112.737,22.7707,178.176,-1.82373,88.8135,428
1571223726,369.131,112.737,22.7707,178.176,-1.82373,88.8135,428
1571223726,369.131,112.737,22.7707,178.176,-1.82373,88.8135,428
1571223726,369.131,112.737,22.7707,178.176,-1.82373,88.8135,428
1571223726,369.131,112.737,22.7707,178.176,-1.82373,88.8135,428
1571223726,369.131,112.737,22.7707,178.176,-1.82373,88.8135,428
1571223726,369.131,112.737,22.7707,178.176,-1.82373,88.8135,428
1571223726,369.131,112.737,22.7707,178.176,-1.82373,88.8135,428
1571223726,369.131,112.737,22.7707,178.176,-1.82373,88.8135,428
1571223726,369.131,112.737,22.7707,178.176,-1.82373,88.8135,428
1571223726,369.131,112.737,22.7707,178.176,-1.82373,88.8135,428
1571223726,369.131,112.737,22.7707,178.176,-1.82373,88.8135,428
1571223726,369.131,112.737,22.7707,178.176,-1.82373,88.8135,428
1571223726,369.131,112.737,22.7707,178.176,-1.82373,88.8135,428
1571223726,369.131,112.737,22.7707,178.176,-1.82373,88.8135,428
1571223726,369.131,112.737,22.7707,178.176,-1.82373,88.8135,428
1571223726,369.131,112.737,22.7707,178.176,-1.82373,88.8135,428
1571223726,369.131,112.737,22.7707,178.176,-1.82373,88.8135,428
1571223727,369.131,112.737,22.7707,178.176,-1.82373,88.8135,428
1571223727,369.131,112.737,22.7707,178.176,-1.82373,88.8135,428
1571223727,369.131,112.737,22.7707,178.176,-1.82373,88.8135,428
1571223727,369.131,112.737,22.7707,178.176,-1.82373,88.8135,428
1571223727,369.131,112.737,22.7707,178.176,-1.82373,88.8135,428
1571223727,369.131,112.737,22.7707,178.176,-1.82373,88.8135,428
1571223727,369.131,112.737,22.7707,178.176,-1.82373,88.8135,428
1571223727,369.131,112.737,22.7707,178.176,-1.82373,88.8135,428
1571223727,369.131,112.737,22.7707,178.176,-1.82373,88.8135,428
1571223727,369.131,112.737,22.7707,178.176,-1.82373,88.8135,428
1571223727,369.131,112.737,22.7707,178.176,-1.82373,88.8135,428
1571223727,369.131,112.737,22.7707,178.176,-1.82373,88.8135,428
1571223727,369.131,112.737,22.7707,178.176,-1.82373,88.8135,428
1571223727,369.131,112.737,22.7707,178.176,-1.82373,88.8135,428
1571223727,369.131,112.737,22.7707,178.176,-1.82373,88.8135,428
1571223727,369.131,112.737,22.7707,178.176,-1.82373,88.8135,428
1571223727,369.131,112.737,22.7707,178.176,-1.82373,88.8135,428
1571223727,369.131,112.737,22.7707,178.176,-1.82373,88.8135,428
1571223727,369.131,112.737,22.7707,178.176,-1.82373,88.8135,428
1571223727,369.131,112.737,22.7707,178.176,-1.82373,88.8135,428
1571223727,369.131,112.737,22.7707,178.176,-1.82373,88.8135,428
1571223727,369.131,112.737,22.7707,178.176,-1.82373,88.8135,428
1571223727,369.131,112.737,22.7707,178.176,-1.82373,88.8135,428
1571223727,369.131,112.737,22.7707,178.176,-1.82373,88.8135,428
1571223727,369.131,112.737,22.7707,178.176,-1.82373,88.8135,428
1571223727,369.131,112.737,22.7707,178.176,-1.82373,88.8135,428
1571223727,369.131,112.737,22.7707,178.176,-1.82373,88.8135,428
1571223727,369.131,112.737,22.7707,178.176,-1.82373,88.8135,428
1571223727,369.131,112.737,22.7707,178.176,-1.82373,88.8135,428
1571223727,369.131,112.737,22.7707,178.176,-1.82373,88.8135,428
1571223727,369.131,112.737,22.7707,178.176,-1.82373,88.8354,428
1571223727,369.131,112.737,22.7707,178.176,-1.82373,88.8354,428
1571223727,369.131,112.737,22.7707,178.176,-1.82373,88.8354,428
1571223727,369.131,112.737,22.7707,178.176,-1.82373,88.8354,428
1571223727,369.131,112.737,22.7707,178.176,-1.82373,88.8354,428
1571223727,369.131,112.737,22.7707,178.176,-1.82373,88.8354,428
1571223727,369.131,112.737,22.7707,178.176,-1.82373,88.8354,428
1571223727,369.131,112.737,22.7707,178.176,-1.82373,88.8354,428
1571223727,369.131,112.737,22.7707,178.176,-1.82373,88.8354,428
1571223727,369.131,112.737,22.7707,178.176,-1.82373,88.8354,428
1571223727,369.131,112.737,22.7707,178.176,-1.82373,88.8354,428
1571223727,369.131,112.737,22.7707,178.176,-1.82373,88.8354,428
1571223727,369.131,112.737,22.7707,178.176,-1.82373,88.8354,428
1571223727,369.131,112.737,22.7707,178.176,-1.82373,88.8135,428
1571223727,369.131,112.737,22.7707,178.176,-1.82373,88.8135,428
1571223727,369.131,112.737,22.7707,178.176,-1.82373,88.8135,428
1571223727,369.131,112.737,22.7707,178.176,-1.82373,88.8135,428
1571223727,369.131,112.737,22.7707,178.176,-1.82373,88.8135,428
1571223727,369.131,112.737,22.7707,178.176,-1.82373,88.8135,428
1571223727,369.131,112.737,22.7707,178.176,-1.82373,88.8135,428
1571223727,369.131,112.737,22.7707,178.176,-1.82373,88.8135,428
1571223727,369.131,112.737,22.7707,178.176,-1.82373,88.8135,428
1571223727,369.131,112.737,22.7707,178.176,-1.82373,88.8135,428
1571223727,369.131,112.737,22.7707,178.176,-1.82373,88.8135,428
1571223727,369.243,112.737,22.7707,178.176,-1.82373,88.8135,428
1571223727,369.243,112.737,22.7707,178.176,-1.82373,88.8135,428
1571223727,369.243,112.737,22.7707,178.176,-1.82373,88.8135,428
1571223727,369.243,112.737,22.7707,178.176,-1.82373,88.8135,428
1571223727,369.243,112.737,22.7707,178.176,-1.82373,88.8135,428
1571223727,369.243,112.737,22.7707,178.176,-1.82373,88.8135,428
1571223727,369.243,112.737,22.8823,178.176,-1.82373,88.8135,428
1571223727,369.243,112.737,22.8823,178.176,-1.82373,88.8135,428
1571223727,369.243,112.737,22.8823,178.176,-1.82373,88.8135,428
1571223727,369.243,112.737,22.8823,178.176,-1.82373,88.8135,428
1571223727,369.243,112.737,22.7707,178.176,-1.82373,88.8135,428
1571223727,369.243,112.737,22.7707,178.176,-1.82373,88.8135,428
1571223727,369.131,112.737,22.7707,178.176,-1.82373,88.8135,428
1571223727,369.131,112.737,22.7707,178.176,-1.82373,88.8135,428
1571223727,369.131,112.737,22.7707,178.176,-1.82373,88.8135,428
1571223727,369.131,112.737,22.7707,178.176,-1.82373,88.8135,428
1571223727,369.131,112.737,22.7707,178.176,-1.82373,88.8135,428
1571223727,369.131,112.737,22.7707,178.176,-1.82373,88.8135,428
1571223727,369.131,112.737,22.7707,178.176,-1.82373,88.8135,428
1571223727,369.131,112.737,22.7707,178.176,-1.82373,88.8135,428
1571223727,369.131,112.737,22.7707,178.176,-1.82373,88.8135,428
1571223727,369.131,112.737,22.7707,178.176,-1.82373,88.8135,428
1571223727,369.131,112.737,22.7707,178.176,-1.82373,88.8135,428
1571223727,369.131,112.737,22.7707,178.176,-1.82373,88.8135,428
1571223727,369.131,112.737,22.7707,178.176,-1.82373,88.8135,428
1571223727,369.131,112.737,22.7707,178.176,-1.82373,88.8135,428
1571223727,369.131,112.737,22.7707,178.176,-1.82373,88.8135,428
1571223727,369.131,112.737,22.7707,178.176,-1.82373,88.8135,428
1571223727,369.131,112.737,22.7707,178.176,-1.82373,88.8135,428
1571223727,369.131,112.737,22.7707,178.176,-1.82373,88.8135,428
1571223727,369.131,112.737,22.7707,178.176,-1.82373,88.8135,428
1571223727,369.131,112.737,22.7707,178.176,-1.82373,88.8135,428
1571223727,369.131,112.737,22.7707,178.176,-1.82373,88.8135,428
1571223727,369.131,112.737,22.7707,178.176,-1.82373,88.8135,428
1571223727,369.131,112.737,22.7707,178.176,-1.82373,88.8135,428
1571223727,369.131,112.737,22.7707,178.176,-1.82373,88.8135,428
1571223727,369.131,112.737,22.7707,178.176,-1.82373,88.8135,428
1571223727,369.131,112.737,22.7707,178.176,-1.82373,88.8135,428
1571223727,369.131,112.737,22.7707,178.176,-1.82373,88.8135,428
1571223727,369.131,112.737,22.7707,178.176,-1.82373,88.8135,428
1571223727,369.131,112.737,22.7707,178.176,-1.82373,88.8135,428
1571223727,369.131,112.737,22.7707,178.176,-1.82373,88.8135,428
1571223727,369.131,112.737,22.7707,178.176,-1.82373,88.8135,428
1571223727,369.131,112.737,22.7707,178.176,-1.82373,88.8135,428
1571223727,369.131,112.737,22.7707,178.176,-1.82373,88.8135,428
1571223727,369.131,112.737,22.7707,178.176,-1.82373,88.8135,428
1571223728,369.131,112.737,22.7707,178.176,-1.82373,88.8135,424
1571223728,369.131,112.737,22.7707,178.176,-1.82373,88.8135,424
1571223728,369.131,112.737,22.7707,178.176,-1.82373,88.8135,424
1571223728,369.131,112.737,22.7707,178.176,-1.82373,88.8135,424
1571223728,369.131,112.737,22.7707,178.176,-1.82373,88.8135,424
1571223728,369.131,112.737,22.7707,178.176,-1.82373,88.8135,424
1571223728,369.131,112.737,22.7707,178.176,-1.82373,88.8135,424
1571223728,369.131,112.737,22.7707,178.176,-1.82373,88.8135,424
1571223728,369.131,112.737,22.7707,178.176,-1.82373,88.8135,424
1571223728,369.131,112.737,22.7707,178.176,-1.82373,88.8135,424
1571223728,369.131,112.737,22.7707,178.176,-1.82373,88.8135,424
1571223728,369.131,112.737,22.7707,178.176,-1.82373,88.8135,424
1571223728,369.131,112.737,22.7707,178.176,-1.82373,88.8135,424
1571223728,369.131,112.737,22.7707,178.176,-1.82373,88.8135,424
1571223728,369.131,112.737,22.7707,178.176,-1.82373,88.8135,424
1571223728,369.131,112.737,22.7707,178.176,-1.82373,88.8135,424
1571223728,369.131,112.737,22.7707,178.176,-1.82373,88.8135,424
1571223728,369.131,112.849,22.7707,178.176,-1.82373,88.8135,424
1571223728,369.131,112.849,22.7707,178.176,-1.82373,88.8135,424
1571223728,369.131,112.849,22.7707,178.176,-1.82373,88.8135,424
1571223728,369.131,112.849,22.7707,178.176,-1.82373,88.8135,424
1571223728,369.131,112.849,22.7707,178.176,-1.82373,88.8135,424
1571223728,369.131,112.849,22.7707,178.176,-1.82373,88.8135,424
1571223728,369.131,112.849,22.7707,178.176,-1.82373,88.8135,424
1571223728,369.131,112.737,22.7707,178.176,-1.82373,88.8135,424
1571223728,369.131,112.737,22.7707,178.176,-1.82373,88.8135,424
1571223728,369.131,112.737,22.7707,178.176,-1.82373,88.8135,424
1571223728,369.131,112.737,22.7707,178.176,-1.82373,88.8135,428
1571223728,369.131,112.737,22.7707,178.176,-1.82373,88.8135,428
1571223728,369.131,112.737,22.7707,178.176,-1.82373,88.8135,428
1571223728,369.131,112.737,22.7707,178.176,-1.82373,88.8135,428
1571223728,369.131,112.737,22.7707,178.176,-1.82373,88.8135,428
1571223728,369.131,112.737,22.7707,178.176,-1.82373,88.8135,428
1571223728,369.131,112.737,22.7707,178.176,-1.82373,88.8135,428
1571223728,369.131,112.737,22.7707,178.176,-1.82373,88.8135,428
1571223728,369.131,112.737,22.7707,178.176,-1.82373,88.8135,428
1571223728,369.131,112.737,22.7707,178.176,-1.82373,88.8135,428
1571223728,369.131,112.737,22.7707,178.176,-1.82373,88.8135,428
1571223728,369.131,112.737,22.7707,178.176,-1.82373,88.8135,428
1571223728,369.131,112.737,22.7707,178.176,-1.82373,88.8135,428
1571223728,369.131,112.737,22.7707,178.176,-1.82373,88.8135,428
1571223728,369.131,112.737,22.7707,178.176,-1.82373,88.8135,428
1571223728,369.131,112.737,22.7707,178.176,-1.82373,88.8135,428
1571223728,369.131,112.737,22.7707,178.176,-1.82373,88.8135,428
1571223728,369.131,112.737,22.7707,178.176,-1.82373,88.8135,428
1571223728,369.131,112.737,22.7707,178.176,-1.82373,88.8135,428
1571223728,369.131,112.737,22.7707,178.176,-1.82373,88.8135,428
1571223728,369.131,112.737,22.7707,178.176,-1.82373,88.8135,428
1571223728,369.131,112.737,22.7707,178.176,-1.82373,88.8135,428
1571223728,369.131,112.737,22.7707,178.176,-1.82373,88.8135,428
1571223728,369.131,112.737,22.7707,178.176,-1.82373,88.8135,428
1571223728,369.131,112.737,22.7707,178.176,-1.82373,88.8135,428
1571223728,369.131,112.737,22.7707,178.176,-1.82373,88.8135,428
1571223728,369.131,112.737,22.7707,178.176,-1.82373,88.8135,428
1571223728,369.131,112.737,22.7707,178.176,-1.82373,88.8135,428
1571223728,369.131,112.737,22.7707,178.176,-1.82373,88.8135,428
1571223728,369.131,112.737,22.7707,178.176,-1.82373,88.8135,428
1571223728,369.131,112.737,22.7707,178.176,-1.82373,88.8135,428
1571223728,369.131,112.737,22.7707,178.176,-1.82373,88.8135,428
1571223728,369.131,112.737,22.7707,178.176,-1.82373,88.8135,428
1571223728,369.131,112.737,22.7707,178.176,-1.82373,88.8135,428
1571223728,369.243,112.737,22.7707,178.176,-1.82373,88.8135,428
1571223728,369.243,112.737,22.7707,178.176,-1.82373,88.8135,428
1571223728,369.243,112.737,22.7707,178.176,-1.82373,88.8135,428
1571223728,369.243,112.737,22.7707,178.176,-1.82373,88.8135,428
1571223728,369.243,112.737,22.7707,178.176,-1.82373,88.8135,428
1571223728,369.243,112.737,22.7707,178.176,-1.82373,88.8135,428
1571223728,369.243,112.737,22.7707,178.176,-1.82373,88.8135,428
1571223728,369.131,112.737,22.7707,178.176,-1.82373,88.8135,428
1571223728,369.131,112.737,22.7707,178.176,-1.82373,88.8135,428
1571223728,369.131,112.737,22.7707,178.176,-1.82373,88.8135,428
1571223728,369.131,112.737,22.7707,178.176,-1.82373,88.8135,428
1571223728,369.131,112.737,22.7707,178.176,-1.82373,88.8135,428
1571223728,369.131,112.737,22.7707,178.176,-1.82373,88.8135,428
1571223728,369.131,112.737,22.7707,178.176,-1.82373,88.8135,428
1571223728,369.131,112.737,22.7707,178.176,-1.82373,88.8135,428
1571223728,369.131,112.737,22.7707,178.176,-1.82373,88.8135,428
1571223728,369.131,112.737,22.7707,178.176,-1.82373,88.8135,428
1571223728,369.131,112.737,22.7707,178.176,-1.82373,88.8135,428
1571223728,369.131,112.737,22.7707,178.176,-1.82373,88.8135,428
1571223728,369.131,112.737,22.7707,178.176,-1.82373,88.8135,428
1571223728,369.131,112.737,22.7707,178.176,-1.82373,88.8135,428
1571223728,369.131,112.737,22.7707,178.176,-1.82373,88.8135,428
1571223728,369.131,112.737,22.7707,178.176,-1.82373,88.8135,428
1571223728,369.131,112.737,22.7707,178.176,-1.82373,88.8135,428
1571223728,369.131,112.737,22.7707,178.176,-1.82373,88.8135,428
1571223728,369.131,112.737,22.7707,178.176,-1.82373,88.8135,428
1571223728,369.131,112.737,22.7707,178.176,-1.82373,88.8135,428
1571223728,369.131,112.737,22.7707,178.176,-1.82373,88.8135,428
1571223728,369.131,112.737,22.7707,178.176,-1.82373,88.8135,428
1571223728,369.131,112.737,22.7707,178.176,-1.82373,88.8135,428
1571223728,369.131,112.737,22.7707,178.176,-1.82373,88.8135,428
1571223728,369.131,112.737,22.7707,178.176,-1.82373,88.8135,428
1571223728,369.131,112.737,22.7707,178.176,-1.82373,88.8135,428
1571223728,369.131,112.737,22.7707,178.176,-1.82373,88.8135,428
1571223728,369.131,112.737,22.7707,178.176,-1.82373,88.8135,428
1571223728,369.131,112.737,22.7707,178.176,-1.82373,88.8135,428
1571223728,369.131,112.737,22.7707,178.176,-1.82373,88.8135,428
1571223728,369.131,112.737,22.7707,178.176,-1.82373,88.8135,428
1571223728,369.131,112.737,22.7707,178.176,-1.82373,88.8135,428
1571223729,369.131,112.737,22.7707,178.176,-1.82373,88.8135,428
1571223729,369.131,112.737,22.7707,178.176,-1.82373,88.8135,428
1571223729,369.131,112.737,22.7707,178.176,-1.82373,88.8135,428
1571223729,369.131,112.737,22.7707,178.176,-1.82373,88.8135,428
1571223729,369.131,112.737,22.7707,178.176,-1.82373,88.8135,428
1571223729,369.131,112.737,22.7707,178.176,-1.82373,88.8135,428
1571223729,369.243,112.737,22.7707,178.176,-1.82373,88.8135,428
1571223729,369.243,112.737,22.7707,178.176,-1.82373,88.8135,428
1571223729,369.243,112.737,22.7707,178.176,-1.82373,88.8135,428
1571223729,369.243,112.737,22.7707,178.176,-1.82373,88.8135,428
1571223729,369.243,112.737,22.7707,178.176,-1.82373,88.8135,428
1571223729,369.243,112.737,22.7707,178.176,-1.82373,88.8135,428
1571223729,369.243,112.737,22.7707,178.176,-1.82373,88.8135,428
1571223729,369.243,112.737,22.7707,178.176,-1.82373,88.8135,428
1571223729,369.243,112.737,22.7707,178.176,-1.82373,88.8135,428
1571223729,369.243,112.737,22.7707,178.176,-1.82373,88.8135,428
1571223729,369.243,112.737,22.7707,178.176,-1.82373,88.8135,428
1571223729,369.243,112.737,22.7707,178.176,-1.82373,88.8135,428
1571223729,369.243,112.737,22.7707,178.176,-1.82373,88.8135,428
1571223729,369.243,112.737,22.7707,178.176,-1.82373,88.8135,428
1571223729,369.243,112.737,22.7707,178.176,-1.82373,88.8135,428
1571223729,369.131,112.737,22.7707,178.176,-1.82373,88.8135,428
1571223729,369.131,112.737,22.7707,178.176,-1.82373,88.8135,428
1571223729,369.131,112.737,22.7707,178.176,-1.82373,88.8135,428
1571223729,369.131,112.737,22.7707,178.176,-1.82373,88.8135,428
1571223729,369.131,112.737,22.7707,178.176,-1.82373,88.8135,428
1571223729,369.131,112.737,22.7707,178.176,-1.82373,88.8135,428
1571223729,369.131,112.737,22.7707,178.176,-1.82373,88.8135,428
1571223729,369.131,112.737,22.7707,178.176,-1.82373,88.8135,428
1571223729,369.131,112.737,22.7707,178.176,-1.82373,88.8135,428
1571223729,369.131,112.737,22.7707,178.176,-1.82373,88.8135,428
1571223729,369.131,112.737,22.7707,178.176,-1.82373,88.8135,428
1571223732,369.243,112.737,22.7707,178.154,-1.82373,88.8135,428
1571223732,369.243,112.737,22.7707,178.154,-1.82373,88.8135,428
1571223732,369.243,112.737,22.7707,178.154,-1.82373,88.8135,428
1571223732,369.243,112.737,22.7707,178.154,-1.82373,88.8354,428
1571223732,369.243,112.737,22.7707,178.154,-1.82373,88.8354,428
1571223732,369.243,112.737,22.7707,178.154,-1.82373,88.8354,428
1571223732,369.243,112.737,22.7707,178.154,-1.82373,88.8354,428
1571223732,369.243,112.737,22.7707,178.154,-1.82373,88.8354,428
1571223732,369.243,112.737,22.7707,178.154,-1.82373,88.8354,428
1571223732,369.243,112.737,22.7707,178.154,-1.82373,88.8354,428
1571223732,369.243,112.737,22.7707,178.154,-1.82373,88.8354,428
1571223732,369.243,112.737,22.7707,178.154,-1.82373,88.8354,428
1571223732,369.243,112.737,22.7707,178.154,-1.82373,88.8354,428
1571223732,369.243,112.737,22.7707,178.154,-1.82373,88.8354,428
1571223732,369.243,112.737,22.7707,178.154,-1.82373,88.8354,428
1571223732,369.243,112.737,22.7707,178.154,-1.82373,88.8354,428
1571223732,369.243,112.737,22.7707,178.154,-1.82373,88.8354,428
1571223732,369.243,112.737,22.7707,178.154,-1.82373,88.8354,428
1571223732,369.243,112.737,22.7707,178.154,-1.82373,88.8354,428
1571223732,369.243,112.737,22.7707,178.154,-1.82373,88.8354,428
1571223732,369.243,112.737,22.7707,178.154,-1.82373,88.8354,428
1571223732,369.243,112.737,22.7707,178.154,-1.82373,88.8354,428
1571223732,369.243,112.737,22.7707,178.154,-1.82373,88.8354,428
1571223732,369.243,112.737,22.7707,178.154,-1.82373,88.8354,428
1571223732,369.243,112.737,22.7707,178.154,-1.82373,88.8354,428
1571223732,369.243,112.737,22.7707,178.154,-1.82373,88.8354,428
1571223732,369.243,112.737,22.7707,178.154,-1.82373,88.8354,428
1571223732,369.243,112.737,22.7707,178.154,-1.82373,88.8354,428
1571223732,369.243,112.737,22.7707,178.154,-1.82373,88.8354,428
1571223732,369.243,112.737,22.7707,178.154,-1.82373,88.8354,428
1571223732,369.243,112.737,22.7707,178.154,-1.82373,88.8354,428
1571223732,369.243,112.737,22.7707,178.154,-1.82373,88.8354,428
1571223732,369.243,112.737,22.7707,178.154,-1.82373,88.8354,428
1571223732,369.243,112.737,22.7707,178.154,-1.82373,88.8354,428
1571223732,369.243,112.737,22.7707,178.154,-1.82373,88.8354,428
1571223732,369.243,112.737,22.7707,178.154,-1.82373,88.8354,428
1571223732,369.243,112.737,22.7707,178.154,-1.82373,88.8354,428
1571223732,369.243,112.737,22.7707,178.154,-1.82373,88.8354,428
1571223732,369.243,112.737,22.7707,178.154,-1.82373,88.8354,428
1571223732,369.131,112.737,22.7707,178.154,-1.82373,88.8354,428
1571223732,369.131,112.737,22.7707,178.154,-1.82373,88.8354,428
1571223732,369.131,112.737,22.7707,178.154,-1.82373,88.8354,428
1571223732,369.131,112.737,22.7707,178.154,-1.82373,88.8354,428
1571223732,369.131,112.737,22.7707,178.154,-1.82373,88.8354,428
1571223732,369.131,112.737,22.7707,178.154,-1.82373,88.8354,428
1571223732,369.131,112.737,22.7707,178.154,-1.82373,88.8354,428
1571223732,369.131,112.737,22.7707,178.176,-1.82373,88.8354,428
1571223732,369.131,112.737,22.7707,178.176,-1.82373,88.8354,428
1571223733,369.131,112.737,22.7707,178.176,-1.82373,88.8354,428
1571223733,369.131,112.737,22.7707,178.176,-1.82373,88.8354,428
1571223733,369.131,112.737,22.7707,178.176,-1.82373,88.8354,428
1571223733,369.131,112.737,22.7707,178.176,-1.82373,88.8354,428
1571223733,369.131,112.737,22.7707,178.176,-1.82373,88.8354,428
1571223733,369.131,112.737,22.7707,178.176,-1.82373,88.8354,428
1571223733,369.131,112.737,22.7707,178.176,-1.82373,88.8135,428
1571223733,369.131,112.737,22.7707,178.176,-1.82373,88.8135,428
1571223733,369.131,112.737,22.7707,178.176,-1.82373,88.8135,428
1571223733,369.131,112.737,22.7707,178.176,-1.82373,88.8135,428
1571223733,369.131,112.737,22.7707,178.176,-1.82373,88.8135,428
1571223733,369.131,112.737,22.7707,178.176,-1.82373,88.8135,428
1571223733,369.131,112.737,22.7707,178.176,-1.82373,88.8135,428
1571223733,369.131,112.737,22.7707,178.176,-1.82373,88.8135,428
1571223733,369.131,112.737,22.7707,178.176,-1.82373,88.8135,428
1571223733,369.131,112.737,22.7707,178.176,-1.82373,88.8135,428
1571223733,369.131,112.737,22.7707,178.176,-1.82373,88.8135,428
1571223733,369.131,112.737,22.7707,178.176,-1.82373,88.8135,428
1571223733,369.131,112.737,22.7707,178.176,-1.82373,88.8135,428
1571223733,369.131,112.737,22.7707,178.176,-1.82373,88.8135,428
1571223733,369.131,112.737,22.7707,178.176,-1.82373,88.8135,428
1571223733,369.131,112.737,22.7707,178.176,-1.82373,88.8135,428
1571223733,369.131,112.737,22.7707,178.176,-1.82373,88.8135,428
1571223733,369.131,112.737,22.7707,178.176,-1.82373,88.8135,428
1571223733,369.131,112.737,22.7707,178.176,-1.82373,88.8135,428
1571223733,369.131,112.737,22.7707,178.176,-1.82373,88.8135,428
1571223733,369.131,112.737,22.8823,178.176,-1.82373,88.8135,428
1571223733,369.131,112.737,22.8823,178.176,-1.82373,88.8135,428
1571223733,369.131,112.737,22.8823,178.176,-1.82373,88.8135,428
1571223733,369.131,112.737,22.8823,178.176,-1.82373,88.8135,428
1571223733,369.131,112.737,22.8823,178.176,-1.82373,88.8135,428
1571223733,369.131,112.737,22.8823,178.176,-1.82373,88.8135,428
1571223733,369.131,112.737,22.8823,178.176,-1.82373,88.8135,428
1571223733,369.131,112.737,22.8823,178.176,-1.82373,88.8135,428
1571223733,369.131,112.737,22.8823,178.176,-1.82373,88.8135,428
1571223733,369.131,112.737,22.8823,178.176,-1.82373,88.8135,428
1571223733,369.131,112.737,22.8823,178.176,-1.82373,88.8135,428
1571223733,369.131,112.737,22.8823,178.176,-1.82373,88.8135,428
1571223733,369.131,112.737,22.8823,178.176,-1.82373,88.8135,428
1571223733,369.131,112.737,22.8823,178.176,-1.82373,88.8135,428
1571223733,369.131,112.737,22.8823,178.176,-1.82373,88.8135,428
1571223733,369.131,112.737,22.8823,178.176,-1.82373,88.8135,428
1571223733,369.243,112.737,22.7707,178.176,-1.82373,88.8135,428
1571223733,369.243,112.737,22.7707,178.176,-1.82373,88.8135,428
1571223733,369.243,112.737,22.7707,178.176,-1.82373,88.8135,428
1571223733,369.243,112.737,22.7707,178.176,-1.82373,88.8135,428
1571223733,369.243,112.737,22.7707,178.176,-1.82373,88.8135,428
1571223733,369.243,112.737,22.7707,178.176,-1.82373,88.8135,428
1571223733,369.243,112.737,22.7707,178.176,-1.82373,88.8135,428
1571223733,369.243,112.737,22.7707,178.176,-1.82373,88.8135,428
1571223733,369.243,112.737,22.7707,178.176,-1.82373,88.8135,428
1571223733,369.243,112.737,22.7707,178.176,-1.82373,88.8135,428
1571223733,369.243,112.737,22.7707,178.176,-1.82373,88.8135,428
1571223733,369.243,112.737,22.7707,178.176,-1.82373,88.8135,428
1571223733,369.243,112.737,22.7707,178.176,-1.82373,88.8135,428
1571223733,369.243,112.737,22.7707,178.176,-1.82373,88.8135,428
1571223733,369.131,112.737,22.7707,178.176,-1.82373,88.8135,428
1571223733,369.131,112.737,22.8823,178.176,-1.82373,88.8135,428
1571223733,369.131,112.737,22.8823,178.176,-1.82373,88.8135,428
1571223733,369.131,112.737,22.8823,178.176,-1.82373,88.8135,428
1571223733,369.131,112.737,22.8823,178.176,-1.82373,88.8135,428
1571223733,369.131,112.737,22.8823,178.176,-1.82373,88.8135,428
1571223733,369.131,112.737,22.7707,178.176,-1.82373,88.8135,428
1571223733,369.131,112.737,22.7707,178.176,-1.82373,88.8135,428
1571223733,369.131,112.737,22.7707,178.176,-1.82373,88.8354,428
1571223733,369.131,112.737,22.7707,178.176,-1.82373,88.8354,428
1571223733,369.131,112.737,22.7707,178.176,-1.82373,88.8354,428
1571223733,369.131,112.737,22.7707,178.176,-1.82373,88.8354,428
1571223733,369.131,112.737,22.7707,178.176,-1.82373,88.8354,428
1571223733,369.131,112.737,22.7707,178.176,-1.82373,88.8354,428
1571223733,369.131,112.737,22.7707,178.176,-1.82373,88.8354,428
1571223733,369.131,112.737,22.7707,178.176,-1.82373,88.8354,428
1571223733,369.131,112.737,22.7707,178.154,-1.82373,88.8354,428
1571223733,369.131,112.737,22.7707,178.154,-1.82373,88.8354,428
1571223733,369.131,112.737,22.7707,178.154,-1.82373,88.8354,428
1571223733,369.131,112.737,22.7707,178.154,-1.82373,88.8354,428
1571223733,369.131,112.737,22.7707,178.154,-1.82373,88.8354,428
1571223733,369.131,112.737,22.7707,178.154,-1.82373,88.8354,428
1571223733,369.131,112.737,22.7707,178.154,-1.82373,88.8354,428
1571223733,369.131,112.737,22.7707,178.154,-1.82373,88.8354,428
1571223733,369.131,112.737,22.7707,178.154,-1.82373,88.8354,428
1571223733,369.131,112.737,22.7707,178.154,-1.82373,88.8135,428
1571223733,369.131,112.737,22.7707,178.154,-1.82373,88.8135,428
1571223733,369.131,112.737,22.7707,178.154,-1.82373,88.8135,428
1571223733,369.131,112.737,22.7707,178.154,-1.82373,88.8135,428
1571223733,369.131,112.737,22.7707,178.154,-1.82373,88.8135,428
1571223733,369.131,112.737,22.7707,178.154,-1.82373,88.8135,428
1571223733,369.131,112.737,22.7707,178.154,-1.82373,88.8135,428
1571223733,369.131,112.737,22.7707,178.154,-1.82373,88.8135,428
1571223733,369.131,112.737,22.7707,178.154,-1.82373,88.8135,428
1571223733,369.131,112.737,22.7707,178.154,-1.82373,88.8135,428
1571223733,369.131,112.737,22.7707,178.154,-1.82373,88.8135,428
1571223733,369.131,112.737,22.7707,178.154,-1.82373,88.8135,428
1571223733,369.131,112.737,22.7707,178.154,-1.82373,88.8135,428
1571223733,369.131,112.737,22.7707,178.154,-1.82373,88.8135,428
1571223733,369.131,112.737,22.7707,178.154,-1.82373,88.8135,428
1571223733,369.131,112.737,22.7707,178.154,-1.82373,88.8135,428
1571223733,369.131,112.737,22.7707,178.154,-1.82373,88.8135,428
1571223733,369.131,112.737,22.7707,178.154,-1.82373,88.8135,428
1571223733,369.131,112.737,22.7707,178.154,-1.82373,88.8135,428
1571223734,369.131,112.737,22.7707,178.154,-1.82373,88.8135,428
1571223734,369.131,112.737,22.7707,178.154,-1.82373,88.8135,428
1571223734,369.131,112.737,22.7707,178.154,-1.82373,88.8135,428
1571223734,369.131,112.737,22.7707,178.154,-1.82373,88.8135,428
1571223734,369.131,112.737,22.7707,178.154,-1.82373,88.8135,428
1571223734,369.131,112.737,22.7707,178.154,-1.82373,88.8135,428
1571223734,369.131,112.737,22.7707,178.154,-1.82373,88.8135,428
1571223734,369.131,112.737,22.7707,178.154,-1.82373,88.8135,428
1571223734,369.131,112.737,22.7707,178.154,-1.82373,88.8135,428
1571223734,369.131,112.737,22.7707,178.154,-1.82373,88.8135,428
1571223734,369.131,112.737,22.7707,178.154,-1.82373,88.8135,428
1571223734,369.131,112.737,22.7707,178.154,-1.82373,88.8135,428
1571223734,369.131,112.737,22.7707,178.154,-1.82373,88.8135,428
1571223734,369.131,112.737,22.7707,178.154,-1.82373,88.8135,428
1571223734,369.131,112.737,22.7707,178.154,-1.82373,88.8135,428
1571223734,369.131,112.737,22.7707,178.154,-1.82373,88.8135,428
1571223734,369.131,112.737,22.7707,178.154,-1.82373,88.8135,428
1571223734,369.131,112.737,22.7707,178.154,-1.82373,88.8135,428
1571223734,369.243,112.737,22.7707,178.154,-1.82373,88.8135,428
1571223734,369.243,112.737,22.7707,178.154,-1.82373,88.8135,428
1571223734,369.243,112.737,22.7707,178.154,-1.82373,88.8135,428
1571223734,369.243,112.737,22.7707,178.154,-1.82373,88.8135,428
1571223734,369.131,112.737,22.7707,178.154,-1.82373,88.8135,428
1571223734,369.131,112.737,22.7707,178.154,-1.82373,88.8135,428
1571223734,369.131,112.737,22.7707,178.154,-1.82373,88.8354,428
1571223734,369.131,112.737,22.7707,178.154,-1.82373,88.8354,428
1571223734,369.131,112.737,22.7707,178.154,-1.82373,88.8354,428
1571223734,369.131,112.737,22.7707,178.154,-1.82373,88.8354,428
1571223734,369.131,112.737,22.7707,178.154,-1.82373,88.8354,428
1571223734,369.131,112.737,22.7707,178.154,-1.82373,88.8354,428
1571223734,369.131,112.737,22.7707,178.154,-1.82373,88.8354,428
1571223734,369.131,112.737,22.7707,178.154,-1.82373,88.8354,428
1571223734,369.131,112.737,22.7707,178.154,-1.82373,88.8354,428
1571223734,369.131,112.737,22.7707,178.154,-1.82373,88.8354,428
1571223734,369.131,112.737,22.7707,178.154,-1.82373,88.8354,428
1571223734,369.131,112.737,22.7707,178.154,-1.82373,88.8354,428
1571223734,369.131,112.737,22.7707,178.154,-1.82373,88.8354,428
1571223734,369.131,112.737,22.7707,178.154,-1.82373,88.8354,428
1571223734,369.131,112.737,22.7707,178.154,-1.82373,88.8354,428
1571223734,369.131,112.737,22.7707,178.154,-1.82373,88.8354,428
1571223734,369.131,112.737,22.7707,178.154,-1.82373,88.8354,428
1571223734,369.131,112.737,22.7707,178.154,-1.82373,88.8354,428
1571223734,369.131,112.737,22.7707,178.154,-1.82373,88.8135,428
1571223734,369.131,112.737,22.7707,178.154,-1.82373,88.8135,428
1571223734,369.131,112.737,22.7707,178.154,-1.82373,88.8135,428
1571223734,369.131,112.737,22.7707,178.154,-1.82373,88.8135,428
1571223734,369.131,112.737,22.7707,178.154,-1.82373,88.8135,428
1571223734,369.131,112.737,22.7707,178.154,-1.82373,88.8135,428
1571223734,369.131,112.737,22.7707,178.154,-1.82373,88.8135,428
1571223734,369.131,112.737,22.7707,178.154,-1.82373,88.8135,428
1571223734,369.131,112.737,22.7707,178.154,-1.82373,88.8135,428
1571223734,369.131,112.737,22.7707,178.154,-1.82373,88.8135,428
1571223734,369.131,112.737,22.7707,178.154,-1.82373,88.8135,428
1571223734,369.131,112.737,22.7707,178.154,-1.82373,88.8354,428
1571223734,369.131,112.737,22.7707,178.154,-1.82373,88.8354,428
1571223734,369.131,112.737,22.7707,178.154,-1.82373,88.8354,428
1571223734,369.131,112.737,22.7707,178.154,-1.82373,88.8135,428
1571223734,369.131,112.737,22.7707,178.154,-1.82373,88.8135,428
1571223734,369.131,112.737,22.7707,178.154,-1.82373,88.8135,428
1571223734,369.131,112.737,22.7707,178.154,-1.82373,88.8354,428
1571223734,369.131,112.737,22.7707,178.154,-1.82373,88.8354,428
1571223734,369.131,112.737,22.7707,178.154,-1.82373,88.8354,428
1571223734,369.131,112.737,22.7707,178.154,-1.82373,88.8354,428
1571223734,369.131,112.737,22.7707,178.154,-1.82373,88.8354,428
1571223734,369.131,112.737,22.7707,178.154,-1.82373,88.8354,428
1571223734,369.131,112.737,22.7707,178.154,-1.82373,88.8354,428
1571223734,369.131,112.737,22.7707,178.154,-1.82373,88.8354,428
1571223734,369.131,112.737,22.7707,178.154,-1.82373,88.8354,428
1571223734,369.131,112.737,22.7707,178.154,-1.82373,88.8354,428
1571223734,369.131,112.737,22.7707,178.154,-1.82373,88.8354,428
1571223734,369.131,112.737,22.7707,178.154,-1.82373,88.8354,428
1571223734,369.131,112.737,22.7707,178.154,-1.82373,88.8354,428
1571223734,369.131,112.737,22.7707,178.154,-1.82373,88.8354,428
1571223734,369.131,112.737,22.7707,178.154,-1.82373,88.8354,428
1571223734,369.131,112.737,22.7707,178.154,-1.82373,88.8354,428
1571223734,369.131,112.737,22.7707,178.154,-1.82373,88.8354,428
1571223734,369.131,112.737,22.7707,178.154,-1.82373,88.8354,428
1571223734,369.131,112.737,22.7707,178.154,-1.82373,88.8354,428
1571223734,369.131,112.737,22.7707,178.154,-1.82373,88.8354,428
1571223734,369.131,112.737,22.7707,178.154,-1.82373,88.8354,428
1571223734,369.131,112.737,22.7707,178.154,-1.82373,88.8354,428
1571223734,369.131,112.737,22.7707,178.154,-1.82373,88.8354,428
1571223734,369.131,112.737,22.7707,178.176,-1.82373,88.8354,428
1571223734,369.131,112.737,22.7707,178.176,-1.82373,88.8354,428
1571223734,369.131,112.737,22.7707,178.176,-1.82373,88.8354,428
1571223734,369.131,112.737,22.7707,178.176,-1.82373,88.8354,428
1571223734,369.131,112.737,22.7707,178.176,-1.82373,88.8354,428
1571223734,369.131,112.737,22.7707,178.176,-1.82373,88.8354,428
1571223734,369.131,112.737,22.7707,178.176,-1.82373,88.8354,428
1571223734,369.131,112.737,22.7707,178.176,-1.82373,88.8354,428
1571223734,369.131,112.737,22.7707,178.176,-1.82373,88.8354,428
1571223734,369.131,112.737,22.7707,178.176,-1.82373,88.8354,428
1571223734,369.131,112.737,22.7707,178.176,-1.82373,88.8354,428
1571223734,369.131,112.737,22.7707,178.176,-1.82373,88.8354,428
1571223734,369.131,112.737,22.7707,178.176,-1.82373,88.8354,428
1571223734,369.131,112.737,22.7707,178.176,-1.82373,88.8354,428
1571223734,369.131,112.737,22.7707,178.176,-1.82373,88.8354,428
1571223734,369.131,112.737,22.7707,178.176,-1.82373,88.8354,428
1571223734,369.131,112.737,22.7707,178.176,-1.82373,88.8354,428
1571223734,369.131,112.737,22.7707,178.176,-1.82373,88.8354,428
1571223735,369.131,112.737,22.7707,178.176,-1.82373,88.8354,428
1571223735,369.131,112.737,22.7707,178.176,-1.82373,88.8354,428
1571223735,369.131,112.737,22.7707,178.176,-1.82373,88.8354,428
1571223735,369.131,112.737,22.7707,178.176,-1.82373,88.8354,428
1571223735,369.131,112.737,22.7707,178.176,-1.82373,88.8354,428
1571223735,369.131,112.737,22.7707,178.176,-1.82373,88.8354,428
1571223735,369.131,112.737,22.7707,178.176,-1.82373,88.8354,428
1571223735,369.131,112.737,22.7707,178.176,-1.82373,88.8354,428
1571223735,369.131,112.737,22.7707,178.176,-1.82373,88.8354,428
1571223735,369.131,112.737,22.7707,178.154,-1.82373,88.8354,428
1571223735,369.131,112.737,22.7707,178.154,-1.82373,88.8354,428
1571223735,369.131,112.737,22.7707,178.154,-1.82373,88.8354,428
1571223735,369.131,112.737,22.7707,178.154,-1.82373,88.8354,428
1571223735,369.131,112.737,22.7707,178.154,-1.82373,88.8354,428
1571223735,369.131,112.737,22.7707,178.154,-1.82373,88.8354,428
1571223735,369.131,112.737,22.7707,178.154,-1.82373,88.8354,428
1571223735,369.131,112.737,22.7707,178.154,-1.82373,88.8354,428
1571223735,369.131,112.737,22.7707,178.154,-1.82373,88.8354,428
1571223735,369.131,112.737,22.7707,178.154,-1.82373,88.8354,428
1571223735,369.131,112.737,22.7707,178.154,-1.82373,88.8354,428
1571223735,369.131,112.737,22.7707,178.154,-1.82373,88.8354,428
1571223735,369.131,112.737,22.7707,178.154,-1.82373,88.8354,428
1571223735,369.131,112.737,22.7707,178.154,-1.82373,88.8354,428
1571223735,369.131,112.737,22.7707,178.154,-1.82373,88.8354,428
1571223735,369.131,112.737,22.7707,178.154,-1.82373,88.8354,428
1571223735,369.131,112.737,22.7707,178.154,-1.82373,88.8354,428
1571223735,369.131,112.737,22.7707,178.154,-1.82373,88.8354,428
1571223735,369.131,112.737,22.7707,178.154,-1.82373,88.8354,428
1571223735,369.131,112.737,22.7707,178.154,-1.82373,88.8354,428
1571223735,369.131,112.737,22.7707,178.154,-1.82373,88.8354,428
1571223735,369.131,112.737,22.7707,178.154,-1.82373,88.8354,428
1571223735,369.131,112.737,22.7707,178.154,-1.82373,88.8354,428
1571223735,369.131,112.737,22.7707,178.154,-1.82373,88.8354,428
1571223735,369.131,112.737,22.7707,178.154,-1.82373,88.8354,428
1571223735,369.131,112.737,22.7707,178.154,-1.82373,88.8354,428
1571223735,369.131,112.737,22.7707,178.154,-1.82373,88.8354,428
1571223735,369.131,112.737,22.7707,178.154,-1.82373,88.8354,428
1571223735,369.131,112.737,22.7707,178.154,-1.82373,88.8354,428
1571223735,369.131,112.737,22.7707,178.154,-1.82373,88.8354,428
1571223735,369.131,112.737,22.7707,178.176,-1.82373,88.8354,428
1571223735,369.131,112.737,22.7707,178.176,-1.82373,88.8354,428
1571223735,369.131,112.737,22.7707,178.176,-1.82373,88.8354,428
1571223735,369.131,112.737,22.7707,178.176,-1.82373,88.8354,428
1571223735,369.131,112.737,22.7707,178.176,-1.82373,88.8354,428
1571223735,369.131,112.737,22.7707,178.176,-1.82373,88.8354,428
1571223735,369.131,112.737,22.7707,178.176,-1.82373,88.8354,428
1571223735,369.131,112.737,22.7707,178.176,-1.82373,88.8354,428
1571223735,369.131,112.737,22.7707,178.176,-1.82373,88.8354,428
1571223735,369.131,112.737,22.7707,178.176,-1.82373,88.8354,428
1571223735,369.131,112.737,22.7707,178.176,-1.82373,88.8354,428
1571223735,369.131,112.737,22.7707,178.154,-1.82373,88.8354,428
1571223735,369.131,112.737,22.7707,178.154,-1.82373,88.8354,428
1571223735,369.131,112.737,22.7707,178.154,-1.82373,88.8354,428
1571223735,369.131,112.737,22.7707,178.154,-1.82373,88.8354,428
1571223735,369.131,112.737,22.7707,178.154,-1.82373,88.8354,428
1571223735,369.131,112.737,22.7707,178.154,-1.82373,88.8354,428
1571223735,369.131,112.737,22.7707,178.154,-1.82373,88.8354,428
1571223735,369.131,112.737,22.7707,178.154,-1.82373,88.8354,428
1571223735,369.131,112.737,22.7707,178.154,-1.82373,88.8354,428
1571223735,369.243,112.737,22.7707,178.154,-1.82373,88.8354,428
1571223735,369.243,112.737,22.7707,178.154,-1.82373,88.8354,428
1571223735,369.243,112.737,22.7707,178.154,-1.82373,88.8354,428
1571223735,369.243,112.737,22.7707,178.154,-1.82373,88.8354,428
1571223735,369.243,112.737,22.7707,178.154,-1.82373,88.8354,428
1571223735,369.243,112.737,22.7707,178.154,-1.82373,88.8354,428
1571223735,369.243,112.737,22.7707,178.154,-1.82373,88.8354,428
1571223735,369.243,112.737,22.7707,178.154,-1.82373,88.8354,428
1571223735,369.243,112.737,22.7707,178.154,-1.82373,88.8354,428
1571223735,369.243,112.737,22.7707,178.154,-1.82373,88.8354,428
1571223735,369.243,112.737,22.7707,178.154,-1.82373,88.8354,428
1571223735,369.243,112.737,22.7707,178.154,-1.82373,88.8354,428
1571223735,369.243,112.737,22.7707,178.154,-1.82373,88.8354,428
1571223735,369.243,112.737,22.7707,178.154,-1.82373,88.8354,428
1571223735,369.243,112.737,22.7707,178.154,-1.82373,88.8354,428
1571223735,369.243,112.737,22.7707,178.154,-1.82373,88.8354,428
1571223735,369.243,112.737,22.7707,178.154,-1.82373,88.8354,428
1571223735,369.243,112.737,22.7707,178.176,-1.82373,88.8354,428
1571223735,369.243,112.737,22.7707,178.176,-1.82373,88.8354,428
1571223735,369.243,112.737,22.7707,178.176,-1.82373,88.8354,428
1571223735,369.243,112.737,22.7707,178.176,-1.82373,88.8354,428
1571223735,369.243,112.737,22.7707,178.176,-1.82373,88.8354,428
1571223735,369.243,112.737,22.7707,178.176,-1.82373,88.8354,428
1571223735,369.243,112.737,22.7707,178.176,-1.82373,88.8354,428
1571223735,369.243,112.737,22.7707,178.176,-1.82373,88.8354,428
1571223735,369.243,112.737,22.7707,178.154,-1.82373,88.8354,428
1571223735,369.243,112.737,22.7707,178.154,-1.82373,88.8354,428
1571223735,369.243,112.737,22.7707,178.154,-1.82373,88.8354,428
1571223735,369.243,112.737,22.7707,178.154,-1.82373,88.8354,428
1571223735,369.243,112.737,22.7707,178.154,-1.82373,88.8354,428
1571223735,369.243,112.737,22.7707,178.154,-1.82373,88.8354,428
1571223735,369.243,112.737,22.7707,178.154,-1.82373,88.8354,428
1571223735,369.243,112.737,22.7707,178.154,-1.82373,88.8354,428
1571223735,369.243,112.737,22.7707,178.154,-1.82373,88.8354,428
1571223735,369.243,112.737,22.7707,178.154,-1.82373,88.8354,428
1571223735,369.243,112.737,22.7707,178.154,-1.82373,88.8354,428
1571223735,369.243,112.737,22.7707,178.154,-1.82373,88.8354,424
1571223735,369.243,112.737,22.7707,178.154,-1.82373,88.8354,428
1571223735,369.243,112.737,22.7707,178.154,-1.82373,88.8354,428
1571223735,369.243,112.737,22.7707,178.154,-1.82373,88.8354,428
1571223735,369.131,112.737,22.7707,178.154,-1.82373,88.8354,428
1571223736,369.131,112.737,22.7707,178.154,-1.82373,88.8354,428
1571223736,369.131,112.737,22.7707,178.154,-1.82373,88.8354,428
1571223736,369.131,112.737,22.7707,178.154,-1.82373,88.8354,428
1571223736,369.131,112.737,22.7707,178.154,-1.82373,88.8354,428
1571223736,369.131,112.737,22.7707,178.154,-1.82373,88.8135,428
1571223736,369.131,112.737,22.7707,178.154,-1.82373,88.8135,428
1571223736,369.131,112.737,22.7707,178.154,-1.82373,88.8135,428
1571223736,369.131,112.737,22.7707,178.176,-1.82373,88.8135,428
1571223736,369.131,112.737,22.7707,178.176,-1.82373,88.8354,428
1571223736,369.131,112.737,22.7707,178.176,-1.82373,88.8354,428
1571223736,369.131,112.737,22.7707,178.176,-1.82373,88.8354,428
1571223736,369.131,112.737,22.7707,178.176,-1.82373,88.8354,428
1571223736,369.131,112.737,22.7707,178.176,-1.82373,88.8354,428
1571223736,369.131,112.737,22.7707,178.176,-1.82373,88.8354,428
1571223736,369.131,112.737,22.7707,178.176,-1.82373,88.8354,428
1571223736,369.131,112.737,22.7707,178.154,-1.82373,88.8354,428
1571223736,369.131,112.737,22.7707,178.154,-1.82373,88.8354,428
1571223736,369.131,112.737,22.7707,178.154,-1.82373,88.8354,428
1571223736,369.131,112.737,22.7707,178.154,-1.82373,88.8354,428
1571223736,369.131,112.737,22.7707,178.154,-1.82373,88.8354,428
1571223736,369.131,112.737,22.7707,178.154,-1.82373,88.8354,428
1571223736,369.131,112.737,22.7707,178.154,-1.82373,88.8354,428
1571223736,369.131,112.737,22.7707,178.154,-1.82373,88.8354,428
1571223736,369.131,112.737,22.7707,178.154,-1.82373,88.8354,428
1571223736,369.131,112.737,22.7707,178.154,-1.82373,88.8354,428
1571223736,369.131,112.737,22.7707,178.154,-1.82373,88.8354,428
1571223736,369.131,112.737,22.7707,178.154,-1.82373,88.8354,428
1571223736,369.131,112.737,22.7707,178.154,-1.82373,88.8354,428
1571223736,369.131,112.737,22.7707,178.154,-1.82373,88.8354,428
1571223736,369.131,112.737,22.7707,178.154,-1.82373,88.8354,428
1571223736,369.131,112.737,22.7707,178.176,-1.82373,88.8354,428
1571223736,369.131,112.737,22.7707,178.176,-1.82373,88.8354,428
1571223736,369.131,112.737,22.7707,178.176,-1.82373,88.8354,428
1571223736,369.131,112.737,22.7707,178.176,-1.82373,88.8354,428
1571223736,369.131,112.737,22.7707,178.176,-1.82373,88.8135,428
1571223736,369.131,112.737,22.7707,178.176,-1.82373,88.8135,428
1571223736,369.131,112.737,22.7707,178.176,-1.82373,88.8135,428
1571223736,369.131,112.737,22.7707,178.176,-1.82373,88.8135,428
1571223736,369.131,112.737,22.7707,178.154,-1.82373,88.8135,428
1571223736,369.131,112.737,22.7707,178.154,-1.82373,88.8135,428
1571223736,369.243,112.737,22.7707,178.154,-1.82373,88.8135,428
1571223736,369.243,112.737,22.7707,178.154,-1.82373,88.8135,428
1571223736,369.243,112.737,22.7707,178.154,-1.82373,88.8135,428
1571223736,369.243,112.737,22.7707,178.154,-1.82373,88.8135,428
1571223736,369.243,112.737,22.7707,178.154,-1.82373,88.8135,428
1571223736,369.243,112.737,22.7707,178.154,-1.82373,88.8135,428
1571223736,369.243,112.737,22.7707,178.154,-1.82373,88.8135,428
1571223736,369.243,112.737,22.7707,178.154,-1.82373,88.8135,428
1571223736,369.243,112.737,22.7707,178.176,-1.82373,88.8135,428
1571223736,369.243,112.737,22.7707,178.176,-1.82373,88.8135,428
1571223736,369.243,112.737,22.7707,178.176,-1.82373,88.8135,428
1571223736,369.243,112.737,22.7707,178.176,-1.82373,88.8135,428
1571223736,369.131,112.737,22.7707,178.176,-1.82373,88.8135,428
1571223736,369.131,112.737,22.7707,178.176,-1.82373,88.8135,428
1571223736,369.131,112.737,22.7707,178.176,-1.82373,88.8135,428
1571223736,369.243,112.737,22.7707,178.176,-1.82373,88.8135,428
1571223736,369.243,112.737,22.7707,178.176,-1.82373,88.8135,424
1571223736,369.243,112.737,22.7707,178.176,-1.82373,88.8135,424
1571223736,369.243,112.737,22.7707,178.176,-1.82373,88.8135,424
1571223736,369.243,112.737,22.7707,178.176,-1.82373,88.8135,424
1571223736,369.243,112.737,22.7707,178.176,-1.82373,88.8135,424
1571223736,369.243,112.737,22.7707,178.176,-1.82373,88.8135,424
1571223736,369.243,112.737,22.7707,178.176,-1.82373,88.8135,424
1571223736,369.243,112.737,22.7707,178.176,-1.82373,88.8135,424
1571223736,369.243,112.737,22.7707,178.154,-1.82373,88.8135,424
1571223736,369.243,112.737,22.7707,178.154,-1.82373,88.8135,424
1571223736,369.243,112.737,22.7707,178.154,-1.82373,88.8135,424
1571223736,369.243,112.737,22.7707,178.154,-1.82373,88.8135,424
1571223736,369.243,112.737,22.7707,178.154,-1.82373,88.8135,424
1571223736,369.243,112.737,22.7707,178.154,-1.82373,88.8135,428
1571223736,369.243,112.737,22.7707,178.154,-1.82373,88.8354,428
1571223736,369.243,112.737,22.7707,178.154,-1.82373,88.8354,428
1571223736,369.243,112.737,22.7707,178.154,-1.82373,88.8354,428
1571223736,369.243,112.737,22.7707,178.154,-1.82373,88.8354,428
1571223736,369.243,112.737,22.7707,178.154,-1.82373,88.8354,428
1571223736,369.243,112.737,22.7707,178.154,-1.82373,88.8354,428
1571223736,369.243,112.737,22.7707,178.154,-1.82373,88.8354,428
1571223736,369.243,112.737,22.7707,178.154,-1.82373,88.8354,428
1571223736,369.243,112.737,22.7707,178.154,-1.82373,88.8354,428
1571223736,369.243,112.737,22.7707,178.154,-1.82373,88.8354,428
1571223736,369.243,112.737,22.7707,178.154,-1.82373,88.8135,428
1571223736,369.243,112.737,22.7707,178.154,-1.82373,88.8135,424
1571223736,369.243,112.737,22.7707,178.154,-1.82373,88.8135,424
1571223736,369.243,112.737,22.7707,178.154,-1.82373,88.8135,424
1571223736,369.243,112.737,22.7707,178.154,-1.82373,88.8135,424
1571223736,369.243,112.737,22.7707,178.154,-1.82373,88.8135,424
1571223736,369.243,112.737,22.7707,178.154,-1.82373,88.8135,424
1571223736,369.243,112.737,22.7707,178.154,-1.82373,88.8135,424
1571223736,369.243,112.737,22.7707,178.154,-1.82373,88.8135,424
1571223736,369.243,112.737,22.7707,178.154,-1.82373,88.8135,428
1571223736,369.243,112.737,22.7707,178.154,-1.82373,88.8135,428
1571223736,369.243,112.737,22.7707,178.154,-1.82373,88.8135,428
1571223736,369.243,112.737,22.7707,178.154,-1.82373,88.8135,428
1571223736,369.243,112.737,22.7707,178.154,-1.82373,88.8135,428
1571223736,369.243,112.737,22.7707,178.154,-1.82373,88.8135,428
1571223736,369.243,112.737,22.7707,178.154,-1.82373,88.8135,428
1571223736,369.243,112.737,22.7707,178.154,-1.82373,88.8135,428
1571223736,369.243,112.737,22.7707,178.154,-1.82373,88.8135,428
1571223736,369.243,112.737,22.7707,178.154,-1.82373,88.8135,428
1571223736,369.243,112.737,22.7707,178.154,-1.82373,88.8135,428
1571223737,369.243,112.737,22.7707,178.154,-1.82373,88.8135,428
1571223737,369.243,112.737,22.7707,178.154,-1.82373,88.8135,424
1571223737,369.243,112.737,22.7707,178.154,-1.82373,88.8135,424
1571223737,369.243,112.737,22.7707,178.154,-1.82373,88.8135,428
1571223737,369.243,112.737,22.7707,178.154,-1.82373,88.8135,428
1571223737,369.243,112.737,22.7707,178.154,-1.82373,88.8135,428
1571223737,369.243,112.737,22.7707,178.154,-1.82373,88.8135,428
1571223737,369.243,112.737,22.7707,178.154,-1.82373,88.8135,428
1571223737,369.243,112.737,22.7707,178.154,-1.82373,88.8354,428
1571223737,369.243,112.737,22.7707,178.154,-1.82373,88.8354,428
1571223737,369.243,112.737,22.7707,178.154,-1.82373,88.8354,428
1571223737,369.243,112.737,22.7707,178.154,-1.82373,88.8354,428
1571223737,369.243,112.737,22.7707,178.154,-1.82373,88.8354,428
1571223737,369.243,112.737,22.7707,178.176,-1.82373,88.8135,428
1571223737,369.243,112.737,22.7707,178.176,-1.82373,88.8135,428
1571223737,369.131,112.737,22.7707,178.176,-1.82373,88.8135,428
1571223737,369.131,112.737,22.7707,178.176,-1.82373,88.8135,428
1571223737,369.131,112.737,22.7707,178.176,-1.82373,88.8135,428
1571223737,369.131,112.737,22.7707,178.176,-1.82373,88.8135,428
1571223737,369.131,112.737,22.7707,178.176,-1.82373,88.8135,428
1571223737,369.131,112.737,22.7707,178.176,-1.82373,88.8135,428
1571223737,369.131,112.737,22.7707,178.176,-1.82373,88.8135,428
1571223737,369.131,112.737,22.7707,178.176,-1.82373,88.8135,428
1571223737,369.131,112.737,22.7707,178.154,-1.82373,88.8135,428
1571223737,369.131,112.737,22.7707,178.154,-1.82373,88.8135,428
1571223737,369.131,112.737,22.7707,178.154,-1.82373,88.8135,428
1571223737,369.131,112.737,22.7707,178.154,-1.82373,88.8135,428
1571223737,369.243,112.737,22.7707,178.154,-1.82373,88.8135,428
1571223737,369.243,112.737,22.7707,178.154,-1.82373,88.8135,428
1571223737,369.243,112.737,22.7707,178.154,-1.82373,88.8135,428
1571223737,369.243,112.737,22.7707,178.154,-1.82373,88.8135,428
1571223737,369.243,112.737,22.7707,178.154,-1.82373,88.8135,428
1571223737,369.243,112.737,22.7707,178.154,-1.82373,88.8135,428
1571223737,369.243,112.737,22.7707,178.154,-1.82373,88.8135,428
1571223737,369.243,112.737,22.7707,178.154,-1.82373,88.8135,428
1571223737,369.243,112.737,22.7707,178.154,-1.82373,88.8135,428
1571223737,369.131,112.737,22.7707,178.154,-1.82373,88.8135,428
1571223737,369.131,112.737,22.7707,178.154,-1.82373,88.8135,428
1571223737,369.131,112.737,22.7707,178.154,-1.82373,88.8135,428
1571223737,369.131,112.737,22.7707,178.154,-1.82373,88.8135,428
1571223737,369.131,112.737,22.7707,178.176,-1.82373,88.8135,428
1571223737,369.131,112.737,22.7707,178.176,-1.82373,88.8135,428
1571223737,369.131,112.737,22.7707,178.176,-1.82373,88.8135,428
1571223737,369.131,112.737,22.7707,178.176,-1.82373,88.8135,428
1571223737,369.131,112.737,22.7707,178.176,-1.82373,88.8135,428
1571223737,369.131,112.737,22.7707,178.176,-1.82373,88.8135,428
1571223737,369.131,112.737,22.7707,178.176,-1.82373,88.8135,428
1571223737,369.131,112.737,22.7707,178.176,-1.82373,88.8135,428
1571223737,369.131,112.737,22.7707,178.176,-1.82373,88.8135,428
1571223737,369.131,112.737,22.7707,178.176,-1.82373,88.8135,428
1571223737,369.131,112.737,22.7707,178.176,-1.82373,88.8135,428
1571223737,369.131,112.737,22.7707,178.176,-1.82373,88.8135,428
1571223740,369.131,112.737,22.7707,178.198,-1.77979,88.8135,428
1571223740,369.131,112.737,22.7707,178.198,-1.77979,88.8135,428
1571223740,369.131,112.737,22.7707,178.198,-1.77979,88.8135,428
1571223740,369.131,112.737,22.7707,178.198,-1.77979,88.8135,428
1571223740,369.131,112.737,22.7707,178.198,-1.77979,88.8135,428
1571223740,369.131,112.737,22.7707,178.198,-1.77979,88.8135,428
1571223740,369.131,112.737,22.7707,178.198,-1.77979,88.8135,428
1571223740,369.131,112.737,22.7707,178.198,-1.77979,88.8135,428
1571223740,369.131,112.737,22.7707,178.198,-1.77979,88.8135,428
1571223740,369.131,112.737,22.7707,178.198,-1.77979,88.8135,428
1571223740,369.131,112.737,22.7707,178.198,-1.77979,88.8135,428
1571223740,369.131,112.849,22.7707,178.198,-1.77979,88.8135,428
1571223740,369.131,112.849,22.7707,178.198,-1.77979,88.8135,428
1571223740,369.131,112.849,22.7707,178.198,-1.77979,88.8135,428
1571223740,369.131,112.849,22.7707,178.198,-1.77979,88.8135,428
1571223740,369.131,112.849,22.7707,178.198,-1.77979,88.8135,428
1571223740,369.131,112.849,22.7707,178.198,-1.77979,88.8135,428
1571223740,369.131,112.849,22.7707,178.198,-1.77979,88.8135,428
1571223740,369.131,112.849,22.7707,178.198,-1.77979,88.8135,428
1571223740,369.131,112.849,22.7707,178.198,-1.77979,88.8135,428
1571223740,369.131,112.849,22.7707,178.198,-1.77979,88.8135,428
1571223740,369.131,112.737,22.7707,178.198,-1.77979,88.8135,428
1571223740,369.131,112.737,22.7707,178.198,-1.77979,88.8135,428
1571223740,369.131,112.737,22.7707,178.198,-1.77979,88.8135,428
1571223740,369.131,112.737,22.7707,178.198,-1.77979,88.8135,428
1571223740,369.131,112.737,22.7707,178.198,-1.77979,88.8135,428
1571223740,369.131,112.737,22.7707,178.198,-1.77979,88.8135,428
1571223740,369.131,112.737,22.7707,178.198,-1.77979,88.8135,428
1571223740,369.131,112.737,22.7707,178.198,-1.77979,88.8135,428
1571223740,369.131,112.737,22.7707,178.198,-1.77979,88.8135,428
1571223740,369.131,112.737,22.7707,178.198,-1.77979,88.8135,428
1571223740,369.131,112.737,22.7707,178.198,-1.77979,88.8135,428
1571223740,369.131,112.737,22.7707,178.198,-1.77979,88.8135,428
1571223740,369.131,112.737,22.7707,178.198,-1.77979,88.8135,428
1571223740,369.131,112.737,22.7707,178.198,-1.77979,88.8135,428
1571223740,369.131,112.737,22.7707,178.198,-1.77979,88.8135,428
1571223740,369.131,112.737,22.7707,178.198,-1.77979,88.8135,428
1571223740,369.131,112.737,22.7707,178.198,-1.77979,88.8135,428
1571223740,369.243,112.737,22.7707,178.176,-1.77979,88.8135,428
1571223740,369.243,112.737,22.7707,178.176,-1.77979,88.8135,428
1571223740,369.243,112.737,22.7707,178.176,-1.77979,88.8135,428
1571223740,369.243,112.737,22.7707,178.176,-1.77979,88.8135,428
1571223740,369.243,112.737,22.7707,178.176,-1.77979,88.8135,428
1571223740,369.243,112.737,22.7707,178.176,-1.77979,88.8135,428
1571223740,369.243,112.737,22.7707,178.176,-1.77979,88.8135,428
1571223740,369.243,112.737,22.7707,178.176,-1.77979,88.8135,428
1571223740,369.243,112.737,22.7707,178.176,-1.77979,88.8135,428
1571223740,369.131,112.737,22.7707,178.176,-1.77979,88.8135,428
1571223740,369.131,112.737,22.7707,178.176,-1.77979,88.8135,428
1571223740,369.131,112.737,22.7707,178.176,-1.77979,88.8135,428
1571223740,369.131,112.737,22.7707,178.176,-1.77979,88.8135,428
1571223740,369.131,112.737,22.7707,178.198,-1.77979,88.8135,428
1571223740,369.131,112.737,22.7707,178.198,-1.77979,88.8135,428
1571223740,369.131,112.737,22.7707,178.198,-1.77979,88.8135,428
1571223740,369.243,112.737,22.7707,178.198,-1.77979,88.8135,428
1571223740,369.243,112.737,22.7707,178.198,-1.77979,88.8135,428
1571223740,369.243,112.737,22.7707,178.198,-1.77979,88.8135,428
1571223740,369.243,112.737,22.7707,178.198,-1.77979,88.8135,428
1571223740,369.243,112.737,22.7707,178.198,-1.77979,88.8135,428
1571223740,369.243,112.737,22.7707,178.198,-1.77979,88.8135,428
1571223740,369.243,112.737,22.7707,178.198,-1.77979,88.8135,428
1571223741,369.243,112.737,22.7707,178.198,-1.77979,88.8135,428
1571223741,369.243,112.737,22.7707,178.198,-1.77979,88.8135,428
1571223741,369.243,112.737,22.7707,178.198,-1.77979,88.8135,428
1571223741,369.243,112.737,22.7707,178.198,-1.77979,88.8135,428
1571223741,369.243,112.737,22.7707,178.198,-1.77979,88.8135,428
1571223741,369.243,112.737,22.7707,178.198,-1.77979,88.8135,428
1571223741,369.243,112.737,22.7707,178.198,-1.77979,88.8135,428
1571223741,369.243,112.737,22.7707,178.198,-1.77979,88.8135,428
1571223741,369.243,112.737,22.7707,178.198,-1.77979,88.8135,428
1571223741,369.243,112.737,22.7707,178.198,-1.77979,88.8135,428
1571223741,369.243,112.737,22.7707,178.198,-1.77979,88.8135,428
1571223741,369.243,112.737,22.7707,178.198,-1.77979,88.8135,428
1571223741,369.243,112.737,22.7707,178.198,-1.77979,88.8135,428
1571223741,369.243,112.737,22.7707,178.198,-1.77979,88.8135,428
1571223741,369.243,112.737,22.7707,178.198,-1.77979,88.8135,428
1571223741,369.243,112.737,22.7707,178.198,-1.77979,88.8135,428
1571223741,369.243,112.737,22.7707,178.198,-1.77979,88.8135,428
1571223741,369.243,112.737,22.7707,178.198,-1.77979,88.8135,428
1571223741,369.243,112.737,22.7707,178.198,-1.77979,88.8135,428
1571223741,369.243,112.737,22.7707,178.198,-1.77979,88.8135,428
1571223741,369.243,112.737,22.7707,178.198,-1.77979,88.8135,428
1571223741,369.243,112.737,22.7707,178.198,-1.77979,88.8135,428
1571223741,369.243,112.737,22.7707,178.198,-1.77979,88.8135,428
1571223741,369.243,112.737,22.7707,178.198,-1.77979,88.8135,428
1571223741,369.243,112.737,22.7707,178.198,-1.77979,88.8135,428
1571223741,369.243,112.737,22.7707,178.198,-1.77979,88.8135,424
1571223741,369.243,112.737,22.7707,178.198,-1.77979,88.8135,424
1571223741,369.243,112.737,22.7707,178.198,-1.77979,88.8135,424
1571223741,369.243,112.737,22.7707,178.198,-1.77979,88.8135,424
1571223741,369.243,112.737,22.7707,178.198,-1.77979,88.8135,424
1571223741,369.243,112.737,22.7707,178.198,-1.77979,88.8135,424
1571223741,369.243,112.737,22.7707,178.198,-1.77979,88.8135,424
1571223741,369.243,112.737,22.7707,178.198,-1.77979,88.8135,424
1571223741,369.243,112.737,22.7707,178.198,-1.77979,88.8135,424
1571223741,369.243,112.737,22.7707,178.198,-1.77979,88.8135,424
1571223741,369.243,112.737,22.7707,178.198,-1.77979,88.8135,424
1571223741,369.243,112.737,22.7707,178.198,-1.77979,88.8135,424
1571223741,369.243,112.737,22.7707,178.198,-1.77979,88.8135,424
1571223741,369.243,112.737,22.7707,178.198,-1.77979,88.8135,424
1571223741,369.243,112.737,22.7707,178.198,-1.77979,88.8135,424
1571223741,369.243,112.737,22.7707,178.198,-1.77979,88.8135,424
1571223741,369.243,112.737,22.7707,178.198,-1.77979,88.8135,424
1571223741,369.243,112.737,22.7707,178.198,-1.77979,88.8135,424
1571223741,369.243,112.737,22.7707,178.198,-1.77979,88.8135,424
1571223741,369.243,112.737,22.7707,178.198,-1.77979,88.8135,424
1571223741,369.243,112.737,22.7707,178.198,-1.77979,88.8135,428
1571223741,369.243,112.737,22.7707,178.198,-1.77979,88.8135,428
1571223741,369.243,112.737,22.7707,178.198,-1.77979,88.8135,428
1571223741,369.243,112.737,22.7707,178.198,-1.77979,88.8135,428
1571223741,369.243,112.737,22.7707,178.198,-1.77979,88.8135,428
1571223741,369.243,112.737,22.7707,178.198,-1.77979,88.8135,428
1571223741,369.243,112.737,22.7707,178.198,-1.77979,88.8135,428
1571223741,369.243,112.737,22.7707,178.198,-1.77979,88.8135,428
1571223741,369.243,112.737,22.7707,178.198,-1.77979,88.8135,428
1571223741,369.243,112.737,22.7707,178.198,-1.77979,88.8135,428
1571223741,369.243,112.737,22.7707,178.198,-1.77979,88.8135,428
1571223741,369.243,112.737,22.7707,178.198,-1.77979,88.8135,428
1571223741,369.243,112.737,22.7707,178.198,-1.77979,88.8135,428
1571223741,369.131,112.737,22.7707,178.198,-1.77979,88.8135,428
1571223741,369.131,112.737,22.7707,178.198,-1.77979,88.8135,428
1571223741,369.243,112.737,22.7707,178.198,-1.77979,88.8135,428
1571223741,369.243,112.737,22.7707,178.198,-1.77979,88.8135,428
1571223741,369.243,112.737,22.7707,178.198,-1.77979,88.8135,428
1571223741,369.243,112.737,22.7707,178.198,-1.77979,88.8135,428
1571223741,369.243,112.737,22.7707,178.198,-1.77979,88.8135,428
1571223741,369.243,112.737,22.7707,178.198,-1.77979,88.8135,424
1571223741,369.243,112.737,22.7707,178.198,-1.77979,88.8135,424
1571223741,369.243,112.737,22.7707,178.198,-1.77979,88.8135,424
1571223741,369.243,112.737,22.7707,178.198,-1.77979,88.8135,424
1571223741,369.243,112.737,22.7707,178.198,-1.77979,88.8135,424
1571223741,369.243,112.737,22.7707,178.198,-1.77979,88.8135,424
1571223741,369.243,112.737,22.7707,178.198,-1.77979,88.8135,424
1571223741,369.243,112.737,22.7707,178.198,-1.77979,88.8135,424
1571223741,369.131,112.737,22.7707,178.198,-1.77979,88.8135,424
1571223741,369.131,112.849,22.7707,178.198,-1.77979,88.8135,424
1571223741,369.243,112.849,22.7707,178.198,-1.77979,88.8135,424
1571223741,369.243,112.849,22.7707,178.198,-1.77979,88.8135,424
1571223741,369.243,112.849,22.7707,178.198,-1.77979,88.8135,424
1571223741,369.243,112.849,22.7707,178.198,-1.77979,88.8135,424
1571223741,369.243,112.849,22.7707,178.198,-1.77979,88.8135,424
1571223741,369.243,112.849,22.7707,178.198,-1.77979,88.8135,424
1571223741,369.243,112.849,22.7707,178.198,-1.77979,88.8135,424
1571223741,369.243,112.849,22.7707,178.198,-1.77979,88.8135,424
1571223741,369.243,112.849,22.7707,178.198,-1.77979,88.8135,424
1571223741,369.243,112.737,22.7707,178.198,-1.77979,88.8135,424
1571223741,369.243,112.737,22.7707,178.198,-1.77979,88.8135,424
1571223741,369.243,112.737,22.7707,178.198,-1.77979,88.8135,424
1571223741,369.131,112.737,22.7707,178.198,-1.77979,88.8135,424
1571223741,369.131,112.737,22.7707,178.198,-1.77979,88.8135,424
1571223741,369.131,112.737,22.7707,178.198,-1.77979,88.8135,424
1571223741,369.131,112.737,22.7707,178.198,-1.77979,88.8135,424
1571223741,369.131,112.849,22.7707,178.198,-1.77979,88.8135,424
1571223741,369.131,112.849,22.7707,178.198,-1.77979,88.8135,424
1571223741,369.131,112.849,22.7707,178.198,-1.77979,88.8135,424
1571223741,369.131,112.849,22.7707,178.198,-1.77979,88.8135,424
1571223741,369.131,112.737,22.7707,178.198,-1.77979,88.8135,424
1571223741,369.131,112.737,22.7707,178.198,-1.77979,88.8135,424
1571223741,369.131,112.737,22.7707,178.198,-1.77979,88.8135,424
1571223741,369.131,112.737,22.7707,178.198,-1.77979,88.8135,424
1571223741,369.131,112.737,22.7707,178.198,-1.77979,88.8135,424
1571223742,369.131,112.737,22.7707,178.198,-1.77979,88.8135,424
1571223742,369.131,112.737,22.7707,178.198,-1.77979,88.8135,424
1571223742,369.131,112.737,22.7707,178.198,-1.77979,88.8135,424
1571223742,369.131,112.737,22.7707,178.198,-1.77979,88.8135,424
1571223742,369.131,112.737,22.7707,178.198,-1.77979,88.8135,424
1571223742,369.131,112.737,22.7707,178.198,-1.77979,88.8135,424
1571223742,369.131,112.737,22.7707,178.198,-1.77979,88.8135,424
1571223742,369.131,112.737,22.7707,178.198,-1.77979,88.8135,424
1571223742,369.131,112.737,22.7707,178.198,-1.77979,88.8135,424
1571223742,369.131,112.737,22.7707,178.198,-1.77979,88.8135,424
1571223742,369.131,112.737,22.7707,178.198,-1.77979,88.8135,428
1571223742,369.131,112.737,22.7707,178.198,-1.77979,88.8135,428
1571223742,369.131,112.737,22.7707,178.198,-1.77979,88.8135,428
1571223742,369.131,112.737,22.7707,178.198,-1.77979,88.8135,428
1571223742,369.131,112.737,22.7707,178.198,-1.77979,88.8135,428
1571223742,369.131,112.737,22.7707,178.198,-1.77979,88.8135,428
1571223742,369.131,112.737,22.7707,178.198,-1.77979,88.8135,428
1571223742,369.131,112.737,22.7707,178.198,-1.77979,88.8135,428
1571223742,369.131,112.737,22.7707,178.198,-1.77979,88.8135,428
1571223742,369.131,112.737,22.7707,178.198,-1.77979,88.8135,428
1571223742,369.131,112.737,22.7707,178.198,-1.77979,88.8135,428
1571223742,369.131,112.737,22.7707,178.198,-1.77979,88.8135,428
1571223742,369.131,112.737,22.7707,178.198,-1.77979,88.8135,428
1571223742,369.131,112.737,22.7707,178.198,-1.77979,88.8135,428
1571223742,369.131,112.737,22.7707,178.198,-1.77979,88.8135,428
1571223742,369.131,112.737,22.7707,178.198,-1.77979,88.8135,424
1571223742,369.131,112.737,22.7707,178.198,-1.77979,88.8135,424
1571223742,369.131,112.737,22.7707,178.198,-1.77979,88.8135,424
1571223742,369.131,112.737,22.7707,178.198,-1.77979,88.8135,424
1571223742,369.131,112.737,22.7707,178.198,-1.77979,88.8135,424
1571223742,369.131,112.737,22.7707,178.198,-1.77979,88.8135,424
1571223742,369.131,112.737,22.7707,178.198,-1.77979,88.8135,424
1571223742,369.131,112.737,22.7707,178.198,-1.77979,88.8135,424
1571223742,369.131,112.737,22.7707,178.198,-1.77979,88.8135,424
1571223742,369.131,112.737,22.7707,178.198,-1.77979,88.8135,424
1571223742,369.131,112.737,22.7707,178.198,-1.77979,88.8135,424
1571223742,369.131,112.737,22.7707,178.198,-1.77979,88.8135,424
1571223742,369.131,112.849,22.7707,178.198,-1.77979,88.8135,424
1571223742,369.131,112.849,22.7707,178.198,-1.77979,88.8135,424
1571223742,369.131,112.849,22.7707,178.198,-1.77979,88.8135,424
1571223742,369.131,112.849,22.7707,178.198,-1.77979,88.8135,424
1571223742,369.131,112.849,22.7707,178.198,-1.77979,88.8135,424
1571223742,369.131,112.849,22.7707,178.198,-1.77979,88.8135,424
1571223742,369.131,112.849,22.7707,178.198,-1.77979,88.8135,424
1571223742,369.131,112.849,22.7707,178.198,-1.77979,88.8135,424
1571223742,369.131,112.849,22.7707,178.198,-1.77979,88.8135,424
1571223742,369.131,112.849,22.7707,178.198,-1.77979,88.8135,424
1571223742,369.131,112.849,22.7707,178.198,-1.77979,88.8135,424
1571223742,369.131,112.849,22.7707,178.198,-1.77979,88.8135,424
1571223742,369.131,112.849,22.7707,178.198,-1.77979,88.8135,424
1571223742,369.131,112.849,22.7707,178.198,-1.77979,88.8135,424
1571223742,369.131,112.849,22.7707,178.198,-1.77979,88.8135,424
1571223742,369.131,112.849,22.7707,178.198,-1.77979,88.8135,424
1571223742,369.131,112.849,22.7707,178.198,-1.77979,88.8135,424
1571223742,369.131,112.849,22.7707,178.198,-1.77979,88.8135,424
1571223742,369.131,112.849,22.7707,178.198,-1.77979,88.8135,424
1571223742,369.131,112.849,22.7707,178.198,-1.77979,88.8135,424
1571223742,369.131,112.849,22.7707,178.198,-1.77979,88.8135,424
1571223742,369.131,112.849,22.7707,178.198,-1.77979,88.8135,424
1571223742,369.131,112.849,22.7707,178.198,-1.77979,88.8135,428
1571223742,369.131,112.849,22.7707,178.198,-1.77979,88.8135,428
1571223742,369.131,112.849,22.7707,178.198,-1.77979,88.8135,428
1571223742,369.131,112.849,22.7707,178.198,-1.77979,88.8135,428
1571223742,369.131,112.849,22.7707,178.198,-1.77979,88.8135,428
1571223742,369.131,112.849,22.7707,178.198,-1.77979,88.8135,428
1571223742,369.131,112.849,22.7707,178.198,-1.77979,88.8135,428
1571223742,369.131,112.849,22.7707,178.198,-1.77979,88.8135,428
1571223742,369.131,112.849,22.7707,178.198,-1.77979,88.8135,428
1571223742,369.131,112.849,22.7707,178.198,-1.77979,88.8135,428
1571223742,369.131,112.849,22.7707,178.198,-1.77979,88.8135,428
1571223742,369.131,112.849,22.7707,178.198,-1.77979,88.8135,428
1571223742,369.131,112.849,22.7707,178.198,-1.77979,88.8135,428
1571223742,369.131,112.849,22.7707,178.198,-1.77979,88.8135,428
1571223742,369.131,112.849,22.7707,178.198,-1.77979,88.8135,428
1571223742,369.131,112.849,22.7707,178.198,-1.77979,88.8135,428
1571223742,369.131,112.849,22.7707,178.198,-1.77979,88.8135,428
1571223742,369.131,112.849,22.7707,178.198,-1.77979,88.8135,428
1571223742,369.131,112.849,22.7707,178.198,-1.77979,88.8135,428
1571223742,369.131,112.849,22.7707,178.198,-1.77979,88.8135,428
1571223742,369.131,112.849,22.7707,178.198,-1.77979,88.8135,428
1571223742,369.131,112.849,22.7707,178.198,-1.77979,88.8135,428
1571223742,369.131,112.849,22.7707,178.198,-1.77979,88.8135,428
1571223742,369.131,112.849,22.7707,178.198,-1.77979,88.8135,428
1571223742,369.131,112.849,22.7707,178.198,-1.77979,88.8135,428
1571223742,369.131,112.849,22.7707,178.198,-1.77979,88.8135,428
1571223742,369.131,112.737,22.7707,178.198,-1.77979,88.8135,428
1571223742,369.131,112.737,22.7707,178.198,-1.77979,88.8135,428
1571223742,369.131,112.737,22.7707,178.198,-1.77979,88.8135,428
1571223742,369.131,112.737,22.7707,178.198,-1.77979,88.8135,428
1571223742,369.131,112.737,22.7707,178.198,-1.77979,88.8135,428
1571223742,369.131,112.737,22.7707,178.198,-1.77979,88.8135,428
1571223742,369.131,112.737,22.7707,178.198,-1.77979,88.8135,428
1571223742,369.131,112.737,22.7707,178.198,-1.77979,88.8135,428
1571223742,369.131,112.737,22.7707,178.198,-1.77979,88.8135,428
1571223742,369.131,112.737,22.7707,178.198,-1.77979,88.8135,428
1571223742,369.131,112.737,22.7707,178.198,-1.77979,88.8135,428
1571223742,369.131,112.737,22.7707,178.198,-1.77979,88.8135,428
1571223742,369.131,112.737,22.7707,178.198,-1.77979,88.8135,428
1571223742,369.131,112.737,22.7707,178.198,-1.77979,88.8135,428
1571223742,369.131,112.737,22.7707,178.198,-1.77979,88.8135,428
1571223743,369.131,112.737,22.7707,178.198,-1.77979,88.8135,428
1571223743,369.131,112.737,22.7707,178.198,-1.77979,88.8135,428
1571223743,369.131,112.737,22.7707,178.198,-1.77979,88.8135,428
1571223743,369.131,112.737,22.7707,178.198,-1.77979,88.8135,428
1571223743,369.131,112.737,22.7707,178.198,-1.77979,88.8135,428
1571223743,369.131,112.737,22.7707,178.198,-1.77979,88.8135,428
1571223743,369.131,112.737,22.7707,178.198,-1.77979,88.8135,428
1571223743,369.131,112.737,22.7707,178.198,-1.77979,88.8135,428
1571223743,369.131,112.737,22.7707,178.198,-1.77979,88.8135,428
1571223743,369.131,112.737,22.7707,178.198,-1.77979,88.8135,428
1571223743,369.131,112.737,22.7707,178.198,-1.77979,88.8135,428
1571223743,369.131,112.737,22.7707,178.198,-1.77979,88.8135,428
1571223743,369.131,112.737,22.7707,178.198,-1.77979,88.8135,428
1571223743,369.131,112.737,22.7707,178.198,-1.77979,88.8135,428
1571223743,369.131,112.737,22.7707,178.198,-1.77979,88.8135,428
1571223743,369.131,112.737,22.7707,178.198,-1.77979,88.8135,428
1571223743,369.131,112.737,22.7707,178.198,-1.77979,88.8135,428
1571223743,369.131,112.737,22.7707,178.198,-1.77979,88.8135,428
1571223743,369.131,112.737,22.7707,178.198,-1.77979,88.8135,428
1571223743,369.131,112.737,22.7707,178.198,-1.77979,88.8135,428
1571223743,369.131,112.737,22.7707,178.198,-1.77979,88.8135,428
1571223743,369.131,112.737,22.7707,178.198,-1.77979,88.8135,428
1571223743,369.131,112.737,22.7707,178.198,-1.77979,88.8135,428
1571223743,369.131,112.737,22.7707,178.198,-1.77979,88.8135,428
1571223743,369.131,112.737,22.7707,178.198,-1.77979,88.8135,428
1571223743,369.131,112.737,22.7707,178.198,-1.77979,88.8135,428
1571223743,369.131,112.737,22.7707,178.198,-1.77979,88.8135,428
1571223743,369.131,112.737,22.7707,178.198,-1.77979,88.8135,428
1571223743,369.131,112.737,22.7707,178.198,-1.77979,88.8135,428
1571223743,369.131,112.737,22.7707,178.198,-1.77979,88.8135,428
1571223743,369.131,112.737,22.7707,178.198,-1.77979,88.8135,428
1571223743,369.131,112.737,22.7707,178.198,-1.77979,88.8135,428
1571223743,369.131,112.737,22.7707,178.198,-1.77979,88.8135,428
1571223743,369.131,112.737,22.7707,178.198,-1.77979,88.8135,428
1571223743,369.131,112.737,22.7707,178.198,-1.77979,88.8135,428
1571223743,369.131,112.737,22.7707,178.198,-1.77979,88.8135,428
1571223743,369.131,112.737,22.7707,178.198,-1.77979,88.8135,428
1571223743,369.131,112.737,22.7707,178.198,-1.77979,88.8135,428
1571223743,369.131,112.737,22.7707,178.198,-1.77979,88.8135,428
1571223743,369.131,112.737,22.7707,178.198,-1.77979,88.8135,428
1571223743,369.131,112.737,22.7707,178.198,-1.77979,88.8135,428
1571223743,369.131,112.737,22.7707,178.198,-1.77979,88.8135,428
1571223743,369.131,112.737,22.7707,178.198,-1.77979,88.8135,424
1571223743,369.131,112.737,22.7707,178.198,-1.77979,88.8135,424
1571223743,369.131,112.737,22.7707,178.198,-1.77979,88.8135,424
1571223743,369.131,112.737,22.7707,178.198,-1.77979,88.8135,424
1571223743,369.131,112.737,22.7707,178.198,-1.77979,88.8135,424
1571223743,369.131,112.737,22.7707,178.198,-1.77979,88.8135,424
1571223743,369.131,112.737,22.7707,178.198,-1.77979,88.8135,424
1571223743,369.131,112.737,22.7707,178.198,-1.77979,88.8135,424
1571223743,369.131,112.737,22.7707,178.198,-1.77979,88.8135,424
1571223743,369.131,112.737,22.7707,178.198,-1.77979,88.8135,424
1571223743,369.131,112.737,22.7707,178.198,-1.77979,88.8135,424
1571223743,369.131,112.737,22.7707,178.198,-1.77979,88.8135,424
1571223743,369.131,112.737,22.7707,178.198,-1.77979,88.8135,424
1571223743,369.131,112.737,22.7707,178.198,-1.77979,88.8135,424
1571223743,369.131,112.737,22.7707,178.198,-1.77979,88.8135,424
1571223743,369.131,112.737,22.7707,178.198,-1.77979,88.8135,424
1571223743,369.131,112.737,22.7707,178.198,-1.77979,88.8135,424
1571223743,369.131,112.737,22.7707,178.198,-1.77979,88.8135,424
1571223743,369.131,112.737,22.7707,178.198,-1.77979,88.8135,424
1571223743,369.243,112.737,22.7707,178.198,-1.77979,88.8135,424
1571223743,369.243,112.737,22.7707,178.198,-1.77979,88.8135,424
1571223743,369.243,112.737,22.7707,178.198,-1.77979,88.8135,424
1571223743,369.243,112.737,22.7707,178.198,-1.77979,88.8135,424
1571223743,369.243,112.737,22.7707,178.198,-1.77979,88.8135,424
1571223743,369.243,112.737,22.7707,178.198,-1.77979,88.8135,424
1571223743,369.243,112.737,22.7707,178.198,-1.77979,88.8135,424
1571223743,369.243,112.737,22.7707,178.198,-1.77979,88.8135,424
1571223743,369.243,112.737,22.7707,178.198,-1.77979,88.8135,424
1571223743,369.243,112.737,22.7707,178.198,-1.77979,88.8135,424
1571223743,369.243,112.737,22.7707,178.198,-1.77979,88.8135,424
1571223743,369.243,112.737,22.7707,178.198,-1.77979,88.8135,424
1571223743,369.243,112.737,22.7707,178.198,-1.77979,88.8135,424
1571223743,369.243,112.737,22.7707,178.198,-1.77979,88.8135,424
1571223743,369.243,112.737,22.7707,178.198,-1.77979,88.8135,424
1571223743,369.243,112.737,22.7707,178.198,-1.77979,88.8135,424
1571223743,369.243,112.737,22.7707,178.176,-1.77979,88.8135,424
1571223743,369.243,112.737,22.7707,178.176,-1.77979,88.8135,424
1571223743,369.243,112.737,22.7707,178.176,-1.77979,88.8135,424
1571223743,369.243,112.737,22.7707,178.198,-1.77979,88.8135,424
1571223743,369.243,112.737,22.7707,178.198,-1.77979,88.8135,424
1571223743,369.243,112.737,22.7707,178.198,-1.77979,88.8135,424
1571223743,369.243,112.737,22.7707,178.198,-1.77979,88.8135,424
