time,x,y,z,ax,ay,az,q
1570004456,379.735,18.4175,-16.4083,179.077,1.604,-144.888,464
1570004456,379.735,18.4175,-16.4083,179.077,1.604,-144.888,464
1570004456,379.735,18.4175,-16.4083,179.077,1.604,-144.888,464
1570004456,379.735,18.4175,-16.4083,179.077,1.604,-144.888,464
1570004456,379.735,18.4175,-16.4083,179.077,1.604,-144.888,464
1570004456,379.735,18.4175,-16.4083,179.077,1.604,-144.888,464
1570004456,379.735,18.4175,-16.4083,179.077,1.604,-144.888,464
1570004456,379.735,18.4175,-16.4083,179.077,1.604,-144.888,464
1570004456,379.735,18.4175,-16.4083,179.077,1.604,-144.888,464
1570004456,379.735,18.4175,-16.4083,179.077,1.604,-144.888,464
1570004456,379.735,18.4175,-16.4083,179.077,1.604,-144.888,464
1570004456,379.735,18.4175,-16.4083,179.077,1.604,-144.888,464
1570004456,379.735,18.4175,-16.4083,179.077,1.604,-144.888,464
1570004456,379.735,18.4175,-16.4083,179.077,1.604,-144.888,464
1570004456,379.735,18.4175,-16.4083,179.077,1.62598,-144.888,460
1570004456,379.735,18.4175,-16.4083,179.077,1.62598,-144.888,460
1570004456,379.735,18.4175,-16.4083,179.077,1.62598,-144.888,460
1570004456,379.735,18.4175,-16.4083,179.077,1.62598,-144.888,460
1570004456,379.735,18.4175,-16.4083,179.077,1.62598,-144.888,460
1570004456,379.735,18.4175,-16.4083,179.077,1.62598,-144.888,460
1570004456,379.735,18.4175,-16.4083,179.077,1.62598,-144.888,456
1570004456,379.735,18.4175,-16.4083,179.077,1.62598,-144.888,456
1570004456,379.735,18.4175,-16.4083,179.077,1.62598,-144.888,456
1570004456,379.735,18.4175,-16.4083,179.077,1.62598,-144.888,456
1570004456,379.735,18.4175,-16.4083,179.077,1.62598,-144.888,452
1570004456,379.735,18.4175,-16.4083,179.077,1.604,-144.888,452
1570004456,379.735,18.4175,-16.4083,179.077,1.604,-144.91,452
1570004456,379.735,18.4175,-16.4083,179.077,1.604,-144.91,452
1570004456,379.735,18.4175,-16.4083,179.077,1.604,-144.91,452
1570004456,379.735,18.4175,-16.4083,179.099,1.604,-144.91,452
1570004456,379.735,18.4175,-16.4083,179.099,1.604,-144.91,452
1570004456,379.735,18.4175,-16.4083,179.099,1.604,-144.91,448
1570004456,379.735,18.4175,-16.4083,179.077,1.604,-144.91,448
1570004456,379.735,18.4175,-16.4083,179.077,1.604,-144.91,448
1570004456,379.735,18.4175,-16.4083,179.077,1.604,-144.91,448
1570004456,379.847,18.4175,-16.4083,179.077,1.604,-144.91,448
1570004456,379.847,18.4175,-16.4083,179.077,1.62598,-144.91,448
1570004456,379.847,18.4175,-16.4083,179.077,1.62598,-144.91,448
1570004456,379.847,18.4175,-16.4083,179.077,1.62598,-144.91,448
1570004456,379.847,18.4175,-16.4083,179.077,1.62598,-144.91,448
1570004456,379.847,18.4175,-16.4083,179.077,1.62598,-144.91,448
1570004456,379.847,18.4175,-16.4083,179.077,1.62598,-144.91,448
1570004456,379.847,18.4175,-16.4083,179.077,1.62598,-144.91,448
1570004456,379.847,18.4175,-16.4083,179.077,1.62598,-144.91,448
1570004456,379.847,18.4175,-16.4083,179.099,1.62598,-144.91,448
1570004457,379.847,18.4175,-16.4083,179.099,1.62598,-144.91,448
1570004457,379.847,18.4175,-16.4083,179.099,1.62598,-144.91,452
1570004457,379.847,18.4175,-16.4083,179.099,1.62598,-144.91,452
1570004457,379.847,18.4175,-16.4083,179.099,1.62598,-144.91,452
1570004457,379.847,18.4175,-16.4083,179.099,1.62598,-144.91,452
1570004457,379.847,18.4175,-16.4083,179.077,1.62598,-144.91,452
1570004457,379.847,18.4175,-16.4083,179.077,1.62598,-144.91,452
1570004457,379.847,18.4175,-16.4083,179.077,1.62598,-144.91,456
1570004457,379.847,18.4175,-16.4083,179.077,1.62598,-144.91,456
1570004457,379.847,18.4175,-16.4083,179.077,1.62598,-144.91,456
1570004457,379.847,18.4175,-16.4083,179.077,1.604,-144.91,456
1570004457,379.735,18.4175,-16.4083,179.077,1.604,-144.91,456
1570004457,379.735,18.4175,-16.4083,179.077,1.604,-144.91,460
1570004457,379.735,18.4175,-16.5199,179.077,1.604,-144.91,460
1570004457,379.735,18.4175,-16.5199,179.077,1.604,-144.91,460
1570004457,379.735,18.4175,-16.5199,179.077,1.604,-144.91,460
1570004457,379.735,18.4175,-16.5199,179.077,1.604,-144.91,464
1570004457,379.735,18.4175,-16.5199,179.077,1.58203,-144.91,464
1570004457,379.735,18.4175,-16.5199,179.077,1.58203,-144.91,464
1570004457,379.735,18.4175,-16.5199,179.077,1.58203,-144.91,464
1570004457,379.735,18.4175,-16.5199,179.077,1.58203,-144.91,464
1570004457,379.735,18.4175,-16.5199,179.077,1.58203,-144.91,468
1570004457,379.735,18.4175,-16.5199,179.077,1.58203,-144.91,468
1570004457,379.735,18.4175,-16.5199,179.077,1.58203,-144.91,468
1570004457,379.735,18.4175,-16.5199,179.077,1.58203,-144.91,468
1570004457,379.735,18.4175,-16.5199,179.077,1.58203,-144.91,468
1570004457,379.735,18.4175,-16.5199,179.077,1.58203,-144.91,468
1570004457,379.735,18.4175,-16.5199,179.077,1.58203,-144.91,468
1570004457,379.735,18.4175,-16.5199,179.077,1.58203,-144.91,468
1570004457,379.735,18.4175,-16.5199,179.077,1.56006,-144.91,468
1570004457,379.735,18.4175,-16.5199,179.077,1.56006,-144.91,468
1570004457,379.735,18.4175,-16.5199,179.077,1.56006,-144.91,468
1570004457,379.735,18.4175,-16.5199,179.077,1.56006,-144.91,468
1570004457,379.735,18.4175,-16.5199,179.077,1.56006,-144.91,468
1570004457,379.735,18.4175,-16.5199,179.077,1.56006,-144.91,468
1570004457,379.735,18.4175,-16.5199,179.099,1.58203,-144.91,468
1570004457,379.735,18.4175,-16.5199,179.099,1.58203,-144.91,468
1570004457,379.735,18.4175,-16.5199,179.099,1.58203,-144.91,468
1570004457,379.735,18.4175,-16.5199,179.099,1.58203,-144.91,468
1570004457,379.735,18.4175,-16.5199,179.099,1.58203,-144.91,468
1570004457,379.735,18.4175,-16.5199,179.099,1.58203,-144.91,468
1570004457,379.735,18.4175,-16.5199,179.121,1.58203,-144.91,468
1570004457,379.735,18.5291,-16.5199,179.121,1.58203,-144.91,468
1570004457,379.735,18.5291,-16.5199,179.121,1.604,-144.91,468
1570004457,379.735,18.5291,-16.5199,179.121,1.604,-144.91,468
1570004457,379.735,18.5291,-16.4083,179.121,1.604,-144.91,468
1570004457,379.735,18.5291,-16.4083,179.121,1.604,-144.91,468
1570004457,379.735,18.5291,-16.4083,179.121,1.604,-144.91,468
1570004457,379.735,18.5291,-16.4083,179.121,1.604,-144.91,468
1570004457,379.735,18.5291,-16.4083,179.121,1.604,-144.91,464
1570004457,379.735,18.5291,-16.4083,179.121,1.604,-144.91,464
1570004457,379.735,18.5291,-16.4083,179.121,1.604,-144.91,464
1570004457,379.735,18.5291,-16.4083,179.121,1.604,-144.91,464
1570004457,379.735,18.5291,-16.4083,179.121,1.604,-144.91,464
1570004457,379.735,18.5291,-16.4083,179.121,1.604,-144.91,464
1570004457,379.735,18.5291,-16.4083,179.121,1.604,-144.91,464
1570004457,379.735,18.5291,-16.4083,179.121,1.604,-144.91,464
1570004457,379.735,18.5291,-16.4083,179.121,1.604,-144.91,464
1570004457,379.735,18.4175,-16.4083,179.099,1.604,-144.91,464
1570004457,379.735,18.4175,-16.4083,179.099,1.58203,-144.91,464
1570004457,379.735,18.4175,-16.4083,179.099,1.58203,-144.91,464
1570004457,379.735,18.4175,-16.5199,179.099,1.58203,-144.91,468
1570004457,379.735,18.5291,-16.5199,179.121,1.58203,-144.91,468
1570004457,379.735,18.5291,-16.5199,179.121,1.58203,-144.91,468
1570004457,379.735,18.5291,-16.5199,179.121,1.58203,-144.91,468
1570004457,379.735,18.5291,-16.5199,179.121,1.58203,-144.91,468
1570004457,379.735,18.5291,-16.5199,179.121,1.58203,-144.91,468
1570004457,379.735,18.5291,-16.5199,179.099,1.58203,-144.91,472
1570004457,379.735,18.5291,-16.5199,179.099,1.58203,-144.91,472
1570004457,379.735,18.5291,-16.5199,179.099,1.58203,-144.91,472
1570004457,379.735,18.5291,-16.5199,179.121,1.58203,-144.91,472
1570004457,379.735,18.5291,-16.5199,179.121,1.58203,-144.91,472
1570004457,379.735,18.5291,-16.5199,179.121,1.58203,-144.91,472
1570004457,379.735,18.5291,-16.5199,179.121,1.58203,-144.91,472
1570004457,379.735,18.5291,-16.5199,179.121,1.58203,-144.91,472
1570004457,379.735,18.5291,-16.5199,179.121,1.58203,-144.91,472
1570004457,379.735,18.5291,-16.5199,179.121,1.58203,-144.91,472
1570004457,379.735,18.5291,-16.5199,179.121,1.58203,-144.91,468
1570004457,379.735,18.5291,-16.5199,179.121,1.58203,-144.91,468
1570004457,379.735,18.5291,-16.5199,179.121,1.58203,-144.932,468
1570004457,379.735,18.5291,-16.5199,179.121,1.58203,-144.932,468
1570004457,379.735,18.5291,-16.5199,179.121,1.58203,-144.932,468
1570004457,379.735,18.5291,-16.5199,179.121,1.58203,-144.932,468
1570004457,379.735,18.5291,-16.5199,179.121,1.58203,-144.932,472
1570004457,379.735,18.5291,-16.5199,179.121,1.58203,-144.932,472
1570004457,379.735,18.5291,-16.5199,179.121,1.58203,-144.932,472
1570004457,379.735,18.5291,-16.5199,179.121,1.58203,-144.932,472
1570004457,379.735,18.5291,-16.5199,179.143,1.58203,-144.91,472
1570004457,379.735,18.5291,-16.5199,179.143,1.58203,-144.91,472
1570004457,379.735,18.5291,-16.5199,179.143,1.58203,-144.91,472
1570004457,379.735,18.5291,-16.5199,179.143,1.58203,-144.91,476
1570004457,379.735,18.5291,-16.5199,179.143,1.58203,-144.91,476
1570004457,379.735,18.5291,-16.5199,179.143,1.604,-144.91,476
1570004457,379.735,18.5291,-16.5199,179.143,1.604,-144.91,476
1570004457,379.735,18.5291,-16.5199,179.143,1.604,-144.91,476
1570004457,379.735,18.5291,-16.5199,179.143,1.604,-144.91,476
1570004457,379.735,18.5291,-16.4083,179.121,1.604,-144.91,476
1570004457,379.735,18.5291,-16.4083,179.121,1.604,-144.91,476
1570004457,379.735,18.5291,-16.4083,179.121,1.604,-144.888,476
1570004457,379.735,18.5291,-16.5199,179.121,1.604,-144.888,476
1570004458,379.735,18.5291,-16.5199,179.121,1.604,-144.888,476
1570004458,379.735,18.5291,-16.5199,179.121,1.604,-144.888,476
1570004458,379.735,18.5291,-16.5199,179.121,1.58203,-144.888,476
1570004458,379.735,18.5291,-16.5199,179.099,1.58203,-144.888,476
1570004458,379.735,18.5291,-16.5199,179.099,1.58203,-144.888,476
1570004458,379.735,18.4175,-16.5199,179.099,1.58203,-144.888,476
1570004458,379.735,18.4175,-16.5199,179.099,1.58203,-144.888,476
1570004458,379.735,18.4175,-16.5199,179.099,1.58203,-144.888,476
1570004458,379.735,18.4175,-16.5199,179.099,1.58203,-144.888,476
1570004458,379.735,18.4175,-16.5199,179.099,1.58203,-144.888,476
1570004458,379.735,18.4175,-16.5199,179.099,1.58203,-144.888,476
1570004458,379.735,18.4175,-16.5199,179.099,1.58203,-144.888,476
1570004458,379.735,18.4175,-16.5199,179.099,1.58203,-144.888,476
1570004458,379.735,18.4175,-16.5199,179.099,1.604,-144.888,476
1570004458,379.735,18.4175,-16.5199,179.099,1.604,-144.888,476
1570004458,379.735,18.4175,-16.5199,179.099,1.604,-144.888,476
1570004458,379.735,18.4175,-16.5199,179.099,1.604,-144.888,480
1570004458,379.735,18.4175,-16.5199,179.099,1.604,-144.888,480
1570004458,379.735,18.4175,-16.5199,179.099,1.604,-144.888,480
1570004458,379.735,18.4175,-16.4083,179.099,1.604,-144.888,480
1570004458,379.735,18.4175,-16.4083,179.099,1.604,-144.888,480
1570004458,379.735,18.4175,-16.4083,179.099,1.604,-144.888,480
1570004458,379.735,18.4175,-16.4083,179.099,1.604,-144.888,480
1570004458,379.735,18.4175,-16.4083,179.099,1.604,-144.888,480
1570004458,379.735,18.4175,-16.4083,179.099,1.604,-144.888,480
1570004458,379.735,18.4175,-16.4083,179.099,1.604,-144.888,480
1570004458,379.735,18.4175,-16.4083,179.099,1.604,-144.888,480
1570004458,379.735,18.4175,-16.4083,179.099,1.604,-144.91,480
1570004458,379.735,18.4175,-16.4083,179.099,1.604,-144.91,480
1570004458,379.735,18.4175,-16.4083,179.099,1.604,-144.91,480
1570004458,379.735,18.4175,-16.4083,179.099,1.604,-144.91,476
1570004458,379.735,18.4175,-16.4083,179.099,1.604,-144.91,476
1570004458,379.735,18.4175,-16.4083,179.099,1.604,-144.91,476
1570004458,379.735,18.4175,-16.4083,179.099,1.604,-144.91,476
1570004458,379.735,18.4175,-16.4083,179.099,1.604,-144.91,476
1570004458,379.735,18.4175,-16.4083,179.099,1.604,-144.91,472
1570004458,379.735,18.4175,-16.4083,179.099,1.604,-144.91,472
1570004458,379.847,18.4175,-16.4083,179.099,1.604,-144.91,472
1570004458,379.847,18.4175,-16.4083,179.099,1.604,-144.91,472
1570004458,379.847,18.4175,-16.4083,179.099,1.604,-144.91,472
1570004458,379.847,18.4175,-16.4083,179.099,1.604,-144.91,472
1570004458,379.847,18.4175,-16.4083,179.099,1.604,-144.91,472
1570004458,379.847,18.4175,-16.4083,179.099,1.604,-144.91,472
1570004458,379.735,18.4175,-16.4083,179.099,1.604,-144.91,472
1570004458,379.735,18.4175,-16.4083,179.099,1.604,-144.91,472
1570004458,379.735,18.4175,-16.4083,179.099,1.604,-144.91,472
1570004458,379.735,18.4175,-16.4083,179.099,1.604,-144.91,472
1570004458,379.735,18.4175,-16.4083,179.099,1.604,-144.91,476
1570004458,379.735,18.4175,-16.4083,179.099,1.604,-144.91,476
1570004458,379.735,18.4175,-16.4083,179.099,1.604,-144.91,476
1570004458,379.735,18.5291,-16.4083,179.121,1.604,-144.91,476
1570004458,379.735,18.5291,-16.4083,179.121,1.604,-144.91,472
1570004458,379.735,18.5291,-16.4083,179.121,1.604,-144.91,472
1570004458,379.735,18.5291,-16.4083,179.121,1.604,-144.91,472
1570004458,379.735,18.5291,-16.4083,179.121,1.604,-144.91,472
1570004458,379.847,18.5291,-16.5199,179.121,1.58203,-144.91,472
1570004458,379.847,18.5291,-16.5199,179.121,1.58203,-144.91,472
1570004458,379.847,18.5291,-16.5199,179.121,1.58203,-144.91,468
1570004458,379.847,18.5291,-16.5199,179.121,1.58203,-144.91,468
1570004458,379.847,18.5291,-16.5199,179.121,1.58203,-144.91,468
1570004458,379.847,18.5291,-16.5199,179.121,1.58203,-144.91,468
1570004458,379.847,18.5291,-16.5199,179.121,1.58203,-144.91,464
1570004458,379.735,18.5291,-16.5199,179.121,1.58203,-144.91,464
1570004458,379.735,18.5291,-16.5199,179.121,1.58203,-144.91,464
1570004458,379.735,18.5291,-16.5199,179.121,1.58203,-144.91,464
1570004458,379.735,18.5291,-16.5199,179.121,1.58203,-144.888,460
1570004458,379.735,18.5291,-16.5199,179.121,1.58203,-144.888,460
1570004458,379.847,18.5291,-16.5199,179.121,1.58203,-144.888,460
1570004458,379.847,18.5291,-16.5199,179.121,1.58203,-144.888,456
1570004458,379.847,18.5291,-16.5199,179.121,1.58203,-144.888,456
1570004458,379.847,18.5291,-16.5199,179.121,1.58203,-144.888,456
1570004458,379.847,18.5291,-16.5199,179.121,1.58203,-144.888,456
1570004458,379.847,18.5291,-16.5199,179.121,1.58203,-144.888,452
1570004458,379.847,18.5291,-16.5199,179.121,1.58203,-144.888,452
1570004458,379.847,18.5291,-16.5199,179.121,1.58203,-144.888,452
1570004458,379.847,18.5291,-16.5199,179.121,1.58203,-144.888,452
1570004458,379.847,18.5291,-16.5199,179.121,1.58203,-144.888,452
1570004458,379.735,18.5291,-16.5199,179.121,1.58203,-144.888,452
1570004458,379.735,18.5291,-16.5199,179.121,1.58203,-144.888,452
1570004458,379.735,18.5291,-16.5199,179.121,1.58203,-144.888,452
1570004458,379.735,18.5291,-16.5199,179.121,1.58203,-144.888,452
1570004458,379.735,18.5291,-16.5199,179.121,1.58203,-144.888,452
1570004458,379.735,18.5291,-16.5199,179.121,1.604,-144.888,452
1570004458,379.735,18.5291,-16.5199,179.121,1.604,-144.888,452
1570004458,379.735,18.5291,-16.5199,179.121,1.604,-144.888,448
1570004458,379.847,18.5291,-16.5199,179.121,1.604,-144.91,448
1570004458,379.847,18.5291,-16.5199,179.121,1.604,-144.91,448
1570004458,379.847,18.5291,-16.5199,179.121,1.604,-144.91,448
1570004458,379.847,18.5291,-16.4083,179.121,1.604,-144.91,448
1570004458,379.847,18.5291,-16.4083,179.121,1.604,-144.91,448
1570004458,379.847,18.5291,-16.4083,179.121,1.604,-144.91,448
1570004458,379.847,18.5291,-16.4083,179.121,1.604,-144.91,448
1570004458,379.847,18.5291,-16.4083,179.121,1.604,-144.91,448
1570004458,379.847,18.5291,-16.4083,179.121,1.604,-144.91,448
1570004458,379.847,18.5291,-16.4083,179.121,1.604,-144.91,448
1570004458,379.847,18.5291,-16.5199,179.121,1.604,-144.91,448
1570004458,379.847,18.5291,-16.5199,179.121,1.604,-144.91,448
1570004458,379.735,18.5291,-16.5199,179.121,1.604,-144.91,448
1570004458,379.735,18.5291,-16.5199,179.121,1.604,-144.91,452
1570004459,379.735,18.5291,-16.5199,179.121,1.604,-144.91,452
1570004459,379.735,18.5291,-16.5199,179.121,1.604,-144.91,452
1570004459,379.735,18.5291,-16.4083,179.121,1.604,-144.91,452
1570004459,379.735,18.5291,-16.4083,179.121,1.604,-144.91,456
1570004459,379.735,18.5291,-16.4083,179.121,1.604,-144.91,456
1570004459,379.735,18.5291,-16.4083,179.121,1.604,-144.91,456
1570004459,379.735,18.5291,-16.4083,179.121,1.604,-144.91,456
1570004459,379.735,18.5291,-16.4083,179.121,1.604,-144.91,456
1570004459,379.735,18.5291,-16.4083,179.121,1.604,-144.91,460
1570004459,379.735,18.5291,-16.4083,179.121,1.604,-144.91,460
1570004459,379.735,18.5291,-16.4083,179.121,1.62598,-144.91,460
1570004459,379.735,18.5291,-16.4083,179.121,1.62598,-144.91,460
1570004459,379.735,18.5291,-16.4083,179.121,1.62598,-144.91,460
1570004459,379.735,18.5291,-16.4083,179.121,1.62598,-144.91,460
1570004459,379.735,18.5291,-16.4083,179.121,1.62598,-144.91,464
1570004459,379.735,18.5291,-16.4083,179.121,1.62598,-144.91,464
1570004459,379.735,18.5291,-16.4083,179.121,1.62598,-144.91,464
1570004459,379.735,18.5291,-16.4083,179.121,1.62598,-144.91,464
1570004459,379.735,18.5291,-16.4083,179.099,1.62598,-144.91,468
1570004459,379.735,18.4175,-16.4083,179.099,1.62598,-144.91,468
1570004459,379.735,18.4175,-16.4083,179.099,1.62598,-144.91,468
1570004459,379.735,18.4175,-16.4083,179.099,1.62598,-144.91,468
1570004459,379.735,18.4175,-16.4083,179.099,1.62598,-144.91,472
1570004459,379.735,18.4175,-16.4083,179.099,1.62598,-144.91,472
1570004459,379.735,18.4175,-16.4083,179.099,1.604,-144.91,472
1570004459,379.735,18.4175,-16.4083,179.099,1.604,-144.91,472
1570004459,379.735,18.4175,-16.4083,179.099,1.604,-144.91,472
1570004459,379.735,18.4175,-16.4083,179.099,1.604,-144.91,472
1570004459,379.735,18.4175,-16.4083,179.099,1.604,-144.91,472
1570004459,379.735,18.4175,-16.4083,179.099,1.604,-144.888,472
1570004459,379.735,18.4175,-16.4083,179.099,1.604,-144.888,472
1570004459,379.735,18.4175,-16.4083,179.099,1.604,-144.888,472
1570004459,379.735,18.4175,-16.4083,179.099,1.604,-144.888,472
1570004459,379.735,18.4175,-16.4083,179.099,1.604,-144.888,472
1570004459,379.735,18.4175,-16.4083,179.099,1.604,-144.888,472
1570004459,379.735,18.5291,-16.4083,179.099,1.604,-144.888,472
1570004459,379.735,18.5291,-16.4083,179.099,1.604,-144.888,472
1570004459,379.735,18.5291,-16.4083,179.099,1.604,-144.888,472
1570004459,379.735,18.5291,-16.4083,179.099,1.604,-144.888,472
1570004459,379.735,18.5291,-16.4083,179.099,1.604,-144.888,472
1570004459,379.735,18.5291,-16.4083,179.099,1.604,-144.888,468
1570004459,379.735,18.5291,-16.4083,179.099,1.604,-144.888,468
1570004459,379.735,18.5291,-16.4083,179.099,1.604,-144.888,468
1570004459,379.735,18.5291,-16.4083,179.099,1.604,-144.888,468
1570004459,379.735,18.5291,-16.4083,179.099,1.604,-144.888,468
1570004459,379.735,18.5291,-16.4083,179.099,1.604,-144.888,468
1570004459,379.735,18.5291,-16.4083,179.121,1.604,-144.888,468
1570004459,379.735,18.5291,-16.4083,179.121,1.604,-144.888,468
1570004459,379.735,18.5291,-16.4083,179.121,1.604,-144.888,468
1570004459,379.735,18.5291,-16.4083,179.121,1.604,-144.888,468
1570004459,379.735,18.5291,-16.4083,179.121,1.604,-144.888,468
1570004459,379.735,18.5291,-16.4083,179.121,1.604,-144.888,468
1570004459,379.735,18.5291,-16.4083,179.121,1.604,-144.888,468
1570004459,379.735,18.5291,-16.4083,179.121,1.62598,-144.888,468
1570004459,379.735,18.5291,-16.4083,179.121,1.62598,-144.888,468
1570004459,379.735,18.5291,-16.4083,179.121,1.62598,-144.888,468
1570004459,379.735,18.5291,-16.4083,179.121,1.62598,-144.888,468
1570004459,379.735,18.5291,-16.4083,179.121,1.62598,-144.888,468
1570004459,379.735,18.5291,-16.4083,179.121,1.62598,-144.888,468
1570004459,379.735,18.5291,-16.4083,179.121,1.62598,-144.888,468
1570004459,379.735,18.5291,-16.4083,179.121,1.62598,-144.888,468
1570004459,379.735,18.5291,-16.4083,179.121,1.62598,-144.888,468
1570004459,379.735,18.5291,-16.4083,179.121,1.62598,-144.888,468
1570004459,379.735,18.5291,-16.4083,179.121,1.62598,-144.888,468
1570004459,379.735,18.5291,-16.4083,179.121,1.62598,-144.888,468
1570004459,379.735,18.5291,-16.4083,179.121,1.62598,-144.888,472
1570004459,379.735,18.5291,-16.4083,179.121,1.62598,-144.888,472
1570004459,379.735,18.5291,-16.4083,179.121,1.62598,-144.888,472
1570004459,379.735,18.5291,-16.4083,179.121,1.62598,-144.91,472
1570004459,379.735,18.5291,-16.4083,179.121,1.62598,-144.91,472
1570004459,379.735,18.5291,-16.4083,179.121,1.62598,-144.91,476
1570004459,379.735,18.5291,-16.4083,179.121,1.62598,-144.91,476
1570004459,379.735,18.5291,-16.4083,179.121,1.62598,-144.91,476
1570004459,379.735,18.5291,-16.4083,179.121,1.604,-144.91,476
1570004459,379.735,18.5291,-16.4083,179.121,1.604,-144.91,476
1570004459,379.735,18.5291,-16.4083,179.121,1.604,-144.91,476
1570004459,379.735,18.5291,-16.4083,179.121,1.604,-144.91,476
1570004459,379.735,18.5291,-16.4083,179.121,1.604,-144.91,476
1570004459,379.735,18.5291,-16.4083,179.121,1.604,-144.91,476
1570004459,379.735,18.5291,-16.4083,179.121,1.604,-144.91,476
1570004459,379.735,18.5291,-16.5199,179.099,1.604,-144.91,480
1570004459,379.735,18.4175,-16.5199,179.099,1.604,-144.91,480
1570004459,379.735,18.4175,-16.5199,179.099,1.604,-144.91,480
1570004459,379.735,18.4175,-16.5199,179.099,1.604,-144.91,480
1570004459,379.735,18.4175,-16.5199,179.099,1.604,-144.91,480
1570004459,379.735,18.4175,-16.5199,179.099,1.604,-144.91,480
1570004459,379.735,18.4175,-16.5199,179.099,1.604,-144.91,480
1570004459,379.735,18.4175,-16.5199,179.099,1.604,-144.91,480
1570004459,379.735,18.4175,-16.5199,179.099,1.604,-144.91,480
1570004459,379.735,18.4175,-16.5199,179.099,1.604,-144.91,480
1570004459,379.735,18.4175,-16.5199,179.099,1.604,-144.91,480
1570004459,379.735,18.4175,-16.5199,179.099,1.604,-144.91,480
1570004459,379.735,18.4175,-16.5199,179.099,1.604,-144.91,480
1570004459,379.735,18.4175,-16.5199,179.099,1.604,-144.91,480
1570004459,379.735,18.4175,-16.5199,179.099,1.604,-144.91,480
1570004459,379.735,18.4175,-16.5199,179.099,1.604,-144.91,480
1570004459,379.735,18.4175,-16.5199,179.121,1.58203,-144.91,480
1570004459,379.735,18.5291,-16.5199,179.121,1.58203,-144.91,480
1570004459,379.735,18.5291,-16.5199,179.121,1.604,-144.91,480
1570004459,379.735,18.5291,-16.5199,179.121,1.604,-144.91,476
1570004460,379.735,18.5291,-16.5199,179.121,1.604,-144.91,476
1570004460,379.735,18.5291,-16.5199,179.121,1.604,-144.91,476
1570004460,379.735,18.5291,-16.5199,179.121,1.604,-144.91,476
1570004460,379.735,18.5291,-16.5199,179.121,1.604,-144.91,476
1570004460,379.735,18.5291,-16.5199,179.121,1.604,-144.91,476
1570004460,379.735,18.5291,-16.5199,179.121,1.604,-144.91,476
1570004460,379.735,18.5291,-16.5199,179.121,1.604,-144.91,472
1570004460,379.735,18.5291,-16.5199,179.121,1.604,-144.91,472
1570004460,379.847,18.5291,-16.5199,179.121,1.604,-144.91,472
1570004460,379.847,18.5291,-16.5199,179.121,1.604,-144.91,472
1570004460,379.847,18.5291,-16.5199,179.121,1.604,-144.932,472
1570004460,379.847,18.5291,-16.4083,179.121,1.604,-144.932,472
1570004460,379.847,18.5291,-16.4083,179.121,1.604,-144.932,472
1570004460,379.847,18.5291,-16.4083,179.121,1.604,-144.932,472
1570004460,379.847,18.5291,-16.4083,179.121,1.604,-144.932,472
1570004460,379.847,18.5291,-16.4083,179.121,1.62598,-144.932,468
1570004460,379.847,18.5291,-16.4083,179.121,1.62598,-144.91,468
1570004460,379.847,18.5291,-16.4083,179.121,1.62598,-144.91,468
1570004460,379.847,18.5291,-16.4083,179.121,1.62598,-144.91,468
1570004460,379.847,18.5291,-16.4083,179.121,1.62598,-144.91,468
1570004460,379.847,18.5291,-16.4083,179.121,1.62598,-144.91,468
1570004460,379.847,18.5291,-16.4083,179.121,1.62598,-144.91,468
1570004460,379.847,18.5291,-16.4083,179.121,1.62598,-144.91,464
1570004460,379.847,18.5291,-16.4083,179.121,1.64795,-144.91,464
1570004460,379.847,18.5291,-16.4083,179.121,1.64795,-144.91,464
1570004460,379.847,18.5291,-16.4083,179.121,1.64795,-144.91,464
1570004460,379.847,18.5291,-16.4083,179.121,1.64795,-144.91,464
1570004460,379.847,18.5291,-16.4083,179.121,1.64795,-144.91,464
1570004460,379.847,18.5291,-16.4083,179.121,1.62598,-144.932,460
1570004460,379.847,18.5291,-16.4083,179.121,1.62598,-144.932,460
1570004460,379.847,18.5291,-16.4083,179.121,1.62598,-144.932,460
1570004460,379.847,18.5291,-16.4083,179.121,1.62598,-144.932,460
1570004460,379.847,18.5291,-16.4083,179.121,1.62598,-144.932,460
1570004460,379.847,18.5291,-16.4083,179.121,1.62598,-144.91,460
1570004460,379.847,18.5291,-16.4083,179.121,1.62598,-144.91,460
1570004460,379.847,18.5291,-16.4083,179.121,1.62598,-144.91,460
1570004460,379.847,18.5291,-16.4083,179.121,1.62598,-144.91,460
1570004460,379.847,18.5291,-16.4083,179.121,1.62598,-144.91,460
1570004460,379.847,18.5291,-16.4083,179.121,1.62598,-144.91,456
1570004460,379.847,18.5291,-16.4083,179.121,1.62598,-144.91,456
1570004460,379.735,18.5291,-16.4083,179.121,1.62598,-144.91,456
1570004460,379.735,18.5291,-16.4083,179.121,1.62598,-144.91,456
1570004460,379.735,18.5291,-16.4083,179.121,1.62598,-144.91,456
1570004460,379.735,18.5291,-16.2967,179.121,1.62598,-144.91,456
1570004460,379.735,18.5291,-16.2967,179.121,1.62598,-144.91,456
1570004460,379.735,18.5291,-16.4083,179.121,1.62598,-144.888,456
1570004460,379.735,18.5291,-16.4083,179.121,1.62598,-144.888,456
1570004460,379.735,18.5291,-16.4083,179.121,1.62598,-144.888,456
1570004460,379.735,18.5291,-16.4083,179.121,1.62598,-144.888,456
1570004460,379.735,18.5291,-16.4083,179.121,1.62598,-144.888,456
1570004460,379.735,18.5291,-16.4083,179.121,1.62598,-144.888,456
1570004460,379.735,18.5291,-16.4083,179.121,1.62598,-144.888,460
1570004460,379.735,18.5291,-16.4083,179.121,1.62598,-144.888,460
1570004460,379.735,18.5291,-16.4083,179.121,1.62598,-144.888,460
1570004460,379.735,18.5291,-16.4083,179.099,1.62598,-144.888,460
1570004460,379.735,18.5291,-16.4083,179.099,1.62598,-144.888,456
1570004460,379.735,18.4175,-16.2967,179.099,1.62598,-144.888,456
1570004460,379.735,18.4175,-16.2967,179.099,1.62598,-144.888,456
1570004460,379.735,18.4175,-16.2967,179.099,1.62598,-144.888,456
1570004460,379.735,18.4175,-16.2967,179.099,1.62598,-144.888,456
1570004460,379.735,18.4175,-16.2967,179.099,1.62598,-144.888,452
1570004460,379.735,18.4175,-16.2967,179.099,1.62598,-144.888,452
1570004460,379.735,18.5291,-16.4083,179.099,1.62598,-144.888,452
1570004460,379.735,18.5291,-16.4083,179.099,1.62598,-144.888,452
1570004460,379.735,18.5291,-16.4083,179.099,1.62598,-144.888,452
1570004460,379.735,18.5291,-16.4083,179.099,1.62598,-144.888,452
1570004460,379.735,18.5291,-16.4083,179.099,1.62598,-144.888,448
1570004460,379.735,18.5291,-16.4083,179.099,1.604,-144.888,448
1570004460,379.735,18.5291,-16.4083,179.099,1.604,-144.888,448
1570004460,379.735,18.5291,-16.4083,179.099,1.604,-144.888,448
1570004460,379.735,18.5291,-16.4083,179.121,1.604,-144.888,448
1570004460,379.735,18.5291,-16.4083,179.121,1.604,-144.888,448
1570004460,379.735,18.5291,-16.4083,179.121,1.604,-144.888,448
1570004460,379.735,18.5291,-16.4083,179.121,1.604,-144.888,448
1570004460,379.735,18.5291,-16.4083,179.121,1.604,-144.888,448
1570004460,379.735,18.5291,-16.4083,179.121,1.604,-144.888,448
1570004460,379.735,18.5291,-16.4083,179.121,1.604,-144.91,448
1570004460,379.735,18.5291,-16.4083,179.121,1.604,-144.91,444
1570004460,379.735,18.5291,-16.4083,179.099,1.604,-144.91,444
1570004460,379.735,18.5291,-16.4083,179.099,1.604,-144.91,444
1570004460,379.735,18.5291,-16.4083,179.099,1.604,-144.91,444
1570004460,379.735,18.5291,-16.4083,179.099,1.604,-144.91,444
1570004460,379.735,18.5291,-16.4083,179.099,1.604,-144.91,444
1570004460,379.847,18.5291,-16.4083,179.099,1.604,-144.91,444
1570004460,379.847,18.5291,-16.4083,179.099,1.604,-144.91,444
1570004460,379.847,18.5291,-16.4083,179.099,1.604,-144.91,440
1570004460,379.847,18.5291,-16.4083,179.099,1.604,-144.91,440
1570004460,379.847,18.5291,-16.4083,179.099,1.604,-144.91,444
1570004460,379.847,18.5291,-16.4083,179.121,1.604,-144.91,444
1570004460,379.847,18.4175,-16.4083,179.121,1.604,-144.91,444
1570004460,379.847,18.4175,-16.4083,179.099,1.604,-144.91,444
1570004460,379.847,18.4175,-16.4083,179.099,1.604,-144.91,444
1570004460,379.847,18.4175,-16.4083,179.121,1.604,-144.91,444
1570004460,379.847,18.4175,-16.4083,179.121,1.604,-144.91,444
1570004460,379.847,18.4175,-16.4083,179.121,1.604,-144.91,444
1570004460,379.847,18.4175,-16.4083,179.121,1.604,-144.91,440
1570004460,379.847,18.4175,-16.4083,179.121,1.604,-144.91,440
1570004460,379.847,18.5291,-16.4083,179.121,1.604,-144.91,440
1570004460,379.735,18.5291,-16.4083,179.121,1.604,-144.91,440
1570004460,379.735,18.5291,-16.4083,179.121,1.604,-144.91,440
1570004461,379.735,18.5291,-16.4083,179.121,1.604,-144.91,440
1570004461,379.735,18.5291,-16.4083,179.121,1.604,-144.91,440
1570004461,379.735,18.5291,-16.4083,179.121,1.604,-144.91,440
1570004461,379.735,18.5291,-16.4083,179.121,1.604,-144.91,440
1570004461,379.735,18.5291,-16.4083,179.143,1.604,-144.91,444
1570004461,379.735,18.5291,-16.4083,179.143,1.604,-144.91,444
1570004461,379.735,18.5291,-16.4083,179.143,1.604,-144.91,444
1570004461,379.735,18.5291,-16.5199,179.143,1.604,-144.91,448
1570004461,379.735,18.5291,-16.5199,179.143,1.604,-144.91,448
1570004461,379.735,18.5291,-16.5199,179.143,1.604,-144.91,448
1570004461,379.735,18.5291,-16.4083,179.121,1.604,-144.91,448
1570004461,379.735,18.5291,-16.4083,179.121,1.604,-144.91,452
1570004461,379.735,18.5291,-16.4083,179.121,1.604,-144.91,452
1570004461,379.735,18.5291,-16.4083,179.121,1.604,-144.91,452
1570004461,379.735,18.5291,-16.4083,179.121,1.604,-144.91,452
1570004461,379.735,18.4175,-16.4083,179.121,1.604,-144.91,456
1570004461,379.735,18.4175,-16.4083,179.121,1.604,-144.91,456
1570004461,379.735,18.4175,-16.4083,179.121,1.604,-144.91,456
1570004461,379.735,18.4175,-16.4083,179.099,1.604,-144.91,456
1570004461,379.735,18.4175,-16.4083,179.121,1.62598,-144.91,456
1570004461,379.735,18.5291,-16.4083,179.121,1.62598,-144.91,456
1570004461,379.735,18.5291,-16.4083,179.121,1.62598,-144.91,456
1570004461,379.735,18.5291,-16.4083,179.121,1.62598,-144.91,456
1570004461,379.735,18.5291,-16.4083,179.121,1.62598,-144.91,456
1570004461,379.735,18.5291,-16.4083,179.121,1.62598,-144.91,456
1570004461,379.735,18.5291,-16.4083,179.121,1.62598,-144.91,456
1570004461,379.735,18.5291,-16.4083,179.121,1.62598,-144.91,456
1570004461,379.735,18.5291,-16.4083,179.099,1.62598,-144.91,456
1570004461,379.735,18.5291,-16.4083,179.099,1.62598,-144.91,456
1570004461,379.735,18.5291,-16.4083,179.099,1.62598,-144.91,456
1570004461,379.735,18.5291,-16.4083,179.099,1.604,-144.91,456
1570004461,379.735,18.5291,-16.4083,179.099,1.604,-144.91,456
1570004461,379.735,18.5291,-16.5199,179.099,1.604,-144.91,456
1570004461,379.735,18.5291,-16.5199,179.099,1.604,-144.91,456
1570004461,379.735,18.5291,-16.5199,179.099,1.604,-144.91,456
1570004461,379.847,18.5291,-16.5199,179.099,1.604,-144.91,456
1570004461,379.847,18.5291,-16.5199,179.099,1.58203,-144.91,456
1570004461,379.847,18.5291,-16.5199,179.099,1.58203,-144.91,452
1570004461,379.847,18.5291,-16.5199,179.099,1.58203,-144.91,452
1570004461,379.847,18.5291,-16.5199,179.099,1.58203,-144.91,452
1570004461,379.847,18.5291,-16.5199,179.099,1.58203,-144.91,452
1570004461,379.847,18.5291,-16.5199,179.099,1.58203,-144.91,452
1570004461,379.847,18.5291,-16.5199,179.099,1.58203,-144.91,452
1570004461,379.847,18.5291,-16.5199,179.099,1.58203,-144.91,452
1570004461,379.847,18.5291,-16.5199,179.099,1.58203,-144.91,452
1570004461,379.847,18.5291,-16.5199,179.099,1.58203,-144.91,452
1570004461,379.847,18.4175,-16.5199,179.099,1.58203,-144.91,452
1570004461,379.847,18.4175,-16.5199,179.099,1.604,-144.91,452
1570004461,379.847,18.4175,-16.5199,179.099,1.604,-144.91,452
1570004461,379.847,18.4175,-16.5199,179.099,1.604,-144.91,452
1570004461,379.847,18.4175,-16.5199,179.099,1.604,-144.91,452
1570004461,379.847,18.4175,-16.5199,179.099,1.604,-144.91,452
1570004461,379.847,18.4175,-16.5199,179.099,1.604,-144.91,452
1570004461,379.847,18.4175,-16.5199,179.077,1.604,-144.91,452
1570004461,379.847,18.4175,-16.5199,179.077,1.604,-144.91,452
1570004461,379.847,18.4175,-16.5199,179.077,1.604,-144.91,452
1570004466,364.443,35.1606,-16.2967,179.099,1.75781,-145.525,436
1570004466,364.555,35.1606,-16.2967,179.099,1.75781,-145.525,436
1570004466,364.555,35.1606,-16.2967,179.099,1.75781,-145.525,436
1570004466,364.555,35.1606,-16.2967,179.099,1.75781,-145.525,432
1570004466,364.555,35.1606,-16.2967,179.099,1.75781,-145.525,432
1570004466,364.555,35.1606,-16.2967,179.099,1.75781,-145.525,432
1570004466,364.555,35.1606,-16.2967,179.099,1.75781,-145.525,432
1570004466,364.555,35.1606,-16.2967,179.077,1.75781,-145.525,432
1570004466,364.555,35.1606,-16.2967,179.077,1.75781,-145.525,428
1570004466,364.555,35.1606,-16.2967,179.077,1.75781,-145.525,428
1570004466,364.555,35.1606,-16.2967,179.099,1.75781,-145.525,428
1570004466,364.555,35.1606,-16.2967,179.099,1.75781,-145.525,428
1570004466,364.555,35.1606,-16.2967,179.099,1.75781,-145.525,424
1570004466,364.555,35.1606,-16.2967,179.099,1.75781,-145.525,424
1570004466,364.555,35.1606,-16.2967,179.099,1.75781,-145.525,424
1570004466,364.555,35.1606,-16.2967,179.099,1.75781,-145.525,424
1570004466,364.555,35.1606,-16.2967,179.099,1.75781,-145.525,420
1570004466,364.555,35.1606,-16.2967,179.099,1.75781,-145.525,420
1570004466,364.666,35.1606,-16.2967,179.099,1.75781,-145.525,420
1570004466,364.666,35.1606,-16.2967,179.077,1.75781,-145.525,420
1570004466,364.666,35.1606,-16.2967,179.077,1.75781,-145.525,420
1570004466,364.666,35.1606,-16.2967,179.077,1.75781,-145.525,420
1570004466,364.666,35.1606,-16.4083,179.077,1.75781,-145.525,420
1570004466,364.666,35.1606,-16.4083,179.077,1.75781,-145.547,420
1570004466,364.666,35.1606,-16.4083,179.099,1.75781,-145.547,420
1570004466,364.666,35.1606,-16.4083,179.099,1.75781,-145.547,424
1570004466,364.555,35.1606,-16.4083,179.099,1.75781,-145.547,424
1570004466,364.555,35.1606,-16.4083,179.099,1.75781,-145.525,424
1570004466,364.555,35.1606,-16.4083,179.099,1.75781,-145.525,424
1570004467,364.555,35.1606,-16.4083,179.099,1.75781,-145.525,424
1570004467,364.555,35.1606,-16.4083,179.099,1.75781,-145.525,428
1570004467,364.555,35.1606,-16.4083,179.099,1.75781,-145.525,428
1570004467,364.555,35.1606,-16.4083,179.099,1.75781,-145.525,428
1570004467,364.666,35.1606,-16.4083,179.077,1.75781,-145.525,428
1570004467,364.666,35.1606,-16.4083,179.077,1.75781,-145.525,428
1570004467,364.666,35.1606,-16.2967,179.077,1.75781,-145.525,428
1570004467,364.666,35.1606,-16.2967,179.077,1.75781,-145.525,428
1570004467,364.666,35.1606,-16.2967,179.077,1.75781,-145.525,428
1570004467,364.666,35.1606,-16.2967,179.077,1.75781,-145.525,428
1570004467,364.666,35.1606,-16.2967,179.077,1.75781,-145.525,428
1570004467,364.666,35.1606,-16.2967,179.077,1.75781,-145.503,428
1570004467,364.666,35.1606,-16.2967,179.077,1.75781,-145.503,428
1570004467,364.666,35.1606,-16.2967,179.077,1.75781,-145.503,428
1570004467,364.666,35.1606,-16.2967,179.077,1.75781,-145.503,428
1570004467,364.666,35.049,-16.2967,179.077,1.75781,-145.503,428
1570004467,364.666,35.049,-16.2967,179.077,1.75781,-145.503,428
1570004467,364.666,35.049,-16.2967,179.077,1.75781,-145.503,428
1570004467,364.666,35.049,-16.2967,179.077,1.75781,-145.503,428
1570004467,364.666,35.049,-16.2967,179.077,1.75781,-145.503,428
1570004467,364.555,35.049,-16.2967,179.077,1.75781,-145.503,428
1570004467,364.555,35.049,-16.2967,179.077,1.75781,-145.503,428
1570004467,364.555,35.049,-16.2967,179.077,1.75781,-145.503,432
1570004467,364.555,35.049,-16.2967,179.077,1.75781,-145.503,432
1570004467,364.555,35.049,-16.2967,179.077,1.75781,-145.503,432
1570004467,364.555,35.049,-16.2967,179.077,1.75781,-145.503,432
1570004467,364.555,35.049,-16.2967,179.077,1.75781,-145.503,436
1570004467,364.555,35.049,-16.2967,179.077,1.75781,-145.503,436
1570004467,364.555,35.049,-16.2967,179.077,1.75781,-145.525,436
1570004467,364.555,35.049,-16.2967,179.077,1.75781,-145.525,436
1570004467,364.555,35.049,-16.2967,179.077,1.75781,-145.525,436
1570004467,364.555,35.049,-16.2967,179.077,1.75781,-145.525,436
1570004467,364.555,35.049,-16.2967,179.077,1.75781,-145.525,436
1570004467,364.555,35.049,-16.4083,179.077,1.75781,-145.525,440
1570004467,364.555,35.049,-16.4083,179.077,1.75781,-145.525,440
1570004467,364.555,35.049,-16.4083,179.077,1.75781,-145.525,440
1570004467,364.555,35.049,-16.4083,179.077,1.75781,-145.525,440
1570004467,364.555,35.1606,-16.4083,179.077,1.75781,-145.525,440
1570004467,364.555,35.1606,-16.4083,179.077,1.75781,-145.525,440
1570004467,364.555,35.1606,-16.4083,179.099,1.75781,-145.525,440
1570004467,364.555,35.1606,-16.2967,179.099,1.75781,-145.525,440
1570004467,364.555,35.1606,-16.2967,179.099,1.75781,-145.525,440
1570004467,364.555,35.1606,-16.2967,179.099,1.75781,-145.525,440
1570004467,364.555,35.1606,-16.2967,179.099,1.75781,-145.525,440
1570004467,364.555,35.1606,-16.2967,179.099,1.75781,-145.525,440
1570004467,364.555,35.1606,-16.2967,179.099,1.75781,-145.503,440
1570004467,364.555,35.1606,-16.2967,179.099,1.75781,-145.503,440
1570004467,364.555,35.1606,-16.2967,179.099,1.75781,-145.503,436
1570004467,364.555,35.1606,-16.2967,179.099,1.75781,-145.503,436
1570004467,364.555,35.1606,-16.2967,179.099,1.75781,-145.503,436
1570004467,364.555,35.1606,-16.2967,179.099,1.75781,-145.503,436
1570004467,364.555,35.1606,-16.4083,179.099,1.75781,-145.503,436
1570004467,364.555,35.1606,-16.4083,179.099,1.73584,-145.503,436
1570004467,364.555,35.1606,-16.4083,179.099,1.73584,-145.503,436
1570004467,364.555,35.1606,-16.4083,179.099,1.73584,-145.503,436
1570004467,364.555,35.1606,-16.4083,179.099,1.73584,-145.503,436
1570004467,364.555,35.1606,-16.4083,179.099,1.73584,-145.503,436
1570004467,364.555,35.1606,-16.4083,179.099,1.73584,-145.503,436
1570004467,364.555,35.1606,-16.4083,179.099,1.73584,-145.503,436
1570004467,364.555,35.1606,-16.4083,179.099,1.73584,-145.503,436
1570004467,364.555,35.1606,-16.4083,179.099,1.73584,-145.503,436
1570004467,364.555,35.1606,-16.4083,179.099,1.75781,-145.503,436
1570004467,364.555,35.1606,-16.4083,179.099,1.75781,-145.503,436
1570004467,364.555,35.1606,-16.4083,179.099,1.75781,-145.503,432
1570004467,364.555,35.1606,-16.4083,179.099,1.75781,-145.503,432
1570004467,364.555,35.1606,-16.4083,179.099,1.75781,-145.503,432
1570004467,364.555,35.1606,-16.4083,179.099,1.75781,-145.503,432
1570004467,364.555,35.1606,-16.4083,179.099,1.75781,-145.503,432
1570004467,364.555,35.1606,-16.4083,179.099,1.75781,-145.503,428
1570004467,364.555,35.1606,-16.4083,179.099,1.75781,-145.503,428
1570004467,364.555,35.1606,-16.4083,179.099,1.75781,-145.503,428
1570004467,364.555,35.1606,-16.4083,179.099,1.75781,-145.503,428
1570004467,364.555,35.1606,-16.4083,179.099,1.75781,-145.503,428
1570004467,364.555,35.1606,-16.4083,179.099,1.75781,-145.503,428
1570004467,364.555,35.1606,-16.4083,179.099,1.75781,-145.503,428
1570004467,364.555,35.1606,-16.4083,179.099,1.75781,-145.525,428
1570004467,364.555,35.1606,-16.4083,179.099,1.75781,-145.525,428
1570004467,364.555,35.1606,-16.4083,179.099,1.75781,-145.525,428
1570004467,364.555,35.1606,-16.4083,179.099,1.75781,-145.525,428
1570004467,364.555,35.1606,-16.4083,179.099,1.75781,-145.525,428
1570004467,364.555,35.1606,-16.4083,179.099,1.75781,-145.525,432
1570004467,364.555,35.1606,-16.4083,179.099,1.75781,-145.525,432
1570004467,364.555,35.1606,-16.4083,179.099,1.75781,-145.525,432
1570004467,364.555,35.1606,-16.4083,179.099,1.75781,-145.525,436
1570004467,364.555,35.1606,-16.4083,179.099,1.75781,-145.525,436
1570004467,364.555,35.1606,-16.2967,179.099,1.75781,-145.525,436
1570004467,364.555,35.1606,-16.2967,179.099,1.75781,-145.525,440
1570004467,364.555,35.1606,-16.2967,179.099,1.75781,-145.525,440
1570004467,364.555,35.1606,-16.2967,179.099,1.75781,-145.525,440
1570004467,364.555,35.1606,-16.2967,179.099,1.75781,-145.525,440
1570004467,364.555,35.1606,-16.2967,179.099,1.75781,-145.525,444
1570004467,364.555,35.1606,-16.2967,179.099,1.75781,-145.525,444
1570004467,364.555,35.1606,-16.2967,179.099,1.75781,-145.525,444
1570004467,364.555,35.1606,-16.2967,179.121,1.75781,-145.525,444
1570004467,364.555,35.1606,-16.2967,179.121,1.75781,-145.525,444
1570004467,364.555,35.2723,-16.2967,179.121,1.75781,-145.525,444
1570004467,364.555,35.2723,-16.2967,179.121,1.75781,-145.525,444
1570004467,364.555,35.2723,-16.2967,179.121,1.75781,-145.525,444
1570004467,364.555,35.2723,-16.2967,179.121,1.75781,-145.525,444
1570004467,364.555,35.2723,-16.2967,179.121,1.75781,-145.525,444
1570004468,364.555,35.2723,-16.2967,179.121,1.75781,-145.525,444
1570004468,364.555,35.2723,-16.2967,179.121,1.75781,-145.525,444
1570004468,364.555,35.2723,-16.2967,179.121,1.75781,-145.525,440
1570004468,364.555,35.2723,-16.2967,179.121,1.75781,-145.525,440
1570004468,364.555,35.2723,-16.2967,179.121,1.75781,-145.525,440
1570004468,364.555,35.2723,-16.2967,179.121,1.77979,-145.525,440
1570004468,364.555,35.2723,-16.2967,179.121,1.77979,-145.525,440
1570004468,364.555,35.2723,-16.2967,179.121,1.77979,-145.525,440
1570004468,364.555,35.2723,-16.2967,179.121,1.77979,-145.525,436
1570004468,364.555,35.2723,-16.2967,179.143,1.77979,-145.525,436
1570004468,364.555,35.2723,-16.2967,179.143,1.77979,-145.525,436
1570004468,364.555,35.2723,-16.2967,179.143,1.75781,-145.525,436
1570004468,364.555,35.2723,-16.2967,179.143,1.75781,-145.525,436
1570004468,364.555,35.2723,-16.2967,179.143,1.75781,-145.525,432
1570004468,364.555,35.2723,-16.2967,179.143,1.75781,-145.525,432
1570004468,364.555,35.2723,-16.2967,179.143,1.75781,-145.503,432
1570004468,364.443,35.2723,-16.2967,179.143,1.75781,-145.503,432
1570004468,364.443,35.2723,-16.2967,179.121,1.75781,-145.503,432
1570004468,364.443,35.2723,-16.4083,179.121,1.73584,-145.503,432
1570004468,364.443,35.2723,-16.4083,179.121,1.73584,-145.503,432
1570004468,364.443,35.2723,-16.4083,179.121,1.73584,-145.503,432
1570004468,364.443,35.1606,-16.4083,179.121,1.73584,-145.503,432
1570004468,364.443,35.1606,-16.2967,179.121,1.73584,-145.503,432
1570004468,364.443,35.1606,-16.2967,179.121,1.73584,-145.503,436
1570004468,364.443,35.1606,-16.2967,179.121,1.73584,-145.503,436
1570004468,364.443,35.1606,-16.2967,179.121,1.73584,-145.503,436
1570004468,364.443,35.1606,-16.2967,179.099,1.73584,-145.503,436
1570004468,364.443,35.1606,-16.2967,179.099,1.73584,-145.503,436
1570004468,364.443,35.1606,-16.4083,179.099,1.73584,-145.503,436
1570004468,364.443,35.1606,-16.4083,179.099,1.73584,-145.525,436
1570004468,364.443,35.1606,-16.4083,179.099,1.73584,-145.525,440
1570004468,364.443,35.1606,-16.4083,179.099,1.73584,-145.525,440
1570004468,364.443,35.1606,-16.4083,179.099,1.73584,-145.525,440
1570004468,364.443,35.1606,-16.4083,179.099,1.73584,-145.525,440
1570004468,364.443,35.1606,-16.4083,179.099,1.73584,-145.525,440
1570004468,364.443,35.1606,-16.4083,179.099,1.73584,-145.525,440
1570004468,364.555,35.1606,-16.4083,179.099,1.73584,-145.525,440
1570004468,364.555,35.1606,-16.4083,179.099,1.73584,-145.503,440
1570004468,364.443,35.1606,-16.4083,179.099,1.73584,-145.503,444
1570004468,364.443,35.1606,-16.4083,179.099,1.73584,-145.503,444
1570004468,364.443,35.1606,-16.4083,179.099,1.73584,-145.503,444
1570004468,364.443,35.1606,-16.4083,179.099,1.73584,-145.503,444
1570004468,364.443,35.1606,-16.4083,179.099,1.73584,-145.503,444
1570004468,364.443,35.1606,-16.4083,179.099,1.73584,-145.503,444
1570004468,364.443,35.1606,-16.4083,179.099,1.73584,-145.503,444
1570004468,364.443,35.1606,-16.4083,179.099,1.73584,-145.503,444
1570004468,364.443,35.1606,-16.4083,179.099,1.73584,-145.503,448
1570004468,364.443,35.1606,-16.4083,179.099,1.73584,-145.503,448
1570004468,364.443,35.1606,-16.4083,179.099,1.73584,-145.503,448
1570004468,364.443,35.1606,-16.4083,179.099,1.73584,-145.503,448
1570004468,364.443,35.1606,-16.4083,179.099,1.73584,-145.503,448
1570004468,364.443,35.1606,-16.4083,179.099,1.73584,-145.503,448
1570004468,364.443,35.1606,-16.4083,179.099,1.73584,-145.503,448
1570004468,364.443,35.1606,-16.4083,179.099,1.75781,-145.503,448
1570004468,364.443,35.1606,-16.4083,179.099,1.75781,-145.503,448
1570004468,364.443,35.1606,-16.2967,179.099,1.75781,-145.503,448
1570004468,364.443,35.1606,-16.2967,179.099,1.75781,-145.503,448
1570004468,364.443,35.1606,-16.2967,179.099,1.75781,-145.503,448
1570004468,364.443,35.1606,-16.2967,179.099,1.75781,-145.503,448
1570004468,364.443,35.1606,-16.4083,179.099,1.75781,-145.503,448
1570004468,364.443,35.1606,-16.4083,179.099,1.75781,-145.503,444
1570004468,364.443,35.1606,-16.4083,179.099,1.75781,-145.503,444
1570004468,364.555,35.1606,-16.4083,179.099,1.75781,-145.503,444
1570004468,364.555,35.1606,-16.4083,179.099,1.73584,-145.503,444
1570004468,364.555,35.1606,-16.4083,179.099,1.73584,-145.503,444
1570004468,364.555,35.1606,-16.4083,179.099,1.73584,-145.503,444
1570004468,364.555,35.1606,-16.4083,179.099,1.73584,-145.503,444
1570004468,364.555,35.1606,-16.4083,179.099,1.73584,-145.503,444
1570004468,364.555,35.1606,-16.4083,179.077,1.73584,-145.503,444
1570004468,364.555,35.1606,-16.4083,179.077,1.73584,-145.503,444
1570004468,364.555,35.1606,-16.4083,179.077,1.73584,-145.503,444
1570004468,364.555,35.1606,-16.4083,179.077,1.73584,-145.503,444
1570004468,364.555,35.1606,-16.4083,179.077,1.73584,-145.503,444
1570004468,364.555,35.049,-16.4083,179.077,1.73584,-145.503,444
1570004468,364.555,35.049,-16.4083,179.077,1.73584,-145.503,444
1570004468,364.555,35.049,-16.4083,179.077,1.73584,-145.503,440
1570004468,364.555,35.049,-16.4083,179.077,1.73584,-145.503,440
1570004468,364.555,35.049,-16.4083,179.077,1.73584,-145.503,440
1570004468,364.555,35.049,-16.4083,179.077,1.73584,-145.503,440
1570004468,364.555,35.1606,-16.4083,179.077,1.73584,-145.503,440
1570004468,364.555,35.1606,-16.4083,179.077,1.73584,-145.525,440
1570004468,364.555,35.1606,-16.4083,179.077,1.73584,-145.525,440
1570004468,364.555,35.049,-16.4083,179.077,1.73584,-145.525,440
1570004468,364.555,35.049,-16.4083,179.077,1.73584,-145.525,440
1570004468,364.555,35.049,-16.4083,179.077,1.73584,-145.525,440
1570004468,364.555,35.049,-16.4083,179.077,1.73584,-145.525,440
1570004468,364.555,35.049,-16.4083,179.077,1.73584,-145.525,440
1570004468,364.555,35.049,-16.4083,179.077,1.73584,-145.525,440
1570004468,364.555,35.049,-16.4083,179.077,1.73584,-145.525,440
1570004468,364.555,35.049,-16.4083,179.077,1.73584,-145.525,440
1570004468,364.555,35.049,-16.4083,179.077,1.73584,-145.503,440
1570004468,364.555,35.049,-16.4083,179.077,1.73584,-145.503,440
1570004468,364.555,35.049,-16.4083,179.077,1.73584,-145.503,440
1570004468,364.555,35.049,-16.4083,179.077,1.73584,-145.503,444
1570004468,364.555,35.049,-16.4083,179.077,1.73584,-145.503,444
1570004468,364.555,35.1606,-16.4083,179.077,1.73584,-145.503,444
1570004468,364.555,35.1606,-16.4083,179.077,1.73584,-145.503,444
1570004468,364.555,35.1606,-16.4083,179.077,1.73584,-145.503,444
1570004468,364.555,35.1606,-16.4083,179.077,1.73584,-145.503,448
1570004468,364.555,35.1606,-16.4083,179.099,1.73584,-145.503,448
1570004469,364.555,35.1606,-16.4083,179.099,1.73584,-145.503,448
1570004469,364.555,35.1606,-16.4083,179.099,1.73584,-145.503,448
1570004469,364.555,35.1606,-16.4083,179.099,1.73584,-145.503,448
1570004469,364.555,35.1606,-16.4083,179.099,1.73584,-145.503,448
1570004469,364.555,35.1606,-16.4083,179.099,1.73584,-145.503,448
1570004469,364.555,35.1606,-16.4083,179.099,1.73584,-145.503,448
1570004469,364.555,35.1606,-16.4083,179.099,1.73584,-145.503,448
1570004469,364.555,35.1606,-16.4083,179.121,1.73584,-145.503,448
1570004469,364.555,35.1606,-16.4083,179.121,1.73584,-145.525,444
1570004469,364.555,35.1606,-16.4083,179.121,1.73584,-145.525,444
1570004469,364.555,35.1606,-16.4083,179.121,1.73584,-145.525,444
1570004469,364.555,35.1606,-16.4083,179.121,1.75781,-145.525,440
1570004469,364.555,35.1606,-16.4083,179.121,1.75781,-145.525,440
1570004469,364.555,35.1606,-16.4083,179.121,1.75781,-145.525,440
1570004469,364.555,35.1606,-16.4083,179.121,1.75781,-145.525,436
1570004469,364.555,35.1606,-16.4083,179.121,1.75781,-145.525,436
1570004469,364.555,35.1606,-16.4083,179.121,1.75781,-145.525,436
1570004469,364.555,35.1606,-16.4083,179.121,1.75781,-145.525,436
1570004469,364.555,35.1606,-16.4083,179.121,1.75781,-145.525,432
1570004469,364.555,35.1606,-16.4083,179.121,1.75781,-145.525,432
1570004469,364.555,35.1606,-16.4083,179.121,1.73584,-145.525,432
1570004469,364.555,35.1606,-16.4083,179.121,1.73584,-145.525,432
1570004469,364.555,35.1606,-16.4083,179.121,1.73584,-145.525,432
1570004469,364.555,35.1606,-16.4083,179.121,1.73584,-145.525,432
1570004469,364.555,35.1606,-16.4083,179.121,1.73584,-145.525,432
1570004469,364.555,35.1606,-16.4083,179.099,1.73584,-145.525,428
1570004469,364.555,35.1606,-16.4083,179.099,1.73584,-145.503,428
1570004469,364.555,35.1606,-16.4083,179.099,1.73584,-145.503,428
1570004469,364.555,35.1606,-16.4083,179.099,1.71387,-145.503,428
1570004469,364.555,35.1606,-16.4083,179.099,1.71387,-145.503,428
1570004469,364.555,35.1606,-16.4083,179.099,1.73584,-145.503,428
1570004469,364.555,35.1606,-16.4083,179.099,1.73584,-145.503,428
1570004469,364.555,35.1606,-16.4083,179.121,1.73584,-145.503,428
1570004469,364.555,35.1606,-16.4083,179.121,1.73584,-145.503,424
1570004469,364.555,35.1606,-16.4083,179.121,1.73584,-145.503,424
1570004469,364.555,35.1606,-16.4083,179.121,1.73584,-145.503,424
1570004469,364.555,35.1606,-16.4083,179.121,1.73584,-145.503,424
1570004469,364.555,35.1606,-16.4083,179.121,1.73584,-145.503,424
1570004469,364.555,35.1606,-16.4083,179.121,1.75781,-145.503,424
1570004469,364.555,35.1606,-16.4083,179.121,1.75781,-145.503,424
1570004469,364.555,35.1606,-16.4083,179.099,1.75781,-145.503,424
1570004469,364.555,35.1606,-16.4083,179.099,1.75781,-145.503,424
1570004469,364.555,35.1606,-16.4083,179.099,1.73584,-145.503,424
1570004469,364.555,35.1606,-16.4083,179.099,1.73584,-145.503,428
1570004469,364.555,35.1606,-16.4083,179.099,1.73584,-145.503,428
1570004469,364.555,35.1606,-16.4083,179.099,1.73584,-145.503,428
1570004469,364.555,35.1606,-16.4083,179.099,1.73584,-145.503,428
1570004469,364.555,35.1606,-16.4083,179.077,1.73584,-145.503,428
1570004469,364.555,35.1606,-16.4083,179.077,1.73584,-145.503,428
1570004469,364.555,35.049,-16.4083,179.077,1.73584,-145.503,432
1570004469,364.555,35.049,-16.4083,179.077,1.73584,-145.503,432
1570004469,364.555,35.049,-16.4083,179.077,1.73584,-145.503,432
1570004469,364.555,35.049,-16.4083,179.077,1.73584,-145.503,432
1570004469,364.555,35.049,-16.4083,179.077,1.73584,-145.525,432
1570004469,364.555,35.049,-16.4083,179.077,1.73584,-145.525,432
1570004469,364.555,35.049,-16.4083,179.077,1.73584,-145.525,432
1570004469,364.555,35.1606,-16.4083,179.077,1.75781,-145.525,432
1570004469,364.555,35.1606,-16.4083,179.077,1.75781,-145.525,432
1570004469,364.555,35.1606,-16.4083,179.077,1.73584,-145.525,432
1570004469,364.555,35.1606,-16.2967,179.077,1.73584,-145.525,432
1570004469,364.555,35.049,-16.2967,179.077,1.75781,-145.525,432
1570004469,364.555,35.049,-16.2967,179.077,1.75781,-145.525,432
1570004469,364.555,35.049,-16.2967,179.077,1.75781,-145.525,432
1570004469,364.555,35.049,-16.2967,179.077,1.75781,-145.525,432
1570004469,364.555,35.049,-16.2967,179.077,1.75781,-145.525,432
1570004469,364.555,35.049,-16.2967,179.077,1.75781,-145.525,432
1570004469,364.555,35.049,-16.2967,179.077,1.75781,-145.525,432
1570004469,364.555,35.049,-16.2967,179.077,1.75781,-145.525,432
1570004469,364.555,35.049,-16.2967,179.077,1.75781,-145.525,432
1570004469,364.555,35.049,-16.2967,179.077,1.75781,-145.525,432
1570004469,364.555,35.049,-16.2967,179.077,1.75781,-145.525,432
1570004469,364.555,35.049,-16.2967,179.077,1.75781,-145.525,432
1570004469,364.555,35.049,-16.2967,179.077,1.75781,-145.525,436
1570004469,364.555,35.049,-16.4083,179.077,1.75781,-145.525,436
1570004469,364.555,35.049,-16.4083,179.077,1.75781,-145.525,436
1570004469,364.555,35.049,-16.4083,179.077,1.75781,-145.525,436
1570004469,364.555,35.049,-16.4083,179.077,1.75781,-145.525,436
1570004469,364.555,35.049,-16.4083,179.077,1.75781,-145.503,436
1570004469,364.555,35.049,-16.4083,179.077,1.75781,-145.503,436
1570004469,364.555,35.049,-16.4083,179.077,1.75781,-145.503,436
1570004469,364.555,35.049,-16.4083,179.077,1.75781,-145.503,436
1570004469,364.555,35.049,-16.4083,179.077,1.75781,-145.503,436
1570004469,364.555,35.049,-16.4083,179.077,1.75781,-145.503,432
1570004469,364.555,35.049,-16.4083,179.077,1.75781,-145.503,432
1570004469,364.555,35.049,-16.4083,179.077,1.75781,-145.503,432
1570004469,364.555,35.049,-16.4083,179.077,1.75781,-145.503,428
1570004469,364.555,35.049,-16.4083,179.077,1.75781,-145.503,428
1570004469,364.555,35.049,-16.4083,179.077,1.75781,-145.503,428
1570004469,364.555,35.049,-16.4083,179.077,1.75781,-145.503,428
1570004469,364.555,35.049,-16.4083,179.077,1.75781,-145.503,428
1570004469,364.555,35.049,-16.2967,179.077,1.75781,-145.503,424
1570004469,364.555,35.049,-16.2967,179.077,1.75781,-145.503,424
1570004469,364.555,35.049,-16.2967,179.077,1.75781,-145.503,424
1570004469,364.666,35.049,-16.2967,179.077,1.75781,-145.503,424
1570004469,364.666,35.049,-16.2967,179.077,1.75781,-145.503,424
1570004469,364.666,35.049,-16.2967,179.077,1.75781,-145.503,420
1570004469,364.666,35.1606,-16.2967,179.077,1.75781,-145.503,420
1570004469,364.666,35.1606,-16.2967,179.077,1.75781,-145.503,420
1570004469,364.555,35.1606,-16.4083,179.099,1.75781,-145.525,420
1570004469,364.555,35.1606,-16.4083,179.099,1.73584,-145.525,420
1570004470,364.555,35.1606,-16.4083,179.099,1.73584,-145.525,420
1570004470,364.555,35.1606,-16.4083,179.099,1.73584,-145.525,420
1570004470,364.555,35.1606,-16.4083,179.099,1.73584,-145.525,420
1570004470,364.555,35.1606,-16.4083,179.099,1.73584,-145.525,420
1570004470,364.555,35.1606,-16.4083,179.099,1.73584,-145.525,424
1570004470,364.555,35.1606,-16.4083,179.121,1.73584,-145.525,424
1570004470,364.555,35.1606,-16.4083,179.121,1.73584,-145.525,424
1570004470,364.555,35.1606,-16.4083,179.121,1.73584,-145.525,424
1570004470,364.555,35.1606,-16.4083,179.121,1.73584,-145.525,424
1570004470,364.555,35.1606,-16.4083,179.121,1.73584,-145.525,428
1570004470,364.555,35.1606,-16.4083,179.121,1.73584,-145.525,428
1570004470,364.555,35.1606,-16.4083,179.121,1.73584,-145.525,428
1570004470,364.555,35.1606,-16.4083,179.121,1.75781,-145.525,428
1570004470,364.555,35.1606,-16.2967,179.121,1.75781,-145.525,428
1570004470,364.555,35.1606,-16.2967,179.121,1.75781,-145.525,428
1570004470,364.555,35.1606,-16.2967,179.121,1.75781,-145.525,428
1570004470,364.555,35.1606,-16.2967,179.121,1.75781,-145.525,428
1570004470,364.555,35.1606,-16.2967,179.121,1.75781,-145.525,428
1570004470,364.555,35.1606,-16.2967,179.121,1.75781,-145.525,428
1570004470,364.555,35.2723,-16.2967,179.121,1.75781,-145.525,428
1570004470,364.555,35.2723,-16.2967,179.121,1.75781,-145.525,428
1570004470,364.555,35.2723,-16.2967,179.121,1.75781,-145.525,428
1570004470,364.555,35.2723,-16.2967,179.121,1.75781,-145.525,428
1570004470,364.555,35.1606,-16.2967,179.121,1.75781,-145.525,428
1570004470,364.555,35.1606,-16.2967,179.121,1.75781,-145.525,428
1570004470,364.555,35.1606,-16.2967,179.121,1.75781,-145.525,428
1570004470,364.555,35.1606,-16.2967,179.121,1.75781,-145.525,428
1570004470,364.555,35.1606,-16.2967,179.099,1.75781,-145.525,428
1570004470,364.555,35.1606,-16.2967,179.099,1.75781,-145.525,428
1570004470,364.555,35.1606,-16.2967,179.099,1.75781,-145.525,428
1570004470,364.555,35.1606,-16.2967,179.099,1.75781,-145.525,428
1570004470,364.555,35.1606,-16.2967,179.099,1.75781,-145.525,428
1570004470,364.555,35.1606,-16.2967,179.099,1.75781,-145.525,428
1570004470,364.555,35.1606,-16.2967,179.099,1.75781,-145.525,428
1570004470,364.555,35.1606,-16.2967,179.099,1.75781,-145.525,428
1570004470,364.555,35.1606,-16.2967,179.121,1.75781,-145.525,428
1570004470,364.555,35.1606,-16.2967,179.121,1.75781,-145.525,428
1570004470,364.555,35.1606,-16.2967,179.121,1.75781,-145.525,428
1570004470,364.555,35.1606,-16.2967,179.121,1.75781,-145.525,428
1570004470,364.555,35.1606,-16.2967,179.121,1.75781,-145.525,428
1570004470,364.555,35.1606,-16.2967,179.121,1.75781,-145.503,428
1570004470,364.555,35.1606,-16.2967,179.121,1.75781,-145.503,428
1570004470,364.555,35.1606,-16.2967,179.121,1.75781,-145.503,428
1570004470,364.555,35.2723,-16.2967,179.121,1.75781,-145.525,424
1570004470,364.555,35.2723,-16.2967,179.121,1.75781,-145.525,424
1570004470,364.555,35.2723,-16.2967,179.143,1.77979,-145.525,424
1570004470,364.555,35.2723,-16.2967,179.143,1.77979,-145.525,424
1570004470,364.555,35.2723,-16.2967,179.143,1.77979,-145.525,424
1570004470,364.555,35.2723,-16.2967,179.143,1.77979,-145.525,424
1570004470,364.555,35.2723,-16.2967,179.143,1.77979,-145.525,420
1570004470,364.555,35.2723,-16.2967,179.143,1.77979,-145.525,420
1570004470,364.555,35.2723,-16.2967,179.143,1.77979,-145.525,420
1570004470,364.555,35.2723,-16.2967,179.143,1.77979,-145.525,420
1570004470,364.555,35.2723,-16.2967,179.143,1.77979,-145.525,420
1570004470,364.555,35.2723,-16.2967,179.143,1.77979,-145.525,416
1570004470,364.555,35.2723,-16.2967,179.143,1.77979,-145.525,416
1570004470,364.555,35.2723,-16.2967,179.143,1.77979,-145.525,416
1570004470,364.555,35.2723,-16.2967,179.143,1.77979,-145.525,416
1570004470,364.555,35.2723,-16.2967,179.121,1.77979,-145.525,416
1570004470,364.555,35.2723,-16.2967,179.121,1.77979,-145.525,412
1570004470,364.555,35.2723,-16.2967,179.121,1.77979,-145.503,412
1570004470,364.555,35.2723,-16.2967,179.121,1.77979,-145.503,412
1570004470,364.555,35.2723,-16.2967,179.121,1.77979,-145.503,412
1570004470,364.555,35.2723,-16.2967,179.121,1.77979,-145.503,412
1570004470,364.555,35.2723,-16.2967,179.121,1.77979,-145.503,412
1570004470,364.555,35.2723,-16.2967,179.121,1.77979,-145.503,412
1570004470,364.555,35.2723,-16.2967,179.121,1.77979,-145.503,412
1570004470,364.555,35.2723,-16.2967,179.121,1.77979,-145.503,412
1570004470,364.555,35.2723,-16.2967,179.121,1.77979,-145.503,412
1570004470,364.555,35.1606,-16.2967,179.121,1.77979,-145.503,412
1570004470,364.555,35.1606,-16.2967,179.121,1.77979,-145.503,412
1570004470,364.555,35.1606,-16.2967,179.121,1.77979,-145.503,416
1570004470,364.555,35.1606,-16.2967,179.099,1.77979,-145.525,416
1570004470,364.555,35.1606,-16.2967,179.099,1.77979,-145.525,416
1570004470,364.555,35.1606,-16.2967,179.099,1.77979,-145.525,416
1570004470,364.555,35.1606,-16.2967,179.099,1.77979,-145.525,420
1570004470,364.555,35.1606,-16.2967,179.099,1.77979,-145.525,420
1570004470,364.555,35.1606,-16.2967,179.099,1.77979,-145.525,420
1570004470,364.555,35.1606,-16.2967,179.099,1.77979,-145.525,420
1570004470,364.555,35.1606,-16.2967,179.099,1.77979,-145.525,420
1570004470,364.555,35.1606,-16.2967,179.099,1.77979,-145.525,420
1570004470,364.555,35.1606,-16.2967,179.099,1.77979,-145.525,420
1570004470,364.555,35.1606,-16.2967,179.099,1.77979,-145.525,420
1570004470,364.555,35.1606,-16.2967,179.099,1.77979,-145.525,420
1570004470,364.666,35.1606,-16.2967,179.099,1.77979,-145.525,420
1570004470,364.666,35.1606,-16.2967,179.099,1.77979,-145.525,420
1570004470,364.666,35.1606,-16.2967,179.099,1.77979,-145.525,420
1570004470,364.666,35.1606,-16.2967,179.099,1.77979,-145.525,420
1570004470,364.666,35.1606,-16.2967,179.099,1.77979,-145.525,420
1570004470,364.666,35.1606,-16.2967,179.099,1.75781,-145.525,420
1570004470,364.666,35.1606,-16.2967,179.099,1.75781,-145.525,420
1570004470,364.666,35.1606,-16.2967,179.099,1.75781,-145.525,420
1570004470,364.666,35.1606,-16.2967,179.099,1.75781,-145.525,420
1570004470,364.666,35.1606,-16.2967,179.099,1.75781,-145.525,420
1570004470,364.666,35.1606,-16.2967,179.099,1.75781,-145.525,420
1570004470,364.666,35.1606,-16.2967,179.099,1.75781,-145.525,420
1570004470,364.666,35.1606,-16.2967,179.099,1.75781,-145.525,420
1570004470,364.666,35.1606,-16.2967,179.099,1.75781,-145.525,420
1570004470,364.666,35.1606,-16.2967,179.099,1.75781,-145.525,416
1570004470,364.666,35.1606,-16.2967,179.099,1.75781,-145.525,416
1570004471,364.666,35.1606,-16.2967,179.099,1.75781,-145.525,416
1570004471,364.666,35.1606,-16.2967,179.099,1.75781,-145.525,416
1570004471,364.555,35.1606,-16.2967,179.099,1.75781,-145.525,420
1570004471,364.555,35.1606,-16.2967,179.099,1.75781,-145.525,420
1570004471,364.555,35.1606,-16.2967,179.099,1.75781,-145.525,420
1570004471,364.555,35.1606,-16.2967,179.099,1.75781,-145.525,420
1570004471,364.555,35.1606,-16.2967,179.099,1.75781,-145.525,420
1570004471,364.555,35.1606,-16.2967,179.099,1.75781,-145.525,420
1570004471,364.555,35.1606,-16.4083,179.121,1.75781,-145.525,420
1570004471,364.555,35.1606,-16.4083,179.121,1.75781,-145.525,420
1570004471,364.555,35.1606,-16.4083,179.121,1.75781,-145.525,420
1570004471,364.555,35.1606,-16.4083,179.121,1.75781,-145.525,420
1570004471,364.555,35.1606,-16.4083,179.121,1.75781,-145.525,420
1570004471,364.555,35.1606,-16.4083,179.121,1.75781,-145.525,424
1570004471,364.555,35.2723,-16.4083,179.121,1.75781,-145.525,424
1570004471,364.555,35.2723,-16.4083,179.121,1.75781,-145.525,424
1570004471,364.555,35.2723,-16.4083,179.121,1.75781,-145.525,424
1570004471,364.555,35.2723,-16.4083,179.121,1.75781,-145.525,424
1570004471,364.555,35.2723,-16.4083,179.121,1.75781,-145.525,424
1570004471,364.555,35.2723,-16.4083,179.121,1.75781,-145.525,424
1570004471,364.555,35.1606,-16.4083,179.121,1.75781,-145.525,428
1570004471,364.555,35.1606,-16.4083,179.121,1.73584,-145.525,428
1570004471,364.555,35.1606,-16.4083,179.121,1.73584,-145.525,428
1570004471,364.555,35.1606,-16.4083,179.121,1.73584,-145.525,428
1570004471,364.555,35.1606,-16.4083,179.121,1.73584,-145.525,432
1570004471,364.555,35.1606,-16.4083,179.121,1.73584,-145.525,432
1570004471,364.555,35.1606,-16.4083,179.121,1.75781,-145.525,432
1570004471,364.555,35.2723,-16.4083,179.121,1.75781,-145.525,436
1570004471,364.555,35.2723,-16.4083,179.121,1.75781,-145.525,436
1570004471,364.555,35.2723,-16.2967,179.121,1.75781,-145.525,436
1570004471,364.555,35.2723,-16.2967,179.121,1.75781,-145.525,436
1570004471,364.555,35.2723,-16.2967,179.121,1.75781,-145.525,436
1570004471,364.555,35.2723,-16.2967,179.121,1.75781,-145.525,436
1570004471,364.555,35.2723,-16.2967,179.121,1.75781,-145.525,436
1570004471,364.555,35.2723,-16.2967,179.121,1.75781,-145.525,440
1570004471,364.555,35.2723,-16.2967,179.121,1.75781,-145.525,440
1570004471,364.555,35.2723,-16.2967,179.121,1.75781,-145.525,440
1570004471,364.555,35.1606,-16.2967,179.099,1.75781,-145.525,440
1570004471,364.555,35.1606,-16.2967,179.099,1.75781,-145.525,440
1570004471,364.555,35.1606,-16.2967,179.099,1.75781,-145.525,440
1570004471,364.555,35.1606,-16.2967,179.099,1.75781,-145.525,440
1570004471,364.555,35.1606,-16.2967,179.099,1.75781,-145.525,440
1570004471,364.555,35.1606,-16.4083,179.099,1.75781,-145.525,444
1570004471,364.555,35.1606,-16.4083,179.099,1.75781,-145.525,444
1570004471,364.555,35.1606,-16.4083,179.099,1.75781,-145.525,444
1570004471,364.555,35.1606,-16.4083,179.099,1.73584,-145.525,444
1570004471,364.555,35.1606,-16.4083,179.099,1.73584,-145.525,444
1570004471,364.555,35.1606,-16.4083,179.099,1.73584,-145.503,444
1570004471,364.555,35.1606,-16.4083,179.099,1.73584,-145.503,444
1570004471,364.555,35.1606,-16.4083,179.099,1.73584,-145.503,448
1570004471,364.555,35.1606,-16.4083,179.099,1.73584,-145.503,448
1570004471,364.555,35.1606,-16.4083,179.099,1.73584,-145.503,448
1570004471,364.555,35.1606,-16.4083,179.099,1.73584,-145.503,448
1570004471,364.555,35.1606,-16.4083,179.099,1.73584,-145.503,448
1570004471,364.555,35.1606,-16.4083,179.099,1.75781,-145.503,444
1570004471,364.555,35.1606,-16.4083,179.099,1.75781,-145.503,444
1570004471,364.555,35.1606,-16.4083,179.099,1.75781,-145.503,444
1570004471,364.555,35.1606,-16.2967,179.099,1.75781,-145.503,444
1570004471,364.555,35.1606,-16.2967,179.099,1.75781,-145.503,444
1570004471,364.555,35.1606,-16.2967,179.099,1.75781,-145.503,440
1570004471,364.555,35.1606,-16.2967,179.099,1.75781,-145.503,440
1570004471,364.555,35.1606,-16.2967,179.099,1.75781,-145.503,440
1570004471,364.555,35.1606,-16.2967,179.099,1.75781,-145.503,440
1570004471,364.555,35.1606,-16.2967,179.099,1.75781,-145.503,436
1570004471,364.555,35.1606,-16.2967,179.099,1.75781,-145.503,436
1570004471,364.555,35.1606,-16.2967,179.121,1.75781,-145.503,436
1570004471,364.555,35.1606,-16.2967,179.099,1.75781,-145.503,432
1570004471,364.555,35.1606,-16.2967,179.099,1.75781,-145.503,432
1570004471,364.555,35.1606,-16.2967,179.099,1.73584,-145.503,432
1570004471,364.555,35.1606,-16.2967,179.099,1.73584,-145.503,428
1570004471,364.555,35.1606,-16.2967,179.099,1.73584,-145.503,428
1570004478,341.449,59.7173,-16.4083,179.033,1.64795,-145.569,380
1570004478,341.449,59.7173,-16.4083,179.033,1.64795,-145.569,380
1570004478,341.449,59.7173,-16.4083,179.055,1.64795,-145.569,380
1570004478,341.449,59.7173,-16.4083,179.055,1.64795,-145.569,380
1570004478,341.449,59.7173,-16.4083,179.055,1.64795,-145.569,380
1570004478,341.449,59.7173,-16.4083,179.033,1.64795,-145.591,380
1570004478,341.449,59.7173,-16.4083,179.033,1.64795,-145.591,380
1570004478,341.449,59.7173,-16.4083,179.033,1.64795,-145.591,380
1570004478,341.449,59.7173,-16.4083,179.033,1.64795,-145.591,380
1570004478,341.449,59.7173,-16.5199,179.033,1.64795,-145.591,380
1570004478,341.561,59.7173,-16.5199,179.033,1.64795,-145.591,380
1570004478,341.561,59.7173,-16.5199,179.033,1.64795,-145.591,380
1570004478,341.561,59.7173,-16.5199,179.033,1.62598,-145.591,380
1570004478,341.561,59.7173,-16.5199,179.033,1.62598,-145.591,380
1570004478,341.561,59.7173,-16.5199,179.033,1.62598,-145.591,376
1570004478,341.561,59.7173,-16.5199,179.033,1.62598,-145.591,376
1570004478,341.561,59.7173,-16.5199,179.033,1.62598,-145.591,376
1570004478,341.561,59.7173,-16.5199,179.033,1.62598,-145.569,376
1570004478,341.561,59.7173,-16.5199,179.033,1.62598,-145.569,376
1570004478,341.561,59.7173,-16.5199,179.033,1.62598,-145.569,372
1570004478,341.561,59.7173,-16.5199,179.033,1.62598,-145.569,372
1570004478,341.561,59.7173,-16.5199,179.033,1.62598,-145.569,372
1570004478,341.561,59.7173,-16.5199,179.033,1.604,-145.569,372
1570004478,341.561,59.7173,-16.5199,179.033,1.604,-145.569,372
1570004478,341.561,59.7173,-16.5199,179.033,1.604,-145.569,372
1570004478,341.561,59.7173,-16.5199,179.033,1.604,-145.569,372
1570004478,341.561,59.6057,-16.5199,179.011,1.604,-145.569,372
1570004478,341.449,59.6057,-16.5199,179.011,1.604,-145.569,372
1570004478,341.449,59.6057,-16.5199,179.011,1.604,-145.569,372
1570004478,341.449,59.6057,-16.5199,179.011,1.604,-145.569,372
1570004478,341.449,59.6057,-16.5199,179.011,1.604,-145.569,372
1570004478,341.449,59.6057,-16.5199,179.033,1.604,-145.569,376
1570004478,341.449,59.6057,-16.5199,179.033,1.604,-145.569,376
1570004478,341.449,59.6057,-16.5199,179.033,1.604,-145.569,376
1570004478,341.449,59.6057,-16.5199,179.033,1.604,-145.569,376
1570004478,341.449,59.6057,-16.5199,179.033,1.604,-145.569,376
1570004478,341.449,59.6057,-16.5199,179.033,1.604,-145.569,376
1570004478,341.449,59.7173,-16.5199,179.033,1.604,-145.569,376
1570004478,341.449,59.7173,-16.5199,179.033,1.604,-145.569,376
1570004478,341.449,59.7173,-16.5199,179.033,1.604,-145.569,376
1570004478,341.449,59.7173,-16.5199,179.033,1.604,-145.569,376
1570004478,341.449,59.7173,-16.5199,179.033,1.604,-145.569,376
1570004478,341.449,59.7173,-16.5199,179.033,1.604,-145.569,376
1570004478,341.449,59.7173,-16.5199,179.033,1.604,-145.569,376
1570004478,341.449,59.7173,-16.5199,179.033,1.604,-145.569,376
1570004478,341.449,59.7173,-16.5199,179.033,1.604,-145.569,376
1570004478,341.449,59.7173,-16.5199,179.033,1.604,-145.569,376
1570004478,341.449,59.7173,-16.5199,179.033,1.604,-145.569,376
1570004478,341.449,59.7173,-16.5199,179.033,1.604,-145.569,376
1570004478,341.449,59.7173,-16.5199,179.033,1.604,-145.569,376
1570004478,341.449,59.7173,-16.5199,179.033,1.604,-145.569,380
1570004478,341.449,59.7173,-16.5199,179.033,1.604,-145.569,380
1570004478,341.449,59.7173,-16.5199,179.033,1.604,-145.569,380
1570004478,341.449,59.7173,-16.5199,179.033,1.604,-145.569,380
1570004478,341.449,59.7173,-16.5199,179.055,1.604,-145.569,380
1570004478,341.449,59.7173,-16.5199,179.055,1.62598,-145.569,380
1570004478,341.449,59.7173,-16.5199,179.055,1.62598,-145.569,380
1570004478,341.449,59.7173,-16.5199,179.055,1.62598,-145.569,380
1570004478,341.449,59.7173,-16.5199,179.055,1.62598,-145.569,380
1570004478,341.449,59.7173,-16.5199,179.055,1.62598,-145.569,380
1570004478,341.449,59.7173,-16.5199,179.055,1.62598,-145.569,384
1570004478,341.449,59.7173,-16.5199,179.055,1.62598,-145.569,384
1570004478,341.449,59.7173,-16.5199,179.055,1.62598,-145.569,384
1570004478,341.449,59.7173,-16.5199,179.055,1.62598,-145.569,384
1570004478,341.449,59.7173,-16.5199,179.055,1.62598,-145.569,384
1570004478,341.449,59.7173,-16.5199,179.055,1.62598,-145.569,384
1570004478,341.449,59.7173,-16.5199,179.055,1.62598,-145.569,384
1570004478,341.449,59.7173,-16.5199,179.055,1.62598,-145.569,388
1570004478,341.449,59.7173,-16.5199,179.055,1.62598,-145.569,388
1570004478,341.449,59.7173,-16.5199,179.055,1.62598,-145.569,388
1570004478,341.449,59.7173,-16.5199,179.055,1.62598,-145.569,388
1570004478,341.449,59.7173,-16.5199,179.033,1.62598,-145.569,392
1570004478,341.449,59.7173,-16.5199,179.033,1.62598,-145.569,392
1570004478,341.449,59.7173,-16.5199,179.033,1.62598,-145.569,392
1570004478,341.449,59.7173,-16.5199,179.033,1.62598,-145.569,392
1570004478,341.449,59.7173,-16.5199,179.033,1.62598,-145.591,396
1570004478,341.449,59.7173,-16.5199,179.033,1.62598,-145.591,396
1570004478,341.449,59.7173,-16.5199,179.033,1.62598,-145.591,396
1570004478,341.449,59.7173,-16.5199,179.033,1.62598,-145.591,396
1570004478,341.449,59.7173,-16.5199,179.033,1.62598,-145.591,400
1570004478,341.449,59.7173,-16.5199,179.033,1.62598,-145.591,400
1570004478,341.449,59.7173,-16.5199,179.033,1.62598,-145.591,400
1570004478,341.449,59.7173,-16.5199,179.033,1.62598,-145.591,400
1570004478,341.449,59.7173,-16.5199,179.033,1.62598,-145.591,400
1570004478,341.449,59.7173,-16.5199,179.033,1.62598,-145.591,400
1570004478,341.449,59.7173,-16.5199,179.033,1.62598,-145.591,400
1570004478,341.449,59.7173,-16.5199,179.033,1.62598,-145.591,400
1570004479,341.449,59.7173,-16.5199,179.033,1.62598,-145.591,400
1570004479,341.449,59.7173,-16.5199,179.033,1.62598,-145.569,400
1570004479,341.449,59.7173,-16.5199,179.033,1.62598,-145.569,400
1570004479,341.449,59.7173,-16.5199,179.033,1.62598,-145.569,400
1570004479,341.449,59.7173,-16.5199,179.011,1.62598,-145.569,400
1570004479,341.449,59.7173,-16.5199,179.011,1.62598,-145.569,400
1570004479,341.449,59.7173,-16.5199,179.011,1.62598,-145.569,400
1570004479,341.449,59.7173,-16.5199,179.011,1.62598,-145.569,400
1570004479,341.449,59.7173,-16.5199,179.011,1.62598,-145.569,400
1570004479,341.449,59.6057,-16.5199,179.011,1.62598,-145.569,400
1570004479,341.449,59.6057,-16.5199,179.011,1.62598,-145.569,396
1570004479,341.449,59.6057,-16.5199,179.011,1.62598,-145.591,396
1570004479,341.561,59.6057,-16.5199,179.011,1.62598,-145.591,396
1570004479,341.561,59.6057,-16.5199,179.011,1.62598,-145.591,396
1570004479,341.561,59.6057,-16.5199,179.011,1.62598,-145.591,396
1570004479,341.449,59.6057,-16.5199,179.011,1.62598,-145.569,396
1570004479,341.449,59.7173,-16.5199,179.011,1.62598,-145.569,396
1570004479,341.449,59.7173,-16.5199,179.011,1.62598,-145.569,396
1570004479,341.449,59.7173,-16.5199,179.011,1.62598,-145.569,396
1570004479,341.449,59.7173,-16.5199,179.033,1.62598,-145.569,396
1570004479,341.449,59.7173,-16.5199,179.033,1.62598,-145.569,396
1570004479,341.449,59.7173,-16.5199,179.033,1.62598,-145.569,396
1570004479,341.449,59.7173,-16.5199,179.033,1.62598,-145.569,396
1570004479,341.449,59.7173,-16.5199,179.033,1.62598,-145.569,396
1570004479,341.449,59.7173,-16.4083,179.033,1.62598,-145.591,396
1570004479,341.449,59.7173,-16.4083,179.033,1.62598,-145.591,396
1570004479,341.449,59.7173,-16.4083,179.033,1.62598,-145.591,392
1570004479,341.449,59.7173,-16.4083,179.033,1.62598,-145.591,392
1570004479,341.449,59.7173,-16.4083,179.033,1.62598,-145.591,392
1570004479,341.449,59.7173,-16.4083,179.033,1.62598,-145.591,392
1570004479,341.449,59.7173,-16.4083,179.033,1.62598,-145.591,392
1570004479,341.449,59.7173,-16.4083,179.033,1.62598,-145.591,392
1570004479,341.449,59.7173,-16.4083,179.033,1.62598,-145.591,392
1570004479,341.449,59.7173,-16.4083,179.033,1.62598,-145.591,392
1570004479,341.449,59.7173,-16.4083,179.033,1.62598,-145.591,392
1570004479,341.449,59.7173,-16.4083,179.033,1.62598,-145.591,392
1570004479,341.449,59.7173,-16.4083,179.033,1.62598,-145.591,392
1570004479,341.449,59.7173,-16.4083,179.033,1.62598,-145.591,392
1570004479,341.449,59.7173,-16.5199,179.033,1.62598,-145.591,392
1570004479,341.449,59.7173,-16.5199,179.033,1.62598,-145.591,388
1570004479,341.449,59.7173,-16.5199,179.033,1.62598,-145.591,388
1570004479,341.449,59.7173,-16.5199,179.011,1.62598,-145.591,388
1570004479,341.449,59.7173,-16.5199,179.011,1.62598,-145.591,388
1570004479,341.449,59.6057,-16.5199,179.011,1.62598,-145.591,388
1570004479,341.449,59.6057,-16.5199,179.011,1.62598,-145.591,388
1570004479,341.449,59.6057,-16.5199,179.011,1.62598,-145.591,388
1570004479,341.449,59.6057,-16.4083,179.011,1.62598,-145.591,388
1570004479,341.449,59.6057,-16.4083,179.011,1.62598,-145.591,388
1570004479,341.449,59.6057,-16.4083,179.011,1.62598,-145.591,388
1570004479,341.449,59.6057,-16.4083,179.011,1.62598,-145.591,388
1570004479,341.449,59.6057,-16.4083,179.011,1.62598,-145.591,388
1570004479,341.449,59.6057,-16.4083,179.011,1.62598,-145.591,388
1570004479,341.449,59.6057,-16.4083,179.011,1.62598,-145.591,388
1570004479,341.449,59.6057,-16.4083,179.011,1.62598,-145.591,388
1570004479,341.449,59.6057,-16.4083,179.011,1.62598,-145.591,388
1570004479,341.449,59.6057,-16.4083,179.011,1.62598,-145.591,388
1570004479,341.449,59.6057,-16.4083,179.011,1.62598,-145.591,388
1570004479,341.449,59.6057,-16.4083,179.011,1.62598,-145.591,388
1570004479,341.449,59.6057,-16.4083,179.011,1.62598,-145.591,388
1570004479,341.449,59.7173,-16.4083,179.033,1.62598,-145.591,388
1570004479,341.449,59.7173,-16.4083,179.033,1.62598,-145.591,388
1570004479,341.449,59.7173,-16.5199,179.033,1.62598,-145.591,388
1570004479,341.449,59.7173,-16.5199,179.033,1.62598,-145.591,388
1570004479,341.449,59.7173,-16.5199,179.033,1.62598,-145.591,388
1570004479,341.449,59.7173,-16.5199,179.033,1.62598,-145.591,388
1570004479,341.561,59.7173,-16.5199,179.033,1.62598,-145.591,388
1570004479,341.561,59.7173,-16.5199,179.033,1.62598,-145.591,388
1570004479,341.561,59.7173,-16.5199,179.055,1.62598,-145.591,388
1570004479,341.561,59.7173,-16.5199,179.055,1.62598,-145.591,388
1570004479,341.449,59.7173,-16.5199,179.055,1.62598,-145.591,384
1570004479,341.449,59.7173,-16.5199,179.055,1.62598,-145.591,384
1570004479,341.449,59.7173,-16.5199,179.055,1.62598,-145.591,384
1570004479,341.449,59.7173,-16.5199,179.055,1.62598,-145.591,384
1570004479,341.449,59.7173,-16.5199,179.055,1.62598,-145.591,384
1570004479,341.449,59.7173,-16.5199,179.055,1.62598,-145.591,384
1570004479,341.449,59.7173,-16.5199,179.055,1.62598,-145.591,384
1570004479,341.449,59.7173,-16.5199,179.055,1.62598,-145.591,384
1570004479,341.449,59.7173,-16.5199,179.055,1.62598,-145.591,384
1570004479,341.449,59.7173,-16.5199,179.055,1.62598,-145.591,384
1570004479,341.449,59.7173,-16.5199,179.055,1.62598,-145.591,380
1570004479,341.449,59.7173,-16.5199,179.055,1.62598,-145.591,380
1570004479,341.449,59.7173,-16.5199,179.055,1.62598,-145.591,380
1570004479,341.449,59.7173,-16.5199,179.055,1.62598,-145.591,380
1570004479,341.449,59.7173,-16.5199,179.055,1.62598,-145.591,380
1570004479,341.449,59.7173,-16.5199,179.055,1.62598,-145.591,380
1570004479,341.449,59.7173,-16.5199,179.055,1.62598,-145.591,380
1570004479,341.449,59.8289,-16.5199,179.055,1.62598,-145.591,380
1570004479,341.449,59.8289,-16.5199,179.055,1.62598,-145.591,380
1570004479,341.449,59.8289,-16.5199,179.055,1.62598,-145.591,380
1570004479,341.449,59.7173,-16.5199,179.055,1.62598,-145.591,380
1570004479,341.449,59.7173,-16.5199,179.055,1.62598,-145.591,380
1570004479,341.449,59.7173,-16.5199,179.055,1.62598,-145.591,380
1570004479,341.449,59.7173,-16.5199,179.055,1.62598,-145.591,380
1570004479,341.449,59.7173,-16.5199,179.055,1.62598,-145.591,380
1570004479,341.449,59.7173,-16.5199,179.055,1.62598,-145.591,380
1570004479,341.449,59.7173,-16.4083,179.055,1.62598,-145.591,380
1570004479,341.449,59.7173,-16.4083,179.055,1.62598,-145.591,380
1570004479,341.449,59.7173,-16.4083,179.055,1.62598,-145.591,380
1570004479,341.449,59.7173,-16.4083,179.055,1.62598,-145.591,380
1570004480,341.449,59.7173,-16.4083,179.055,1.62598,-145.591,380
1570004480,341.449,59.7173,-16.4083,179.055,1.62598,-145.591,380
1570004480,341.449,59.7173,-16.4083,179.055,1.62598,-145.591,380
1570004480,341.449,59.7173,-16.4083,179.055,1.62598,-145.591,380
1570004480,341.449,59.7173,-16.4083,179.055,1.62598,-145.591,380
1570004480,341.449,59.7173,-16.4083,179.055,1.62598,-145.591,380
1570004480,341.449,59.7173,-16.4083,179.055,1.62598,-145.591,380
1570004480,341.449,59.7173,-16.4083,179.055,1.62598,-145.591,380
1570004480,341.449,59.7173,-16.4083,179.055,1.62598,-145.591,380
1570004480,341.449,59.7173,-16.4083,179.055,1.62598,-145.591,380
1570004480,341.449,59.7173,-16.4083,179.055,1.62598,-145.591,380
1570004480,341.449,59.7173,-16.4083,179.055,1.62598,-145.591,384
1570004480,341.449,59.7173,-16.4083,179.055,1.62598,-145.591,384
1570004480,341.449,59.7173,-16.5199,179.055,1.62598,-145.591,384
1570004480,341.449,59.7173,-16.5199,179.055,1.62598,-145.591,384
1570004480,341.449,59.7173,-16.5199,179.055,1.62598,-145.591,384
1570004480,341.449,59.7173,-16.5199,179.055,1.62598,-145.591,384
1570004480,341.449,59.7173,-16.5199,179.055,1.62598,-145.591,384
1570004480,341.449,59.7173,-16.5199,179.055,1.62598,-145.591,384
1570004480,341.449,59.8289,-16.5199,179.055,1.62598,-145.591,384
1570004480,341.449,59.8289,-16.5199,179.055,1.62598,-145.591,380
1570004480,341.449,59.8289,-16.5199,179.055,1.62598,-145.591,380
1570004480,341.449,59.8289,-16.5199,179.055,1.62598,-145.591,380
1570004480,341.449,59.8289,-16.5199,179.055,1.62598,-145.591,380
1570004480,341.449,59.8289,-16.5199,179.055,1.62598,-145.591,380
1570004480,341.449,59.8289,-16.5199,179.055,1.62598,-145.591,380
1570004480,341.449,59.8289,-16.5199,179.055,1.62598,-145.591,380
1570004480,341.449,59.8289,-16.5199,179.055,1.62598,-145.591,376
1570004480,341.449,59.8289,-16.5199,179.055,1.62598,-145.591,376
1570004480,341.449,59.8289,-16.5199,179.055,1.62598,-145.591,376
1570004480,341.449,59.8289,-16.5199,179.055,1.62598,-145.591,376
1570004480,341.449,59.8289,-16.5199,179.055,1.62598,-145.591,376
1570004480,341.449,59.8289,-16.5199,179.055,1.62598,-145.591,376
1570004480,341.449,59.8289,-16.4083,179.055,1.62598,-145.591,376
1570004480,341.449,59.8289,-16.4083,179.055,1.62598,-145.591,376
1570004480,341.449,59.8289,-16.4083,179.055,1.64795,-145.591,376
1570004480,341.449,59.7173,-16.4083,179.055,1.64795,-145.591,376
1570004480,341.449,59.7173,-16.4083,179.055,1.64795,-145.591,376
1570004480,341.449,59.7173,-16.4083,179.055,1.64795,-145.591,376
1570004480,341.449,59.7173,-16.4083,179.055,1.64795,-145.591,376
1570004480,341.449,59.7173,-16.4083,179.055,1.64795,-145.591,376
1570004480,341.449,59.7173,-16.4083,179.055,1.64795,-145.591,376
1570004480,341.449,59.7173,-16.4083,179.055,1.64795,-145.591,380
1570004480,341.449,59.7173,-16.4083,179.055,1.64795,-145.591,380
1570004480,341.449,59.8289,-16.4083,179.055,1.64795,-145.591,380
1570004480,341.449,59.8289,-16.4083,179.055,1.64795,-145.591,380
1570004480,341.449,59.8289,-16.4083,179.055,1.64795,-145.591,380
1570004480,341.449,59.8289,-16.4083,179.055,1.64795,-145.591,380
1570004480,341.449,59.8289,-16.4083,179.055,1.64795,-145.591,380
1570004480,341.449,59.8289,-16.4083,179.055,1.64795,-145.591,380
1570004480,341.449,59.8289,-16.4083,179.055,1.64795,-145.591,384
1570004480,341.449,59.8289,-16.4083,179.055,1.64795,-145.591,384
1570004480,341.449,59.8289,-16.4083,179.055,1.64795,-145.591,384
1570004480,341.449,59.8289,-16.4083,179.055,1.64795,-145.591,384
1570004480,341.449,59.8289,-16.4083,179.055,1.64795,-145.591,384
1570004480,341.449,59.8289,-16.4083,179.055,1.64795,-145.591,380
1570004480,341.449,59.8289,-16.4083,179.055,1.64795,-145.591,380
1570004480,341.449,59.8289,-16.4083,179.055,1.64795,-145.591,380
1570004480,341.449,59.8289,-16.4083,179.055,1.64795,-145.591,380
1570004480,341.449,59.8289,-16.4083,179.055,1.64795,-145.591,380
1570004480,341.449,59.8289,-16.4083,179.055,1.64795,-145.591,380
1570004480,341.449,59.8289,-16.4083,179.055,1.64795,-145.591,380
1570004480,341.449,59.8289,-16.4083,179.055,1.64795,-145.591,380
1570004480,341.561,59.8289,-16.4083,179.055,1.64795,-145.591,376
1570004480,341.561,59.8289,-16.4083,179.055,1.64795,-145.569,376
1570004480,341.561,59.7173,-16.4083,179.055,1.64795,-145.569,376
1570004480,341.561,59.7173,-16.4083,179.055,1.64795,-145.569,376
1570004480,341.561,59.7173,-16.4083,179.055,1.64795,-145.569,376
1570004480,341.449,59.7173,-16.4083,179.055,1.64795,-145.569,376
1570004480,341.449,59.7173,-16.4083,179.055,1.64795,-145.569,376
1570004480,341.561,59.7173,-16.4083,179.055,1.64795,-145.591,376
1570004480,341.561,59.7173,-16.4083,179.055,1.64795,-145.591,376
1570004480,341.561,59.7173,-16.5199,179.055,1.64795,-145.591,376
1570004480,341.561,59.7173,-16.5199,179.055,1.64795,-145.591,376
1570004480,341.561,59.7173,-16.5199,179.055,1.64795,-145.591,376
1570004480,341.561,59.7173,-16.5199,179.055,1.64795,-145.591,376
1570004480,341.561,59.7173,-16.5199,179.055,1.62598,-145.591,376
1570004480,341.561,59.7173,-16.5199,179.055,1.62598,-145.591,376
1570004480,341.561,59.7173,-16.5199,179.055,1.62598,-145.591,376
1570004480,341.449,59.7173,-16.5199,179.055,1.62598,-145.591,376
1570004480,341.449,59.7173,-16.5199,179.055,1.62598,-145.591,376
1570004480,341.449,59.7173,-16.5199,179.055,1.62598,-145.591,376
1570004480,341.449,59.7173,-16.5199,179.055,1.62598,-145.591,380
1570004480,341.449,59.7173,-16.5199,179.055,1.62598,-145.591,380
1570004480,341.449,59.7173,-16.5199,179.055,1.62598,-145.591,380
1570004480,341.449,59.7173,-16.5199,179.055,1.62598,-145.591,380
1570004480,341.449,59.7173,-16.5199,179.055,1.62598,-145.591,384
1570004480,341.449,59.7173,-16.5199,179.055,1.62598,-145.591,384
1570004480,341.449,59.7173,-16.4083,179.055,1.62598,-145.591,384
1570004480,341.449,59.7173,-16.4083,179.055,1.62598,-145.591,384
1570004480,341.449,59.7173,-16.4083,179.055,1.62598,-145.591,384
1570004480,341.449,59.7173,-16.5199,179.055,1.62598,-145.591,384
1570004480,341.449,59.7173,-16.5199,179.033,1.62598,-145.591,384
1570004480,341.449,59.7173,-16.5199,179.033,1.62598,-145.591,384
1570004480,341.449,59.7173,-16.5199,179.033,1.62598,-145.591,384
1570004480,341.449,59.7173,-16.5199,179.033,1.62598,-145.591,384
1570004480,341.449,59.7173,-16.5199,179.055,1.62598,-145.591,384
1570004480,341.449,59.7173,-16.4083,179.055,1.62598,-145.591,384
1570004480,341.449,59.7173,-16.4083,179.055,1.62598,-145.591,384
1570004480,341.449,59.7173,-16.4083,179.055,1.64795,-145.591,384
1570004481,341.449,59.7173,-16.4083,179.055,1.64795,-145.591,384
1570004481,341.449,59.7173,-16.4083,179.055,1.64795,-145.613,384
1570004481,341.449,59.7173,-16.4083,179.055,1.64795,-145.613,384
1570004481,341.449,59.7173,-16.4083,179.055,1.64795,-145.613,384
1570004481,341.449,59.7173,-16.4083,179.055,1.64795,-145.613,388
1570004481,341.449,59.7173,-16.4083,179.055,1.64795,-145.613,388
1570004481,341.449,59.7173,-16.4083,179.055,1.64795,-145.613,388
1570004481,341.449,59.7173,-16.4083,179.055,1.64795,-145.613,388
1570004481,341.449,59.7173,-16.4083,179.055,1.64795,-145.613,388
1570004481,341.449,59.7173,-16.4083,179.055,1.64795,-145.613,388
1570004481,341.449,59.7173,-16.4083,179.055,1.64795,-145.613,388
1570004481,341.449,59.7173,-16.4083,179.055,1.64795,-145.613,388
1570004481,341.449,59.7173,-16.4083,179.055,1.64795,-145.613,392
1570004481,341.449,59.7173,-16.4083,179.033,1.64795,-145.613,392
1570004481,341.449,59.7173,-16.4083,179.033,1.64795,-145.613,392
1570004481,341.449,59.7173,-16.4083,179.033,1.64795,-145.613,392
1570004481,341.449,59.7173,-16.4083,179.033,1.64795,-145.591,392
1570004481,341.449,59.7173,-16.4083,179.033,1.62598,-145.591,392
1570004481,341.449,59.7173,-16.4083,179.033,1.62598,-145.591,392
1570004481,341.449,59.7173,-16.4083,179.033,1.62598,-145.591,392
1570004481,341.449,59.7173,-16.4083,179.033,1.62598,-145.591,392
1570004481,341.449,59.7173,-16.4083,179.033,1.62598,-145.591,392
1570004481,341.449,59.7173,-16.4083,179.033,1.62598,-145.591,396
1570004481,341.449,59.7173,-16.4083,179.033,1.62598,-145.591,396
1570004481,341.449,59.7173,-16.4083,179.033,1.62598,-145.591,396
1570004481,341.449,59.7173,-16.4083,179.033,1.64795,-145.591,396
1570004481,341.449,59.7173,-16.4083,179.033,1.64795,-145.591,396
1570004481,341.449,59.7173,-16.4083,179.033,1.64795,-145.591,396
1570004481,341.449,59.7173,-16.4083,179.033,1.64795,-145.591,396
1570004481,341.449,59.7173,-16.4083,179.033,1.64795,-145.591,396
1570004481,341.449,59.7173,-16.4083,179.033,1.64795,-145.591,396
1570004481,341.449,59.7173,-16.4083,179.033,1.64795,-145.591,396
1570004481,341.449,59.7173,-16.4083,179.033,1.64795,-145.591,396
1570004481,341.449,59.7173,-16.4083,179.033,1.64795,-145.591,396
1570004481,341.449,59.7173,-16.4083,179.033,1.64795,-145.591,396
1570004481,341.449,59.7173,-16.4083,179.033,1.64795,-145.591,396
1570004481,341.449,59.7173,-16.4083,179.033,1.64795,-145.591,396
1570004481,341.449,59.7173,-16.4083,179.033,1.62598,-145.591,396
1570004481,341.449,59.7173,-16.4083,179.033,1.64795,-145.591,396
1570004481,341.449,59.7173,-16.4083,179.033,1.64795,-145.591,396
1570004481,341.449,59.7173,-16.4083,179.033,1.64795,-145.591,396
1570004481,341.449,59.7173,-16.4083,179.033,1.64795,-145.591,396
1570004481,341.449,59.7173,-16.4083,179.033,1.64795,-145.591,396
1570004481,341.449,59.7173,-16.4083,179.033,1.64795,-145.591,396
1570004481,341.449,59.7173,-16.4083,179.033,1.64795,-145.591,396
1570004481,341.449,59.7173,-16.4083,179.033,1.64795,-145.591,396
1570004481,341.449,59.7173,-16.4083,179.033,1.64795,-145.591,396
1570004481,341.449,59.7173,-16.4083,179.033,1.64795,-145.591,392
1570004481,341.449,59.7173,-16.4083,179.033,1.64795,-145.591,392
1570004481,341.449,59.7173,-16.4083,179.033,1.64795,-145.591,392
1570004481,341.449,59.7173,-16.4083,179.033,1.64795,-145.591,392
1570004481,341.449,59.7173,-16.4083,179.033,1.64795,-145.591,392
1570004481,341.449,59.7173,-16.4083,179.033,1.64795,-145.591,392
1570004481,341.449,59.7173,-16.4083,179.033,1.64795,-145.591,392
1570004481,341.449,59.7173,-16.4083,179.033,1.64795,-145.591,392
1570004481,341.449,59.7173,-16.4083,179.033,1.64795,-145.591,392
1570004481,341.449,59.7173,-16.4083,179.033,1.64795,-145.591,392
1570004481,341.449,59.7173,-16.4083,179.033,1.64795,-145.591,392
1570004481,341.449,59.7173,-16.4083,179.033,1.64795,-145.591,392
1570004481,341.449,59.7173,-16.4083,179.033,1.64795,-145.591,392
1570004481,341.449,59.7173,-16.4083,179.033,1.64795,-145.591,392
1570004481,341.449,59.7173,-16.4083,179.033,1.64795,-145.591,392
1570004481,341.449,59.7173,-16.4083,179.033,1.64795,-145.591,392
1570004481,341.449,59.7173,-16.4083,179.033,1.64795,-145.591,392
1570004481,341.449,59.7173,-16.4083,179.033,1.64795,-145.591,392
1570004481,341.449,59.7173,-16.4083,179.033,1.64795,-145.591,396
1570004481,341.449,59.7173,-16.4083,179.033,1.64795,-145.591,396
1570004481,341.449,59.7173,-16.4083,179.033,1.64795,-145.591,396
1570004481,341.449,59.7173,-16.4083,179.033,1.64795,-145.591,396
1570004481,341.449,59.7173,-16.4083,179.033,1.64795,-145.591,396
1570004481,341.449,59.7173,-16.4083,179.033,1.64795,-145.591,396
1570004481,341.449,59.7173,-16.4083,179.033,1.64795,-145.591,396
1570004481,341.449,59.7173,-16.4083,179.033,1.64795,-145.591,396
1570004481,341.561,59.7173,-16.4083,179.033,1.64795,-145.591,396
1570004481,341.561,59.7173,-16.4083,179.033,1.64795,-145.591,396
1570004481,341.561,59.7173,-16.4083,179.033,1.64795,-145.591,396
1570004481,341.561,59.7173,-16.4083,179.033,1.64795,-145.591,396
1570004481,341.561,59.7173,-16.4083,179.033,1.64795,-145.591,396
1570004481,341.561,59.7173,-16.4083,179.033,1.64795,-145.591,396
1570004481,341.561,59.7173,-16.4083,179.033,1.64795,-145.591,396
1570004481,341.561,59.7173,-16.4083,179.033,1.64795,-145.591,396
1570004481,341.561,59.7173,-16.4083,179.033,1.64795,-145.591,392
1570004481,341.561,59.7173,-16.4083,179.033,1.64795,-145.591,392
1570004481,341.561,59.7173,-16.4083,179.033,1.64795,-145.591,392
1570004481,341.561,59.7173,-16.4083,179.033,1.64795,-145.591,392
1570004481,341.561,59.7173,-16.4083,179.033,1.64795,-145.591,392
1570004481,341.561,59.7173,-16.4083,179.033,1.64795,-145.591,392
1570004481,341.561,59.7173,-16.4083,179.033,1.64795,-145.591,392
1570004481,341.561,59.7173,-16.4083,179.033,1.64795,-145.591,392
1570004481,341.561,59.7173,-16.4083,179.033,1.64795,-145.591,392
1570004481,341.561,59.7173,-16.4083,179.033,1.64795,-145.591,392
1570004481,341.561,59.7173,-16.4083,179.033,1.64795,-145.591,392
1570004481,341.561,59.7173,-16.4083,179.033,1.64795,-145.591,392
1570004481,341.561,59.7173,-16.4083,179.033,1.64795,-145.591,388
1570004481,341.449,59.7173,-16.4083,179.033,1.64795,-145.591,388
1570004481,341.449,59.7173,-16.4083,179.033,1.64795,-145.591,388
1570004481,341.449,59.7173,-16.4083,179.033,1.64795,-145.591,388
1570004481,341.449,59.7173,-16.4083,179.033,1.64795,-145.591,388
1570004481,341.449,59.7173,-16.4083,179.033,1.64795,-145.591,388
1570004481,341.449,59.7173,-16.4083,179.033,1.64795,-145.591,388
1570004482,341.449,59.7173,-16.4083,179.033,1.64795,-145.591,388
1570004482,341.449,59.7173,-16.4083,179.033,1.64795,-145.591,388
1570004482,341.449,59.7173,-16.4083,179.033,1.64795,-145.591,388
1570004482,341.449,59.6057,-16.4083,179.033,1.64795,-145.591,388
1570004482,341.449,59.6057,-16.4083,179.033,1.64795,-145.591,388
1570004482,341.449,59.6057,-16.4083,179.011,1.64795,-145.591,388
1570004482,341.449,59.6057,-16.4083,179.011,1.64795,-145.591,388
1570004482,341.449,59.6057,-16.4083,179.011,1.64795,-145.591,388
1570004482,341.449,59.6057,-16.4083,179.011,1.64795,-145.591,388
1570004482,341.449,59.6057,-16.4083,179.011,1.64795,-145.591,388
1570004482,341.449,59.6057,-16.4083,179.011,1.64795,-145.591,388
1570004482,341.449,59.6057,-16.4083,179.011,1.64795,-145.591,392
1570004482,341.449,59.6057,-16.4083,179.033,1.64795,-145.591,392
1570004482,341.449,59.7173,-16.4083,179.033,1.64795,-145.591,392
1570004482,341.449,59.7173,-16.4083,179.033,1.64795,-145.591,392
1570004482,341.449,59.7173,-16.4083,179.033,1.64795,-145.591,392
1570004482,341.449,59.7173,-16.4083,179.033,1.64795,-145.591,392
1570004482,341.449,59.7173,-16.4083,179.033,1.64795,-145.591,392
1570004482,341.449,59.7173,-16.4083,179.033,1.62598,-145.591,392
1570004482,341.449,59.7173,-16.4083,179.033,1.62598,-145.591,392
1570004482,341.449,59.7173,-16.4083,179.033,1.62598,-145.591,392
1570004482,341.449,59.7173,-16.4083,179.033,1.62598,-145.591,392
1570004482,341.449,59.7173,-16.4083,179.033,1.62598,-145.591,388
1570004482,341.449,59.7173,-16.4083,179.033,1.62598,-145.591,388
1570004482,341.449,59.7173,-16.5199,179.033,1.62598,-145.591,388
1570004482,341.449,59.7173,-16.5199,179.033,1.62598,-145.591,388
1570004482,341.449,59.7173,-16.5199,179.033,1.62598,-145.591,388
1570004482,341.449,59.7173,-16.5199,179.033,1.62598,-145.591,388
1570004482,341.561,59.7173,-16.5199,179.033,1.62598,-145.591,388
1570004482,341.561,59.7173,-16.5199,179.033,1.62598,-145.591,388
1570004482,341.561,59.7173,-16.5199,179.033,1.62598,-145.591,388
1570004482,341.561,59.7173,-16.5199,179.055,1.62598,-145.591,388
1570004482,341.449,59.7173,-16.5199,179.055,1.62598,-145.591,388
1570004482,341.449,59.7173,-16.5199,179.055,1.62598,-145.591,388
1570004482,341.449,59.7173,-16.5199,179.055,1.62598,-145.591,388
1570004482,341.449,59.7173,-16.5199,179.055,1.62598,-145.591,388
1570004482,341.449,59.7173,-16.5199,179.055,1.62598,-145.591,392
1570004482,341.449,59.7173,-16.5199,179.055,1.62598,-145.591,392
1570004482,341.449,59.7173,-16.4083,179.055,1.62598,-145.591,392
1570004482,341.449,59.7173,-16.4083,179.055,1.62598,-145.591,392
1570004482,341.561,59.7173,-16.4083,179.055,1.62598,-145.591,392
1570004482,341.561,59.7173,-16.4083,179.055,1.62598,-145.591,392
1570004482,341.561,59.7173,-16.4083,179.055,1.62598,-145.591,392
1570004482,341.561,59.7173,-16.4083,179.055,1.62598,-145.591,392
1570004482,341.561,59.7173,-16.4083,179.055,1.62598,-145.591,392
1570004482,341.561,59.7173,-16.4083,179.055,1.62598,-145.591,392
1570004482,341.561,59.7173,-16.4083,179.055,1.62598,-145.591,392
1570004482,341.561,59.7173,-16.4083,179.055,1.62598,-145.613,392
1570004482,341.561,59.7173,-16.4083,179.055,1.62598,-145.613,392
1570004482,341.561,59.7173,-16.4083,179.055,1.62598,-145.613,392
1570004482,341.561,59.7173,-16.4083,179.055,1.62598,-145.591,392
1570004482,341.561,59.7173,-16.4083,179.055,1.62598,-145.591,388
1570004482,341.561,59.7173,-16.4083,179.055,1.62598,-145.591,388
1570004482,341.561,59.7173,-16.4083,179.055,1.62598,-145.591,388
1570004482,341.561,59.7173,-16.4083,179.055,1.62598,-145.591,388
1570004482,341.561,59.7173,-16.4083,179.055,1.62598,-145.591,388
1570004482,341.561,59.7173,-16.4083,179.055,1.62598,-145.591,388
1570004482,341.561,59.7173,-16.5199,179.055,1.62598,-145.591,388
1570004482,341.561,59.7173,-16.5199,179.055,1.62598,-145.591,388
1570004482,341.561,59.7173,-16.5199,179.055,1.62598,-145.591,388
1570004482,341.561,59.7173,-16.5199,179.055,1.62598,-145.591,384
1570004482,341.561,59.7173,-16.5199,179.055,1.62598,-145.591,384
1570004482,341.561,59.7173,-16.5199,179.055,1.62598,-145.591,384
1570004482,341.561,59.7173,-16.5199,179.055,1.62598,-145.591,384
1570004482,341.561,59.7173,-16.5199,179.055,1.62598,-145.591,380
1570004482,341.561,59.7173,-16.5199,179.055,1.62598,-145.591,380
1570004482,341.561,59.7173,-16.5199,179.055,1.62598,-145.569,380
1570004482,341.561,59.7173,-16.5199,179.055,1.62598,-145.569,380
1570004482,341.561,59.7173,-16.5199,179.055,1.62598,-145.569,376
1570004482,341.561,59.7173,-16.5199,179.055,1.62598,-145.569,376
1570004482,341.561,59.7173,-16.5199,179.055,1.62598,-145.569,376
1570004482,341.561,59.7173,-16.5199,179.055,1.62598,-145.569,376
1570004482,341.561,59.7173,-16.5199,179.055,1.62598,-145.569,376
1570004482,341.561,59.7173,-16.5199,179.055,1.62598,-145.569,376
1570004482,341.561,59.7173,-16.5199,179.055,1.62598,-145.569,376
1570004482,341.561,59.7173,-16.5199,179.055,1.62598,-145.569,376
1570004482,341.561,59.7173,-16.4083,179.055,1.62598,-145.569,376
1570004482,341.449,59.7173,-16.4083,179.055,1.64795,-145.569,376
1570004482,341.449,59.7173,-16.4083,179.055,1.64795,-145.569,376
1570004482,341.449,59.7173,-16.4083,179.055,1.64795,-145.569,376
1570004482,341.449,59.7173,-16.4083,179.055,1.64795,-145.591,380
1570004482,341.449,59.7173,-16.4083,179.055,1.64795,-145.591,380
1570004482,341.449,59.7173,-16.4083,179.055,1.64795,-145.591,380
1570004482,341.449,59.7173,-16.4083,179.055,1.64795,-145.591,380
1570004482,341.449,59.7173,-16.4083,179.055,1.64795,-145.591,380
1570004482,341.449,59.7173,-16.4083,179.055,1.64795,-145.591,380
1570004482,341.449,59.7173,-16.4083,179.055,1.64795,-145.591,380
1570004482,341.449,59.7173,-16.4083,179.055,1.64795,-145.591,380
1570004482,341.449,59.7173,-16.4083,179.055,1.64795,-145.591,380
1570004482,341.449,59.7173,-16.4083,179.055,1.64795,-145.591,380
1570004482,341.449,59.7173,-16.4083,179.055,1.64795,-145.591,380
1570004482,341.449,59.7173,-16.4083,179.055,1.64795,-145.591,380
1570004482,341.449,59.7173,-16.4083,179.055,1.64795,-145.591,384
1570004482,341.449,59.7173,-16.4083,179.055,1.64795,-145.591,384
1570004482,341.449,59.7173,-16.4083,179.055,1.64795,-145.591,384
1570004482,341.449,59.7173,-16.4083,179.055,1.64795,-145.591,384
1570004482,341.449,59.7173,-16.4083,179.055,1.64795,-145.591,384
1570004482,341.449,59.7173,-16.4083,179.055,1.64795,-145.591,384
1570004482,341.449,59.7173,-16.4083,179.055,1.64795,-145.591,384
1570004482,341.449,59.7173,-16.4083,179.055,1.64795,-145.591,384
1570004483,341.449,59.7173,-16.4083,179.077,1.64795,-145.591,384
1570004483,341.449,59.7173,-16.4083,179.077,1.64795,-145.591,380
1570004483,341.449,59.7173,-16.4083,179.077,1.64795,-145.591,380
1570004483,341.449,59.7173,-16.4083,179.077,1.64795,-145.591,380
1570004483,341.449,59.7173,-16.4083,179.055,1.64795,-145.591,380
1570004483,341.449,59.7173,-16.4083,179.055,1.64795,-145.591,380
1570004483,341.449,59.7173,-16.4083,179.055,1.64795,-145.591,380
1570004483,341.449,59.7173,-16.4083,179.055,1.64795,-145.591,376
1570004483,341.449,59.7173,-16.4083,179.055,1.66992,-145.591,376
1570004483,341.449,59.7173,-16.4083,179.055,1.66992,-145.591,376
1570004483,341.561,59.7173,-16.4083,179.055,1.66992,-145.591,376
1570004483,341.561,59.7173,-16.4083,179.055,1.66992,-145.591,376
1570004483,341.449,59.7173,-16.4083,179.055,1.64795,-145.569,376
1570004483,341.449,59.7173,-16.4083,179.055,1.64795,-145.569,376
1570004488,303.051,100.459,-16.6315,178.901,1.38428,-145.217,304
1570004488,303.051,100.459,-16.6315,178.901,1.38428,-145.217,304
1570004488,303.051,100.459,-16.6315,178.901,1.38428,-145.217,304
1570004488,303.051,100.459,-16.6315,178.901,1.38428,-145.239,300
1570004488,303.051,100.459,-16.6315,178.901,1.38428,-145.239,300
1570004488,303.051,100.459,-16.6315,178.901,1.38428,-145.239,300
1570004488,303.051,100.459,-16.6315,178.901,1.38428,-145.239,300
1570004488,303.051,100.459,-16.6315,178.901,1.38428,-145.239,300
1570004488,303.051,100.459,-16.6315,178.901,1.38428,-145.239,300
1570004488,303.051,100.459,-16.6315,178.901,1.38428,-145.239,300
1570004488,303.051,100.459,-16.6315,178.901,1.38428,-145.239,300
1570004488,303.051,100.459,-16.6315,178.901,1.38428,-145.239,300
1570004488,303.051,100.459,-16.6315,178.901,1.38428,-145.239,300
1570004488,303.051,100.459,-16.6315,178.901,1.38428,-145.239,300
1570004488,303.051,100.459,-16.6315,178.901,1.3623,-145.239,300
1570004488,303.051,100.459,-16.6315,178.901,1.3623,-145.239,300
1570004488,303.051,100.459,-16.6315,178.901,1.3623,-145.239,300
1570004488,303.051,100.459,-16.6315,178.901,1.3623,-145.239,300
1570004488,303.051,100.459,-16.6315,178.901,1.3623,-145.239,300
1570004488,303.051,100.459,-16.6315,178.901,1.3623,-145.239,300
1570004488,303.051,100.459,-16.6315,178.901,1.3623,-145.239,300
1570004488,303.051,100.459,-16.6315,178.901,1.3623,-145.239,300
1570004488,303.051,100.459,-16.6315,178.901,1.3623,-145.239,300
1570004488,303.051,100.459,-16.6315,178.923,1.3623,-145.239,300
1570004488,303.051,100.459,-16.6315,178.923,1.3623,-145.239,300
1570004488,303.051,100.459,-16.6315,178.923,1.3623,-145.239,300
1570004488,303.051,100.459,-16.6315,178.923,1.3623,-145.239,300
1570004488,303.051,100.459,-16.6315,178.923,1.3623,-145.239,300
1570004488,303.051,100.459,-16.6315,178.923,1.3623,-145.239,300
1570004488,303.051,100.459,-16.6315,178.923,1.3623,-145.239,300
1570004488,303.051,100.459,-16.6315,178.923,1.3623,-145.239,300
1570004488,303.051,100.459,-16.6315,178.923,1.3623,-145.239,304
1570004488,303.051,100.459,-16.6315,178.923,1.3623,-145.239,304
1570004488,303.051,100.459,-16.6315,178.923,1.3623,-145.239,304
1570004488,303.051,100.459,-16.6315,178.923,1.3623,-145.239,304
1570004488,303.051,100.459,-16.6315,178.923,1.3623,-145.239,304
1570004488,303.051,100.459,-16.6315,178.923,1.3623,-145.239,304
1570004488,303.051,100.459,-16.7432,178.923,1.34033,-145.239,304
1570004488,303.051,100.459,-16.7432,178.923,1.34033,-145.239,304
1570004488,303.051,100.459,-16.7432,178.923,1.34033,-145.239,304
1570004488,303.051,100.459,-16.7432,178.923,1.34033,-145.239,304
1570004488,303.051,100.459,-16.7432,178.923,1.34033,-145.239,304
1570004488,303.051,100.459,-16.7432,178.923,1.34033,-145.239,304
1570004488,303.051,100.459,-16.7432,178.923,1.3623,-145.239,304
1570004488,303.051,100.459,-16.7432,178.923,1.3623,-145.239,304
1570004488,303.051,100.459,-16.7432,178.923,1.3623,-145.239,308
1570004488,303.051,100.459,-16.7432,178.923,1.3623,-145.239,308
1570004488,303.051,100.459,-16.7432,178.923,1.3623,-145.239,308
1570004488,303.051,100.459,-16.7432,178.923,1.3623,-145.239,308
1570004488,303.051,100.459,-16.7432,178.923,1.3623,-145.239,308
1570004488,303.051,100.459,-16.7432,178.923,1.3623,-145.239,308
1570004488,303.051,100.459,-16.7432,178.923,1.3623,-145.239,308
1570004488,303.051,100.459,-16.7432,178.923,1.3623,-145.239,308
1570004488,303.051,100.459,-16.7432,178.923,1.3623,-145.239,308
1570004488,303.051,100.459,-16.7432,178.923,1.3623,-145.239,308
1570004488,303.051,100.459,-16.7432,178.923,1.3623,-145.217,308
1570004488,303.051,100.459,-16.7432,178.923,1.3623,-145.217,308
1570004488,303.051,100.459,-16.7432,178.923,1.3623,-145.217,308
1570004488,303.051,100.459,-16.7432,178.923,1.3623,-145.217,308
1570004488,303.051,100.459,-16.7432,178.923,1.3623,-145.217,308
1570004488,303.051,100.459,-16.7432,178.923,1.3623,-145.217,308
1570004488,303.051,100.459,-16.7432,178.923,1.3623,-145.217,308
1570004488,303.051,100.459,-16.7432,178.923,1.3623,-145.217,308
1570004488,303.051,100.459,-16.7432,178.923,1.3623,-145.217,304
1570004488,303.051,100.459,-16.7432,178.923,1.34033,-145.217,304
1570004488,303.051,100.459,-16.7432,178.923,1.34033,-145.217,304
1570004488,303.051,100.459,-16.7432,178.923,1.34033,-145.217,304
1570004488,303.051,100.459,-16.7432,178.923,1.34033,-145.217,304
1570004488,303.051,100.459,-16.7432,178.923,1.34033,-145.217,304
1570004488,303.051,100.459,-16.7432,178.923,1.34033,-145.239,304
1570004488,303.051,100.459,-16.7432,178.923,1.34033,-145.239,304
1570004488,303.051,100.459,-16.7432,178.923,1.34033,-145.239,304
1570004488,303.051,100.459,-16.7432,178.923,1.34033,-145.239,304
1570004488,303.051,100.459,-16.7432,178.923,1.34033,-145.239,304
1570004488,303.051,100.459,-16.7432,178.923,1.34033,-145.239,308
1570004488,303.051,100.459,-16.7432,178.923,1.34033,-145.239,308
1570004488,303.051,100.459,-16.7432,178.923,1.34033,-145.239,308
1570004488,303.051,100.459,-16.7432,178.923,1.34033,-145.217,308
1570004488,303.051,100.459,-16.7432,178.923,1.34033,-145.217,308
1570004488,303.051,100.459,-16.7432,178.945,1.31836,-145.217,308
1570004488,303.051,100.459,-16.7432,178.945,1.31836,-145.217,308
1570004488,303.051,100.459,-16.7432,178.945,1.31836,-145.217,308
1570004488,303.051,100.459,-16.7432,178.923,1.31836,-145.217,308
1570004488,303.051,100.459,-16.7432,178.923,1.31836,-145.217,308
1570004488,303.051,100.459,-16.7432,178.923,1.31836,-145.217,308
1570004488,303.051,100.459,-16.7432,178.923,1.31836,-145.217,308
1570004488,303.051,100.459,-16.7432,178.923,1.31836,-145.217,308
1570004488,303.051,100.459,-16.7432,178.923,1.31836,-145.217,308
1570004488,303.051,100.459,-16.7432,178.923,1.31836,-145.217,308
1570004488,303.051,100.459,-16.7432,178.923,1.31836,-145.217,308
1570004489,303.051,100.459,-16.7432,178.923,1.31836,-145.217,308
1570004489,303.051,100.459,-16.7432,178.923,1.34033,-145.217,308
1570004489,303.051,100.459,-16.7432,178.923,1.34033,-145.217,304
1570004489,303.051,100.459,-16.7432,178.923,1.34033,-145.217,308
1570004489,303.051,100.459,-16.7432,178.923,1.34033,-145.217,308
1570004489,303.051,100.459,-16.7432,178.923,1.34033,-145.217,308
1570004489,303.051,100.459,-16.7432,178.923,1.34033,-145.217,308
1570004489,303.051,100.459,-16.7432,178.923,1.34033,-145.217,308
1570004489,303.051,100.459,-16.7432,178.923,1.34033,-145.217,308
1570004489,303.051,100.459,-16.7432,178.923,1.34033,-145.217,308
1570004489,303.051,100.459,-16.7432,178.923,1.34033,-145.217,308
1570004489,303.051,100.459,-16.7432,178.923,1.34033,-145.217,308
1570004489,303.051,100.459,-16.7432,178.923,1.34033,-145.217,308
1570004489,303.051,100.459,-16.7432,178.923,1.34033,-145.217,308
1570004489,303.051,100.459,-16.7432,178.923,1.34033,-145.217,308
1570004489,303.051,100.459,-16.7432,178.923,1.34033,-145.217,308
1570004489,303.051,100.459,-16.7432,178.923,1.34033,-145.217,308
1570004489,303.051,100.459,-16.7432,178.923,1.34033,-145.217,308
1570004489,303.051,100.459,-16.7432,178.923,1.34033,-145.217,308
1570004489,303.051,100.459,-16.7432,178.923,1.34033,-145.217,308
1570004489,303.051,100.459,-16.7432,178.923,1.34033,-145.217,304
1570004489,303.051,100.459,-16.7432,178.923,1.34033,-145.217,304
1570004489,303.051,100.459,-16.7432,178.923,1.34033,-145.217,304
1570004489,303.051,100.459,-16.7432,178.923,1.34033,-145.217,304
1570004489,303.051,100.459,-16.7432,178.923,1.34033,-145.217,304
1570004489,303.051,100.459,-16.7432,178.923,1.34033,-145.217,304
1570004489,303.051,100.459,-16.7432,178.923,1.34033,-145.217,304
1570004489,303.051,100.459,-16.7432,178.923,1.34033,-145.217,304
1570004489,303.051,100.459,-16.7432,178.923,1.34033,-145.217,304
1570004489,303.051,100.459,-16.7432,178.923,1.34033,-145.217,304
1570004489,303.051,100.459,-16.7432,178.923,1.34033,-145.217,304
1570004489,303.051,100.459,-16.7432,178.923,1.34033,-145.217,304
1570004489,303.051,100.459,-16.7432,178.923,1.34033,-145.217,304
1570004489,303.051,100.459,-16.7432,178.923,1.34033,-145.217,308
1570004489,303.051,100.459,-16.7432,178.923,1.34033,-145.217,308
1570004489,303.051,100.459,-16.7432,178.923,1.34033,-145.217,308
1570004489,303.051,100.347,-16.7432,178.923,1.34033,-145.217,308
1570004489,303.051,100.347,-16.7432,178.923,1.34033,-145.217,308
1570004489,303.051,100.459,-16.7432,178.923,1.34033,-145.217,312
1570004489,303.051,100.459,-16.7432,178.923,1.34033,-145.217,312
1570004489,303.051,100.459,-16.7432,178.923,1.34033,-145.217,312
1570004489,303.051,100.459,-16.7432,178.923,1.34033,-145.217,312
1570004489,303.051,100.459,-16.7432,178.923,1.34033,-145.217,312
1570004489,303.051,100.459,-16.7432,178.923,1.34033,-145.217,312
1570004489,303.051,100.459,-16.7432,178.923,1.34033,-145.217,312
1570004489,303.051,100.459,-16.7432,178.923,1.34033,-145.217,312
1570004489,303.051,100.459,-16.7432,178.923,1.34033,-145.217,312
1570004489,303.051,100.459,-16.7432,178.923,1.34033,-145.217,312
1570004489,303.051,100.459,-16.7432,178.923,1.34033,-145.217,312
1570004489,303.051,100.459,-16.7432,178.923,1.34033,-145.217,316
1570004489,303.051,100.459,-16.7432,178.923,1.34033,-145.217,316
1570004489,303.051,100.459,-16.7432,178.923,1.3623,-145.217,316
1570004489,303.051,100.459,-16.7432,178.923,1.3623,-145.217,316
1570004489,303.051,100.459,-16.6315,178.923,1.3623,-145.217,316
1570004489,303.051,100.459,-16.6315,178.923,1.3623,-145.217,316
1570004489,303.051,100.459,-16.6315,178.923,1.3623,-145.217,316
1570004489,303.051,100.459,-16.6315,178.923,1.3623,-145.239,316
1570004489,303.051,100.459,-16.6315,178.923,1.3623,-145.239,316
1570004489,303.051,100.459,-16.6315,178.923,1.3623,-145.239,316
1570004489,303.051,100.459,-16.6315,178.923,1.3623,-145.239,316
1570004489,303.051,100.459,-16.6315,178.923,1.3623,-145.239,316
1570004489,303.051,100.459,-16.6315,178.923,1.3623,-145.239,316
1570004489,303.051,100.459,-16.6315,178.923,1.3623,-145.239,316
1570004489,303.051,100.459,-16.6315,178.923,1.3623,-145.239,316
1570004489,303.051,100.459,-16.6315,178.923,1.3623,-145.239,316
1570004489,303.051,100.459,-16.6315,178.923,1.3623,-145.239,316
1570004489,303.051,100.459,-16.6315,178.923,1.3623,-145.239,316
1570004489,303.051,100.459,-16.6315,178.923,1.3623,-145.239,316
1570004489,303.051,100.459,-16.6315,178.923,1.3623,-145.239,316
1570004489,303.051,100.459,-16.6315,178.923,1.3623,-145.239,316
1570004489,303.051,100.459,-16.7432,178.923,1.3623,-145.239,316
1570004489,303.051,100.459,-16.7432,178.923,1.34033,-145.239,316
1570004489,303.051,100.459,-16.7432,178.923,1.34033,-145.239,316
1570004489,303.051,100.459,-16.7432,178.923,1.34033,-145.239,316
1570004489,303.051,100.459,-16.7432,178.923,1.34033,-145.239,316
1570004489,303.051,100.459,-16.7432,178.923,1.34033,-145.239,316
1570004489,303.051,100.459,-16.7432,178.923,1.34033,-145.239,312
1570004489,303.051,100.459,-16.7432,178.923,1.34033,-145.239,312
1570004489,303.051,100.459,-16.7432,178.923,1.34033,-145.239,312
1570004489,303.051,100.459,-16.7432,178.901,1.34033,-145.239,312
1570004489,303.051,100.459,-16.7432,178.901,1.34033,-145.239,312
1570004489,303.051,100.459,-16.7432,178.923,1.34033,-145.239,308
1570004489,303.051,100.459,-16.7432,178.923,1.34033,-145.217,308
1570004489,303.051,100.459,-16.7432,178.923,1.34033,-145.217,308
1570004489,303.051,100.459,-16.7432,178.923,1.34033,-145.217,308
1570004489,303.051,100.459,-16.7432,178.923,1.34033,-145.217,308
1570004489,303.051,100.459,-16.7432,178.923,1.34033,-145.217,304
1570004489,303.051,100.459,-16.7432,178.923,1.34033,-145.217,304
1570004489,303.051,100.459,-16.7432,178.923,1.34033,-145.217,304
1570004489,303.051,100.459,-16.7432,178.923,1.34033,-145.217,304
1570004489,303.051,100.459,-16.7432,178.923,1.34033,-145.217,304
1570004489,303.051,100.459,-16.7432,178.923,1.34033,-145.217,304
1570004489,303.051,100.459,-16.7432,178.923,1.34033,-145.217,304
1570004489,303.051,100.459,-16.7432,178.923,1.34033,-145.217,304
1570004489,303.051,100.459,-16.7432,178.923,1.34033,-145.217,304
1570004489,303.051,100.459,-16.7432,178.923,1.34033,-145.217,304
1570004489,303.051,100.459,-16.7432,178.923,1.31836,-145.217,304
1570004489,303.051,100.459,-16.7432,178.923,1.31836,-145.217,304
1570004489,303.051,100.459,-16.7432,178.923,1.31836,-145.217,304
1570004489,303.051,100.459,-16.7432,178.923,1.31836,-145.217,304
1570004490,303.051,100.459,-16.7432,178.923,1.31836,-145.217,304
1570004490,303.051,100.459,-16.7432,178.923,1.31836,-145.217,304
1570004490,303.051,100.459,-16.7432,178.923,1.31836,-145.217,304
1570004490,303.051,100.459,-16.7432,178.923,1.31836,-145.217,304
1570004490,303.051,100.459,-16.7432,178.923,1.31836,-145.217,304
1570004490,303.051,100.459,-16.7432,178.923,1.31836,-145.217,304
1570004490,303.051,100.459,-16.7432,178.923,1.31836,-145.217,304
1570004490,303.051,100.459,-16.7432,178.901,1.31836,-145.217,304
1570004490,303.051,100.459,-16.7432,178.901,1.31836,-145.217,304
1570004490,303.051,100.459,-16.7432,178.901,1.31836,-145.217,304
1570004490,303.051,100.459,-16.7432,178.901,1.31836,-145.217,308
1570004490,303.051,100.459,-16.7432,178.901,1.31836,-145.217,308
1570004490,303.051,100.459,-16.7432,178.901,1.31836,-145.217,308
1570004490,303.051,100.459,-16.7432,178.901,1.31836,-145.217,308
1570004490,303.051,100.459,-16.7432,178.901,1.31836,-145.239,308
1570004490,303.051,100.459,-16.7432,178.901,1.31836,-145.239,308
1570004490,303.051,100.459,-16.7432,178.901,1.31836,-145.239,308
1570004490,303.051,100.459,-16.7432,178.901,1.31836,-145.239,308
1570004490,303.051,100.459,-16.7432,178.901,1.31836,-145.239,308
1570004490,303.051,100.459,-16.7432,178.901,1.31836,-145.239,312
1570004490,303.051,100.459,-16.7432,178.901,1.31836,-145.239,312
1570004490,303.051,100.347,-16.7432,178.901,1.31836,-145.239,312
1570004490,303.051,100.347,-16.7432,178.901,1.31836,-145.239,312
1570004490,303.051,100.347,-16.7432,178.901,1.31836,-145.217,312
1570004490,303.051,100.347,-16.7432,178.901,1.31836,-145.217,312
1570004490,303.051,100.459,-16.7432,178.901,1.31836,-145.217,312
1570004490,303.051,100.459,-16.7432,178.901,1.31836,-145.217,312
1570004490,303.051,100.459,-16.7432,178.901,1.31836,-145.217,312
1570004490,303.051,100.459,-16.7432,178.901,1.31836,-145.217,312
1570004490,303.051,100.459,-16.7432,178.901,1.34033,-145.217,312
1570004490,303.051,100.459,-16.7432,178.901,1.34033,-145.217,312
1570004490,303.051,100.459,-16.7432,178.901,1.34033,-145.217,312
1570004490,303.051,100.459,-16.7432,178.901,1.34033,-145.217,312
1570004490,303.051,100.459,-16.7432,178.901,1.34033,-145.217,312
1570004490,303.051,100.459,-16.7432,178.901,1.34033,-145.217,312
1570004490,303.051,100.459,-16.7432,178.901,1.34033,-145.217,312
1570004490,303.051,100.459,-16.7432,178.901,1.34033,-145.217,312
1570004490,303.051,100.459,-16.7432,178.901,1.34033,-145.217,312
1570004490,303.051,100.459,-16.7432,178.901,1.34033,-145.217,312
1570004490,303.051,100.459,-16.7432,178.901,1.34033,-145.217,312
1570004490,303.051,100.347,-16.7432,178.901,1.34033,-145.217,312
1570004490,303.051,100.347,-16.7432,178.901,1.34033,-145.217,312
1570004490,303.051,100.347,-16.7432,178.901,1.34033,-145.217,316
1570004490,303.051,100.347,-16.7432,178.901,1.34033,-145.217,316
1570004490,303.051,100.347,-16.7432,178.901,1.34033,-145.217,316
1570004490,303.051,100.347,-16.7432,178.901,1.34033,-145.217,316
1570004490,303.051,100.347,-16.7432,178.901,1.31836,-145.217,316
1570004490,303.051,100.347,-16.7432,178.901,1.31836,-145.217,316
1570004490,303.051,100.347,-16.7432,178.901,1.31836,-145.217,316
1570004490,303.051,100.459,-16.7432,178.901,1.31836,-145.217,316
1570004490,303.051,100.459,-16.7432,178.901,1.31836,-145.217,316
1570004490,303.051,100.459,-16.7432,178.901,1.34033,-145.217,316
1570004490,303.051,100.459,-16.7432,178.901,1.34033,-145.217,316
1570004490,303.051,100.459,-16.7432,178.901,1.34033,-145.239,316
1570004490,303.051,100.459,-16.7432,178.901,1.34033,-145.239,316
1570004490,303.051,100.459,-16.7432,178.901,1.34033,-145.239,316
1570004490,303.051,100.459,-16.7432,178.901,1.34033,-145.239,316
1570004490,303.051,100.459,-16.7432,178.901,1.34033,-145.239,316
1570004490,303.051,100.459,-16.7432,178.901,1.34033,-145.239,316
1570004490,303.051,100.459,-16.7432,178.901,1.34033,-145.239,312
1570004490,303.051,100.459,-16.7432,178.901,1.34033,-145.239,312
1570004490,303.051,100.459,-16.7432,178.901,1.34033,-145.239,312
1570004490,303.051,100.459,-16.7432,178.901,1.34033,-145.239,312
1570004490,303.051,100.347,-16.7432,178.901,1.34033,-145.239,312
1570004490,303.051,100.347,-16.7432,178.901,1.34033,-145.239,312
1570004490,303.051,100.347,-16.7432,178.901,1.34033,-145.239,312
1570004490,303.051,100.347,-16.7432,178.901,1.34033,-145.239,312
1570004490,303.051,100.347,-16.7432,178.901,1.34033,-145.239,308
1570004490,303.051,100.347,-16.7432,178.901,1.34033,-145.239,308
1570004490,303.051,100.347,-16.7432,178.901,1.34033,-145.239,308
1570004490,303.051,100.347,-16.7432,178.901,1.34033,-145.239,308
1570004490,303.051,100.459,-16.7432,178.901,1.34033,-145.239,308
1570004490,303.051,100.459,-16.7432,178.901,1.34033,-145.239,308
1570004490,303.051,100.459,-16.7432,178.901,1.34033,-145.239,308
1570004490,303.051,100.459,-16.7432,178.901,1.34033,-145.239,308
1570004490,303.051,100.459,-16.7432,178.901,1.34033,-145.239,308
1570004490,303.051,100.459,-16.7432,178.901,1.34033,-145.239,308
1570004490,303.051,100.459,-16.7432,178.901,1.34033,-145.239,308
1570004490,303.051,100.459,-16.7432,178.901,1.34033,-145.239,308
1570004490,303.051,100.459,-16.7432,178.901,1.34033,-145.239,308
1570004490,303.051,100.347,-16.7432,178.901,1.34033,-145.239,308
1570004490,303.051,100.347,-16.7432,178.901,1.31836,-145.239,308
1570004490,303.051,100.347,-16.7432,178.901,1.31836,-145.239,308
1570004490,303.051,100.347,-16.7432,178.901,1.31836,-145.239,308
1570004490,303.051,100.347,-16.7432,178.901,1.31836,-145.217,308
1570004490,303.051,100.347,-16.7432,178.901,1.31836,-145.217,308
1570004490,303.051,100.347,-16.7432,178.901,1.31836,-145.217,308
1570004490,303.051,100.347,-16.7432,178.901,1.31836,-145.217,308
1570004490,303.051,100.347,-16.7432,178.901,1.31836,-145.217,308
1570004490,303.051,100.347,-16.7432,178.901,1.31836,-145.217,308
1570004490,303.051,100.347,-16.7432,178.901,1.31836,-145.217,308
1570004490,303.051,100.347,-16.7432,178.901,1.31836,-145.217,308
1570004490,303.051,100.347,-16.7432,178.901,1.31836,-145.217,308
1570004490,303.051,100.459,-16.7432,178.901,1.31836,-145.217,308
1570004490,303.051,100.459,-16.7432,178.901,1.31836,-145.217,308
1570004490,303.051,100.459,-16.7432,178.901,1.31836,-145.217,308
1570004490,303.051,100.459,-16.7432,178.901,1.31836,-145.217,308
1570004490,303.051,100.459,-16.7432,178.901,1.31836,-145.217,308
1570004490,303.051,100.459,-16.7432,178.901,1.31836,-145.217,308
1570004490,303.051,100.459,-16.7432,178.901,1.31836,-145.217,308
1570004491,303.051,100.459,-16.7432,178.901,1.31836,-145.217,308
1570004491,303.051,100.459,-16.7432,178.901,1.31836,-145.217,308
1570004491,303.051,100.459,-16.7432,178.901,1.31836,-145.217,308
1570004491,303.051,100.459,-16.7432,178.901,1.31836,-145.217,308
1570004491,303.051,100.459,-16.7432,178.901,1.31836,-145.217,304
1570004491,303.051,100.459,-16.7432,178.901,1.31836,-145.217,304
1570004491,303.051,100.459,-16.7432,178.901,1.31836,-145.217,304
1570004491,303.051,100.459,-16.7432,178.901,1.31836,-145.217,304
1570004491,303.051,100.459,-16.7432,178.901,1.31836,-145.217,304
1570004491,303.051,100.459,-16.7432,178.901,1.31836,-145.217,304
1570004491,303.051,100.459,-16.7432,178.901,1.31836,-145.217,304
1570004491,303.051,100.459,-16.7432,178.901,1.31836,-145.217,304
1570004491,303.051,100.459,-16.7432,178.901,1.34033,-145.217,304
1570004491,303.051,100.459,-16.7432,178.901,1.34033,-145.217,304
1570004491,303.051,100.459,-16.7432,178.901,1.34033,-145.217,304
1570004491,303.051,100.459,-16.7432,178.901,1.34033,-145.217,304
1570004491,303.051,100.459,-16.7432,178.901,1.34033,-145.239,304
1570004491,303.051,100.459,-16.7432,178.923,1.34033,-145.239,304
1570004491,303.051,100.459,-16.7432,178.923,1.34033,-145.239,304
1570004491,303.051,100.459,-16.7432,178.923,1.34033,-145.239,304
1570004491,303.051,100.459,-16.7432,178.923,1.34033,-145.239,304
1570004491,303.051,100.459,-16.7432,178.923,1.34033,-145.239,304
1570004491,303.051,100.459,-16.7432,178.923,1.34033,-145.239,304
1570004491,303.051,100.459,-16.7432,178.923,1.34033,-145.239,304
1570004491,303.051,100.459,-16.7432,178.923,1.34033,-145.239,304
1570004491,303.051,100.459,-16.7432,178.923,1.34033,-145.239,304
1570004491,303.051,100.459,-16.7432,178.923,1.34033,-145.239,304
1570004491,303.051,100.459,-16.7432,178.923,1.34033,-145.239,308
1570004491,303.051,100.459,-16.7432,178.923,1.34033,-145.217,308
1570004491,303.051,100.459,-16.7432,178.923,1.34033,-145.217,308
1570004491,303.051,100.459,-16.7432,178.923,1.34033,-145.217,308
1570004491,303.051,100.459,-16.7432,178.923,1.34033,-145.217,308
1570004491,303.051,100.459,-16.7432,178.923,1.34033,-145.217,308
1570004491,303.051,100.459,-16.7432,178.923,1.34033,-145.239,308
1570004491,303.051,100.459,-16.7432,178.923,1.34033,-145.239,308
1570004491,303.051,100.459,-16.7432,178.923,1.34033,-145.239,308
1570004491,303.051,100.459,-16.7432,178.923,1.34033,-145.239,308
1570004491,303.051,100.459,-16.7432,178.923,1.34033,-145.239,308
1570004491,303.051,100.459,-16.7432,178.923,1.34033,-145.239,308
1570004491,303.051,100.459,-16.7432,178.923,1.34033,-145.239,308
1570004491,303.051,100.459,-16.7432,178.923,1.34033,-145.239,312
1570004491,303.051,100.459,-16.7432,178.923,1.34033,-145.239,312
1570004491,303.051,100.347,-16.7432,178.923,1.34033,-145.239,312
1570004491,303.051,100.347,-16.7432,178.923,1.31836,-145.239,312
