time,x,y,z,ax,ay,az,q
1569672280,365.782,74.3396,-16.6315,178.792,1.56006,-145.173,412
1569672280,365.782,74.3396,-16.6315,178.792,1.56006,-145.173,412
1569672280,365.782,74.3396,-16.6315,178.792,1.56006,-145.173,412
1569672280,365.782,74.4513,-16.6315,178.792,1.56006,-145.173,408
1569672280,365.782,74.4513,-16.6315,178.792,1.56006,-145.195,408
1569672280,365.782,74.4513,-16.6315,178.813,1.56006,-145.195,408
1569672280,365.782,74.4513,-16.6315,178.813,1.56006,-145.195,408
1569672280,365.782,74.4513,-16.6315,178.813,1.56006,-145.195,408
1569672280,365.782,74.4513,-16.6315,178.813,1.56006,-145.195,408
1569672280,365.782,74.4513,-16.6315,178.813,1.56006,-145.195,408
1569672281,365.782,74.4513,-16.6315,178.813,1.56006,-145.195,408
1569672281,365.782,74.4513,-16.6315,178.813,1.56006,-145.195,408
1569672281,365.782,74.4513,-16.6315,178.813,1.56006,-145.195,408
1569672281,365.782,74.4513,-16.6315,178.813,1.56006,-145.195,404
1569672281,365.782,74.4513,-16.6315,178.813,1.56006,-145.195,404
1569672281,365.782,74.4513,-16.6315,178.813,1.56006,-145.195,404
1569672281,365.782,74.4513,-16.6315,178.813,1.58203,-145.195,404
1569672281,365.782,74.4513,-16.6315,178.813,1.58203,-145.195,404
1569672281,365.782,74.4513,-16.6315,178.813,1.58203,-145.195,404
1569672281,365.782,74.4513,-16.6315,178.813,1.58203,-145.195,400
1569672281,365.782,74.4513,-16.6315,178.813,1.58203,-145.195,400
1569672281,365.782,74.4513,-16.6315,178.813,1.58203,-145.195,400
1569672281,365.782,74.4513,-16.6315,178.813,1.58203,-145.195,400
1569672281,365.782,74.4513,-16.6315,178.813,1.604,-145.195,400
1569672281,365.782,74.4513,-16.6315,178.813,1.604,-145.195,396
1569672281,365.782,74.4513,-16.5199,178.813,1.604,-145.195,396
1569672281,365.782,74.4513,-16.5199,178.813,1.604,-145.195,396
1569672281,365.782,74.4513,-16.5199,178.813,1.604,-145.195,396
1569672281,365.782,74.4513,-16.5199,178.813,1.604,-145.195,396
1569672281,365.782,74.4513,-16.5199,178.813,1.604,-145.195,396
1569672281,365.782,74.4513,-16.5199,178.813,1.604,-145.195,392
1569672281,365.894,74.4513,-16.5199,178.813,1.604,-145.195,392
1569672281,365.894,74.4513,-16.5199,178.813,1.604,-145.195,392
1569672281,365.894,74.4513,-16.5199,178.792,1.604,-145.195,392
1569672281,365.894,74.4513,-16.5199,178.792,1.604,-145.195,392
1569672281,365.894,74.4513,-16.5199,178.792,1.604,-145.195,392
1569672281,365.894,74.3396,-16.5199,178.792,1.604,-145.195,388
1569672281,365.894,74.3396,-16.5199,178.792,1.604,-145.195,388
1569672281,365.894,74.3396,-16.5199,178.792,1.62598,-145.195,388
1569672281,365.894,74.3396,-16.5199,178.792,1.62598,-145.173,388
1569672281,365.894,74.3396,-16.5199,178.792,1.62598,-145.173,388
1569672281,365.894,74.3396,-16.5199,178.792,1.62598,-145.173,388
1569672281,365.894,74.3396,-16.5199,178.792,1.62598,-145.173,388
1569672281,365.894,74.3396,-16.5199,178.792,1.62598,-145.173,392
1569672281,365.894,74.3396,-16.5199,178.792,1.62598,-145.173,392
1569672281,365.782,74.3396,-16.5199,178.792,1.62598,-145.173,392
1569672281,365.782,74.3396,-16.5199,178.792,1.62598,-145.173,392
1569672281,365.782,74.3396,-16.5199,178.792,1.62598,-145.173,392
1569672281,365.782,74.3396,-16.5199,178.792,1.62598,-145.173,392
1569672281,365.782,74.3396,-16.5199,178.792,1.62598,-145.173,396
1569672281,365.782,74.3396,-16.5199,178.792,1.62598,-145.173,396
1569672281,365.782,74.3396,-16.5199,178.792,1.62598,-145.173,396
1569672281,365.782,74.3396,-16.5199,178.792,1.62598,-145.173,396
1569672281,365.782,74.3396,-16.5199,178.792,1.62598,-145.173,396
1569672281,365.782,74.3396,-16.5199,178.792,1.62598,-145.151,400
1569672281,365.782,74.3396,-16.5199,178.792,1.62598,-145.151,400
1569672281,365.782,74.3396,-16.5199,178.792,1.62598,-145.151,400
1569672281,365.782,74.3396,-16.5199,178.792,1.62598,-145.151,400
1569672281,365.782,74.3396,-16.5199,178.792,1.62598,-145.151,400
1569672281,365.782,74.3396,-16.5199,178.792,1.62598,-145.151,400
1569672281,365.782,74.3396,-16.5199,178.792,1.604,-145.151,404
1569672281,365.782,74.3396,-16.5199,178.792,1.604,-145.151,404
1569672281,365.782,74.3396,-16.5199,178.792,1.604,-145.151,404
1569672281,365.782,74.3396,-16.5199,178.792,1.604,-145.151,404
1569672281,365.782,74.3396,-16.5199,178.792,1.604,-145.151,404
1569672281,365.782,74.3396,-16.5199,178.792,1.604,-145.151,404
1569672281,365.782,74.4513,-16.6315,178.792,1.604,-145.151,404
1569672281,365.782,74.4513,-16.6315,178.792,1.604,-145.173,404
1569672281,365.782,74.4513,-16.6315,178.792,1.604,-145.173,404
1569672281,365.782,74.4513,-16.6315,178.792,1.604,-145.173,404
1569672281,365.782,74.4513,-16.6315,178.792,1.604,-145.173,404
1569672281,365.782,74.4513,-16.6315,178.792,1.604,-145.151,404
1569672281,365.782,74.4513,-16.6315,178.792,1.604,-145.151,404
1569672281,365.782,74.4513,-16.6315,178.792,1.604,-145.151,404
1569672281,365.782,74.4513,-16.6315,178.792,1.604,-145.151,404
1569672281,365.782,74.4513,-16.6315,178.792,1.604,-145.151,408
1569672281,365.782,74.4513,-16.6315,178.813,1.604,-145.151,408
1569672281,365.782,74.4513,-16.6315,178.813,1.604,-145.151,408
1569672281,365.782,74.4513,-16.6315,178.813,1.58203,-145.151,408
1569672281,365.782,74.3396,-16.6315,178.813,1.58203,-145.151,408
1569672281,365.782,74.3396,-16.6315,178.813,1.58203,-145.151,408
1569672281,365.782,74.3396,-16.6315,178.813,1.58203,-145.151,412
1569672281,365.782,74.3396,-16.6315,178.813,1.58203,-145.151,412
1569672281,365.782,74.3396,-16.6315,178.813,1.58203,-145.151,412
1569672281,365.782,74.3396,-16.6315,178.813,1.58203,-145.151,416
1569672281,365.782,74.3396,-16.6315,178.792,1.58203,-145.151,416
1569672281,365.782,74.3396,-16.6315,178.792,1.58203,-145.151,416
1569672281,365.782,74.3396,-16.6315,178.792,1.58203,-145.151,416
1569672281,365.782,74.3396,-16.6315,178.792,1.58203,-145.151,420
1569672281,365.782,74.3396,-16.6315,178.792,1.58203,-145.173,420
1569672281,365.782,74.3396,-16.6315,178.792,1.58203,-145.173,420
1569672281,365.782,74.3396,-16.6315,178.792,1.58203,-145.173,420
1569672281,365.782,74.3396,-16.6315,178.792,1.58203,-145.173,420
1569672281,365.782,74.3396,-16.6315,178.792,1.604,-145.173,420
1569672281,365.782,74.3396,-16.6315,178.792,1.604,-145.173,420
1569672281,365.782,74.3396,-16.6315,178.792,1.604,-145.173,420
1569672281,365.782,74.3396,-16.6315,178.77,1.604,-145.173,420
1569672281,365.782,74.3396,-16.6315,178.77,1.604,-145.173,420
1569672281,365.782,74.3396,-16.5199,178.77,1.604,-145.173,416
1569672281,365.782,74.3396,-16.5199,178.77,1.604,-145.173,416
1569672281,365.782,74.3396,-16.5199,178.77,1.604,-145.173,416
1569672281,365.782,74.3396,-16.5199,178.77,1.604,-145.173,412
1569672281,365.782,74.3396,-16.5199,178.77,1.604,-145.195,412
1569672281,365.782,74.3396,-16.5199,178.77,1.604,-145.195,412
1569672281,365.894,74.3396,-16.5199,178.77,1.604,-145.195,412
1569672281,365.894,74.3396,-16.5199,178.77,1.604,-145.195,408
1569672281,365.894,74.3396,-16.5199,178.77,1.604,-145.195,408
1569672281,365.894,74.3396,-16.5199,178.77,1.604,-145.195,408
1569672281,365.894,74.3396,-16.5199,178.77,1.604,-145.195,404
1569672281,365.894,74.3396,-16.5199,178.77,1.604,-145.195,404
1569672282,365.894,74.3396,-16.5199,178.77,1.604,-145.195,404
1569672282,365.894,74.3396,-16.5199,178.77,1.604,-145.195,404
1569672282,365.894,74.3396,-16.5199,178.77,1.604,-145.195,400
1569672282,365.894,74.3396,-16.5199,178.77,1.604,-145.195,400
1569672282,365.894,74.3396,-16.6315,178.77,1.604,-145.195,400
1569672282,365.894,74.3396,-16.6315,178.77,1.604,-145.195,400
1569672282,365.894,74.3396,-16.6315,178.77,1.604,-145.195,400
1569672282,365.894,74.3396,-16.6315,178.77,1.604,-145.195,400
1569672282,365.894,74.3396,-16.6315,178.77,1.604,-145.195,400
1569672282,365.894,74.3396,-16.6315,178.77,1.604,-145.195,400
1569672282,365.894,74.3396,-16.6315,178.77,1.604,-145.195,396
1569672282,365.894,74.3396,-16.6315,178.77,1.604,-145.195,396
1569672282,365.894,74.3396,-16.6315,178.77,1.604,-145.195,396
1569672282,365.894,74.3396,-16.6315,178.77,1.604,-145.195,396
1569672282,365.894,74.3396,-16.6315,178.77,1.604,-145.195,396
1569672282,365.894,74.3396,-16.6315,178.77,1.604,-145.195,396
1569672282,365.894,74.3396,-16.6315,178.77,1.604,-145.195,396
1569672282,365.894,74.3396,-16.6315,178.77,1.604,-145.195,396
1569672282,365.894,74.3396,-16.6315,178.77,1.604,-145.195,396
1569672282,365.894,74.3396,-16.6315,178.77,1.604,-145.195,396
1569672282,365.894,74.3396,-16.6315,178.77,1.604,-145.195,396
1569672282,365.894,74.4513,-16.6315,178.792,1.604,-145.195,392
1569672282,365.894,74.4513,-16.6315,178.792,1.604,-145.195,392
1569672282,365.894,74.4513,-16.6315,178.792,1.604,-145.195,396
1569672282,365.894,74.4513,-16.6315,178.792,1.604,-145.195,396
1569672282,365.894,74.4513,-16.6315,178.792,1.604,-145.195,396
1569672282,365.894,74.4513,-16.6315,178.792,1.604,-145.195,396
1569672282,365.894,74.4513,-16.6315,178.792,1.604,-145.195,396
1569672282,365.894,74.4513,-16.6315,178.792,1.58203,-145.173,396
1569672282,365.894,74.4513,-16.6315,178.792,1.58203,-145.173,396
1569672282,365.894,74.4513,-16.6315,178.792,1.604,-145.195,396
1569672282,365.894,74.4513,-16.6315,178.792,1.604,-145.195,396
1569672282,365.894,74.3396,-16.6315,178.792,1.604,-145.195,396
1569672282,365.894,74.3396,-16.6315,178.792,1.604,-145.195,396
1569672282,365.894,74.3396,-16.6315,178.77,1.604,-145.195,396
1569672282,365.894,74.3396,-16.6315,178.77,1.604,-145.195,396
1569672282,365.894,74.3396,-16.6315,178.77,1.604,-145.195,396
1569672282,365.894,74.3396,-16.6315,178.77,1.604,-145.195,396
1569672282,365.894,74.3396,-16.6315,178.77,1.604,-145.195,400
1569672282,365.894,74.3396,-16.6315,178.77,1.604,-145.195,400
1569672282,365.894,74.3396,-16.6315,178.77,1.604,-145.195,400
1569672282,365.894,74.3396,-16.6315,178.792,1.604,-145.195,400
1569672282,365.894,74.4513,-16.6315,178.792,1.604,-145.195,400
1569672282,365.894,74.4513,-16.6315,178.792,1.604,-145.195,400
1569672282,365.894,74.4513,-16.6315,178.792,1.604,-145.195,404
1569672282,365.894,74.4513,-16.6315,178.792,1.604,-145.195,404
1569672282,365.894,74.4513,-16.6315,178.792,1.604,-145.195,404
1569672282,365.894,74.4513,-16.6315,178.792,1.604,-145.195,404
1569672282,365.894,74.4513,-16.6315,178.792,1.604,-145.195,404
1569672282,365.894,74.4513,-16.6315,178.792,1.604,-145.195,404
1569672282,365.894,74.4513,-16.6315,178.792,1.58203,-145.195,404
1569672282,365.782,74.4513,-16.6315,178.813,1.58203,-145.195,404
1569672282,365.782,74.4513,-16.6315,178.813,1.58203,-145.195,404
1569672282,365.782,74.4513,-16.6315,178.813,1.58203,-145.195,404
1569672282,365.782,74.4513,-16.6315,178.813,1.58203,-145.195,404
1569672282,365.782,74.4513,-16.6315,178.813,1.58203,-145.195,404
1569672282,365.782,74.4513,-16.6315,178.813,1.58203,-145.195,404
1569672282,365.782,74.4513,-16.6315,178.813,1.58203,-145.195,408
1569672282,365.782,74.4513,-16.6315,178.813,1.58203,-145.195,408
1569672282,365.782,74.4513,-16.6315,178.813,1.58203,-145.195,408
1569672282,365.894,74.4513,-16.6315,178.813,1.58203,-145.195,408
1569672282,365.894,74.4513,-16.6315,178.813,1.58203,-145.195,408
1569672282,365.894,74.4513,-16.6315,178.813,1.58203,-145.195,408
1569672282,365.782,74.4513,-16.6315,178.813,1.58203,-145.195,412
1569672282,365.782,74.4513,-16.6315,178.813,1.58203,-145.195,412
1569672282,365.782,74.4513,-16.6315,178.813,1.58203,-145.195,412
1569672282,365.782,74.4513,-16.6315,178.813,1.58203,-145.195,412
1569672282,365.782,74.4513,-16.6315,178.813,1.58203,-145.173,416
1569672282,365.782,74.4513,-16.6315,178.813,1.58203,-145.173,416
1569672282,365.782,74.4513,-16.6315,178.813,1.58203,-145.173,416
1569672282,365.782,74.4513,-16.6315,178.813,1.58203,-145.173,416
1569672282,365.782,74.4513,-16.6315,178.813,1.58203,-145.173,416
1569672282,365.782,74.4513,-16.6315,178.813,1.58203,-145.173,416
1569672282,365.782,74.4513,-16.6315,178.813,1.58203,-145.173,420
1569672282,365.782,74.4513,-16.6315,178.813,1.604,-145.173,420
1569672282,365.782,74.4513,-16.6315,178.792,1.604,-145.173,420
1569672282,365.782,74.3396,-16.6315,178.792,1.604,-145.173,420
1569672282,365.782,74.3396,-16.6315,178.792,1.604,-145.173,420
1569672282,365.782,74.3396,-16.6315,178.792,1.604,-145.173,424
1569672282,365.782,74.3396,-16.6315,178.792,1.604,-145.173,424
1569672282,365.782,74.3396,-16.6315,178.77,1.604,-145.195,424
1569672282,365.782,74.3396,-16.6315,178.77,1.604,-145.195,424
1569672282,365.782,74.3396,-16.6315,178.77,1.604,-145.195,424
1569672282,365.782,74.3396,-16.6315,178.77,1.604,-145.195,424
1569672282,365.782,74.3396,-16.6315,178.77,1.604,-145.195,424
1569672282,365.782,74.3396,-16.6315,178.77,1.58203,-145.195,424
1569672282,365.782,74.3396,-16.6315,178.792,1.58203,-145.195,424
1569672282,365.894,74.3396,-16.6315,178.792,1.58203,-145.195,424
1569672282,365.894,74.3396,-16.6315,178.792,1.58203,-145.195,420
1569672282,365.894,74.3396,-16.6315,178.792,1.58203,-145.195,420
1569672282,365.894,74.3396,-16.6315,178.792,1.58203,-145.195,420
1569672282,365.894,74.3396,-16.6315,178.792,1.58203,-145.195,420
1569672282,365.894,74.3396,-16.6315,178.792,1.58203,-145.195,416
1569672282,365.782,74.3396,-16.6315,178.792,1.58203,-145.195,416
1569672282,365.782,74.3396,-16.6315,178.792,1.58203,-145.195,416
1569672282,365.782,74.3396,-16.6315,178.792,1.58203,-145.195,416
1569672282,365.782,74.3396,-16.6315,178.792,1.58203,-145.195,412
1569672282,365.782,74.3396,-16.6315,178.792,1.58203,-145.195,412
1569672282,365.782,74.3396,-16.6315,178.792,1.58203,-145.195,412
1569672282,365.782,74.4513,-16.6315,178.792,1.58203,-145.195,412
1569672283,365.782,74.4513,-16.6315,178.792,1.58203,-145.195,412
1569672283,365.782,74.4513,-16.6315,178.792,1.58203,-145.195,412
1569672283,365.782,74.4513,-16.6315,178.792,1.58203,-145.195,412
1569672283,365.782,74.4513,-16.6315,178.813,1.58203,-145.195,412
1569672283,365.782,74.4513,-16.6315,178.813,1.58203,-145.195,412
1569672283,365.782,74.4513,-16.6315,178.813,1.58203,-145.195,412
1569672283,365.782,74.4513,-16.6315,178.813,1.58203,-145.195,412
1569672283,365.782,74.4513,-16.6315,178.813,1.58203,-145.195,412
1569672283,365.782,74.4513,-16.6315,178.813,1.58203,-145.195,412
1569672283,365.782,74.4513,-16.6315,178.813,1.58203,-145.195,412
1569672283,365.782,74.4513,-16.6315,178.813,1.58203,-145.195,412
1569672283,365.782,74.4513,-16.6315,178.813,1.58203,-145.195,412
1569672283,365.782,74.4513,-16.6315,178.813,1.58203,-145.195,412
1569672283,365.782,74.4513,-16.6315,178.813,1.58203,-145.195,412
1569672283,365.782,74.4513,-16.6315,178.813,1.58203,-145.195,412
1569672283,365.782,74.4513,-16.6315,178.813,1.58203,-145.195,412
1569672283,365.782,74.4513,-16.6315,178.813,1.58203,-145.195,412
1569672283,365.782,74.4513,-16.6315,178.813,1.58203,-145.195,412
1569672283,365.782,74.4513,-16.6315,178.813,1.58203,-145.195,416
1569672283,365.782,74.4513,-16.6315,178.813,1.58203,-145.195,416
1569672283,365.894,74.4513,-16.6315,178.813,1.58203,-145.195,412
1569672283,365.894,74.4513,-16.6315,178.813,1.58203,-145.195,412
1569672283,365.894,74.4513,-16.6315,178.813,1.58203,-145.173,412
1569672283,365.894,74.4513,-16.6315,178.792,1.58203,-145.173,412
1569672283,365.894,74.4513,-16.6315,178.792,1.58203,-145.173,412
1569672283,365.894,74.4513,-16.6315,178.792,1.58203,-145.173,412
1569672283,365.894,74.4513,-16.6315,178.792,1.58203,-145.173,412
1569672283,365.894,74.4513,-16.6315,178.813,1.58203,-145.173,408
1569672283,365.894,74.4513,-16.6315,178.813,1.56006,-145.173,408
1569672283,365.894,74.4513,-16.6315,178.813,1.56006,-145.173,408
1569672283,365.894,74.4513,-16.6315,178.792,1.56006,-145.173,404
1569672283,365.894,74.4513,-16.6315,178.792,1.56006,-145.173,404
1569672283,365.894,74.4513,-16.6315,178.792,1.56006,-145.173,404
1569672283,365.894,74.4513,-16.6315,178.792,1.56006,-145.173,400
1569672283,365.894,74.4513,-16.6315,178.792,1.56006,-145.173,400
1569672283,365.894,74.4513,-16.6315,178.792,1.56006,-145.173,400
1569672283,365.894,74.4513,-16.6315,178.792,1.56006,-145.173,400
1569672283,365.894,74.4513,-16.6315,178.792,1.56006,-145.173,400
1569672283,365.894,74.4513,-16.6315,178.792,1.56006,-145.173,400
1569672283,365.894,74.4513,-16.6315,178.792,1.56006,-145.173,396
1569672283,365.894,74.4513,-16.6315,178.792,1.56006,-145.173,400
1569672283,365.894,74.4513,-16.6315,178.792,1.56006,-145.173,400
1569672283,365.894,74.4513,-16.6315,178.792,1.56006,-145.173,400
1569672283,365.894,74.4513,-16.7432,178.792,1.56006,-145.173,400
1569672283,365.894,74.4513,-16.7432,178.792,1.56006,-145.173,400
1569672283,365.894,74.4513,-16.7432,178.792,1.56006,-145.151,400
1569672283,365.894,74.4513,-16.7432,178.792,1.56006,-145.151,400
1569672283,365.894,74.4513,-16.7432,178.792,1.56006,-145.151,400
1569672283,365.894,74.4513,-16.7432,178.813,1.56006,-145.151,400
1569672283,365.894,74.4513,-16.7432,178.813,1.56006,-145.151,400
1569672283,365.894,74.4513,-16.7432,178.813,1.56006,-145.151,400
1569672283,365.894,74.4513,-16.7432,178.813,1.56006,-145.151,400
1569672283,365.894,74.4513,-16.7432,178.813,1.56006,-145.151,400
1569672283,365.894,74.4513,-16.7432,178.813,1.56006,-145.151,404
1569672283,365.894,74.4513,-16.7432,178.813,1.56006,-145.151,404
1569672283,365.894,74.4513,-16.7432,178.792,1.56006,-145.151,404
1569672283,365.894,74.4513,-16.7432,178.792,1.56006,-145.151,404
1569672283,365.894,74.4513,-16.7432,178.792,1.56006,-145.151,404
1569672283,365.894,74.4513,-16.7432,178.792,1.56006,-145.151,408
1569672283,365.894,74.4513,-16.7432,178.792,1.56006,-145.151,408
1569672283,365.894,74.3396,-16.7432,178.792,1.56006,-145.151,408
1569672283,365.894,74.3396,-16.7432,178.792,1.56006,-145.173,408
1569672283,365.894,74.3396,-16.7432,178.792,1.56006,-145.173,408
1569672283,365.894,74.3396,-16.7432,178.792,1.56006,-145.173,408
1569672283,365.894,74.3396,-16.6315,178.77,1.56006,-145.173,408
1569672283,365.894,74.3396,-16.6315,178.77,1.58203,-145.173,412
1569672283,365.894,74.3396,-16.6315,178.77,1.58203,-145.173,412
1569672283,365.894,74.3396,-16.6315,178.77,1.58203,-145.173,412
1569672283,365.894,74.3396,-16.6315,178.77,1.58203,-145.173,412
1569672283,365.894,74.3396,-16.6315,178.77,1.58203,-145.173,412
1569672283,365.894,74.3396,-16.6315,178.77,1.58203,-145.173,412
1569672283,365.894,74.3396,-16.6315,178.77,1.58203,-145.173,412
1569672283,365.894,74.3396,-16.6315,178.77,1.58203,-145.195,412
1569672283,365.894,74.3396,-16.6315,178.77,1.604,-145.195,412
1569672283,365.894,74.3396,-16.6315,178.77,1.604,-145.195,412
1569672283,365.894,74.3396,-16.6315,178.792,1.604,-145.195,412
1569672283,365.894,74.3396,-16.6315,178.792,1.604,-145.195,412
1569672283,365.782,74.3396,-16.6315,178.792,1.604,-145.195,412
1569672283,365.782,74.3396,-16.6315,178.792,1.604,-145.195,412
1569672283,365.782,74.3396,-16.6315,178.792,1.604,-145.195,412
1569672283,365.782,74.3396,-16.5199,178.792,1.604,-145.195,412
1569672283,365.782,74.4513,-16.5199,178.792,1.604,-145.195,412
1569672283,365.782,74.4513,-16.5199,178.792,1.604,-145.195,412
1569672283,365.782,74.4513,-16.5199,178.792,1.604,-145.195,412
1569672283,365.782,74.4513,-16.5199,178.792,1.604,-145.195,412
1569672283,365.782,74.4513,-16.5199,178.792,1.604,-145.195,412
1569672283,365.782,74.4513,-16.5199,178.792,1.62598,-145.195,412
1569672283,365.782,74.4513,-16.5199,178.792,1.62598,-145.195,408
1569672283,365.782,74.4513,-16.5199,178.792,1.62598,-145.195,408
1569672283,365.782,74.3396,-16.5199,178.792,1.62598,-145.195,408
1569672283,365.782,74.3396,-16.5199,178.792,1.62598,-145.195,408
1569672283,365.782,74.3396,-16.5199,178.792,1.62598,-145.195,408
1569672283,365.782,74.3396,-16.5199,178.792,1.62598,-145.195,408
1569672283,365.782,74.3396,-16.5199,178.792,1.62598,-145.195,408
1569672283,365.782,74.3396,-16.5199,178.792,1.62598,-145.195,408
1569672283,365.782,74.3396,-16.5199,178.77,1.62598,-145.195,404
1569672283,365.782,74.3396,-16.5199,178.77,1.62598,-145.195,404
1569672283,365.782,74.3396,-16.5199,178.77,1.62598,-145.195,404
1569672283,365.782,74.3396,-16.5199,178.77,1.62598,-145.195,404
1569672283,365.782,74.3396,-16.5199,178.77,1.62598,-145.195,404
1569672284,365.782,74.3396,-16.5199,178.77,1.62598,-145.195,404
1569672284,365.782,74.3396,-16.5199,178.77,1.62598,-145.195,408
1569672284,365.782,74.3396,-16.5199,178.77,1.62598,-145.195,408
1569672284,365.782,74.3396,-16.5199,178.77,1.62598,-145.195,408
1569672284,365.782,74.3396,-16.5199,178.77,1.62598,-145.195,408
1569672284,365.782,74.3396,-16.5199,178.77,1.62598,-145.195,408
1569672284,365.782,74.3396,-16.5199,178.77,1.62598,-145.195,408
1569672284,365.782,74.3396,-16.5199,178.77,1.62598,-145.195,408
1569672284,365.782,74.3396,-16.5199,178.77,1.62598,-145.195,408
1569672284,365.782,74.3396,-16.5199,178.792,1.62598,-145.195,412
1569672284,365.782,74.3396,-16.5199,178.77,1.62598,-145.195,412
1569672284,365.782,74.3396,-16.5199,178.77,1.62598,-145.195,412
1569672284,365.782,74.3396,-16.5199,178.77,1.62598,-145.195,412
1569672284,365.782,74.3396,-16.5199,178.77,1.62598,-145.195,412
1569672284,365.782,74.3396,-16.5199,178.77,1.62598,-145.195,412
1569672284,365.782,74.3396,-16.5199,178.77,1.62598,-145.195,412
1569672284,365.782,74.3396,-16.5199,178.77,1.62598,-145.195,412
1569672284,365.782,74.3396,-16.5199,178.77,1.62598,-145.195,412
1569672284,365.782,74.3396,-16.5199,178.77,1.62598,-145.195,416
1569672284,365.782,74.3396,-16.5199,178.77,1.62598,-145.195,416
1569672284,365.782,74.3396,-16.5199,178.77,1.62598,-145.195,416
1569672284,365.782,74.3396,-16.5199,178.77,1.62598,-145.195,416
1569672284,365.782,74.3396,-16.5199,178.77,1.62598,-145.195,416
1569672284,365.782,74.3396,-16.5199,178.77,1.62598,-145.195,416
1569672284,365.782,74.3396,-16.5199,178.77,1.62598,-145.195,416
1569672284,365.782,74.3396,-16.5199,178.77,1.62598,-145.195,416
1569672284,365.782,74.3396,-16.5199,178.77,1.62598,-145.195,416
1569672284,365.782,74.3396,-16.5199,178.77,1.604,-145.195,416
1569672284,365.782,74.3396,-16.5199,178.77,1.604,-145.195,416
1569672284,365.782,74.3396,-16.5199,178.77,1.604,-145.195,416
1569672284,365.782,74.3396,-16.6315,178.792,1.604,-145.195,416
1569672284,365.782,74.3396,-16.6315,178.792,1.604,-145.195,416
1569672284,365.782,74.3396,-16.6315,178.792,1.604,-145.195,416
1569672284,365.782,74.3396,-16.6315,178.792,1.604,-145.195,416
1569672284,365.782,74.3396,-16.6315,178.792,1.604,-145.195,416
1569672284,365.894,74.3396,-16.6315,178.792,1.604,-145.195,416
1569672284,365.894,74.3396,-16.6315,178.792,1.604,-145.173,416
1569672284,365.894,74.3396,-16.6315,178.792,1.604,-145.173,416
1569672284,365.894,74.3396,-16.6315,178.792,1.604,-145.173,416
1569672284,365.894,74.3396,-16.6315,178.792,1.604,-145.173,416
1569672284,365.894,74.3396,-16.6315,178.792,1.604,-145.173,416
1569672284,365.894,74.3396,-16.6315,178.792,1.604,-145.173,416
1569672284,365.894,74.3396,-16.6315,178.792,1.604,-145.173,416
1569672284,365.894,74.4513,-16.6315,178.792,1.604,-145.173,412
1569672284,365.894,74.4513,-16.6315,178.792,1.604,-145.173,412
1569672284,365.894,74.4513,-16.6315,178.792,1.604,-145.173,412
1569672284,365.894,74.4513,-16.6315,178.813,1.604,-145.173,412
1569672284,365.894,74.4513,-16.6315,178.813,1.604,-145.173,412
1569672284,365.894,74.4513,-16.6315,178.813,1.604,-145.173,408
1569672284,365.894,74.4513,-16.6315,178.813,1.604,-145.173,408
1569672284,365.894,74.4513,-16.5199,178.813,1.604,-145.173,408
1569672284,365.894,74.4513,-16.5199,178.792,1.62598,-145.173,404
1569672284,365.894,74.4513,-16.5199,178.792,1.62598,-145.173,404
1569672284,365.894,74.4513,-16.5199,178.792,1.62598,-145.173,404
1569672284,365.894,74.4513,-16.5199,178.792,1.62598,-145.173,404
1569672284,365.894,74.4513,-16.5199,178.792,1.62598,-145.173,400
1569672284,365.894,74.4513,-16.5199,178.792,1.62598,-145.173,400
1569672284,365.894,74.4513,-16.5199,178.792,1.62598,-145.173,400
1569672284,365.894,74.3396,-16.5199,178.792,1.62598,-145.173,400
1569672284,365.894,74.3396,-16.5199,178.77,1.62598,-145.173,400
1569672284,365.894,74.3396,-16.5199,178.77,1.62598,-145.173,400
1569672284,365.894,74.3396,-16.5199,178.77,1.62598,-145.173,396
1569672284,365.894,74.3396,-16.5199,178.77,1.62598,-145.173,396
1569672284,365.894,74.3396,-16.5199,178.77,1.604,-145.173,396
1569672284,365.894,74.3396,-16.5199,178.77,1.604,-145.173,396
1569672284,365.894,74.3396,-16.6315,178.77,1.604,-145.173,396
1569672284,365.894,74.3396,-16.6315,178.77,1.604,-145.173,396
1569672284,365.894,74.3396,-16.6315,178.77,1.604,-145.173,396
1569672284,365.894,74.3396,-16.6315,178.77,1.604,-145.173,396
1569672284,365.894,74.3396,-16.6315,178.77,1.604,-145.173,396
1569672284,365.894,74.3396,-16.6315,178.77,1.58203,-145.173,396
1569672284,365.894,74.3396,-16.6315,178.77,1.58203,-145.173,396
1569672284,365.894,74.3396,-16.6315,178.77,1.58203,-145.173,396
1569672284,365.894,74.3396,-16.6315,178.77,1.58203,-145.173,396
1569672284,365.894,74.3396,-16.6315,178.77,1.58203,-145.173,396
1569672284,365.894,74.3396,-16.6315,178.77,1.58203,-145.173,396
1569672284,365.894,74.3396,-16.6315,178.77,1.58203,-145.173,396
1569672284,365.894,74.3396,-16.6315,178.77,1.58203,-145.173,396
1569672284,365.894,74.3396,-16.6315,178.77,1.58203,-145.173,396
1569672284,365.894,74.3396,-16.6315,178.77,1.58203,-145.173,396
1569672284,365.894,74.3396,-16.6315,178.77,1.58203,-145.173,396
1569672284,365.894,74.3396,-16.6315,178.77,1.58203,-145.173,396
1569672284,365.894,74.3396,-16.6315,178.77,1.58203,-145.173,392
1569672284,365.894,74.3396,-16.6315,178.77,1.58203,-145.173,392
1569672284,365.894,74.3396,-16.6315,178.77,1.58203,-145.173,392
1569672284,365.894,74.3396,-16.6315,178.77,1.58203,-145.173,392
1569672284,365.894,74.3396,-16.6315,178.77,1.58203,-145.173,392
1569672284,365.894,74.3396,-16.6315,178.77,1.58203,-145.173,392
1569672284,365.894,74.3396,-16.6315,178.77,1.58203,-145.173,396
1569672284,365.894,74.3396,-16.6315,178.77,1.58203,-145.173,396
1569672284,365.894,74.3396,-16.6315,178.77,1.58203,-145.173,396
1569672284,365.894,74.3396,-16.6315,178.77,1.58203,-145.173,396
1569672284,365.894,74.3396,-16.6315,178.77,1.58203,-145.173,396
1569672284,365.894,74.3396,-16.6315,178.77,1.58203,-145.173,396
1569672284,365.894,74.3396,-16.6315,178.77,1.58203,-145.173,396
1569672284,365.894,74.3396,-16.6315,178.77,1.58203,-145.173,396
1569672284,365.894,74.3396,-16.6315,178.77,1.58203,-145.173,396
1569672284,365.894,74.3396,-16.6315,178.77,1.58203,-145.173,396
1569672284,365.894,74.3396,-16.6315,178.77,1.58203,-145.173,396
1569672284,365.894,74.3396,-16.6315,178.77,1.58203,-145.173,396
1569672285,365.894,74.3396,-16.6315,178.792,1.58203,-145.195,400
1569672285,365.894,74.3396,-16.6315,178.792,1.58203,-145.195,400
1569672285,365.782,74.3396,-16.6315,178.792,1.58203,-145.195,400
1569672285,365.782,74.3396,-16.6315,178.792,1.58203,-145.195,400
1569672285,365.782,74.3396,-16.6315,178.792,1.58203,-145.195,400
1569672285,365.782,74.3396,-16.6315,178.792,1.58203,-145.195,404
1569672285,365.782,74.3396,-16.6315,178.792,1.56006,-145.195,404
1569672285,365.782,74.3396,-16.7432,178.792,1.56006,-145.195,404
1569672285,365.782,74.3396,-16.7432,178.792,1.56006,-145.195,404
1569672285,365.782,74.3396,-16.7432,178.792,1.56006,-145.195,404
1569672285,365.782,74.4513,-16.7432,178.792,1.56006,-145.195,404
1569672285,365.782,74.4513,-16.7432,178.792,1.56006,-145.195,404
1569672285,365.782,74.4513,-16.7432,178.792,1.56006,-145.195,404
1569672285,365.782,74.4513,-16.7432,178.813,1.56006,-145.195,404
1569672285,365.782,74.4513,-16.7432,178.813,1.56006,-145.195,404
1569672285,365.782,74.4513,-16.7432,178.813,1.56006,-145.195,404
1569672285,365.782,74.4513,-16.7432,178.813,1.56006,-145.195,404
1569672285,365.782,74.4513,-16.7432,178.813,1.56006,-145.195,404
1569672285,365.782,74.4513,-16.7432,178.813,1.56006,-145.195,404
1569672285,365.782,74.4513,-16.7432,178.813,1.56006,-145.195,404
1569672285,365.782,74.4513,-16.7432,178.813,1.56006,-145.195,404
1569672285,365.782,74.4513,-16.6315,178.813,1.56006,-145.195,404
1569672285,365.894,74.4513,-16.6315,178.813,1.56006,-145.195,404
1569672285,365.894,74.4513,-16.6315,178.813,1.56006,-145.195,404
1569672285,365.894,74.4513,-16.6315,178.813,1.58203,-145.195,404
1569672285,365.894,74.4513,-16.6315,178.813,1.58203,-145.195,404
1569672285,365.894,74.4513,-16.6315,178.813,1.58203,-145.195,400
1569672285,365.894,74.4513,-16.6315,178.813,1.58203,-145.195,400
1569672285,365.894,74.4513,-16.6315,178.813,1.58203,-145.195,400
1569672285,365.894,74.4513,-16.6315,178.813,1.58203,-145.195,400
1569672285,365.894,74.4513,-16.6315,178.813,1.58203,-145.195,400
1569672285,365.894,74.4513,-16.6315,178.813,1.58203,-145.195,400
1569672285,365.894,74.4513,-16.6315,178.813,1.58203,-145.195,396
1569672285,365.894,74.4513,-16.6315,178.813,1.58203,-145.195,396
1569672285,365.894,74.4513,-16.6315,178.813,1.58203,-145.195,396
1569672285,365.894,74.4513,-16.6315,178.813,1.58203,-145.195,396
1569672285,365.782,74.4513,-16.6315,178.813,1.58203,-145.195,396
1569672285,365.782,74.4513,-16.6315,178.813,1.58203,-145.195,396
1569672285,365.782,74.4513,-16.6315,178.813,1.58203,-145.195,396
1569672285,365.782,74.4513,-16.6315,178.813,1.58203,-145.195,396
1569672285,365.782,74.4513,-16.6315,178.813,1.58203,-145.195,400
1569672285,365.782,74.4513,-16.6315,178.813,1.58203,-145.195,400
1569672285,365.782,74.4513,-16.6315,178.813,1.58203,-145.195,396
1569672285,365.782,74.4513,-16.6315,178.813,1.58203,-145.195,396
1569672285,365.782,74.4513,-16.6315,178.813,1.58203,-145.195,396
1569672285,365.782,74.4513,-16.6315,178.813,1.58203,-145.195,396
1569672285,365.782,74.4513,-16.6315,178.813,1.58203,-145.195,396
1569672285,365.782,74.4513,-16.6315,178.813,1.604,-145.195,396
1569672285,365.894,74.4513,-16.6315,178.813,1.604,-145.195,396
1569672285,365.894,74.4513,-16.6315,178.813,1.604,-145.195,392
1569672285,365.894,74.4513,-16.6315,178.835,1.604,-145.195,392
1569672285,365.894,74.4513,-16.6315,178.835,1.604,-145.195,392
1569672285,365.894,74.4513,-16.6315,178.835,1.604,-145.195,392
1569672285,365.894,74.4513,-16.6315,178.835,1.604,-145.195,388
1569672285,365.894,74.4513,-16.6315,178.835,1.604,-145.195,388
1569672285,365.894,74.4513,-16.6315,178.813,1.604,-145.195,388
1569672285,365.894,74.4513,-16.6315,178.813,1.604,-145.195,388
1569672285,365.894,74.4513,-16.6315,178.813,1.604,-145.195,388
1569672285,365.894,74.4513,-16.6315,178.813,1.604,-145.195,388
1569672285,365.894,74.4513,-16.6315,178.813,1.604,-145.195,384
1569672285,365.894,74.4513,-16.6315,178.813,1.604,-145.195,384
1569672285,365.894,74.4513,-16.6315,178.813,1.604,-145.195,388
1569672285,365.894,74.4513,-16.6315,178.813,1.604,-145.195,388
1569672285,365.894,74.4513,-16.6315,178.813,1.604,-145.195,388
1569672285,365.894,74.4513,-16.6315,178.813,1.58203,-145.195,388
1569672285,365.782,74.4513,-16.6315,178.813,1.58203,-145.195,388
1569672285,365.782,74.4513,-16.6315,178.813,1.58203,-145.195,388
1569672285,365.782,74.4513,-16.6315,178.813,1.58203,-145.195,388
1569672285,365.782,74.4513,-16.6315,178.813,1.58203,-145.195,392
1569672285,365.782,74.4513,-16.6315,178.813,1.58203,-145.195,392
1569672285,365.782,74.4513,-16.6315,178.813,1.58203,-145.195,392
1569672285,365.782,74.4513,-16.6315,178.813,1.58203,-145.195,392
1569672285,365.782,74.4513,-16.6315,178.813,1.58203,-145.195,396
1569672285,365.782,74.4513,-16.6315,178.813,1.58203,-145.195,396
1569672285,365.782,74.4513,-16.6315,178.813,1.58203,-145.195,396
1569672285,365.782,74.4513,-16.6315,178.813,1.58203,-145.195,400
1569672285,365.782,74.4513,-16.6315,178.813,1.604,-145.195,400
1569672285,365.782,74.4513,-16.6315,178.835,1.604,-145.173,400
1569672285,365.782,74.4513,-16.6315,178.835,1.604,-145.173,400
1569672285,365.782,74.4513,-16.6315,178.835,1.604,-145.173,400
1569672285,365.782,74.4513,-16.6315,178.835,1.604,-145.173,400
1569672285,365.782,74.4513,-16.6315,178.835,1.604,-145.173,404
1569672285,365.782,74.4513,-16.6315,178.835,1.604,-145.173,404
1569672285,365.782,74.4513,-16.6315,178.835,1.604,-145.173,404
1569672285,365.782,74.4513,-16.5199,178.835,1.604,-145.173,404
1569672285,365.894,74.4513,-16.5199,178.835,1.604,-145.173,404
1569672285,365.894,74.4513,-16.5199,178.835,1.604,-145.173,400
1569672285,365.894,74.4513,-16.5199,178.813,1.62598,-145.173,400
1569672285,365.894,74.4513,-16.5199,178.813,1.62598,-145.173,400
1569672285,365.894,74.4513,-16.5199,178.813,1.62598,-145.173,400
1569672291,350.602,90.9712,-16.5199,178.813,1.75781,-145.371,364
1569672291,350.602,90.9712,-16.5199,178.813,1.75781,-145.371,364
1569672291,350.602,90.9712,-16.5199,178.813,1.73584,-145.371,364
1569672291,350.602,90.9712,-16.5199,178.813,1.73584,-145.371,364
1569672291,350.602,90.9712,-16.5199,178.813,1.73584,-145.371,364
1569672291,350.602,90.9712,-16.5199,178.813,1.73584,-145.371,364
1569672291,350.602,90.9712,-16.5199,178.813,1.73584,-145.371,364
1569672291,350.602,90.9712,-16.5199,178.813,1.73584,-145.371,364
1569672291,350.602,90.9712,-16.5199,178.813,1.73584,-145.371,364
1569672291,350.602,90.9712,-16.5199,178.813,1.73584,-145.371,360
1569672291,350.602,90.9712,-16.5199,178.813,1.73584,-145.371,360
1569672291,350.602,90.9712,-16.5199,178.813,1.73584,-145.371,360
1569672291,350.602,90.9712,-16.5199,178.813,1.75781,-145.371,360
1569672291,350.602,90.9712,-16.5199,178.813,1.75781,-145.371,360
1569672291,350.602,90.9712,-16.5199,178.813,1.75781,-145.371,360
1569672291,350.602,90.9712,-16.5199,178.813,1.75781,-145.371,360
1569672291,350.602,90.9712,-16.5199,178.813,1.75781,-145.371,360
1569672291,350.602,90.9712,-16.5199,178.835,1.75781,-145.371,360
1569672291,350.602,90.9712,-16.5199,178.835,1.75781,-145.371,360
1569672291,350.602,90.9712,-16.5199,178.835,1.75781,-145.371,360
1569672291,350.602,90.9712,-16.5199,178.835,1.75781,-145.371,360
1569672291,350.602,90.9712,-16.5199,178.835,1.75781,-145.371,360
1569672291,350.602,90.9712,-16.5199,178.835,1.75781,-145.371,360
1569672292,350.602,90.9712,-16.5199,178.835,1.75781,-145.371,360
1569672292,350.602,90.9712,-16.5199,178.835,1.75781,-145.371,360
1569672292,350.602,90.9712,-16.5199,178.835,1.75781,-145.371,360
1569672292,350.602,90.9712,-16.5199,178.835,1.75781,-145.371,360
1569672292,350.602,90.9712,-16.5199,178.835,1.75781,-145.371,364
1569672292,350.602,90.9712,-16.5199,178.835,1.75781,-145.371,364
1569672292,350.602,90.9712,-16.5199,178.835,1.75781,-145.371,364
1569672292,350.602,90.9712,-16.5199,178.835,1.73584,-145.371,364
1569672292,350.602,90.9712,-16.5199,178.813,1.73584,-145.371,364
1569672292,350.602,90.9712,-16.5199,178.813,1.73584,-145.371,364
1569672292,350.602,90.9712,-16.5199,178.813,1.73584,-145.371,364
1569672292,350.602,90.9712,-16.5199,178.813,1.73584,-145.371,364
1569672292,350.602,90.9712,-16.5199,178.813,1.73584,-145.371,364
1569672292,350.602,90.9712,-16.5199,178.813,1.73584,-145.371,364
1569672292,350.602,90.9712,-16.5199,178.813,1.73584,-145.371,364
1569672292,350.602,90.9712,-16.5199,178.813,1.73584,-145.371,364
1569672292,350.602,90.9712,-16.5199,178.813,1.73584,-145.371,368
1569672292,350.602,90.9712,-16.5199,178.813,1.73584,-145.371,368
1569672292,350.602,90.9712,-16.5199,178.813,1.73584,-145.371,368
1569672292,350.602,90.9712,-16.5199,178.813,1.73584,-145.371,368
1569672292,350.602,90.9712,-16.5199,178.813,1.73584,-145.371,368
1569672292,350.602,90.9712,-16.5199,178.813,1.73584,-145.371,368
1569672292,350.602,90.9712,-16.5199,178.813,1.73584,-145.371,368
1569672292,350.602,90.9712,-16.5199,178.813,1.73584,-145.371,368
1569672292,350.602,90.9712,-16.5199,178.813,1.73584,-145.371,364
1569672292,350.602,90.9712,-16.5199,178.813,1.73584,-145.371,364
1569672292,350.602,90.9712,-16.5199,178.813,1.73584,-145.371,364
1569672292,350.602,90.9712,-16.5199,178.813,1.73584,-145.371,364
1569672292,350.602,90.9712,-16.5199,178.813,1.73584,-145.371,364
1569672292,350.602,90.9712,-16.5199,178.813,1.73584,-145.371,364
1569672292,350.602,90.9712,-16.5199,178.813,1.73584,-145.371,364
1569672292,350.602,90.9712,-16.5199,178.813,1.75781,-145.371,360
1569672292,350.602,90.9712,-16.5199,178.813,1.75781,-145.371,360
1569672292,350.602,90.9712,-16.5199,178.813,1.75781,-145.371,360
1569672292,350.602,90.9712,-16.5199,178.813,1.75781,-145.371,360
1569672292,350.602,90.9712,-16.5199,178.813,1.75781,-145.371,360
1569672292,350.602,90.9712,-16.5199,178.813,1.75781,-145.371,360
1569672292,350.602,90.9712,-16.5199,178.813,1.75781,-145.371,360
1569672292,350.602,90.9712,-16.5199,178.813,1.75781,-145.371,356
1569672292,350.602,90.9712,-16.5199,178.813,1.75781,-145.371,356
1569672292,350.602,90.9712,-16.5199,178.813,1.75781,-145.371,356
1569672292,350.602,90.9712,-16.5199,178.813,1.75781,-145.371,356
1569672292,350.602,90.9712,-16.5199,178.813,1.75781,-145.371,356
1569672292,350.602,90.9712,-16.5199,178.813,1.75781,-145.371,356
1569672292,350.602,90.9712,-16.5199,178.813,1.75781,-145.371,352
1569672292,350.602,90.9712,-16.5199,178.813,1.75781,-145.371,352
1569672292,350.602,90.9712,-16.5199,178.813,1.75781,-145.371,352
1569672292,350.602,90.9712,-16.5199,178.813,1.73584,-145.371,352
1569672292,350.602,90.9712,-16.5199,178.813,1.73584,-145.371,352
1569672292,350.602,90.9712,-16.5199,178.813,1.73584,-145.371,352
1569672292,350.602,90.9712,-16.5199,178.813,1.75781,-145.371,352
1569672292,350.602,90.9712,-16.5199,178.813,1.75781,-145.371,352
1569672292,350.602,90.9712,-16.5199,178.813,1.75781,-145.371,352
1569672292,350.602,90.9712,-16.5199,178.813,1.75781,-145.371,352
1569672292,350.602,90.9712,-16.5199,178.813,1.75781,-145.371,352
1569672292,350.602,90.9712,-16.5199,178.813,1.75781,-145.371,352
1569672292,350.602,90.9712,-16.5199,178.813,1.75781,-145.371,356
1569672292,350.602,90.9712,-16.5199,178.813,1.75781,-145.371,356
1569672292,350.602,90.9712,-16.5199,178.813,1.75781,-145.371,356
1569672292,350.602,90.9712,-16.5199,178.813,1.75781,-145.371,356
1569672292,350.602,90.9712,-16.5199,178.813,1.75781,-145.371,356
1569672292,350.602,90.9712,-16.5199,178.813,1.75781,-145.371,356
1569672292,350.602,90.9712,-16.5199,178.813,1.75781,-145.371,356
1569672292,350.602,90.9712,-16.5199,178.813,1.75781,-145.371,356
1569672292,350.602,90.9712,-16.5199,178.813,1.75781,-145.371,356
1569672292,350.602,90.9712,-16.5199,178.813,1.75781,-145.371,356
1569672292,350.602,90.9712,-16.5199,178.813,1.75781,-145.371,356
1569672292,350.602,90.9712,-16.5199,178.813,1.75781,-145.371,356
1569672292,350.602,90.9712,-16.5199,178.813,1.75781,-145.371,356
1569672292,350.602,90.9712,-16.5199,178.813,1.75781,-145.371,356
1569672292,350.602,90.9712,-16.5199,178.813,1.75781,-145.371,356
1569672292,350.602,90.9712,-16.5199,178.813,1.75781,-145.371,356
1569672292,350.602,90.9712,-16.5199,178.813,1.75781,-145.371,356
1569672292,350.602,90.9712,-16.4083,178.792,1.75781,-145.371,356
1569672292,350.602,90.9712,-16.4083,178.792,1.75781,-145.371,356
1569672292,350.602,90.9712,-16.4083,178.792,1.75781,-145.371,356
1569672292,350.713,90.9712,-16.4083,178.792,1.75781,-145.371,356
1569672292,350.713,90.9712,-16.4083,178.792,1.75781,-145.371,360
1569672292,350.713,90.9712,-16.4083,178.813,1.75781,-145.371,360
1569672292,350.713,90.9712,-16.4083,178.813,1.75781,-145.371,360
1569672292,350.713,90.9712,-16.4083,178.813,1.75781,-145.371,360
1569672292,350.713,90.9712,-16.4083,178.813,1.75781,-145.371,360
1569672292,350.713,90.9712,-16.4083,178.813,1.77979,-145.371,360
1569672292,350.713,90.9712,-16.4083,178.813,1.77979,-145.371,360
1569672292,350.713,90.9712,-16.4083,178.813,1.77979,-145.371,360
1569672292,350.713,90.9712,-16.4083,178.813,1.77979,-145.371,360
1569672292,350.713,90.9712,-16.4083,178.813,1.77979,-145.371,360
1569672292,350.713,90.9712,-16.4083,178.813,1.77979,-145.371,360
1569672292,350.713,90.9712,-16.4083,178.813,1.77979,-145.371,360
1569672292,350.713,90.9712,-16.4083,178.813,1.77979,-145.371,360
1569672292,350.713,90.9712,-16.4083,178.813,1.77979,-145.371,356
1569672292,350.713,90.9712,-16.4083,178.813,1.77979,-145.371,356
1569672292,350.713,90.9712,-16.4083,178.813,1.80176,-145.371,356
1569672292,350.713,90.9712,-16.4083,178.813,1.80176,-145.371,356
1569672292,350.713,90.9712,-16.4083,178.813,1.80176,-145.371,356
1569672292,350.602,90.9712,-16.4083,178.813,1.80176,-145.371,356
1569672292,350.602,90.9712,-16.4083,178.813,1.80176,-145.371,356
1569672292,350.602,90.9712,-16.4083,178.813,1.80176,-145.371,356
1569672292,350.602,90.9712,-16.4083,178.835,1.80176,-145.371,360
1569672292,350.602,90.9712,-16.4083,178.835,1.77979,-145.371,360
1569672293,350.602,90.9712,-16.4083,178.835,1.77979,-145.371,360
1569672293,350.602,90.9712,-16.4083,178.835,1.77979,-145.371,360
1569672293,350.602,90.9712,-16.4083,178.835,1.77979,-145.371,360
1569672293,350.602,90.9712,-16.4083,178.835,1.77979,-145.371,364
1569672293,350.602,90.9712,-16.4083,178.835,1.77979,-145.371,364
1569672293,350.602,90.9712,-16.4083,178.835,1.77979,-145.371,364
1569672293,350.602,90.9712,-16.4083,178.835,1.77979,-145.371,364
1569672293,350.602,90.9712,-16.4083,178.835,1.77979,-145.371,364
1569672293,350.602,90.9712,-16.4083,178.835,1.77979,-145.393,364
1569672293,350.602,90.9712,-16.4083,178.835,1.77979,-145.393,364
1569672293,350.602,90.9712,-16.4083,178.813,1.77979,-145.393,364
1569672293,350.602,90.9712,-16.4083,178.813,1.77979,-145.393,368
1569672293,350.602,90.9712,-16.4083,178.813,1.77979,-145.393,368
1569672293,350.602,90.9712,-16.4083,178.813,1.77979,-145.393,368
1569672293,350.602,90.9712,-16.4083,178.813,1.77979,-145.393,368
1569672293,350.602,90.9712,-16.4083,178.813,1.77979,-145.393,368
1569672293,350.602,90.9712,-16.4083,178.813,1.75781,-145.393,368
1569672293,350.602,90.9712,-16.4083,178.813,1.75781,-145.393,368
1569672293,350.602,90.9712,-16.4083,178.813,1.75781,-145.393,372
1569672293,350.602,90.9712,-16.4083,178.813,1.75781,-145.393,372
1569672293,350.602,90.9712,-16.4083,178.813,1.75781,-145.393,372
1569672293,350.602,90.9712,-16.4083,178.813,1.75781,-145.393,372
1569672293,350.602,90.9712,-16.4083,178.813,1.75781,-145.371,372
1569672293,350.49,90.9712,-16.4083,178.835,1.75781,-145.371,372
1569672293,350.49,90.9712,-16.4083,178.835,1.75781,-145.371,372
1569672293,350.49,90.9712,-16.4083,178.835,1.75781,-145.371,376
1569672293,350.49,90.9712,-16.4083,178.835,1.75781,-145.371,376
1569672293,350.49,90.9712,-16.4083,178.835,1.75781,-145.371,376
1569672293,350.49,91.0828,-16.4083,178.835,1.75781,-145.371,376
1569672293,350.49,91.0828,-16.4083,178.835,1.75781,-145.371,376
1569672293,350.49,91.0828,-16.5199,178.835,1.75781,-145.371,376
1569672293,350.49,91.0828,-16.5199,178.835,1.75781,-145.371,376
1569672293,350.49,90.9712,-16.5199,178.835,1.75781,-145.371,376
1569672293,350.49,90.9712,-16.5199,178.835,1.75781,-145.371,376
1569672293,350.49,90.9712,-16.5199,178.835,1.75781,-145.371,376
1569672293,350.49,90.9712,-16.5199,178.835,1.75781,-145.371,376
1569672293,350.49,90.9712,-16.5199,178.813,1.75781,-145.371,376
1569672293,350.49,90.9712,-16.5199,178.813,1.75781,-145.393,376
1569672293,350.49,90.9712,-16.5199,178.813,1.75781,-145.393,376
1569672293,350.49,90.9712,-16.5199,178.813,1.75781,-145.393,376
1569672293,350.49,90.9712,-16.5199,178.813,1.75781,-145.393,376
1569672293,350.49,90.9712,-16.5199,178.813,1.75781,-145.393,376
1569672293,350.49,90.9712,-16.5199,178.813,1.75781,-145.393,376
1569672293,350.49,90.9712,-16.5199,178.813,1.75781,-145.393,372
1569672293,350.49,90.9712,-16.5199,178.813,1.75781,-145.393,372
1569672293,350.49,90.9712,-16.5199,178.813,1.75781,-145.393,372
1569672293,350.49,90.9712,-16.5199,178.813,1.75781,-145.393,372
1569672293,350.49,90.9712,-16.5199,178.813,1.75781,-145.393,372
1569672293,350.49,90.9712,-16.5199,178.813,1.75781,-145.393,372
1569672293,350.49,90.9712,-16.5199,178.813,1.75781,-145.393,372
1569672293,350.49,90.9712,-16.5199,178.813,1.73584,-145.393,372
1569672293,350.49,90.9712,-16.5199,178.813,1.73584,-145.393,372
1569672293,350.49,90.9712,-16.5199,178.813,1.73584,-145.393,372
1569672293,350.49,90.9712,-16.5199,178.813,1.73584,-145.393,372
1569672293,350.49,90.9712,-16.5199,178.813,1.73584,-145.393,372
1569672293,350.49,90.9712,-16.5199,178.813,1.73584,-145.393,372
1569672293,350.49,90.9712,-16.5199,178.813,1.73584,-145.393,372
1569672293,350.49,90.9712,-16.5199,178.813,1.73584,-145.393,372
1569672293,350.49,90.9712,-16.5199,178.813,1.73584,-145.393,372
1569672293,350.49,90.9712,-16.5199,178.813,1.73584,-145.393,372
1569672293,350.49,90.9712,-16.5199,178.813,1.73584,-145.393,372
1569672293,350.49,90.9712,-16.5199,178.813,1.73584,-145.393,372
1569672293,350.49,90.9712,-16.5199,178.813,1.73584,-145.371,372
1569672293,350.49,90.9712,-16.5199,178.813,1.73584,-145.371,372
1569672293,350.49,90.9712,-16.5199,178.813,1.73584,-145.371,372
1569672293,350.49,90.9712,-16.5199,178.813,1.73584,-145.371,372
1569672293,350.49,90.9712,-16.5199,178.813,1.73584,-145.371,372
1569672293,350.49,90.9712,-16.5199,178.813,1.73584,-145.371,372
1569672293,350.49,90.9712,-16.5199,178.813,1.73584,-145.371,376
1569672293,350.49,90.9712,-16.5199,178.813,1.73584,-145.371,376
1569672293,350.49,90.9712,-16.5199,178.813,1.73584,-145.371,376
1569672293,350.49,90.9712,-16.5199,178.813,1.73584,-145.371,376
1569672293,350.49,90.9712,-16.5199,178.813,1.73584,-145.371,376
1569672293,350.49,90.9712,-16.5199,178.813,1.73584,-145.371,376
1569672293,350.49,90.9712,-16.5199,178.813,1.73584,-145.371,380
1569672293,350.49,90.9712,-16.5199,178.813,1.73584,-145.371,380
1569672293,350.49,90.9712,-16.5199,178.813,1.73584,-145.371,380
1569672293,350.49,90.9712,-16.5199,178.813,1.73584,-145.371,380
1569672293,350.49,90.9712,-16.5199,178.813,1.73584,-145.371,380
1569672293,350.49,90.9712,-16.5199,178.813,1.73584,-145.371,380
1569672293,350.49,90.9712,-16.5199,178.813,1.73584,-145.371,380
1569672293,350.49,90.9712,-16.5199,178.813,1.73584,-145.371,380
1569672293,350.49,90.9712,-16.5199,178.813,1.73584,-145.371,384
1569672293,350.49,90.9712,-16.5199,178.813,1.73584,-145.371,384
1569672293,350.49,90.9712,-16.5199,178.813,1.73584,-145.371,384
1569672293,350.49,90.9712,-16.5199,178.813,1.73584,-145.371,384
1569672293,350.49,90.9712,-16.5199,178.813,1.73584,-145.371,384
1569672293,350.49,90.9712,-16.5199,178.813,1.73584,-145.371,384
1569672293,350.49,90.9712,-16.5199,178.813,1.73584,-145.371,388
1569672293,350.49,90.9712,-16.5199,178.813,1.73584,-145.371,388
1569672293,350.49,90.9712,-16.5199,178.813,1.73584,-145.371,388
1569672293,350.49,90.9712,-16.5199,178.813,1.73584,-145.371,388
1569672293,350.602,90.9712,-16.5199,178.813,1.73584,-145.371,388
1569672293,350.602,90.9712,-16.5199,178.813,1.73584,-145.371,388
1569672293,350.602,90.9712,-16.5199,178.813,1.73584,-145.371,392
1569672293,350.602,90.9712,-16.5199,178.813,1.73584,-145.371,392
1569672293,350.602,90.9712,-16.5199,178.813,1.73584,-145.371,392
1569672293,350.602,90.9712,-16.5199,178.813,1.73584,-145.371,392
1569672293,350.602,90.9712,-16.5199,178.813,1.73584,-145.371,392
1569672294,350.602,90.9712,-16.5199,178.813,1.73584,-145.371,392
1569672294,350.602,90.9712,-16.5199,178.813,1.73584,-145.371,392
1569672294,350.602,90.9712,-16.5199,178.813,1.73584,-145.371,392
1569672294,350.602,90.9712,-16.5199,178.813,1.75781,-145.371,392
1569672294,350.602,90.9712,-16.5199,178.813,1.75781,-145.371,392
1569672294,350.602,90.9712,-16.5199,178.813,1.75781,-145.371,392
1569672294,350.602,90.9712,-16.5199,178.813,1.75781,-145.371,392
1569672294,350.602,90.9712,-16.5199,178.813,1.75781,-145.371,392
1569672294,350.602,90.9712,-16.5199,178.813,1.75781,-145.371,392
1569672294,350.602,90.9712,-16.5199,178.813,1.75781,-145.371,388
1569672294,350.602,90.9712,-16.5199,178.813,1.75781,-145.371,388
1569672294,350.602,90.9712,-16.5199,178.813,1.75781,-145.371,388
1569672294,350.602,90.9712,-16.4083,178.813,1.75781,-145.371,388
1569672294,350.602,90.9712,-16.4083,178.813,1.75781,-145.371,388
1569672294,350.602,90.9712,-16.4083,178.813,1.75781,-145.371,388
1569672294,350.602,90.9712,-16.4083,178.813,1.75781,-145.371,388
1569672294,350.602,90.9712,-16.4083,178.813,1.75781,-145.371,388
1569672294,350.602,90.9712,-16.4083,178.813,1.75781,-145.371,388
1569672294,350.602,90.9712,-16.4083,178.813,1.75781,-145.371,388
1569672294,350.602,90.9712,-16.4083,178.813,1.75781,-145.371,388
1569672294,350.602,90.9712,-16.4083,178.813,1.75781,-145.371,388
1569672294,350.602,90.9712,-16.4083,178.792,1.75781,-145.371,388
1569672294,350.602,90.9712,-16.4083,178.792,1.75781,-145.371,388
1569672294,350.602,90.9712,-16.4083,178.792,1.75781,-145.371,384
1569672294,350.602,90.9712,-16.4083,178.792,1.75781,-145.371,384
1569672294,350.602,90.8596,-16.4083,178.792,1.75781,-145.371,384
1569672294,350.602,90.8596,-16.4083,178.792,1.75781,-145.371,384
1569672294,350.602,90.8596,-16.4083,178.792,1.75781,-145.371,384
1569672294,350.602,90.8596,-16.4083,178.792,1.75781,-145.371,384
1569672294,350.602,90.8596,-16.4083,178.792,1.75781,-145.371,384
1569672294,350.602,90.8596,-16.4083,178.792,1.75781,-145.371,384
1569672294,350.602,90.8596,-16.4083,178.792,1.75781,-145.371,380
1569672294,350.602,90.8596,-16.4083,178.792,1.75781,-145.371,380
1569672294,350.602,90.8596,-16.4083,178.792,1.75781,-145.371,380
1569672294,350.602,90.8596,-16.4083,178.792,1.75781,-145.371,380
1569672294,350.602,90.8596,-16.4083,178.792,1.75781,-145.371,380
1569672294,350.602,90.8596,-16.4083,178.792,1.75781,-145.371,380
1569672294,350.602,90.8596,-16.4083,178.792,1.75781,-145.371,380
1569672294,350.602,90.8596,-16.4083,178.792,1.75781,-145.371,380
1569672294,350.602,90.8596,-16.4083,178.792,1.75781,-145.371,380
1569672294,350.602,90.8596,-16.4083,178.792,1.75781,-145.371,380
1569672294,350.602,90.8596,-16.4083,178.792,1.75781,-145.371,380
1569672294,350.602,90.8596,-16.4083,178.792,1.75781,-145.371,380
1569672294,350.602,90.8596,-16.4083,178.792,1.75781,-145.371,380
1569672294,350.602,90.8596,-16.4083,178.792,1.75781,-145.371,380
1569672294,350.602,90.8596,-16.4083,178.792,1.75781,-145.371,380
1569672294,350.602,90.8596,-16.5199,178.792,1.75781,-145.371,380
1569672294,350.602,90.8596,-16.5199,178.792,1.75781,-145.371,380
1569672294,350.602,90.8596,-16.5199,178.792,1.75781,-145.371,380
1569672294,350.602,90.8596,-16.5199,178.792,1.75781,-145.371,384
1569672294,350.602,90.8596,-16.5199,178.813,1.75781,-145.371,384
1569672294,350.602,90.8596,-16.5199,178.813,1.75781,-145.371,384
1569672294,350.602,90.8596,-16.5199,178.813,1.75781,-145.371,384
1569672294,350.602,90.8596,-16.5199,178.813,1.75781,-145.371,384
1569672294,350.602,90.8596,-16.5199,178.813,1.73584,-145.371,384
1569672294,350.602,90.8596,-16.5199,178.813,1.73584,-145.371,384
1569672294,350.602,90.8596,-16.5199,178.813,1.73584,-145.371,384
1569672294,350.602,90.8596,-16.5199,178.813,1.73584,-145.371,384
1569672294,350.602,90.8596,-16.5199,178.813,1.73584,-145.371,384
1569672294,350.602,90.8596,-16.5199,178.813,1.73584,-145.371,384
1569672294,350.602,90.8596,-16.5199,178.813,1.73584,-145.371,384
1569672294,350.602,90.8596,-16.5199,178.813,1.73584,-145.371,384
1569672294,350.602,90.8596,-16.5199,178.813,1.73584,-145.371,384
1569672294,350.602,90.8596,-16.5199,178.813,1.73584,-145.371,384
1569672294,350.602,90.8596,-16.5199,178.813,1.73584,-145.371,384
1569672294,350.602,90.8596,-16.5199,178.792,1.73584,-145.371,388
1569672294,350.602,90.8596,-16.5199,178.792,1.75781,-145.371,388
1569672294,350.602,90.8596,-16.5199,178.792,1.75781,-145.371,388
1569672294,350.602,90.8596,-16.5199,178.792,1.75781,-145.371,388
1569672294,350.602,90.8596,-16.5199,178.792,1.75781,-145.371,392
1569672294,350.602,90.8596,-16.5199,178.792,1.75781,-145.371,392
1569672294,350.602,90.8596,-16.5199,178.792,1.75781,-145.371,392
1569672294,350.602,90.8596,-16.5199,178.792,1.75781,-145.371,392
1569672294,350.602,90.8596,-16.5199,178.792,1.75781,-145.371,392
1569672294,350.602,90.8596,-16.5199,178.792,1.75781,-145.371,392
1569672294,350.602,90.8596,-16.5199,178.792,1.75781,-145.371,392
1569672294,350.602,90.8596,-16.5199,178.792,1.75781,-145.371,392
1569672294,350.602,90.8596,-16.5199,178.792,1.75781,-145.371,392
1569672294,350.602,90.8596,-16.5199,178.792,1.75781,-145.371,392
1569672294,350.602,90.8596,-16.5199,178.792,1.75781,-145.371,392
1569672294,350.602,90.8596,-16.5199,178.792,1.75781,-145.371,392
1569672294,350.602,90.8596,-16.5199,178.792,1.75781,-145.371,392
1569672294,350.602,90.8596,-16.5199,178.792,1.75781,-145.371,388
1569672294,350.602,90.8596,-16.5199,178.792,1.75781,-145.371,388
1569672294,350.602,90.8596,-16.5199,178.792,1.75781,-145.371,388
1569672294,350.602,90.8596,-16.5199,178.792,1.75781,-145.371,388
1569672294,350.602,90.8596,-16.5199,178.792,1.75781,-145.371,384
1569672294,350.602,90.8596,-16.5199,178.792,1.75781,-145.371,384
1569672294,350.602,90.8596,-16.5199,178.792,1.75781,-145.371,384
1569672294,350.602,90.8596,-16.4083,178.792,1.75781,-145.371,380
1569672294,350.602,90.8596,-16.4083,178.792,1.75781,-145.371,380
1569672294,350.602,90.8596,-16.4083,178.792,1.75781,-145.371,380
1569672294,350.602,90.8596,-16.4083,178.792,1.75781,-145.371,376
1569672294,350.602,90.8596,-16.4083,178.792,1.75781,-145.371,376
1569672294,350.602,90.8596,-16.4083,178.792,1.75781,-145.371,376
1569672294,350.49,90.9712,-16.4083,178.792,1.75781,-145.371,376
1569672294,350.49,90.9712,-16.4083,178.792,1.75781,-145.371,376
1569672294,350.49,90.9712,-16.4083,178.792,1.75781,-145.371,372
1569672294,350.49,90.9712,-16.4083,178.792,1.75781,-145.371,372
1569672294,350.49,90.9712,-16.4083,178.792,1.75781,-145.371,372
1569672295,350.49,90.9712,-16.4083,178.792,1.75781,-145.371,372
1569672295,350.49,90.9712,-16.4083,178.792,1.75781,-145.371,372
1569672295,350.602,90.9712,-16.4083,178.792,1.75781,-145.371,372
1569672295,350.602,90.9712,-16.4083,178.792,1.75781,-145.371,372
1569672295,350.602,90.9712,-16.4083,178.792,1.75781,-145.371,372
1569672295,350.602,90.9712,-16.4083,178.792,1.75781,-145.371,372
1569672295,350.602,90.8596,-16.4083,178.792,1.75781,-145.371,372
1569672295,350.602,90.8596,-16.4083,178.792,1.75781,-145.371,372
1569672295,350.602,90.8596,-16.4083,178.792,1.75781,-145.371,372
1569672295,350.602,90.8596,-16.5199,178.792,1.75781,-145.371,372
1569672295,350.49,90.8596,-16.5199,178.792,1.75781,-145.371,372
1569672295,350.49,90.8596,-16.5199,178.792,1.75781,-145.371,372
1569672295,350.49,90.8596,-16.5199,178.792,1.75781,-145.371,372
1569672295,350.49,90.8596,-16.5199,178.792,1.75781,-145.371,372
1569672295,350.49,90.8596,-16.5199,178.792,1.75781,-145.371,372
1569672295,350.49,90.8596,-16.5199,178.792,1.75781,-145.371,372
1569672295,350.602,90.9712,-16.5199,178.792,1.75781,-145.393,372
1569672295,350.602,90.9712,-16.5199,178.813,1.75781,-145.393,372
1569672295,350.602,90.9712,-16.4083,178.813,1.75781,-145.393,372
1569672295,350.602,90.9712,-16.4083,178.813,1.75781,-145.393,372
1569672295,350.602,90.9712,-16.4083,178.813,1.77979,-145.393,372
1569672295,350.602,90.9712,-16.4083,178.813,1.77979,-145.393,372
1569672295,350.602,90.9712,-16.4083,178.813,1.77979,-145.393,372
1569672295,350.602,90.9712,-16.4083,178.813,1.77979,-145.393,372
1569672295,350.602,90.9712,-16.4083,178.813,1.77979,-145.393,372
1569672295,350.602,90.9712,-16.4083,178.813,1.77979,-145.371,376
1569672295,350.602,90.9712,-16.4083,178.813,1.77979,-145.371,372
1569672295,350.602,90.9712,-16.4083,178.813,1.77979,-145.371,372
1569672295,350.602,90.9712,-16.4083,178.813,1.77979,-145.371,372
1569672295,350.602,90.9712,-16.4083,178.813,1.77979,-145.371,372
1569672295,350.602,90.9712,-16.4083,178.813,1.77979,-145.371,372
1569672295,350.602,90.9712,-16.4083,178.813,1.77979,-145.371,372
1569672295,350.602,90.9712,-16.4083,178.813,1.77979,-145.371,372
1569672295,350.602,90.9712,-16.4083,178.813,1.77979,-145.371,372
1569672295,350.602,90.9712,-16.4083,178.813,1.77979,-145.371,372
1569672295,350.602,90.9712,-16.4083,178.813,1.75781,-145.371,372
1569672295,350.602,90.9712,-16.4083,178.813,1.75781,-145.371,372
1569672295,350.602,90.9712,-16.4083,178.792,1.75781,-145.371,372
1569672295,350.602,90.9712,-16.4083,178.792,1.75781,-145.371,372
1569672295,350.602,90.9712,-16.4083,178.792,1.75781,-145.371,376
1569672295,350.602,90.9712,-16.5199,178.792,1.75781,-145.371,376
1569672295,350.602,90.9712,-16.5199,178.792,1.75781,-145.371,376
1569672295,350.602,90.8596,-16.5199,178.792,1.75781,-145.371,376
1569672295,350.602,90.8596,-16.5199,178.792,1.75781,-145.371,376
1569672295,350.49,90.8596,-16.5199,178.792,1.75781,-145.371,376
1569672295,350.49,90.8596,-16.5199,178.792,1.75781,-145.371,380
1569672295,350.602,90.8596,-16.5199,178.792,1.75781,-145.371,380
1569672295,350.602,90.8596,-16.4083,178.77,1.75781,-145.371,380
1569672295,350.602,90.8596,-16.4083,178.77,1.75781,-145.371,380
1569672295,350.602,90.8596,-16.4083,178.77,1.75781,-145.371,380
1569672295,350.602,90.8596,-16.4083,178.77,1.75781,-145.371,380
1569672295,350.602,90.8596,-16.4083,178.77,1.75781,-145.371,380
1569672295,350.602,90.8596,-16.4083,178.77,1.75781,-145.371,380
1569672295,350.602,90.8596,-16.4083,178.77,1.75781,-145.371,380
1569672295,350.602,90.8596,-16.5199,178.77,1.75781,-145.371,380
1569672295,350.602,90.8596,-16.5199,178.77,1.75781,-145.371,380
1569672295,350.602,90.8596,-16.5199,178.792,1.75781,-145.371,380
1569672295,350.602,90.8596,-16.5199,178.792,1.75781,-145.371,380
1569672295,350.602,90.8596,-16.5199,178.792,1.75781,-145.371,380
1569672295,350.602,90.8596,-16.5199,178.792,1.75781,-145.371,380
1569672295,350.602,90.8596,-16.5199,178.792,1.75781,-145.371,380
1569672295,350.602,90.8596,-16.5199,178.792,1.75781,-145.371,380
1569672295,350.602,90.8596,-16.4083,178.792,1.75781,-145.371,380
1569672295,350.602,90.8596,-16.4083,178.792,1.75781,-145.371,380
1569672295,350.602,90.8596,-16.4083,178.792,1.75781,-145.371,376
1569672295,350.602,90.8596,-16.4083,178.792,1.75781,-145.371,376
1569672295,350.602,90.8596,-16.4083,178.792,1.75781,-145.371,376
1569672295,350.602,90.8596,-16.4083,178.792,1.77979,-145.371,376
1569672295,350.602,90.8596,-16.4083,178.792,1.77979,-145.371,376
1569672295,350.602,90.8596,-16.4083,178.792,1.77979,-145.371,376
1569672295,350.602,90.8596,-16.4083,178.792,1.77979,-145.371,372
1569672295,350.602,90.8596,-16.4083,178.792,1.77979,-145.371,372
1569672295,350.602,90.8596,-16.4083,178.792,1.77979,-145.371,372
1569672295,350.602,90.9712,-16.4083,178.792,1.77979,-145.371,372
1569672295,350.602,90.9712,-16.4083,178.792,1.77979,-145.371,372
1569672295,350.602,90.9712,-16.4083,178.792,1.77979,-145.371,372
1569672295,350.602,90.9712,-16.4083,178.792,1.77979,-145.349,372
1569672295,350.602,90.9712,-16.4083,178.792,1.77979,-145.349,372
1569672295,350.602,90.9712,-16.4083,178.813,1.77979,-145.349,372
1569672295,350.602,90.9712,-16.4083,178.813,1.77979,-145.349,372
1569672295,350.602,90.9712,-16.4083,178.813,1.77979,-145.349,368
1569672295,350.602,90.9712,-16.4083,178.813,1.77979,-145.349,368
1569672295,350.602,90.9712,-16.4083,178.813,1.77979,-145.371,368
1569672295,350.602,90.9712,-16.4083,178.813,1.77979,-145.371,368
1569672295,350.602,90.9712,-16.4083,178.813,1.75781,-145.371,368
1569672295,350.602,90.9712,-16.4083,178.813,1.75781,-145.371,368
1569672295,350.602,90.9712,-16.5199,178.813,1.75781,-145.371,368
1569672295,350.602,90.9712,-16.5199,178.813,1.75781,-145.371,368
1569672295,350.602,90.9712,-16.5199,178.813,1.75781,-145.371,368
1569672295,350.602,90.9712,-16.5199,178.813,1.75781,-145.371,368
1569672295,350.602,90.9712,-16.5199,178.813,1.75781,-145.371,368
1569672295,350.602,90.9712,-16.5199,178.813,1.75781,-145.371,368
1569672295,350.602,90.9712,-16.5199,178.813,1.75781,-145.371,368
1569672295,350.602,90.9712,-16.5199,178.813,1.75781,-145.371,368
1569672295,350.602,90.9712,-16.5199,178.813,1.75781,-145.371,368
1569672295,350.602,90.9712,-16.5199,178.813,1.75781,-145.371,368
1569672295,350.602,90.9712,-16.4083,178.813,1.75781,-145.371,372
1569672295,350.602,90.9712,-16.4083,178.813,1.75781,-145.371,372
1569672295,350.602,90.9712,-16.4083,178.813,1.75781,-145.371,372
1569672295,350.602,90.9712,-16.4083,178.813,1.77979,-145.371,372
1569672296,350.602,90.9712,-16.4083,178.813,1.77979,-145.371,372
1569672296,350.602,90.9712,-16.4083,178.813,1.77979,-145.371,372
1569672296,350.602,90.9712,-16.4083,178.813,1.75781,-145.371,372
1569672296,350.602,90.9712,-16.4083,178.835,1.75781,-145.371,372
1569672296,350.602,90.9712,-16.5199,178.835,1.75781,-145.371,372
1569672296,350.602,90.9712,-16.5199,178.813,1.75781,-145.371,368
1569672296,350.602,90.9712,-16.5199,178.813,1.75781,-145.371,368
1569672296,350.602,90.9712,-16.5199,178.813,1.75781,-145.371,368
1569672296,350.602,90.9712,-16.5199,178.813,1.75781,-145.371,368
1569672296,350.602,90.9712,-16.5199,178.813,1.75781,-145.371,368
1569672296,350.602,90.9712,-16.5199,178.813,1.75781,-145.371,368
1569672296,350.602,90.9712,-16.5199,178.813,1.75781,-145.371,368
1569672296,350.602,90.9712,-16.5199,178.813,1.75781,-145.349,368
1569672296,350.602,90.9712,-16.5199,178.813,1.75781,-145.349,368
1569672296,350.602,90.9712,-16.5199,178.813,1.75781,-145.349,368
1569672296,350.602,90.9712,-16.5199,178.813,1.75781,-145.349,368
1569672296,350.602,90.9712,-16.5199,178.813,1.75781,-145.349,368
1569672296,350.602,90.9712,-16.5199,178.813,1.75781,-145.349,372
1569672296,350.602,90.9712,-16.5199,178.813,1.75781,-145.349,372
1569672296,350.602,90.9712,-16.5199,178.813,1.75781,-145.349,372
1569672296,350.602,90.9712,-16.5199,178.813,1.73584,-145.349,372
1569672296,350.602,90.9712,-16.5199,178.813,1.73584,-145.349,372
1569672296,350.602,90.9712,-16.5199,178.813,1.73584,-145.349,372
1569672296,350.602,90.9712,-16.5199,178.813,1.73584,-145.349,372
1569672296,350.602,90.9712,-16.5199,178.813,1.73584,-145.349,372
1569672296,350.602,90.9712,-16.5199,178.813,1.73584,-145.349,372
1569672296,350.602,90.9712,-16.5199,178.813,1.73584,-145.349,372
1569672296,350.602,90.9712,-16.5199,178.813,1.73584,-145.349,372
1569672296,350.602,90.9712,-16.5199,178.813,1.73584,-145.349,372
1569672296,350.602,90.9712,-16.5199,178.792,1.75781,-145.349,372
1569672296,350.602,90.8596,-16.5199,178.792,1.75781,-145.349,372
1569672296,350.602,90.8596,-16.5199,178.792,1.75781,-145.349,372
1569672296,350.602,90.8596,-16.5199,178.792,1.75781,-145.349,372
1569672296,350.602,90.8596,-16.5199,178.792,1.75781,-145.349,372
1569672296,350.602,90.8596,-16.5199,178.792,1.75781,-145.349,372
1569672296,350.602,90.8596,-16.5199,178.792,1.75781,-145.349,376
1569672296,350.602,90.8596,-16.5199,178.792,1.75781,-145.349,376
1569672296,350.602,90.8596,-16.5199,178.792,1.75781,-145.349,376
1569672296,350.602,90.8596,-16.5199,178.792,1.75781,-145.371,376
1569672296,350.602,90.9712,-16.5199,178.813,1.75781,-145.371,376
1569672296,350.602,90.9712,-16.5199,178.813,1.75781,-145.371,376
1569672296,350.49,90.9712,-16.5199,178.813,1.75781,-145.371,376
1569672296,350.49,90.9712,-16.5199,178.813,1.75781,-145.371,376
1569672296,350.49,90.9712,-16.5199,178.813,1.75781,-145.371,376
1569672296,350.49,90.9712,-16.5199,178.813,1.75781,-145.371,376
1569672296,350.49,90.9712,-16.5199,178.813,1.75781,-145.371,376
1569672296,350.49,90.9712,-16.5199,178.813,1.75781,-145.371,376
1569672296,350.49,90.9712,-16.5199,178.813,1.75781,-145.371,376
1569672296,350.602,90.9712,-16.5199,178.813,1.75781,-145.371,376
1569672296,350.602,90.9712,-16.5199,178.813,1.75781,-145.371,376
1569672296,350.602,90.9712,-16.5199,178.813,1.75781,-145.371,376
1569672296,350.602,90.9712,-16.4083,178.813,1.75781,-145.371,376
1569672296,350.602,90.9712,-16.4083,178.813,1.75781,-145.393,376
1569672296,350.602,90.9712,-16.4083,178.813,1.75781,-145.393,376
1569672296,350.602,90.9712,-16.4083,178.813,1.75781,-145.393,376
1569672296,350.602,90.9712,-16.4083,178.813,1.77979,-145.393,376
1569672296,350.602,90.9712,-16.4083,178.813,1.77979,-145.393,376
1569672296,350.602,90.9712,-16.4083,178.813,1.77979,-145.393,376
1569672296,350.602,90.9712,-16.4083,178.813,1.77979,-145.393,376
1569672296,350.602,90.9712,-16.4083,178.813,1.77979,-145.393,376
1569672296,350.602,90.9712,-16.4083,178.813,1.77979,-145.393,372
1569672296,350.602,90.9712,-16.4083,178.813,1.77979,-145.393,372
1569672296,350.602,90.9712,-16.4083,178.813,1.77979,-145.371,372
1569672296,350.602,90.9712,-16.4083,178.813,1.75781,-145.371,372
1569672296,350.602,90.9712,-16.4083,178.813,1.75781,-145.371,368
1569672296,350.602,90.9712,-16.4083,178.813,1.75781,-145.371,368
1569672296,350.602,90.9712,-16.5199,178.813,1.75781,-145.371,368
1569672296,350.602,90.9712,-16.5199,178.813,1.75781,-145.371,368
1569672296,350.602,90.9712,-16.5199,178.813,1.75781,-145.371,368
1569672296,350.602,90.9712,-16.5199,178.813,1.75781,-145.371,368
1569672296,350.602,90.9712,-16.5199,178.813,1.75781,-145.371,368
1569672296,350.602,90.9712,-16.5199,178.813,1.75781,-145.371,368
1569672296,350.602,90.9712,-16.5199,178.813,1.75781,-145.371,368
1569672296,350.602,90.9712,-16.5199,178.813,1.75781,-145.371,372
1569672296,350.602,90.9712,-16.5199,178.813,1.75781,-145.371,372
1569672296,350.602,90.9712,-16.5199,178.792,1.75781,-145.371,372
1569672296,350.602,90.9712,-16.5199,178.792,1.75781,-145.371,372
1569672296,350.602,90.9712,-16.5199,178.792,1.75781,-145.371,372
1569672301,327.608,115.416,-16.6315,178.77,1.69189,-145.129,324
1569672301,327.608,115.416,-16.6315,178.748,1.69189,-145.129,324
1569672301,327.496,115.416,-16.6315,178.748,1.69189,-145.129,324
1569672301,327.496,115.416,-16.6315,178.748,1.69189,-145.129,324
1569672301,327.496,115.416,-16.6315,178.748,1.69189,-145.129,324
1569672301,327.496,115.416,-16.6315,178.748,1.69189,-145.129,328
1569672301,327.496,115.416,-16.5199,178.748,1.69189,-145.129,328
1569672301,327.496,115.416,-16.6315,178.748,1.69189,-145.129,328
1569672301,327.496,115.416,-16.6315,178.748,1.69189,-145.129,328
1569672301,327.496,115.305,-16.6315,178.748,1.69189,-145.129,332
1569672301,327.608,115.305,-16.6315,178.748,1.69189,-145.129,332
1569672301,327.608,115.305,-16.6315,178.748,1.69189,-145.129,332
1569672301,327.608,115.305,-16.6315,178.748,1.69189,-145.129,332
1569672301,327.608,115.305,-16.6315,178.748,1.69189,-145.129,332
1569672301,327.608,115.305,-16.6315,178.748,1.69189,-145.129,332
1569672301,327.608,115.305,-16.6315,178.748,1.69189,-145.129,332
1569672301,327.608,115.305,-16.6315,178.748,1.69189,-145.129,332
1569672301,327.608,115.305,-16.6315,178.748,1.69189,-145.129,332
1569672301,327.608,115.305,-16.6315,178.748,1.69189,-145.129,332
1569672301,327.608,115.416,-16.6315,178.748,1.69189,-145.129,332
1569672301,327.608,115.416,-16.6315,178.748,1.69189,-145.129,328
1569672301,327.608,115.416,-16.5199,178.748,1.69189,-145.129,328
1569672301,327.608,115.416,-16.5199,178.77,1.69189,-145.129,328
1569672301,327.608,115.416,-16.5199,178.77,1.69189,-145.129,324
1569672301,327.608,115.416,-16.5199,178.77,1.69189,-145.129,324
1569672301,327.608,115.416,-16.5199,178.77,1.69189,-145.129,324
1569672301,327.608,115.416,-16.5199,178.77,1.69189,-145.129,324
1569672301,327.608,115.416,-16.5199,178.77,1.69189,-145.129,324
1569672301,327.608,115.416,-16.5199,178.77,1.69189,-145.129,320
1569672301,327.608,115.528,-16.5199,178.792,1.69189,-145.129,320
1569672301,327.608,115.528,-16.6315,178.792,1.69189,-145.129,320
1569672301,327.608,115.528,-16.6315,178.792,1.69189,-145.129,320
1569672301,327.608,115.416,-16.6315,178.77,1.69189,-145.129,320
1569672301,327.608,115.416,-16.6315,178.77,1.69189,-145.129,320
1569672301,327.608,115.416,-16.6315,178.77,1.69189,-145.129,324
1569672301,327.608,115.416,-16.6315,178.77,1.69189,-145.129,324
1569672301,327.608,115.416,-16.6315,178.77,1.66992,-145.129,324
1569672301,327.608,115.416,-16.6315,178.77,1.66992,-145.129,324
1569672301,327.608,115.416,-16.6315,178.77,1.66992,-145.129,324
1569672301,327.608,115.416,-16.6315,178.77,1.66992,-145.129,324
1569672301,327.608,115.416,-16.6315,178.77,1.66992,-145.129,324
1569672301,327.608,115.416,-16.6315,178.77,1.66992,-145.129,324
1569672301,327.608,115.416,-16.6315,178.77,1.66992,-145.129,324
1569672301,327.608,115.416,-16.6315,178.77,1.66992,-145.129,324
1569672301,327.608,115.416,-16.6315,178.77,1.64795,-145.129,324
1569672301,327.608,115.416,-16.6315,178.77,1.64795,-145.129,324
1569672301,327.608,115.416,-16.6315,178.77,1.64795,-145.129,324
1569672301,327.608,115.416,-16.6315,178.77,1.66992,-145.129,324
1569672301,327.608,115.416,-16.6315,178.77,1.66992,-145.129,320
1569672301,327.608,115.416,-16.6315,178.77,1.66992,-145.129,320
1569672301,327.608,115.416,-16.6315,178.77,1.66992,-145.129,320
1569672301,327.608,115.416,-16.6315,178.77,1.66992,-145.129,320
1569672301,327.608,115.416,-16.6315,178.77,1.66992,-145.129,320
1569672301,327.608,115.416,-16.6315,178.77,1.66992,-145.129,320
1569672301,327.608,115.416,-16.6315,178.77,1.66992,-145.129,320
1569672301,327.608,115.416,-16.6315,178.77,1.66992,-145.129,320
1569672301,327.608,115.416,-16.6315,178.77,1.66992,-145.129,320
1569672301,327.608,115.416,-16.6315,178.77,1.66992,-145.129,320
1569672301,327.608,115.416,-16.6315,178.77,1.66992,-145.129,320
1569672301,327.608,115.416,-16.6315,178.77,1.66992,-145.129,320
1569672301,327.608,115.416,-16.6315,178.77,1.66992,-145.129,320
1569672301,327.608,115.416,-16.6315,178.77,1.66992,-145.129,320
1569672301,327.608,115.416,-16.6315,178.77,1.66992,-145.129,320
1569672301,327.608,115.416,-16.6315,178.77,1.66992,-145.129,320
1569672301,327.608,115.416,-16.6315,178.77,1.66992,-145.129,320
1569672301,327.608,115.416,-16.6315,178.77,1.66992,-145.129,324
1569672301,327.608,115.416,-16.6315,178.77,1.66992,-145.129,324
1569672301,327.608,115.416,-16.6315,178.77,1.66992,-145.129,324
1569672301,327.608,115.416,-16.6315,178.77,1.66992,-145.129,324
1569672301,327.608,115.416,-16.6315,178.77,1.66992,-145.129,324
1569672301,327.608,115.416,-16.6315,178.77,1.66992,-145.129,324
1569672301,327.608,115.416,-16.6315,178.77,1.66992,-145.129,328
1569672301,327.608,115.416,-16.6315,178.792,1.66992,-145.129,328
1569672301,327.608,115.416,-16.6315,178.792,1.66992,-145.129,328
1569672301,327.608,115.416,-16.6315,178.792,1.66992,-145.129,328
1569672301,327.608,115.416,-16.6315,178.792,1.66992,-145.129,332
1569672301,327.608,115.416,-16.6315,178.792,1.66992,-145.151,332
1569672301,327.608,115.416,-16.6315,178.792,1.66992,-145.151,332
1569672301,327.608,115.416,-16.6315,178.792,1.66992,-145.151,332
1569672301,327.608,115.416,-16.6315,178.792,1.66992,-145.151,332
1569672301,327.608,115.416,-16.6315,178.792,1.66992,-145.151,332
1569672301,327.608,115.416,-16.6315,178.77,1.66992,-145.151,332
1569672301,327.608,115.416,-16.6315,178.77,1.66992,-145.151,332
1569672301,327.608,115.416,-16.6315,178.77,1.66992,-145.151,332
1569672301,327.608,115.416,-16.6315,178.77,1.66992,-145.151,332
1569672301,327.608,115.416,-16.6315,178.77,1.66992,-145.151,332
1569672301,327.608,115.416,-16.6315,178.77,1.66992,-145.151,332
1569672301,327.608,115.416,-16.6315,178.77,1.66992,-145.151,332
1569672301,327.608,115.416,-16.6315,178.77,1.66992,-145.151,332
1569672302,327.608,115.416,-16.6315,178.77,1.66992,-145.151,332
1569672302,327.608,115.416,-16.6315,178.77,1.66992,-145.151,328
1569672302,327.608,115.416,-16.6315,178.792,1.66992,-145.151,328
1569672302,327.608,115.416,-16.6315,178.792,1.66992,-145.151,328
1569672302,327.608,115.528,-16.6315,178.792,1.66992,-145.151,328
1569672302,327.608,115.528,-16.6315,178.792,1.66992,-145.151,328
1569672302,327.608,115.528,-16.6315,178.792,1.66992,-145.151,328
1569672302,327.608,115.528,-16.6315,178.792,1.66992,-145.151,332
1569672302,327.608,115.528,-16.6315,178.792,1.66992,-145.151,332
1569672302,327.608,115.528,-16.6315,178.792,1.66992,-145.151,332
1569672302,327.608,115.528,-16.6315,178.792,1.66992,-145.151,332
1569672302,327.496,115.528,-16.6315,178.792,1.66992,-145.151,332
1569672302,327.496,115.528,-16.6315,178.792,1.66992,-145.151,332
1569672302,327.496,115.528,-16.6315,178.792,1.66992,-145.151,332
1569672302,327.496,115.528,-16.6315,178.792,1.66992,-145.151,332
1569672302,327.496,115.528,-16.6315,178.792,1.66992,-145.151,332
1569672302,327.496,115.528,-16.6315,178.792,1.66992,-145.151,332
1569672302,327.608,115.528,-16.6315,178.792,1.66992,-145.151,332
1569672302,327.496,115.528,-16.6315,178.792,1.66992,-145.151,332
1569672302,327.496,115.528,-16.6315,178.792,1.66992,-145.151,332
1569672302,327.608,115.528,-16.6315,178.792,1.66992,-145.151,332
1569672302,327.608,115.528,-16.6315,178.792,1.66992,-145.151,336
1569672302,327.608,115.528,-16.6315,178.792,1.66992,-145.151,336
1569672302,327.608,115.528,-16.6315,178.792,1.66992,-145.151,336
1569672302,327.608,115.528,-16.6315,178.792,1.66992,-145.151,336
1569672302,327.608,115.528,-16.6315,178.792,1.66992,-145.151,336
1569672302,327.608,115.528,-16.6315,178.792,1.66992,-145.151,336
1569672302,327.608,115.528,-16.6315,178.792,1.66992,-145.151,336
1569672302,327.608,115.528,-16.6315,178.792,1.66992,-145.151,336
1569672302,327.608,115.528,-16.6315,178.792,1.66992,-145.151,336
1569672302,327.608,115.528,-16.6315,178.792,1.66992,-145.151,336
1569672302,327.608,115.528,-16.6315,178.792,1.66992,-145.151,332
1569672302,327.608,115.528,-16.6315,178.792,1.66992,-145.151,332
1569672302,327.608,115.528,-16.6315,178.792,1.66992,-145.151,332
1569672302,327.608,115.528,-16.6315,178.792,1.64795,-145.151,332
1569672302,327.608,115.528,-16.6315,178.792,1.64795,-145.151,332
1569672302,327.608,115.528,-16.6315,178.792,1.64795,-145.151,332
1569672302,327.608,115.528,-16.6315,178.792,1.66992,-145.151,332
1569672302,327.608,115.528,-16.6315,178.792,1.66992,-145.151,328
1569672302,327.608,115.416,-16.6315,178.792,1.66992,-145.151,328
1569672302,327.608,115.416,-16.6315,178.77,1.66992,-145.151,328
1569672302,327.608,115.416,-16.6315,178.77,1.66992,-145.151,328
1569672302,327.608,115.416,-16.6315,178.77,1.66992,-145.151,328
1569672302,327.608,115.416,-16.6315,178.77,1.66992,-145.151,328
1569672302,327.608,115.416,-16.6315,178.77,1.66992,-145.151,328
1569672302,327.608,115.416,-16.6315,178.77,1.66992,-145.151,328
1569672302,327.608,115.416,-16.6315,178.77,1.66992,-145.151,328
1569672302,327.608,115.416,-16.6315,178.77,1.66992,-145.151,328
1569672302,327.608,115.416,-16.6315,178.77,1.66992,-145.151,328
1569672302,327.608,115.416,-16.6315,178.77,1.66992,-145.151,328
1569672302,327.608,115.416,-16.6315,178.77,1.66992,-145.151,328
1569672302,327.608,115.416,-16.6315,178.748,1.66992,-145.151,328
1569672302,327.608,115.416,-16.6315,178.748,1.66992,-145.151,324
1569672302,327.608,115.416,-16.6315,178.748,1.66992,-145.151,324
1569672302,327.608,115.416,-16.6315,178.748,1.66992,-145.151,324
1569672302,327.608,115.416,-16.6315,178.748,1.66992,-145.151,324
1569672302,327.608,115.416,-16.6315,178.748,1.66992,-145.151,324
1569672302,327.608,115.416,-16.6315,178.748,1.66992,-145.151,324
1569672302,327.608,115.416,-16.6315,178.77,1.66992,-145.129,324
1569672302,327.608,115.416,-16.6315,178.77,1.66992,-145.129,324
1569672302,327.608,115.416,-16.6315,178.77,1.66992,-145.129,324
1569672302,327.608,115.416,-16.6315,178.77,1.66992,-145.129,324
1569672302,327.608,115.416,-16.7432,178.77,1.66992,-145.129,324
1569672302,327.608,115.416,-16.7432,178.77,1.64795,-145.129,324
1569672302,327.608,115.416,-16.7432,178.77,1.64795,-145.129,320
1569672302,327.608,115.416,-16.7432,178.748,1.64795,-145.129,320
1569672302,327.608,115.416,-16.7432,178.748,1.64795,-145.129,320
1569672302,327.608,115.416,-16.7432,178.748,1.64795,-145.129,320
1569672302,327.608,115.416,-16.7432,178.748,1.64795,-145.129,320
1569672302,327.608,115.416,-16.7432,178.748,1.62598,-145.129,320
1569672302,327.608,115.416,-16.7432,178.748,1.62598,-145.129,320
1569672302,327.608,115.416,-16.7432,178.748,1.62598,-145.129,320
1569672302,327.608,115.416,-16.7432,178.748,1.62598,-145.129,320
1569672302,327.608,115.416,-16.7432,178.748,1.62598,-145.129,320
1569672302,327.608,115.416,-16.7432,178.748,1.62598,-145.129,320
1569672302,327.608,115.416,-16.7432,178.748,1.62598,-145.129,320
1569672302,327.608,115.416,-16.7432,178.748,1.62598,-145.129,320
1569672302,327.608,115.416,-16.7432,178.748,1.62598,-145.129,320
1569672302,327.608,115.416,-16.7432,178.748,1.62598,-145.129,320
1569672302,327.608,115.416,-16.7432,178.748,1.62598,-145.129,320
1569672302,327.608,115.416,-16.7432,178.748,1.62598,-145.129,320
1569672302,327.608,115.416,-16.7432,178.748,1.64795,-145.129,320
1569672302,327.608,115.416,-16.7432,178.748,1.64795,-145.129,320
1569672302,327.608,115.416,-16.7432,178.748,1.64795,-145.129,320
1569672302,327.608,115.416,-16.7432,178.748,1.64795,-145.129,320
1569672302,327.608,115.416,-16.7432,178.748,1.64795,-145.129,320
1569672302,327.608,115.416,-16.7432,178.748,1.64795,-145.129,320
1569672302,327.608,115.416,-16.7432,178.77,1.64795,-145.129,324
1569672302,327.608,115.416,-16.7432,178.77,1.64795,-145.129,324
1569672302,327.608,115.416,-16.7432,178.77,1.64795,-145.129,324
1569672302,327.608,115.416,-16.7432,178.77,1.64795,-145.129,324
1569672302,327.608,115.416,-16.7432,178.77,1.64795,-145.129,328
1569672302,327.608,115.416,-16.7432,178.77,1.64795,-145.129,328
1569672302,327.608,115.416,-16.7432,178.77,1.64795,-145.129,328
1569672302,327.608,115.416,-16.7432,178.77,1.64795,-145.129,328
1569672302,327.608,115.416,-16.7432,178.77,1.64795,-145.129,332
1569672302,327.608,115.416,-16.7432,178.77,1.64795,-145.129,332
1569672302,327.608,115.416,-16.7432,178.77,1.66992,-145.129,332
1569672302,327.608,115.416,-16.7432,178.77,1.66992,-145.129,332
1569672302,327.608,115.416,-16.7432,178.77,1.66992,-145.129,332
1569672303,327.608,115.416,-16.7432,178.77,1.66992,-145.129,336
1569672303,327.608,115.416,-16.7432,178.77,1.66992,-145.129,336
1569672303,327.608,115.416,-16.6315,178.77,1.66992,-145.129,336
1569672303,327.608,115.416,-16.6315,178.77,1.66992,-145.129,336
1569672303,327.608,115.416,-16.6315,178.77,1.66992,-145.129,336
1569672303,327.608,115.416,-16.6315,178.77,1.66992,-145.129,336
1569672303,327.608,115.416,-16.6315,178.77,1.66992,-145.129,336
1569672303,327.608,115.416,-16.6315,178.77,1.66992,-145.129,336
1569672303,327.608,115.416,-16.6315,178.77,1.66992,-145.129,340
1569672303,327.608,115.416,-16.6315,178.77,1.66992,-145.129,340
1569672303,327.608,115.416,-16.6315,178.77,1.66992,-145.129,340
1569672303,327.496,115.416,-16.6315,178.792,1.66992,-145.129,340
1569672303,327.496,115.416,-16.6315,178.792,1.66992,-145.129,340
1569672303,327.496,115.416,-16.6315,178.792,1.66992,-145.129,340
1569672303,327.496,115.416,-16.6315,178.792,1.66992,-145.151,340
1569672303,327.496,115.416,-16.6315,178.792,1.66992,-145.151,340
1569672303,327.496,115.416,-16.6315,178.792,1.66992,-145.151,340
1569672303,327.496,115.416,-16.6315,178.792,1.66992,-145.151,344
1569672303,327.496,115.416,-16.6315,178.792,1.66992,-145.151,344
1569672303,327.496,115.416,-16.6315,178.77,1.66992,-145.151,344
1569672303,327.496,115.416,-16.6315,178.77,1.66992,-145.151,344
1569672303,327.496,115.416,-16.6315,178.77,1.66992,-145.151,344
1569672303,327.496,115.416,-16.6315,178.77,1.66992,-145.151,344
1569672303,327.496,115.416,-16.6315,178.77,1.66992,-145.151,344
1569672303,327.496,115.416,-16.6315,178.77,1.66992,-145.151,344
1569672303,327.496,115.416,-16.6315,178.77,1.66992,-145.151,344
1569672303,327.496,115.416,-16.6315,178.77,1.66992,-145.151,344
1569672303,327.496,115.416,-16.6315,178.792,1.66992,-145.151,344
1569672303,327.496,115.416,-16.6315,178.792,1.66992,-145.151,340
1569672303,327.496,115.416,-16.6315,178.792,1.66992,-145.151,340
1569672303,327.496,115.416,-16.6315,178.792,1.66992,-145.151,340
1569672303,327.496,115.416,-16.6315,178.792,1.66992,-145.151,340
1569672303,327.496,115.416,-16.6315,178.792,1.66992,-145.151,340
1569672303,327.496,115.416,-16.6315,178.792,1.66992,-145.151,340
1569672303,327.496,115.416,-16.6315,178.792,1.66992,-145.151,340
1569672303,327.496,115.416,-16.6315,178.792,1.66992,-145.151,340
1569672303,327.496,115.416,-16.6315,178.792,1.69189,-145.151,340
1569672303,327.496,115.528,-16.6315,178.792,1.69189,-145.151,340
1569672303,327.496,115.528,-16.5199,178.792,1.69189,-145.151,340
1569672303,327.496,115.528,-16.5199,178.792,1.69189,-145.151,340
1569672303,327.496,115.416,-16.5199,178.792,1.69189,-145.151,340
1569672303,327.496,115.416,-16.5199,178.792,1.69189,-145.151,340
1569672303,327.496,115.528,-16.5199,178.792,1.69189,-145.151,340
1569672303,327.496,115.528,-16.5199,178.792,1.69189,-145.151,340
1569672303,327.496,115.528,-16.5199,178.792,1.69189,-145.151,340
1569672303,327.496,115.528,-16.5199,178.792,1.69189,-145.151,336
1569672303,327.496,115.528,-16.5199,178.792,1.69189,-145.151,336
1569672303,327.608,115.528,-16.5199,178.792,1.69189,-145.151,336
1569672303,327.608,115.528,-16.5199,178.792,1.69189,-145.151,336
1569672303,327.608,115.528,-16.5199,178.792,1.69189,-145.151,336
1569672303,327.608,115.528,-16.5199,178.792,1.69189,-145.151,332
1569672303,327.608,115.528,-16.5199,178.792,1.69189,-145.151,332
1569672303,327.608,115.528,-16.5199,178.792,1.69189,-145.151,332
1569672303,327.608,115.528,-16.5199,178.792,1.69189,-145.151,328
1569672303,327.608,115.528,-16.5199,178.792,1.69189,-145.151,328
1569672303,327.608,115.528,-16.5199,178.792,1.69189,-145.151,328
1569672303,327.608,115.528,-16.5199,178.792,1.69189,-145.151,328
1569672303,327.608,115.416,-16.6315,178.77,1.69189,-145.151,328
1569672303,327.496,115.416,-16.6315,178.77,1.69189,-145.151,328
1569672303,327.496,115.416,-16.6315,178.77,1.69189,-145.151,328
1569672303,327.496,115.416,-16.6315,178.77,1.69189,-145.151,328
1569672303,327.496,115.416,-16.6315,178.77,1.69189,-145.151,328
1569672303,327.608,115.416,-16.6315,178.77,1.69189,-145.151,328
1569672303,327.608,115.416,-16.6315,178.77,1.69189,-145.151,324
1569672303,327.608,115.416,-16.6315,178.77,1.69189,-145.151,324
1569672303,327.608,115.416,-16.6315,178.77,1.69189,-145.151,324
1569672303,327.608,115.416,-16.6315,178.77,1.66992,-145.151,324
1569672303,327.608,115.416,-16.6315,178.77,1.66992,-145.151,324
1569672303,327.608,115.416,-16.6315,178.77,1.66992,-145.151,324
1569672303,327.608,115.416,-16.6315,178.77,1.66992,-145.151,324
1569672303,327.608,115.416,-16.6315,178.77,1.66992,-145.151,324
1569672303,327.608,115.416,-16.6315,178.77,1.66992,-145.151,324
1569672303,327.608,115.416,-16.6315,178.77,1.66992,-145.151,324
1569672303,327.608,115.416,-16.6315,178.77,1.66992,-145.151,324
1569672303,327.608,115.416,-16.6315,178.77,1.66992,-145.151,324
1569672303,327.608,115.416,-16.6315,178.77,1.66992,-145.151,324
1569672303,327.608,115.416,-16.6315,178.77,1.66992,-145.151,324
1569672303,327.608,115.416,-16.6315,178.77,1.66992,-145.151,324
1569672303,327.608,115.416,-16.6315,178.77,1.66992,-145.151,324
1569672303,327.608,115.416,-16.6315,178.77,1.66992,-145.151,324
1569672303,327.608,115.416,-16.6315,178.77,1.64795,-145.151,324
1569672303,327.608,115.416,-16.6315,178.77,1.64795,-145.151,324
1569672303,327.608,115.416,-16.6315,178.77,1.64795,-145.151,324
1569672303,327.608,115.416,-16.6315,178.77,1.64795,-145.151,324
1569672303,327.608,115.416,-16.6315,178.77,1.64795,-145.151,324
1569672303,327.608,115.416,-16.6315,178.77,1.64795,-145.151,320
1569672303,327.608,115.416,-16.6315,178.77,1.64795,-145.151,320
1569672303,327.608,115.416,-16.6315,178.77,1.64795,-145.151,320
1569672303,327.608,115.416,-16.6315,178.77,1.64795,-145.151,320
1569672303,327.608,115.416,-16.6315,178.77,1.64795,-145.151,320
1569672303,327.608,115.416,-16.6315,178.77,1.64795,-145.151,316
1569672303,327.608,115.416,-16.6315,178.77,1.66992,-145.151,316
1569672303,327.608,115.416,-16.6315,178.77,1.66992,-145.151,316
1569672303,327.608,115.416,-16.6315,178.77,1.66992,-145.151,316
1569672303,327.608,115.528,-16.6315,178.77,1.66992,-145.151,316
1569672303,327.608,115.528,-16.6315,178.77,1.66992,-145.151,316
1569672303,327.608,115.416,-16.6315,178.77,1.66992,-145.151,316
1569672303,327.608,115.416,-16.6315,178.77,1.66992,-145.151,316
1569672303,327.608,115.416,-16.6315,178.77,1.66992,-145.151,316
1569672303,327.608,115.416,-16.6315,178.77,1.66992,-145.151,316
1569672304,327.608,115.416,-16.6315,178.77,1.66992,-145.151,316
1569672304,327.608,115.416,-16.6315,178.77,1.66992,-145.151,316
1569672304,327.608,115.416,-16.6315,178.77,1.66992,-145.151,320
1569672304,327.608,115.416,-16.6315,178.77,1.66992,-145.151,320
1569672304,327.608,115.416,-16.6315,178.77,1.66992,-145.151,320
1569672304,327.608,115.416,-16.6315,178.77,1.66992,-145.151,320
1569672304,327.608,115.416,-16.6315,178.77,1.66992,-145.151,320
1569672304,327.608,115.416,-16.6315,178.77,1.69189,-145.151,320
1569672304,327.608,115.416,-16.6315,178.77,1.69189,-145.151,320
1569672304,327.608,115.416,-16.6315,178.77,1.69189,-145.151,320
1569672304,327.608,115.416,-16.6315,178.77,1.69189,-145.151,320
1569672304,327.608,115.416,-16.6315,178.77,1.69189,-145.151,320
1569672304,327.608,115.416,-16.6315,178.77,1.69189,-145.151,320
1569672304,327.608,115.416,-16.6315,178.77,1.69189,-145.151,316
1569672304,327.608,115.416,-16.6315,178.77,1.69189,-145.151,316
1569672304,327.608,115.416,-16.6315,178.77,1.66992,-145.151,316
1569672304,327.608,115.416,-16.6315,178.77,1.66992,-145.151,316
1569672304,327.608,115.416,-16.6315,178.77,1.66992,-145.151,316
1569672304,327.608,115.416,-16.6315,178.77,1.66992,-145.151,316
1569672304,327.608,115.416,-16.6315,178.77,1.66992,-145.151,316
1569672304,327.608,115.416,-16.6315,178.77,1.66992,-145.151,316
1569672304,327.608,115.416,-16.6315,178.77,1.66992,-145.151,316
1569672304,327.608,115.416,-16.6315,178.77,1.66992,-145.151,316
1569672304,327.608,115.416,-16.6315,178.77,1.66992,-145.151,316
1569672304,327.608,115.416,-16.6315,178.77,1.66992,-145.151,316
1569672304,327.608,115.416,-16.6315,178.77,1.66992,-145.151,316
1569672304,327.608,115.416,-16.6315,178.77,1.66992,-145.151,316
1569672304,327.608,115.416,-16.6315,178.77,1.66992,-145.151,316
1569672304,327.608,115.416,-16.6315,178.77,1.66992,-145.151,316
1569672304,327.608,115.416,-16.6315,178.77,1.66992,-145.151,316
1569672304,327.608,115.416,-16.6315,178.77,1.66992,-145.151,316
1569672304,327.608,115.416,-16.6315,178.77,1.66992,-145.151,316
1569672304,327.608,115.416,-16.6315,178.77,1.66992,-145.151,316
1569672304,327.608,115.416,-16.6315,178.77,1.66992,-145.151,316
1569672304,327.608,115.416,-16.6315,178.77,1.66992,-145.151,316
1569672304,327.608,115.416,-16.6315,178.77,1.66992,-145.151,316
1569672304,327.608,115.416,-16.6315,178.77,1.66992,-145.151,316
1569672304,327.608,115.416,-16.6315,178.77,1.66992,-145.151,316
1569672304,327.608,115.416,-16.6315,178.77,1.66992,-145.151,316
1569672304,327.608,115.416,-16.6315,178.77,1.66992,-145.151,316
1569672304,327.608,115.416,-16.6315,178.77,1.66992,-145.151,320
1569672304,327.608,115.416,-16.6315,178.77,1.66992,-145.151,320
1569672304,327.608,115.416,-16.6315,178.77,1.66992,-145.151,320
1569672304,327.608,115.416,-16.6315,178.77,1.66992,-145.151,320
1569672304,327.608,115.416,-16.6315,178.77,1.66992,-145.151,320
1569672304,327.608,115.416,-16.6315,178.77,1.66992,-145.151,320
1569672304,327.608,115.416,-16.6315,178.77,1.66992,-145.151,320
1569672304,327.608,115.416,-16.6315,178.77,1.66992,-145.151,320
1569672304,327.608,115.416,-16.6315,178.77,1.66992,-145.151,320
1569672304,327.608,115.416,-16.6315,178.77,1.66992,-145.151,320
1569672304,327.608,115.416,-16.6315,178.77,1.66992,-145.151,316
1569672304,327.608,115.416,-16.6315,178.77,1.66992,-145.151,316
1569672304,327.608,115.416,-16.6315,178.77,1.66992,-145.151,316
1569672304,327.608,115.416,-16.6315,178.77,1.66992,-145.151,316
1569672304,327.608,115.416,-16.6315,178.77,1.66992,-145.151,316
1569672304,327.608,115.416,-16.6315,178.77,1.66992,-145.151,316
1569672304,327.608,115.416,-16.6315,178.77,1.66992,-145.151,316
1569672304,327.608,115.416,-16.6315,178.77,1.66992,-145.129,316
1569672304,327.608,115.416,-16.6315,178.77,1.66992,-145.129,316
1569672304,327.608,115.416,-16.6315,178.77,1.66992,-145.129,316
1569672304,327.608,115.416,-16.6315,178.77,1.66992,-145.129,316
1569672304,327.608,115.416,-16.6315,178.77,1.66992,-145.129,316
1569672304,327.608,115.416,-16.6315,178.77,1.66992,-145.129,316
1569672304,327.608,115.416,-16.6315,178.77,1.66992,-145.129,316
1569672304,327.608,115.416,-16.6315,178.77,1.66992,-145.129,316
1569672304,327.608,115.416,-16.6315,178.77,1.66992,-145.129,316
1569672304,327.608,115.416,-16.6315,178.77,1.66992,-145.129,316
1569672304,327.608,115.416,-16.6315,178.77,1.66992,-145.129,316
1569672304,327.608,115.416,-16.6315,178.77,1.66992,-145.129,316
1569672304,327.608,115.416,-16.6315,178.77,1.66992,-145.151,320
1569672304,327.608,115.416,-16.6315,178.77,1.66992,-145.151,320
1569672304,327.608,115.416,-16.6315,178.77,1.66992,-145.151,320
1569672304,327.608,115.416,-16.6315,178.77,1.66992,-145.151,320
1569672304,327.608,115.416,-16.6315,178.77,1.66992,-145.151,320
1569672304,327.608,115.416,-16.6315,178.77,1.66992,-145.151,320
1569672304,327.608,115.416,-16.6315,178.77,1.66992,-145.151,320
1569672304,327.608,115.416,-16.6315,178.77,1.66992,-145.151,320
1569672304,327.608,115.416,-16.6315,178.77,1.66992,-145.151,324
1569672304,327.608,115.416,-16.6315,178.77,1.66992,-145.151,324
1569672304,327.608,115.416,-16.6315,178.77,1.66992,-145.151,324
1569672304,327.608,115.416,-16.6315,178.77,1.66992,-145.151,324
1569672304,327.608,115.416,-16.6315,178.77,1.66992,-145.151,324
1569672304,327.608,115.416,-16.6315,178.77,1.66992,-145.151,324
1569672304,327.496,115.416,-16.6315,178.77,1.66992,-145.151,324
1569672304,327.496,115.416,-16.6315,178.77,1.66992,-145.151,324
1569672304,327.496,115.416,-16.6315,178.77,1.66992,-145.151,324
1569672304,327.496,115.416,-16.6315,178.77,1.66992,-145.151,324
1569672304,327.496,115.416,-16.6315,178.792,1.66992,-145.151,324
1569672304,327.496,115.416,-16.6315,178.792,1.66992,-145.151,324
1569672304,327.496,115.528,-16.6315,178.792,1.66992,-145.151,324
1569672304,327.496,115.528,-16.6315,178.792,1.66992,-145.151,324
1569672304,327.496,115.528,-16.6315,178.792,1.66992,-145.129,324
1569672304,327.496,115.528,-16.6315,178.792,1.66992,-145.129,324
1569672304,327.496,115.528,-16.6315,178.792,1.66992,-145.129,324
1569672304,327.496,115.528,-16.6315,178.792,1.66992,-145.129,324
1569672304,327.496,115.528,-16.6315,178.792,1.66992,-145.129,324
1569672304,327.496,115.528,-16.6315,178.792,1.66992,-145.129,324
1569672304,327.496,115.528,-16.6315,178.792,1.66992,-145.129,328
1569672304,327.496,115.528,-16.6315,178.792,1.66992,-145.129,328
1569672304,327.496,115.528,-16.6315,178.792,1.66992,-145.129,328
1569672305,327.496,115.528,-16.6315,178.792,1.66992,-145.129,328
1569672305,327.496,115.528,-16.6315,178.792,1.66992,-145.129,328
1569672305,327.496,115.528,-16.6315,178.792,1.66992,-145.129,328
1569672305,327.496,115.528,-16.6315,178.792,1.66992,-145.129,328
1569672305,327.496,115.416,-16.6315,178.792,1.66992,-145.129,328
1569672305,327.496,115.416,-16.6315,178.792,1.66992,-145.129,328
1569672305,327.496,115.416,-16.6315,178.792,1.66992,-145.129,328
1569672305,327.496,115.416,-16.6315,178.77,1.66992,-145.129,324
1569672305,327.608,115.416,-16.6315,178.77,1.66992,-145.129,324
1569672305,327.608,115.416,-16.5199,178.77,1.66992,-145.129,324
1569672305,327.608,115.416,-16.5199,178.77,1.69189,-145.129,324
1569672305,327.608,115.416,-16.5199,178.77,1.69189,-145.129,324
1569672305,327.608,115.416,-16.5199,178.77,1.69189,-145.151,324
1569672305,327.608,115.416,-16.5199,178.77,1.69189,-145.151,324
1569672305,327.608,115.416,-16.5199,178.77,1.69189,-145.151,324
1569672305,327.608,115.416,-16.5199,178.77,1.69189,-145.151,320
1569672305,327.608,115.416,-16.5199,178.77,1.69189,-145.151,320
1569672305,327.608,115.416,-16.5199,178.77,1.69189,-145.151,320
1569672305,327.608,115.416,-16.5199,178.77,1.69189,-145.151,320
1569672305,327.608,115.416,-16.5199,178.77,1.69189,-145.129,320
1569672305,327.608,115.416,-16.5199,178.77,1.69189,-145.129,320
1569672305,327.608,115.416,-16.5199,178.77,1.69189,-145.129,316
1569672305,327.608,115.416,-16.5199,178.77,1.69189,-145.129,316
1569672305,327.608,115.416,-16.5199,178.77,1.69189,-145.129,316
1569672305,327.608,115.416,-16.5199,178.77,1.69189,-145.129,316
1569672305,327.608,115.416,-16.5199,178.77,1.69189,-145.129,316
1569672305,327.608,115.416,-16.5199,178.77,1.69189,-145.129,316
1569672305,327.608,115.416,-16.5199,178.77,1.69189,-145.129,316
1569672305,327.608,115.416,-16.5199,178.77,1.69189,-145.129,316
1569672305,327.608,115.416,-16.5199,178.77,1.69189,-145.129,316
1569672305,327.608,115.416,-16.5199,178.77,1.69189,-145.129,316
1569672305,327.608,115.416,-16.5199,178.77,1.69189,-145.129,316
1569672305,327.608,115.416,-16.6315,178.77,1.69189,-145.129,316
1569672305,327.608,115.416,-16.6315,178.77,1.69189,-145.129,316
1569672305,327.608,115.416,-16.6315,178.77,1.69189,-145.129,320
1569672305,327.608,115.416,-16.6315,178.77,1.69189,-145.129,320
1569672305,327.608,115.416,-16.6315,178.77,1.69189,-145.129,320
1569672305,327.608,115.416,-16.6315,178.792,1.69189,-145.129,320
1569672305,327.608,115.528,-16.6315,178.792,1.69189,-145.129,320
1569672305,327.608,115.528,-16.6315,178.792,1.66992,-145.129,320
1569672305,327.608,115.528,-16.6315,178.792,1.66992,-145.129,324
1569672305,327.608,115.528,-16.6315,178.792,1.66992,-145.129,324
1569672305,327.608,115.528,-16.6315,178.792,1.66992,-145.129,324
1569672305,327.608,115.528,-16.6315,178.792,1.66992,-145.129,324
1569672305,327.608,115.528,-16.6315,178.792,1.66992,-145.129,324
1569672305,327.608,115.528,-16.6315,178.792,1.66992,-145.129,324
1569672305,327.608,115.528,-16.6315,178.792,1.66992,-145.151,324
1569672305,327.608,115.528,-16.6315,178.792,1.66992,-145.151,328
1569672305,327.608,115.528,-16.6315,178.792,1.66992,-145.151,328
1569672305,327.608,115.528,-16.6315,178.792,1.66992,-145.151,328
1569672305,327.608,115.416,-16.6315,178.792,1.66992,-145.151,328
1569672305,327.608,115.416,-16.6315,178.792,1.66992,-145.151,328
1569672305,327.608,115.528,-16.6315,178.792,1.66992,-145.151,328
1569672305,327.496,115.528,-16.6315,178.792,1.66992,-145.151,328
1569672305,327.496,115.528,-16.6315,178.792,1.66992,-145.151,332
1569672305,327.496,115.528,-16.6315,178.792,1.66992,-145.151,332
1569672305,327.496,115.528,-16.6315,178.792,1.66992,-145.151,332
1569672305,327.496,115.528,-16.6315,178.792,1.66992,-145.151,332
1569672305,327.496,115.528,-16.6315,178.792,1.66992,-145.151,332
1569672305,327.496,115.528,-16.6315,178.792,1.66992,-145.151,332
1569672305,327.496,115.528,-16.6315,178.792,1.66992,-145.151,332
1569672305,327.496,115.528,-16.6315,178.792,1.66992,-145.151,332
1569672305,327.496,115.528,-16.6315,178.792,1.66992,-145.151,332
1569672305,327.496,115.528,-16.6315,178.792,1.66992,-145.151,332
1569672305,327.496,115.528,-16.6315,178.792,1.66992,-145.151,332
1569672305,327.496,115.528,-16.6315,178.792,1.66992,-145.151,332
1569672305,327.496,115.528,-16.6315,178.792,1.66992,-145.151,332
1569672305,327.496,115.528,-16.6315,178.792,1.66992,-145.151,332
1569672305,327.496,115.528,-16.6315,178.792,1.66992,-145.151,332
1569672305,327.496,115.528,-16.6315,178.792,1.66992,-145.151,332
1569672305,327.496,115.528,-16.6315,178.792,1.66992,-145.151,332
1569672305,327.496,115.528,-16.6315,178.792,1.66992,-145.151,332
1569672305,327.496,115.528,-16.6315,178.792,1.66992,-145.151,332
1569672305,327.496,115.528,-16.6315,178.792,1.66992,-145.151,336
1569672305,327.496,115.528,-16.6315,178.792,1.66992,-145.151,336
1569672305,327.496,115.528,-16.6315,178.792,1.66992,-145.151,332
1569672305,327.496,115.528,-16.6315,178.792,1.66992,-145.151,332
1569672305,327.496,115.528,-16.6315,178.792,1.66992,-145.151,332
1569672305,327.496,115.528,-16.6315,178.792,1.66992,-145.151,332
1569672305,327.496,115.528,-16.6315,178.792,1.66992,-145.151,332
1569672305,327.496,115.528,-16.6315,178.792,1.66992,-145.129,332
1569672305,327.496,115.528,-16.6315,178.792,1.66992,-145.129,332
1569672305,327.496,115.528,-16.6315,178.792,1.66992,-145.151,332
1569672305,327.496,115.528,-16.6315,178.792,1.66992,-145.151,332
1569672305,327.496,115.528,-16.6315,178.792,1.66992,-145.151,332
1569672305,327.496,115.528,-16.6315,178.792,1.66992,-145.151,332
1569672305,327.496,115.528,-16.6315,178.792,1.66992,-145.151,332
1569672305,327.496,115.528,-16.6315,178.792,1.66992,-145.151,336
1569672305,327.496,115.528,-16.6315,178.792,1.66992,-145.151,336
1569672305,327.496,115.528,-16.6315,178.792,1.66992,-145.151,336
1569672305,327.496,115.528,-16.6315,178.792,1.66992,-145.151,336
1569672305,327.496,115.528,-16.6315,178.792,1.66992,-145.151,340
1569672305,327.496,115.528,-16.6315,178.792,1.66992,-145.151,340
1569672305,327.496,115.528,-16.6315,178.792,1.66992,-145.151,340
1569672305,327.496,115.528,-16.6315,178.792,1.66992,-145.151,340
1569672305,327.496,115.528,-16.6315,178.792,1.66992,-145.129,340
1569672305,327.496,115.528,-16.6315,178.792,1.66992,-145.129,340
1569672305,327.608,115.528,-16.6315,178.792,1.66992,-145.129,340
1569672305,327.608,115.528,-16.6315,178.792,1.66992,-145.129,340
1569672305,327.608,115.528,-16.6315,178.792,1.66992,-145.129,340
1569672306,327.608,115.528,-16.6315,178.792,1.66992,-145.129,340
1569672306,327.608,115.528,-16.6315,178.792,1.66992,-145.129,340
1569672306,327.608,115.528,-16.6315,178.792,1.66992,-145.129,340
1569672306,327.608,115.528,-16.6315,178.792,1.66992,-145.129,340
1569672306,327.608,115.528,-16.6315,178.792,1.66992,-145.129,340
1569672306,327.608,115.528,-16.6315,178.792,1.66992,-145.129,340
1569672306,327.608,115.528,-16.6315,178.792,1.64795,-145.129,340
1569672306,327.608,115.528,-16.6315,178.792,1.64795,-145.129,336
1569672306,327.608,115.528,-16.7432,178.792,1.64795,-145.129,336
1569672306,327.608,115.528,-16.7432,178.792,1.64795,-145.129,336
1569672306,327.608,115.528,-16.7432,178.792,1.64795,-145.129,336
1569672311,289.099,156.381,-16.9664,178.704,1.38428,-145.129,268
1569672311,289.099,156.381,-16.9664,178.704,1.38428,-145.129,268
1569672311,289.099,156.381,-16.9664,178.704,1.3623,-145.129,268
1569672311,289.099,156.381,-17.078,178.704,1.3623,-145.129,268
1569672311,289.099,156.381,-17.078,178.704,1.3623,-145.129,268
1569672311,289.099,156.381,-17.078,178.704,1.3623,-145.129,268
1569672311,289.099,156.381,-17.078,178.704,1.3623,-145.129,268
1569672311,289.099,156.381,-17.078,178.704,1.3623,-145.129,268
1569672311,289.099,156.381,-17.078,178.704,1.3623,-145.129,268
1569672311,289.099,156.381,-17.078,178.704,1.3623,-145.129,268
1569672311,289.099,156.381,-17.078,178.704,1.3623,-145.129,268
1569672311,289.099,156.381,-17.078,178.704,1.3623,-145.129,264
1569672311,289.099,156.381,-17.078,178.704,1.3623,-145.129,264
1569672311,289.099,156.381,-17.078,178.704,1.3623,-145.129,264
1569672311,289.099,156.381,-17.078,178.704,1.3623,-145.129,264
1569672311,289.099,156.381,-17.078,178.704,1.3623,-145.129,264
1569672311,289.099,156.381,-17.078,178.704,1.34033,-145.129,264
1569672311,289.099,156.381,-17.078,178.704,1.34033,-145.129,264
1569672311,289.099,156.381,-17.078,178.704,1.34033,-145.129,264
1569672311,289.099,156.381,-17.078,178.704,1.34033,-145.129,264
1569672311,289.099,156.381,-17.078,178.704,1.34033,-145.129,264
1569672311,289.099,156.381,-17.078,178.704,1.34033,-145.129,264
1569672311,289.099,156.381,-17.078,178.704,1.34033,-145.129,264
1569672311,289.099,156.381,-17.078,178.704,1.34033,-145.129,264
1569672311,289.099,156.381,-17.078,178.704,1.34033,-145.129,264
1569672311,289.099,156.381,-17.078,178.704,1.34033,-145.129,264
1569672311,289.099,156.381,-17.078,178.704,1.34033,-145.129,264
1569672311,289.099,156.381,-17.078,178.704,1.34033,-145.129,264
1569672311,289.099,156.381,-17.078,178.704,1.34033,-145.129,264
1569672311,288.987,156.381,-17.078,178.704,1.34033,-145.129,264
1569672311,288.987,156.381,-17.078,178.704,1.34033,-145.129,264
1569672311,288.987,156.381,-17.078,178.704,1.34033,-145.129,264
1569672311,288.987,156.381,-17.078,178.704,1.34033,-145.129,268
1569672311,288.987,156.381,-17.078,178.704,1.34033,-145.129,268
1569672311,288.987,156.381,-17.078,178.704,1.34033,-145.129,268
1569672311,288.987,156.381,-17.078,178.704,1.34033,-145.129,268
1569672311,288.987,156.381,-17.078,178.726,1.34033,-145.129,268
1569672311,288.987,156.381,-17.078,178.726,1.34033,-145.129,272
1569672311,288.987,156.381,-17.078,178.726,1.34033,-145.129,272
1569672311,288.987,156.381,-17.078,178.726,1.34033,-145.129,272
1569672311,288.987,156.381,-17.078,178.726,1.34033,-145.129,272
1569672311,288.987,156.381,-17.078,178.726,1.34033,-145.129,272
1569672311,288.987,156.381,-17.078,178.726,1.34033,-145.129,272
1569672311,288.987,156.381,-17.078,178.726,1.34033,-145.129,272
1569672311,288.987,156.381,-17.078,178.726,1.34033,-145.129,272
1569672311,288.987,156.381,-17.078,178.704,1.34033,-145.129,272
1569672311,288.987,156.381,-17.078,178.704,1.3623,-145.129,272
1569672311,288.987,156.381,-17.078,178.704,1.3623,-145.129,272
1569672312,288.987,156.381,-16.9664,178.704,1.3623,-145.129,272
1569672312,288.987,156.381,-16.9664,178.704,1.3623,-145.129,272
1569672312,288.987,156.381,-16.9664,178.704,1.3623,-145.129,272
1569672312,288.987,156.381,-16.9664,178.704,1.3623,-145.129,272
1569672312,288.987,156.381,-16.9664,178.704,1.3623,-145.129,272
1569672312,288.987,156.381,-16.9664,178.704,1.3623,-145.129,272
1569672312,288.987,156.381,-16.9664,178.704,1.38428,-145.129,272
1569672312,288.987,156.381,-16.9664,178.704,1.38428,-145.129,272
1569672312,288.987,156.381,-16.9664,178.704,1.38428,-145.129,272
1569672312,288.987,156.381,-16.9664,178.704,1.3623,-145.129,272
1569672312,288.987,156.381,-16.9664,178.704,1.3623,-145.129,272
1569672312,288.987,156.381,-16.9664,178.704,1.3623,-145.129,272
1569672312,288.987,156.381,-16.9664,178.704,1.3623,-145.129,272
1569672312,288.987,156.381,-16.9664,178.704,1.3623,-145.129,272
1569672312,288.987,156.381,-16.9664,178.704,1.3623,-145.129,272
1569672312,288.987,156.381,-16.9664,178.704,1.3623,-145.129,272
1569672312,288.987,156.381,-16.9664,178.704,1.3623,-145.129,272
1569672312,288.987,156.381,-17.078,178.704,1.3623,-145.129,276
1569672312,288.987,156.381,-17.078,178.704,1.3623,-145.107,276
1569672312,288.987,156.381,-17.078,178.704,1.3623,-145.107,276
1569672312,288.987,156.381,-17.078,178.704,1.3623,-145.107,276
1569672312,288.987,156.381,-17.078,178.704,1.3623,-145.107,276
1569672312,288.987,156.381,-17.078,178.704,1.3623,-145.107,276
1569672312,288.987,156.381,-17.078,178.704,1.34033,-145.107,276
1569672312,288.987,156.381,-17.078,178.704,1.34033,-145.107,276
1569672312,288.987,156.381,-17.078,178.704,1.34033,-145.107,276
1569672312,289.099,156.493,-17.078,178.704,1.34033,-145.107,276
1569672312,289.099,156.493,-17.078,178.704,1.34033,-145.107,276
1569672312,289.099,156.493,-17.078,178.704,1.34033,-145.107,272
1569672312,289.099,156.493,-17.078,178.704,1.34033,-145.107,272
1569672312,289.099,156.493,-17.078,178.704,1.34033,-145.107,272
1569672312,289.099,156.493,-17.078,178.704,1.34033,-145.107,272
1569672312,289.099,156.493,-17.078,178.726,1.34033,-145.107,272
1569672312,289.099,156.493,-17.078,178.726,1.34033,-145.107,272
1569672312,288.987,156.493,-17.078,178.726,1.34033,-145.107,272
1569672312,288.987,156.493,-17.078,178.726,1.34033,-145.107,272
1569672312,288.987,156.493,-17.078,178.726,1.34033,-145.107,272
1569672312,288.987,156.493,-17.078,178.726,1.34033,-145.107,272
1569672312,288.987,156.493,-17.078,178.726,1.34033,-145.107,272
1569672312,288.987,156.493,-17.078,178.726,1.34033,-145.129,272
1569672312,288.987,156.493,-17.078,178.726,1.34033,-145.129,272
1569672312,288.987,156.493,-17.078,178.726,1.34033,-145.129,268
1569672312,288.987,156.493,-17.078,178.726,1.34033,-145.129,268
1569672312,288.987,156.493,-17.078,178.726,1.34033,-145.129,268
1569672312,288.987,156.493,-17.078,178.726,1.3623,-145.129,268
1569672312,288.987,156.493,-17.078,178.726,1.3623,-145.129,268
1569672312,288.987,156.493,-17.078,178.726,1.3623,-145.129,268
1569672312,288.987,156.493,-17.078,178.726,1.3623,-145.129,268
1569672312,288.987,156.493,-17.078,178.726,1.3623,-145.129,268
1569672312,288.987,156.493,-17.078,178.726,1.3623,-145.129,268
1569672312,288.987,156.493,-17.078,178.726,1.3623,-145.129,268
1569672312,289.099,156.493,-17.078,178.726,1.3623,-145.129,268
1569672312,289.099,156.493,-16.9664,178.726,1.3623,-145.129,268
1569672312,289.099,156.493,-16.9664,178.726,1.3623,-145.129,268
1569672312,289.099,156.493,-16.9664,178.726,1.3623,-145.129,268
1569672312,289.099,156.493,-16.9664,178.726,1.3623,-145.129,268
1569672312,289.099,156.493,-16.9664,178.726,1.38428,-145.129,268
1569672312,289.099,156.493,-16.9664,178.726,1.38428,-145.129,268
1569672312,288.987,156.493,-16.9664,178.726,1.38428,-145.129,268
1569672312,289.099,156.493,-16.9664,178.726,1.38428,-145.129,268
1569672312,289.099,156.493,-16.9664,178.726,1.38428,-145.129,268
1569672312,289.099,156.493,-16.9664,178.726,1.38428,-145.129,272
1569672312,289.099,156.493,-16.9664,178.726,1.38428,-145.129,272
1569672312,289.099,156.493,-16.9664,178.704,1.38428,-145.129,272
1569672312,289.099,156.493,-16.9664,178.704,1.38428,-145.129,272
1569672312,289.099,156.493,-16.9664,178.704,1.38428,-145.129,272
1569672312,289.099,156.493,-16.9664,178.704,1.38428,-145.129,272
1569672312,288.987,156.493,-16.9664,178.704,1.38428,-145.129,272
1569672312,288.987,156.493,-16.9664,178.704,1.38428,-145.129,272
1569672312,288.987,156.493,-16.9664,178.704,1.38428,-145.129,276
1569672312,288.987,156.493,-16.9664,178.704,1.38428,-145.129,276
1569672312,288.987,156.493,-16.9664,178.726,1.38428,-145.129,276
1569672312,288.987,156.493,-16.9664,178.726,1.38428,-145.129,276
1569672312,288.987,156.493,-16.9664,178.726,1.38428,-145.129,276
1569672312,288.987,156.493,-16.9664,178.726,1.38428,-145.129,276
1569672312,288.987,156.493,-16.9664,178.726,1.38428,-145.129,276
1569672312,288.987,156.493,-16.9664,178.726,1.38428,-145.129,276
1569672312,288.987,156.493,-16.9664,178.704,1.38428,-145.129,276
1569672312,288.987,156.493,-16.9664,178.704,1.38428,-145.129,276
1569672312,289.099,156.493,-16.9664,178.704,1.38428,-145.129,272
1569672312,289.099,156.381,-16.9664,178.704,1.38428,-145.129,272
1569672312,289.099,156.381,-16.9664,178.704,1.38428,-145.129,272
1569672312,289.099,156.381,-16.9664,178.704,1.38428,-145.129,272
1569672312,289.099,156.381,-16.9664,178.704,1.38428,-145.129,272
1569672312,289.099,156.381,-16.9664,178.704,1.38428,-145.129,272
1569672312,289.099,156.381,-16.9664,178.704,1.3623,-145.129,272
1569672312,289.099,156.381,-16.9664,178.704,1.3623,-145.129,272
1569672312,289.099,156.493,-16.9664,178.704,1.3623,-145.129,272
1569672312,289.099,156.493,-17.078,178.704,1.3623,-145.129,272
1569672312,289.099,156.493,-17.078,178.704,1.3623,-145.129,272
1569672312,289.099,156.493,-17.078,178.704,1.3623,-145.129,272
1569672312,289.099,156.493,-16.9664,178.726,1.3623,-145.129,268
1569672312,289.099,156.493,-16.9664,178.726,1.3623,-145.129,268
1569672312,289.099,156.493,-16.9664,178.726,1.3623,-145.129,268
1569672312,289.099,156.493,-16.9664,178.726,1.38428,-145.129,268
1569672312,289.099,156.493,-16.9664,178.726,1.38428,-145.129,268
1569672312,289.099,156.493,-16.9664,178.726,1.38428,-145.129,268
1569672312,289.099,156.493,-16.9664,178.726,1.38428,-145.129,268
1569672312,289.099,156.493,-16.9664,178.726,1.38428,-145.129,268
1569672312,289.099,156.493,-16.9664,178.726,1.38428,-145.129,268
1569672313,289.099,156.493,-16.9664,178.726,1.38428,-145.129,268
1569672313,289.099,156.493,-16.9664,178.726,1.38428,-145.129,268
1569672313,289.099,156.493,-16.9664,178.726,1.38428,-145.129,268
1569672313,289.099,156.493,-16.9664,178.726,1.38428,-145.129,268
1569672313,289.099,156.493,-16.9664,178.726,1.38428,-145.129,268
1569672313,289.099,156.493,-16.9664,178.726,1.38428,-145.129,268
1569672313,289.099,156.493,-16.9664,178.726,1.38428,-145.129,268
1569672313,289.099,156.493,-16.9664,178.726,1.38428,-145.129,268
1569672313,289.099,156.493,-16.9664,178.726,1.38428,-145.129,268
1569672313,289.099,156.493,-16.9664,178.726,1.38428,-145.129,268
1569672313,289.099,156.493,-16.9664,178.726,1.38428,-145.129,268
1569672313,288.987,156.493,-16.9664,178.726,1.38428,-145.129,268
1569672313,288.987,156.493,-16.9664,178.726,1.38428,-145.129,268
1569672313,288.987,156.493,-16.9664,178.726,1.38428,-145.129,268
1569672313,288.987,156.493,-16.9664,178.726,1.38428,-145.107,272
1569672313,288.987,156.493,-16.9664,178.726,1.38428,-145.107,272
1569672313,288.987,156.493,-17.078,178.726,1.38428,-145.107,272
1569672313,288.987,156.493,-17.078,178.704,1.3623,-145.107,272
1569672313,288.987,156.493,-17.078,178.704,1.3623,-145.107,272
1569672313,288.987,156.493,-17.078,178.704,1.3623,-145.107,272
1569672313,288.987,156.493,-17.078,178.704,1.3623,-145.107,272
1569672313,289.099,156.493,-17.078,178.704,1.3623,-145.107,272
1569672313,289.099,156.493,-17.078,178.704,1.3623,-145.107,272
1569672313,289.099,156.493,-17.078,178.704,1.3623,-145.107,272
1569672313,289.099,156.493,-17.078,178.704,1.3623,-145.129,272
1569672313,289.099,156.493,-17.078,178.704,1.3623,-145.129,272
1569672313,289.099,156.493,-17.078,178.704,1.3623,-145.129,272
1569672313,289.099,156.493,-16.9664,178.704,1.3623,-145.129,272
1569672313,289.099,156.493,-16.9664,178.704,1.3623,-145.129,272
1569672313,289.099,156.493,-16.9664,178.704,1.38428,-145.129,272
1569672313,289.099,156.493,-16.9664,178.704,1.38428,-145.129,272
1569672313,289.099,156.493,-16.9664,178.704,1.3623,-145.129,272
1569672313,289.099,156.493,-16.9664,178.704,1.3623,-145.129,272
1569672313,289.099,156.493,-16.9664,178.704,1.3623,-145.129,272
1569672313,289.099,156.493,-17.078,178.704,1.3623,-145.129,272
1569672313,289.099,156.493,-17.078,178.704,1.3623,-145.129,272
1569672313,289.099,156.493,-17.078,178.704,1.3623,-145.129,272
1569672313,289.099,156.493,-17.078,178.704,1.3623,-145.129,272
1569672313,289.099,156.493,-17.078,178.704,1.3623,-145.129,272
1569672313,289.099,156.493,-17.078,178.704,1.3623,-145.129,272
1569672313,289.099,156.493,-17.078,178.704,1.3623,-145.129,268
1569672313,289.099,156.493,-17.078,178.704,1.3623,-145.129,268
1569672313,289.099,156.493,-17.078,178.704,1.3623,-145.129,268
1569672313,289.099,156.493,-16.9664,178.726,1.3623,-145.129,268
1569672313,289.099,156.493,-16.9664,178.726,1.3623,-145.129,268
1569672313,289.099,156.493,-16.9664,178.726,1.3623,-145.129,268
1569672313,289.099,156.493,-16.9664,178.726,1.3623,-145.129,268
1569672313,289.099,156.493,-16.9664,178.726,1.3623,-145.129,268
1569672313,289.099,156.493,-16.9664,178.726,1.3623,-145.129,268
1569672313,289.099,156.493,-16.9664,178.726,1.3623,-145.129,268
1569672313,289.099,156.493,-16.9664,178.726,1.3623,-145.129,268
1569672313,289.099,156.493,-16.9664,178.726,1.3623,-145.129,268
1569672313,289.099,156.493,-16.9664,178.726,1.3623,-145.129,268
1569672313,289.099,156.493,-16.9664,178.726,1.3623,-145.129,268
1569672313,289.099,156.493,-16.9664,178.726,1.3623,-145.129,268
1569672313,289.099,156.493,-16.9664,178.726,1.3623,-145.129,268
1569672313,289.099,156.493,-16.9664,178.704,1.3623,-145.129,268
1569672313,289.099,156.493,-16.9664,178.704,1.3623,-145.129,268
1569672313,289.099,156.493,-16.9664,178.704,1.3623,-145.129,268
1569672313,289.099,156.493,-17.078,178.704,1.3623,-145.129,268
1569672313,289.099,156.493,-17.078,178.704,1.3623,-145.129,268
1569672313,289.099,156.493,-17.078,178.704,1.3623,-145.107,268
1569672313,289.099,156.493,-17.078,178.704,1.3623,-145.107,272
1569672313,289.099,156.493,-17.078,178.704,1.34033,-145.107,272
1569672313,289.099,156.493,-17.078,178.704,1.34033,-145.107,272
1569672313,289.099,156.493,-17.078,178.704,1.34033,-145.107,272
1569672313,289.099,156.493,-17.078,178.704,1.34033,-145.107,272
1569672313,289.099,156.493,-17.078,178.704,1.34033,-145.107,272
1569672313,289.099,156.493,-17.078,178.704,1.34033,-145.107,272
1569672313,289.099,156.493,-17.078,178.704,1.34033,-145.107,272
1569672313,289.099,156.493,-17.078,178.704,1.34033,-145.107,272
1569672313,289.099,156.493,-17.078,178.704,1.34033,-145.107,272
1569672313,289.099,156.493,-17.078,178.704,1.34033,-145.107,272
1569672313,289.099,156.493,-17.078,178.704,1.34033,-145.107,272
1569672313,289.099,156.493,-17.078,178.726,1.34033,-145.107,272
1569672313,289.099,156.493,-17.078,178.726,1.34033,-145.107,272
1569672313,289.099,156.493,-17.078,178.726,1.34033,-145.107,272
1569672313,289.099,156.493,-17.078,178.726,1.34033,-145.107,268
1569672313,289.099,156.493,-17.078,178.726,1.34033,-145.107,268
1569672313,289.099,156.493,-17.078,178.726,1.34033,-145.107,268
1569672313,289.099,156.493,-17.078,178.726,1.34033,-145.107,268
1569672313,289.099,156.493,-17.078,178.726,1.34033,-145.107,268
1569672313,289.099,156.493,-17.078,178.726,1.34033,-145.129,264
1569672313,289.099,156.493,-17.078,178.726,1.34033,-145.129,264
1569672313,289.099,156.493,-17.078,178.726,1.34033,-145.129,264
1569672313,289.099,156.493,-17.078,178.726,1.34033,-145.129,264
1569672313,289.099,156.493,-17.078,178.726,1.34033,-145.129,264
1569672313,289.099,156.493,-17.078,178.726,1.34033,-145.129,264
1569672313,289.099,156.493,-17.078,178.726,1.34033,-145.129,264
1569672313,289.099,156.493,-17.078,178.726,1.34033,-145.129,264
1569672313,289.099,156.493,-17.078,178.726,1.34033,-145.129,264
1569672313,289.099,156.493,-17.078,178.726,1.34033,-145.129,264
1569672313,289.099,156.493,-17.078,178.726,1.34033,-145.129,264
1569672313,289.099,156.493,-17.078,178.726,1.34033,-145.129,264
1569672313,289.099,156.493,-17.078,178.726,1.34033,-145.129,264
1569672313,289.099,156.493,-17.078,178.726,1.34033,-145.129,264
1569672313,289.099,156.493,-17.078,178.726,1.34033,-145.129,264
1569672313,289.099,156.493,-17.078,178.726,1.34033,-145.129,264
1569672313,289.099,156.493,-17.078,178.726,1.34033,-145.129,264
1569672313,289.099,156.493,-17.078,178.726,1.34033,-145.129,264
1569672314,289.099,156.493,-17.078,178.726,1.34033,-145.129,264
1569672314,289.099,156.493,-17.078,178.704,1.3623,-145.129,264
1569672314,289.099,156.493,-17.078,178.704,1.3623,-145.129,264
1569672314,289.099,156.493,-17.078,178.704,1.3623,-145.129,264
1569672314,289.099,156.493,-17.078,178.704,1.3623,-145.129,264
1569672314,289.099,156.493,-17.078,178.704,1.3623,-145.129,264
1569672314,289.099,156.381,-17.078,178.704,1.3623,-145.129,264
1569672314,289.099,156.381,-17.078,178.704,1.3623,-145.107,268
1569672314,289.099,156.381,-17.078,178.704,1.3623,-145.107,268
1569672314,289.099,156.381,-17.078,178.704,1.3623,-145.107,268
1569672314,289.099,156.381,-17.078,178.704,1.3623,-145.107,268
1569672314,289.099,156.381,-17.078,178.704,1.3623,-145.107,268
1569672314,289.099,156.381,-17.078,178.704,1.3623,-145.107,268
1569672314,289.099,156.381,-17.078,178.704,1.3623,-145.107,268
1569672314,289.099,156.381,-17.078,178.704,1.3623,-145.107,268
1569672314,289.099,156.381,-17.078,178.704,1.3623,-145.107,268
1569672314,289.099,156.493,-17.078,178.704,1.3623,-145.107,268
1569672314,289.099,156.493,-17.078,178.704,1.3623,-145.107,268
1569672314,289.099,156.493,-17.078,178.704,1.3623,-145.107,268
1569672314,289.099,156.493,-17.078,178.704,1.3623,-145.107,268
1569672314,289.099,156.493,-17.078,178.704,1.3623,-145.107,268
1569672314,288.987,156.493,-17.078,178.704,1.3623,-145.107,268
1569672314,288.987,156.493,-17.078,178.704,1.3623,-145.107,268
1569672314,288.987,156.493,-17.078,178.704,1.3623,-145.129,268
1569672314,288.987,156.493,-17.078,178.704,1.3623,-145.129,268
1569672314,288.987,156.381,-17.078,178.704,1.3623,-145.129,272
1569672314,289.099,156.381,-17.078,178.704,1.3623,-145.129,272
1569672314,289.099,156.381,-17.078,178.704,1.3623,-145.129,272
1569672314,289.099,156.381,-17.078,178.704,1.3623,-145.129,272
1569672314,289.099,156.381,-17.078,178.704,1.3623,-145.129,272
1569672314,289.099,156.381,-17.078,178.704,1.34033,-145.129,272
1569672314,289.099,156.381,-17.078,178.704,1.34033,-145.107,272
1569672314,289.099,156.381,-17.078,178.704,1.34033,-145.107,272
1569672314,289.099,156.381,-17.078,178.704,1.34033,-145.107,272
1569672314,289.099,156.381,-17.078,178.704,1.34033,-145.107,268
1569672314,288.987,156.381,-17.078,178.704,1.34033,-145.107,268
1569672314,288.987,156.381,-17.078,178.704,1.34033,-145.107,268
1569672314,288.987,156.493,-17.078,178.726,1.34033,-145.107,272
1569672314,288.987,156.493,-17.078,178.726,1.34033,-145.107,272
1569672314,288.987,156.493,-17.078,178.726,1.34033,-145.107,272
1569672314,288.987,156.493,-17.078,178.726,1.34033,-145.107,272
1569672314,288.987,156.493,-17.078,178.726,1.34033,-145.107,272
1569672314,288.987,156.493,-17.078,178.726,1.34033,-145.107,272
1569672314,288.987,156.493,-17.078,178.726,1.34033,-145.107,272
1569672314,288.987,156.493,-17.078,178.726,1.34033,-145.107,272
1569672314,288.987,156.493,-17.078,178.726,1.34033,-145.107,272
1569672314,288.987,156.493,-17.078,178.726,1.34033,-145.107,272
1569672314,288.987,156.493,-17.078,178.726,1.34033,-145.107,272
1569672314,288.987,156.493,-17.078,178.726,1.34033,-145.107,272
1569672314,288.987,156.493,-17.078,178.726,1.34033,-145.107,272
1569672314,288.987,156.493,-17.078,178.726,1.34033,-145.107,272
1569672314,288.987,156.493,-17.1896,178.726,1.34033,-145.107,268
1569672314,288.987,156.493,-17.1896,178.726,1.34033,-145.107,268
1569672314,288.987,156.493,-17.1896,178.726,1.34033,-145.107,268
1569672314,288.987,156.493,-17.1896,178.726,1.34033,-145.107,268
1569672314,288.987,156.493,-17.1896,178.726,1.34033,-145.107,268
1569672314,288.987,156.493,-17.1896,178.726,1.34033,-145.107,268
1569672314,288.987,156.493,-17.1896,178.726,1.34033,-145.107,268
1569672314,288.987,156.493,-17.1896,178.726,1.34033,-145.107,268
1569672314,288.987,156.493,-17.1896,178.726,1.34033,-145.107,268
1569672314,288.987,156.493,-17.1896,178.726,1.34033,-145.107,268
1569672314,288.987,156.493,-17.1896,178.726,1.34033,-145.107,268
1569672314,288.987,156.493,-17.1896,178.726,1.34033,-145.107,268
1569672314,288.987,156.493,-17.1896,178.726,1.34033,-145.107,268
1569672314,288.987,156.493,-17.1896,178.726,1.34033,-145.107,268
1569672314,288.987,156.493,-17.1896,178.726,1.34033,-145.107,268
1569672314,288.987,156.493,-17.1896,178.726,1.34033,-145.107,268
1569672314,288.987,156.493,-17.1896,178.726,1.34033,-145.107,268
1569672314,288.987,156.493,-17.1896,178.726,1.34033,-145.107,268
1569672314,288.987,156.493,-17.1896,178.726,1.34033,-145.107,268
1569672314,288.987,156.493,-17.1896,178.726,1.34033,-145.107,268
1569672314,288.987,156.493,-17.1896,178.726,1.34033,-145.107,268
1569672314,288.987,156.493,-17.1896,178.726,1.34033,-145.107,268
1569672314,289.099,156.493,-17.1896,178.726,1.34033,-145.107,268
1569672314,289.099,156.493,-17.078,178.726,1.34033,-145.107,268
1569672314,289.099,156.493,-17.078,178.726,1.34033,-145.107,264
1569672314,289.099,156.493,-17.078,178.726,1.34033,-145.107,264
1569672314,289.099,156.493,-17.078,178.726,1.34033,-145.107,264
1569672314,289.099,156.493,-17.078,178.726,1.34033,-145.107,264
1569672314,289.099,156.493,-17.078,178.726,1.34033,-145.107,264
1569672314,289.099,156.493,-17.078,178.726,1.34033,-145.107,264
1569672314,289.099,156.493,-17.078,178.726,1.34033,-145.107,264
1569672314,289.099,156.493,-17.078,178.726,1.34033,-145.107,264
1569672314,288.987,156.493,-17.078,178.726,1.34033,-145.107,264
1569672314,288.987,156.493,-17.078,178.726,1.34033,-145.107,264
1569672314,288.987,156.493,-17.078,178.726,1.34033,-145.107,264
1569672314,288.987,156.493,-17.078,178.726,1.34033,-145.107,264
1569672314,288.987,156.493,-17.078,178.726,1.34033,-145.107,264
