time,x,y,z,ax,ay,az,q
1569683101,281.732,-95.8825,-15.2921,179.824,2.04346,-144.888,408
1569683101,281.732,-95.8825,-15.2921,179.824,2.04346,-144.888,408
1569683101,281.732,-95.8825,-15.2921,179.824,2.04346,-144.888,408
1569683101,281.732,-95.8825,-15.2921,179.824,2.04346,-144.888,408
1569683101,281.732,-95.8825,-15.2921,179.824,2.04346,-144.866,408
1569683101,281.732,-95.8825,-15.2921,179.824,2.04346,-144.866,408
1569683101,281.732,-95.8825,-15.2921,179.824,2.04346,-144.866,412
1569683101,281.732,-95.8825,-15.2921,179.824,2.04346,-144.866,412
1569683101,281.732,-95.8825,-15.2921,179.824,2.04346,-144.866,412
1569683101,281.732,-95.8825,-15.2921,179.824,2.04346,-144.866,412
1569683101,281.732,-95.8825,-15.2921,179.824,2.04346,-144.866,412
1569683101,281.732,-95.8825,-15.2921,179.824,2.04346,-144.866,412
1569683101,281.732,-95.8825,-15.2921,179.824,2.04346,-144.866,412
1569683101,281.732,-95.8825,-15.2921,179.824,2.04346,-144.866,412
1569683101,281.732,-95.8825,-15.2921,179.824,2.04346,-144.866,412
1569683101,281.732,-95.8825,-15.2921,179.824,2.04346,-144.866,412
1569683101,281.732,-95.8825,-15.2921,179.824,2.04346,-144.866,412
1569683101,281.732,-95.8825,-15.2921,179.824,2.04346,-144.866,412
1569683101,281.732,-95.8825,-15.2921,179.824,2.04346,-144.866,412
1569683101,281.732,-95.8825,-15.2921,179.824,2.04346,-144.866,412
1569683101,281.732,-95.8825,-15.2921,179.824,2.04346,-144.866,416
1569683101,281.732,-95.8825,-15.2921,179.824,2.04346,-144.866,416
1569683101,281.732,-95.8825,-15.2921,179.824,2.04346,-144.866,416
1569683101,281.732,-95.8825,-15.2921,179.824,2.04346,-144.866,416
1569683101,281.732,-95.8825,-15.2921,179.824,2.04346,-144.866,416
1569683101,281.732,-95.8825,-15.2921,179.824,2.04346,-144.866,416
1569683101,281.732,-95.8825,-15.2921,179.824,2.04346,-144.866,416
1569683101,281.732,-95.8825,-15.2921,179.824,2.04346,-144.866,416
1569683101,281.732,-95.8825,-15.2921,179.824,2.04346,-144.866,416
1569683101,281.732,-95.8825,-15.2921,179.824,2.06543,-144.866,416
1569683101,281.732,-95.8825,-15.2921,179.824,2.06543,-144.866,416
1569683101,281.732,-95.8825,-15.2921,179.824,2.06543,-144.866,416
1569683101,281.732,-95.8825,-15.2921,179.824,2.06543,-144.866,416
1569683101,281.732,-95.8825,-15.2921,179.824,2.06543,-144.866,416
1569683101,281.732,-95.8825,-15.2921,179.824,2.06543,-144.866,416
1569683101,281.732,-95.8825,-15.2921,179.824,2.06543,-144.866,416
1569683101,281.732,-95.8825,-15.2921,179.824,2.06543,-144.866,416
1569683101,281.732,-95.8825,-15.2921,179.824,2.06543,-144.866,416
1569683101,281.732,-95.8825,-15.2921,179.824,2.06543,-144.866,416
1569683101,281.732,-95.8825,-15.2921,179.824,2.06543,-144.866,416
1569683101,281.732,-95.8825,-15.2921,179.824,2.06543,-144.866,416
1569683101,281.732,-95.8825,-15.2921,179.824,2.06543,-144.866,416
1569683101,281.732,-95.8825,-15.2921,179.824,2.06543,-144.866,416
1569683101,281.732,-95.8825,-15.2921,179.824,2.06543,-144.866,416
1569683101,281.732,-95.8825,-15.2921,179.824,2.04346,-144.866,416
1569683101,281.732,-95.8825,-15.2921,179.824,2.04346,-144.866,416
1569683101,281.732,-95.8825,-15.2921,179.824,2.04346,-144.866,416
1569683101,281.732,-95.8825,-15.2921,179.824,2.04346,-144.866,416
1569683101,281.732,-95.8825,-15.2921,179.824,2.04346,-144.866,416
1569683101,281.732,-95.8825,-15.2921,179.824,2.04346,-144.888,416
1569683101,281.732,-95.8825,-15.2921,179.824,2.04346,-144.888,416
1569683101,281.732,-95.8825,-15.2921,179.824,2.04346,-144.888,416
1569683101,281.732,-95.8825,-15.2921,179.824,2.04346,-144.888,416
1569683101,281.732,-95.8825,-15.2921,179.824,2.04346,-144.888,416
1569683101,281.62,-95.8825,-15.2921,179.824,2.06543,-144.888,416
1569683101,281.62,-95.8825,-15.2921,179.824,2.06543,-144.888,416
1569683101,281.62,-95.8825,-15.2921,179.824,2.06543,-144.888,416
1569683101,281.62,-95.8825,-15.2921,179.824,2.06543,-144.888,416
1569683101,281.62,-95.8825,-15.2921,179.824,2.06543,-144.888,416
1569683101,281.62,-95.8825,-15.2921,179.824,2.06543,-144.888,416
1569683101,281.62,-95.8825,-15.2921,179.824,2.06543,-144.888,416
1569683101,281.62,-95.8825,-15.2921,179.824,2.04346,-144.888,416
1569683101,281.62,-95.8825,-15.2921,179.824,2.04346,-144.888,416
1569683101,281.62,-95.7709,-15.2921,179.824,2.04346,-144.888,416
1569683101,281.62,-95.7709,-15.2921,179.824,2.04346,-144.888,416
1569683101,281.62,-95.7709,-15.2921,179.824,2.04346,-144.888,416
1569683101,281.62,-95.7709,-15.2921,179.824,2.04346,-144.888,416
1569683101,281.62,-95.7709,-15.2921,179.824,2.04346,-144.888,416
1569683101,281.62,-95.7709,-15.2921,179.824,2.04346,-144.888,416
1569683101,281.62,-95.7709,-15.2921,179.824,2.04346,-144.888,416
1569683101,281.62,-95.7709,-15.2921,179.824,2.04346,-144.888,416
1569683101,281.62,-95.7709,-15.2921,179.824,2.04346,-144.888,416
1569683101,281.62,-95.7709,-15.2921,179.824,2.04346,-144.888,416
1569683101,281.62,-95.7709,-15.2921,179.824,2.04346,-144.888,416
1569683101,281.62,-95.8825,-15.2921,179.824,2.04346,-144.888,416
1569683101,281.62,-95.8825,-15.2921,179.824,2.04346,-144.888,416
1569683101,281.62,-95.8825,-15.2921,179.824,2.04346,-144.888,416
1569683101,281.62,-95.8825,-15.2921,179.824,2.04346,-144.888,416
1569683101,281.62,-95.8825,-15.2921,179.824,2.04346,-144.888,416
1569683101,281.62,-95.8825,-15.2921,179.824,2.04346,-144.888,416
1569683101,281.62,-95.8825,-15.2921,179.824,2.04346,-144.888,416
1569683101,281.62,-95.8825,-15.2921,179.824,2.04346,-144.888,416
1569683101,281.62,-95.8825,-15.2921,179.824,2.04346,-144.888,416
1569683101,281.62,-95.8825,-15.2921,179.824,2.04346,-144.888,416
1569683101,281.732,-95.8825,-15.2921,179.824,2.04346,-144.888,416
1569683101,281.732,-95.8825,-15.2921,179.824,2.06543,-144.888,416
1569683101,281.732,-95.8825,-15.2921,179.824,2.06543,-144.888,416
1569683101,281.732,-95.8825,-15.2921,179.824,2.06543,-144.888,416
1569683101,281.732,-95.8825,-15.2921,179.824,2.06543,-144.888,416
1569683101,281.732,-95.8825,-15.2921,179.824,2.06543,-144.888,416
1569683101,281.732,-95.8825,-15.2921,179.824,2.06543,-144.888,416
1569683101,281.732,-95.8825,-15.2921,179.824,2.06543,-144.888,416
1569683101,281.732,-95.8825,-15.2921,179.824,2.06543,-144.888,416
1569683101,281.732,-95.8825,-15.2921,179.824,2.06543,-144.888,416
1569683101,281.732,-95.8825,-15.2921,179.824,2.06543,-144.888,416
1569683101,281.732,-95.8825,-15.2921,179.824,2.06543,-144.888,416
1569683102,281.732,-95.8825,-15.2921,179.824,2.06543,-144.888,416
1569683102,281.732,-95.8825,-15.2921,179.824,2.06543,-144.888,416
1569683102,281.732,-95.8825,-15.2921,179.824,2.06543,-144.888,416
1569683102,281.732,-95.8825,-15.2921,179.824,2.06543,-144.888,416
1569683102,281.732,-95.8825,-15.2921,179.824,2.06543,-144.888,416
1569683102,281.732,-95.8825,-15.2921,179.824,2.06543,-144.888,416
1569683102,281.732,-95.8825,-15.2921,179.824,2.06543,-144.888,416
1569683102,281.732,-95.8825,-15.2921,179.824,2.06543,-144.888,416
1569683102,281.732,-95.8825,-15.2921,179.824,2.06543,-144.888,416
1569683102,281.732,-95.8825,-15.2921,179.824,2.06543,-144.888,416
1569683102,281.732,-95.8825,-15.2921,179.824,2.06543,-144.888,416
1569683102,281.732,-95.8825,-15.2921,179.824,2.06543,-144.888,412
1569683102,281.732,-95.8825,-15.2921,179.824,2.06543,-144.888,412
1569683102,281.732,-95.8825,-15.2921,179.824,2.06543,-144.888,412
1569683102,281.732,-95.8825,-15.2921,179.824,2.06543,-144.888,412
1569683102,281.732,-95.8825,-15.2921,179.824,2.04346,-144.888,412
1569683102,281.732,-95.8825,-15.2921,179.824,2.04346,-144.888,412
1569683102,281.732,-95.8825,-15.2921,179.824,2.04346,-144.888,412
1569683102,281.732,-95.8825,-15.2921,179.824,2.04346,-144.888,412
1569683102,281.732,-95.8825,-15.2921,179.824,2.04346,-144.888,412
1569683102,281.732,-95.8825,-15.2921,179.824,2.04346,-144.888,412
1569683102,281.732,-95.8825,-15.2921,179.824,2.04346,-144.888,412
1569683102,281.732,-95.7709,-15.2921,179.824,2.04346,-144.888,412
1569683102,281.732,-95.7709,-15.2921,179.824,2.04346,-144.888,412
1569683102,281.732,-95.7709,-15.2921,179.824,2.04346,-144.888,412
1569683102,281.732,-95.7709,-15.2921,179.846,2.04346,-144.888,412
1569683102,281.732,-95.7709,-15.2921,179.846,2.04346,-144.888,412
1569683102,281.732,-95.7709,-15.2921,179.846,2.06543,-144.888,412
1569683102,281.732,-95.7709,-15.2921,179.846,2.06543,-144.888,412
1569683102,281.732,-95.7709,-15.2921,179.846,2.06543,-144.888,412
1569683102,281.732,-95.7709,-15.2921,179.846,2.06543,-144.888,412
1569683102,281.732,-95.7709,-15.2921,179.846,2.06543,-144.888,412
1569683102,281.732,-95.7709,-15.2921,179.846,2.06543,-144.888,412
1569683102,281.732,-95.7709,-15.2921,179.846,2.06543,-144.888,412
1569683102,281.732,-95.7709,-15.2921,179.846,2.06543,-144.888,412
1569683102,281.732,-95.7709,-15.2921,179.824,2.06543,-144.888,412
1569683102,281.732,-95.7709,-15.2921,179.824,2.06543,-144.888,412
1569683102,281.732,-95.7709,-15.2921,179.824,2.06543,-144.888,412
1569683102,281.732,-95.7709,-15.2921,179.824,2.06543,-144.888,416
1569683102,281.732,-95.7709,-15.2921,179.824,2.06543,-144.888,416
1569683102,281.732,-95.7709,-15.2921,179.824,2.06543,-144.888,416
1569683102,281.732,-95.7709,-15.2921,179.824,2.06543,-144.888,416
1569683102,281.732,-95.7709,-15.2921,179.824,2.06543,-144.888,416
1569683102,281.732,-95.7709,-15.2921,179.824,2.06543,-144.888,416
1569683102,281.732,-95.7709,-15.2921,179.824,2.06543,-144.888,416
1569683102,281.732,-95.7709,-15.2921,179.824,2.06543,-144.888,416
1569683102,281.732,-95.7709,-15.2921,179.824,2.04346,-144.888,416
1569683102,281.732,-95.7709,-15.2921,179.824,2.04346,-144.888,416
1569683102,281.732,-95.7709,-15.2921,179.824,2.04346,-144.888,416
1569683102,281.732,-95.7709,-15.2921,179.824,2.04346,-144.888,416
1569683102,281.732,-95.7709,-15.2921,179.824,2.04346,-144.888,416
1569683102,281.732,-95.7709,-15.2921,179.846,2.04346,-144.888,416
1569683102,281.732,-95.7709,-15.2921,179.846,2.04346,-144.888,416
1569683102,281.732,-95.7709,-15.2921,179.846,2.04346,-144.888,416
1569683102,281.732,-95.7709,-15.2921,179.846,2.04346,-144.888,416
1569683102,281.732,-95.7709,-15.2921,179.846,2.04346,-144.888,416
1569683102,281.732,-95.7709,-15.2921,179.846,2.04346,-144.888,416
1569683102,281.732,-95.7709,-15.2921,179.846,2.04346,-144.888,416
1569683102,281.732,-95.7709,-15.2921,179.846,2.04346,-144.888,416
1569683102,281.732,-95.7709,-15.2921,179.846,2.04346,-144.888,416
1569683102,281.732,-95.7709,-15.2921,179.846,2.04346,-144.888,416
1569683102,281.732,-95.7709,-15.2921,179.846,2.04346,-144.888,416
1569683102,281.732,-95.7709,-15.2921,179.846,2.04346,-144.888,412
1569683102,281.732,-95.7709,-15.2921,179.846,2.04346,-144.888,412
1569683102,281.732,-95.7709,-15.2921,179.846,2.04346,-144.888,412
1569683102,281.732,-95.7709,-15.2921,179.846,2.04346,-144.888,412
1569683102,281.732,-95.7709,-15.2921,179.846,2.04346,-144.888,412
1569683102,281.732,-95.7709,-15.2921,179.846,2.04346,-144.888,412
1569683102,281.732,-95.7709,-15.2921,179.846,2.04346,-144.888,412
1569683102,281.732,-95.7709,-15.2921,179.846,2.04346,-144.888,412
1569683102,281.732,-95.7709,-15.2921,179.846,2.04346,-144.888,412
1569683102,281.732,-95.7709,-15.2921,179.846,2.04346,-144.888,412
1569683102,281.732,-95.7709,-15.2921,179.846,2.04346,-144.888,412
1569683102,281.732,-95.7709,-15.2921,179.846,2.04346,-144.888,412
1569683102,281.732,-95.7709,-15.2921,179.846,2.04346,-144.888,412
1569683102,281.732,-95.7709,-15.2921,179.846,2.04346,-144.888,412
1569683102,281.732,-95.7709,-15.2921,179.846,2.04346,-144.888,412
1569683102,281.732,-95.7709,-15.2921,179.846,2.04346,-144.888,412
1569683102,281.732,-95.7709,-15.2921,179.846,2.04346,-144.888,412
1569683102,281.732,-95.7709,-15.2921,179.846,2.04346,-144.888,412
1569683102,281.732,-95.7709,-15.2921,179.846,2.04346,-144.888,412
1569683102,281.732,-95.7709,-15.2921,179.846,2.04346,-144.888,412
1569683102,281.732,-95.7709,-15.2921,179.846,2.04346,-144.888,412
1569683102,281.732,-95.7709,-15.2921,179.846,2.04346,-144.888,412
1569683102,281.732,-95.7709,-15.2921,179.846,2.06543,-144.888,412
1569683102,281.732,-95.7709,-15.2921,179.846,2.06543,-144.888,412
1569683102,281.732,-95.7709,-15.2921,179.846,2.06543,-144.888,412
1569683102,281.732,-95.7709,-15.2921,179.846,2.06543,-144.888,412
1569683102,281.732,-95.7709,-15.2921,179.846,2.06543,-144.888,412
1569683102,281.732,-95.7709,-15.2921,179.846,2.06543,-144.888,412
1569683102,281.732,-95.7709,-15.2921,179.846,2.06543,-144.888,412
1569683102,281.732,-95.7709,-15.2921,179.846,2.06543,-144.888,412
1569683102,281.732,-95.7709,-15.2921,179.846,2.06543,-144.888,412
1569683102,281.732,-95.7709,-15.2921,179.846,2.06543,-144.888,412
1569683102,281.732,-95.7709,-15.2921,179.846,2.06543,-144.888,412
1569683102,281.732,-95.7709,-15.2921,179.846,2.06543,-144.888,412
1569683102,281.732,-95.7709,-15.2921,179.846,2.06543,-144.888,412
1569683102,281.732,-95.7709,-15.2921,179.846,2.06543,-144.888,412
1569683102,281.732,-95.7709,-15.2921,179.846,2.06543,-144.888,412
1569683102,281.732,-95.7709,-15.2921,179.846,2.06543,-144.888,412
1569683103,281.732,-95.7709,-15.2921,179.846,2.06543,-144.888,412
1569683103,281.732,-95.7709,-15.2921,179.846,2.06543,-144.888,412
1569683103,281.732,-95.7709,-15.2921,179.846,2.06543,-144.888,412
1569683103,281.732,-95.7709,-15.2921,179.846,2.06543,-144.888,408
1569683103,281.732,-95.7709,-15.2921,179.846,2.06543,-144.888,408
1569683103,281.732,-95.7709,-15.2921,179.846,2.04346,-144.888,408
1569683103,281.732,-95.8825,-15.2921,179.846,2.04346,-144.888,408
1569683103,281.732,-95.8825,-15.2921,179.824,2.04346,-144.888,408
1569683103,281.732,-95.8825,-15.2921,179.824,2.04346,-144.888,408
1569683103,281.732,-95.8825,-15.2921,179.824,2.04346,-144.888,412
1569683103,281.732,-95.8825,-15.2921,179.824,2.04346,-144.888,412
1569683103,281.732,-95.8825,-15.2921,179.824,2.04346,-144.888,412
1569683103,281.732,-95.8825,-15.2921,179.824,2.04346,-144.888,412
1569683103,281.732,-95.8825,-15.2921,179.824,2.04346,-144.888,412
1569683103,281.732,-95.8825,-15.2921,179.824,2.04346,-144.888,412
1569683103,281.732,-95.8825,-15.2921,179.824,2.04346,-144.888,412
1569683103,281.732,-95.8825,-15.2921,179.824,2.04346,-144.888,412
1569683103,281.732,-95.8825,-15.2921,179.824,2.04346,-144.888,412
1569683103,281.732,-95.8825,-15.2921,179.824,2.04346,-144.888,412
1569683103,281.732,-95.8825,-15.2921,179.824,2.04346,-144.888,412
1569683103,281.732,-95.8825,-15.2921,179.824,2.04346,-144.888,412
1569683103,281.732,-95.8825,-15.2921,179.824,2.04346,-144.888,412
1569683103,281.732,-95.8825,-15.2921,179.824,2.04346,-144.888,412
1569683103,281.732,-95.8825,-15.2921,179.824,2.04346,-144.888,412
1569683103,281.732,-95.8825,-15.2921,179.824,2.04346,-144.888,412
1569683103,281.732,-95.8825,-15.2921,179.824,2.04346,-144.888,416
1569683103,281.732,-95.8825,-15.2921,179.824,2.04346,-144.888,416
1569683103,281.732,-95.8825,-15.2921,179.824,2.04346,-144.888,416
1569683103,281.732,-95.7709,-15.2921,179.824,2.04346,-144.888,416
1569683103,281.732,-95.7709,-15.2921,179.824,2.04346,-144.888,416
1569683103,281.732,-95.7709,-15.2921,179.824,2.04346,-144.888,416
1569683103,281.732,-95.7709,-15.2921,179.824,2.04346,-144.888,416
1569683103,281.732,-95.7709,-15.2921,179.824,2.04346,-144.888,416
1569683103,281.732,-95.7709,-15.2921,179.824,2.04346,-144.888,416
1569683103,281.732,-95.7709,-15.2921,179.824,2.04346,-144.888,416
1569683103,281.732,-95.7709,-15.2921,179.824,2.04346,-144.888,416
1569683103,281.732,-95.7709,-15.2921,179.824,2.04346,-144.888,416
1569683103,281.732,-95.7709,-15.2921,179.824,2.04346,-144.888,416
1569683103,281.732,-95.7709,-15.2921,179.824,2.04346,-144.888,416
1569683103,281.732,-95.7709,-15.2921,179.824,2.04346,-144.888,416
1569683103,281.732,-95.7709,-15.2921,179.824,2.04346,-144.888,416
1569683103,281.732,-95.7709,-15.2921,179.824,2.04346,-144.888,416
1569683103,281.732,-95.8825,-15.2921,179.824,2.04346,-144.888,416
1569683103,281.732,-95.8825,-15.2921,179.824,2.04346,-144.888,420
1569683103,281.732,-95.8825,-15.2921,179.824,2.04346,-144.888,420
1569683103,281.732,-95.8825,-15.2921,179.824,2.04346,-144.888,420
1569683103,281.732,-95.8825,-15.2921,179.824,2.04346,-144.888,420
1569683103,281.732,-95.8825,-15.2921,179.824,2.04346,-144.888,420
1569683103,281.732,-95.8825,-15.2921,179.824,2.04346,-144.888,420
1569683103,281.732,-95.8825,-15.2921,179.824,2.04346,-144.888,420
1569683103,281.732,-95.8825,-15.2921,179.824,2.04346,-144.888,420
1569683103,281.62,-95.8825,-15.2921,179.824,2.04346,-144.888,420
1569683103,281.62,-95.8825,-15.2921,179.824,2.04346,-144.888,420
1569683103,281.62,-95.8825,-15.2921,179.802,2.04346,-144.888,420
1569683103,281.62,-95.8825,-15.2921,179.802,2.04346,-144.888,420
1569683103,281.62,-95.8825,-15.2921,179.802,2.04346,-144.888,420
1569683103,281.62,-95.8825,-15.2921,179.802,2.04346,-144.888,420
1569683103,281.732,-95.8825,-15.2921,179.802,2.04346,-144.888,420
1569683103,281.732,-95.8825,-15.2921,179.824,2.04346,-144.888,420
1569683103,281.732,-95.8825,-15.2921,179.824,2.04346,-144.888,420
1569683103,281.732,-95.8825,-15.2921,179.824,2.04346,-144.888,420
1569683103,281.732,-95.8825,-15.2921,179.824,2.04346,-144.888,420
1569683103,281.732,-95.8825,-15.2921,179.824,2.04346,-144.888,420
1569683103,281.732,-95.8825,-15.2921,179.824,2.04346,-144.888,420
1569683103,281.732,-95.8825,-15.2921,179.824,2.04346,-144.888,420
1569683103,281.732,-95.8825,-15.2921,179.824,2.04346,-144.888,416
1569683103,281.732,-95.8825,-15.2921,179.824,2.04346,-144.888,416
1569683103,281.732,-95.8825,-15.2921,179.824,2.04346,-144.888,416
1569683103,281.732,-95.8825,-15.2921,179.802,2.04346,-144.888,416
1569683103,281.732,-95.8825,-15.2921,179.802,2.04346,-144.888,416
1569683103,281.732,-95.8825,-15.2921,179.802,2.04346,-144.888,416
1569683103,281.732,-95.8825,-15.2921,179.802,2.04346,-144.888,416
1569683103,281.732,-95.8825,-15.2921,179.802,2.04346,-144.888,412
1569683103,281.732,-95.8825,-15.2921,179.802,2.04346,-144.888,412
1569683103,281.732,-95.8825,-15.2921,179.802,2.04346,-144.888,412
1569683103,281.732,-95.8825,-15.2921,179.802,2.04346,-144.888,412
1569683103,281.732,-95.8825,-15.2921,179.802,2.04346,-144.888,412
1569683103,281.732,-95.8825,-15.2921,179.824,2.04346,-144.888,412
1569683103,281.732,-95.8825,-15.2921,179.824,2.04346,-144.888,412
1569683103,281.732,-95.8825,-15.2921,179.824,2.04346,-144.888,412
1569683103,281.732,-95.8825,-15.2921,179.824,2.04346,-144.888,408
1569683103,281.732,-95.8825,-15.2921,179.824,2.04346,-144.888,408
1569683103,281.732,-95.8825,-15.2921,179.824,2.04346,-144.888,408
1569683103,281.732,-95.8825,-15.2921,179.824,2.04346,-144.888,408
1569683103,281.732,-95.8825,-15.2921,179.824,2.04346,-144.888,408
1569683103,281.732,-95.8825,-15.2921,179.824,2.04346,-144.888,408
1569683103,281.732,-95.8825,-15.2921,179.824,2.04346,-144.888,408
1569683103,281.732,-95.8825,-15.2921,179.824,2.06543,-144.888,408
1569683103,281.732,-95.8825,-15.2921,179.824,2.06543,-144.888,408
1569683103,281.732,-95.8825,-15.2921,179.824,2.06543,-144.888,408
1569683103,281.732,-95.8825,-15.2921,179.824,2.06543,-144.888,408
1569683103,281.732,-95.8825,-15.2921,179.824,2.06543,-144.888,408
1569683103,281.732,-95.8825,-15.2921,179.824,2.06543,-144.888,408
1569683103,281.732,-95.8825,-15.2921,179.824,2.06543,-144.888,412
1569683103,281.732,-95.8825,-15.2921,179.824,2.06543,-144.888,412
1569683103,281.732,-95.8825,-15.2921,179.824,2.06543,-144.888,412
1569683103,281.732,-95.8825,-15.2921,179.824,2.06543,-144.888,412
1569683103,281.732,-95.8825,-15.2921,179.824,2.06543,-144.888,412
1569683103,281.732,-95.8825,-15.2921,179.824,2.06543,-144.888,412
1569683103,281.732,-95.8825,-15.2921,179.824,2.06543,-144.888,412
1569683104,281.732,-95.8825,-15.2921,179.824,2.06543,-144.888,412
1569683104,281.732,-95.8825,-15.2921,179.824,2.06543,-144.888,412
1569683104,281.732,-95.8825,-15.2921,179.824,2.06543,-144.888,412
1569683104,281.732,-95.8825,-15.2921,179.824,2.06543,-144.888,412
1569683104,281.732,-95.8825,-15.2921,179.824,2.06543,-144.888,412
1569683104,281.732,-95.8825,-15.2921,179.824,2.06543,-144.888,412
1569683104,281.732,-95.8825,-15.2921,179.824,2.06543,-144.888,412
1569683104,281.732,-95.8825,-15.2921,179.824,2.06543,-144.888,412
1569683104,281.732,-95.8825,-15.2921,179.824,2.06543,-144.888,412
1569683104,281.732,-95.8825,-15.2921,179.824,2.04346,-144.888,412
1569683104,281.732,-95.8825,-15.2921,179.824,2.04346,-144.888,412
1569683104,281.732,-95.8825,-15.2921,179.824,2.04346,-144.888,412
1569683104,281.732,-95.8825,-15.2921,179.824,2.04346,-144.888,412
1569683104,281.732,-95.8825,-15.2921,179.824,2.04346,-144.888,412
1569683104,281.732,-95.8825,-15.2921,179.824,2.06543,-144.888,412
1569683104,281.732,-95.8825,-15.2921,179.824,2.06543,-144.888,412
1569683104,281.732,-95.8825,-15.2921,179.824,2.06543,-144.888,412
1569683104,281.732,-95.8825,-15.2921,179.824,2.06543,-144.888,412
1569683104,281.732,-95.8825,-15.2921,179.824,2.06543,-144.888,412
1569683104,281.732,-95.8825,-15.2921,179.824,2.06543,-144.888,412
1569683104,281.732,-95.8825,-15.2921,179.824,2.06543,-144.888,412
1569683104,281.732,-95.7709,-15.2921,179.846,2.06543,-144.888,412
1569683104,281.732,-95.7709,-15.2921,179.846,2.06543,-144.888,412
1569683104,281.732,-95.7709,-15.2921,179.846,2.06543,-144.888,412
1569683104,281.732,-95.7709,-15.2921,179.846,2.06543,-144.888,412
1569683104,281.732,-95.7709,-15.2921,179.846,2.04346,-144.888,412
1569683104,281.732,-95.7709,-15.2921,179.846,2.04346,-144.888,412
1569683104,281.732,-95.7709,-15.2921,179.846,2.04346,-144.888,412
1569683104,281.732,-95.8825,-15.2921,179.846,2.04346,-144.888,412
1569683104,281.732,-95.8825,-15.2921,179.846,2.04346,-144.888,412
1569683104,281.732,-95.8825,-15.2921,179.846,2.04346,-144.888,412
1569683104,281.732,-95.8825,-15.2921,179.846,2.04346,-144.888,412
1569683104,281.732,-95.8825,-15.2921,179.846,2.04346,-144.888,412
1569683104,281.732,-95.7709,-15.2921,179.846,2.04346,-144.888,412
1569683104,281.732,-95.7709,-15.2921,179.846,2.04346,-144.888,412
1569683104,281.732,-95.7709,-15.2921,179.846,2.04346,-144.888,412
1569683104,281.732,-95.7709,-15.2921,179.846,2.04346,-144.888,412
1569683104,281.732,-95.7709,-15.2921,179.846,2.04346,-144.888,412
1569683104,281.732,-95.7709,-15.2921,179.846,2.04346,-144.888,412
1569683104,281.732,-95.7709,-15.2921,179.846,2.02148,-144.888,412
1569683104,281.732,-95.7709,-15.2921,179.846,2.04346,-144.888,412
1569683104,281.732,-95.7709,-15.2921,179.846,2.04346,-144.888,412
1569683104,281.732,-95.7709,-15.2921,179.846,2.04346,-144.888,412
1569683104,281.732,-95.7709,-15.2921,179.846,2.04346,-144.888,412
1569683104,281.732,-95.7709,-15.2921,179.846,2.04346,-144.888,408
1569683104,281.732,-95.7709,-15.2921,179.846,2.04346,-144.888,408
1569683104,281.732,-95.7709,-15.2921,179.846,2.04346,-144.888,408
1569683104,281.732,-95.7709,-15.2921,179.846,2.04346,-144.888,408
1569683104,281.732,-95.7709,-15.2921,179.846,2.04346,-144.888,408
1569683104,281.732,-95.7709,-15.2921,179.846,2.04346,-144.888,408
1569683104,281.732,-95.7709,-15.2921,179.846,2.04346,-144.888,408
1569683104,281.732,-95.7709,-15.2921,179.846,2.04346,-144.888,408
1569683104,281.732,-95.7709,-15.2921,179.846,2.04346,-144.888,408
1569683104,281.732,-95.7709,-15.2921,179.846,2.04346,-144.888,404
1569683104,281.732,-95.7709,-15.2921,179.846,2.04346,-144.888,404
1569683104,281.732,-95.7709,-15.2921,179.846,2.04346,-144.888,404
1569683104,281.732,-95.7709,-15.2921,179.846,2.04346,-144.888,404
1569683104,281.732,-95.7709,-15.2921,179.846,2.04346,-144.888,404
1569683104,281.732,-95.7709,-15.2921,179.846,2.04346,-144.888,404
1569683104,281.732,-95.7709,-15.2921,179.846,2.04346,-144.888,400
1569683104,281.732,-95.7709,-15.2921,179.846,2.04346,-144.888,400
1569683104,281.732,-95.7709,-15.2921,179.846,2.04346,-144.888,400
1569683104,281.732,-95.7709,-15.2921,179.846,2.04346,-144.888,400
1569683104,281.732,-95.7709,-15.2921,179.846,2.04346,-144.888,400
1569683104,281.732,-95.7709,-15.2921,179.846,2.04346,-144.888,400
1569683104,281.732,-95.7709,-15.2921,179.846,2.04346,-144.888,400
1569683104,281.732,-95.7709,-15.2921,179.846,2.04346,-144.888,400
1569683104,281.732,-95.7709,-15.2921,179.846,2.04346,-144.888,400
1569683104,281.732,-95.7709,-15.2921,179.846,2.04346,-144.888,400
1569683104,281.732,-95.7709,-15.2921,179.846,2.04346,-144.888,400
1569683104,281.732,-95.7709,-15.2921,179.846,2.04346,-144.888,400
1569683104,281.732,-95.7709,-15.2921,179.846,2.04346,-144.888,400
1569683104,281.732,-95.7709,-15.2921,179.846,2.04346,-144.888,400
1569683104,281.732,-95.7709,-15.2921,179.846,2.04346,-144.888,400
1569683104,281.732,-95.8825,-15.2921,179.846,2.04346,-144.888,400
1569683104,281.732,-95.8825,-15.2921,179.846,2.04346,-144.888,400
1569683104,281.732,-95.8825,-15.2921,179.846,2.04346,-144.888,400
1569683104,281.732,-95.8825,-15.2921,179.846,2.04346,-144.888,400
1569683104,281.732,-95.8825,-15.2921,179.846,2.04346,-144.888,400
1569683104,281.732,-95.8825,-15.2921,179.846,2.04346,-144.888,400
1569683104,281.732,-95.8825,-15.2921,179.846,2.04346,-144.888,400
1569683104,281.732,-95.8825,-15.2921,179.846,2.04346,-144.888,400
1569683104,281.732,-95.8825,-15.2921,179.846,2.04346,-144.888,400
1569683104,281.732,-95.8825,-15.2921,179.846,2.04346,-144.888,400
1569683104,281.732,-95.7709,-15.2921,179.846,2.04346,-144.888,400
1569683104,281.732,-95.7709,-15.2921,179.846,2.04346,-144.888,400
1569683104,281.732,-95.7709,-15.2921,179.846,2.04346,-144.888,400
1569683104,281.732,-95.7709,-15.2921,179.846,2.04346,-144.888,400
1569683104,281.732,-95.7709,-15.2921,179.846,2.04346,-144.888,400
1569683104,281.732,-95.7709,-15.2921,179.846,2.04346,-144.888,404
1569683104,281.732,-95.7709,-15.2921,179.846,2.04346,-144.888,404
1569683104,281.732,-95.7709,-15.2921,179.846,2.04346,-144.888,404
1569683104,281.732,-95.7709,-15.2921,179.846,2.04346,-144.888,404
1569683104,281.732,-95.7709,-15.2921,179.846,2.04346,-144.888,404
1569683104,281.732,-95.7709,-15.2921,179.846,2.04346,-144.888,404
1569683104,281.732,-95.7709,-15.2921,179.846,2.04346,-144.888,404
1569683104,281.732,-95.7709,-15.2921,179.846,2.04346,-144.888,404
1569683104,281.732,-95.7709,-15.2921,179.846,2.04346,-144.888,404
1569683104,281.732,-95.7709,-15.2921,179.846,2.04346,-144.888,404
1569683104,281.732,-95.7709,-15.2921,179.846,2.04346,-144.888,404
1569683105,281.732,-95.7709,-15.2921,179.846,2.04346,-144.888,408
1569683105,281.732,-95.7709,-15.2921,179.846,2.04346,-144.888,408
1569683105,281.732,-95.7709,-15.2921,179.846,2.04346,-144.888,408
1569683105,281.732,-95.7709,-15.2921,179.846,2.04346,-144.888,408
1569683105,281.732,-95.7709,-15.2921,179.846,2.04346,-144.888,408
1569683105,281.732,-95.7709,-15.2921,179.846,2.04346,-144.888,408
1569683105,281.732,-95.7709,-15.2921,179.846,2.04346,-144.888,408
1569683105,281.732,-95.7709,-15.2921,179.846,2.04346,-144.888,412
1569683105,281.732,-95.7709,-15.2921,179.846,2.04346,-144.888,412
1569683105,281.732,-95.7709,-15.2921,179.846,2.04346,-144.888,412
1569683105,281.732,-95.7709,-15.2921,179.846,2.04346,-144.888,412
1569683105,281.732,-95.7709,-15.2921,179.846,2.04346,-144.888,412
1569683105,281.732,-95.7709,-15.2921,179.846,2.04346,-144.888,412
1569683105,281.732,-95.7709,-15.2921,179.846,2.04346,-144.888,412
1569683105,281.732,-95.7709,-15.2921,179.846,2.04346,-144.888,412
1569683105,281.732,-95.7709,-15.2921,179.846,2.04346,-144.888,412
1569683105,281.732,-95.7709,-15.2921,179.846,2.04346,-144.888,412
1569683105,281.732,-95.7709,-15.2921,179.846,2.04346,-144.888,416
1569683105,281.732,-95.7709,-15.2921,179.846,2.04346,-144.888,416
1569683105,281.732,-95.7709,-15.2921,179.824,2.04346,-144.888,416
1569683105,281.732,-95.7709,-15.2921,179.824,2.04346,-144.888,416
1569683105,281.732,-95.7709,-15.2921,179.824,2.04346,-144.888,416
1569683105,281.732,-95.7709,-15.2921,179.824,2.04346,-144.888,416
1569683105,281.732,-95.7709,-15.2921,179.824,2.04346,-144.888,416
1569683105,281.732,-95.7709,-15.2921,179.824,2.04346,-144.888,416
1569683105,281.732,-95.7709,-15.2921,179.824,2.04346,-144.888,416
1569683105,281.732,-95.7709,-15.2921,179.824,2.04346,-144.888,416
1569683105,281.732,-95.7709,-15.2921,179.824,2.04346,-144.888,416
1569683105,281.732,-95.7709,-15.2921,179.824,2.04346,-144.888,416
1569683105,281.732,-95.7709,-15.2921,179.824,2.04346,-144.888,420
1569683105,281.732,-95.7709,-15.2921,179.824,2.04346,-144.888,420
1569683105,281.732,-95.7709,-15.2921,179.824,2.04346,-144.888,420
1569683105,281.732,-95.7709,-15.2921,179.824,2.04346,-144.888,420
1569683105,281.732,-95.7709,-15.2921,179.824,2.04346,-144.888,420
1569683105,281.732,-95.7709,-15.2921,179.824,2.04346,-144.888,420
1569683105,281.732,-95.7709,-15.2921,179.824,2.04346,-144.888,420
1569683105,281.732,-95.7709,-15.2921,179.824,2.04346,-144.888,420
1569683105,281.732,-95.7709,-15.2921,179.824,2.04346,-144.888,420
1569683105,281.732,-95.7709,-15.2921,179.824,2.06543,-144.888,420
1569683105,281.732,-95.7709,-15.2921,179.846,2.06543,-144.888,420
1569683105,281.732,-95.7709,-15.2921,179.846,2.06543,-144.888,420
1569683105,281.732,-95.7709,-15.2921,179.846,2.06543,-144.888,416
1569683105,281.732,-95.7709,-15.2921,179.846,2.06543,-144.888,416
1569683105,281.732,-95.7709,-15.2921,179.846,2.06543,-144.888,416
1569683105,281.732,-95.7709,-15.2921,179.846,2.06543,-144.888,416
1569683105,281.732,-95.7709,-15.2921,179.846,2.06543,-144.888,416
1569683105,281.732,-95.7709,-15.2921,179.846,2.06543,-144.888,416
1569683105,281.732,-95.7709,-15.2921,179.846,2.06543,-144.888,416
1569683105,281.732,-95.7709,-15.2921,179.846,2.06543,-144.888,416
1569683105,281.732,-95.7709,-15.2921,179.846,2.06543,-144.888,416
1569683105,281.732,-95.7709,-15.2921,179.846,2.06543,-144.888,416
1569683105,281.732,-95.7709,-15.2921,179.846,2.06543,-144.888,416
1569683105,281.732,-95.7709,-15.2921,179.846,2.06543,-144.888,412
1569683105,281.732,-95.7709,-15.2921,179.846,2.06543,-144.888,412
1569683105,281.732,-95.7709,-15.2921,179.846,2.06543,-144.888,412
1569683105,281.732,-95.7709,-15.2921,179.846,2.06543,-144.888,412
1569683105,281.732,-95.7709,-15.2921,179.824,2.06543,-144.888,412
1569683105,281.732,-95.7709,-15.2921,179.824,2.06543,-144.888,412
1569683105,281.732,-95.7709,-15.2921,179.824,2.06543,-144.888,412
1569683105,281.732,-95.7709,-15.2921,179.824,2.06543,-144.888,412
1569683105,281.732,-95.7709,-15.2921,179.824,2.06543,-144.888,412
1569683105,281.732,-95.7709,-15.2921,179.824,2.06543,-144.888,412
1569683105,281.732,-95.7709,-15.2921,179.824,2.06543,-144.888,412
1569683105,281.732,-95.8825,-15.2921,179.824,2.06543,-144.888,412
1569683105,281.732,-95.8825,-15.2921,179.824,2.06543,-144.888,412
1569683105,281.732,-95.8825,-15.2921,179.824,2.06543,-144.888,412
1569683105,281.732,-95.8825,-15.2921,179.824,2.06543,-144.888,412
1569683105,281.732,-95.8825,-15.2921,179.824,2.06543,-144.888,412
1569683105,281.732,-95.8825,-15.2921,179.824,2.06543,-144.888,412
1569683105,281.732,-95.8825,-15.2921,179.824,2.06543,-144.888,412
1569683105,281.732,-95.8825,-15.2921,179.824,2.06543,-144.888,412
1569683105,281.732,-95.8825,-15.2921,179.824,2.06543,-144.888,408
1569683105,281.732,-95.8825,-15.2921,179.824,2.06543,-144.888,408
1569683105,281.732,-95.8825,-15.2921,179.824,2.06543,-144.888,408
1569683105,281.732,-95.8825,-15.2921,179.824,2.06543,-144.888,408
1569683105,281.732,-95.8825,-15.2921,179.824,2.06543,-144.888,408
1569683105,281.732,-95.8825,-15.2921,179.824,2.06543,-144.888,408
1569683105,281.732,-95.7709,-15.2921,179.824,2.06543,-144.888,408
1569683105,281.732,-95.7709,-15.2921,179.846,2.06543,-144.888,408
1569683105,281.732,-95.7709,-15.2921,179.846,2.06543,-144.888,408
1569683105,281.732,-95.7709,-15.2921,179.846,2.06543,-144.888,408
1569683105,281.732,-95.7709,-15.2921,179.846,2.06543,-144.888,408
1569683105,281.732,-95.7709,-15.2921,179.846,2.04346,-144.888,408
1569683105,281.732,-95.7709,-15.2921,179.846,2.04346,-144.888,408
1569683105,281.732,-95.8825,-15.2921,179.846,2.06543,-144.888,412
1569683105,281.732,-95.8825,-15.2921,179.824,2.06543,-144.888,412
1569683105,281.732,-95.8825,-15.2921,179.824,2.06543,-144.888,412
1569683105,281.732,-95.8825,-15.2921,179.824,2.06543,-144.888,412
1569683105,281.732,-95.8825,-15.2921,179.824,2.06543,-144.888,408
1569683105,281.732,-95.8825,-15.2921,179.824,2.06543,-144.888,408
1569683105,281.732,-95.8825,-15.2921,179.824,2.06543,-144.888,408
1569683105,281.732,-95.8825,-15.2921,179.824,2.06543,-144.888,408
1569683105,281.732,-95.8825,-15.2921,179.824,2.06543,-144.888,408
1569683105,281.732,-95.8825,-15.2921,179.824,2.06543,-144.888,408
1569683105,281.732,-95.8825,-15.2921,179.824,2.06543,-144.888,408
1569683105,281.732,-95.8825,-15.2921,179.824,2.06543,-144.888,408
1569683105,281.732,-95.8825,-15.2921,179.824,2.06543,-144.888,408
1569683105,281.732,-95.8825,-15.2921,179.824,2.06543,-144.888,408
1569683105,281.732,-95.8825,-15.2921,179.824,2.06543,-144.888,408
1569683105,281.732,-95.8825,-15.2921,179.824,2.06543,-144.888,408
1569683106,281.732,-95.8825,-15.2921,179.824,2.06543,-144.888,408
1569683106,281.732,-95.8825,-15.2921,179.824,2.06543,-144.888,408
1569683106,281.732,-95.8825,-15.2921,179.824,2.06543,-144.888,408
1569683106,281.732,-95.8825,-15.2921,179.824,2.06543,-144.888,408
1569683110,297.024,-111.956,-14.8456,-179.978,1.99951,-144.602,456
1569683110,297.024,-111.956,-14.8456,-179.978,1.99951,-144.624,456
1569683110,297.024,-111.956,-14.8456,-179.978,1.99951,-144.624,456
1569683110,297.024,-111.956,-14.8456,-179.978,1.99951,-144.624,456
1569683110,297.024,-111.956,-14.8456,-179.978,1.99951,-144.624,456
1569683110,297.024,-111.956,-14.8456,-179.978,1.99951,-144.624,456
1569683110,297.024,-111.956,-14.8456,-180,1.99951,-144.624,456
1569683110,297.024,-111.956,-14.8456,-180,1.99951,-144.624,456
1569683110,297.024,-111.956,-14.8456,-180,1.99951,-144.624,456
1569683110,297.024,-111.956,-14.8456,-180,1.99951,-144.624,456
1569683110,297.024,-111.956,-14.8456,-180,1.99951,-144.624,456
1569683110,297.024,-111.956,-14.8456,-180,1.99951,-144.624,456
1569683110,297.024,-111.956,-14.8456,-180,1.99951,-144.624,456
1569683110,297.024,-111.956,-14.8456,-180,1.99951,-144.624,456
1569683110,297.024,-111.956,-14.8456,-180,1.99951,-144.624,456
1569683110,297.024,-111.956,-14.8456,-180,1.99951,-144.624,456
1569683110,297.024,-111.956,-14.8456,-180,1.99951,-144.624,456
1569683110,297.024,-111.956,-14.8456,-180,1.99951,-144.624,456
1569683110,297.024,-111.956,-14.8456,-180,1.99951,-144.624,456
1569683110,297.024,-111.956,-14.8456,-180,1.99951,-144.624,456
1569683110,297.024,-111.956,-14.8456,-180,1.99951,-144.624,456
1569683110,297.024,-111.956,-14.8456,-180,1.99951,-144.624,456
1569683110,297.024,-111.956,-14.8456,-180,1.99951,-144.624,456
1569683110,297.024,-111.956,-14.8456,-180,1.99951,-144.602,456
1569683110,297.024,-111.956,-14.8456,-180,1.99951,-144.602,456
1569683110,297.024,-111.956,-14.9572,-179.978,1.99951,-144.602,456
1569683110,297.024,-111.956,-14.9572,-179.978,1.99951,-144.602,456
1569683110,297.024,-111.956,-14.9572,-179.978,1.99951,-144.602,456
1569683110,297.024,-111.956,-14.9572,-179.978,1.99951,-144.602,456
1569683110,297.024,-111.956,-14.9572,-179.978,1.99951,-144.602,456
1569683110,297.024,-111.956,-14.9572,-179.978,1.97754,-144.602,456
1569683110,297.024,-111.956,-14.9572,-179.978,1.97754,-144.602,456
1569683110,297.024,-111.956,-14.9572,-179.978,1.97754,-144.602,456
1569683110,297.024,-111.956,-14.9572,-179.978,1.97754,-144.602,452
1569683110,297.024,-111.956,-14.9572,-179.978,1.97754,-144.602,452
1569683110,297.024,-111.956,-14.9572,-179.978,1.97754,-144.602,452
1569683110,297.024,-111.956,-14.9572,-179.978,1.97754,-144.602,452
1569683110,297.024,-111.956,-14.9572,-180,1.97754,-144.602,452
1569683111,297.024,-111.956,-14.9572,-180,1.97754,-144.602,452
1569683111,297.024,-111.956,-14.9572,-180,1.97754,-144.602,452
1569683111,297.024,-111.956,-14.9572,-180,1.97754,-144.602,448
1569683111,297.024,-111.956,-14.9572,-180,1.99951,-144.602,448
1569683111,297.024,-111.956,-14.9572,-180,1.99951,-144.602,448
1569683111,297.024,-111.956,-14.9572,179.978,1.99951,-144.602,448
1569683111,297.024,-111.956,-14.9572,179.978,1.99951,-144.602,448
1569683111,297.024,-111.956,-14.9572,179.978,1.99951,-144.602,444
1569683111,297.024,-111.956,-14.9572,179.978,1.99951,-144.602,444
1569683111,297.024,-111.956,-14.9572,179.978,1.99951,-144.602,444
1569683111,297.024,-111.956,-14.9572,179.978,1.97754,-144.602,444
1569683111,297.024,-111.956,-14.9572,179.978,1.97754,-144.602,444
1569683111,297.024,-111.956,-14.9572,179.978,1.97754,-144.624,444
1569683111,297.024,-111.956,-14.9572,179.978,1.97754,-144.624,444
1569683111,297.024,-111.956,-14.9572,-180,1.97754,-144.624,444
1569683111,297.024,-111.956,-14.9572,-180,1.97754,-144.624,444
1569683111,297.024,-111.956,-14.9572,-180,1.97754,-144.624,444
1569683111,297.024,-111.956,-14.9572,-180,1.97754,-144.624,444
1569683111,297.024,-111.956,-14.9572,-180,1.97754,-144.624,444
1569683111,297.024,-111.956,-14.9572,-180,1.97754,-144.624,444
1569683111,297.024,-111.956,-14.9572,-180,1.97754,-144.624,444
1569683111,297.024,-111.956,-14.9572,-180,1.97754,-144.624,444
1569683111,297.024,-111.956,-14.9572,-180,1.97754,-144.624,444
1569683111,297.024,-111.956,-14.9572,-180,1.97754,-144.624,444
1569683111,297.024,-111.956,-14.9572,-180,1.97754,-144.624,444
1569683111,297.024,-111.956,-14.9572,-180,1.97754,-144.624,444
1569683111,297.024,-111.956,-14.9572,-179.978,1.97754,-144.624,444
1569683111,297.024,-111.956,-14.9572,-179.978,1.97754,-144.624,444
1569683111,297.024,-111.956,-14.9572,-179.978,1.97754,-144.624,444
1569683111,297.024,-111.956,-14.9572,-179.978,1.97754,-144.624,444
1569683111,297.024,-111.956,-14.9572,-179.978,1.97754,-144.624,444
1569683111,297.024,-111.956,-14.9572,-179.978,1.97754,-144.624,444
1569683111,297.024,-111.956,-14.9572,-179.978,1.97754,-144.624,444
1569683111,297.024,-111.956,-14.9572,-179.978,1.97754,-144.624,444
1569683111,297.024,-111.956,-14.9572,-179.978,1.95557,-144.624,444
1569683111,297.024,-111.956,-14.9572,-179.978,1.95557,-144.624,444
1569683111,297.024,-111.956,-14.9572,-179.978,1.95557,-144.624,444
1569683111,297.024,-111.956,-14.9572,-179.978,1.95557,-144.624,444
1569683111,297.024,-111.956,-15.0688,-179.978,1.95557,-144.624,444
1569683111,297.024,-111.956,-15.0688,-179.978,1.95557,-144.624,444
1569683111,297.024,-111.956,-15.0688,-179.978,1.95557,-144.624,444
1569683111,297.024,-111.956,-15.0688,-179.978,1.95557,-144.624,444
1569683111,297.024,-111.956,-15.0688,-179.978,1.95557,-144.624,444
1569683111,297.024,-111.956,-15.0688,-179.978,1.95557,-144.624,444
1569683111,297.024,-111.956,-15.0688,-179.978,1.95557,-144.624,444
1569683111,297.024,-111.956,-15.0688,-180,1.95557,-144.624,440
1569683111,297.024,-111.956,-15.0688,-180,1.95557,-144.624,440
1569683111,297.024,-111.956,-15.0688,-180,1.95557,-144.624,440
1569683111,297.024,-111.956,-15.0688,-180,1.95557,-144.624,440
1569683111,297.024,-111.956,-15.0688,-180,1.95557,-144.624,440
1569683111,297.024,-111.956,-15.0688,-180,1.95557,-144.624,440
1569683111,297.024,-111.956,-15.0688,-180,1.95557,-144.624,440
1569683111,297.024,-111.956,-14.9572,-180,1.95557,-144.602,440
1569683111,297.024,-111.956,-14.9572,-180,1.95557,-144.602,440
1569683111,297.024,-111.956,-14.9572,-180,1.95557,-144.602,440
1569683111,297.024,-111.956,-14.9572,-180,1.97754,-144.602,440
1569683111,297.024,-111.956,-14.9572,-180,1.97754,-144.602,440
1569683111,297.024,-111.956,-14.9572,-180,1.97754,-144.602,440
1569683111,297.024,-111.956,-14.9572,-180,1.97754,-144.602,440
1569683111,297.024,-111.956,-14.9572,-180,1.97754,-144.602,440
1569683111,297.024,-111.956,-14.9572,-180,1.97754,-144.602,440
1569683111,297.024,-111.956,-14.9572,-180,1.97754,-144.602,440
1569683111,297.024,-111.956,-14.9572,-180,1.97754,-144.602,440
1569683111,297.024,-111.956,-14.9572,-180,1.97754,-144.602,440
1569683111,297.024,-111.956,-14.9572,-180,1.97754,-144.602,440
1569683111,297.024,-111.956,-14.9572,-180,1.97754,-144.602,440
1569683111,297.024,-111.956,-14.9572,-180,1.97754,-144.602,440
1569683111,297.024,-111.956,-14.9572,-180,1.97754,-144.602,436
1569683111,297.024,-111.956,-14.9572,-180,1.97754,-144.602,436
1569683111,297.135,-111.956,-14.9572,-180,1.97754,-144.602,436
1569683111,297.135,-111.956,-14.9572,-180,1.97754,-144.602,436
1569683111,297.135,-111.956,-14.9572,-180,1.97754,-144.602,436
1569683111,297.135,-111.956,-14.9572,-180,1.97754,-144.602,436
1569683111,297.024,-111.956,-14.9572,-180,1.97754,-144.602,436
1569683111,297.024,-111.956,-14.9572,-180,1.97754,-144.602,436
1569683111,297.024,-111.956,-14.9572,-180,1.97754,-144.602,436
1569683111,297.024,-111.956,-14.9572,-180,1.97754,-144.602,436
1569683111,297.024,-111.956,-14.9572,-180,1.97754,-144.602,436
1569683111,297.024,-111.956,-14.9572,-180,1.97754,-144.602,436
1569683111,297.024,-111.956,-14.9572,-180,1.97754,-144.602,436
1569683111,297.024,-111.956,-14.9572,-180,1.97754,-144.602,436
1569683111,297.024,-111.956,-14.9572,-180,1.97754,-144.602,436
1569683111,297.024,-111.956,-14.9572,-180,1.97754,-144.602,440
1569683111,297.024,-111.956,-14.9572,-180,1.97754,-144.602,440
1569683111,297.024,-111.956,-14.9572,-180,1.97754,-144.602,440
1569683111,297.024,-111.956,-14.9572,-180,1.97754,-144.602,440
1569683111,297.024,-111.956,-14.9572,-180,1.97754,-144.602,440
1569683111,297.024,-111.956,-14.9572,-180,1.97754,-144.602,440
1569683111,297.024,-111.956,-14.9572,-180,1.99951,-144.602,440
1569683111,297.024,-111.956,-14.9572,-180,1.99951,-144.602,440
1569683111,297.024,-111.956,-14.9572,-180,1.99951,-144.602,440
1569683111,297.024,-111.956,-14.9572,-180,1.99951,-144.602,440
1569683111,297.024,-111.956,-14.9572,-180,1.99951,-144.602,440
1569683111,297.024,-111.956,-14.9572,-180,1.99951,-144.602,440
1569683111,297.024,-111.956,-14.9572,-180,1.99951,-144.602,440
1569683111,297.024,-111.956,-14.9572,-180,1.99951,-144.602,440
1569683111,297.024,-111.956,-14.9572,-180,1.99951,-144.602,440
1569683111,297.024,-111.956,-14.9572,-180,1.99951,-144.602,440
1569683111,297.024,-111.956,-14.9572,-180,1.99951,-144.602,440
1569683112,297.024,-111.956,-14.9572,179.978,1.97754,-144.602,440
1569683112,297.024,-111.956,-14.9572,179.978,1.97754,-144.602,440
1569683112,297.024,-111.956,-14.9572,179.978,1.97754,-144.602,440
1569683112,297.024,-111.956,-14.9572,179.978,1.97754,-144.602,440
1569683112,297.024,-111.956,-14.9572,179.978,1.97754,-144.602,440
1569683112,297.024,-111.956,-14.9572,179.978,1.97754,-144.602,440
1569683112,297.024,-112.068,-14.9572,179.978,1.97754,-144.602,440
1569683112,297.024,-112.068,-14.9572,179.978,1.97754,-144.602,440
1569683112,297.024,-112.068,-14.9572,179.978,1.97754,-144.602,440
1569683112,297.024,-112.068,-14.9572,179.978,1.97754,-144.602,440
1569683112,297.024,-112.068,-14.9572,179.978,1.97754,-144.602,440
1569683112,297.024,-112.068,-14.9572,179.978,1.97754,-144.602,440
1569683112,297.024,-111.956,-14.9572,179.978,1.97754,-144.602,440
1569683112,297.135,-111.956,-14.9572,179.978,1.97754,-144.602,440
1569683112,297.135,-111.956,-14.9572,-180,1.97754,-144.602,440
1569683112,297.135,-111.956,-14.9572,-180,1.97754,-144.602,440
1569683112,297.135,-111.956,-14.9572,-180,1.97754,-144.602,440
1569683112,297.135,-111.956,-14.9572,-180,1.97754,-144.602,440
1569683112,297.135,-111.956,-14.9572,-180,1.97754,-144.602,440
1569683112,297.135,-111.956,-14.9572,-180,1.97754,-144.602,440
1569683112,297.135,-111.956,-14.9572,-179.978,1.97754,-144.602,440
1569683112,297.024,-111.956,-14.9572,-179.978,1.97754,-144.602,440
1569683112,297.024,-111.956,-14.9572,-179.978,1.97754,-144.602,440
1569683112,297.024,-111.956,-14.9572,-179.978,1.97754,-144.602,440
1569683112,297.024,-111.956,-14.9572,-179.978,1.97754,-144.602,440
1569683112,297.024,-111.956,-14.9572,-179.978,1.99951,-144.602,440
1569683112,297.024,-111.956,-14.9572,-179.978,1.99951,-144.602,440
1569683112,297.024,-111.956,-14.9572,-179.978,1.99951,-144.602,440
1569683112,297.024,-111.956,-14.9572,-179.978,1.99951,-144.602,444
1569683112,297.024,-111.956,-14.9572,-179.978,1.99951,-144.602,444
1569683112,297.024,-111.956,-14.9572,-179.978,1.99951,-144.602,444
1569683112,297.024,-111.956,-14.9572,-179.978,1.99951,-144.602,444
1569683112,297.024,-111.956,-14.9572,-179.978,1.99951,-144.602,444
1569683112,297.024,-111.956,-14.9572,-179.978,1.99951,-144.602,444
1569683112,297.024,-111.956,-14.9572,-179.978,1.99951,-144.602,444
1569683112,297.024,-111.956,-14.9572,-179.978,1.97754,-144.602,448
1569683112,297.024,-111.956,-14.9572,-179.978,1.97754,-144.602,448
1569683112,297.024,-111.956,-14.9572,-179.978,1.97754,-144.602,448
1569683112,297.024,-111.956,-14.9572,-179.978,1.97754,-144.602,448
1569683112,297.024,-111.956,-14.9572,-180,1.97754,-144.602,448
1569683112,297.024,-111.956,-14.9572,-180,1.97754,-144.602,448
1569683112,297.024,-111.956,-14.9572,-180,1.97754,-144.602,448
1569683112,297.024,-111.956,-14.9572,-180,1.97754,-144.602,448
1569683112,297.024,-111.956,-14.9572,-180,1.97754,-144.602,448
1569683112,297.024,-111.956,-14.9572,-180,1.97754,-144.602,448
1569683112,297.024,-111.956,-14.9572,-180,1.99951,-144.602,448
1569683112,297.024,-111.956,-14.9572,-180,1.99951,-144.602,448
1569683112,297.024,-111.956,-14.9572,-180,1.99951,-144.602,448
1569683112,297.024,-111.956,-14.9572,-180,1.99951,-144.602,448
1569683112,297.024,-111.956,-14.9572,-180,1.99951,-144.602,448
1569683112,297.024,-111.956,-14.9572,-180,1.99951,-144.602,448
1569683112,297.024,-111.956,-14.9572,-180,1.99951,-144.602,452
1569683112,297.024,-111.956,-14.9572,-180,1.99951,-144.602,452
1569683112,297.024,-111.956,-14.9572,-180,1.99951,-144.602,452
1569683112,297.024,-111.956,-14.9572,-180,1.99951,-144.602,452
1569683112,297.024,-111.956,-14.9572,-180,1.99951,-144.602,452
1569683112,297.024,-111.956,-14.9572,-179.978,1.97754,-144.602,452
1569683112,297.024,-111.956,-14.9572,-179.978,1.97754,-144.602,452
1569683112,297.024,-111.956,-14.9572,-179.978,1.97754,-144.602,452
1569683112,297.024,-111.956,-14.9572,-179.978,1.97754,-144.602,448
1569683112,297.024,-111.956,-14.9572,-179.978,1.97754,-144.602,448
1569683112,297.135,-111.956,-14.9572,-179.978,1.97754,-144.602,448
1569683112,297.135,-111.956,-14.9572,-179.978,1.97754,-144.602,448
1569683112,297.135,-111.956,-14.9572,-179.978,1.97754,-144.602,448
1569683112,297.135,-111.956,-14.9572,-179.978,1.97754,-144.602,448
1569683112,297.135,-111.956,-14.9572,-179.978,1.97754,-144.602,448
1569683112,297.135,-111.956,-14.9572,-179.978,1.97754,-144.602,448
1569683112,297.135,-111.956,-14.9572,-179.978,1.97754,-144.602,448
1569683112,297.135,-111.956,-14.9572,-179.978,1.97754,-144.602,444
1569683112,297.135,-111.956,-14.9572,-179.978,1.97754,-144.602,444
1569683112,297.135,-111.956,-14.9572,-179.978,1.97754,-144.602,444
1569683112,297.135,-111.956,-14.9572,-179.978,1.97754,-144.602,444
1569683112,297.135,-111.956,-14.9572,-179.978,1.97754,-144.602,444
1569683112,297.135,-111.956,-14.9572,-179.978,1.97754,-144.602,444
1569683112,297.135,-111.956,-14.9572,-179.978,1.97754,-144.602,444
1569683112,297.135,-111.956,-14.9572,-179.978,1.97754,-144.602,444
1569683112,297.135,-111.956,-14.9572,-179.978,1.97754,-144.602,444
1569683112,297.135,-111.956,-14.9572,-179.978,1.97754,-144.602,444
1569683112,297.135,-111.956,-14.9572,-179.978,1.97754,-144.602,444
1569683112,297.135,-111.956,-14.9572,-179.978,1.97754,-144.602,444
1569683112,297.135,-111.956,-14.9572,-179.978,1.97754,-144.602,444
1569683112,297.135,-111.956,-14.9572,-179.978,1.97754,-144.624,444
1569683112,297.135,-111.956,-14.9572,-179.978,1.97754,-144.624,444
1569683112,297.135,-111.956,-14.9572,-179.978,1.97754,-144.624,444
1569683112,297.135,-111.956,-14.9572,-179.978,1.97754,-144.624,444
1569683112,297.135,-111.956,-14.9572,-179.978,1.97754,-144.624,440
1569683112,297.135,-111.956,-14.9572,-179.978,1.99951,-144.624,440
1569683112,297.135,-111.956,-14.9572,-179.978,1.99951,-144.602,440
1569683112,297.024,-111.956,-14.9572,-179.978,1.99951,-144.602,440
1569683112,297.024,-111.956,-14.9572,-179.978,1.99951,-144.602,440
1569683112,297.024,-111.956,-14.9572,-179.978,1.99951,-144.602,440
1569683112,297.024,-111.956,-14.9572,-179.978,1.99951,-144.602,440
1569683112,297.024,-111.956,-14.9572,-179.978,1.99951,-144.602,440
1569683112,297.024,-111.956,-14.9572,-179.978,1.99951,-144.602,440
1569683112,297.024,-111.956,-14.9572,-179.978,1.99951,-144.602,440
1569683112,297.024,-111.956,-14.9572,-179.978,1.99951,-144.602,436
1569683112,297.024,-111.956,-14.9572,-179.978,1.99951,-144.602,440
1569683112,297.024,-111.956,-14.9572,-179.978,1.99951,-144.602,440
1569683112,297.024,-111.956,-14.9572,-179.978,1.99951,-144.602,440
1569683112,297.024,-111.956,-14.9572,-179.978,1.99951,-144.602,440
1569683112,297.024,-111.956,-14.9572,-179.978,1.99951,-144.602,440
1569683113,297.024,-111.956,-14.9572,-179.978,1.99951,-144.602,440
1569683113,297.024,-111.956,-14.9572,-179.978,1.99951,-144.602,440
1569683113,297.024,-111.956,-14.9572,-179.978,1.99951,-144.602,440
1569683113,297.024,-111.956,-14.9572,-179.978,1.99951,-144.602,444
1569683113,297.024,-111.956,-14.9572,-179.978,1.99951,-144.602,444
1569683113,297.024,-111.956,-14.9572,-179.978,1.99951,-144.602,444
1569683113,297.024,-111.956,-14.9572,-179.978,1.99951,-144.602,444
1569683113,297.024,-111.956,-14.9572,-179.978,1.99951,-144.602,448
1569683113,297.024,-111.956,-14.9572,-179.978,1.99951,-144.602,448
1569683113,297.024,-111.956,-14.9572,-180,1.99951,-144.602,448
1569683113,297.024,-111.956,-14.9572,-180,1.99951,-144.602,448
1569683113,297.024,-111.956,-14.9572,-180,1.99951,-144.602,448
1569683113,297.024,-111.956,-14.9572,-180,1.99951,-144.602,452
1569683113,297.024,-111.956,-14.9572,-180,1.99951,-144.602,452
1569683113,297.024,-111.956,-14.9572,-180,1.99951,-144.602,452
1569683113,297.024,-111.956,-14.9572,-180,1.99951,-144.602,452
1569683113,297.024,-111.956,-14.9572,-180,1.99951,-144.602,452
1569683113,297.024,-111.956,-14.9572,-180,1.99951,-144.602,456
1569683113,297.024,-111.956,-14.9572,-179.978,1.99951,-144.602,456
1569683113,297.024,-111.956,-14.9572,-179.978,1.99951,-144.602,456
1569683113,297.024,-111.956,-14.9572,-179.978,1.99951,-144.602,456
1569683113,297.024,-111.956,-14.9572,-179.978,1.99951,-144.602,456
1569683113,297.024,-111.956,-14.9572,-179.978,1.99951,-144.602,456
1569683113,297.024,-111.956,-14.9572,-179.978,1.97754,-144.602,456
1569683113,297.024,-111.956,-14.9572,-179.978,1.97754,-144.602,456
1569683113,297.024,-111.956,-14.9572,-179.978,1.97754,-144.602,456
1569683113,297.024,-111.956,-14.9572,-179.978,1.97754,-144.602,456
1569683113,297.024,-111.956,-14.9572,-179.978,1.99951,-144.602,456
1569683113,297.024,-111.956,-14.9572,-179.978,1.99951,-144.602,456
1569683113,297.024,-111.956,-14.9572,-179.978,1.99951,-144.602,456
1569683113,297.024,-111.956,-14.9572,-179.978,1.99951,-144.602,456
1569683113,297.024,-111.956,-14.9572,-179.978,1.99951,-144.602,452
1569683113,297.024,-111.956,-14.9572,-179.978,1.97754,-144.602,452
1569683113,297.024,-111.956,-14.9572,-180,1.97754,-144.602,452
1569683113,297.024,-111.956,-14.9572,-180,1.97754,-144.602,452
1569683113,297.024,-111.956,-14.9572,-180,1.97754,-144.602,448
1569683113,297.024,-111.956,-14.9572,-180,1.97754,-144.602,448
1569683113,297.024,-111.956,-14.9572,-180,1.97754,-144.602,448
1569683113,297.024,-111.956,-14.9572,-180,1.97754,-144.602,448
1569683113,297.024,-111.956,-14.9572,-180,1.97754,-144.602,448
1569683113,297.024,-111.956,-14.9572,-180,1.97754,-144.602,448
1569683113,297.024,-111.956,-14.9572,179.978,1.97754,-144.602,448
1569683113,297.024,-111.956,-14.9572,179.978,1.97754,-144.602,444
1569683113,297.024,-111.956,-14.9572,179.978,1.99951,-144.602,444
1569683113,297.024,-111.956,-14.9572,179.978,1.99951,-144.602,444
1569683113,297.024,-111.956,-14.9572,179.978,1.99951,-144.602,444
1569683113,297.024,-111.956,-14.9572,179.978,1.99951,-144.602,444
1569683113,297.024,-111.956,-14.9572,179.978,1.99951,-144.602,444
1569683113,297.024,-111.956,-14.9572,179.978,1.99951,-144.602,444
1569683113,297.024,-111.956,-14.9572,179.978,1.99951,-144.602,444
1569683113,297.024,-111.956,-14.9572,179.978,1.99951,-144.602,444
1569683113,297.024,-111.956,-14.9572,179.978,1.99951,-144.602,444
1569683113,297.024,-111.956,-14.9572,179.978,1.99951,-144.602,444
1569683113,297.024,-111.956,-14.9572,179.978,1.99951,-144.602,444
1569683113,297.024,-111.956,-14.9572,179.978,1.99951,-144.602,444
1569683113,297.024,-111.956,-14.9572,179.978,1.99951,-144.602,448
1569683113,297.024,-111.956,-14.9572,179.978,1.99951,-144.602,448
1569683113,297.024,-111.956,-14.9572,179.978,1.99951,-144.602,448
1569683113,297.024,-111.956,-14.9572,179.978,1.99951,-144.602,448
1569683113,297.024,-111.956,-14.9572,179.978,1.97754,-144.602,448
1569683113,297.024,-111.956,-14.9572,179.978,1.97754,-144.602,448
1569683113,297.024,-111.956,-14.9572,179.978,1.97754,-144.602,452
1569683113,297.024,-111.956,-14.9572,179.978,1.97754,-144.602,452
1569683113,297.024,-111.956,-14.9572,179.978,1.97754,-144.602,452
1569683113,297.024,-111.956,-14.9572,179.978,1.97754,-144.602,452
1569683113,297.024,-111.956,-14.9572,-180,1.97754,-144.602,452
1569683113,297.024,-111.956,-14.9572,-180,1.97754,-144.602,456
1569683113,297.024,-111.956,-14.9572,-180,1.97754,-144.602,456
1569683113,297.024,-111.956,-14.9572,-180,1.97754,-144.602,456
1569683113,297.024,-111.956,-14.9572,-180,1.97754,-144.602,456
1569683113,297.024,-111.956,-14.9572,-180,1.97754,-144.602,456
1569683113,297.024,-111.956,-14.9572,-180,1.97754,-144.602,456
1569683113,297.024,-111.956,-14.9572,-180,1.97754,-144.602,456
1569683113,297.024,-111.956,-14.9572,-180,1.97754,-144.602,456
1569683113,297.024,-111.956,-14.9572,-180,1.97754,-144.602,456
1569683113,297.024,-111.956,-14.9572,-180,1.97754,-144.602,456
1569683113,297.024,-111.956,-14.9572,-180,1.97754,-144.602,456
1569683113,297.024,-111.956,-14.9572,-180,1.97754,-144.602,456
1569683113,297.024,-111.956,-14.9572,-180,1.97754,-144.602,456
1569683113,297.024,-111.956,-14.9572,-180,1.97754,-144.602,456
1569683113,297.024,-111.956,-14.9572,-180,1.97754,-144.602,456
1569683113,297.024,-111.956,-14.9572,-180,1.99951,-144.602,456
1569683113,297.024,-111.956,-14.9572,-180,1.99951,-144.602,456
1569683113,297.024,-111.956,-14.9572,-180,1.99951,-144.602,456
1569683113,297.024,-111.956,-14.9572,-180,1.99951,-144.602,456
1569683113,297.024,-111.956,-14.9572,-180,1.99951,-144.602,456
1569683113,297.024,-111.956,-14.9572,-180,1.99951,-144.602,456
1569683113,297.024,-111.956,-14.9572,-180,1.99951,-144.602,456
1569683113,297.024,-111.956,-14.9572,-180,1.97754,-144.602,456
1569683113,297.024,-111.956,-14.9572,-180,1.97754,-144.602,456
1569683113,297.024,-111.956,-14.9572,-180,1.97754,-144.602,456
1569683113,297.024,-111.956,-14.9572,-180,1.97754,-144.602,460
1569683113,297.024,-111.956,-14.9572,-180,1.97754,-144.602,460
1569683113,297.024,-111.956,-14.9572,-180,1.97754,-144.602,460
1569683113,297.024,-111.956,-14.9572,-180,1.97754,-144.602,460
1569683113,297.024,-111.956,-14.9572,-180,1.97754,-144.602,460
1569683113,297.024,-111.956,-14.9572,-180,1.97754,-144.602,460
1569683113,297.024,-111.956,-14.9572,-179.978,1.97754,-144.602,460
1569683113,297.024,-111.956,-14.9572,-179.978,1.97754,-144.602,460
1569683113,297.024,-111.956,-14.9572,-179.978,1.97754,-144.602,460
1569683114,297.024,-111.956,-14.9572,-179.978,1.97754,-144.602,460
1569683114,297.024,-111.956,-14.9572,-179.978,1.97754,-144.602,460
1569683114,297.024,-111.956,-14.9572,-179.978,1.97754,-144.602,456
1569683114,297.024,-111.956,-14.9572,-179.978,1.97754,-144.602,456
1569683114,297.024,-111.956,-14.9572,-179.978,1.97754,-144.602,456
1569683114,297.024,-111.956,-14.9572,-179.978,1.97754,-144.602,456
1569683114,297.024,-111.956,-14.9572,-179.978,1.97754,-144.602,456
1569683114,297.024,-111.956,-14.9572,-179.978,1.97754,-144.602,456
1569683114,297.024,-111.956,-14.9572,-179.978,1.97754,-144.602,456
1569683114,297.024,-111.956,-14.9572,-179.978,1.97754,-144.602,456
1569683114,297.024,-111.956,-14.9572,-179.978,1.97754,-144.602,456
1569683114,297.024,-111.956,-14.9572,-179.978,1.97754,-144.602,456
1569683114,297.024,-111.956,-14.9572,-179.978,1.97754,-144.602,456
1569683114,297.024,-111.956,-14.9572,-180,1.97754,-144.602,456
1569683114,297.024,-111.956,-14.9572,-180,1.97754,-144.602,456
1569683114,297.024,-111.956,-14.9572,-180,1.97754,-144.602,456
1569683114,297.024,-111.956,-14.9572,-180,1.97754,-144.602,456
1569683114,297.024,-111.956,-14.9572,-180,1.97754,-144.602,456
1569683114,297.024,-111.956,-14.9572,-180,1.97754,-144.602,456
1569683114,297.024,-111.956,-14.9572,-180,1.97754,-144.602,452
1569683114,297.024,-111.956,-14.9572,179.978,1.97754,-144.602,452
1569683114,297.024,-111.956,-14.9572,179.978,1.97754,-144.602,452
1569683114,297.024,-111.956,-14.9572,179.978,1.97754,-144.602,452
1569683114,297.024,-111.956,-14.9572,179.978,1.97754,-144.602,452
1569683114,297.024,-111.956,-14.9572,179.978,1.97754,-144.602,452
1569683114,297.024,-111.956,-14.9572,179.978,1.97754,-144.602,452
1569683114,297.024,-111.956,-14.9572,179.978,1.97754,-144.602,452
1569683114,297.024,-111.956,-14.9572,179.978,1.97754,-144.602,452
1569683114,297.024,-111.956,-14.9572,179.978,1.97754,-144.602,452
1569683114,297.024,-112.068,-14.9572,179.978,1.97754,-144.602,452
1569683114,297.024,-112.068,-14.9572,179.978,1.97754,-144.602,452
1569683114,297.024,-112.068,-14.9572,179.978,1.97754,-144.602,452
1569683114,297.024,-112.068,-14.9572,179.978,1.97754,-144.602,452
1569683114,297.024,-112.068,-14.9572,179.978,1.97754,-144.602,452
1569683114,297.024,-112.068,-14.9572,179.978,1.97754,-144.602,452
1569683114,297.024,-112.068,-14.9572,179.978,1.97754,-144.602,452
1569683114,297.024,-112.068,-14.9572,179.978,1.97754,-144.602,452
1569683114,297.024,-112.068,-14.9572,179.978,1.97754,-144.602,452
1569683114,297.024,-112.068,-14.9572,179.978,1.97754,-144.602,448
1569683114,297.024,-112.068,-14.9572,179.978,1.97754,-144.602,448
1569683114,297.024,-112.068,-14.9572,179.978,1.97754,-144.602,448
1569683114,297.135,-112.068,-14.9572,179.978,1.97754,-144.602,448
1569683114,297.135,-112.068,-14.9572,179.978,1.97754,-144.602,448
1569683114,297.135,-112.068,-14.9572,179.978,1.97754,-144.602,448
1569683114,297.135,-112.068,-14.9572,179.978,1.97754,-144.602,448
1569683114,297.135,-112.068,-14.9572,179.978,1.97754,-144.602,448
1569683114,297.135,-111.956,-14.9572,179.978,1.97754,-144.602,448
1569683114,297.135,-111.956,-14.9572,179.978,1.97754,-144.602,448
1569683114,297.135,-111.956,-14.9572,179.978,1.97754,-144.602,448
1569683114,297.135,-111.956,-14.9572,179.978,1.97754,-144.602,444
1569683114,297.135,-111.956,-14.9572,179.978,1.97754,-144.602,444
1569683114,297.024,-111.956,-14.9572,179.978,1.97754,-144.602,444
1569683114,297.024,-111.956,-14.9572,179.978,1.97754,-144.602,444
1569683114,297.024,-111.956,-14.9572,179.978,1.97754,-144.602,444
1569683114,297.024,-111.956,-14.9572,179.978,1.97754,-144.602,444
1569683114,297.024,-111.956,-14.9572,179.978,1.97754,-144.602,444
1569683114,297.024,-111.956,-14.9572,179.978,1.97754,-144.602,444
1569683114,297.024,-111.956,-14.9572,179.978,1.97754,-144.602,444
1569683114,297.024,-111.956,-14.9572,179.978,1.97754,-144.602,444
1569683114,297.024,-111.956,-14.9572,179.978,1.97754,-144.602,440
1569683114,297.024,-111.956,-14.9572,179.978,1.97754,-144.602,440
1569683114,297.024,-111.956,-14.9572,179.978,1.97754,-144.602,440
1569683114,297.024,-111.956,-14.9572,179.978,1.97754,-144.602,440
1569683114,297.024,-111.956,-14.9572,179.978,1.97754,-144.602,440
1569683114,297.024,-111.956,-14.9572,179.978,1.97754,-144.602,440
1569683114,297.024,-111.956,-14.9572,179.978,1.97754,-144.602,440
1569683114,297.024,-111.956,-14.9572,179.978,1.97754,-144.602,440
1569683114,297.024,-112.068,-14.9572,179.978,1.97754,-144.602,440
1569683114,297.024,-112.068,-14.9572,179.978,1.97754,-144.602,444
1569683114,297.024,-112.068,-14.9572,179.978,1.97754,-144.602,444
1569683114,297.024,-112.068,-14.9572,179.978,1.97754,-144.602,444
1569683114,297.024,-112.068,-14.9572,179.978,1.97754,-144.602,444
1569683114,297.024,-112.068,-14.9572,179.978,1.97754,-144.602,444
1569683114,297.024,-112.068,-14.9572,179.978,1.97754,-144.602,444
1569683114,297.024,-112.068,-14.9572,179.978,1.97754,-144.602,444
1569683114,297.024,-112.068,-14.9572,179.978,1.97754,-144.602,444
1569683114,297.024,-112.068,-14.9572,179.978,1.97754,-144.602,444
1569683114,297.024,-112.068,-14.9572,179.978,1.97754,-144.602,444
1569683114,297.024,-112.068,-14.9572,179.978,1.97754,-144.602,444
1569683114,297.024,-112.068,-14.9572,179.978,1.97754,-144.602,444
1569683114,297.024,-112.068,-14.9572,179.978,1.97754,-144.602,444
1569683114,297.024,-112.068,-14.9572,179.978,1.97754,-144.602,448
1569683114,297.024,-112.068,-14.9572,179.978,1.97754,-144.602,448
1569683114,297.024,-112.068,-14.9572,179.978,1.97754,-144.602,448
1569683114,297.024,-111.956,-14.9572,179.978,1.97754,-144.602,448
1569683114,297.024,-111.956,-14.9572,179.978,1.97754,-144.602,448
1569683114,297.024,-111.956,-14.9572,179.978,1.97754,-144.602,448
1569683114,297.024,-111.956,-14.9572,179.978,1.97754,-144.602,448
1569683114,297.024,-111.956,-14.9572,179.978,1.97754,-144.602,452
1569683114,297.024,-111.956,-14.9572,179.978,1.97754,-144.602,452
1569683114,297.024,-111.956,-14.9572,179.978,1.97754,-144.602,452
1569683114,297.024,-111.956,-14.9572,179.978,1.97754,-144.602,452
1569683114,297.024,-111.956,-14.9572,179.978,1.97754,-144.602,452
1569683114,297.024,-111.956,-14.9572,179.978,1.97754,-144.602,452
1569683114,297.024,-111.956,-14.9572,179.978,1.97754,-144.602,452
1569683114,297.024,-111.956,-14.9572,179.978,1.97754,-144.602,452
1569683114,297.024,-111.956,-14.9572,179.978,1.97754,-144.602,452
1569683114,297.024,-111.956,-14.9572,179.978,1.97754,-144.602,452
1569683114,297.024,-111.956,-14.9572,179.978,1.97754,-144.602,452
1569683114,297.024,-111.956,-14.9572,179.978,1.97754,-144.602,452
1569683115,297.024,-111.956,-14.9572,179.978,1.97754,-144.602,452
1569683115,297.024,-111.956,-14.9572,-180,1.97754,-144.602,452
1569683115,297.024,-111.956,-14.9572,-180,1.97754,-144.602,452
1569683115,297.024,-111.956,-14.9572,-180,1.97754,-144.602,452
1569683115,297.024,-111.956,-14.9572,-180,1.97754,-144.602,452
1569683115,297.024,-111.956,-14.9572,-180,1.97754,-144.602,452
1569683115,297.024,-111.956,-14.9572,-180,1.97754,-144.602,452
1569683115,297.024,-111.956,-14.9572,-180,1.97754,-144.602,452
1569683115,297.024,-111.956,-14.9572,-180,1.97754,-144.602,452
1569683115,297.024,-111.956,-14.9572,-180,1.97754,-144.602,452
1569683115,297.024,-111.956,-14.9572,-180,1.97754,-144.602,456
1569683115,297.024,-111.956,-14.9572,-180,1.97754,-144.602,456
1569683115,297.024,-111.956,-14.9572,-180,1.97754,-144.602,456
1569683115,297.024,-111.956,-14.9572,-179.978,1.97754,-144.602,456
1569683115,297.024,-111.956,-14.9572,-179.978,1.97754,-144.602,456
1569683115,297.024,-111.956,-14.9572,-179.978,1.97754,-144.602,456
1569683115,297.024,-111.956,-14.9572,-179.978,1.97754,-144.602,456
1569683115,297.024,-111.956,-14.9572,-179.978,1.97754,-144.602,452
1569683115,297.024,-111.956,-14.9572,-179.978,1.97754,-144.602,452
1569683115,297.024,-111.956,-14.9572,-179.978,1.97754,-144.602,452
1569683115,297.024,-111.956,-14.9572,-179.978,1.97754,-144.602,452
1569683115,297.024,-111.956,-14.9572,-179.978,1.97754,-144.602,452
1569683115,297.024,-111.956,-14.9572,-179.978,1.97754,-144.602,452
1569683115,297.024,-111.956,-14.9572,-179.978,1.97754,-144.602,452
1569683115,297.024,-111.956,-14.9572,-179.978,1.97754,-144.602,456
1569683115,297.024,-111.956,-14.9572,-180,1.97754,-144.602,456
1569683115,297.024,-111.956,-14.9572,-180,1.97754,-144.602,456
1569683115,297.024,-111.956,-14.9572,-180,1.97754,-144.602,456
1569683115,297.024,-111.956,-14.9572,-180,1.97754,-144.602,456
1569683115,297.024,-111.956,-14.9572,-180,1.97754,-144.602,456
1569683115,297.024,-111.956,-14.9572,-180,1.97754,-144.602,456
1569683115,297.024,-111.956,-14.9572,-180,1.97754,-144.602,456
1569683115,297.024,-111.956,-14.9572,-179.978,1.97754,-144.602,456
1569683115,297.024,-111.956,-14.9572,-179.978,1.97754,-144.602,456
1569683115,297.024,-111.956,-14.9572,-179.978,1.97754,-144.602,456
1569683115,297.024,-111.956,-14.9572,-179.978,1.97754,-144.602,456
1569683115,297.024,-111.956,-14.9572,-179.978,1.97754,-144.602,456
1569683115,297.024,-111.956,-14.9572,-179.978,1.97754,-144.602,456
1569683115,297.024,-111.956,-14.9572,-179.978,1.97754,-144.602,456
1569683115,297.024,-111.956,-14.9572,-179.978,1.97754,-144.602,456
1569683115,297.024,-111.956,-14.9572,-179.978,1.97754,-144.602,456
1569683115,297.024,-111.956,-14.9572,-179.978,1.97754,-144.602,456
1569683115,297.024,-111.956,-14.9572,-179.978,1.97754,-144.602,456
1569683115,297.024,-111.956,-14.9572,-179.978,1.97754,-144.602,452
1569683115,297.024,-111.956,-14.9572,-179.978,1.97754,-144.602,452
1569683115,297.024,-111.956,-14.9572,-179.978,1.97754,-144.602,452
1569683115,297.024,-111.956,-14.9572,-179.978,1.97754,-144.602,452
1569683115,297.024,-111.956,-14.9572,-179.978,1.97754,-144.602,452
1569683115,297.024,-111.956,-14.9572,-179.978,1.97754,-144.602,452
1569683115,297.024,-111.956,-14.9572,-179.978,1.97754,-144.602,452
1569683115,297.024,-111.956,-14.9572,-179.978,1.97754,-144.602,452
1569683115,297.024,-111.956,-14.9572,-179.978,1.97754,-144.602,452
1569683115,297.024,-111.956,-14.9572,-179.978,1.97754,-144.602,452
1569683115,297.024,-111.956,-14.9572,-179.978,1.97754,-144.602,452
1569683115,297.024,-111.956,-14.9572,-179.978,1.97754,-144.602,452
1569683115,297.024,-111.956,-14.9572,-179.978,1.97754,-144.602,452
1569683115,297.024,-111.956,-14.9572,-179.978,1.97754,-144.602,452
1569683115,297.024,-111.956,-14.9572,-179.978,1.97754,-144.602,456
1569683115,297.024,-111.956,-14.9572,-179.978,1.97754,-144.602,456
1569683115,297.024,-111.956,-14.9572,-179.978,1.99951,-144.602,456
1569683115,297.024,-111.956,-14.9572,-179.978,1.99951,-144.602,456
1569683115,297.024,-111.956,-14.9572,-179.978,1.99951,-144.602,456
1569683122,320.241,-135.843,-14.2875,-179.89,2.0874,-144.8,524
1569683122,320.241,-135.843,-14.2875,-179.89,2.0874,-144.8,524
1569683122,320.241,-135.843,-14.2875,-179.89,2.0874,-144.8,524
1569683122,320.241,-135.843,-14.2875,-179.89,2.0874,-144.8,524
1569683122,320.241,-135.843,-14.2875,-179.89,2.0874,-144.8,524
1569683122,320.241,-135.731,-14.2875,-179.89,2.0874,-144.8,524
1569683122,320.241,-135.731,-14.2875,-179.89,2.0874,-144.8,528
1569683122,320.241,-135.731,-14.2875,-179.89,2.0874,-144.8,528
1569683122,320.129,-135.731,-14.2875,-179.89,2.0874,-144.8,528
1569683122,320.129,-135.731,-14.2875,-179.89,2.0874,-144.8,528
1569683122,320.129,-135.843,-14.1759,-179.89,2.10938,-144.8,528
1569683122,320.129,-135.843,-14.1759,-179.89,2.10938,-144.8,532
1569683122,320.129,-135.843,-14.1759,-179.89,2.10938,-144.8,532
1569683122,320.129,-135.843,-14.1759,-179.89,2.10938,-144.8,532
1569683122,320.129,-135.843,-14.1759,-179.89,2.10938,-144.8,532
1569683122,320.129,-135.843,-14.1759,-179.89,2.10938,-144.8,532
1569683122,320.129,-135.843,-14.1759,-179.89,2.10938,-144.8,532
1569683122,320.129,-135.843,-14.1759,-179.89,2.10938,-144.8,532
1569683122,320.129,-135.843,-14.1759,-179.89,2.10938,-144.8,532
1569683122,320.129,-135.843,-14.1759,-179.89,2.10938,-144.8,532
1569683122,320.129,-135.843,-14.1759,-179.89,2.10938,-144.8,532
1569683122,320.129,-135.843,-14.1759,-179.89,2.10938,-144.8,532
1569683122,320.129,-135.843,-14.1759,-179.89,2.10938,-144.8,528
1569683122,320.129,-135.843,-14.1759,-179.89,2.10938,-144.8,528
1569683122,320.129,-135.843,-14.1759,-179.89,2.10938,-144.8,528
1569683122,320.129,-135.843,-14.1759,-179.89,2.10938,-144.8,528
1569683122,320.129,-135.843,-14.1759,-179.89,2.10938,-144.8,528
1569683122,320.129,-135.843,-14.1759,-179.89,2.10938,-144.8,528
1569683122,320.129,-135.843,-14.1759,-179.89,2.10938,-144.8,528
1569683122,320.129,-135.843,-14.1759,-179.89,2.10938,-144.8,524
1569683122,320.129,-135.843,-14.1759,-179.912,2.10938,-144.8,524
1569683122,320.129,-135.843,-14.1759,-179.912,2.10938,-144.8,524
1569683122,320.129,-135.843,-14.1759,-179.912,2.10938,-144.8,524
1569683122,320.129,-135.843,-14.1759,-179.912,2.10938,-144.8,524
1569683122,320.129,-135.843,-14.1759,-179.912,2.0874,-144.8,524
1569683122,320.129,-135.843,-14.2875,-179.912,2.0874,-144.8,524
1569683122,320.129,-135.843,-14.2875,-179.89,2.0874,-144.8,524
1569683122,320.129,-135.843,-14.2875,-179.89,2.0874,-144.8,524
1569683122,320.129,-135.843,-14.2875,-179.89,2.0874,-144.8,524
1569683122,320.129,-135.843,-14.2875,-179.89,2.0874,-144.8,520
1569683122,320.129,-135.843,-14.2875,-179.89,2.0874,-144.8,520
1569683122,320.241,-135.843,-14.2875,-179.89,2.0874,-144.8,520
1569683122,320.241,-135.843,-14.2875,-179.89,2.0874,-144.8,520
1569683122,320.241,-135.843,-14.2875,-179.89,2.0874,-144.8,520
1569683122,320.241,-135.843,-14.2875,-179.89,2.0874,-144.8,520
1569683122,320.241,-135.843,-14.2875,-179.89,2.0874,-144.8,520
1569683122,320.241,-135.843,-14.2875,-179.89,2.0874,-144.778,520
1569683122,320.241,-135.843,-14.2875,-179.89,2.0874,-144.8,516
1569683122,320.241,-135.843,-14.2875,-179.89,2.0874,-144.8,516
1569683122,320.241,-135.843,-14.2875,-179.89,2.0874,-144.8,516
1569683122,320.241,-135.843,-14.2875,-179.89,2.0874,-144.8,516
1569683122,320.241,-135.843,-14.2875,-179.89,2.0874,-144.8,512
1569683122,320.241,-135.843,-14.2875,-179.89,2.0874,-144.8,512
1569683122,320.241,-135.843,-14.2875,-179.89,2.0874,-144.8,512
1569683122,320.241,-135.843,-14.2875,-179.89,2.0874,-144.8,512
1569683122,320.241,-135.843,-14.2875,-179.89,2.0874,-144.8,512
1569683122,320.241,-135.843,-14.2875,-179.89,2.10938,-144.8,512
1569683122,320.129,-135.843,-14.2875,-179.89,2.10938,-144.8,512
1569683122,320.129,-135.843,-14.1759,-179.89,2.10938,-144.8,512
1569683122,320.129,-135.843,-14.1759,-179.89,2.10938,-144.8,512
1569683122,320.129,-135.843,-14.1759,-179.89,2.10938,-144.8,512
1569683122,320.129,-135.843,-14.1759,-179.89,2.10938,-144.8,512
1569683122,320.129,-135.843,-14.1759,-179.89,2.10938,-144.778,512
1569683122,320.241,-135.843,-14.1759,-179.89,2.10938,-144.778,512
1569683122,320.241,-135.843,-14.1759,-179.89,2.10938,-144.8,512
1569683122,320.241,-135.843,-14.1759,-179.89,2.10938,-144.8,512
1569683122,320.241,-135.843,-14.1759,-179.89,2.13135,-144.8,512
1569683122,320.241,-135.843,-14.1759,-179.89,2.13135,-144.8,512
1569683122,320.241,-135.843,-14.1759,-179.89,2.13135,-144.8,512
1569683122,320.241,-135.843,-14.1759,-179.89,2.13135,-144.8,512
1569683122,320.241,-135.843,-14.1759,-179.89,2.13135,-144.8,512
1569683122,320.241,-135.843,-14.1759,-179.89,2.13135,-144.8,512
1569683122,320.241,-135.843,-14.1759,-179.89,2.13135,-144.8,512
1569683122,320.241,-135.843,-14.1759,-179.89,2.13135,-144.8,508
1569683122,320.241,-135.843,-14.1759,-179.89,2.13135,-144.8,508
1569683122,320.241,-135.843,-14.1759,-179.89,2.13135,-144.8,508
1569683122,320.241,-135.843,-14.1759,-179.89,2.13135,-144.8,508
1569683122,320.241,-135.843,-14.1759,-179.89,2.13135,-144.8,508
1569683122,320.241,-135.843,-14.1759,-179.89,2.13135,-144.8,508
1569683122,320.241,-135.843,-14.1759,-179.89,2.13135,-144.8,508
1569683122,320.241,-135.843,-14.1759,-179.89,2.13135,-144.8,508
1569683122,320.241,-135.843,-14.1759,-179.89,2.13135,-144.8,508
1569683122,320.241,-135.843,-14.1759,-179.89,2.13135,-144.8,508
1569683122,320.241,-135.843,-14.1759,-179.912,2.13135,-144.8,508
1569683122,320.241,-135.843,-14.1759,-179.912,2.13135,-144.8,508
1569683122,320.241,-135.843,-14.0643,-179.89,2.15332,-144.8,508
1569683123,320.241,-135.843,-14.0643,-179.89,2.15332,-144.8,508
1569683123,320.241,-135.843,-14.0643,-179.89,2.15332,-144.8,508
1569683123,320.241,-135.843,-14.0643,-179.89,2.15332,-144.8,508
1569683123,320.241,-135.843,-14.0643,-179.89,2.15332,-144.8,504
1569683123,320.241,-135.843,-14.0643,-179.89,2.15332,-144.8,504
1569683123,320.241,-135.843,-14.0643,-179.89,2.15332,-144.8,504
1569683123,320.241,-135.843,-14.0643,-179.89,2.15332,-144.8,504
1569683123,320.241,-135.843,-14.0643,-179.89,2.15332,-144.8,504
1569683123,320.241,-135.843,-14.0643,-179.89,2.15332,-144.8,504
1569683123,320.241,-135.843,-14.0643,-179.89,2.15332,-144.8,504
1569683123,320.241,-135.843,-14.0643,-179.89,2.15332,-144.8,504
1569683123,320.241,-135.843,-14.0643,-179.89,2.13135,-144.8,504
1569683123,320.241,-135.843,-14.0643,-179.89,2.13135,-144.8,504
1569683123,320.241,-135.843,-14.0643,-179.89,2.13135,-144.8,504
1569683123,320.241,-135.843,-14.1759,-179.89,2.13135,-144.8,504
1569683123,320.241,-135.843,-14.1759,-179.89,2.13135,-144.8,504
1569683123,320.241,-135.843,-14.1759,-179.89,2.13135,-144.8,504
1569683123,320.241,-135.843,-14.1759,-179.89,2.13135,-144.8,504
1569683123,320.241,-135.843,-14.1759,-179.89,2.13135,-144.8,504
1569683123,320.241,-135.843,-14.1759,-179.89,2.13135,-144.8,504
1569683123,320.241,-135.843,-14.1759,-179.89,2.13135,-144.8,504
1569683123,320.241,-135.843,-14.1759,-179.89,2.10938,-144.8,504
1569683123,320.241,-135.843,-14.1759,-179.89,2.10938,-144.8,504
1569683123,320.241,-135.843,-14.1759,-179.89,2.10938,-144.8,504
1569683123,320.241,-135.843,-14.1759,-179.89,2.10938,-144.8,504
1569683123,320.241,-135.843,-14.1759,-179.912,2.10938,-144.8,504
1569683123,320.129,-135.843,-14.1759,-179.912,2.10938,-144.8,504
1569683123,320.129,-135.843,-14.1759,-179.912,2.10938,-144.8,504
1569683123,320.129,-135.843,-14.1759,-179.912,2.10938,-144.8,504
1569683123,320.129,-135.843,-14.1759,-179.912,2.10938,-144.8,504
1569683123,320.129,-135.843,-14.1759,-179.912,2.10938,-144.8,500
1569683123,320.129,-135.843,-14.1759,-179.912,2.10938,-144.8,504
1569683123,320.129,-135.843,-14.1759,-179.912,2.10938,-144.8,504
1569683123,320.129,-135.843,-14.1759,-179.912,2.10938,-144.8,504
1569683123,320.129,-135.843,-14.1759,-179.912,2.10938,-144.8,504
1569683123,320.129,-135.843,-14.1759,-179.912,2.10938,-144.8,504
1569683123,320.129,-135.843,-14.1759,-179.912,2.10938,-144.8,504
1569683123,320.129,-135.843,-14.1759,-179.912,2.10938,-144.8,504
1569683123,320.129,-135.843,-14.1759,-179.912,2.10938,-144.8,504
1569683123,320.129,-135.843,-14.1759,-179.912,2.10938,-144.8,504
1569683123,320.129,-135.843,-14.1759,-179.912,2.10938,-144.8,504
1569683123,320.241,-135.843,-14.1759,-179.912,2.10938,-144.8,504
1569683123,320.241,-135.843,-14.1759,-179.912,2.10938,-144.8,504
1569683123,320.241,-135.843,-14.1759,-179.912,2.10938,-144.8,504
1569683123,320.241,-135.843,-14.1759,-179.912,2.10938,-144.8,504
1569683123,320.241,-135.843,-14.2875,-179.912,2.10938,-144.8,504
1569683123,320.241,-135.843,-14.2875,-179.912,2.10938,-144.8,504
1569683123,320.241,-135.843,-14.2875,-179.912,2.10938,-144.8,504
1569683123,320.241,-135.843,-14.2875,-179.912,2.10938,-144.8,504
1569683123,320.241,-135.843,-14.2875,-179.912,2.10938,-144.8,504
1569683123,320.241,-135.843,-14.2875,-179.912,2.10938,-144.8,504
1569683123,320.241,-135.843,-14.2875,-179.912,2.10938,-144.8,504
1569683123,320.241,-135.843,-14.2875,-179.912,2.10938,-144.8,504
1569683123,320.241,-135.843,-14.2875,-179.912,2.10938,-144.8,504
1569683123,320.241,-135.843,-14.2875,-179.912,2.10938,-144.8,504
1569683123,320.241,-135.843,-14.2875,-179.912,2.10938,-144.8,504
1569683123,320.241,-135.954,-14.2875,-179.912,2.10938,-144.8,504
1569683123,320.241,-135.954,-14.2875,-179.912,2.10938,-144.8,504
1569683123,320.241,-135.954,-14.1759,-179.912,2.10938,-144.8,504
1569683123,320.241,-135.843,-14.1759,-179.912,2.10938,-144.8,504
1569683123,320.241,-135.843,-14.1759,-179.912,2.10938,-144.8,504
1569683123,320.241,-135.843,-14.1759,-179.89,2.10938,-144.8,508
1569683123,320.241,-135.843,-14.1759,-179.89,2.10938,-144.8,508
1569683123,320.241,-135.843,-14.1759,-179.89,2.10938,-144.8,508
1569683123,320.241,-135.843,-14.1759,-179.89,2.10938,-144.8,508
1569683123,320.241,-135.843,-14.1759,-179.89,2.10938,-144.8,508
1569683123,320.241,-135.843,-14.1759,-179.89,2.10938,-144.8,508
1569683123,320.241,-135.843,-14.1759,-179.89,2.10938,-144.8,508
1569683123,320.241,-135.843,-14.1759,-179.89,2.10938,-144.8,508
1569683123,320.241,-135.843,-14.1759,-179.89,2.10938,-144.8,508
1569683123,320.241,-135.843,-14.1759,-179.89,2.10938,-144.8,512
1569683123,320.241,-135.843,-14.1759,-179.89,2.10938,-144.8,512
1569683123,320.241,-135.843,-14.1759,-179.89,2.10938,-144.8,512
1569683123,320.241,-135.843,-14.1759,-179.89,2.10938,-144.8,512
1569683123,320.241,-135.843,-14.1759,-179.89,2.10938,-144.8,508
1569683123,320.241,-135.843,-14.1759,-179.89,2.10938,-144.8,508
1569683123,320.241,-135.843,-14.1759,-179.89,2.10938,-144.8,508
1569683123,320.241,-135.843,-14.1759,-179.89,2.10938,-144.8,512
1569683123,320.241,-135.954,-14.1759,-179.89,2.10938,-144.8,512
1569683123,320.241,-135.954,-14.1759,-179.89,2.10938,-144.8,512
1569683123,320.241,-135.954,-14.1759,-179.89,2.10938,-144.8,512
1569683123,320.241,-135.954,-14.1759,-179.89,2.10938,-144.8,512
1569683123,320.241,-135.954,-14.1759,-179.89,2.10938,-144.8,512
1569683123,320.241,-135.954,-14.1759,-179.89,2.10938,-144.8,512
1569683123,320.241,-135.954,-14.1759,-179.89,2.10938,-144.8,512
1569683123,320.241,-135.954,-14.1759,-179.89,2.10938,-144.8,512
1569683123,320.241,-135.954,-14.1759,-179.89,2.13135,-144.8,512
1569683123,320.241,-135.954,-14.1759,-179.89,2.13135,-144.8,512
1569683123,320.241,-135.954,-14.1759,-179.89,2.10938,-144.8,512
1569683123,320.241,-135.954,-14.1759,-179.89,2.10938,-144.8,516
1569683123,320.241,-135.843,-14.1759,-179.89,2.10938,-144.8,516
1569683123,320.241,-135.843,-14.1759,-179.89,2.10938,-144.8,516
1569683123,320.241,-135.843,-14.1759,-179.89,2.10938,-144.8,516
1569683123,320.241,-135.843,-14.1759,-179.89,2.10938,-144.8,516
1569683123,320.241,-135.843,-14.1759,-179.89,2.10938,-144.8,516
1569683123,320.241,-135.843,-14.1759,-179.89,2.10938,-144.8,516
1569683123,320.241,-135.843,-14.1759,-179.89,2.10938,-144.8,520
1569683123,320.241,-135.843,-14.1759,-179.89,2.10938,-144.8,520
1569683123,320.241,-135.843,-14.1759,-179.89,2.10938,-144.8,520
1569683123,320.241,-135.843,-14.1759,-179.89,2.10938,-144.8,520
1569683124,320.241,-135.843,-14.1759,-179.89,2.10938,-144.8,520
1569683124,320.241,-135.843,-14.1759,-179.89,2.10938,-144.8,520
1569683124,320.241,-135.843,-14.1759,-179.89,2.10938,-144.8,520
1569683124,320.241,-135.843,-14.1759,-179.89,2.10938,-144.8,520
1569683124,320.241,-135.843,-14.1759,-179.89,2.10938,-144.8,520
1569683124,320.241,-135.843,-14.1759,-179.89,2.10938,-144.8,520
1569683124,320.241,-135.843,-14.1759,-179.89,2.10938,-144.8,520
1569683124,320.241,-135.843,-14.1759,-179.89,2.10938,-144.8,520
1569683124,320.241,-135.843,-14.1759,-179.89,2.10938,-144.8,524
1569683124,320.241,-135.843,-14.1759,-179.89,2.10938,-144.8,524
1569683124,320.241,-135.843,-14.1759,-179.89,2.10938,-144.8,524
1569683124,320.241,-135.843,-14.1759,-179.89,2.10938,-144.8,524
1569683124,320.241,-135.843,-14.1759,-179.89,2.10938,-144.8,528
1569683124,320.129,-135.843,-14.1759,-179.89,2.10938,-144.8,528
1569683124,320.241,-135.843,-14.1759,-179.89,2.10938,-144.8,528
1569683124,320.241,-135.843,-14.1759,-179.89,2.10938,-144.8,528
1569683124,320.241,-135.843,-14.1759,-179.89,2.10938,-144.8,528
1569683124,320.241,-135.843,-14.1759,-179.912,2.10938,-144.8,528
1569683124,320.241,-135.843,-14.1759,-179.912,2.10938,-144.8,528
1569683124,320.241,-135.843,-14.1759,-179.912,2.10938,-144.8,532
1569683124,320.241,-135.843,-14.1759,-179.912,2.10938,-144.8,532
1569683124,320.241,-135.843,-14.1759,-179.912,2.10938,-144.8,532
1569683124,320.241,-135.843,-14.1759,-179.912,2.10938,-144.8,532
1569683124,320.241,-135.843,-14.1759,-179.912,2.10938,-144.8,532
1569683124,320.241,-135.843,-14.1759,-179.912,2.10938,-144.8,532
1569683124,320.241,-135.843,-14.1759,-179.912,2.10938,-144.8,528
1569683124,320.241,-135.843,-14.1759,-179.912,2.10938,-144.8,528
1569683124,320.241,-135.843,-14.1759,-179.912,2.10938,-144.8,528
1569683124,320.241,-135.843,-14.1759,-179.912,2.10938,-144.8,528
1569683124,320.241,-135.843,-14.1759,-179.912,2.10938,-144.8,528
1569683124,320.241,-135.843,-14.1759,-179.912,2.10938,-144.8,528
1569683124,320.241,-135.843,-14.1759,-179.912,2.10938,-144.8,528
1569683124,320.241,-135.843,-14.1759,-179.912,2.10938,-144.8,528
1569683124,320.241,-135.843,-14.1759,-179.89,2.10938,-144.8,528
1569683124,320.241,-135.843,-14.1759,-179.89,2.10938,-144.8,524
1569683124,320.241,-135.843,-14.1759,-179.89,2.10938,-144.8,524
1569683124,320.241,-135.843,-14.1759,-179.89,2.10938,-144.8,524
1569683124,320.241,-135.843,-14.1759,-179.89,2.10938,-144.8,524
1569683124,320.241,-135.843,-14.1759,-179.89,2.10938,-144.8,524
1569683124,320.241,-135.843,-14.1759,-179.89,2.10938,-144.8,524
1569683124,320.241,-135.843,-14.1759,-179.89,2.10938,-144.8,524
1569683124,320.241,-135.843,-14.1759,-179.89,2.10938,-144.8,524
1569683124,320.241,-135.843,-14.1759,-179.89,2.10938,-144.8,524
1569683124,320.241,-135.843,-14.1759,-179.89,2.10938,-144.8,524
1569683124,320.241,-135.843,-14.1759,-179.89,2.10938,-144.8,524
1569683124,320.241,-135.843,-14.1759,-179.89,2.10938,-144.8,524
1569683124,320.241,-135.843,-14.1759,-179.89,2.10938,-144.8,524
1569683124,320.241,-135.843,-14.1759,-179.89,2.10938,-144.8,524
1569683124,320.241,-135.843,-14.1759,-179.89,2.10938,-144.8,524
1569683124,320.241,-135.843,-14.1759,-179.89,2.10938,-144.8,524
1569683124,320.241,-135.843,-14.1759,-179.89,2.10938,-144.8,524
1569683124,320.129,-135.843,-14.1759,-179.89,2.10938,-144.8,528
1569683124,320.129,-135.843,-14.1759,-179.89,2.10938,-144.822,528
1569683124,320.129,-135.843,-14.1759,-179.89,2.10938,-144.822,528
1569683124,320.241,-135.843,-14.1759,-179.89,2.10938,-144.822,528
1569683124,320.129,-135.843,-14.1759,-179.89,2.10938,-144.822,528
1569683124,320.129,-135.843,-14.1759,-179.89,2.10938,-144.822,528
1569683124,320.129,-135.843,-14.1759,-179.89,2.10938,-144.822,528
1569683124,320.129,-135.843,-14.1759,-179.89,2.10938,-144.822,528
1569683124,320.129,-135.843,-14.1759,-179.89,2.10938,-144.822,528
1569683124,320.129,-135.843,-14.1759,-179.89,2.10938,-144.822,528
1569683124,320.129,-135.843,-14.1759,-179.89,2.10938,-144.822,528
1569683124,320.129,-135.843,-14.1759,-179.89,2.10938,-144.822,528
1569683124,320.129,-135.843,-14.1759,-179.89,2.10938,-144.8,528
1569683124,320.129,-135.843,-14.2875,-179.912,2.10938,-144.8,528
1569683124,320.129,-135.843,-14.2875,-179.912,2.10938,-144.8,528
1569683124,320.129,-135.843,-14.2875,-179.912,2.10938,-144.8,528
1569683124,320.129,-135.843,-14.2875,-179.912,2.0874,-144.8,528
1569683124,320.129,-135.843,-14.2875,-179.912,2.0874,-144.8,528
1569683124,320.129,-135.843,-14.2875,-179.912,2.0874,-144.8,524
1569683124,320.129,-135.843,-14.2875,-179.912,2.0874,-144.8,524
1569683124,320.129,-135.843,-14.2875,-179.912,2.0874,-144.8,524
1569683124,320.129,-135.843,-14.2875,-179.912,2.0874,-144.8,524
1569683124,320.129,-135.843,-14.2875,-179.912,2.0874,-144.8,524
1569683124,320.129,-135.843,-14.2875,-179.912,2.0874,-144.8,524
1569683124,320.129,-135.954,-14.2875,-179.912,2.0874,-144.8,524
1569683124,320.129,-135.954,-14.2875,-179.912,2.0874,-144.8,524
1569683124,320.129,-135.954,-14.2875,-179.912,2.0874,-144.8,520
1569683124,320.129,-135.954,-14.2875,-179.912,2.0874,-144.8,520
1569683124,320.129,-135.954,-14.2875,-179.912,2.0874,-144.8,520
1569683124,320.129,-135.954,-14.2875,-179.912,2.0874,-144.8,520
1569683124,320.129,-135.954,-14.2875,-179.912,2.0874,-144.8,520
1569683124,320.129,-135.954,-14.2875,-179.912,2.0874,-144.8,520
1569683124,320.129,-135.843,-14.2875,-179.912,2.0874,-144.8,520
1569683124,320.129,-135.843,-14.2875,-179.912,2.0874,-144.8,520
1569683124,320.129,-135.843,-14.2875,-179.912,2.0874,-144.8,520
1569683124,320.129,-135.843,-14.2875,-179.912,2.0874,-144.8,520
1569683124,320.241,-135.843,-14.2875,-179.89,2.0874,-144.8,520
1569683124,320.241,-135.843,-14.2875,-179.89,2.0874,-144.8,520
1569683124,320.241,-135.843,-14.2875,-179.89,2.0874,-144.8,520
1569683124,320.241,-135.843,-14.2875,-179.89,2.0874,-144.8,520
1569683124,320.241,-135.843,-14.2875,-179.89,2.0874,-144.8,520
1569683124,320.241,-135.843,-14.2875,-179.89,2.0874,-144.8,520
1569683124,320.241,-135.843,-14.2875,-179.89,2.0874,-144.8,520
1569683124,320.241,-135.843,-14.2875,-179.89,2.0874,-144.8,520
1569683124,320.241,-135.843,-14.1759,-179.89,2.10938,-144.8,520
1569683124,320.241,-135.843,-14.1759,-179.89,2.10938,-144.8,520
1569683124,320.241,-135.843,-14.1759,-179.89,2.10938,-144.8,520
1569683124,320.241,-135.843,-14.1759,-179.89,2.10938,-144.8,520
1569683124,320.241,-135.843,-14.1759,-179.89,2.10938,-144.8,520
1569683125,320.241,-135.843,-14.1759,-179.89,2.10938,-144.8,520
1569683125,320.241,-135.843,-14.1759,-179.89,2.10938,-144.8,520
1569683125,320.241,-135.843,-14.1759,-179.89,2.10938,-144.8,520
1569683125,320.241,-135.843,-14.1759,-179.89,2.13135,-144.8,520
1569683125,320.241,-135.843,-14.1759,-179.89,2.13135,-144.8,520
1569683125,320.241,-135.843,-14.1759,-179.89,2.13135,-144.8,520
1569683125,320.241,-135.843,-14.1759,-179.89,2.13135,-144.8,520
1569683125,320.241,-135.843,-14.1759,-179.89,2.13135,-144.8,520
1569683125,320.241,-135.843,-14.1759,-179.89,2.13135,-144.8,520
1569683125,320.241,-135.843,-14.1759,-179.89,2.13135,-144.8,520
1569683125,320.241,-135.843,-14.1759,-179.89,2.13135,-144.8,520
1569683125,320.241,-135.843,-14.1759,-179.89,2.13135,-144.8,520
1569683125,320.241,-135.843,-14.1759,-179.89,2.13135,-144.8,520
1569683125,320.241,-135.843,-14.1759,-179.89,2.13135,-144.8,520
1569683125,320.241,-135.843,-14.1759,-179.89,2.13135,-144.8,520
1569683125,320.241,-135.843,-14.1759,-179.89,2.13135,-144.8,520
1569683125,320.241,-135.843,-14.1759,-179.89,2.13135,-144.8,520
1569683125,320.241,-135.843,-14.1759,-179.89,2.13135,-144.8,520
1569683125,320.241,-135.843,-14.1759,-179.89,2.13135,-144.8,520
1569683125,320.241,-135.843,-14.1759,-179.89,2.13135,-144.8,520
1569683125,320.241,-135.843,-14.1759,-179.89,2.13135,-144.8,520
1569683125,320.241,-135.843,-14.1759,-179.89,2.13135,-144.8,520
1569683125,320.241,-135.843,-14.1759,-179.89,2.13135,-144.8,520
1569683125,320.241,-135.843,-14.1759,-179.89,2.13135,-144.8,520
1569683125,320.241,-135.843,-14.1759,-179.89,2.13135,-144.8,520
1569683125,320.241,-135.843,-14.1759,-179.89,2.13135,-144.8,520
1569683125,320.241,-135.843,-14.1759,-179.89,2.13135,-144.8,516
1569683125,320.241,-135.843,-14.1759,-179.89,2.13135,-144.8,516
1569683125,320.241,-135.843,-14.1759,-179.89,2.10938,-144.8,516
1569683125,320.241,-135.843,-14.1759,-179.89,2.10938,-144.8,516
1569683125,320.241,-135.843,-14.1759,-179.89,2.10938,-144.8,516
1569683125,320.241,-135.843,-14.1759,-179.89,2.10938,-144.8,516
1569683125,320.241,-135.843,-14.1759,-179.89,2.10938,-144.8,516
1569683125,320.241,-135.843,-14.1759,-179.89,2.10938,-144.8,520
1569683125,320.241,-135.843,-14.1759,-179.89,2.10938,-144.8,520
1569683125,320.241,-135.843,-14.1759,-179.89,2.10938,-144.8,520
1569683125,320.241,-135.843,-14.1759,-179.89,2.0874,-144.8,520
1569683125,320.241,-135.843,-14.1759,-179.89,2.0874,-144.8,520
1569683125,320.241,-135.843,-14.1759,-179.89,2.0874,-144.8,520
1569683125,320.241,-135.843,-14.1759,-179.89,2.0874,-144.8,520
1569683125,320.241,-135.843,-14.1759,-179.89,2.0874,-144.8,520
1569683125,320.241,-135.843,-14.1759,-179.89,2.0874,-144.8,520
1569683125,320.241,-135.843,-14.1759,-179.89,2.0874,-144.8,520
1569683125,320.241,-135.843,-14.1759,-179.89,2.0874,-144.8,520
1569683125,320.241,-135.843,-14.1759,-179.89,2.0874,-144.8,520
1569683125,320.241,-135.843,-14.2875,-179.89,2.0874,-144.8,520
1569683125,320.241,-135.843,-14.2875,-179.89,2.0874,-144.8,520
1569683125,320.241,-135.843,-14.2875,-179.89,2.0874,-144.8,516
1569683125,320.241,-135.843,-14.2875,-179.89,2.06543,-144.8,516
1569683125,320.241,-135.843,-14.2875,-179.89,2.06543,-144.8,516
1569683125,320.241,-135.843,-14.2875,-179.89,2.06543,-144.8,516
1569683125,320.241,-135.843,-14.2875,-179.89,2.06543,-144.8,516
1569683125,320.241,-135.843,-14.2875,-179.89,2.06543,-144.778,516
1569683125,320.241,-135.843,-14.2875,-179.89,2.06543,-144.778,516
1569683125,320.241,-135.843,-14.2875,-179.89,2.06543,-144.778,516
1569683125,320.241,-135.843,-14.2875,-179.912,2.06543,-144.778,516
1569683125,320.241,-135.843,-14.2875,-179.912,2.0874,-144.778,516
1569683125,320.241,-135.843,-14.2875,-179.912,2.0874,-144.778,516
1569683125,320.129,-135.843,-14.2875,-179.912,2.0874,-144.778,516
1569683125,320.241,-135.843,-14.2875,-179.912,2.0874,-144.778,516
1569683125,320.241,-135.843,-14.2875,-179.912,2.0874,-144.8,512
1569683125,320.241,-135.843,-14.2875,-179.912,2.0874,-144.8,512
1569683125,320.241,-135.843,-14.2875,-179.912,2.0874,-144.8,512
1569683125,320.241,-135.843,-14.2875,-179.912,2.0874,-144.8,512
1569683125,320.241,-135.843,-14.2875,-179.912,2.0874,-144.8,512
1569683125,320.241,-135.843,-14.2875,-179.912,2.0874,-144.8,512
1569683125,320.241,-135.843,-14.2875,-179.912,2.0874,-144.8,512
1569683125,320.241,-135.843,-14.1759,-179.912,2.0874,-144.8,512
1569683125,320.241,-135.843,-14.1759,-179.89,2.0874,-144.8,512
1569683125,320.241,-135.843,-14.1759,-179.89,2.0874,-144.778,512
1569683125,320.241,-135.843,-14.1759,-179.89,2.0874,-144.778,512
1569683125,320.241,-135.843,-14.1759,-179.89,2.0874,-144.778,512
1569683125,320.241,-135.843,-14.1759,-179.89,2.10938,-144.778,512
1569683125,320.241,-135.843,-14.1759,-179.89,2.10938,-144.778,512
1569683125,320.241,-135.843,-14.1759,-179.89,2.10938,-144.778,512
1569683125,320.241,-135.843,-14.1759,-179.89,2.10938,-144.778,512
1569683125,320.241,-135.843,-14.1759,-179.89,2.10938,-144.778,512
1569683125,320.241,-135.843,-14.1759,-179.89,2.10938,-144.778,512
1569683125,320.241,-135.843,-14.1759,-179.912,2.10938,-144.778,512
1569683125,320.241,-135.843,-14.1759,-179.912,2.10938,-144.778,512
1569683125,320.241,-135.843,-14.1759,-179.912,2.10938,-144.778,512
1569683125,320.241,-135.843,-14.1759,-179.912,2.10938,-144.778,512
1569683125,320.241,-135.843,-14.1759,-179.912,2.10938,-144.778,512
1569683125,320.241,-135.843,-14.1759,-179.89,2.10938,-144.778,512
1569683125,320.241,-135.843,-14.1759,-179.89,2.10938,-144.778,512
1569683125,320.241,-135.843,-14.1759,-179.89,2.10938,-144.778,512
1569683125,320.241,-135.843,-14.1759,-179.89,2.10938,-144.778,512
1569683125,320.241,-135.843,-14.1759,-179.89,2.10938,-144.778,512
1569683125,320.241,-135.843,-14.1759,-179.89,2.10938,-144.778,512
1569683125,320.241,-135.843,-14.1759,-179.89,2.10938,-144.8,512
1569683125,320.129,-135.843,-14.1759,-179.89,2.10938,-144.8,512
1569683125,320.129,-135.843,-14.1759,-179.89,2.10938,-144.8,512
1569683125,320.129,-135.843,-14.1759,-179.89,2.0874,-144.8,512
1569683125,320.129,-135.843,-14.1759,-179.89,2.0874,-144.8,516
1569683125,320.129,-135.843,-14.1759,-179.89,2.0874,-144.8,516
1569683125,320.129,-135.843,-14.1759,-179.89,2.0874,-144.8,516
1569683125,320.129,-135.843,-14.1759,-179.89,2.0874,-144.8,516
1569683125,320.129,-135.843,-14.1759,-179.89,2.0874,-144.8,516
1569683125,320.129,-135.843,-14.1759,-179.89,2.0874,-144.8,516
1569683125,320.129,-135.843,-14.1759,-179.89,2.0874,-144.8,520
1569683126,320.129,-135.843,-14.1759,-179.89,2.0874,-144.8,520
1569683126,320.129,-135.843,-14.1759,-179.89,2.0874,-144.8,520
1569683126,320.241,-135.843,-14.1759,-179.89,2.0874,-144.8,520
1569683126,320.241,-135.843,-14.2875,-179.89,2.0874,-144.8,520
1569683126,320.241,-135.843,-14.2875,-179.89,2.0874,-144.8,520
1569683126,320.241,-135.843,-14.2875,-179.89,2.0874,-144.8,520
1569683126,320.241,-135.843,-14.2875,-179.89,2.0874,-144.8,520
1569683126,320.241,-135.843,-14.2875,-179.89,2.0874,-144.8,520
1569683126,320.241,-135.843,-14.2875,-179.89,2.0874,-144.8,520
1569683126,320.241,-135.843,-14.2875,-179.89,2.0874,-144.8,516
1569683126,320.241,-135.843,-14.2875,-179.89,2.0874,-144.8,516
1569683126,320.241,-135.843,-14.2875,-179.89,2.0874,-144.8,516
1569683126,320.241,-135.843,-14.2875,-179.89,2.0874,-144.8,516
1569683126,320.241,-135.843,-14.2875,-179.89,2.0874,-144.8,516
1569683126,320.241,-135.843,-14.2875,-179.89,2.0874,-144.8,516
1569683126,320.241,-135.843,-14.2875,-179.89,2.0874,-144.8,516
1569683126,320.241,-135.843,-14.2875,-179.89,2.0874,-144.8,516
1569683126,320.241,-135.843,-14.2875,-179.868,2.0874,-144.8,516
1569683126,320.241,-135.843,-14.2875,-179.868,2.0874,-144.8,516
1569683126,320.241,-135.843,-14.2875,-179.868,2.0874,-144.8,516
1569683126,320.241,-135.843,-14.2875,-179.868,2.0874,-144.8,516
1569683126,320.241,-135.731,-14.2875,-179.868,2.0874,-144.8,516
1569683126,320.241,-135.731,-14.2875,-179.868,2.0874,-144.8,516
1569683126,320.241,-135.731,-14.2875,-179.868,2.0874,-144.822,516
1569683126,320.241,-135.731,-14.2875,-179.868,2.0874,-144.822,516
1569683126,320.241,-135.731,-14.2875,-179.868,2.0874,-144.822,516
1569683126,320.241,-135.731,-14.2875,-179.868,2.0874,-144.822,516
1569683126,320.241,-135.731,-14.2875,-179.868,2.0874,-144.822,516
1569683126,320.241,-135.731,-14.2875,-179.868,2.0874,-144.822,516
1569683126,320.241,-135.731,-14.2875,-179.868,2.0874,-144.822,516
1569683126,320.241,-135.843,-14.2875,-179.868,2.0874,-144.822,516
1569683126,320.241,-135.843,-14.2875,-179.868,2.0874,-144.822,516
1569683126,320.241,-135.843,-14.2875,-179.868,2.0874,-144.822,516
1569683126,320.241,-135.843,-14.2875,-179.868,2.0874,-144.822,516
1569683126,320.241,-135.843,-14.1759,-179.868,2.10938,-144.822,516
1569683126,320.241,-135.843,-14.1759,-179.868,2.10938,-144.8,516
1569683126,320.241,-135.843,-14.1759,-179.868,2.10938,-144.8,516
1569683126,320.241,-135.843,-14.1759,-179.868,2.10938,-144.8,516
1569683126,320.241,-135.843,-14.1759,-179.89,2.10938,-144.8,516
1569683126,320.241,-135.843,-14.1759,-179.89,2.10938,-144.8,520
1569683126,320.241,-135.843,-14.1759,-179.89,2.10938,-144.8,520
1569683126,320.241,-135.843,-14.1759,-179.89,2.10938,-144.8,520
1569683126,320.241,-135.843,-14.1759,-179.89,2.10938,-144.8,520
1569683126,320.241,-135.843,-14.1759,-179.89,2.10938,-144.8,520
1569683126,320.241,-135.843,-14.1759,-179.89,2.10938,-144.8,520
1569683126,320.241,-135.843,-14.1759,-179.89,2.10938,-144.8,520
1569683126,320.241,-135.843,-14.1759,-179.89,2.10938,-144.8,520
1569683126,320.241,-135.843,-14.1759,-179.89,2.10938,-144.8,520
1569683126,320.241,-135.843,-14.1759,-179.89,2.10938,-144.8,520
1569683126,320.241,-135.843,-14.1759,-179.89,2.13135,-144.8,520
1569683126,320.241,-135.843,-14.1759,-179.89,2.13135,-144.8,520
1569683126,320.241,-135.843,-14.1759,-179.89,2.13135,-144.8,520
1569683126,320.241,-135.843,-14.1759,-179.89,2.10938,-144.8,520
1569683126,320.241,-135.843,-14.1759,-179.89,2.10938,-144.8,520
1569683126,320.241,-135.843,-14.1759,-179.89,2.10938,-144.8,520
1569683126,320.241,-135.843,-14.1759,-179.89,2.10938,-144.8,520
1569683126,320.241,-135.843,-14.1759,-179.89,2.10938,-144.8,520
1569683126,320.241,-135.843,-14.1759,-179.89,2.10938,-144.8,520
1569683126,320.241,-135.843,-14.1759,-179.89,2.10938,-144.8,520
1569683126,320.241,-135.843,-14.1759,-179.89,2.10938,-144.8,520
1569683126,320.241,-135.843,-14.1759,-179.89,2.10938,-144.8,520
1569683126,320.241,-135.843,-14.1759,-179.89,2.10938,-144.8,520
1569683126,320.241,-135.843,-14.1759,-179.89,2.10938,-144.8,516
1569683126,320.241,-135.843,-14.1759,-179.89,2.10938,-144.8,516
1569683126,320.241,-135.843,-14.2875,-179.89,2.10938,-144.8,516
1569683126,320.241,-135.843,-14.2875,-179.89,2.10938,-144.8,512
1569683126,320.241,-135.843,-14.2875,-179.89,2.10938,-144.8,512
1569683126,320.241,-135.843,-14.2875,-179.89,2.10938,-144.8,512
1569683126,320.241,-135.843,-14.2875,-179.89,2.10938,-144.8,508
1569683126,320.241,-135.843,-14.2875,-179.89,2.10938,-144.8,508
1569683126,320.241,-135.843,-14.2875,-179.89,2.10938,-144.8,508
1569683126,320.241,-135.843,-14.2875,-179.89,2.10938,-144.8,504
1569683126,320.241,-135.843,-14.2875,-179.89,2.10938,-144.8,504
1569683126,320.241,-135.843,-14.2875,-179.89,2.10938,-144.8,504
1569683126,320.241,-135.843,-14.2875,-179.89,2.10938,-144.8,504
1569683126,320.241,-135.843,-14.1759,-179.89,2.10938,-144.8,504
1569683126,320.241,-135.843,-14.1759,-179.89,2.10938,-144.8,504
1569683126,320.241,-135.843,-14.1759,-179.912,2.10938,-144.8,504
1569683126,320.241,-135.843,-14.1759,-179.912,2.10938,-144.8,504
1569683126,320.241,-135.843,-14.1759,-179.912,2.10938,-144.8,504
1569683126,320.241,-135.843,-14.1759,-179.912,2.10938,-144.8,504
1569683126,320.241,-135.843,-14.1759,-179.912,2.10938,-144.8,504
1569683126,320.241,-135.954,-14.1759,-179.912,2.10938,-144.8,508
1569683126,320.241,-135.954,-14.1759,-179.912,2.10938,-144.8,508
1569683126,320.241,-135.954,-14.1759,-179.912,2.10938,-144.8,508
1569683126,320.241,-135.954,-14.1759,-179.912,2.10938,-144.8,508
1569683126,320.241,-135.843,-14.1759,-179.912,2.10938,-144.8,508
1569683126,320.241,-135.843,-14.1759,-179.912,2.10938,-144.8,512
1569683126,320.241,-135.843,-14.1759,-179.912,2.10938,-144.8,512
1569683126,320.241,-135.843,-14.1759,-179.912,2.10938,-144.8,512
1569683126,320.241,-135.843,-14.1759,-179.912,2.10938,-144.8,512
1569683126,320.241,-135.843,-14.1759,-179.912,2.10938,-144.8,512
1569683126,320.241,-135.843,-14.1759,-179.912,2.10938,-144.8,512
1569683126,320.241,-135.843,-14.1759,-179.912,2.10938,-144.8,516
1569683126,320.241,-135.843,-14.1759,-179.89,2.10938,-144.8,516
1569683126,320.241,-135.843,-14.1759,-179.89,2.0874,-144.8,516
1569683126,320.241,-135.843,-14.1759,-179.89,2.0874,-144.8,516
1569683126,320.241,-135.843,-14.1759,-179.89,2.0874,-144.8,516
1569683126,320.241,-135.843,-14.2875,-179.89,2.0874,-144.8,520
1569683126,320.241,-135.843,-14.2875,-179.89,2.0874,-144.8,520
1569683127,320.241,-135.843,-14.2875,-179.89,2.0874,-144.8,520
1569683127,320.241,-135.843,-14.2875,-179.89,2.0874,-144.8,520
1569683127,320.241,-135.843,-14.2875,-179.89,2.0874,-144.8,520
1569683127,320.241,-135.843,-14.2875,-179.89,2.0874,-144.8,520
1569683127,320.241,-135.843,-14.2875,-179.89,2.0874,-144.8,520
1569683127,320.241,-135.843,-14.2875,-179.912,2.0874,-144.8,520
1569683127,320.241,-135.843,-14.2875,-179.912,2.0874,-144.8,516
1569683127,320.241,-135.843,-14.2875,-179.912,2.0874,-144.8,516
1569683127,320.241,-135.843,-14.2875,-179.912,2.0874,-144.8,516
1569683127,320.241,-135.954,-14.2875,-179.912,2.0874,-144.8,516
1569683127,320.241,-135.954,-14.2875,-179.912,2.0874,-144.8,512
1569683127,320.241,-135.954,-14.2875,-179.912,2.0874,-144.8,512
1569683127,320.241,-135.954,-14.2875,-179.912,2.0874,-144.8,512
1569683127,320.241,-135.954,-14.2875,-179.912,2.0874,-144.8,508
1569683131,359.085,-175.803,-12.5016,-179.648,2.61475,-144.558,548
1569683131,359.085,-175.803,-12.5016,-179.648,2.61475,-144.558,548
1569683131,359.085,-175.803,-12.6132,-179.648,2.61475,-144.558,548
1569683131,359.085,-175.803,-12.6132,-179.648,2.61475,-144.558,548
1569683131,359.085,-175.803,-12.6132,-179.648,2.61475,-144.558,548
1569683131,359.085,-175.803,-12.5016,-179.67,2.61475,-144.558,548
1569683131,359.085,-175.803,-12.5016,-179.67,2.61475,-144.558,548
1569683131,359.085,-175.803,-12.5016,-179.67,2.61475,-144.558,548
1569683131,359.085,-175.803,-12.5016,-179.67,2.61475,-144.558,548
1569683131,359.085,-175.803,-12.6132,-179.67,2.61475,-144.558,548
1569683131,358.973,-175.803,-12.6132,-179.648,2.61475,-144.558,552
1569683131,358.973,-175.803,-12.6132,-179.648,2.61475,-144.58,552
1569683131,358.973,-175.803,-12.6132,-179.648,2.61475,-144.58,552
1569683131,359.085,-175.803,-12.6132,-179.648,2.61475,-144.58,552
1569683131,359.085,-175.803,-12.6132,-179.648,2.61475,-144.58,552
1569683131,359.085,-175.803,-12.5016,-179.648,2.61475,-144.558,552
1569683131,359.085,-175.803,-12.5016,-179.648,2.61475,-144.558,552
1569683131,359.085,-175.803,-12.6132,-179.648,2.61475,-144.558,552
1569683131,359.085,-175.803,-12.6132,-179.648,2.61475,-144.558,552
1569683131,359.085,-175.803,-12.6132,-179.648,2.61475,-144.558,552
1569683131,359.085,-175.803,-12.6132,-179.648,2.61475,-144.558,552
1569683131,359.085,-175.803,-12.6132,-179.648,2.61475,-144.558,552
1569683131,359.085,-175.803,-12.6132,-179.648,2.61475,-144.558,552
1569683131,359.085,-175.803,-12.6132,-179.648,2.61475,-144.558,552
1569683131,359.085,-175.803,-12.6132,-179.648,2.61475,-144.558,548
1569683131,359.085,-175.803,-12.6132,-179.648,2.61475,-144.558,548
1569683131,359.085,-175.803,-12.6132,-179.648,2.61475,-144.558,548
1569683131,359.085,-175.803,-12.6132,-179.648,2.61475,-144.558,548
1569683131,359.085,-175.803,-12.6132,-179.648,2.61475,-144.58,548
1569683131,359.085,-175.803,-12.6132,-179.648,2.61475,-144.58,548
1569683131,359.085,-175.803,-12.6132,-179.648,2.61475,-144.58,548
1569683131,359.085,-175.803,-12.6132,-179.648,2.61475,-144.58,548
1569683131,359.085,-175.803,-12.6132,-179.648,2.61475,-144.58,548
1569683131,359.085,-175.803,-12.6132,-179.648,2.61475,-144.58,548
1569683131,359.085,-175.803,-12.6132,-179.648,2.61475,-144.58,548
1569683131,359.085,-175.803,-12.6132,-179.648,2.61475,-144.58,548
1569683131,359.085,-175.803,-12.7248,-179.648,2.59277,-144.58,548
1569683131,359.085,-175.803,-12.7248,-179.67,2.59277,-144.58,548
1569683131,359.085,-175.803,-12.7248,-179.67,2.59277,-144.58,548
1569683131,359.085,-175.803,-12.7248,-179.67,2.59277,-144.58,544
1569683131,359.085,-175.803,-12.7248,-179.67,2.59277,-144.58,544
1569683131,359.085,-175.803,-12.7248,-179.67,2.59277,-144.58,544
1569683131,359.085,-175.803,-12.7248,-179.67,2.59277,-144.58,544
1569683131,359.085,-175.803,-12.7248,-179.67,2.5708,-144.58,544
1569683131,359.085,-175.803,-12.7248,-179.67,2.5708,-144.58,544
1569683131,359.085,-175.803,-12.7248,-179.648,2.5708,-144.58,544
1569683131,359.085,-175.803,-12.7248,-179.648,2.5708,-144.58,548
1569683131,359.085,-175.803,-12.7248,-179.648,2.5708,-144.58,548
1569683131,359.085,-175.803,-12.7248,-179.648,2.5708,-144.58,548
1569683131,359.085,-175.803,-12.7248,-179.648,2.5708,-144.58,548
1569683131,359.085,-175.803,-12.7248,-179.648,2.5708,-144.58,548
1569683131,359.085,-175.803,-12.7248,-179.648,2.5708,-144.58,548
1569683131,359.085,-175.803,-12.7248,-179.648,2.54883,-144.602,548
1569683131,359.085,-175.803,-12.7248,-179.648,2.54883,-144.58,548
1569683131,359.085,-175.803,-12.8364,-179.648,2.54883,-144.58,552
1569683131,359.085,-175.803,-12.8364,-179.648,2.54883,-144.602,552
1569683131,359.085,-175.803,-12.8364,-179.648,2.54883,-144.602,552
1569683131,359.085,-175.803,-12.8364,-179.648,2.54883,-144.602,552
1569683131,359.085,-175.803,-12.8364,-179.648,2.54883,-144.602,552
1569683131,359.085,-175.803,-12.8364,-179.648,2.54883,-144.602,552
1569683131,359.085,-175.803,-12.8364,-179.648,2.54883,-144.602,552
1569683131,359.085,-175.803,-12.8364,-179.648,2.54883,-144.602,552
1569683131,359.085,-175.803,-12.8364,-179.648,2.54883,-144.602,552
1569683131,359.085,-175.803,-12.8364,-179.648,2.54883,-144.602,556
1569683132,359.085,-175.803,-12.8364,-179.648,2.54883,-144.58,556
1569683132,359.085,-175.803,-12.7248,-179.648,2.54883,-144.58,556
1569683132,359.085,-175.803,-12.7248,-179.648,2.5708,-144.58,556
1569683132,359.085,-175.803,-12.7248,-179.648,2.5708,-144.58,556
1569683132,358.973,-175.803,-12.7248,-179.648,2.5708,-144.58,560
1569683132,358.973,-175.803,-12.7248,-179.648,2.5708,-144.58,560
1569683132,358.973,-175.803,-12.7248,-179.648,2.5708,-144.58,560
1569683132,358.973,-175.803,-12.7248,-179.648,2.5708,-144.58,560
1569683132,358.973,-175.803,-12.7248,-179.648,2.5708,-144.58,560
1569683132,358.973,-175.803,-12.6132,-179.648,2.59277,-144.58,564
1569683132,358.973,-175.803,-12.6132,-179.648,2.59277,-144.58,564
1569683132,358.973,-175.803,-12.6132,-179.648,2.59277,-144.58,568
1569683132,358.973,-175.803,-12.6132,-179.648,2.59277,-144.58,568
1569683132,358.973,-175.803,-12.6132,-179.648,2.59277,-144.58,568
1569683132,358.973,-175.803,-12.6132,-179.648,2.59277,-144.58,572
1569683132,358.973,-175.803,-12.6132,-179.648,2.59277,-144.58,576
1569683132,358.973,-175.803,-12.6132,-179.648,2.59277,-144.58,576
1569683132,358.973,-175.803,-12.6132,-179.648,2.59277,-144.58,580
1569683132,358.973,-175.803,-12.6132,-179.648,2.59277,-144.58,580
1569683132,358.973,-175.803,-12.6132,-179.67,2.59277,-144.58,584
1569683132,358.973,-175.803,-12.6132,-179.67,2.59277,-144.58,584
1569683132,358.973,-175.803,-12.6132,-179.67,2.59277,-144.58,588
1569683132,358.973,-175.803,-12.6132,-179.67,2.59277,-144.58,588
1569683132,358.973,-175.803,-12.6132,-179.67,2.59277,-144.58,588
1569683132,358.973,-175.915,-12.6132,-179.67,2.59277,-144.58,592
1569683132,358.973,-175.915,-12.6132,-179.67,2.59277,-144.58,592
1569683132,358.973,-175.915,-12.6132,-179.67,2.59277,-144.58,592
1569683132,358.973,-175.915,-12.6132,-179.67,2.59277,-144.58,592
1569683132,358.973,-175.915,-12.6132,-179.67,2.59277,-144.58,592
1569683132,358.973,-175.915,-12.6132,-179.67,2.59277,-144.58,592
1569683132,358.973,-175.915,-12.6132,-179.67,2.59277,-144.58,592
1569683132,358.973,-175.915,-12.7248,-179.67,2.5708,-144.58,592
1569683132,358.973,-175.915,-12.7248,-179.67,2.5708,-144.58,588
1569683132,358.973,-175.915,-12.7248,-179.67,2.5708,-144.58,588
1569683132,358.973,-175.915,-12.7248,-179.67,2.5708,-144.58,588
1569683132,358.973,-175.915,-12.7248,-179.67,2.5708,-144.58,584
1569683132,358.973,-175.915,-12.7248,-179.67,2.5708,-144.58,584
1569683132,358.973,-175.915,-12.7248,-179.67,2.54883,-144.58,580
1569683132,358.973,-175.915,-12.7248,-179.67,2.54883,-144.58,580
1569683132,358.973,-175.915,-12.8364,-179.648,2.54883,-144.58,580
1569683132,358.973,-175.915,-12.8364,-179.648,2.54883,-144.58,576
1569683132,359.085,-175.803,-12.8364,-179.648,2.54883,-144.58,576
1569683132,359.085,-175.803,-12.8364,-179.648,2.54883,-144.58,576
1569683132,359.085,-175.803,-12.8364,-179.648,2.54883,-144.58,572
1569683132,359.085,-175.803,-12.8364,-179.648,2.54883,-144.58,572
1569683132,359.085,-175.803,-12.8364,-179.648,2.54883,-144.58,572
1569683132,359.085,-175.803,-12.8364,-179.648,2.54883,-144.58,572
1569683132,359.085,-175.803,-12.8364,-179.648,2.54883,-144.58,572
1569683132,359.085,-175.803,-12.8364,-179.648,2.54883,-144.58,568
1569683132,359.085,-175.803,-12.8364,-179.648,2.54883,-144.602,568
1569683132,359.085,-175.803,-12.8364,-179.648,2.54883,-144.602,568
1569683132,359.085,-175.803,-12.8364,-179.648,2.54883,-144.602,568
1569683132,359.085,-175.803,-12.8364,-179.648,2.54883,-144.602,568
1569683132,359.085,-175.803,-12.8364,-179.648,2.54883,-144.602,564
1569683132,359.085,-175.803,-12.7248,-179.648,2.5708,-144.602,564
1569683132,359.085,-175.803,-12.7248,-179.648,2.5708,-144.602,564
1569683132,359.085,-175.803,-12.7248,-179.648,2.5708,-144.602,564
1569683132,359.085,-175.803,-12.7248,-179.648,2.5708,-144.602,560
1569683132,359.085,-175.803,-12.7248,-179.648,2.5708,-144.602,560
1569683132,359.085,-175.803,-12.7248,-179.648,2.5708,-144.602,560
1569683132,359.085,-175.803,-12.7248,-179.626,2.5708,-144.602,560
1569683132,359.085,-175.803,-12.7248,-179.626,2.5708,-144.602,560
1569683132,359.085,-175.803,-12.7248,-179.626,2.5708,-144.602,556
1569683132,359.085,-175.803,-12.7248,-179.648,2.5708,-144.602,556
1569683132,358.973,-175.803,-12.7248,-179.648,2.5708,-144.602,556
1569683132,358.973,-175.692,-12.7248,-179.648,2.5708,-144.602,556
1569683132,358.973,-175.692,-12.7248,-179.648,2.5708,-144.624,556
1569683132,358.973,-175.692,-12.7248,-179.648,2.5708,-144.624,556
1569683132,358.973,-175.692,-12.7248,-179.648,2.5708,-144.624,556
1569683132,358.973,-175.803,-12.7248,-179.648,2.5708,-144.624,556
1569683132,358.973,-175.803,-12.7248,-179.648,2.5708,-144.624,556
1569683132,358.973,-175.803,-12.7248,-179.648,2.5708,-144.624,556
1569683132,358.973,-175.803,-12.8364,-179.648,2.5708,-144.624,556
1569683132,358.973,-175.803,-12.8364,-179.648,2.5708,-144.624,556
1569683132,358.973,-175.803,-12.8364,-179.648,2.5708,-144.624,556
1569683132,358.973,-175.803,-12.8364,-179.648,2.5708,-144.624,556
1569683132,359.085,-175.803,-12.8364,-179.648,2.5708,-144.624,556
1569683132,359.085,-175.803,-12.7248,-179.648,2.5708,-144.624,552
1569683132,359.085,-175.803,-12.7248,-179.648,2.5708,-144.624,552
1569683132,359.085,-175.803,-12.7248,-179.67,2.5708,-144.624,552
1569683132,359.085,-175.803,-12.7248,-179.67,2.5708,-144.624,552
1569683132,359.085,-175.803,-12.7248,-179.67,2.5708,-144.602,552
1569683132,359.085,-175.915,-12.7248,-179.67,2.5708,-144.602,552
1569683132,359.085,-175.915,-12.7248,-179.67,2.5708,-144.602,548
1569683132,359.085,-175.915,-12.7248,-179.67,2.5708,-144.602,548
1569683132,359.085,-175.915,-12.7248,-179.67,2.5708,-144.602,548
1569683132,359.085,-175.915,-12.7248,-179.67,2.5708,-144.602,548
1569683132,359.085,-175.915,-12.7248,-179.67,2.5708,-144.602,548
1569683132,359.085,-175.915,-12.7248,-179.67,2.5708,-144.602,544
1569683132,359.197,-175.915,-12.7248,-179.67,2.5708,-144.602,544
1569683132,359.197,-175.915,-12.7248,-179.67,2.5708,-144.602,544
1569683132,359.197,-175.915,-12.7248,-179.67,2.5708,-144.602,544
1569683132,359.197,-175.915,-12.7248,-179.67,2.5708,-144.602,544
1569683132,359.197,-175.803,-12.7248,-179.67,2.5708,-144.602,544
1569683132,359.197,-175.803,-12.7248,-179.67,2.5708,-144.602,544
1569683132,359.197,-175.803,-12.7248,-179.67,2.5708,-144.602,544
1569683132,359.197,-175.803,-12.7248,-179.648,2.59277,-144.602,544
1569683132,359.197,-175.803,-12.7248,-179.648,2.59277,-144.602,544
1569683132,359.197,-175.803,-12.7248,-179.648,2.59277,-144.602,544
1569683132,359.085,-175.803,-12.7248,-179.648,2.59277,-144.602,544
1569683133,359.085,-175.803,-12.7248,-179.648,2.59277,-144.602,544
1569683133,359.197,-175.803,-12.7248,-179.648,2.59277,-144.602,544
1569683133,359.197,-175.803,-12.7248,-179.648,2.59277,-144.602,548
1569683133,359.197,-175.803,-12.6132,-179.648,2.59277,-144.602,548
1569683133,359.197,-175.803,-12.6132,-179.67,2.59277,-144.602,548
1569683133,359.197,-175.803,-12.6132,-179.67,2.59277,-144.602,548
1569683133,359.085,-175.803,-12.7248,-179.67,2.59277,-144.602,552
1569683133,359.085,-175.803,-12.7248,-179.67,2.59277,-144.602,552
1569683133,359.085,-175.803,-12.7248,-179.67,2.59277,-144.602,552
1569683133,359.085,-175.803,-12.7248,-179.67,2.59277,-144.602,552
1569683133,359.085,-175.803,-12.7248,-179.67,2.59277,-144.602,556
1569683133,359.085,-175.803,-12.7248,-179.67,2.59277,-144.602,556
1569683133,359.085,-175.803,-12.7248,-179.67,2.59277,-144.602,560
1569683133,359.085,-175.803,-12.7248,-179.67,2.59277,-144.602,560
1569683133,359.085,-175.803,-12.7248,-179.67,2.59277,-144.602,560
1569683133,359.085,-175.803,-12.7248,-179.67,2.59277,-144.602,564
1569683133,359.085,-175.803,-12.7248,-179.67,2.5708,-144.602,564
1569683133,358.973,-175.803,-12.7248,-179.67,2.5708,-144.602,564
1569683133,358.973,-175.803,-12.7248,-179.67,2.5708,-144.602,564
1569683133,358.973,-175.803,-12.7248,-179.67,2.5708,-144.602,568
1569683133,358.973,-175.803,-12.7248,-179.67,2.5708,-144.602,568
1569683133,358.973,-175.803,-12.7248,-179.67,2.5708,-144.602,568
1569683133,358.973,-175.803,-12.7248,-179.67,2.5708,-144.602,564
1569683133,359.085,-175.803,-12.7248,-179.67,2.5708,-144.602,564
1569683133,359.085,-175.803,-12.7248,-179.67,2.5708,-144.602,564
1569683133,359.085,-175.803,-12.7248,-179.67,2.5708,-144.602,564
1569683133,359.085,-175.803,-12.7248,-179.67,2.5708,-144.602,564
1569683133,359.085,-175.803,-12.7248,-179.67,2.5708,-144.602,560
1569683133,359.085,-175.803,-12.7248,-179.67,2.59277,-144.602,560
1569683133,359.085,-175.803,-12.7248,-179.67,2.59277,-144.602,560
1569683133,359.085,-175.803,-12.7248,-179.67,2.59277,-144.602,560
1569683133,359.085,-175.803,-12.7248,-179.67,2.59277,-144.602,556
1569683133,359.085,-175.803,-12.6132,-179.67,2.59277,-144.602,556
1569683133,359.085,-175.803,-12.6132,-179.67,2.59277,-144.602,556
1569683133,358.973,-175.803,-12.6132,-179.67,2.59277,-144.602,556
1569683133,358.973,-175.803,-12.6132,-179.692,2.59277,-144.602,556
1569683133,358.973,-175.803,-12.6132,-179.692,2.59277,-144.602,556
1569683133,358.973,-175.803,-12.6132,-179.692,2.59277,-144.602,556
1569683133,358.973,-175.803,-12.6132,-179.692,2.59277,-144.602,556
1569683133,358.973,-175.803,-12.6132,-179.692,2.59277,-144.602,552
1569683133,358.973,-175.803,-12.6132,-179.692,2.59277,-144.602,552
1569683133,358.973,-175.803,-12.7248,-179.714,2.59277,-144.602,552
1569683133,358.973,-175.915,-12.7248,-179.714,2.59277,-144.602,552
1569683133,358.973,-175.915,-12.7248,-179.714,2.59277,-144.602,552
1569683133,358.973,-175.915,-12.7248,-179.714,2.59277,-144.602,552
1569683133,358.973,-175.915,-12.7248,-179.714,2.59277,-144.602,552
1569683133,358.973,-175.915,-12.7248,-179.714,2.59277,-144.602,552
1569683133,358.973,-175.915,-12.7248,-179.714,2.59277,-144.602,552
1569683133,358.973,-175.915,-12.7248,-179.714,2.59277,-144.602,552
1569683133,358.973,-175.915,-12.7248,-179.714,2.59277,-144.602,552
1569683133,358.973,-175.915,-12.7248,-179.714,2.59277,-144.602,552
1569683133,358.973,-175.915,-12.6132,-179.714,2.59277,-144.602,552
1569683133,358.973,-175.915,-12.6132,-179.714,2.59277,-144.58,552
1569683133,358.973,-175.915,-12.6132,-179.714,2.59277,-144.58,552
1569683133,358.973,-175.915,-12.6132,-179.714,2.59277,-144.58,552
1569683133,358.973,-175.915,-12.6132,-179.714,2.59277,-144.58,548
1569683133,358.973,-175.915,-12.6132,-179.714,2.59277,-144.58,548
1569683133,358.973,-175.915,-12.6132,-179.714,2.59277,-144.58,548
1569683133,358.973,-175.915,-12.6132,-179.714,2.59277,-144.58,548
1569683133,358.973,-175.915,-12.6132,-179.714,2.59277,-144.58,548
1569683133,359.085,-175.915,-12.6132,-179.714,2.59277,-144.58,544
1569683133,359.085,-175.915,-12.6132,-179.714,2.59277,-144.58,544
1569683133,359.085,-175.915,-12.6132,-179.714,2.59277,-144.58,544
1569683133,359.085,-175.915,-12.6132,-179.714,2.59277,-144.558,544
1569683133,359.085,-175.915,-12.5016,-179.714,2.59277,-144.558,544
1569683133,359.085,-175.915,-12.5016,-179.714,2.61475,-144.558,548
1569683133,359.085,-175.915,-12.5016,-179.714,2.61475,-144.558,548
1569683133,359.085,-175.915,-12.5016,-179.692,2.61475,-144.558,548
1569683133,359.085,-175.915,-12.5016,-179.692,2.61475,-144.558,548
1569683133,359.085,-175.915,-12.5016,-179.692,2.61475,-144.558,552
1569683133,359.085,-175.915,-12.5016,-179.692,2.61475,-144.558,552
1569683133,359.085,-175.915,-12.5016,-179.692,2.61475,-144.558,552
1569683133,359.085,-175.915,-12.5016,-179.692,2.61475,-144.558,552
1569683133,359.085,-175.915,-12.5016,-179.692,2.61475,-144.58,556
1569683133,359.085,-175.915,-12.5016,-179.692,2.61475,-144.58,556
1569683133,359.085,-175.915,-12.5016,-179.692,2.61475,-144.58,556
1569683133,359.085,-175.803,-12.5016,-179.67,2.61475,-144.58,556
1569683133,358.973,-175.803,-12.5016,-179.67,2.61475,-144.58,556
1569683133,358.973,-175.803,-12.5016,-179.67,2.61475,-144.58,560
1569683133,358.973,-175.803,-12.5016,-179.67,2.61475,-144.58,560
1569683133,358.973,-175.803,-12.5016,-179.67,2.61475,-144.58,560
1569683133,358.973,-175.803,-12.5016,-179.67,2.61475,-144.58,560
1569683133,358.973,-175.803,-12.5016,-179.67,2.61475,-144.58,560
1569683133,358.973,-175.803,-12.6132,-179.67,2.61475,-144.58,560
1569683133,358.973,-175.803,-12.6132,-179.67,2.61475,-144.58,560
1569683133,358.973,-175.803,-12.6132,-179.67,2.61475,-144.58,560
1569683133,358.973,-175.803,-12.6132,-179.648,2.59277,-144.58,560
1569683133,358.973,-175.803,-12.6132,-179.648,2.59277,-144.58,560
1569683133,358.973,-175.803,-12.6132,-179.648,2.59277,-144.58,560
1569683133,359.085,-175.803,-12.6132,-179.648,2.59277,-144.58,560
1569683133,359.085,-175.803,-12.6132,-179.648,2.59277,-144.602,560
1569683133,359.085,-175.803,-12.6132,-179.648,2.59277,-144.602,564
1569683133,359.085,-175.803,-12.7248,-179.648,2.59277,-144.602,564
1569683133,359.085,-175.692,-12.7248,-179.648,2.59277,-144.602,564
1569683133,359.085,-175.692,-12.6132,-179.648,2.59277,-144.602,564
1569683133,359.085,-175.692,-12.6132,-179.648,2.59277,-144.602,564
1569683133,359.085,-175.692,-12.6132,-179.648,2.59277,-144.602,564
1569683133,359.085,-175.692,-12.6132,-179.648,2.59277,-144.602,564
1569683133,359.085,-175.692,-12.6132,-179.648,2.59277,-144.602,568
1569683133,359.085,-175.692,-12.6132,-179.648,2.61475,-144.602,568
1569683134,359.085,-175.692,-12.6132,-179.648,2.59277,-144.602,568
1569683134,359.085,-175.692,-12.6132,-179.648,2.59277,-144.602,568
1569683134,359.085,-175.692,-12.6132,-179.648,2.59277,-144.602,568
1569683134,358.973,-175.692,-12.6132,-179.648,2.59277,-144.602,572
1569683134,358.973,-175.692,-12.6132,-179.648,2.59277,-144.58,572
1569683134,358.973,-175.803,-12.6132,-179.648,2.59277,-144.58,572
1569683134,358.973,-175.803,-12.6132,-179.648,2.59277,-144.58,572
1569683134,358.973,-175.803,-12.6132,-179.648,2.59277,-144.58,572
1569683134,358.973,-175.803,-12.7248,-179.648,2.59277,-144.58,572
1569683134,358.973,-175.803,-12.7248,-179.648,2.5708,-144.58,572
1569683134,358.973,-175.803,-12.7248,-179.648,2.5708,-144.58,572
1569683134,358.973,-175.803,-12.7248,-179.67,2.5708,-144.58,572
1569683134,359.085,-175.803,-12.7248,-179.67,2.5708,-144.58,572
1569683134,359.085,-175.915,-12.7248,-179.67,2.5708,-144.58,572
1569683134,359.085,-175.915,-12.7248,-179.67,2.5708,-144.58,572
1569683134,359.085,-175.915,-12.7248,-179.67,2.5708,-144.58,572
1569683134,359.085,-175.915,-12.7248,-179.67,2.5708,-144.602,568
1569683134,359.085,-175.915,-12.7248,-179.67,2.5708,-144.602,568
1569683134,359.085,-175.915,-12.8364,-179.67,2.54883,-144.602,568
1569683134,359.085,-175.915,-12.8364,-179.67,2.54883,-144.602,568
1569683134,359.085,-175.915,-12.8364,-179.67,2.54883,-144.602,568
1569683134,359.085,-175.915,-12.8364,-179.67,2.54883,-144.602,568
1569683134,359.085,-175.915,-12.8364,-179.67,2.54883,-144.58,568
1569683134,359.085,-175.803,-12.8364,-179.67,2.54883,-144.58,568
1569683134,359.085,-175.803,-12.8364,-179.67,2.54883,-144.58,568
1569683134,359.085,-175.803,-12.8364,-179.67,2.54883,-144.58,568
1569683134,359.085,-175.803,-12.8364,-179.67,2.54883,-144.58,568
1569683134,359.085,-175.803,-12.8364,-179.648,2.54883,-144.58,568
1569683134,359.085,-175.803,-12.8364,-179.648,2.54883,-144.58,568
1569683134,359.085,-175.803,-12.8364,-179.648,2.54883,-144.58,568
1569683134,359.085,-175.803,-12.8364,-179.648,2.54883,-144.58,568
1569683134,359.085,-175.803,-12.8364,-179.648,2.54883,-144.58,568
1569683134,359.085,-175.803,-12.8364,-179.648,2.54883,-144.58,568
1569683134,359.085,-175.803,-12.8364,-179.648,2.54883,-144.58,572
1569683134,359.085,-175.803,-12.7248,-179.648,2.54883,-144.58,572
1569683134,359.085,-175.803,-12.7248,-179.648,2.54883,-144.58,572
1569683134,359.085,-175.803,-12.7248,-179.648,2.5708,-144.58,572
1569683134,359.085,-175.803,-12.7248,-179.648,2.5708,-144.58,572
1569683134,359.085,-175.803,-12.7248,-179.648,2.5708,-144.58,572
1569683134,359.085,-175.803,-12.7248,-179.648,2.5708,-144.58,572
1569683134,359.085,-175.803,-12.7248,-179.648,2.5708,-144.58,572
1569683134,359.085,-175.803,-12.7248,-179.648,2.5708,-144.58,572
1569683134,359.085,-175.803,-12.6132,-179.648,2.59277,-144.58,572
1569683134,359.085,-175.803,-12.6132,-179.648,2.59277,-144.58,572
1569683134,359.085,-175.803,-12.6132,-179.648,2.59277,-144.58,572
1569683134,359.085,-175.803,-12.6132,-179.648,2.59277,-144.58,572
