time,x,y,z,ax,ay,az,q
1568024947,312.316,77.5767,-17.4129,-1.88965,1.56006,-157.083,252
1568024947,312.316,77.5767,-17.4129,-1.88965,1.56006,-157.083,256
1568024947,312.316,77.5767,-17.4129,-1.88965,1.56006,-157.083,256
1568024947,312.316,77.5767,-17.4129,-1.88965,1.56006,-157.083,256
1568024947,312.316,77.5767,-17.4129,-1.88965,1.56006,-157.083,256
1568024947,312.316,77.5767,-17.4129,-1.88965,1.56006,-157.083,256
1568024947,312.316,77.5767,-17.4129,-1.88965,1.56006,-157.083,256
1568024947,312.316,77.5767,-17.4129,-1.88965,1.53809,-157.083,260
1568024947,312.316,77.5767,-17.4129,-1.88965,1.53809,-157.083,260
1568024947,312.316,77.5767,-17.4129,-1.88965,1.53809,-157.083,260
1568024947,312.316,77.5767,-17.4129,-1.88965,1.53809,-157.083,260
1568024947,312.316,77.5767,-17.4129,-1.88965,1.53809,-157.083,260
1568024947,312.316,77.5767,-17.4129,-1.88965,1.53809,-157.083,260
1568024947,312.316,77.5767,-17.4129,-1.88965,1.53809,-157.083,260
1568024947,312.204,77.5767,-17.4129,-1.88965,1.53809,-157.083,264
1568024947,312.204,77.5767,-17.4129,-1.88965,1.53809,-157.083,264
1568024947,312.204,77.5767,-17.4129,-1.88965,1.53809,-157.083,264
1568024947,312.204,77.5767,-17.4129,-1.88965,1.53809,-157.083,264
1568024947,312.204,77.5767,-17.4129,-1.88965,1.53809,-157.083,264
1568024947,312.204,77.5767,-17.4129,-1.88965,1.53809,-157.083,264
1568024947,312.204,77.5767,-17.4129,-1.88965,1.53809,-157.083,264
1568024947,312.204,77.5767,-17.4129,-1.88965,1.53809,-157.083,264
1568024947,312.204,77.5767,-17.4129,-1.88965,1.53809,-157.061,264
1568024947,312.316,77.5767,-17.4129,-1.88965,1.53809,-157.061,264
1568024947,312.316,77.5767,-17.4129,-1.88965,1.53809,-157.061,264
1568024947,312.316,77.5767,-17.4129,-1.88965,1.53809,-157.061,260
1568024947,312.316,77.5767,-17.4129,-1.88965,1.53809,-157.083,260
1568024947,312.316,77.5767,-17.4129,-1.88965,1.53809,-157.083,260
1568024947,312.316,77.5767,-17.4129,-1.88965,1.53809,-157.083,260
1568024947,312.316,77.5767,-17.4129,-1.88965,1.53809,-157.083,256
1568024948,312.316,77.5767,-17.4129,-1.88965,1.53809,-157.083,256
1568024948,312.316,77.5767,-17.4129,-1.88965,1.53809,-157.083,256
1568024948,312.316,77.5767,-17.4129,-1.88965,1.53809,-157.083,256
1568024948,312.316,77.5767,-17.4129,-1.88965,1.53809,-157.083,252
1568024948,312.316,77.5767,-17.4129,-1.88965,1.53809,-157.083,252
1568024948,312.316,77.5767,-17.4129,-1.88965,1.53809,-157.083,252
1568024948,312.316,77.5767,-17.4129,-1.88965,1.53809,-157.083,252
1568024948,312.316,77.5767,-17.4129,-1.88965,1.53809,-157.083,252
1568024948,312.316,77.5767,-17.4129,-1.88965,1.53809,-157.083,252
1568024948,312.316,77.5767,-17.4129,-1.88965,1.53809,-157.083,252
1568024948,312.316,77.5767,-17.4129,-1.88965,1.53809,-157.083,252
1568024948,312.316,77.5767,-17.4129,-1.88965,1.53809,-157.083,252
1568024948,312.316,77.5767,-17.4129,-1.88965,1.53809,-157.083,252
1568024948,312.316,77.5767,-17.4129,-1.88965,1.53809,-157.083,252
1568024948,312.316,77.5767,-17.4129,-1.88965,1.53809,-157.083,252
1568024948,312.316,77.5767,-17.4129,-1.88965,1.53809,-157.083,252
1568024948,312.316,77.5767,-17.4129,-1.88965,1.53809,-157.083,252
1568024948,312.316,77.5767,-17.4129,-1.88965,1.53809,-157.083,252
1568024948,312.316,77.5767,-17.4129,-1.88965,1.53809,-157.083,252
1568024948,312.316,77.5767,-17.4129,-1.88965,1.53809,-157.083,252
1568024948,312.316,77.5767,-17.4129,-1.88965,1.53809,-157.083,248
1568024948,312.316,77.5767,-17.4129,-1.88965,1.53809,-157.083,248
1568024948,312.316,77.5767,-17.4129,-1.88965,1.53809,-157.083,248
1568024948,312.316,77.5767,-17.4129,-1.88965,1.53809,-157.083,248
1568024948,312.316,77.5767,-17.4129,-1.88965,1.53809,-157.083,248
1568024948,312.316,77.5767,-17.4129,-1.88965,1.53809,-157.083,248
1568024948,312.316,77.5767,-17.4129,-1.88965,1.53809,-157.083,248
1568024948,312.316,77.5767,-17.3013,-1.88965,1.53809,-157.083,248
1568024948,312.316,77.5767,-17.3013,-1.88965,1.53809,-157.083,248
1568024948,312.316,77.5767,-17.3013,-1.88965,1.53809,-157.083,248
1568024948,312.316,77.5767,-17.3013,-1.88965,1.53809,-157.083,248
1568024948,312.316,77.5767,-17.3013,-1.88965,1.53809,-157.061,248
1568024948,312.316,77.5767,-17.3013,-1.88965,1.53809,-157.061,248
1568024948,312.316,77.5767,-17.3013,-1.88965,1.53809,-157.061,248
1568024948,312.316,77.5767,-17.3013,-1.88965,1.53809,-157.061,248
1568024948,312.316,77.5767,-17.3013,-1.88965,1.53809,-157.061,248
1568024948,312.316,77.5767,-17.4129,-1.88965,1.53809,-157.061,248
1568024948,312.316,77.5767,-17.4129,-1.88965,1.53809,-157.061,248
1568024948,312.316,77.5767,-17.4129,-1.88965,1.53809,-157.061,248
1568024948,312.316,77.5767,-17.4129,-1.88965,1.53809,-157.061,248
1568024948,312.316,77.5767,-17.4129,-1.88965,1.53809,-157.061,248
1568024948,312.316,77.5767,-17.3013,-1.88965,1.53809,-157.061,248
1568024948,312.316,77.5767,-17.3013,-1.88965,1.53809,-157.061,248
1568024948,312.316,77.5767,-17.3013,-1.88965,1.53809,-157.061,248
1568024948,312.316,77.5767,-17.3013,-1.88965,1.53809,-157.061,248
1568024948,312.316,77.5767,-17.3013,-1.88965,1.53809,-157.061,248
1568024948,312.316,77.5767,-17.3013,-1.88965,1.53809,-157.061,248
1568024948,312.316,77.5767,-17.3013,-1.88965,1.53809,-157.061,248
1568024948,312.316,77.5767,-17.3013,-1.88965,1.53809,-157.061,248
1568024948,312.316,77.5767,-17.3013,-1.88965,1.53809,-157.061,248
1568024948,312.316,77.5767,-17.3013,-1.88965,1.53809,-157.061,248
1568024948,312.316,77.5767,-17.3013,-1.88965,1.53809,-157.061,252
1568024948,312.316,77.5767,-17.3013,-1.88965,1.53809,-157.061,252
1568024948,312.316,77.5767,-17.3013,-1.88965,1.53809,-157.061,248
1568024948,312.316,77.5767,-17.3013,-1.88965,1.53809,-157.061,248
1568024948,312.316,77.5767,-17.3013,-1.88965,1.53809,-157.061,248
1568024948,312.316,77.5767,-17.4129,-1.88965,1.53809,-157.061,248
1568024948,312.316,77.5767,-17.4129,-1.88965,1.53809,-157.061,248
1568024948,312.316,77.5767,-17.4129,-1.88965,1.53809,-157.061,248
1568024948,312.316,77.5767,-17.4129,-1.88965,1.53809,-157.061,248
1568024948,312.316,77.5767,-17.4129,-1.88965,1.53809,-157.061,248
1568024948,312.316,77.5767,-17.4129,-1.88965,1.56006,-157.061,248
1568024948,312.316,77.5767,-17.4129,-1.88965,1.56006,-157.061,248
1568024948,312.316,77.5767,-17.4129,-1.88965,1.56006,-157.061,248
1568024948,312.316,77.5767,-17.4129,-1.88965,1.56006,-157.061,248
1568024948,312.316,77.5767,-17.4129,-1.88965,1.56006,-157.061,248
1568024948,312.316,77.5767,-17.4129,-1.88965,1.56006,-157.061,248
1568024948,312.316,77.5767,-17.4129,-1.88965,1.56006,-157.061,248
1568024948,312.316,77.5767,-17.4129,-1.88965,1.56006,-157.061,248
1568024948,312.316,77.5767,-17.4129,-1.88965,1.56006,-157.061,252
1568024948,312.316,77.5767,-17.4129,-1.88965,1.56006,-157.083,252
1568024948,312.316,77.5767,-17.4129,-1.88965,1.56006,-157.083,252
1568024948,312.316,77.5767,-17.4129,-1.88965,1.53809,-157.083,252
1568024948,312.316,77.5767,-17.4129,-1.88965,1.56006,-157.083,252
1568024948,312.316,77.5767,-17.4129,-1.88965,1.56006,-157.083,252
1568024948,312.316,77.5767,-17.4129,-1.88965,1.56006,-157.083,252
1568024948,312.316,77.5767,-17.4129,-1.88965,1.56006,-157.083,252
1568024948,312.316,77.5767,-17.4129,-1.88965,1.56006,-157.083,252
1568024948,312.316,77.5767,-17.4129,-1.88965,1.56006,-157.083,248
1568024948,312.316,77.5767,-17.4129,-1.88965,1.56006,-157.083,248
1568024948,312.316,77.5767,-17.4129,-1.88965,1.56006,-157.083,248
1568024948,312.316,77.5767,-17.4129,-1.88965,1.56006,-157.083,248
1568024948,312.316,77.5767,-17.4129,-1.88965,1.56006,-157.083,248
1568024948,312.316,77.5767,-17.4129,-1.88965,1.56006,-157.083,248
1568024948,312.316,77.5767,-17.4129,-1.88965,1.56006,-157.083,248
1568024948,312.316,77.5767,-17.4129,-1.88965,1.56006,-157.083,248
1568024948,312.316,77.5767,-17.4129,-1.88965,1.56006,-157.083,248
1568024948,312.316,77.5767,-17.4129,-1.88965,1.56006,-157.083,248
1568024948,312.316,77.5767,-17.4129,-1.88965,1.56006,-157.083,248
1568024948,312.316,77.5767,-17.4129,-1.88965,1.56006,-157.083,252
1568024948,312.316,77.5767,-17.4129,-1.88965,1.56006,-157.083,252
1568024948,312.316,77.5767,-17.4129,-1.88965,1.56006,-157.083,252
1568024948,312.316,77.5767,-17.4129,-1.88965,1.56006,-157.083,252
1568024948,312.316,77.5767,-17.4129,-1.88965,1.56006,-157.083,252
1568024948,312.316,77.5767,-17.4129,-1.88965,1.56006,-157.061,256
1568024948,312.316,77.5767,-17.4129,-1.88965,1.56006,-157.061,256
1568024948,312.316,77.5767,-17.4129,-1.86768,1.56006,-157.061,256
1568024948,312.316,77.5767,-17.4129,-1.86768,1.56006,-157.061,256
1568024948,312.316,77.5767,-17.4129,-1.86768,1.56006,-157.061,256
1568024948,312.316,77.5767,-17.4129,-1.86768,1.56006,-157.061,256
1568024949,312.316,77.5767,-17.4129,-1.86768,1.56006,-157.061,256
1568024949,312.316,77.5767,-17.4129,-1.86768,1.56006,-157.061,256
1568024949,312.316,77.5767,-17.4129,-1.86768,1.56006,-157.061,256
1568024949,312.316,77.5767,-17.4129,-1.86768,1.56006,-157.061,256
1568024949,312.316,77.5767,-17.4129,-1.86768,1.53809,-157.061,256
1568024949,312.316,77.5767,-17.4129,-1.86768,1.53809,-157.083,252
1568024949,312.316,77.5767,-17.4129,-1.86768,1.53809,-157.083,252
1568024949,312.316,77.5767,-17.4129,-1.86768,1.53809,-157.083,252
1568024949,312.316,77.5767,-17.4129,-1.86768,1.53809,-157.083,252
1568024949,312.316,77.5767,-17.4129,-1.86768,1.53809,-157.083,252
1568024949,312.316,77.5767,-17.4129,-1.86768,1.53809,-157.083,252
1568024949,312.316,77.5767,-17.3013,-1.86768,1.53809,-157.083,252
1568024949,312.316,77.5767,-17.3013,-1.86768,1.53809,-157.083,252
1568024949,312.316,77.5767,-17.3013,-1.86768,1.53809,-157.083,252
1568024949,312.316,77.5767,-17.3013,-1.86768,1.53809,-157.083,252
1568024949,312.316,77.5767,-17.3013,-1.86768,1.53809,-157.083,252
1568024949,312.316,77.5767,-17.3013,-1.86768,1.53809,-157.083,252
1568024949,312.316,77.5767,-17.3013,-1.86768,1.53809,-157.083,252
1568024949,312.316,77.5767,-17.3013,-1.86768,1.53809,-157.083,252
1568024949,312.316,77.5767,-17.3013,-1.88965,1.53809,-157.083,252
1568024949,312.316,77.5767,-17.3013,-1.88965,1.53809,-157.083,252
1568024949,312.316,77.5767,-17.3013,-1.88965,1.53809,-157.083,252
1568024949,312.316,77.5767,-17.3013,-1.88965,1.53809,-157.083,252
1568024949,312.316,77.5767,-17.3013,-1.88965,1.53809,-157.083,252
1568024949,312.316,77.5767,-17.3013,-1.88965,1.53809,-157.083,252
1568024949,312.316,77.5767,-17.3013,-1.88965,1.53809,-157.083,252
1568024949,312.316,77.5767,-17.4129,-1.88965,1.53809,-157.083,252
1568024949,312.316,77.5767,-17.4129,-1.88965,1.53809,-157.083,252
1568024949,312.316,77.5767,-17.4129,-1.88965,1.53809,-157.083,252
1568024949,312.316,77.5767,-17.4129,-1.88965,1.53809,-157.083,252
1568024949,312.316,77.5767,-17.4129,-1.88965,1.53809,-157.083,252
1568024949,312.316,77.5767,-17.4129,-1.88965,1.53809,-157.083,252
1568024949,312.316,77.5767,-17.4129,-1.88965,1.53809,-157.083,252
1568024949,312.316,77.5767,-17.4129,-1.88965,1.53809,-157.083,252
1568024949,312.316,77.5767,-17.4129,-1.88965,1.53809,-157.083,252
1568024949,312.316,77.5767,-17.4129,-1.88965,1.53809,-157.083,252
1568024949,312.316,77.5767,-17.4129,-1.88965,1.53809,-157.083,252
1568024949,312.316,77.5767,-17.4129,-1.88965,1.53809,-157.083,252
1568024949,312.316,77.5767,-17.4129,-1.88965,1.53809,-157.083,252
1568024949,312.316,77.5767,-17.4129,-1.88965,1.53809,-157.083,252
1568024949,312.316,77.5767,-17.4129,-1.88965,1.53809,-157.083,252
1568024949,312.316,77.5767,-17.4129,-1.88965,1.53809,-157.083,252
1568024949,312.316,77.5767,-17.4129,-1.88965,1.53809,-157.083,252
1568024949,312.316,77.5767,-17.4129,-1.86768,1.53809,-157.083,252
1568024949,312.316,77.6883,-17.4129,-1.86768,1.53809,-157.083,252
1568024949,312.316,77.6883,-17.4129,-1.86768,1.53809,-157.083,252
1568024949,312.316,77.6883,-17.4129,-1.86768,1.56006,-157.083,252
1568024949,312.316,77.6883,-17.4129,-1.86768,1.56006,-157.083,252
1568024949,312.316,77.6883,-17.4129,-1.86768,1.56006,-157.083,252
1568024949,312.316,77.5767,-17.4129,-1.86768,1.53809,-157.083,252
1568024949,312.316,77.5767,-17.4129,-1.88965,1.53809,-157.083,252
1568024949,312.316,77.5767,-17.4129,-1.88965,1.53809,-157.083,252
1568024949,312.316,77.5767,-17.4129,-1.88965,1.53809,-157.083,252
1568024949,312.316,77.5767,-17.4129,-1.88965,1.53809,-157.083,252
1568024949,312.316,77.5767,-17.4129,-1.88965,1.53809,-157.083,252
1568024949,312.316,77.5767,-17.4129,-1.88965,1.53809,-157.083,252
1568024949,312.316,77.5767,-17.4129,-1.88965,1.53809,-157.083,252
1568024949,312.316,77.5767,-17.4129,-1.88965,1.53809,-157.083,252
1568024949,312.316,77.5767,-17.4129,-1.88965,1.53809,-157.083,252
1568024949,312.316,77.5767,-17.4129,-1.88965,1.56006,-157.083,252
1568024949,312.316,77.5767,-17.4129,-1.88965,1.56006,-157.083,252
1568024949,312.316,77.5767,-17.4129,-1.88965,1.56006,-157.083,252
1568024949,312.316,77.5767,-17.4129,-1.88965,1.56006,-157.083,252
1568024949,312.316,77.5767,-17.4129,-1.88965,1.56006,-157.083,252
1568024949,312.316,77.5767,-17.4129,-1.88965,1.56006,-157.083,256
1568024949,312.316,77.5767,-17.4129,-1.88965,1.56006,-157.083,256
1568024949,312.316,77.5767,-17.4129,-1.88965,1.53809,-157.083,256
1568024949,312.316,77.5767,-17.4129,-1.88965,1.53809,-157.083,256
1568024949,312.316,77.5767,-17.4129,-1.88965,1.53809,-157.083,256
1568024949,312.316,77.5767,-17.4129,-1.88965,1.53809,-157.083,256
1568024949,312.316,77.5767,-17.4129,-1.88965,1.53809,-157.083,256
1568024949,312.316,77.5767,-17.4129,-1.88965,1.53809,-157.083,256
1568024949,312.316,77.5767,-17.4129,-1.88965,1.53809,-157.061,256
1568024949,312.316,77.5767,-17.4129,-1.88965,1.53809,-157.061,256
1568024949,312.316,77.5767,-17.4129,-1.88965,1.53809,-157.061,256
1568024949,312.316,77.5767,-17.4129,-1.88965,1.53809,-157.061,256
1568024949,312.316,77.5767,-17.4129,-1.88965,1.53809,-157.061,260
1568024949,312.316,77.5767,-17.4129,-1.88965,1.53809,-157.083,260
1568024949,312.316,77.5767,-17.4129,-1.88965,1.53809,-157.083,260
1568024949,312.316,77.5767,-17.4129,-1.88965,1.53809,-157.083,260
1568024949,312.316,77.5767,-17.4129,-1.88965,1.53809,-157.083,260
1568024949,312.316,77.5767,-17.4129,-1.88965,1.53809,-157.083,260
1568024949,312.204,77.5767,-17.4129,-1.88965,1.53809,-157.083,260
1568024949,312.204,77.5767,-17.4129,-1.88965,1.53809,-157.083,264
1568024949,312.204,77.5767,-17.4129,-1.88965,1.53809,-157.083,264
1568024949,312.204,77.5767,-17.4129,-1.88965,1.53809,-157.083,264
1568024949,312.204,77.5767,-17.4129,-1.88965,1.53809,-157.083,264
1568024949,312.204,77.5767,-17.4129,-1.88965,1.53809,-157.083,264
1568024949,312.316,77.5767,-17.4129,-1.88965,1.53809,-157.083,268
1568024949,312.316,77.5767,-17.4129,-1.88965,1.53809,-157.083,268
1568024949,312.316,77.5767,-17.4129,-1.88965,1.53809,-157.083,268
1568024949,312.316,77.5767,-17.4129,-1.88965,1.53809,-157.083,268
1568024949,312.316,77.5767,-17.4129,-1.88965,1.53809,-157.083,268
1568024949,312.316,77.5767,-17.4129,-1.88965,1.53809,-157.083,264
1568024949,312.316,77.5767,-17.4129,-1.88965,1.53809,-157.083,264
1568024949,312.316,77.5767,-17.4129,-1.88965,1.53809,-157.083,264
1568024949,312.316,77.5767,-17.4129,-1.88965,1.53809,-157.083,264
1568024949,312.316,77.5767,-17.4129,-1.88965,1.53809,-157.083,264
1568024949,312.316,77.5767,-17.4129,-1.88965,1.53809,-157.083,264
1568024949,312.316,77.5767,-17.4129,-1.86768,1.53809,-157.083,264
1568024950,312.316,77.5767,-17.4129,-1.86768,1.53809,-157.083,260
1568024950,312.316,77.5767,-17.4129,-1.86768,1.53809,-157.083,260
1568024950,312.316,77.5767,-17.4129,-1.86768,1.53809,-157.083,260
1568024950,312.316,77.5767,-17.4129,-1.86768,1.53809,-157.083,260
1568024950,312.316,77.5767,-17.4129,-1.86768,1.53809,-157.083,260
1568024950,312.316,77.5767,-17.4129,-1.86768,1.53809,-157.083,260
1568024950,312.316,77.6883,-17.4129,-1.86768,1.53809,-157.083,260
1568024950,312.316,77.6883,-17.4129,-1.86768,1.53809,-157.061,260
1568024950,312.316,77.6883,-17.4129,-1.86768,1.53809,-157.061,256
1568024950,312.316,77.6883,-17.4129,-1.86768,1.53809,-157.061,256
1568024950,312.316,77.5767,-17.4129,-1.86768,1.53809,-157.061,256
1568024950,312.316,77.5767,-17.4129,-1.86768,1.53809,-157.061,256
1568024950,312.316,77.5767,-17.4129,-1.86768,1.53809,-157.061,256
1568024950,312.316,77.5767,-17.4129,-1.86768,1.53809,-157.061,256
1568024950,312.316,77.5767,-17.4129,-1.86768,1.53809,-157.061,256
1568024950,312.316,77.5767,-17.4129,-1.86768,1.53809,-157.061,256
1568024950,312.316,77.5767,-17.4129,-1.88965,1.53809,-157.061,256
1568024950,312.316,77.5767,-17.4129,-1.88965,1.53809,-157.061,256
1568024950,312.316,77.5767,-17.4129,-1.88965,1.53809,-157.061,256
1568024950,312.316,77.5767,-17.4129,-1.88965,1.53809,-157.061,256
1568024950,312.316,77.5767,-17.4129,-1.88965,1.53809,-157.061,256
1568024950,312.316,77.5767,-17.4129,-1.88965,1.53809,-157.061,256
1568024950,312.316,77.5767,-17.4129,-1.88965,1.53809,-157.083,256
1568024950,312.316,77.5767,-17.4129,-1.88965,1.53809,-157.083,256
1568024950,312.316,77.5767,-17.4129,-1.88965,1.53809,-157.083,256
1568024950,312.316,77.5767,-17.4129,-1.88965,1.53809,-157.083,256
1568024950,312.316,77.5767,-17.4129,-1.88965,1.53809,-157.083,256
1568024950,312.316,77.5767,-17.4129,-1.88965,1.53809,-157.083,256
1568024950,312.316,77.5767,-17.4129,-1.88965,1.53809,-157.083,256
1568024950,312.316,77.5767,-17.4129,-1.88965,1.53809,-157.083,256
1568024950,312.316,77.5767,-17.4129,-1.88965,1.53809,-157.083,256
1568024950,312.316,77.5767,-17.4129,-1.88965,1.56006,-157.083,256
1568024950,312.316,77.5767,-17.4129,-1.88965,1.56006,-157.083,256
1568024950,312.316,77.5767,-17.4129,-1.88965,1.56006,-157.083,256
1568024950,312.316,77.5767,-17.4129,-1.88965,1.56006,-157.083,256
1568024950,312.316,77.5767,-17.4129,-1.88965,1.56006,-157.083,256
1568024950,312.316,77.5767,-17.4129,-1.88965,1.56006,-157.061,256
1568024950,312.204,77.5767,-17.4129,-1.88965,1.53809,-157.061,256
1568024950,312.204,77.5767,-17.4129,-1.86768,1.53809,-157.061,256
1568024950,312.204,77.5767,-17.4129,-1.86768,1.53809,-157.061,256
1568024950,312.204,77.5767,-17.4129,-1.86768,1.53809,-157.061,256
1568024950,312.204,77.5767,-17.4129,-1.86768,1.53809,-157.061,260
1568024950,312.204,77.5767,-17.4129,-1.86768,1.53809,-157.061,260
1568024950,312.204,77.5767,-17.4129,-1.86768,1.53809,-157.061,260
1568024950,312.204,77.5767,-17.4129,-1.86768,1.53809,-157.061,260
1568024950,312.204,77.5767,-17.4129,-1.86768,1.53809,-157.061,260
1568024950,312.204,77.5767,-17.4129,-1.86768,1.53809,-157.061,260
1568024950,312.204,77.5767,-17.4129,-1.86768,1.53809,-157.061,260
1568024950,312.204,77.5767,-17.4129,-1.86768,1.53809,-157.061,260
1568024950,312.204,77.5767,-17.4129,-1.86768,1.53809,-157.061,260
1568024950,312.204,77.5767,-17.4129,-1.86768,1.53809,-157.061,260
1568024950,312.204,77.5767,-17.3013,-1.86768,1.53809,-157.061,260
1568024950,312.204,77.5767,-17.3013,-1.86768,1.53809,-157.061,260
1568024950,312.204,77.5767,-17.3013,-1.86768,1.53809,-157.061,260
1568024950,312.204,77.5767,-17.3013,-1.86768,1.53809,-157.061,260
1568024950,312.204,77.5767,-17.3013,-1.86768,1.53809,-157.061,260
1568024950,312.204,77.5767,-17.3013,-1.86768,1.53809,-157.061,260
1568024950,312.204,77.5767,-17.3013,-1.86768,1.53809,-157.061,260
1568024950,312.204,77.5767,-17.3013,-1.86768,1.53809,-157.061,260
1568024950,312.316,77.5767,-17.3013,-1.86768,1.53809,-157.061,260
1568024950,312.316,77.5767,-17.3013,-1.86768,1.53809,-157.061,260
1568024950,312.316,77.5767,-17.3013,-1.86768,1.53809,-157.061,260
1568024950,312.316,77.5767,-17.3013,-1.88965,1.53809,-157.061,260
1568024950,312.316,77.5767,-17.3013,-1.88965,1.53809,-157.061,260
1568024950,312.316,77.5767,-17.4129,-1.86768,1.53809,-157.061,260
1568024950,312.316,77.5767,-17.4129,-1.86768,1.53809,-157.061,260
1568024950,312.316,77.5767,-17.4129,-1.86768,1.53809,-157.061,256
1568024950,312.316,77.5767,-17.4129,-1.86768,1.53809,-157.061,256
1568024950,312.316,77.5767,-17.4129,-1.86768,1.53809,-157.061,256
1568024950,312.316,77.5767,-17.4129,-1.88965,1.53809,-157.061,256
1568024950,312.316,77.5767,-17.4129,-1.88965,1.53809,-157.061,256
1568024950,312.316,77.5767,-17.4129,-1.88965,1.53809,-157.061,256
1568024950,312.316,77.5767,-17.4129,-1.88965,1.53809,-157.061,256
1568024950,312.316,77.5767,-17.4129,-1.88965,1.53809,-157.061,256
1568024950,312.316,77.5767,-17.4129,-1.88965,1.53809,-157.061,256
1568024950,312.316,77.5767,-17.4129,-1.88965,1.53809,-157.061,256
1568024950,312.316,77.5767,-17.4129,-1.88965,1.53809,-157.061,256
1568024950,312.316,77.5767,-17.4129,-1.88965,1.53809,-157.061,256
1568024950,312.316,77.5767,-17.4129,-1.88965,1.53809,-157.061,256
1568024950,312.316,77.5767,-17.4129,-1.88965,1.53809,-157.061,256
1568024950,312.316,77.5767,-17.4129,-1.88965,1.53809,-157.061,256
1568024950,312.316,77.5767,-17.4129,-1.88965,1.53809,-157.061,256
1568024950,312.204,77.5767,-17.4129,-1.88965,1.53809,-157.061,256
1568024950,312.316,77.5767,-17.4129,-1.88965,1.53809,-157.061,256
1568024950,312.316,77.5767,-17.3013,-1.88965,1.53809,-157.061,256
1568024950,312.316,77.5767,-17.3013,-1.88965,1.53809,-157.061,256
1568024950,312.316,77.5767,-17.3013,-1.88965,1.53809,-157.061,256
1568024950,312.316,77.5767,-17.3013,-1.88965,1.53809,-157.061,256
1568024950,312.316,77.5767,-17.3013,-1.88965,1.51611,-157.061,256
1568024950,312.316,77.5767,-17.3013,-1.88965,1.51611,-157.061,256
1568024950,312.316,77.5767,-17.3013,-1.86768,1.51611,-157.061,256
1568024950,312.316,77.5767,-17.3013,-1.88965,1.51611,-157.061,256
1568024950,312.316,77.5767,-17.3013,-1.88965,1.51611,-157.061,256
1568024950,312.316,77.5767,-17.3013,-1.88965,1.51611,-157.061,256
1568024950,312.316,77.5767,-17.3013,-1.88965,1.51611,-157.061,256
1568024950,312.316,77.5767,-17.3013,-1.88965,1.51611,-157.061,256
1568024950,312.316,77.5767,-17.3013,-1.88965,1.51611,-157.061,252
1568024950,312.316,77.5767,-17.3013,-1.88965,1.51611,-157.061,252
1568024950,312.316,77.5767,-17.3013,-1.88965,1.51611,-157.061,252
1568024950,312.316,77.5767,-17.3013,-1.88965,1.51611,-157.061,252
1568024951,312.316,77.5767,-17.3013,-1.88965,1.51611,-157.061,252
1568024951,312.316,77.5767,-17.3013,-1.88965,1.51611,-157.061,252
1568024951,312.316,77.5767,-17.3013,-1.88965,1.51611,-157.061,252
1568024951,312.316,77.5767,-17.3013,-1.88965,1.53809,-157.083,252
1568024951,312.316,77.5767,-17.4129,-1.86768,1.53809,-157.083,252
1568024951,312.316,77.5767,-17.4129,-1.86768,1.53809,-157.083,252
1568024951,312.316,77.5767,-17.4129,-1.86768,1.53809,-157.083,252
1568024951,312.316,77.5767,-17.4129,-1.86768,1.53809,-157.083,252
1568024951,312.316,77.5767,-17.4129,-1.86768,1.53809,-157.083,252
1568024951,312.316,77.5767,-17.4129,-1.88965,1.53809,-157.083,252
1568024951,312.316,77.5767,-17.4129,-1.88965,1.53809,-157.083,248
1568024951,312.316,77.5767,-17.4129,-1.88965,1.53809,-157.083,248
1568024951,312.316,77.5767,-17.4129,-1.86768,1.53809,-157.083,248
1568024951,312.316,77.5767,-17.4129,-1.86768,1.53809,-157.083,248
1568024951,312.316,77.5767,-17.4129,-1.88965,1.53809,-157.083,248
1568024951,312.316,77.5767,-17.4129,-1.88965,1.53809,-157.083,248
1568024951,312.316,77.5767,-17.4129,-1.88965,1.53809,-157.083,248
1568024951,312.316,77.5767,-17.4129,-1.88965,1.53809,-157.083,248
1568024951,312.316,77.5767,-17.4129,-1.88965,1.53809,-157.083,248
1568024951,312.316,77.5767,-17.4129,-1.88965,1.53809,-157.083,248
1568024951,312.316,77.5767,-17.4129,-1.88965,1.53809,-157.083,248
1568024951,312.316,77.5767,-17.4129,-1.88965,1.53809,-157.083,248
1568024951,312.316,77.5767,-17.4129,-1.88965,1.53809,-157.083,248
1568024951,312.316,77.5767,-17.4129,-1.88965,1.53809,-157.083,248
1568024951,312.316,77.5767,-17.4129,-1.88965,1.53809,-157.083,248
1568024951,312.316,77.5767,-17.4129,-1.88965,1.53809,-157.083,248
1568024951,312.316,77.5767,-17.4129,-1.88965,1.53809,-157.061,248
1568024951,312.316,77.5767,-17.4129,-1.88965,1.53809,-157.061,248
1568024951,312.316,77.5767,-17.4129,-1.88965,1.53809,-157.061,248
1568024951,312.316,77.5767,-17.4129,-1.88965,1.53809,-157.061,248
1568024951,312.316,77.5767,-17.4129,-1.88965,1.53809,-157.061,248
1568024951,312.316,77.5767,-17.4129,-1.88965,1.53809,-157.061,248
1568024951,312.316,77.5767,-17.4129,-1.88965,1.53809,-157.061,248
1568024951,312.316,77.5767,-17.4129,-1.88965,1.53809,-157.061,248
1568024951,312.316,77.5767,-17.4129,-1.88965,1.53809,-157.061,248
1568024951,312.316,77.5767,-17.4129,-1.88965,1.53809,-157.061,248
1568024951,312.316,77.5767,-17.4129,-1.88965,1.53809,-157.061,248
1568024951,312.316,77.5767,-17.4129,-1.88965,1.53809,-157.061,248
1568024951,312.316,77.5767,-17.4129,-1.88965,1.53809,-157.061,248
1568024951,312.316,77.5767,-17.4129,-1.88965,1.53809,-157.061,248
1568024951,312.316,77.5767,-17.4129,-1.88965,1.53809,-157.061,248
1568024951,312.316,77.5767,-17.3013,-1.88965,1.53809,-157.061,248
1568024951,312.316,77.5767,-17.3013,-1.88965,1.53809,-157.061,248
1568024951,312.316,77.5767,-17.3013,-1.88965,1.53809,-157.061,248
1568024951,312.316,77.5767,-17.3013,-1.88965,1.53809,-157.061,248
1568024951,312.316,77.5767,-17.3013,-1.88965,1.53809,-157.061,248
1568024951,312.316,77.5767,-17.3013,-1.88965,1.53809,-157.061,248
1568024951,312.316,77.5767,-17.3013,-1.88965,1.53809,-157.061,248
1568024951,312.316,77.5767,-17.3013,-1.88965,1.53809,-157.061,248
1568024951,312.316,77.5767,-17.3013,-1.88965,1.53809,-157.061,248
1568024951,312.316,77.5767,-17.3013,-1.86768,1.53809,-157.061,248
1568024951,312.316,77.5767,-17.3013,-1.86768,1.53809,-157.061,248
1568024951,312.316,77.6883,-17.3013,-1.86768,1.53809,-157.061,248
1568024951,312.316,77.6883,-17.3013,-1.86768,1.53809,-157.061,248
1568024951,312.316,77.6883,-17.3013,-1.86768,1.53809,-157.061,248
1568024951,312.316,77.6883,-17.3013,-1.86768,1.53809,-157.061,244
1568024951,312.316,77.6883,-17.3013,-1.86768,1.53809,-157.061,244
1568024951,312.316,77.6883,-17.3013,-1.86768,1.51611,-157.061,244
1568024951,312.316,77.6883,-17.3013,-1.88965,1.51611,-157.061,244
1568024951,312.316,77.6883,-17.3013,-1.88965,1.51611,-157.061,244
1568024951,312.316,77.5767,-17.3013,-1.88965,1.51611,-157.061,244
1568024951,312.316,77.5767,-17.3013,-1.88965,1.51611,-157.061,244
1568024951,312.316,77.5767,-17.3013,-1.88965,1.51611,-157.061,244
1568024951,312.316,77.5767,-17.3013,-1.88965,1.51611,-157.061,244
1568024951,312.316,77.5767,-17.3013,-1.88965,1.51611,-157.061,244
1568024951,312.316,77.5767,-17.3013,-1.88965,1.53809,-157.061,244
1568024951,312.316,77.5767,-17.4129,-1.88965,1.53809,-157.061,244
1568024951,312.316,77.5767,-17.4129,-1.88965,1.53809,-157.061,244
1568024951,312.316,77.5767,-17.4129,-1.88965,1.53809,-157.061,248
1568024951,312.316,77.5767,-17.4129,-1.88965,1.53809,-157.083,248
1568024951,312.316,77.5767,-17.4129,-1.88965,1.53809,-157.083,248
1568024951,312.316,77.5767,-17.4129,-1.88965,1.53809,-157.083,248
1568024951,312.316,77.5767,-17.4129,-1.88965,1.53809,-157.083,248
1568024951,312.316,77.5767,-17.4129,-1.88965,1.53809,-157.083,248
1568024951,312.316,77.5767,-17.4129,-1.88965,1.53809,-157.083,248
1568024951,312.316,77.5767,-17.4129,-1.88965,1.53809,-157.083,248
1568024951,312.316,77.5767,-17.4129,-1.88965,1.53809,-157.083,252
1568024951,312.316,77.5767,-17.4129,-1.88965,1.53809,-157.083,252
1568024951,312.316,77.5767,-17.4129,-1.88965,1.53809,-157.083,252
1568024951,312.316,77.5767,-17.4129,-1.88965,1.53809,-157.061,252
1568024951,312.316,77.5767,-17.4129,-1.88965,1.53809,-157.061,252
1568024951,312.316,77.5767,-17.4129,-1.88965,1.53809,-157.061,252
1568024951,312.316,77.5767,-17.4129,-1.88965,1.53809,-157.061,252
1568024951,312.316,77.5767,-17.4129,-1.88965,1.53809,-157.061,252
1568024951,312.316,77.5767,-17.4129,-1.88965,1.53809,-157.061,256
1568024951,312.316,77.5767,-17.4129,-1.88965,1.53809,-157.083,256
1568024951,312.316,77.5767,-17.4129,-1.88965,1.53809,-157.083,256
1568024951,312.316,77.5767,-17.4129,-1.86768,1.53809,-157.083,256
1568024951,312.316,77.5767,-17.4129,-1.86768,1.53809,-157.083,256
1568024951,312.316,77.5767,-17.4129,-1.86768,1.53809,-157.083,256
1568024951,312.316,77.5767,-17.4129,-1.86768,1.53809,-157.083,256
1568024951,312.316,77.5767,-17.4129,-1.86768,1.53809,-157.083,256
1568024951,312.316,77.5767,-17.4129,-1.86768,1.53809,-157.083,256
1568024951,312.316,77.5767,-17.4129,-1.88965,1.53809,-157.083,256
1568024951,312.316,77.5767,-17.4129,-1.88965,1.53809,-157.083,256
1568024951,312.316,77.5767,-17.4129,-1.88965,1.53809,-157.083,256
1568024951,312.316,77.5767,-17.4129,-1.88965,1.53809,-157.083,256
1568024951,312.316,77.5767,-17.4129,-1.88965,1.53809,-157.083,256
1568024951,312.316,77.5767,-17.4129,-1.88965,1.53809,-157.083,256
1568024951,312.316,77.5767,-17.4129,-1.88965,1.53809,-157.083,256
1568024952,312.316,77.5767,-17.4129,-1.88965,1.53809,-157.083,256
1568024952,312.316,77.5767,-17.4129,-1.88965,1.53809,-157.083,256
1568024952,312.316,77.5767,-17.4129,-1.88965,1.53809,-157.083,256
1568024952,312.316,77.5767,-17.4129,-1.88965,1.53809,-157.083,256
1568024952,312.316,77.5767,-17.4129,-1.88965,1.53809,-157.083,256
1568024952,312.316,77.5767,-17.4129,-1.88965,1.56006,-157.083,256
1568024952,312.316,77.5767,-17.4129,-1.86768,1.56006,-157.083,256
1568024952,312.316,77.5767,-17.4129,-1.86768,1.56006,-157.083,256
1568024952,312.316,77.6883,-17.4129,-1.86768,1.56006,-157.083,256
1568024952,312.316,77.6883,-17.4129,-1.86768,1.56006,-157.083,256
1568024952,312.316,77.6883,-17.4129,-1.86768,1.56006,-157.083,256
1568024952,312.316,77.6883,-17.4129,-1.86768,1.56006,-157.083,256
1568024952,312.316,77.6883,-17.4129,-1.86768,1.56006,-157.083,256
1568024952,312.316,77.6883,-17.4129,-1.86768,1.56006,-157.083,256
1568024952,312.316,77.6883,-17.4129,-1.86768,1.56006,-157.083,256
1568024952,312.316,77.6883,-17.4129,-1.86768,1.56006,-157.083,256
1568024952,312.316,77.6883,-17.4129,-1.86768,1.56006,-157.083,256
1568024952,312.316,77.5767,-17.4129,-1.86768,1.56006,-157.083,256
1568024952,312.316,77.5767,-17.4129,-1.86768,1.56006,-157.083,256
1568024952,312.316,77.5767,-17.4129,-1.86768,1.56006,-157.083,256
1568024952,312.316,77.5767,-17.4129,-1.86768,1.56006,-157.083,256
1568024952,312.316,77.5767,-17.4129,-1.86768,1.56006,-157.083,256
1568024952,312.316,77.5767,-17.4129,-1.86768,1.56006,-157.083,256
1568024952,312.316,77.5767,-17.4129,-1.86768,1.56006,-157.083,256
1568024952,312.316,77.5767,-17.4129,-1.86768,1.56006,-157.083,256
1568024952,312.316,77.5767,-17.4129,-1.86768,1.56006,-157.083,252
1568024952,312.316,77.5767,-17.4129,-1.86768,1.56006,-157.083,252
1568024952,312.316,77.5767,-17.4129,-1.86768,1.56006,-157.083,252
1568024952,312.316,77.5767,-17.4129,-1.88965,1.56006,-157.083,252
1568024952,312.316,77.5767,-17.4129,-1.88965,1.56006,-157.083,252
1568024952,312.316,77.5767,-17.4129,-1.88965,1.56006,-157.083,252
1568024952,312.316,77.5767,-17.4129,-1.88965,1.56006,-157.083,252
1568024952,312.316,77.5767,-17.4129,-1.88965,1.56006,-157.083,252
1568024952,312.316,77.5767,-17.4129,-1.88965,1.56006,-157.083,252
1568024952,312.316,77.5767,-17.4129,-1.88965,1.56006,-157.083,252
1568024952,312.316,77.5767,-17.4129,-1.88965,1.56006,-157.083,252
1568024952,312.316,77.5767,-17.4129,-1.88965,1.56006,-157.083,252
1568024952,312.316,77.5767,-17.4129,-1.88965,1.56006,-157.083,252
1568024952,312.316,77.5767,-17.4129,-1.88965,1.56006,-157.083,252
1568024952,312.316,77.5767,-17.4129,-1.88965,1.56006,-157.083,252
1568024952,312.316,77.5767,-17.4129,-1.88965,1.56006,-157.083,252
1568024952,312.316,77.5767,-17.4129,-1.88965,1.56006,-157.083,248
1568024952,312.316,77.5767,-17.4129,-1.88965,1.56006,-157.083,248
1568024952,312.316,77.5767,-17.4129,-1.88965,1.56006,-157.083,248
1568024952,312.316,77.5767,-17.4129,-1.88965,1.56006,-157.083,248
1568024952,312.316,77.5767,-17.4129,-1.88965,1.56006,-157.083,248
1568024952,312.316,77.5767,-17.4129,-1.88965,1.56006,-157.083,248
1568024952,312.316,77.5767,-17.4129,-1.88965,1.56006,-157.083,248
1568024952,312.316,77.5767,-17.4129,-1.88965,1.53809,-157.083,244
1568024952,312.316,77.5767,-17.4129,-1.88965,1.53809,-157.083,244
1568024952,312.316,77.5767,-17.4129,-1.88965,1.53809,-157.083,244
1568024952,312.316,77.5767,-17.4129,-1.88965,1.56006,-157.083,244
1568024952,312.316,77.5767,-17.4129,-1.88965,1.56006,-157.083,244
1568024952,312.316,77.5767,-17.4129,-1.88965,1.56006,-157.083,244
1568024952,312.316,77.5767,-17.4129,-1.88965,1.56006,-157.083,244
1568024952,312.316,77.5767,-17.4129,-1.88965,1.53809,-157.083,244
1568024952,312.316,77.5767,-17.4129,-1.88965,1.53809,-157.083,248
1568024952,312.316,77.5767,-17.4129,-1.88965,1.53809,-157.083,248
1568024952,312.316,77.5767,-17.4129,-1.88965,1.53809,-157.083,248
1568024952,312.316,77.5767,-17.4129,-1.88965,1.53809,-157.083,248
1568024952,312.316,77.5767,-17.4129,-1.88965,1.53809,-157.083,248
1568024952,312.316,77.5767,-17.4129,-1.88965,1.53809,-157.083,248
1568024952,312.316,77.5767,-17.4129,-1.88965,1.53809,-157.083,248
1568024952,312.316,77.5767,-17.4129,-1.88965,1.53809,-157.083,248
1568024952,312.316,77.5767,-17.4129,-1.88965,1.53809,-157.083,248
1568024952,312.316,77.5767,-17.4129,-1.88965,1.53809,-157.083,252
1568024952,312.316,77.5767,-17.4129,-1.88965,1.53809,-157.083,252
1568024952,312.316,77.5767,-17.4129,-1.88965,1.53809,-157.083,252
1568024952,312.316,77.5767,-17.4129,-1.88965,1.53809,-157.083,252
1568024952,312.316,77.5767,-17.4129,-1.88965,1.53809,-157.083,252
1568024960,296.912,93.985,-17.4129,-1.95557,1.34033,-156.445,248
1568024960,296.912,93.985,-17.4129,-1.95557,1.34033,-156.445,248
1568024960,296.912,93.985,-17.4129,-1.95557,1.34033,-156.445,248
1568024960,296.912,93.985,-17.4129,-1.95557,1.34033,-156.445,248
1568024960,296.912,93.985,-17.4129,-1.95557,1.34033,-156.445,248
1568024960,296.912,94.0966,-17.4129,-1.95557,1.34033,-156.445,248
1568024960,296.912,94.0966,-17.4129,-1.95557,1.34033,-156.445,248
1568024960,296.912,94.0966,-17.4129,-1.95557,1.34033,-156.445,248
1568024960,296.912,94.0966,-17.4129,-1.95557,1.34033,-156.445,244
1568024960,296.912,94.0966,-17.4129,-1.95557,1.34033,-156.445,244
1568024960,296.912,94.0966,-17.4129,-1.95557,1.34033,-156.445,244
1568024960,296.912,94.0966,-17.4129,-1.95557,1.34033,-156.445,244
1568024960,296.912,94.0966,-17.4129,-1.95557,1.34033,-156.445,244
1568024960,296.912,94.0966,-17.4129,-1.95557,1.34033,-156.445,244
1568024960,296.912,94.0966,-17.4129,-1.95557,1.34033,-156.445,244
1568024960,296.912,94.0966,-17.4129,-1.93359,1.34033,-156.445,244
1568024960,296.912,94.0966,-17.4129,-1.93359,1.3623,-156.445,244
1568024960,296.912,94.0966,-17.4129,-1.93359,1.3623,-156.445,244
1568024960,296.912,94.0966,-17.4129,-1.93359,1.3623,-156.445,244
1568024960,296.912,94.0966,-17.4129,-1.93359,1.3623,-156.445,244
1568024960,296.912,94.0966,-17.4129,-1.93359,1.3623,-156.445,244
1568024960,296.912,94.0966,-17.4129,-1.93359,1.3623,-156.445,244
1568024960,296.912,94.0966,-17.4129,-1.93359,1.3623,-156.445,244
1568024960,296.912,94.0966,-17.5245,-1.93359,1.3623,-156.445,244
1568024960,296.912,94.0966,-17.5245,-1.93359,1.3623,-156.445,244
1568024960,296.912,94.0966,-17.5245,-1.93359,1.3623,-156.445,244
1568024960,296.912,94.0966,-17.5245,-1.93359,1.3623,-156.445,244
1568024960,296.912,94.0966,-17.4129,-1.93359,1.3623,-156.445,244
1568024960,296.912,94.0966,-17.4129,-1.93359,1.3623,-156.445,244
1568024960,296.912,94.0966,-17.4129,-1.93359,1.3623,-156.445,244
1568024960,296.912,94.0966,-17.4129,-1.93359,1.3623,-156.445,244
1568024960,296.912,94.0966,-17.4129,-1.93359,1.3623,-156.445,244
1568024960,296.912,94.0966,-17.4129,-1.93359,1.3623,-156.445,244
1568024960,296.912,94.0966,-17.4129,-1.93359,1.3623,-156.445,244
1568024960,296.912,94.0966,-17.4129,-1.93359,1.3623,-156.445,244
1568024960,296.912,94.0966,-17.4129,-1.93359,1.3623,-156.445,244
1568024960,296.912,94.0966,-17.4129,-1.93359,1.3623,-156.445,244
1568024960,296.912,94.0966,-17.4129,-1.93359,1.34033,-156.445,244
1568024960,296.912,94.0966,-17.4129,-1.93359,1.34033,-156.445,244
1568024960,296.912,94.0966,-17.4129,-1.93359,1.34033,-156.445,244
1568024960,296.912,94.0966,-17.4129,-1.93359,1.34033,-156.445,244
1568024960,296.912,94.0966,-17.4129,-1.93359,1.34033,-156.445,244
1568024960,296.912,94.0966,-17.4129,-1.93359,1.34033,-156.423,244
1568024960,296.912,94.0966,-17.4129,-1.93359,1.34033,-156.423,244
1568024960,296.912,94.0966,-17.4129,-1.93359,1.34033,-156.423,244
1568024960,296.912,94.0966,-17.4129,-1.93359,1.34033,-156.423,244
1568024960,296.912,94.0966,-17.4129,-1.93359,1.34033,-156.423,244
1568024960,296.912,94.0966,-17.4129,-1.93359,1.34033,-156.423,244
1568024960,296.912,94.0966,-17.4129,-1.93359,1.34033,-156.423,244
1568024960,296.912,94.0966,-17.4129,-1.93359,1.34033,-156.423,244
1568024960,296.912,94.0966,-17.4129,-1.93359,1.34033,-156.423,244
1568024960,296.912,94.0966,-17.4129,-1.93359,1.34033,-156.423,244
1568024960,296.912,94.0966,-17.4129,-1.95557,1.34033,-156.423,248
1568024960,296.912,94.0966,-17.4129,-1.95557,1.34033,-156.445,248
1568024960,296.912,94.0966,-17.4129,-1.95557,1.34033,-156.445,244
1568024960,296.912,94.0966,-17.4129,-1.95557,1.34033,-156.445,244
1568024960,296.912,94.0966,-17.4129,-1.95557,1.34033,-156.445,244
1568024960,296.912,94.0966,-17.4129,-1.95557,1.34033,-156.445,244
1568024960,296.912,93.985,-17.4129,-1.95557,1.34033,-156.445,244
1568024960,296.912,93.985,-17.4129,-1.95557,1.34033,-156.445,244
1568024960,296.912,93.985,-17.4129,-1.95557,1.31836,-156.445,244
1568024961,296.912,93.985,-17.4129,-1.95557,1.31836,-156.445,244
1568024961,296.912,93.985,-17.4129,-1.95557,1.31836,-156.445,240
1568024961,296.912,94.0966,-17.4129,-1.95557,1.31836,-156.445,240
1568024961,296.912,94.0966,-17.4129,-1.95557,1.31836,-156.445,240
1568024961,296.912,94.0966,-17.4129,-1.95557,1.31836,-156.445,240
1568024961,296.912,94.0966,-17.4129,-1.95557,1.31836,-156.445,240
1568024961,296.912,94.0966,-17.3013,-1.95557,1.31836,-156.423,240
1568024961,296.912,94.0966,-17.3013,-1.95557,1.31836,-156.423,240
1568024961,296.912,93.985,-17.3013,-1.95557,1.31836,-156.423,240
1568024961,296.912,93.985,-17.3013,-1.95557,1.31836,-156.423,240
1568024961,296.912,93.985,-17.3013,-1.95557,1.31836,-156.423,240
1568024961,296.912,93.985,-17.3013,-1.95557,1.31836,-156.423,240
1568024961,296.912,93.985,-17.3013,-1.95557,1.31836,-156.423,240
1568024961,296.912,93.985,-17.3013,-1.95557,1.31836,-156.423,240
1568024961,296.912,93.985,-17.3013,-1.95557,1.31836,-156.445,240
1568024961,296.912,93.985,-17.3013,-1.95557,1.31836,-156.445,240
1568024961,296.912,93.985,-17.3013,-1.95557,1.31836,-156.445,240
1568024961,296.912,93.985,-17.3013,-1.95557,1.31836,-156.445,240
1568024961,296.912,93.985,-17.3013,-1.95557,1.31836,-156.423,240
1568024961,296.912,93.985,-17.3013,-1.95557,1.31836,-156.423,240
1568024961,296.912,93.985,-17.3013,-1.95557,1.31836,-156.423,240
1568024961,296.912,93.985,-17.3013,-1.95557,1.31836,-156.423,240
1568024961,296.912,93.985,-17.4129,-1.95557,1.31836,-156.423,240
1568024961,296.912,93.985,-17.4129,-1.95557,1.31836,-156.423,240
1568024961,296.912,93.985,-17.4129,-1.95557,1.31836,-156.423,240
1568024961,296.912,93.985,-17.4129,-1.95557,1.31836,-156.423,240
1568024961,296.912,93.985,-17.4129,-1.95557,1.31836,-156.423,240
1568024961,296.912,93.985,-17.4129,-1.95557,1.31836,-156.423,240
1568024961,296.912,93.985,-17.4129,-1.95557,1.31836,-156.423,240
1568024961,296.912,93.985,-17.4129,-1.95557,1.31836,-156.423,240
1568024961,296.912,93.985,-17.4129,-1.95557,1.34033,-156.423,240
1568024961,296.912,93.985,-17.4129,-1.95557,1.34033,-156.423,240
1568024961,296.912,93.985,-17.4129,-1.95557,1.34033,-156.423,240
1568024961,296.912,93.985,-17.4129,-1.95557,1.34033,-156.423,240
1568024961,296.912,93.985,-17.4129,-1.95557,1.34033,-156.423,240
1568024961,296.912,93.985,-17.4129,-1.95557,1.34033,-156.423,240
1568024961,296.912,93.985,-17.4129,-1.95557,1.34033,-156.423,240
1568024961,296.912,93.985,-17.4129,-1.95557,1.34033,-156.423,240
1568024961,296.912,93.985,-17.4129,-1.95557,1.34033,-156.423,244
1568024961,296.912,93.985,-17.4129,-1.95557,1.34033,-156.423,244
1568024961,296.912,93.985,-17.4129,-1.95557,1.34033,-156.423,244
1568024961,296.912,93.985,-17.4129,-1.95557,1.34033,-156.423,244
1568024961,296.912,93.985,-17.4129,-1.95557,1.34033,-156.423,244
1568024961,296.912,93.985,-17.4129,-1.95557,1.34033,-156.423,244
1568024961,296.912,93.985,-17.4129,-1.95557,1.34033,-156.423,244
1568024961,296.912,93.985,-17.4129,-1.95557,1.34033,-156.423,244
1568024961,296.912,93.985,-17.4129,-1.95557,1.34033,-156.423,248
1568024961,296.912,93.985,-17.4129,-1.95557,1.34033,-156.423,248
1568024961,296.912,93.985,-17.4129,-1.95557,1.34033,-156.423,248
1568024961,296.912,93.985,-17.4129,-1.95557,1.34033,-156.423,248
1568024961,296.912,93.985,-17.4129,-1.95557,1.34033,-156.423,248
1568024961,296.912,93.985,-17.4129,-1.95557,1.34033,-156.423,248
1568024961,296.912,93.985,-17.4129,-1.95557,1.34033,-156.423,248
1568024961,296.912,93.985,-17.4129,-1.95557,1.34033,-156.423,248
1568024961,296.912,93.985,-17.4129,-1.95557,1.34033,-156.423,248
1568024961,296.912,93.985,-17.4129,-1.95557,1.34033,-156.423,248
1568024961,296.912,93.985,-17.4129,-1.95557,1.34033,-156.423,248
1568024961,296.912,93.985,-17.4129,-1.95557,1.34033,-156.445,248
1568024961,296.912,93.985,-17.4129,-1.95557,1.34033,-156.445,248
1568024961,296.912,93.985,-17.4129,-1.95557,1.34033,-156.445,248
1568024961,296.912,93.985,-17.4129,-1.95557,1.34033,-156.445,248
1568024961,296.912,93.985,-17.4129,-1.95557,1.34033,-156.445,248
1568024961,296.912,93.985,-17.4129,-1.95557,1.34033,-156.445,248
1568024961,296.912,93.985,-17.4129,-1.95557,1.34033,-156.445,248
1568024961,296.912,93.985,-17.4129,-1.95557,1.34033,-156.445,248
1568024961,296.912,93.985,-17.4129,-1.95557,1.34033,-156.445,248
1568024961,296.912,93.985,-17.4129,-1.95557,1.34033,-156.445,248
1568024961,296.912,93.985,-17.4129,-1.95557,1.34033,-156.445,248
1568024961,296.912,93.985,-17.4129,-1.95557,1.34033,-156.445,248
1568024961,296.912,93.985,-17.4129,-1.95557,1.34033,-156.445,248
1568024961,296.912,93.985,-17.4129,-1.95557,1.34033,-156.445,248
1568024961,296.912,93.985,-17.4129,-1.95557,1.34033,-156.445,248
1568024961,296.912,93.985,-17.4129,-1.95557,1.34033,-156.445,248
1568024961,296.912,93.985,-17.4129,-1.95557,1.34033,-156.445,248
1568024961,296.912,93.985,-17.4129,-1.95557,1.34033,-156.445,248
1568024961,296.912,93.985,-17.4129,-1.95557,1.34033,-156.445,248
1568024961,296.912,93.985,-17.4129,-1.95557,1.34033,-156.445,248
1568024961,296.912,93.985,-17.4129,-1.95557,1.34033,-156.445,248
1568024961,296.912,93.985,-17.4129,-1.95557,1.3623,-156.445,248
1568024961,296.912,93.985,-17.4129,-1.95557,1.3623,-156.445,248
1568024961,296.912,93.985,-17.4129,-1.97754,1.3623,-156.445,248
1568024961,296.912,93.985,-17.4129,-1.97754,1.3623,-156.445,244
1568024961,296.912,93.985,-17.4129,-1.97754,1.3623,-156.445,244
1568024961,296.912,93.985,-17.4129,-1.97754,1.3623,-156.445,244
1568024961,296.912,93.985,-17.4129,-1.97754,1.3623,-156.445,244
1568024961,296.912,93.985,-17.4129,-1.97754,1.34033,-156.445,244
1568024961,296.912,93.985,-17.4129,-1.97754,1.34033,-156.445,244
1568024961,296.912,93.985,-17.4129,-1.97754,1.34033,-156.445,244
1568024961,296.912,93.985,-17.4129,-1.97754,1.34033,-156.445,244
1568024961,296.912,93.985,-17.4129,-1.97754,1.34033,-156.445,244
1568024961,296.912,93.985,-17.4129,-1.95557,1.34033,-156.445,244
1568024961,296.912,93.985,-17.4129,-1.95557,1.34033,-156.445,244
1568024961,296.912,93.985,-17.4129,-1.95557,1.34033,-156.445,244
1568024961,296.912,93.985,-17.4129,-1.95557,1.34033,-156.445,244
1568024961,296.912,93.985,-17.4129,-1.95557,1.34033,-156.445,244
1568024961,296.912,93.985,-17.4129,-1.95557,1.34033,-156.445,244
1568024961,296.912,93.985,-17.4129,-1.95557,1.34033,-156.445,244
1568024961,296.912,93.985,-17.4129,-1.95557,1.34033,-156.445,244
1568024961,296.912,93.985,-17.4129,-1.95557,1.34033,-156.445,244
1568024961,296.912,93.985,-17.4129,-1.95557,1.34033,-156.445,244
1568024962,296.912,93.985,-17.4129,-1.95557,1.34033,-156.445,244
1568024962,296.912,93.985,-17.4129,-1.95557,1.34033,-156.445,244
1568024962,296.912,93.985,-17.4129,-1.95557,1.34033,-156.445,244
1568024962,296.912,93.985,-17.4129,-1.95557,1.34033,-156.445,244
1568024962,296.912,93.985,-17.4129,-1.95557,1.34033,-156.445,244
1568024962,296.912,93.985,-17.4129,-1.95557,1.34033,-156.445,244
1568024962,296.912,93.985,-17.4129,-1.95557,1.34033,-156.445,244
1568024962,296.912,93.985,-17.4129,-1.95557,1.34033,-156.445,244
1568024962,296.912,93.985,-17.4129,-1.95557,1.34033,-156.445,240
1568024962,296.912,93.985,-17.4129,-1.95557,1.34033,-156.445,240
1568024962,296.912,93.985,-17.4129,-1.95557,1.34033,-156.445,240
1568024962,296.912,94.0966,-17.4129,-1.95557,1.34033,-156.445,240
1568024962,296.912,94.0966,-17.4129,-1.95557,1.34033,-156.445,240
1568024962,296.912,94.0966,-17.4129,-1.95557,1.34033,-156.445,240
1568024962,296.912,94.0966,-17.4129,-1.93359,1.34033,-156.445,240
1568024962,296.912,94.0966,-17.4129,-1.93359,1.34033,-156.445,240
1568024962,296.912,94.0966,-17.4129,-1.93359,1.34033,-156.445,240
1568024962,296.912,94.0966,-17.4129,-1.93359,1.34033,-156.445,240
1568024962,296.912,94.0966,-17.4129,-1.93359,1.3623,-156.445,240
1568024962,296.912,94.0966,-17.4129,-1.93359,1.3623,-156.445,244
1568024962,296.912,94.0966,-17.4129,-1.93359,1.3623,-156.445,244
1568024962,296.912,94.0966,-17.4129,-1.95557,1.3623,-156.445,244
1568024962,296.912,94.0966,-17.4129,-1.95557,1.3623,-156.445,244
1568024962,296.912,94.0966,-17.5245,-1.95557,1.3623,-156.445,244
1568024962,296.912,94.0966,-17.5245,-1.95557,1.3623,-156.445,244
1568024962,296.912,94.0966,-17.5245,-1.95557,1.3623,-156.445,244
1568024962,296.912,94.0966,-17.5245,-1.95557,1.3623,-156.445,244
1568024962,296.912,94.0966,-17.5245,-1.95557,1.3623,-156.445,244
1568024962,296.912,94.0966,-17.5245,-1.95557,1.3623,-156.445,244
1568024962,296.912,94.0966,-17.5245,-1.95557,1.3623,-156.445,244
1568024962,296.912,94.0966,-17.5245,-1.95557,1.3623,-156.445,244
1568024962,296.912,93.985,-17.5245,-1.95557,1.3623,-156.445,248
1568024962,296.912,93.985,-17.5245,-1.95557,1.3623,-156.445,248
1568024962,296.912,93.985,-17.5245,-1.95557,1.3623,-156.445,248
1568024962,296.912,93.985,-17.5245,-1.95557,1.3623,-156.445,248
1568024962,296.912,93.985,-17.5245,-1.95557,1.3623,-156.445,248
1568024962,296.912,93.985,-17.5245,-1.95557,1.3623,-156.423,248
1568024962,296.912,93.985,-17.5245,-1.95557,1.3623,-156.423,252
1568024962,296.912,93.985,-17.5245,-1.95557,1.3623,-156.423,252
1568024962,296.912,93.985,-17.5245,-1.95557,1.3623,-156.423,252
1568024962,296.912,93.985,-17.5245,-1.95557,1.3623,-156.423,252
1568024962,296.912,93.985,-17.5245,-1.95557,1.3623,-156.423,256
1568024962,296.912,93.985,-17.5245,-1.95557,1.3623,-156.423,256
1568024962,296.912,93.985,-17.5245,-1.95557,1.3623,-156.423,256
1568024962,296.912,93.985,-17.4129,-1.95557,1.3623,-156.423,256
1568024962,296.912,93.985,-17.4129,-1.95557,1.3623,-156.423,256
1568024962,296.912,93.985,-17.4129,-1.95557,1.3623,-156.423,256
1568024962,296.912,93.985,-17.4129,-1.95557,1.3623,-156.423,256
1568024962,296.912,93.985,-17.4129,-1.95557,1.34033,-156.423,256
1568024962,296.912,93.985,-17.4129,-1.95557,1.34033,-156.423,256
1568024962,296.912,93.985,-17.4129,-1.95557,1.34033,-156.423,256
1568024962,296.912,93.985,-17.4129,-1.95557,1.34033,-156.423,256
1568024962,296.912,93.985,-17.4129,-1.95557,1.34033,-156.423,256
1568024962,296.912,93.985,-17.4129,-1.95557,1.34033,-156.423,256
1568024962,296.912,93.985,-17.4129,-1.95557,1.3623,-156.423,256
1568024962,296.912,93.985,-17.4129,-1.95557,1.3623,-156.423,256
1568024962,296.912,93.985,-17.4129,-1.95557,1.3623,-156.423,256
1568024962,296.912,93.985,-17.4129,-1.95557,1.3623,-156.423,256
1568024962,296.912,93.985,-17.4129,-1.95557,1.3623,-156.423,256
1568024962,296.912,93.985,-17.4129,-1.95557,1.3623,-156.423,256
1568024962,296.912,93.985,-17.4129,-1.95557,1.3623,-156.423,256
1568024962,296.912,93.985,-17.4129,-1.95557,1.3623,-156.423,256
1568024962,296.912,93.985,-17.4129,-1.95557,1.3623,-156.423,256
1568024962,296.912,93.985,-17.4129,-1.95557,1.3623,-156.423,256
1568024962,296.912,93.985,-17.4129,-1.95557,1.3623,-156.423,256
1568024962,296.912,93.985,-17.4129,-1.95557,1.3623,-156.423,256
1568024962,296.912,93.985,-17.4129,-1.95557,1.3623,-156.423,256
1568024962,296.912,93.985,-17.4129,-1.95557,1.3623,-156.423,256
1568024962,296.912,93.985,-17.4129,-1.95557,1.3623,-156.423,256
1568024962,296.912,93.985,-17.4129,-1.95557,1.34033,-156.423,252
1568024962,296.912,93.985,-17.4129,-1.95557,1.34033,-156.423,252
1568024962,296.912,93.985,-17.4129,-1.95557,1.34033,-156.445,252
1568024962,296.912,93.985,-17.4129,-1.95557,1.34033,-156.445,252
1568024962,296.912,93.985,-17.4129,-1.95557,1.34033,-156.445,252
1568024962,296.912,93.985,-17.4129,-1.95557,1.34033,-156.445,252
1568024962,296.912,93.985,-17.4129,-1.95557,1.34033,-156.445,252
1568024962,296.912,93.985,-17.4129,-1.95557,1.34033,-156.445,248
1568024962,296.912,93.985,-17.4129,-1.95557,1.34033,-156.445,248
1568024962,296.912,93.985,-17.4129,-1.95557,1.34033,-156.445,248
1568024962,296.912,93.985,-17.4129,-1.95557,1.34033,-156.445,248
1568024962,296.912,93.985,-17.4129,-1.95557,1.34033,-156.445,248
1568024962,296.912,93.985,-17.4129,-1.95557,1.34033,-156.445,248
1568024962,296.912,93.985,-17.4129,-1.95557,1.34033,-156.445,248
1568024962,297.024,93.985,-17.4129,-1.95557,1.34033,-156.445,244
1568024962,297.024,93.985,-17.4129,-1.95557,1.34033,-156.445,244
1568024962,297.024,93.985,-17.4129,-1.95557,1.34033,-156.445,244
1568024962,297.024,93.985,-17.4129,-1.95557,1.34033,-156.445,244
1568024962,297.024,93.985,-17.4129,-1.95557,1.34033,-156.445,244
1568024962,297.024,93.985,-17.4129,-1.95557,1.34033,-156.445,244
1568024962,297.024,93.985,-17.4129,-1.95557,1.34033,-156.445,240
1568024962,297.024,93.985,-17.4129,-1.95557,1.34033,-156.445,240
1568024962,297.024,93.985,-17.4129,-1.95557,1.34033,-156.445,240
1568024962,297.024,93.985,-17.4129,-1.95557,1.34033,-156.445,240
1568024962,297.024,93.985,-17.4129,-1.95557,1.34033,-156.445,240
1568024962,296.912,93.985,-17.4129,-1.95557,1.34033,-156.445,240
1568024962,296.912,93.985,-17.4129,-1.95557,1.34033,-156.445,240
1568024962,296.912,93.985,-17.4129,-1.95557,1.34033,-156.445,240
1568024962,296.912,93.985,-17.4129,-1.95557,1.34033,-156.445,240
1568024962,296.912,93.985,-17.4129,-1.95557,1.34033,-156.445,240
1568024962,296.912,93.985,-17.4129,-1.95557,1.34033,-156.445,240
1568024963,296.912,93.985,-17.4129,-1.95557,1.34033,-156.445,240
1568024963,296.912,93.985,-17.4129,-1.95557,1.34033,-156.445,240
1568024963,296.912,93.985,-17.4129,-1.95557,1.34033,-156.445,240
1568024963,296.912,93.985,-17.4129,-1.95557,1.34033,-156.445,240
1568024963,296.912,93.985,-17.4129,-1.95557,1.34033,-156.445,240
1568024963,296.912,93.985,-17.4129,-1.95557,1.34033,-156.445,240
1568024963,296.912,93.985,-17.4129,-1.95557,1.34033,-156.445,244
1568024963,296.912,93.985,-17.4129,-1.95557,1.34033,-156.423,244
1568024963,296.912,93.985,-17.4129,-1.95557,1.34033,-156.423,244
1568024963,296.912,93.985,-17.4129,-1.95557,1.34033,-156.423,244
1568024963,296.912,93.985,-17.4129,-1.95557,1.34033,-156.423,244
1568024963,296.912,93.985,-17.4129,-1.95557,1.34033,-156.445,244
1568024963,296.912,93.985,-17.4129,-1.95557,1.34033,-156.445,244
1568024963,296.912,93.985,-17.4129,-1.95557,1.34033,-156.445,244
1568024963,296.912,93.985,-17.4129,-1.95557,1.34033,-156.445,248
1568024963,296.912,93.985,-17.4129,-1.95557,1.34033,-156.445,248
1568024963,296.912,93.985,-17.4129,-1.95557,1.34033,-156.445,248
1568024963,296.912,93.985,-17.4129,-1.95557,1.34033,-156.445,248
1568024963,296.912,93.985,-17.4129,-1.95557,1.3623,-156.445,248
1568024963,296.912,93.985,-17.4129,-1.95557,1.3623,-156.445,252
1568024963,296.912,93.985,-17.4129,-1.97754,1.3623,-156.445,252
1568024963,296.912,93.985,-17.4129,-1.97754,1.3623,-156.445,252
1568024963,296.912,93.985,-17.5245,-1.97754,1.3623,-156.445,252
1568024963,296.912,93.985,-17.5245,-1.97754,1.3623,-156.445,252
1568024963,296.912,93.985,-17.5245,-1.97754,1.3623,-156.445,252
1568024963,296.912,93.985,-17.5245,-1.97754,1.3623,-156.445,252
1568024963,296.912,93.985,-17.5245,-1.97754,1.3623,-156.445,252
1568024963,296.912,93.985,-17.5245,-1.97754,1.3623,-156.445,252
1568024963,296.912,93.985,-17.5245,-1.97754,1.3623,-156.445,252
1568024963,296.912,93.985,-17.5245,-1.97754,1.3623,-156.445,252
1568024963,296.912,93.985,-17.5245,-1.97754,1.3623,-156.445,252
1568024963,296.912,93.985,-17.5245,-1.97754,1.3623,-156.445,256
1568024963,296.912,93.985,-17.5245,-1.97754,1.3623,-156.445,256
1568024963,296.912,93.985,-17.5245,-1.97754,1.3623,-156.445,256
1568024963,296.912,93.985,-17.5245,-1.95557,1.3623,-156.445,256
1568024963,296.912,93.985,-17.5245,-1.95557,1.3623,-156.445,256
1568024963,296.912,93.985,-17.5245,-1.95557,1.3623,-156.445,252
1568024963,296.912,93.985,-17.5245,-1.95557,1.3623,-156.445,252
1568024963,296.912,93.985,-17.5245,-1.95557,1.3623,-156.445,252
1568024963,296.912,93.985,-17.5245,-1.95557,1.3623,-156.445,252
1568024963,296.912,93.985,-17.5245,-1.95557,1.3623,-156.445,252
1568024963,296.912,93.985,-17.5245,-1.95557,1.3623,-156.445,252
1568024963,296.912,93.985,-17.5245,-1.95557,1.3623,-156.445,252
1568024963,296.912,93.985,-17.5245,-1.95557,1.3623,-156.445,252
1568024963,296.912,93.985,-17.5245,-1.95557,1.3623,-156.423,252
1568024963,296.912,93.985,-17.5245,-1.95557,1.3623,-156.423,252
1568024963,296.912,93.985,-17.5245,-1.95557,1.3623,-156.423,252
1568024963,296.912,93.985,-17.4129,-1.95557,1.3623,-156.423,252
1568024963,296.912,93.985,-17.4129,-1.95557,1.3623,-156.423,248
1568024963,297.024,93.985,-17.4129,-1.95557,1.3623,-156.423,248
1568024963,297.024,93.985,-17.4129,-1.95557,1.3623,-156.423,248
1568024963,297.024,93.985,-17.4129,-1.95557,1.3623,-156.423,248
1568024963,297.024,93.985,-17.4129,-1.95557,1.3623,-156.423,248
1568024963,297.024,93.985,-17.4129,-1.95557,1.3623,-156.423,248
1568024963,297.024,93.985,-17.4129,-1.95557,1.3623,-156.423,248
1568024963,297.024,93.985,-17.4129,-1.95557,1.3623,-156.423,248
1568024963,297.024,93.985,-17.4129,-1.95557,1.3623,-156.423,248
1568024963,297.024,93.985,-17.4129,-1.95557,1.3623,-156.423,248
1568024963,297.024,93.985,-17.4129,-1.95557,1.3623,-156.423,248
1568024963,297.024,93.985,-17.4129,-1.95557,1.3623,-156.423,248
1568024963,297.024,93.985,-17.4129,-1.95557,1.3623,-156.423,248
1568024963,297.024,93.985,-17.4129,-1.95557,1.3623,-156.423,248
1568024963,297.024,93.985,-17.4129,-1.95557,1.3623,-156.423,248
1568024963,296.912,94.0966,-17.4129,-1.95557,1.3623,-156.423,248
1568024963,296.912,94.0966,-17.4129,-1.95557,1.3623,-156.423,248
1568024963,296.912,94.0966,-17.4129,-1.95557,1.3623,-156.423,248
1568024963,296.912,94.0966,-17.4129,-1.95557,1.3623,-156.423,248
1568024963,296.912,94.0966,-17.4129,-1.95557,1.3623,-156.445,248
1568024963,296.912,94.0966,-17.4129,-1.95557,1.3623,-156.445,248
1568024963,296.912,94.0966,-17.4129,-1.95557,1.3623,-156.445,248
1568024963,296.912,94.0966,-17.4129,-1.95557,1.3623,-156.445,248
1568024963,296.912,94.0966,-17.4129,-1.95557,1.3623,-156.445,248
1568024963,296.912,94.0966,-17.4129,-1.95557,1.3623,-156.445,248
1568024963,296.912,94.0966,-17.4129,-1.95557,1.3623,-156.445,248
1568024963,296.912,94.0966,-17.4129,-1.95557,1.3623,-156.445,248
1568024963,296.912,94.0966,-17.4129,-1.95557,1.3623,-156.445,248
1568024963,296.912,94.0966,-17.4129,-1.95557,1.3623,-156.445,248
1568024963,296.912,94.0966,-17.4129,-1.95557,1.3623,-156.445,248
1568024963,296.912,94.0966,-17.4129,-1.95557,1.3623,-156.445,248
1568024963,296.912,94.0966,-17.4129,-1.95557,1.3623,-156.445,248
1568024963,296.912,94.0966,-17.4129,-1.95557,1.34033,-156.445,248
1568024963,296.912,94.0966,-17.4129,-1.95557,1.34033,-156.445,248
1568024963,296.912,94.0966,-17.4129,-1.95557,1.34033,-156.445,248
1568024963,296.912,94.0966,-17.4129,-1.95557,1.34033,-156.445,248
1568024963,296.912,94.0966,-17.4129,-1.95557,1.34033,-156.445,248
1568024963,296.912,94.0966,-17.4129,-1.95557,1.34033,-156.445,248
1568024963,296.912,94.0966,-17.4129,-1.95557,1.34033,-156.445,248
1568024963,296.912,94.0966,-17.4129,-1.95557,1.34033,-156.445,248
1568024963,296.912,93.985,-17.4129,-1.95557,1.34033,-156.445,248
1568024963,296.912,93.985,-17.4129,-1.95557,1.34033,-156.445,248
1568024963,296.912,93.985,-17.4129,-1.95557,1.34033,-156.445,248
1568024963,296.912,93.985,-17.4129,-1.95557,1.34033,-156.445,252
1568024963,296.912,93.985,-17.4129,-1.95557,1.34033,-156.445,252
1568024963,296.912,93.985,-17.4129,-1.95557,1.34033,-156.445,252
1568024963,296.912,93.985,-17.4129,-1.95557,1.34033,-156.445,252
1568024963,296.912,93.985,-17.4129,-1.95557,1.34033,-156.445,252
1568024963,296.912,93.985,-17.4129,-1.95557,1.34033,-156.445,252
1568024963,296.912,93.985,-17.4129,-1.95557,1.34033,-156.445,252
1568024963,296.912,93.985,-17.4129,-1.95557,1.34033,-156.445,252
1568024963,296.912,93.985,-17.4129,-1.95557,1.34033,-156.445,252
1568024964,296.912,93.985,-17.4129,-1.95557,1.34033,-156.445,252
1568024964,296.912,93.985,-17.4129,-1.95557,1.34033,-156.445,248
1568024964,296.912,93.985,-17.4129,-1.95557,1.34033,-156.445,248
1568024964,296.912,93.985,-17.4129,-1.95557,1.34033,-156.423,248
1568024964,296.912,93.985,-17.4129,-1.95557,1.34033,-156.423,248
1568024964,296.912,93.985,-17.4129,-1.95557,1.34033,-156.423,248
1568024964,296.912,93.985,-17.4129,-1.95557,1.34033,-156.423,248
1568024964,296.912,93.985,-17.4129,-1.95557,1.34033,-156.445,248
1568024964,296.912,93.985,-17.4129,-1.95557,1.34033,-156.445,248
1568024964,296.912,93.985,-17.4129,-1.95557,1.34033,-156.445,248
1568024964,296.912,93.985,-17.4129,-1.95557,1.34033,-156.445,248
1568024964,296.912,93.985,-17.4129,-1.95557,1.34033,-156.445,244
1568024964,296.912,93.985,-17.4129,-1.95557,1.34033,-156.445,244
1568024964,296.912,93.985,-17.4129,-1.95557,1.34033,-156.445,244
1568024964,296.912,93.985,-17.4129,-1.95557,1.34033,-156.423,244
1568024964,296.912,93.985,-17.4129,-1.95557,1.34033,-156.423,244
1568024964,296.912,93.985,-17.4129,-1.95557,1.34033,-156.423,244
1568024964,296.912,93.985,-17.4129,-1.95557,1.34033,-156.423,244
1568024964,296.912,93.985,-17.4129,-1.95557,1.34033,-156.423,244
1568024964,296.912,93.985,-17.4129,-1.95557,1.34033,-156.423,244
1568024964,296.912,93.985,-17.4129,-1.95557,1.34033,-156.423,244
1568024964,296.912,93.985,-17.4129,-1.95557,1.34033,-156.423,244
1568024964,296.912,93.985,-17.4129,-1.95557,1.34033,-156.423,244
1568024964,296.912,93.985,-17.4129,-1.95557,1.34033,-156.423,244
1568024964,296.912,93.985,-17.4129,-1.95557,1.34033,-156.423,244
1568024964,296.912,93.985,-17.4129,-1.95557,1.34033,-156.423,244
1568024964,296.912,93.985,-17.4129,-1.95557,1.34033,-156.423,244
1568024964,296.912,93.985,-17.4129,-1.95557,1.34033,-156.423,244
1568024964,296.912,94.0966,-17.4129,-1.95557,1.34033,-156.423,240
1568024964,296.912,94.0966,-17.4129,-1.95557,1.34033,-156.423,240
1568024964,296.912,94.0966,-17.4129,-1.95557,1.34033,-156.423,240
1568024964,296.912,94.0966,-17.4129,-1.95557,1.34033,-156.423,240
1568024964,296.912,94.0966,-17.4129,-1.95557,1.34033,-156.423,240
1568024964,296.912,94.0966,-17.4129,-1.95557,1.34033,-156.423,240
1568024964,296.912,94.0966,-17.4129,-1.93359,1.34033,-156.423,240
1568024964,296.912,94.0966,-17.4129,-1.93359,1.34033,-156.423,240
1568024964,296.912,94.0966,-17.4129,-1.93359,1.34033,-156.423,240
1568024964,296.912,94.0966,-17.4129,-1.93359,1.34033,-156.423,240
1568024964,296.912,94.0966,-17.4129,-1.93359,1.34033,-156.423,240
1568024964,296.912,94.0966,-17.4129,-1.93359,1.34033,-156.423,240
1568024964,296.912,94.0966,-17.4129,-1.93359,1.34033,-156.423,240
1568024964,296.912,94.0966,-17.4129,-1.93359,1.34033,-156.423,240
1568024964,296.912,94.0966,-17.4129,-1.93359,1.34033,-156.423,240
1568024964,296.912,94.0966,-17.4129,-1.93359,1.34033,-156.423,240
1568024964,296.912,94.0966,-17.4129,-1.93359,1.34033,-156.423,240
1568024964,296.912,94.0966,-17.4129,-1.93359,1.34033,-156.423,240
1568024964,296.912,94.0966,-17.4129,-1.93359,1.34033,-156.423,240
1568024964,296.912,94.0966,-17.4129,-1.93359,1.34033,-156.423,240
1568024964,296.912,94.0966,-17.4129,-1.93359,1.34033,-156.423,236
1568024964,296.912,94.0966,-17.4129,-1.93359,1.34033,-156.423,236
1568024964,296.912,94.0966,-17.4129,-1.93359,1.34033,-156.423,236
1568024964,296.912,94.0966,-17.4129,-1.93359,1.34033,-156.423,236
1568024964,296.912,94.0966,-17.4129,-1.95557,1.34033,-156.423,240
1568024964,296.912,94.0966,-17.4129,-1.95557,1.34033,-156.423,240
1568024964,296.912,94.0966,-17.4129,-1.95557,1.34033,-156.423,240
1568024964,296.912,94.0966,-17.4129,-1.95557,1.34033,-156.423,240
1568024964,296.912,93.985,-17.4129,-1.95557,1.34033,-156.423,240
1568024964,296.912,93.985,-17.4129,-1.95557,1.34033,-156.423,240
1568024964,296.912,93.985,-17.4129,-1.95557,1.34033,-156.423,240
1568024964,296.912,93.985,-17.4129,-1.95557,1.34033,-156.423,240
1568024964,296.912,93.985,-17.4129,-1.95557,1.34033,-156.423,240
1568024964,296.912,93.985,-17.4129,-1.95557,1.3623,-156.445,240
1568024964,296.912,93.985,-17.4129,-1.95557,1.3623,-156.445,240
1568024964,296.912,93.985,-17.4129,-1.95557,1.3623,-156.445,240
1568024964,296.912,93.985,-17.4129,-1.95557,1.3623,-156.445,240
1568024964,296.912,93.985,-17.4129,-1.95557,1.3623,-156.445,240
1568024964,296.912,93.985,-17.4129,-1.95557,1.3623,-156.445,240
1568024964,296.912,93.985,-17.4129,-1.95557,1.3623,-156.445,240
1568024964,296.912,93.985,-17.4129,-1.95557,1.3623,-156.445,240
1568024964,296.912,93.985,-17.4129,-1.95557,1.3623,-156.445,240
1568024964,296.912,93.985,-17.4129,-1.95557,1.3623,-156.445,240
1568024964,296.912,93.985,-17.4129,-1.95557,1.3623,-156.445,240
1568024964,296.912,93.985,-17.4129,-1.95557,1.3623,-156.445,240
1568024964,296.912,93.985,-17.4129,-1.95557,1.3623,-156.445,240
1568024964,296.912,93.985,-17.4129,-1.95557,1.3623,-156.445,240
1568024964,296.912,93.985,-17.4129,-1.95557,1.3623,-156.445,240
1568024964,296.912,93.985,-17.4129,-1.95557,1.3623,-156.445,240
1568024964,296.912,93.985,-17.4129,-1.95557,1.3623,-156.445,240
1568024964,296.912,93.985,-17.4129,-1.95557,1.3623,-156.445,240
1568024964,296.912,93.985,-17.4129,-1.95557,1.3623,-156.445,240
1568024964,296.912,93.985,-17.4129,-1.95557,1.3623,-156.423,240
1568024964,296.912,93.985,-17.4129,-1.95557,1.3623,-156.423,240
1568024964,296.912,93.985,-17.4129,-1.95557,1.3623,-156.423,240
1568024964,296.912,93.985,-17.4129,-1.95557,1.3623,-156.423,240
1568024964,296.912,93.985,-17.4129,-1.95557,1.3623,-156.423,240
1568024964,296.912,93.985,-17.4129,-1.95557,1.34033,-156.423,240
1568024964,296.912,93.985,-17.4129,-1.95557,1.34033,-156.423,240
1568024964,296.912,93.985,-17.4129,-1.95557,1.34033,-156.445,240
1568024964,296.912,93.985,-17.4129,-1.95557,1.34033,-156.445,240
1568024964,296.912,93.985,-17.4129,-1.95557,1.34033,-156.445,240
1568024964,296.912,93.985,-17.4129,-1.95557,1.34033,-156.445,240
1568024964,296.912,93.985,-17.4129,-1.95557,1.34033,-156.445,240
1568024964,296.912,93.985,-17.4129,-1.95557,1.34033,-156.445,240
1568024964,296.912,93.985,-17.4129,-1.95557,1.34033,-156.445,240
1568024964,296.912,93.985,-17.4129,-1.95557,1.34033,-156.445,240
1568024964,296.912,93.985,-17.4129,-1.95557,1.34033,-156.445,240
1568024964,296.912,93.985,-17.4129,-1.95557,1.34033,-156.445,240
1568024964,296.912,93.985,-17.4129,-1.95557,1.34033,-156.445,240
1568024964,296.912,93.985,-17.4129,-1.95557,1.34033,-156.445,244
1568024964,296.912,93.985,-17.4129,-1.95557,1.34033,-156.445,244
1568024965,296.912,93.985,-17.4129,-1.95557,1.34033,-156.445,244
1568024965,296.912,93.985,-17.4129,-1.95557,1.34033,-156.445,244
1568024965,296.912,93.985,-17.4129,-1.95557,1.34033,-156.445,244
1568024965,296.912,93.985,-17.4129,-1.95557,1.34033,-156.445,244
1568024965,296.912,93.985,-17.4129,-1.95557,1.34033,-156.445,244
1568024965,296.912,93.985,-17.4129,-1.95557,1.34033,-156.445,244
1568024965,296.912,93.985,-17.4129,-1.95557,1.34033,-156.445,244
1568024965,296.912,93.985,-17.4129,-1.95557,1.34033,-156.445,244
1568024965,296.912,93.985,-17.4129,-1.95557,1.34033,-156.445,248
1568024965,296.912,93.985,-17.4129,-1.95557,1.34033,-156.445,248
1568024965,296.912,93.985,-17.4129,-1.95557,1.34033,-156.445,248
1568024965,296.912,93.985,-17.4129,-1.95557,1.34033,-156.445,248
1568024965,296.912,93.985,-17.4129,-1.95557,1.34033,-156.445,244
1568024965,296.912,93.985,-17.4129,-1.95557,1.34033,-156.445,244
1568024965,296.912,93.985,-17.4129,-1.95557,1.34033,-156.445,244
1568024965,296.912,93.985,-17.4129,-1.95557,1.34033,-156.445,244
1568024965,296.912,93.985,-17.4129,-1.95557,1.34033,-156.445,244
1568024965,296.912,93.985,-17.4129,-1.95557,1.34033,-156.445,244
1568024965,296.912,93.985,-17.4129,-1.95557,1.34033,-156.445,244
1568024965,296.912,93.985,-17.4129,-1.95557,1.34033,-156.445,244
1568024965,296.912,93.985,-17.4129,-1.95557,1.34033,-156.445,244
1568024965,296.912,93.985,-17.4129,-1.95557,1.34033,-156.445,244
1568024965,296.912,93.985,-17.4129,-1.95557,1.34033,-156.445,244
1568024965,296.912,93.985,-17.4129,-1.95557,1.34033,-156.445,244
1568024965,296.912,93.985,-17.4129,-1.95557,1.34033,-156.445,244
1568024965,296.912,93.985,-17.4129,-1.95557,1.3623,-156.445,248
1568024965,296.912,93.985,-17.4129,-1.95557,1.3623,-156.445,244
1568024965,296.912,93.985,-17.4129,-1.95557,1.3623,-156.445,244
1568024965,296.912,93.985,-17.4129,-1.95557,1.3623,-156.445,244
1568024965,296.912,93.985,-17.4129,-1.95557,1.3623,-156.445,244
1568024965,296.912,93.985,-17.5245,-1.95557,1.3623,-156.445,244
1568024965,296.912,93.985,-17.5245,-1.95557,1.3623,-156.445,244
1568024965,296.912,93.985,-17.5245,-1.95557,1.3623,-156.445,244
1568024965,296.912,93.985,-17.5245,-1.95557,1.3623,-156.445,244
1568024965,296.912,93.985,-17.5245,-1.95557,1.3623,-156.445,244
1568024965,296.912,93.985,-17.5245,-1.95557,1.3623,-156.445,244
1568024965,296.912,93.985,-17.5245,-1.95557,1.3623,-156.445,244
1568024965,296.912,93.985,-17.5245,-1.95557,1.3623,-156.445,244
1568024965,296.912,93.985,-17.5245,-1.95557,1.3623,-156.445,244
1568024972,273.807,118.318,-17.4129,-2.21924,1.3623,-156.577,220
1568024972,273.807,118.318,-17.4129,-2.21924,1.3623,-156.577,220
1568024972,273.807,118.318,-17.4129,-2.21924,1.3623,-156.599,220
1568024972,273.918,118.318,-17.4129,-2.21924,1.3623,-156.599,220
1568024972,273.918,118.318,-17.4129,-2.21924,1.3623,-156.599,220
1568024972,273.918,118.318,-17.4129,-2.24121,1.3623,-156.599,220
1568024972,273.918,118.207,-17.4129,-2.24121,1.3623,-156.599,220
1568024972,273.918,118.207,-17.4129,-2.24121,1.3623,-156.599,220
1568024972,273.918,118.207,-17.4129,-2.24121,1.3623,-156.599,216
1568024972,273.918,118.318,-17.4129,-2.24121,1.3623,-156.599,216
1568024972,273.918,118.318,-17.4129,-2.24121,1.38428,-156.599,216
1568024972,273.918,118.318,-17.4129,-2.24121,1.38428,-156.599,216
1568024972,273.918,118.318,-17.4129,-2.24121,1.38428,-156.577,216
1568024972,273.918,118.318,-17.4129,-2.24121,1.38428,-156.577,216
1568024972,273.918,118.318,-17.4129,-2.24121,1.38428,-156.577,216
1568024972,273.918,118.318,-17.4129,-2.24121,1.38428,-156.577,216
1568024972,273.918,118.318,-17.4129,-2.24121,1.38428,-156.577,216
1568024972,273.918,118.318,-17.4129,-2.24121,1.38428,-156.577,216
1568024972,273.918,118.318,-17.4129,-2.21924,1.38428,-156.577,216
1568024972,273.918,118.318,-17.4129,-2.21924,1.38428,-156.577,216
1568024972,273.918,118.318,-17.4129,-2.21924,1.38428,-156.577,216
1568024972,273.918,118.318,-17.4129,-2.21924,1.38428,-156.577,212
1568024972,273.918,118.318,-17.4129,-2.21924,1.38428,-156.599,212
1568024972,273.918,118.318,-17.4129,-2.21924,1.38428,-156.599,212
1568024972,273.918,118.318,-17.4129,-2.21924,1.38428,-156.599,212
1568024972,273.918,118.318,-17.4129,-2.21924,1.38428,-156.599,212
1568024972,273.918,118.318,-17.4129,-2.21924,1.38428,-156.599,212
1568024972,273.918,118.318,-17.4129,-2.21924,1.38428,-156.599,212
1568024972,273.918,118.318,-17.4129,-2.24121,1.38428,-156.599,212
1568024972,273.918,118.318,-17.4129,-2.24121,1.38428,-156.599,212
1568024972,273.918,118.318,-17.4129,-2.24121,1.38428,-156.599,216
1568024972,273.918,118.207,-17.4129,-2.24121,1.38428,-156.599,216
1568024972,273.918,118.207,-17.4129,-2.24121,1.38428,-156.599,216
1568024972,273.918,118.207,-17.4129,-2.24121,1.40625,-156.599,216
1568024972,273.918,118.207,-17.5245,-2.24121,1.40625,-156.599,216
1568024972,273.807,118.207,-17.5245,-2.24121,1.40625,-156.599,216
1568024972,273.807,118.207,-17.5245,-2.24121,1.40625,-156.599,216
1568024972,273.807,118.207,-17.5245,-2.24121,1.40625,-156.599,216
1568024972,273.807,118.207,-17.5245,-2.21924,1.40625,-156.599,216
1568024972,273.807,118.207,-17.5245,-2.21924,1.40625,-156.599,220
1568024972,273.807,118.207,-17.5245,-2.21924,1.40625,-156.599,220
1568024972,273.807,118.207,-17.5245,-2.21924,1.40625,-156.599,220
1568024972,273.807,118.207,-17.5245,-2.21924,1.40625,-156.599,220
1568024972,273.807,118.207,-17.5245,-2.21924,1.40625,-156.599,220
1568024972,273.807,118.318,-17.5245,-2.21924,1.40625,-156.599,220
1568024972,273.807,118.318,-17.5245,-2.21924,1.40625,-156.599,224
1568024972,273.807,118.318,-17.5245,-2.21924,1.40625,-156.599,224
1568024972,273.807,118.318,-17.5245,-2.21924,1.40625,-156.599,224
1568024972,273.807,118.318,-17.5245,-2.21924,1.40625,-156.599,224
1568024972,273.807,118.318,-17.5245,-2.21924,1.38428,-156.599,224
1568024972,273.807,118.318,-17.5245,-2.21924,1.38428,-156.599,224
1568024972,273.807,118.318,-17.5245,-2.21924,1.38428,-156.599,224
1568024972,273.807,118.318,-17.5245,-2.21924,1.38428,-156.599,228
1568024972,273.807,118.318,-17.5245,-2.21924,1.38428,-156.599,228
1568024972,273.807,118.318,-17.4129,-2.21924,1.38428,-156.599,228
1568024972,273.807,118.318,-17.4129,-2.21924,1.38428,-156.599,228
1568024972,273.807,118.318,-17.4129,-2.21924,1.38428,-156.599,228
1568024972,273.807,118.318,-17.4129,-2.21924,1.38428,-156.599,228
1568024972,273.807,118.318,-17.4129,-2.21924,1.38428,-156.577,228
1568024972,273.807,118.318,-17.4129,-2.21924,1.38428,-156.577,228
1568024972,273.807,118.318,-17.4129,-2.21924,1.38428,-156.577,228
1568024972,273.807,118.318,-17.4129,-2.21924,1.38428,-156.577,228
1568024972,273.807,118.318,-17.4129,-2.21924,1.38428,-156.577,228
1568024972,273.807,118.318,-17.4129,-2.21924,1.38428,-156.577,228
1568024972,273.807,118.207,-17.4129,-2.21924,1.38428,-156.577,228
1568024972,273.807,118.207,-17.4129,-2.21924,1.38428,-156.577,228
1568024972,273.807,118.207,-17.4129,-2.21924,1.38428,-156.577,228
1568024972,273.807,118.207,-17.4129,-2.21924,1.38428,-156.577,228
1568024972,273.807,118.207,-17.4129,-2.21924,1.38428,-156.577,228
1568024972,273.807,118.207,-17.4129,-2.21924,1.38428,-156.577,228
1568024972,273.807,118.207,-17.4129,-2.21924,1.38428,-156.577,228
1568024972,273.807,118.207,-17.4129,-2.21924,1.38428,-156.577,228
1568024972,273.807,118.207,-17.4129,-2.21924,1.38428,-156.577,228
1568024973,273.807,118.207,-17.4129,-2.21924,1.38428,-156.577,228
1568024973,273.807,118.207,-17.4129,-2.21924,1.38428,-156.577,228
1568024973,273.807,118.207,-17.4129,-2.21924,1.38428,-156.577,228
1568024973,273.807,118.207,-17.4129,-2.21924,1.38428,-156.577,228
1568024973,273.807,118.318,-17.4129,-2.21924,1.38428,-156.577,228
1568024973,273.807,118.318,-17.4129,-2.21924,1.38428,-156.577,228
1568024973,273.807,118.318,-17.4129,-2.21924,1.38428,-156.577,228
1568024973,273.807,118.318,-17.4129,-2.21924,1.38428,-156.577,228
1568024973,273.807,118.318,-17.4129,-2.21924,1.38428,-156.577,228
1568024973,273.807,118.318,-17.4129,-2.21924,1.38428,-156.577,228
1568024973,273.807,118.318,-17.4129,-2.21924,1.38428,-156.577,228
1568024973,273.807,118.318,-17.4129,-2.21924,1.3623,-156.577,228
1568024973,273.807,118.318,-17.4129,-2.21924,1.3623,-156.577,228
1568024973,273.807,118.318,-17.4129,-2.21924,1.3623,-156.577,228
1568024973,273.807,118.318,-17.4129,-2.21924,1.3623,-156.577,228
1568024973,273.807,118.318,-17.4129,-2.21924,1.3623,-156.577,224
1568024973,273.807,118.318,-17.4129,-2.21924,1.3623,-156.577,224
1568024973,273.807,118.318,-17.4129,-2.21924,1.3623,-156.577,224
1568024973,273.807,118.318,-17.4129,-2.21924,1.3623,-156.577,224
1568024973,273.807,118.318,-17.4129,-2.21924,1.3623,-156.577,224
1568024973,273.807,118.318,-17.4129,-2.21924,1.3623,-156.577,224
1568024973,273.807,118.318,-17.4129,-2.21924,1.3623,-156.577,224
1568024973,273.807,118.318,-17.4129,-2.21924,1.3623,-156.577,224
1568024973,273.807,118.318,-17.4129,-2.21924,1.3623,-156.577,224
1568024973,273.807,118.318,-17.4129,-2.21924,1.38428,-156.577,224
1568024973,273.807,118.318,-17.4129,-2.21924,1.38428,-156.577,220
1568024973,273.807,118.318,-17.4129,-2.21924,1.38428,-156.577,220
1568024973,273.807,118.318,-17.4129,-2.21924,1.38428,-156.577,220
1568024973,273.807,118.318,-17.4129,-2.21924,1.38428,-156.577,220
1568024973,273.807,118.318,-17.4129,-2.21924,1.38428,-156.577,220
1568024973,273.807,118.318,-17.4129,-2.21924,1.38428,-156.577,220
1568024973,273.807,118.318,-17.4129,-2.21924,1.3623,-156.577,220
1568024973,273.807,118.318,-17.4129,-2.21924,1.3623,-156.577,220
1568024973,273.807,118.318,-17.4129,-2.21924,1.3623,-156.577,220
1568024973,273.807,118.318,-17.4129,-2.21924,1.3623,-156.577,220
1568024973,273.807,118.318,-17.4129,-2.21924,1.3623,-156.577,220
1568024973,273.807,118.318,-17.4129,-2.21924,1.3623,-156.577,220
1568024973,273.807,118.318,-17.4129,-2.21924,1.3623,-156.577,220
1568024973,273.807,118.318,-17.4129,-2.21924,1.3623,-156.577,220
1568024973,273.807,118.318,-17.4129,-2.21924,1.3623,-156.577,220
1568024973,273.807,118.318,-17.4129,-2.21924,1.3623,-156.577,220
1568024973,273.807,118.318,-17.4129,-2.21924,1.3623,-156.577,220
1568024973,273.807,118.318,-17.4129,-2.21924,1.3623,-156.577,220
1568024973,273.807,118.318,-17.4129,-2.21924,1.3623,-156.577,220
1568024973,273.807,118.318,-17.4129,-2.21924,1.3623,-156.577,220
1568024973,273.807,118.318,-17.4129,-2.21924,1.3623,-156.577,220
1568024973,273.807,118.318,-17.4129,-2.21924,1.3623,-156.577,220
1568024973,273.807,118.318,-17.4129,-2.21924,1.3623,-156.577,220
1568024973,273.807,118.318,-17.4129,-2.21924,1.3623,-156.577,220
1568024973,273.807,118.318,-17.4129,-2.21924,1.3623,-156.577,220
1568024973,273.807,118.318,-17.4129,-2.21924,1.3623,-156.577,224
1568024973,273.807,118.318,-17.4129,-2.21924,1.3623,-156.577,224
1568024973,273.807,118.318,-17.4129,-2.21924,1.3623,-156.577,224
1568024973,273.807,118.318,-17.4129,-2.21924,1.3623,-156.577,224
1568024973,273.807,118.318,-17.4129,-2.21924,1.38428,-156.577,224
1568024973,273.807,118.318,-17.4129,-2.21924,1.38428,-156.577,224
1568024973,273.807,118.318,-17.4129,-2.21924,1.38428,-156.577,224
1568024973,273.807,118.318,-17.4129,-2.21924,1.38428,-156.577,224
1568024973,273.807,118.318,-17.4129,-2.21924,1.38428,-156.577,224
1568024973,273.807,118.318,-17.4129,-2.21924,1.38428,-156.577,224
1568024973,273.807,118.318,-17.4129,-2.21924,1.38428,-156.577,224
1568024973,273.807,118.318,-17.4129,-2.21924,1.38428,-156.577,224
1568024973,273.807,118.318,-17.4129,-2.21924,1.38428,-156.577,224
1568024973,273.807,118.318,-17.4129,-2.21924,1.38428,-156.577,224
1568024973,273.807,118.318,-17.4129,-2.21924,1.38428,-156.577,224
1568024973,273.807,118.318,-17.4129,-2.21924,1.38428,-156.577,224
1568024973,273.807,118.318,-17.4129,-2.21924,1.38428,-156.577,224
1568024973,273.807,118.318,-17.4129,-2.21924,1.38428,-156.577,224
1568024973,273.807,118.318,-17.4129,-2.21924,1.38428,-156.577,224
1568024973,273.807,118.318,-17.4129,-2.21924,1.38428,-156.577,224
1568024973,273.807,118.318,-17.4129,-2.21924,1.38428,-156.577,224
1568024973,273.807,118.318,-17.4129,-2.21924,1.38428,-156.577,224
1568024973,273.807,118.318,-17.4129,-2.21924,1.38428,-156.577,224
1568024973,273.807,118.318,-17.4129,-2.21924,1.38428,-156.577,224
1568024973,273.807,118.207,-17.4129,-2.21924,1.38428,-156.577,224
1568024973,273.807,118.207,-17.4129,-2.21924,1.38428,-156.577,224
1568024973,273.807,118.207,-17.4129,-2.24121,1.38428,-156.577,224
1568024973,273.807,118.318,-17.4129,-2.24121,1.38428,-156.577,224
1568024973,273.807,118.318,-17.4129,-2.24121,1.38428,-156.577,224
1568024973,273.807,118.318,-17.4129,-2.21924,1.38428,-156.577,224
1568024973,273.807,118.318,-17.4129,-2.21924,1.38428,-156.577,224
1568024973,273.807,118.318,-17.4129,-2.21924,1.38428,-156.577,224
1568024973,273.807,118.318,-17.4129,-2.21924,1.38428,-156.577,224
1568024973,273.807,118.318,-17.4129,-2.21924,1.38428,-156.577,224
1568024973,273.807,118.318,-17.4129,-2.21924,1.38428,-156.577,224
1568024973,273.807,118.318,-17.4129,-2.21924,1.38428,-156.577,224
1568024973,273.807,118.318,-17.4129,-2.21924,1.38428,-156.577,220
1568024973,273.807,118.318,-17.4129,-2.21924,1.38428,-156.577,220
1568024973,273.807,118.318,-17.4129,-2.21924,1.38428,-156.577,220
1568024973,273.807,118.318,-17.4129,-2.21924,1.38428,-156.577,220
1568024973,273.807,118.318,-17.4129,-2.21924,1.38428,-156.577,220
1568024973,273.807,118.318,-17.4129,-2.21924,1.38428,-156.577,220
1568024973,273.807,118.318,-17.4129,-2.21924,1.38428,-156.577,220
1568024973,273.807,118.318,-17.4129,-2.21924,1.38428,-156.577,220
1568024973,273.807,118.318,-17.4129,-2.21924,1.38428,-156.599,220
1568024973,273.807,118.318,-17.4129,-2.21924,1.38428,-156.599,220
1568024973,273.807,118.318,-17.4129,-2.21924,1.38428,-156.599,220
1568024973,273.807,118.318,-17.4129,-2.21924,1.38428,-156.599,220
1568024973,273.807,118.318,-17.4129,-2.21924,1.38428,-156.599,220
1568024973,273.807,118.318,-17.4129,-2.21924,1.38428,-156.599,220
1568024974,273.807,118.318,-17.4129,-2.21924,1.38428,-156.599,220
1568024974,273.807,118.318,-17.4129,-2.21924,1.38428,-156.599,220
1568024974,273.807,118.318,-17.4129,-2.21924,1.38428,-156.599,220
1568024974,273.807,118.318,-17.4129,-2.21924,1.38428,-156.599,220
1568024974,273.807,118.318,-17.4129,-2.21924,1.38428,-156.599,220
1568024974,273.807,118.318,-17.4129,-2.21924,1.38428,-156.599,220
1568024974,273.807,118.318,-17.4129,-2.21924,1.38428,-156.599,220
1568024974,273.807,118.318,-17.4129,-2.21924,1.38428,-156.599,220
1568024974,273.807,118.318,-17.4129,-2.21924,1.38428,-156.599,220
1568024974,273.807,118.318,-17.4129,-2.21924,1.38428,-156.599,220
1568024974,273.807,118.318,-17.4129,-2.21924,1.38428,-156.599,220
1568024974,273.807,118.318,-17.4129,-2.21924,1.38428,-156.599,220
1568024974,273.807,118.318,-17.4129,-2.21924,1.38428,-156.599,220
1568024974,273.807,118.318,-17.4129,-2.21924,1.38428,-156.599,220
1568024974,273.807,118.318,-17.4129,-2.21924,1.38428,-156.599,220
1568024974,273.807,118.318,-17.4129,-2.21924,1.38428,-156.599,220
1568024974,273.807,118.207,-17.4129,-2.21924,1.38428,-156.599,220
1568024974,273.807,118.207,-17.4129,-2.21924,1.38428,-156.599,220
1568024974,273.807,118.207,-17.4129,-2.21924,1.38428,-156.599,220
1568024974,273.807,118.207,-17.4129,-2.21924,1.38428,-156.599,220
1568024974,273.807,118.207,-17.4129,-2.21924,1.38428,-156.599,224
1568024974,273.807,118.207,-17.4129,-2.21924,1.38428,-156.599,224
1568024974,273.807,118.207,-17.4129,-2.21924,1.38428,-156.577,224
1568024974,273.807,118.207,-17.4129,-2.21924,1.38428,-156.577,224
1568024974,273.807,118.207,-17.4129,-2.21924,1.38428,-156.577,224
1568024974,273.807,118.207,-17.4129,-2.21924,1.38428,-156.599,224
1568024974,273.807,118.207,-17.4129,-2.21924,1.38428,-156.599,224
1568024974,273.807,118.207,-17.4129,-2.21924,1.38428,-156.577,224
1568024974,273.807,118.207,-17.4129,-2.21924,1.38428,-156.577,224
1568024974,273.807,118.207,-17.4129,-2.21924,1.38428,-156.577,224
1568024974,273.807,118.207,-17.4129,-2.21924,1.38428,-156.577,224
1568024974,273.807,118.207,-17.4129,-2.21924,1.38428,-156.577,224
1568024974,273.807,118.207,-17.4129,-2.21924,1.3623,-156.577,224
1568024974,273.807,118.207,-17.4129,-2.21924,1.3623,-156.577,224
1568024974,273.807,118.207,-17.4129,-2.21924,1.3623,-156.577,224
1568024974,273.807,118.207,-17.4129,-2.24121,1.3623,-156.577,224
1568024974,273.807,118.207,-17.4129,-2.24121,1.3623,-156.577,224
1568024974,273.807,118.207,-17.4129,-2.24121,1.3623,-156.577,224
1568024974,273.807,118.207,-17.4129,-2.24121,1.3623,-156.577,224
1568024974,273.807,118.207,-17.4129,-2.24121,1.3623,-156.577,224
1568024974,273.807,118.207,-17.4129,-2.24121,1.3623,-156.577,224
1568024974,273.807,118.207,-17.4129,-2.24121,1.3623,-156.577,224
1568024974,273.807,118.207,-17.4129,-2.24121,1.3623,-156.577,224
1568024974,273.807,118.207,-17.4129,-2.24121,1.3623,-156.577,224
1568024974,273.807,118.207,-17.4129,-2.24121,1.3623,-156.577,224
1568024974,273.807,118.207,-17.4129,-2.24121,1.38428,-156.577,224
1568024974,273.807,118.207,-17.4129,-2.24121,1.38428,-156.577,224
1568024974,273.807,118.207,-17.4129,-2.24121,1.38428,-156.577,224
1568024974,273.807,118.207,-17.4129,-2.24121,1.38428,-156.577,224
1568024974,273.807,118.207,-17.4129,-2.21924,1.38428,-156.577,224
1568024974,273.807,118.318,-17.4129,-2.21924,1.38428,-156.577,224
1568024974,273.807,118.318,-17.4129,-2.21924,1.38428,-156.577,224
1568024974,273.807,118.318,-17.4129,-2.21924,1.38428,-156.577,224
1568024974,273.807,118.318,-17.4129,-2.21924,1.38428,-156.577,224
1568024974,273.807,118.318,-17.4129,-2.21924,1.38428,-156.577,224
1568024974,273.807,118.318,-17.4129,-2.21924,1.38428,-156.577,224
1568024974,273.807,118.318,-17.4129,-2.21924,1.38428,-156.577,224
1568024974,273.807,118.318,-17.4129,-2.21924,1.38428,-156.577,224
1568024974,273.807,118.318,-17.4129,-2.21924,1.38428,-156.577,224
1568024974,273.807,118.207,-17.4129,-2.21924,1.38428,-156.577,224
1568024974,273.807,118.207,-17.4129,-2.21924,1.38428,-156.577,224
1568024974,273.807,118.207,-17.4129,-2.24121,1.38428,-156.577,224
1568024974,273.807,118.207,-17.4129,-2.24121,1.38428,-156.599,224
1568024974,273.807,118.207,-17.4129,-2.24121,1.40625,-156.599,224
1568024974,273.807,118.207,-17.4129,-2.24121,1.40625,-156.599,224
1568024974,273.807,118.207,-17.5245,-2.24121,1.40625,-156.599,224
1568024974,273.807,118.207,-17.5245,-2.24121,1.40625,-156.599,224
1568024974,273.807,118.207,-17.5245,-2.24121,1.40625,-156.599,224
1568024974,273.807,118.207,-17.5245,-2.24121,1.40625,-156.599,224
1568024974,273.807,118.207,-17.5245,-2.24121,1.40625,-156.599,224
1568024974,273.807,118.207,-17.5245,-2.24121,1.40625,-156.599,224
1568024974,273.807,118.207,-17.5245,-2.24121,1.40625,-156.599,224
1568024974,273.807,118.207,-17.5245,-2.24121,1.40625,-156.599,224
1568024974,273.807,118.207,-17.5245,-2.24121,1.40625,-156.599,224
1568024974,273.807,118.207,-17.4129,-2.24121,1.40625,-156.599,224
1568024974,273.807,118.207,-17.4129,-2.24121,1.40625,-156.599,228
1568024974,273.807,118.207,-17.4129,-2.24121,1.40625,-156.599,228
1568024974,273.807,118.207,-17.4129,-2.24121,1.40625,-156.599,228
1568024974,273.807,118.207,-17.4129,-2.24121,1.38428,-156.599,228
1568024974,273.807,118.207,-17.4129,-2.24121,1.38428,-156.577,224
1568024974,273.807,118.207,-17.4129,-2.24121,1.38428,-156.577,224
1568024974,273.807,118.207,-17.4129,-2.24121,1.38428,-156.577,224
1568024974,273.807,118.207,-17.4129,-2.24121,1.38428,-156.577,224
1568024974,273.807,118.207,-17.4129,-2.24121,1.38428,-156.577,224
1568024974,273.807,118.207,-17.4129,-2.24121,1.38428,-156.577,224
1568024974,273.807,118.207,-17.4129,-2.24121,1.38428,-156.577,224
1568024974,273.807,118.207,-17.4129,-2.24121,1.40625,-156.577,224
1568024974,273.807,118.207,-17.4129,-2.24121,1.40625,-156.577,224
1568024974,273.807,118.207,-17.5245,-2.24121,1.40625,-156.577,224
1568024974,273.807,118.207,-17.5245,-2.24121,1.40625,-156.577,224
1568024974,273.807,118.207,-17.5245,-2.24121,1.40625,-156.577,224
1568024974,273.807,118.207,-17.5245,-2.21924,1.40625,-156.577,220
1568024974,273.807,118.207,-17.5245,-2.21924,1.40625,-156.577,220
1568024974,273.807,118.318,-17.5245,-2.21924,1.40625,-156.577,220
1568024974,273.807,118.318,-17.5245,-2.21924,1.40625,-156.577,220
1568024974,273.807,118.318,-17.5245,-2.21924,1.40625,-156.577,220
1568024974,273.807,118.318,-17.5245,-2.21924,1.40625,-156.577,220
1568024974,273.807,118.318,-17.5245,-2.21924,1.40625,-156.577,220
1568024974,273.807,118.318,-17.4129,-2.21924,1.40625,-156.577,220
1568024974,273.807,118.318,-17.4129,-2.21924,1.40625,-156.577,220
1568024975,273.807,118.318,-17.4129,-2.21924,1.40625,-156.577,220
1568024975,273.807,118.318,-17.4129,-2.21924,1.38428,-156.577,220
1568024975,273.807,118.318,-17.4129,-2.21924,1.38428,-156.577,220
1568024975,273.807,118.318,-17.4129,-2.21924,1.38428,-156.577,220
1568024975,273.807,118.318,-17.4129,-2.21924,1.38428,-156.577,220
1568024975,273.807,118.318,-17.4129,-2.21924,1.38428,-156.577,220
1568024975,273.807,118.318,-17.4129,-2.21924,1.38428,-156.577,220
1568024975,273.807,118.318,-17.4129,-2.21924,1.38428,-156.577,220
1568024975,273.807,118.318,-17.4129,-2.21924,1.38428,-156.577,220
1568024975,273.807,118.318,-17.4129,-2.21924,1.38428,-156.577,220
1568024975,273.807,118.318,-17.4129,-2.21924,1.38428,-156.577,220
1568024975,273.807,118.318,-17.4129,-2.21924,1.38428,-156.577,220
1568024975,273.807,118.318,-17.4129,-2.21924,1.38428,-156.577,220
1568024975,273.807,118.318,-17.4129,-2.21924,1.38428,-156.577,220
1568024975,273.807,118.318,-17.4129,-2.21924,1.38428,-156.577,220
1568024975,273.807,118.318,-17.4129,-2.21924,1.38428,-156.577,220
1568024975,273.807,118.318,-17.4129,-2.21924,1.38428,-156.577,220
1568024975,273.807,118.318,-17.4129,-2.21924,1.38428,-156.577,220
1568024975,273.807,118.318,-17.4129,-2.21924,1.38428,-156.577,220
1568024975,273.807,118.318,-17.4129,-2.21924,1.38428,-156.577,220
1568024975,273.807,118.318,-17.4129,-2.21924,1.38428,-156.577,224
1568024975,273.807,118.318,-17.4129,-2.21924,1.38428,-156.577,224
1568024975,273.807,118.318,-17.4129,-2.21924,1.38428,-156.577,224
1568024975,273.807,118.318,-17.4129,-2.21924,1.38428,-156.577,224
1568024975,273.807,118.318,-17.4129,-2.21924,1.38428,-156.577,224
1568024975,273.807,118.318,-17.4129,-2.21924,1.38428,-156.577,224
1568024975,273.807,118.318,-17.4129,-2.21924,1.38428,-156.577,224
1568024975,273.807,118.318,-17.4129,-2.21924,1.3623,-156.577,224
1568024975,273.807,118.318,-17.4129,-2.21924,1.3623,-156.577,224
1568024975,273.807,118.318,-17.4129,-2.21924,1.3623,-156.577,224
1568024975,273.807,118.318,-17.4129,-2.21924,1.3623,-156.577,224
1568024975,273.807,118.318,-17.4129,-2.21924,1.38428,-156.577,224
1568024975,273.807,118.318,-17.4129,-2.21924,1.38428,-156.577,224
1568024975,273.807,118.318,-17.4129,-2.21924,1.38428,-156.577,224
1568024975,273.807,118.318,-17.4129,-2.21924,1.38428,-156.577,224
1568024975,273.807,118.318,-17.4129,-2.21924,1.38428,-156.577,224
1568024975,273.807,118.318,-17.4129,-2.21924,1.38428,-156.577,224
1568024975,273.807,118.318,-17.4129,-2.21924,1.38428,-156.577,224
1568024975,273.807,118.318,-17.4129,-2.21924,1.38428,-156.577,224
1568024975,273.807,118.318,-17.4129,-2.21924,1.38428,-156.577,224
1568024975,273.807,118.318,-17.4129,-2.21924,1.38428,-156.577,224
1568024975,273.807,118.318,-17.4129,-2.21924,1.38428,-156.577,224
1568024975,273.807,118.318,-17.4129,-2.21924,1.38428,-156.577,224
1568024975,273.807,118.318,-17.4129,-2.21924,1.38428,-156.577,224
1568024975,273.807,118.318,-17.4129,-2.21924,1.38428,-156.577,224
1568024975,273.807,118.318,-17.4129,-2.21924,1.38428,-156.577,224
1568024975,273.807,118.318,-17.4129,-2.21924,1.38428,-156.577,224
1568024975,273.807,118.318,-17.4129,-2.21924,1.38428,-156.577,224
1568024975,273.807,118.318,-17.4129,-2.21924,1.38428,-156.577,224
1568024975,273.807,118.318,-17.4129,-2.21924,1.38428,-156.577,224
1568024975,273.807,118.318,-17.4129,-2.21924,1.38428,-156.577,224
1568024975,273.807,118.318,-17.4129,-2.21924,1.38428,-156.577,224
1568024975,273.807,118.318,-17.4129,-2.21924,1.38428,-156.577,224
1568024975,273.807,118.318,-17.4129,-2.21924,1.38428,-156.577,224
1568024975,273.807,118.318,-17.4129,-2.21924,1.38428,-156.577,224
1568024975,273.807,118.318,-17.4129,-2.21924,1.38428,-156.577,224
1568024975,273.807,118.318,-17.4129,-2.21924,1.38428,-156.577,224
1568024975,273.807,118.318,-17.4129,-2.21924,1.38428,-156.577,224
1568024975,273.807,118.318,-17.4129,-2.21924,1.38428,-156.577,224
1568024975,273.807,118.318,-17.4129,-2.21924,1.38428,-156.577,224
1568024975,273.807,118.318,-17.4129,-2.21924,1.38428,-156.577,224
1568024975,273.807,118.318,-17.4129,-2.21924,1.38428,-156.577,224
1568024975,273.807,118.318,-17.4129,-2.21924,1.38428,-156.577,228
1568024975,273.807,118.318,-17.4129,-2.21924,1.38428,-156.577,228
1568024975,273.807,118.318,-17.4129,-2.21924,1.38428,-156.577,228
1568024975,273.807,118.318,-17.4129,-2.21924,1.38428,-156.577,228
1568024975,273.807,118.318,-17.4129,-2.21924,1.38428,-156.577,228
1568024975,273.807,118.318,-17.4129,-2.21924,1.38428,-156.577,228
1568024975,273.807,118.318,-17.4129,-2.21924,1.38428,-156.577,228
1568024975,273.807,118.318,-17.4129,-2.21924,1.38428,-156.577,228
1568024975,273.807,118.318,-17.4129,-2.21924,1.38428,-156.577,228
1568024975,273.807,118.318,-17.4129,-2.21924,1.38428,-156.577,228
1568024975,273.807,118.318,-17.4129,-2.21924,1.38428,-156.577,228
1568024975,273.807,118.318,-17.4129,-2.21924,1.38428,-156.577,228
1568024975,273.807,118.318,-17.4129,-2.21924,1.38428,-156.577,228
1568024975,273.807,118.318,-17.4129,-2.21924,1.38428,-156.577,228
1568024975,273.807,118.318,-17.4129,-2.21924,1.38428,-156.577,228
1568024975,273.807,118.318,-17.4129,-2.21924,1.3623,-156.577,228
1568024975,273.807,118.318,-17.4129,-2.21924,1.3623,-156.577,228
1568024975,273.807,118.318,-17.4129,-2.21924,1.3623,-156.577,228
1568024975,273.807,118.318,-17.4129,-2.21924,1.3623,-156.577,228
1568024975,273.807,118.318,-17.4129,-2.21924,1.3623,-156.577,228
1568024975,273.807,118.318,-17.4129,-2.21924,1.3623,-156.577,228
1568024975,273.807,118.318,-17.4129,-2.21924,1.3623,-156.577,228
1568024975,273.807,118.207,-17.4129,-2.21924,1.3623,-156.577,228
1568024975,273.807,118.207,-17.4129,-2.21924,1.3623,-156.577,228
1568024975,273.807,118.207,-17.4129,-2.21924,1.3623,-156.577,228
1568024975,273.807,118.207,-17.4129,-2.21924,1.3623,-156.577,228
1568024975,273.807,118.207,-17.4129,-2.21924,1.3623,-156.577,228
1568024975,273.807,118.318,-17.4129,-2.21924,1.3623,-156.577,228
1568024975,273.807,118.318,-17.4129,-2.21924,1.3623,-156.577,228
1568024975,273.807,118.318,-17.4129,-2.21924,1.3623,-156.577,228
1568024975,273.807,118.318,-17.4129,-2.21924,1.3623,-156.577,228
1568024975,273.807,118.318,-17.4129,-2.21924,1.3623,-156.577,228
1568024975,273.807,118.318,-17.4129,-2.21924,1.38428,-156.577,228
1568024975,273.807,118.318,-17.4129,-2.21924,1.38428,-156.577,228
1568024975,273.807,118.318,-17.4129,-2.21924,1.38428,-156.577,228
1568024975,273.807,118.207,-17.4129,-2.21924,1.38428,-156.577,228
1568024975,273.807,118.207,-17.4129,-2.21924,1.38428,-156.577,228
1568024975,273.807,118.207,-17.4129,-2.21924,1.38428,-156.577,228
1568024976,273.807,118.207,-17.4129,-2.21924,1.38428,-156.577,228
1568024976,273.807,118.207,-17.4129,-2.21924,1.3623,-156.599,228
1568024976,273.807,118.207,-17.4129,-2.21924,1.3623,-156.599,228
1568024976,273.807,118.207,-17.4129,-2.21924,1.3623,-156.577,228
1568024976,273.807,118.207,-17.4129,-2.21924,1.3623,-156.577,228
1568024976,273.807,118.207,-17.4129,-2.24121,1.3623,-156.577,228
1568024976,273.807,118.207,-17.4129,-2.24121,1.38428,-156.577,228
1568024976,273.807,118.207,-17.4129,-2.24121,1.38428,-156.577,228
1568024976,273.807,118.207,-17.4129,-2.24121,1.38428,-156.577,228
1568024976,273.807,118.207,-17.4129,-2.24121,1.38428,-156.577,228
1568024976,273.807,118.207,-17.4129,-2.24121,1.38428,-156.577,228
1568024976,273.807,118.207,-17.4129,-2.24121,1.38428,-156.577,224
1568024976,273.807,118.207,-17.4129,-2.24121,1.38428,-156.577,224
1568024976,273.807,118.207,-17.4129,-2.24121,1.38428,-156.577,224
1568024976,273.807,118.207,-17.4129,-2.24121,1.38428,-156.577,224
1568024976,273.807,118.207,-17.4129,-2.24121,1.38428,-156.577,224
1568024976,273.807,118.207,-17.4129,-2.24121,1.38428,-156.577,224
1568024976,273.807,118.207,-17.4129,-2.24121,1.38428,-156.577,224
1568024976,273.807,118.207,-17.4129,-2.24121,1.38428,-156.577,224
1568024976,273.807,118.207,-17.4129,-2.24121,1.38428,-156.577,224
1568024976,273.807,118.207,-17.4129,-2.24121,1.38428,-156.577,224
1568024976,273.807,118.207,-17.4129,-2.24121,1.38428,-156.577,224
1568024976,273.807,118.207,-17.4129,-2.24121,1.38428,-156.599,224
1568024976,273.807,118.207,-17.4129,-2.24121,1.38428,-156.599,224
1568024976,273.807,118.207,-17.4129,-2.24121,1.38428,-156.599,224
1568024976,273.807,118.207,-17.4129,-2.24121,1.38428,-156.599,224
1568024976,273.807,118.207,-17.4129,-2.24121,1.38428,-156.599,224
1568024976,273.807,118.207,-17.4129,-2.24121,1.38428,-156.599,224
1568024976,273.807,118.207,-17.4129,-2.24121,1.3623,-156.599,224
1568024976,273.807,118.207,-17.4129,-2.24121,1.3623,-156.599,224
1568024976,273.807,118.207,-17.4129,-2.24121,1.3623,-156.599,224
1568024976,273.807,118.207,-17.4129,-2.24121,1.3623,-156.599,224
1568024976,273.807,118.207,-17.4129,-2.24121,1.3623,-156.599,224
1568024976,273.807,118.207,-17.4129,-2.24121,1.3623,-156.599,224
1568024976,273.807,118.207,-17.4129,-2.24121,1.3623,-156.599,224
1568024976,273.807,118.207,-17.4129,-2.24121,1.3623,-156.599,224
1568024976,273.807,118.207,-17.4129,-2.24121,1.3623,-156.599,224
1568024976,273.807,118.207,-17.4129,-2.24121,1.3623,-156.599,224
1568024976,273.807,118.207,-17.4129,-2.24121,1.3623,-156.599,224
1568024976,273.807,118.207,-17.4129,-2.24121,1.3623,-156.599,224
1568024976,273.807,118.207,-17.4129,-2.24121,1.3623,-156.599,224
1568024976,273.807,118.207,-17.4129,-2.24121,1.3623,-156.599,224
1568024976,273.807,118.207,-17.4129,-2.24121,1.3623,-156.599,224
1568024976,273.807,118.207,-17.4129,-2.24121,1.3623,-156.599,224
1568024976,273.807,118.207,-17.4129,-2.24121,1.3623,-156.599,224
1568024976,273.807,118.207,-17.4129,-2.24121,1.3623,-156.599,224
1568024976,273.807,118.207,-17.4129,-2.24121,1.3623,-156.599,224
1568024976,273.807,118.207,-17.4129,-2.24121,1.3623,-156.599,224
1568024976,273.807,118.207,-17.4129,-2.24121,1.3623,-156.599,224
1568024976,273.807,118.207,-17.4129,-2.24121,1.3623,-156.599,224
1568024976,273.807,118.207,-17.4129,-2.24121,1.3623,-156.599,224
1568024976,273.807,118.207,-17.4129,-2.24121,1.3623,-156.599,224
1568024976,273.807,118.207,-17.4129,-2.24121,1.3623,-156.599,224
1568024976,273.807,118.207,-17.4129,-2.24121,1.3623,-156.599,224
1568024976,273.807,118.207,-17.4129,-2.24121,1.3623,-156.599,224
1568024976,273.807,118.207,-17.4129,-2.21924,1.3623,-156.599,224
1568024976,273.807,118.207,-17.4129,-2.21924,1.38428,-156.599,224
1568024976,273.807,118.207,-17.4129,-2.21924,1.38428,-156.599,224
1568024976,273.807,118.207,-17.4129,-2.21924,1.38428,-156.599,224
1568024976,273.807,118.207,-17.4129,-2.21924,1.38428,-156.599,220
1568024976,273.807,118.318,-17.4129,-2.21924,1.38428,-156.599,220
1568024976,273.807,118.318,-17.4129,-2.21924,1.38428,-156.599,220
1568024976,273.807,118.318,-17.4129,-2.21924,1.38428,-156.599,220
1568024976,273.807,118.318,-17.4129,-2.21924,1.3623,-156.599,220
1568024976,273.807,118.318,-17.4129,-2.21924,1.3623,-156.599,220
1568024976,273.807,118.318,-17.4129,-2.21924,1.3623,-156.599,220
1568024976,273.807,118.318,-17.4129,-2.21924,1.3623,-156.599,220
1568024976,273.807,118.318,-17.4129,-2.21924,1.3623,-156.599,220
1568024976,273.807,118.318,-17.4129,-2.21924,1.3623,-156.599,220
1568024976,273.807,118.318,-17.4129,-2.21924,1.3623,-156.599,220
1568024976,273.807,118.318,-17.4129,-2.21924,1.3623,-156.599,220
1568024976,273.807,118.318,-17.4129,-2.21924,1.3623,-156.599,220
1568024976,273.807,118.318,-17.4129,-2.21924,1.3623,-156.599,220
1568024976,273.807,118.318,-17.4129,-2.21924,1.3623,-156.599,220
1568024976,273.807,118.318,-17.4129,-2.21924,1.3623,-156.599,220
1568024976,273.807,118.318,-17.4129,-2.21924,1.38428,-156.599,220
1568024976,273.807,118.318,-17.4129,-2.21924,1.38428,-156.599,220
1568024976,273.807,118.318,-17.4129,-2.21924,1.38428,-156.599,220
1568024976,273.807,118.318,-17.4129,-2.21924,1.38428,-156.599,220
1568024976,273.807,118.318,-17.4129,-2.21924,1.38428,-156.599,220
1568024976,273.807,118.318,-17.4129,-2.21924,1.38428,-156.599,220
1568024976,273.807,118.207,-17.4129,-2.21924,1.38428,-156.599,220
1568024976,273.807,118.207,-17.4129,-2.24121,1.38428,-156.599,220
1568024976,273.807,118.207,-17.4129,-2.24121,1.38428,-156.599,220
1568024976,273.807,118.207,-17.4129,-2.24121,1.38428,-156.599,220
1568024976,273.807,118.207,-17.4129,-2.24121,1.38428,-156.599,220
1568024976,273.807,118.207,-17.4129,-2.24121,1.38428,-156.599,220
1568024976,273.807,118.207,-17.4129,-2.24121,1.38428,-156.599,220
1568024976,273.807,118.207,-17.4129,-2.24121,1.38428,-156.599,220
1568024976,273.807,118.207,-17.4129,-2.24121,1.38428,-156.599,220
1568024976,273.807,118.207,-17.4129,-2.24121,1.38428,-156.599,220
1568024976,273.807,118.207,-17.4129,-2.24121,1.38428,-156.599,220
1568024976,273.807,118.207,-17.4129,-2.24121,1.38428,-156.599,220
1568024976,273.807,118.207,-17.4129,-2.24121,1.38428,-156.599,220
1568024976,273.807,118.207,-17.4129,-2.24121,1.38428,-156.599,220
1568024976,273.807,118.207,-17.4129,-2.24121,1.38428,-156.599,220
1568024976,273.807,118.207,-17.4129,-2.24121,1.38428,-156.599,220
1568024976,273.807,118.207,-17.4129,-2.24121,1.38428,-156.599,220
1568024976,273.807,118.207,-17.4129,-2.24121,1.38428,-156.599,220
1568024976,273.807,118.207,-17.4129,-2.24121,1.38428,-156.599,220
1568024977,273.807,118.207,-17.4129,-2.24121,1.38428,-156.599,220
1568024977,273.807,118.207,-17.4129,-2.24121,1.38428,-156.599,224
1568024977,273.807,118.207,-17.4129,-2.24121,1.38428,-156.599,224
1568024977,273.807,118.207,-17.4129,-2.24121,1.38428,-156.599,224
1568024977,273.807,118.207,-17.4129,-2.24121,1.38428,-156.599,224
1568024977,273.807,118.207,-17.4129,-2.24121,1.38428,-156.599,224
1568024977,273.807,118.207,-17.4129,-2.24121,1.38428,-156.599,224
1568024977,273.807,118.207,-17.4129,-2.24121,1.38428,-156.599,224
1568024977,273.807,118.207,-17.4129,-2.24121,1.38428,-156.599,224
1568024977,273.807,118.207,-17.4129,-2.24121,1.38428,-156.599,224
1568024977,273.807,118.207,-17.4129,-2.24121,1.38428,-156.599,224
1568024977,273.807,118.207,-17.4129,-2.24121,1.38428,-156.599,224
1568024977,273.807,118.207,-17.4129,-2.24121,1.38428,-156.599,224
1568024977,273.807,118.207,-17.4129,-2.24121,1.38428,-156.577,224
1568024977,273.807,118.207,-17.4129,-2.24121,1.38428,-156.577,224
1568024977,273.807,118.207,-17.4129,-2.21924,1.38428,-156.577,220
1568024977,273.807,118.207,-17.4129,-2.21924,1.38428,-156.577,220
1568024977,273.807,118.207,-17.4129,-2.21924,1.38428,-156.577,220
1568024977,273.807,118.207,-17.4129,-2.21924,1.3623,-156.577,220
1568024977,273.807,118.207,-17.4129,-2.24121,1.3623,-156.577,220
1568024977,273.807,118.207,-17.4129,-2.24121,1.3623,-156.577,220
1568024977,273.807,118.207,-17.4129,-2.24121,1.3623,-156.577,220
1568024977,273.807,118.207,-17.4129,-2.24121,1.3623,-156.577,220
1568024977,273.807,118.207,-17.4129,-2.24121,1.3623,-156.577,220
1568024977,273.807,118.207,-17.4129,-2.24121,1.3623,-156.599,220
1568024977,273.807,118.207,-17.4129,-2.24121,1.3623,-156.599,220
1568024977,273.807,118.207,-17.4129,-2.24121,1.38428,-156.599,220
1568024988,235.186,158.948,-17.1896,-2.35107,1.75781,-156.995,164
1568024988,235.186,158.948,-17.1896,-2.35107,1.75781,-156.995,164
1568024988,235.186,158.948,-17.1896,-2.35107,1.75781,-156.995,164
1568024988,235.186,158.948,-17.1896,-2.35107,1.75781,-156.995,160
1568024988,235.186,158.948,-17.1896,-2.35107,1.75781,-156.995,160
1568024988,235.186,158.948,-17.1896,-2.35107,1.75781,-156.995,160
1568024988,235.186,158.948,-17.1896,-2.35107,1.75781,-156.995,160
1568024988,235.186,158.948,-17.1896,-2.35107,1.75781,-156.973,160
1568024988,235.186,158.948,-17.1896,-2.35107,1.75781,-156.973,160
1568024988,235.186,158.948,-17.1896,-2.35107,1.75781,-156.973,160
1568024988,235.186,158.948,-17.1896,-2.35107,1.75781,-156.973,160
1568024988,235.186,158.948,-17.1896,-2.35107,1.75781,-156.973,160
1568024988,235.186,158.948,-17.1896,-2.35107,1.75781,-156.973,160
1568024988,235.186,158.948,-17.1896,-2.35107,1.75781,-156.973,160
1568024988,235.186,158.948,-17.1896,-2.35107,1.75781,-156.973,160
1568024988,235.186,158.948,-17.1896,-2.35107,1.75781,-156.973,160
1568024988,235.186,158.948,-17.1896,-2.35107,1.75781,-156.973,160
1568024988,235.186,158.948,-17.1896,-2.35107,1.75781,-156.973,160
1568024988,235.186,158.948,-17.1896,-2.35107,1.75781,-156.973,160
1568024988,235.186,158.948,-17.1896,-2.35107,1.75781,-156.973,160
1568024988,235.186,158.948,-17.1896,-2.35107,1.75781,-156.973,160
1568024988,235.186,158.948,-17.1896,-2.35107,1.75781,-156.973,160
1568024988,235.186,158.948,-17.1896,-2.35107,1.75781,-156.973,160
1568024988,235.186,158.948,-17.1896,-2.35107,1.75781,-156.973,160
1568024988,235.186,158.948,-17.1896,-2.35107,1.75781,-156.995,160
1568024988,235.186,158.948,-17.1896,-2.35107,1.75781,-156.995,160
1568024988,235.186,158.948,-17.1896,-2.35107,1.75781,-156.995,160
1568024988,235.186,158.948,-17.1896,-2.35107,1.75781,-156.995,160
1568024988,235.186,158.948,-17.1896,-2.35107,1.75781,-156.995,160
1568024988,235.186,158.948,-17.1896,-2.35107,1.75781,-156.995,160
1568024988,235.186,158.948,-17.1896,-2.35107,1.75781,-156.995,160
1568024988,235.186,158.948,-17.1896,-2.35107,1.75781,-156.995,160
1568024988,235.186,158.948,-17.1896,-2.35107,1.75781,-156.995,160
1568024988,235.186,158.948,-17.1896,-2.35107,1.75781,-156.995,160
1568024988,235.186,158.948,-17.1896,-2.35107,1.75781,-156.995,160
1568024988,235.186,158.948,-17.1896,-2.35107,1.75781,-156.995,160
1568024988,235.186,158.948,-17.1896,-2.35107,1.75781,-156.995,160
1568024988,235.186,158.948,-17.1896,-2.35107,1.75781,-156.995,160
1568024988,235.186,158.948,-17.1896,-2.35107,1.75781,-156.995,160
1568024988,235.186,158.948,-17.1896,-2.35107,1.75781,-156.995,160
1568024988,235.186,158.948,-17.1896,-2.35107,1.75781,-156.973,160
1568024988,235.186,158.948,-17.1896,-2.35107,1.75781,-156.973,160
1568024988,235.186,158.948,-17.1896,-2.35107,1.75781,-156.973,160
1568024988,235.186,158.948,-17.1896,-2.35107,1.75781,-156.973,160
1568024988,235.186,158.948,-17.1896,-2.35107,1.75781,-156.973,160
1568024988,235.186,158.948,-17.1896,-2.35107,1.75781,-156.973,160
1568024988,235.186,158.948,-17.1896,-2.35107,1.75781,-156.973,160
1568024988,235.186,158.948,-17.1896,-2.35107,1.75781,-156.973,160
1568024988,235.186,158.948,-17.1896,-2.35107,1.75781,-156.973,160
1568024988,235.186,158.948,-17.1896,-2.35107,1.75781,-156.995,160
1568024988,235.186,158.948,-17.1896,-2.35107,1.75781,-156.995,160
1568024988,235.186,158.948,-17.1896,-2.35107,1.75781,-156.995,160
1568024988,235.186,158.948,-17.1896,-2.35107,1.75781,-156.995,160
1568024988,235.186,158.948,-17.1896,-2.35107,1.75781,-156.995,160
1568024988,235.186,158.948,-17.1896,-2.35107,1.75781,-156.995,164
1568024988,235.186,158.948,-17.1896,-2.35107,1.75781,-156.995,164
1568024988,235.186,158.948,-17.1896,-2.35107,1.75781,-156.995,164
1568024988,235.186,158.948,-17.1896,-2.35107,1.75781,-156.995,164
1568024988,235.186,158.948,-17.1896,-2.35107,1.75781,-156.973,164
1568024988,235.186,158.948,-17.1896,-2.35107,1.75781,-156.973,164
1568024988,235.186,158.948,-17.1896,-2.35107,1.75781,-156.973,164
1568024988,235.186,158.948,-17.1896,-2.35107,1.75781,-156.973,164
1568024988,235.186,158.948,-17.1896,-2.35107,1.75781,-156.973,164
1568024988,235.186,158.948,-17.1896,-2.35107,1.75781,-156.973,164
1568024988,235.186,158.948,-17.1896,-2.35107,1.75781,-156.973,164
1568024988,235.186,158.948,-17.1896,-2.35107,1.75781,-156.973,164
1568024988,235.186,158.948,-17.1896,-2.35107,1.75781,-156.973,164
1568024988,235.186,158.948,-17.1896,-2.35107,1.75781,-156.973,164
1568024988,235.186,158.948,-17.1896,-2.35107,1.75781,-156.973,164
1568024988,235.186,158.948,-17.1896,-2.35107,1.73584,-156.973,164
1568024988,235.186,158.948,-17.1896,-2.35107,1.73584,-156.973,164
1568024988,235.186,158.948,-17.1896,-2.35107,1.73584,-156.973,164
1568024988,235.186,158.948,-17.1896,-2.35107,1.75781,-156.973,164
1568024988,235.186,158.948,-17.1896,-2.35107,1.75781,-156.973,164
1568024988,235.186,158.948,-17.1896,-2.35107,1.75781,-156.973,164
1568024988,235.186,158.948,-17.1896,-2.35107,1.75781,-156.973,164
1568024988,235.186,158.948,-17.1896,-2.35107,1.75781,-156.973,164
1568024988,235.186,158.948,-17.1896,-2.35107,1.75781,-156.973,164
1568024988,235.186,158.948,-17.1896,-2.35107,1.75781,-156.973,164
1568024988,235.186,158.948,-17.1896,-2.35107,1.75781,-156.973,164
1568024989,235.186,158.948,-17.1896,-2.35107,1.75781,-156.973,164
1568024989,235.186,158.948,-17.1896,-2.35107,1.75781,-156.973,164
1568024989,235.186,158.948,-17.1896,-2.35107,1.75781,-156.973,164
1568024989,235.186,158.948,-17.1896,-2.35107,1.75781,-156.973,164
1568024989,235.186,158.948,-17.1896,-2.35107,1.75781,-156.973,164
1568024989,235.186,158.948,-17.1896,-2.35107,1.75781,-156.973,164
1568024989,235.186,158.948,-17.1896,-2.35107,1.75781,-156.973,164
1568024989,235.186,158.948,-17.1896,-2.35107,1.75781,-156.973,164
1568024989,235.186,158.948,-17.1896,-2.35107,1.75781,-156.973,164
1568024989,235.186,158.948,-17.1896,-2.35107,1.75781,-156.973,164
1568024989,235.186,158.948,-17.1896,-2.35107,1.75781,-156.973,164
1568024989,235.186,158.948,-17.1896,-2.35107,1.75781,-156.973,164
1568024989,235.186,158.948,-17.1896,-2.35107,1.75781,-156.973,164
1568024989,235.186,158.948,-17.1896,-2.35107,1.75781,-156.995,164
1568024989,235.186,158.948,-17.1896,-2.35107,1.75781,-156.995,164
1568024989,235.186,158.948,-17.1896,-2.35107,1.75781,-156.995,164
1568024989,235.186,158.948,-17.1896,-2.35107,1.75781,-156.995,164
1568024989,235.186,158.948,-17.1896,-2.35107,1.75781,-156.995,164
1568024989,235.186,158.948,-17.1896,-2.35107,1.75781,-156.995,164
1568024989,235.186,158.948,-17.1896,-2.35107,1.75781,-156.995,164
1568024989,235.186,158.948,-17.1896,-2.35107,1.75781,-156.995,164
1568024989,235.186,158.948,-17.1896,-2.35107,1.75781,-156.995,164
1568024989,235.186,158.948,-17.1896,-2.35107,1.75781,-156.995,164
1568024989,235.186,158.948,-17.1896,-2.35107,1.75781,-156.995,164
1568024989,235.186,158.948,-17.1896,-2.35107,1.75781,-156.973,164
1568024989,235.186,158.948,-17.1896,-2.35107,1.75781,-156.973,164
1568024989,235.186,158.948,-17.1896,-2.35107,1.75781,-156.973,164
1568024989,235.186,158.948,-17.1896,-2.35107,1.75781,-156.973,164
1568024989,235.186,158.948,-17.1896,-2.35107,1.75781,-156.973,164
1568024989,235.186,158.948,-17.1896,-2.35107,1.75781,-156.973,164
1568024989,235.186,158.948,-17.1896,-2.35107,1.75781,-156.973,164
1568024989,235.186,158.948,-17.1896,-2.35107,1.75781,-156.973,164
1568024989,235.186,158.948,-17.1896,-2.35107,1.75781,-156.973,164
1568024989,235.186,158.948,-17.1896,-2.35107,1.75781,-156.973,164
1568024989,235.186,158.948,-17.1896,-2.35107,1.75781,-156.973,164
1568024989,235.186,158.948,-17.1896,-2.35107,1.75781,-156.973,164
1568024989,235.186,158.948,-17.1896,-2.35107,1.75781,-156.973,164
1568024989,235.186,158.948,-17.1896,-2.35107,1.75781,-156.973,164
1568024989,235.186,158.948,-17.1896,-2.35107,1.75781,-156.973,164
1568024989,235.186,158.948,-17.1896,-2.35107,1.75781,-156.973,164
1568024989,235.186,158.948,-17.1896,-2.35107,1.75781,-156.973,164
1568024989,235.186,158.948,-17.1896,-2.35107,1.75781,-156.973,164
1568024989,235.186,158.948,-17.1896,-2.35107,1.75781,-156.973,164
1568024989,235.186,158.948,-17.1896,-2.35107,1.75781,-156.973,168
1568024989,235.186,158.948,-17.1896,-2.35107,1.75781,-156.973,168
1568024989,235.186,158.948,-17.1896,-2.35107,1.75781,-156.973,168
1568024989,235.186,158.948,-17.1896,-2.35107,1.75781,-156.973,168
1568024989,235.186,158.948,-17.1896,-2.35107,1.75781,-156.973,168
1568024989,235.186,158.948,-17.1896,-2.35107,1.75781,-156.973,168
1568024989,235.186,158.948,-17.1896,-2.35107,1.75781,-156.973,168
1568024989,235.186,158.948,-17.1896,-2.35107,1.75781,-156.973,168
1568024989,235.186,158.948,-17.1896,-2.35107,1.75781,-156.973,168
1568024989,235.186,158.948,-17.1896,-2.35107,1.75781,-156.973,168
1568024989,235.186,158.948,-17.1896,-2.35107,1.75781,-156.973,168
1568024989,235.186,158.948,-17.1896,-2.35107,1.75781,-156.973,168
1568024989,235.186,158.948,-17.1896,-2.35107,1.75781,-156.973,168
1568024989,235.186,158.948,-17.1896,-2.35107,1.75781,-156.973,168
1568024989,235.186,158.948,-17.1896,-2.35107,1.75781,-156.973,168
1568024989,235.186,158.948,-17.1896,-2.35107,1.73584,-156.973,168
1568024989,235.186,158.948,-17.1896,-2.35107,1.73584,-156.973,168
1568024989,235.186,158.948,-17.1896,-2.35107,1.73584,-156.973,168
1568024989,235.186,158.948,-17.1896,-2.35107,1.73584,-156.973,168
1568024989,235.186,158.948,-17.1896,-2.35107,1.73584,-156.973,168
1568024989,235.186,158.948,-17.1896,-2.35107,1.73584,-156.973,168
1568024989,235.186,158.948,-17.1896,-2.35107,1.73584,-156.973,168
1568024989,235.186,158.948,-17.1896,-2.35107,1.73584,-156.973,168
1568024989,235.186,158.948,-17.1896,-2.35107,1.73584,-156.973,168
1568024989,235.186,158.948,-17.1896,-2.35107,1.73584,-156.973,168
1568024989,235.186,158.948,-17.1896,-2.35107,1.73584,-156.973,168
1568024989,235.186,158.948,-17.1896,-2.35107,1.75781,-156.973,168
1568024989,235.186,158.948,-17.1896,-2.35107,1.75781,-156.973,168
1568024989,235.186,158.948,-17.1896,-2.35107,1.75781,-156.973,168
1568024989,235.186,158.948,-17.1896,-2.35107,1.75781,-156.973,168
1568024989,235.186,158.948,-17.1896,-2.35107,1.75781,-156.973,168
1568024989,235.186,158.948,-17.1896,-2.35107,1.75781,-156.973,168
1568024989,235.186,158.948,-17.1896,-2.35107,1.75781,-156.973,168
1568024989,235.186,158.948,-17.1896,-2.35107,1.75781,-156.995,168
1568024989,235.186,158.948,-17.1896,-2.35107,1.75781,-156.995,168
1568024989,235.186,158.948,-17.1896,-2.35107,1.75781,-156.995,168
1568024989,235.186,158.948,-17.1896,-2.35107,1.75781,-156.995,168
1568024989,235.186,158.948,-17.1896,-2.35107,1.75781,-156.995,168
1568024989,235.186,158.948,-17.1896,-2.35107,1.75781,-156.995,168
1568024989,235.186,158.948,-17.1896,-2.35107,1.75781,-156.995,168
1568024989,235.186,158.948,-17.1896,-2.35107,1.75781,-156.973,168
1568024989,235.186,158.948,-17.1896,-2.35107,1.75781,-156.973,168
1568024989,235.186,158.948,-17.1896,-2.35107,1.75781,-156.973,168
1568024989,235.186,158.948,-17.1896,-2.35107,1.75781,-156.973,168
1568024989,235.186,158.948,-17.1896,-2.35107,1.75781,-156.973,168
1568024989,235.186,158.948,-17.1896,-2.35107,1.75781,-156.973,168
1568024989,235.186,158.948,-17.1896,-2.35107,1.75781,-156.973,168
1568024989,235.186,158.948,-17.1896,-2.35107,1.75781,-156.973,168
1568024989,235.186,158.948,-17.1896,-2.35107,1.75781,-156.973,168
1568024989,235.186,158.948,-17.1896,-2.35107,1.75781,-156.973,168
1568024989,235.186,158.948,-17.1896,-2.35107,1.75781,-156.973,168
1568024989,235.186,158.948,-17.1896,-2.35107,1.75781,-156.973,168
1568024989,235.186,158.948,-17.1896,-2.35107,1.75781,-156.973,168
1568024989,235.186,158.948,-17.1896,-2.35107,1.75781,-156.973,168
1568024989,235.186,158.948,-17.1896,-2.35107,1.75781,-156.973,168
1568024989,235.186,158.948,-17.1896,-2.35107,1.75781,-156.973,168
1568024989,235.186,158.948,-17.1896,-2.35107,1.75781,-156.973,168
1568024990,235.186,158.948,-17.1896,-2.35107,1.75781,-156.973,168
1568024990,235.186,158.948,-17.1896,-2.35107,1.75781,-156.973,168
1568024990,235.186,158.948,-17.1896,-2.35107,1.75781,-156.973,168
1568024990,235.186,158.948,-17.1896,-2.37305,1.75781,-156.973,168
1568024990,235.186,158.948,-17.1896,-2.37305,1.75781,-156.973,168
1568024990,235.186,158.948,-17.1896,-2.37305,1.75781,-156.973,168
1568024990,235.186,158.948,-17.1896,-2.37305,1.75781,-156.973,168
1568024990,235.186,158.948,-17.1896,-2.37305,1.75781,-156.973,168
1568024990,235.186,158.948,-17.1896,-2.37305,1.75781,-156.973,168
1568024990,235.186,158.948,-17.1896,-2.37305,1.75781,-156.973,168
1568024990,235.186,158.948,-17.1896,-2.37305,1.75781,-156.973,164
1568024990,235.186,158.948,-17.1896,-2.37305,1.75781,-156.973,164
1568024990,235.186,158.948,-17.1896,-2.37305,1.75781,-156.973,164
1568024990,235.186,158.948,-17.1896,-2.37305,1.75781,-156.973,164
1568024990,235.186,158.948,-17.1896,-2.37305,1.75781,-156.973,164
1568024990,235.186,158.948,-17.1896,-2.37305,1.75781,-156.973,164
1568024990,235.186,158.948,-17.1896,-2.37305,1.75781,-156.973,164
1568024990,235.186,158.948,-17.1896,-2.37305,1.75781,-156.973,164
1568024990,235.186,158.948,-17.1896,-2.37305,1.75781,-156.973,164
1568024990,235.186,158.948,-17.1896,-2.37305,1.75781,-156.973,164
1568024990,235.186,158.948,-17.1896,-2.37305,1.75781,-156.973,164
1568024990,235.186,158.948,-17.1896,-2.37305,1.75781,-156.973,164
1568024990,235.186,158.948,-17.1896,-2.37305,1.75781,-156.973,164
1568024990,235.186,158.948,-17.1896,-2.37305,1.75781,-156.973,164
1568024990,235.186,158.948,-17.1896,-2.37305,1.75781,-156.973,164
1568024990,235.186,158.948,-17.1896,-2.37305,1.75781,-156.973,164
1568024990,235.186,158.948,-17.1896,-2.37305,1.75781,-156.973,164
1568024990,235.186,158.948,-17.1896,-2.37305,1.75781,-156.973,164
1568024990,235.186,158.948,-17.1896,-2.37305,1.75781,-156.973,168
1568024990,235.186,158.948,-17.1896,-2.37305,1.75781,-156.973,168
1568024990,235.186,158.948,-17.1896,-2.37305,1.75781,-156.973,168
1568024990,235.186,158.948,-17.1896,-2.37305,1.75781,-156.973,168
1568024990,235.186,158.948,-17.1896,-2.35107,1.75781,-156.973,168
1568024990,235.186,158.948,-17.1896,-2.35107,1.75781,-156.973,168
1568024990,235.186,158.948,-17.1896,-2.35107,1.75781,-156.995,168
1568024990,235.186,158.948,-17.1896,-2.35107,1.75781,-156.995,168
1568024990,235.186,158.948,-17.1896,-2.35107,1.75781,-156.995,168
1568024990,235.186,158.948,-17.1896,-2.35107,1.75781,-156.995,168
1568024990,235.186,158.948,-17.1896,-2.37305,1.75781,-156.995,168
1568024990,235.186,158.948,-17.1896,-2.37305,1.75781,-156.995,168
1568024990,235.186,158.948,-17.1896,-2.37305,1.75781,-156.973,168
1568024990,235.186,158.948,-17.1896,-2.37305,1.75781,-156.973,168
1568024990,235.186,158.948,-17.1896,-2.37305,1.75781,-156.973,168
1568024990,235.186,158.948,-17.1896,-2.37305,1.75781,-156.973,168
1568024990,235.186,158.948,-17.1896,-2.37305,1.75781,-156.973,168
1568024990,235.186,158.948,-17.1896,-2.37305,1.75781,-156.973,168
1568024990,235.186,158.948,-17.1896,-2.37305,1.75781,-156.973,168
1568024990,235.186,158.948,-17.1896,-2.37305,1.75781,-156.973,168
1568024990,235.186,158.948,-17.1896,-2.37305,1.75781,-156.973,168
1568024990,235.186,158.948,-17.1896,-2.37305,1.75781,-156.973,168
1568024990,235.186,158.948,-17.1896,-2.37305,1.75781,-156.973,168
1568024990,235.186,158.948,-17.1896,-2.37305,1.75781,-156.973,168
1568024990,235.186,158.948,-17.1896,-2.37305,1.75781,-156.973,168
1568024990,235.186,158.948,-17.1896,-2.35107,1.75781,-156.973,168
1568024990,235.186,158.948,-17.1896,-2.35107,1.75781,-156.973,168
1568024990,235.186,158.948,-17.1896,-2.35107,1.75781,-156.973,168
1568024990,235.186,158.948,-17.1896,-2.35107,1.75781,-156.973,168
1568024990,235.186,158.948,-17.1896,-2.35107,1.75781,-156.973,168
1568024990,235.186,158.948,-17.1896,-2.35107,1.75781,-156.973,168
1568024990,235.186,158.948,-17.1896,-2.35107,1.75781,-156.973,168
1568024990,235.186,158.948,-17.1896,-2.35107,1.75781,-156.973,168
1568024990,235.186,158.948,-17.1896,-2.35107,1.75781,-156.973,168
1568024990,235.186,158.948,-17.1896,-2.35107,1.75781,-156.973,164
1568024990,235.186,158.948,-17.1896,-2.35107,1.75781,-156.973,164
1568024990,235.186,158.948,-17.1896,-2.35107,1.75781,-156.973,164
1568024990,235.186,158.948,-17.1896,-2.35107,1.75781,-156.973,164
1568024990,235.186,158.948,-17.1896,-2.35107,1.75781,-156.973,164
1568024990,235.186,158.948,-17.1896,-2.35107,1.75781,-156.973,164
1568024990,235.186,158.948,-17.1896,-2.35107,1.75781,-156.973,164
1568024990,235.186,158.948,-17.1896,-2.35107,1.75781,-156.973,164
1568024990,235.186,158.948,-17.1896,-2.35107,1.75781,-156.973,164
1568024990,235.186,158.948,-17.1896,-2.35107,1.75781,-156.973,164
1568024990,235.186,158.948,-17.1896,-2.35107,1.75781,-156.973,164
1568024990,235.186,158.948,-17.1896,-2.35107,1.75781,-156.973,164
1568024990,235.186,158.948,-17.1896,-2.35107,1.75781,-156.973,164
1568024990,235.186,158.948,-17.1896,-2.37305,1.75781,-156.973,164
1568024990,235.186,158.948,-17.1896,-2.37305,1.75781,-156.973,164
1568024990,235.186,158.948,-17.1896,-2.37305,1.75781,-156.973,164
1568024990,235.186,158.948,-17.1896,-2.37305,1.75781,-156.973,164
1568024990,235.186,158.948,-17.1896,-2.37305,1.75781,-156.973,164
1568024990,235.186,158.948,-17.1896,-2.37305,1.75781,-156.973,164
1568024990,235.186,158.948,-17.1896,-2.37305,1.75781,-156.973,164
1568024990,235.186,158.948,-17.1896,-2.37305,1.75781,-156.973,164
1568024990,235.186,158.948,-17.1896,-2.37305,1.75781,-156.973,164
1568024990,235.186,158.948,-17.1896,-2.37305,1.75781,-156.973,164
1568024990,235.186,158.948,-17.1896,-2.37305,1.75781,-156.973,164
1568024990,235.186,158.948,-17.1896,-2.37305,1.75781,-156.973,164
1568024990,235.186,158.948,-17.1896,-2.37305,1.75781,-156.973,164
1568024990,235.186,158.948,-17.1896,-2.35107,1.75781,-156.973,164
1568024990,235.186,158.948,-17.1896,-2.35107,1.75781,-156.973,164
1568024990,235.186,158.948,-17.1896,-2.35107,1.75781,-156.973,164
1568024990,235.186,158.948,-17.1896,-2.35107,1.75781,-156.973,164
1568024990,235.186,158.948,-17.1896,-2.35107,1.75781,-156.973,164
1568024990,235.186,158.948,-17.1896,-2.35107,1.75781,-156.973,164
1568024990,235.186,158.948,-17.1896,-2.35107,1.75781,-156.973,164
1568024990,235.186,158.948,-17.1896,-2.35107,1.75781,-156.973,164
1568024990,235.186,158.948,-17.1896,-2.35107,1.75781,-156.973,164
1568024990,235.186,158.948,-17.1896,-2.35107,1.75781,-156.973,164
1568024990,235.186,158.948,-17.1896,-2.35107,1.77979,-156.973,164
1568024990,235.186,158.948,-17.1896,-2.35107,1.77979,-156.973,164
1568024991,235.186,158.948,-17.1896,-2.35107,1.77979,-156.973,164
1568024991,235.186,158.948,-17.1896,-2.35107,1.77979,-156.973,164
1568024991,235.186,158.948,-17.1896,-2.35107,1.77979,-156.973,164
1568024991,235.186,158.948,-17.1896,-2.35107,1.75781,-156.973,164
1568024991,235.186,158.948,-17.1896,-2.35107,1.75781,-156.973,164
1568024991,235.186,158.948,-17.1896,-2.35107,1.75781,-156.973,164
1568024991,235.186,158.948,-17.1896,-2.35107,1.75781,-156.973,164
1568024991,235.186,158.948,-17.1896,-2.35107,1.75781,-156.973,164
1568024991,235.186,158.948,-17.1896,-2.35107,1.75781,-156.973,164
1568024991,235.186,158.948,-17.1896,-2.35107,1.75781,-156.973,164
1568024991,235.186,158.948,-17.1896,-2.35107,1.75781,-156.973,164
1568024991,235.186,158.948,-17.1896,-2.35107,1.75781,-156.973,164
1568024991,235.186,158.948,-17.1896,-2.35107,1.75781,-156.973,164
1568024991,235.186,158.948,-17.1896,-2.35107,1.75781,-156.973,164
1568024991,235.186,158.948,-17.1896,-2.35107,1.75781,-156.973,164
1568024991,235.186,158.948,-17.1896,-2.35107,1.75781,-156.973,164
1568024991,235.186,158.948,-17.1896,-2.35107,1.75781,-156.973,160
1568024991,235.186,158.948,-17.1896,-2.35107,1.75781,-156.973,160
1568024991,235.186,158.948,-17.1896,-2.35107,1.75781,-156.973,160
1568024991,235.186,158.948,-17.1896,-2.35107,1.75781,-156.973,160
