time,x,y,z,ax,ay,az,q
1569930967,245.455,28.3518,-7.25537,177.583,6.13037,-145.547,128
1569930967,245.455,28.3518,-7.25537,177.583,6.13037,-145.547,128
1569930967,245.455,28.3518,-7.25537,177.583,6.13037,-145.547,128
1569930967,245.455,28.3518,-7.25537,177.583,6.13037,-145.547,128
1569930967,245.455,28.3518,-7.25537,177.583,6.13037,-145.547,128
1569930967,245.455,28.3518,-7.25537,177.583,6.13037,-145.547,128
1569930967,245.455,28.3518,-7.25537,177.583,6.13037,-145.547,128
1569930967,245.455,28.3518,-7.25537,177.583,6.13037,-145.547,128
1569930967,245.455,28.4634,-7.25537,177.583,6.13037,-145.525,128
1569930967,245.455,28.4634,-7.25537,177.583,6.13037,-145.525,128
1569930967,245.455,28.4634,-7.25537,177.583,6.13037,-145.525,128
1569930967,245.455,28.4634,-7.25537,177.583,6.13037,-145.525,132
1569930967,245.455,28.4634,-7.25537,177.583,6.13037,-145.525,132
1569930967,245.455,28.4634,-7.25537,177.583,6.13037,-145.525,132
1569930967,245.455,28.4634,-7.25537,177.605,6.13037,-145.525,132
1569930967,245.455,28.4634,-7.25537,177.605,6.13037,-145.525,132
1569930967,245.455,28.4634,-7.25537,177.605,6.13037,-145.525,132
1569930967,245.455,28.4634,-7.25537,177.605,6.13037,-145.525,132
1569930967,245.455,28.4634,-7.25537,177.605,6.13037,-145.525,132
1569930967,245.455,28.4634,-7.25537,177.605,6.13037,-145.525,132
1569930967,245.455,28.4634,-7.25537,177.605,6.13037,-145.525,132
1569930967,245.455,28.4634,-7.25537,177.605,6.13037,-145.525,132
1569930968,245.455,28.4634,-7.25537,177.605,6.13037,-145.525,132
1569930968,245.455,28.4634,-7.25537,177.605,6.13037,-145.525,132
1569930968,245.455,28.4634,-7.25537,177.605,6.13037,-145.525,132
1569930968,245.455,28.4634,-7.25537,177.605,6.13037,-145.525,132
1569930968,245.455,28.4634,-7.25537,177.605,6.13037,-145.525,132
1569930968,245.455,28.4634,-7.25537,177.605,6.13037,-145.525,132
1569930968,245.455,28.4634,-7.25537,177.605,6.13037,-145.525,132
1569930968,245.455,28.4634,-7.25537,177.605,6.13037,-145.525,132
1569930968,245.455,28.4634,-7.25537,177.605,6.13037,-145.525,132
1569930968,245.455,28.4634,-7.25537,177.605,6.13037,-145.525,132
1569930968,245.455,28.4634,-7.25537,177.605,6.13037,-145.525,132
1569930968,245.455,28.4634,-7.25537,177.605,6.13037,-145.525,132
1569930968,245.455,28.4634,-7.25537,177.605,6.13037,-145.525,132
1569930968,245.455,28.4634,-7.25537,177.605,6.13037,-145.525,132
1569930968,245.455,28.4634,-7.25537,177.605,6.13037,-145.525,132
1569930968,245.455,28.4634,-7.25537,177.605,6.13037,-145.525,132
1569930968,245.455,28.4634,-7.25537,177.605,6.13037,-145.525,132
1569930968,245.455,28.4634,-7.25537,177.605,6.13037,-145.525,132
1569930968,245.455,28.4634,-7.25537,177.605,6.13037,-145.525,132
1569930968,245.343,28.4634,-7.25537,177.605,6.13037,-145.525,132
1569930968,245.343,28.4634,-7.25537,177.605,6.13037,-145.525,132
1569930968,245.343,28.4634,-7.25537,177.605,6.13037,-145.525,132
1569930968,245.343,28.4634,-7.25537,177.605,6.1084,-145.525,132
1569930968,245.343,28.4634,-7.25537,177.605,6.1084,-145.525,132
1569930968,245.343,28.4634,-7.25537,177.605,6.1084,-145.525,132
1569930968,245.343,28.4634,-7.25537,177.605,6.1084,-145.525,132
1569930968,245.343,28.4634,-7.25537,177.605,6.1084,-145.525,132
1569930968,245.343,28.4634,-7.25537,177.605,6.1084,-145.525,132
1569930968,245.343,28.4634,-7.25537,177.605,6.1084,-145.525,132
1569930968,245.343,28.4634,-7.25537,177.605,6.1084,-145.525,132
1569930968,245.455,28.4634,-7.25537,177.605,6.1084,-145.525,132
1569930968,245.455,28.4634,-7.25537,177.605,6.1084,-145.547,132
1569930968,245.455,28.4634,-7.25537,177.605,6.1084,-145.547,132
1569930968,245.455,28.4634,-7.25537,177.605,6.1084,-145.547,132
1569930968,245.455,28.4634,-7.25537,177.605,6.1084,-145.547,132
1569930968,245.455,28.4634,-7.25537,177.605,6.1084,-145.547,132
1569930968,245.455,28.4634,-7.25537,177.605,6.1084,-145.547,132
1569930968,245.455,28.4634,-7.25537,177.605,6.1084,-145.547,132
1569930968,245.455,28.4634,-7.25537,177.605,6.1084,-145.547,132
1569930968,245.455,28.4634,-7.25537,177.605,6.1084,-145.547,132
1569930968,245.455,28.4634,-7.25537,177.605,6.1084,-145.547,132
1569930968,245.455,28.4634,-7.25537,177.605,6.1084,-145.547,132
1569930968,245.455,28.4634,-7.25537,177.605,6.1084,-145.547,132
1569930968,245.455,28.4634,-7.25537,177.605,6.1084,-145.547,132
1569930968,245.455,28.4634,-7.25537,177.605,6.1084,-145.547,132
1569930968,245.455,28.4634,-7.25537,177.605,6.1084,-145.547,132
1569930968,245.455,28.4634,-7.25537,177.583,6.1084,-145.547,132
1569930968,245.455,28.3518,-7.25537,177.583,6.1084,-145.547,132
1569930968,245.455,28.3518,-7.25537,177.583,6.1084,-145.547,132
1569930968,245.455,28.3518,-7.25537,177.583,6.1084,-145.547,132
1569930968,245.455,28.3518,-7.25537,177.583,6.1084,-145.547,132
1569930968,245.455,28.3518,-7.25537,177.583,6.1084,-145.547,132
1569930968,245.455,28.3518,-7.25537,177.583,6.1084,-145.547,132
1569930968,245.455,28.3518,-7.25537,177.583,6.1084,-145.547,132
1569930968,245.455,28.3518,-7.25537,177.583,6.1084,-145.547,132
1569930968,245.455,28.3518,-7.25537,177.583,6.1084,-145.547,132
1569930968,245.455,28.3518,-7.25537,177.583,6.1084,-145.547,132
1569930968,245.343,28.3518,-7.25537,177.583,6.1084,-145.547,132
1569930968,245.343,28.3518,-7.25537,177.583,6.1084,-145.547,132
1569930968,245.343,28.3518,-7.25537,177.583,6.1084,-145.547,132
1569930968,245.343,28.3518,-7.25537,177.583,6.1084,-145.547,132
1569930968,245.343,28.3518,-7.25537,177.583,6.1084,-145.547,132
1569930968,245.343,28.3518,-7.25537,177.583,6.1084,-145.547,132
1569930968,245.343,28.3518,-7.25537,177.583,6.1084,-145.547,132
1569930968,245.343,28.3518,-7.25537,177.583,6.1084,-145.547,132
1569930968,245.343,28.3518,-7.25537,177.583,6.1084,-145.547,132
1569930968,245.343,28.3518,-7.25537,177.583,6.1084,-145.547,132
1569930968,245.343,28.3518,-7.25537,177.583,6.1084,-145.547,132
1569930968,245.343,28.3518,-7.25537,177.583,6.1084,-145.547,132
1569930968,245.343,28.3518,-7.25537,177.583,6.13037,-145.547,132
1569930968,245.343,28.3518,-7.25537,177.583,6.1084,-145.547,132
1569930968,245.343,28.3518,-7.25537,177.583,6.1084,-145.547,136
1569930968,245.343,28.3518,-7.25537,177.583,6.1084,-145.547,136
1569930968,245.343,28.3518,-7.25537,177.583,6.1084,-145.547,136
1569930968,245.343,28.3518,-7.25537,177.583,6.1084,-145.547,136
1569930968,245.343,28.3518,-7.25537,177.583,6.1084,-145.547,136
1569930968,245.343,28.3518,-7.25537,177.583,6.1084,-145.547,136
1569930968,245.343,28.3518,-7.25537,177.583,6.1084,-145.547,136
1569930968,245.343,28.3518,-7.25537,177.583,6.1084,-145.547,136
1569930968,245.343,28.3518,-7.25537,177.583,6.1084,-145.547,136
1569930968,245.343,28.3518,-7.25537,177.583,6.1084,-145.547,136
1569930968,245.343,28.3518,-7.25537,177.583,6.1084,-145.547,136
1569930968,245.343,28.3518,-7.25537,177.583,6.1084,-145.547,136
1569930968,245.343,28.3518,-7.25537,177.583,6.1084,-145.547,136
1569930968,245.343,28.3518,-7.25537,177.583,6.1084,-145.547,136
1569930968,245.343,28.3518,-7.25537,177.583,6.1084,-145.547,136
1569930968,245.343,28.3518,-7.25537,177.583,6.1084,-145.547,136
1569930968,245.343,28.3518,-7.25537,177.583,6.1084,-145.547,136
1569930968,245.343,28.3518,-7.25537,177.583,6.1084,-145.547,136
1569930968,245.343,28.3518,-7.25537,177.583,6.13037,-145.547,136
1569930968,245.343,28.3518,-7.25537,177.583,6.13037,-145.547,136
1569930968,245.343,28.3518,-7.25537,177.583,6.13037,-145.547,136
1569930968,245.343,28.3518,-7.25537,177.583,6.13037,-145.547,136
1569930968,245.343,28.3518,-7.25537,177.583,6.13037,-145.547,136
1569930968,245.343,28.3518,-7.25537,177.583,6.13037,-145.547,136
1569930968,245.343,28.3518,-7.25537,177.583,6.13037,-145.547,136
1569930968,245.343,28.3518,-7.25537,177.583,6.13037,-145.547,136
1569930968,245.343,28.3518,-7.25537,177.583,6.13037,-145.547,136
1569930968,245.343,28.3518,-7.25537,177.583,6.13037,-145.547,136
1569930968,245.343,28.3518,-7.25537,177.583,6.13037,-145.547,136
1569930969,245.343,28.3518,-7.25537,177.583,6.13037,-145.547,136
1569930969,245.343,28.3518,-7.25537,177.583,6.13037,-145.547,136
1569930969,245.343,28.3518,-7.25537,177.583,6.13037,-145.547,136
1569930969,245.343,28.3518,-7.25537,177.583,6.13037,-145.547,136
1569930969,245.343,28.3518,-7.25537,177.583,6.13037,-145.547,136
1569930969,245.343,28.3518,-7.25537,177.583,6.13037,-145.547,136
1569930969,245.343,28.3518,-7.25537,177.583,6.13037,-145.547,136
1569930969,245.343,28.3518,-7.25537,177.583,6.13037,-145.547,136
1569930969,245.343,28.3518,-7.25537,177.583,6.13037,-145.547,136
1569930969,245.343,28.3518,-7.25537,177.583,6.13037,-145.547,136
1569930969,245.343,28.3518,-7.25537,177.583,6.13037,-145.547,136
1569930969,245.343,28.3518,-7.25537,177.583,6.13037,-145.547,136
1569930969,245.343,28.3518,-7.25537,177.583,6.13037,-145.547,136
1569930969,245.343,28.3518,-7.25537,177.583,6.13037,-145.547,136
1569930969,245.343,28.3518,-7.25537,177.583,6.13037,-145.547,132
1569930969,245.343,28.3518,-7.25537,177.583,6.13037,-145.547,132
1569930969,245.343,28.3518,-7.25537,177.583,6.1084,-145.547,132
1569930969,245.343,28.3518,-7.25537,177.583,6.1084,-145.547,132
1569930969,245.343,28.3518,-7.25537,177.583,6.1084,-145.547,132
1569930969,245.343,28.3518,-7.25537,177.583,6.1084,-145.547,132
1569930969,245.343,28.3518,-7.25537,177.583,6.1084,-145.547,132
1569930969,245.343,28.3518,-7.25537,177.583,6.13037,-145.547,132
1569930969,245.343,28.3518,-7.25537,177.605,6.13037,-145.547,132
1569930969,245.343,28.3518,-7.25537,177.605,6.13037,-145.547,132
1569930969,245.343,28.3518,-7.25537,177.605,6.13037,-145.547,132
1569930969,245.343,28.3518,-7.25537,177.583,6.13037,-145.547,132
1569930969,245.455,28.3518,-7.25537,177.583,6.13037,-145.547,132
1569930969,245.455,28.3518,-7.25537,177.583,6.13037,-145.547,132
1569930969,245.455,28.3518,-7.25537,177.583,6.13037,-145.547,132
1569930969,245.455,28.3518,-7.25537,177.583,6.13037,-145.547,132
1569930969,245.455,28.3518,-7.25537,177.583,6.13037,-145.547,132
1569930969,245.455,28.3518,-7.25537,177.583,6.13037,-145.547,132
1569930969,245.455,28.3518,-7.25537,177.583,6.13037,-145.547,132
1569930969,245.455,28.3518,-7.25537,177.583,6.13037,-145.547,132
1569930969,245.343,28.3518,-7.25537,177.583,6.13037,-145.547,132
1569930969,245.343,28.3518,-7.25537,177.583,6.13037,-145.547,132
1569930969,245.343,28.3518,-7.25537,177.583,6.13037,-145.547,132
1569930969,245.343,28.3518,-7.25537,177.583,6.13037,-145.547,132
1569930969,245.343,28.3518,-7.25537,177.583,6.13037,-145.547,132
1569930969,245.343,28.3518,-7.25537,177.583,6.13037,-145.547,132
1569930969,245.343,28.3518,-7.25537,177.583,6.13037,-145.547,132
1569930969,245.343,28.3518,-7.25537,177.583,6.13037,-145.547,132
1569930969,245.343,28.3518,-7.25537,177.583,6.13037,-145.547,132
1569930969,245.343,28.3518,-7.25537,177.605,6.13037,-145.547,132
1569930969,245.343,28.4634,-7.25537,177.605,6.13037,-145.547,132
1569930969,245.343,28.4634,-7.25537,177.605,6.13037,-145.547,132
1569930969,245.455,28.4634,-7.25537,177.605,6.13037,-145.547,132
1569930969,245.455,28.4634,-7.25537,177.605,6.13037,-145.547,132
1569930969,245.455,28.4634,-7.25537,177.605,6.13037,-145.547,132
1569930969,245.455,28.4634,-7.25537,177.605,6.13037,-145.547,132
1569930969,245.455,28.4634,-7.25537,177.605,6.13037,-145.547,132
1569930969,245.455,28.4634,-7.25537,177.605,6.13037,-145.547,132
1569930969,245.455,28.4634,-7.25537,177.605,6.13037,-145.547,132
1569930969,245.455,28.4634,-7.25537,177.583,6.13037,-145.547,132
1569930969,245.455,28.4634,-7.25537,177.583,6.13037,-145.547,132
1569930969,245.455,28.3518,-7.25537,177.583,6.13037,-145.547,132
1569930969,245.455,28.3518,-7.25537,177.583,6.1084,-145.547,132
1569930969,245.455,28.3518,-7.25537,177.583,6.1084,-145.547,132
1569930969,245.455,28.3518,-7.25537,177.583,6.1084,-145.547,132
1569930969,245.455,28.3518,-7.25537,177.583,6.1084,-145.547,132
1569930969,245.455,28.3518,-7.25537,177.583,6.1084,-145.547,132
1569930969,245.343,28.3518,-7.25537,177.583,6.1084,-145.547,132
1569930969,245.343,28.3518,-7.25537,177.583,6.1084,-145.547,132
1569930969,245.343,28.3518,-7.25537,177.583,6.1084,-145.547,132
1569930969,245.343,28.3518,-7.25537,177.583,6.1084,-145.547,132
1569930969,245.343,28.3518,-7.25537,177.583,6.1084,-145.547,132
1569930969,245.343,28.3518,-7.25537,177.583,6.1084,-145.547,132
1569930969,245.343,28.3518,-7.25537,177.583,6.1084,-145.547,132
1569930969,245.343,28.3518,-7.25537,177.583,6.1084,-145.547,132
1569930969,245.343,28.3518,-7.25537,177.583,6.1084,-145.547,132
1569930969,245.343,28.3518,-7.25537,177.583,6.1084,-145.547,132
1569930969,245.343,28.3518,-7.25537,177.583,6.1084,-145.547,132
1569930969,245.343,28.3518,-7.25537,177.583,6.1084,-145.547,132
1569930969,245.343,28.3518,-7.25537,177.583,6.1084,-145.547,136
1569930969,245.343,28.3518,-7.25537,177.605,6.1084,-145.547,136
1569930969,245.343,28.4634,-7.25537,177.605,6.1084,-145.547,136
1569930969,245.343,28.4634,-7.25537,177.605,6.1084,-145.547,136
1569930969,245.343,28.4634,-7.25537,177.605,6.13037,-145.547,136
1569930969,245.343,28.4634,-7.25537,177.605,6.13037,-145.547,136
1569930969,245.343,28.4634,-7.25537,177.605,6.13037,-145.547,136
1569930969,245.343,28.4634,-7.25537,177.605,6.13037,-145.547,136
1569930969,245.343,28.3518,-7.25537,177.605,6.13037,-145.547,136
1569930969,245.343,28.3518,-7.25537,177.605,6.13037,-145.547,136
1569930969,245.343,28.3518,-7.25537,177.605,6.13037,-145.547,136
1569930969,245.343,28.3518,-7.25537,177.605,6.13037,-145.547,136
1569930969,245.343,28.3518,-7.25537,177.605,6.13037,-145.547,136
1569930969,245.343,28.3518,-7.25537,177.605,6.13037,-145.547,136
1569930969,245.343,28.3518,-7.25537,177.605,6.13037,-145.547,136
1569930969,245.343,28.3518,-7.25537,177.583,6.13037,-145.547,140
1569930969,245.343,28.3518,-7.25537,177.583,6.13037,-145.547,140
1569930969,245.343,28.3518,-7.25537,177.583,6.13037,-145.547,140
1569930969,245.343,28.3518,-7.25537,177.605,6.13037,-145.547,140
1569930969,245.343,28.3518,-7.25537,177.605,6.13037,-145.547,140
1569930969,245.343,28.3518,-7.25537,177.605,6.1084,-145.547,140
1569930969,245.343,28.3518,-7.25537,177.605,6.1084,-145.547,140
1569930969,245.343,28.4634,-7.25537,177.605,6.1084,-145.547,140
1569930969,245.343,28.4634,-7.25537,177.605,6.1084,-145.547,140
1569930969,245.343,28.4634,-7.25537,177.605,6.1084,-145.547,140
1569930969,245.343,28.4634,-7.25537,177.605,6.1084,-145.547,136
1569930969,245.343,28.4634,-7.25537,177.605,6.1084,-145.547,136
1569930970,245.343,28.4634,-7.25537,177.605,6.1084,-145.547,136
1569930970,245.343,28.4634,-7.25537,177.605,6.1084,-145.547,136
1569930970,245.343,28.4634,-7.25537,177.605,6.1084,-145.547,136
1569930970,245.343,28.4634,-7.25537,177.605,6.1084,-145.547,136
1569930970,245.343,28.4634,-7.25537,177.605,6.1084,-145.547,136
1569930970,245.343,28.4634,-7.25537,177.605,6.1084,-145.547,136
1569930970,245.343,28.4634,-7.25537,177.605,6.1084,-145.547,136
1569930970,245.343,28.4634,-7.25537,177.605,6.1084,-145.547,136
1569930970,245.343,28.4634,-7.25537,177.605,6.1084,-145.547,136
1569930970,245.343,28.4634,-7.25537,177.605,6.1084,-145.547,136
1569930970,245.343,28.4634,-7.25537,177.605,6.1084,-145.547,136
1569930970,245.343,28.4634,-7.25537,177.605,6.13037,-145.547,136
1569930970,245.343,28.4634,-7.25537,177.605,6.13037,-145.547,136
1569930970,245.343,28.4634,-7.25537,177.605,6.13037,-145.547,136
1569930970,245.343,28.4634,-7.25537,177.605,6.13037,-145.547,136
1569930970,245.343,28.4634,-7.25537,177.605,6.13037,-145.547,136
1569930970,245.343,28.4634,-7.25537,177.605,6.13037,-145.547,136
1569930970,245.343,28.4634,-7.25537,177.605,6.13037,-145.547,136
1569930970,245.343,28.4634,-7.25537,177.605,6.13037,-145.547,136
1569930970,245.343,28.4634,-7.25537,177.605,6.13037,-145.547,136
1569930970,245.343,28.4634,-7.25537,177.605,6.13037,-145.547,136
1569930970,245.343,28.4634,-7.25537,177.605,6.13037,-145.547,136
1569930970,245.343,28.4634,-7.25537,177.605,6.13037,-145.547,136
1569930970,245.343,28.4634,-7.25537,177.605,6.13037,-145.547,136
1569930970,245.343,28.4634,-7.25537,177.605,6.13037,-145.547,136
1569930970,245.343,28.4634,-7.25537,177.605,6.1084,-145.547,136
1569930970,245.343,28.4634,-7.25537,177.605,6.1084,-145.547,136
1569930970,245.343,28.4634,-7.25537,177.605,6.1084,-145.547,136
1569930970,245.343,28.4634,-7.25537,177.605,6.13037,-145.547,136
1569930970,245.343,28.4634,-7.25537,177.605,6.13037,-145.547,136
1569930970,245.343,28.4634,-7.25537,177.605,6.13037,-145.547,136
1569930970,245.343,28.4634,-7.25537,177.605,6.13037,-145.547,136
1569930970,245.343,28.4634,-7.25537,177.605,6.13037,-145.547,136
1569930970,245.343,28.4634,-7.25537,177.605,6.13037,-145.547,136
1569930970,245.343,28.4634,-7.25537,177.605,6.13037,-145.547,136
1569930970,245.343,28.4634,-7.25537,177.605,6.13037,-145.525,136
1569930970,245.343,28.4634,-7.25537,177.605,6.13037,-145.525,136
1569930970,245.343,28.4634,-7.25537,177.605,6.13037,-145.525,136
1569930970,245.343,28.4634,-7.25537,177.605,6.13037,-145.525,136
1569930970,245.343,28.4634,-7.25537,177.605,6.13037,-145.525,136
1569930970,245.343,28.4634,-7.25537,177.605,6.13037,-145.525,136
1569930970,245.343,28.4634,-7.25537,177.605,6.13037,-145.525,136
1569930970,245.343,28.4634,-7.25537,177.605,6.13037,-145.525,136
1569930970,245.343,28.4634,-7.25537,177.605,6.13037,-145.525,136
1569930970,245.343,28.4634,-7.25537,177.605,6.13037,-145.525,136
1569930970,245.343,28.4634,-7.25537,177.605,6.13037,-145.525,136
1569930970,245.343,28.4634,-7.25537,177.605,6.13037,-145.525,136
1569930970,245.343,28.4634,-7.25537,177.605,6.13037,-145.525,136
1569930970,245.343,28.4634,-7.25537,177.605,6.13037,-145.525,136
1569930970,245.343,28.4634,-7.25537,177.605,6.13037,-145.525,136
1569930970,245.343,28.4634,-7.25537,177.605,6.13037,-145.525,136
1569930970,245.343,28.4634,-7.25537,177.605,6.13037,-145.525,136
1569930970,245.343,28.4634,-7.25537,177.605,6.13037,-145.525,136
1569930970,245.343,28.3518,-7.25537,177.605,6.13037,-145.525,136
1569930970,245.343,28.3518,-7.25537,177.605,6.13037,-145.525,136
1569930970,245.343,28.3518,-7.25537,177.605,6.13037,-145.525,136
1569930970,245.343,28.3518,-7.25537,177.605,6.13037,-145.525,136
1569930970,245.343,28.3518,-7.25537,177.605,6.13037,-145.525,136
1569930970,245.343,28.3518,-7.25537,177.605,6.13037,-145.525,136
1569930970,245.343,28.4634,-7.25537,177.605,6.13037,-145.525,136
1569930970,245.343,28.4634,-7.25537,177.605,6.13037,-145.525,136
1569930970,245.343,28.4634,-7.25537,177.605,6.13037,-145.525,136
1569930970,245.343,28.4634,-7.25537,177.605,6.13037,-145.525,136
1569930970,245.343,28.4634,-7.25537,177.605,6.13037,-145.525,136
1569930970,245.343,28.4634,-7.25537,177.605,6.13037,-145.525,136
1569930970,245.343,28.4634,-7.25537,177.605,6.13037,-145.525,136
1569930970,245.343,28.4634,-7.25537,177.605,6.13037,-145.547,136
1569930970,245.343,28.4634,-7.25537,177.605,6.13037,-145.547,136
1569930970,245.343,28.4634,-7.25537,177.605,6.13037,-145.547,136
1569930970,245.343,28.4634,-7.25537,177.605,6.13037,-145.547,136
1569930970,245.343,28.4634,-7.25537,177.605,6.13037,-145.547,136
1569930970,245.343,28.4634,-7.25537,177.605,6.13037,-145.547,136
1569930970,245.343,28.4634,-7.25537,177.605,6.13037,-145.547,136
1569930970,245.343,28.4634,-7.25537,177.605,6.13037,-145.547,136
1569930970,245.343,28.4634,-7.25537,177.605,6.13037,-145.547,136
1569930970,245.343,28.4634,-7.25537,177.605,6.13037,-145.547,136
1569930970,245.343,28.4634,-7.25537,177.605,6.13037,-145.547,136
1569930970,245.343,28.4634,-7.25537,177.605,6.13037,-145.547,136
1569930970,245.343,28.4634,-7.25537,177.605,6.13037,-145.547,136
1569930970,245.343,28.4634,-7.25537,177.605,6.13037,-145.547,136
1569930970,245.343,28.4634,-7.25537,177.605,6.13037,-145.547,136
1569930970,245.343,28.4634,-7.25537,177.605,6.13037,-145.547,136
1569930970,245.343,28.4634,-7.25537,177.605,6.13037,-145.547,136
1569930970,245.343,28.4634,-7.25537,177.605,6.13037,-145.547,140
1569930970,245.343,28.4634,-7.25537,177.605,6.13037,-145.547,140
1569930970,245.343,28.4634,-7.25537,177.605,6.13037,-145.547,140
1569930970,245.343,28.4634,-7.25537,177.605,6.13037,-145.547,140
1569930970,245.343,28.4634,-7.25537,177.605,6.1084,-145.547,140
1569930970,245.343,28.4634,-7.25537,177.605,6.1084,-145.547,140
1569930970,245.343,28.4634,-7.25537,177.605,6.1084,-145.547,140
1569930970,245.343,28.4634,-7.25537,177.605,6.1084,-145.547,140
1569930970,245.343,28.4634,-7.25537,177.605,6.1084,-145.547,140
1569930970,245.343,28.4634,-7.25537,177.605,6.1084,-145.547,140
1569930970,245.343,28.4634,-7.25537,177.605,6.1084,-145.547,140
1569930970,245.343,28.4634,-7.25537,177.605,6.1084,-145.547,140
1569930970,245.343,28.4634,-7.25537,177.605,6.1084,-145.547,140
1569930970,245.343,28.4634,-7.25537,177.605,6.1084,-145.547,140
1569930970,245.343,28.4634,-7.25537,177.605,6.1084,-145.547,136
1569930970,245.343,28.4634,-7.25537,177.605,6.1084,-145.547,136
1569930970,245.343,28.4634,-7.25537,177.605,6.1084,-145.547,136
1569930971,245.343,28.4634,-7.25537,177.605,6.1084,-145.547,136
1569930971,245.343,28.4634,-7.25537,177.605,6.1084,-145.547,136
1569930971,245.343,28.4634,-7.25537,177.605,6.1084,-145.547,136
1569930971,245.343,28.4634,-7.25537,177.605,6.1084,-145.547,140
1569930971,245.343,28.4634,-7.25537,177.605,6.1084,-145.547,140
1569930971,245.343,28.4634,-7.25537,177.605,6.1084,-145.547,140
1569930971,245.343,28.4634,-7.25537,177.605,6.1084,-145.547,140
1569930971,245.343,28.4634,-7.25537,177.605,6.1084,-145.547,140
1569930971,245.343,28.4634,-7.25537,177.605,6.1084,-145.547,140
1569930971,245.343,28.4634,-7.25537,177.605,6.1084,-145.547,140
1569930971,245.343,28.4634,-7.25537,177.605,6.1084,-145.547,140
1569930971,245.343,28.4634,-7.25537,177.605,6.1084,-145.547,140
1569930971,245.343,28.4634,-7.25537,177.605,6.1084,-145.547,140
1569930971,245.343,28.4634,-7.25537,177.605,6.1084,-145.547,140
1569930971,245.343,28.4634,-7.25537,177.605,6.1084,-145.547,140
1569930971,245.343,28.4634,-7.25537,177.605,6.1084,-145.547,140
1569930971,245.343,28.4634,-7.25537,177.605,6.1084,-145.547,140
1569930971,245.343,28.4634,-7.25537,177.605,6.1084,-145.547,140
1569930971,245.343,28.4634,-7.25537,177.605,6.1084,-145.547,140
1569930971,245.343,28.4634,-7.25537,177.605,6.1084,-145.547,140
1569930971,245.343,28.4634,-7.25537,177.605,6.1084,-145.547,140
1569930971,245.343,28.4634,-7.25537,177.605,6.1084,-145.547,140
1569930971,245.343,28.4634,-7.25537,177.605,6.1084,-145.547,140
1569930971,245.343,28.4634,-7.25537,177.605,6.1084,-145.547,140
1569930971,245.343,28.4634,-7.25537,177.605,6.1084,-145.547,140
1569930971,245.343,28.4634,-7.25537,177.605,6.1084,-145.547,140
1569930971,245.343,28.4634,-7.25537,177.605,6.1084,-145.547,140
1569930971,245.343,28.4634,-7.25537,177.605,6.1084,-145.547,140
1569930971,245.343,28.4634,-7.25537,177.605,6.1084,-145.547,140
1569930971,245.343,28.4634,-7.25537,177.605,6.1084,-145.547,140
1569930971,245.343,28.4634,-7.25537,177.605,6.1084,-145.547,140
1569930971,245.343,28.4634,-7.25537,177.605,6.13037,-145.547,140
1569930971,245.343,28.4634,-7.25537,177.605,6.13037,-145.547,140
1569930971,245.343,28.4634,-7.25537,177.605,6.13037,-145.547,136
1569930971,245.343,28.4634,-7.25537,177.605,6.13037,-145.547,136
1569930971,245.343,28.4634,-7.25537,177.605,6.13037,-145.547,136
1569930971,245.343,28.4634,-7.25537,177.605,6.1084,-145.547,136
1569930971,245.343,28.4634,-7.25537,177.605,6.1084,-145.547,136
1569930971,245.343,28.4634,-7.25537,177.605,6.1084,-145.547,136
1569930971,245.343,28.4634,-7.25537,177.605,6.1084,-145.547,136
1569930971,245.343,28.4634,-7.25537,177.605,6.1084,-145.547,136
1569930971,245.343,28.4634,-7.25537,177.605,6.1084,-145.547,136
1569930971,245.343,28.4634,-7.25537,177.605,6.1084,-145.547,136
1569930971,245.343,28.4634,-7.25537,177.605,6.1084,-145.547,136
1569930971,245.343,28.4634,-7.25537,177.605,6.1084,-145.547,136
1569930971,245.343,28.4634,-7.25537,177.605,6.1084,-145.547,136
1569930971,245.343,28.4634,-7.25537,177.605,6.1084,-145.547,136
1569930971,245.343,28.4634,-7.25537,177.605,6.1084,-145.547,136
1569930971,245.343,28.4634,-7.25537,177.605,6.13037,-145.547,136
1569930971,245.343,28.4634,-7.25537,177.605,6.13037,-145.547,136
1569930971,245.343,28.4634,-7.25537,177.605,6.13037,-145.547,136
1569930971,245.343,28.4634,-7.25537,177.605,6.13037,-145.547,136
1569930971,245.343,28.4634,-7.25537,177.605,6.13037,-145.547,136
1569930971,245.343,28.4634,-7.25537,177.605,6.13037,-145.547,136
1569930971,245.343,28.4634,-7.25537,177.605,6.13037,-145.547,136
1569930971,245.343,28.4634,-7.25537,177.605,6.13037,-145.547,136
1569930971,245.343,28.4634,-7.25537,177.605,6.13037,-145.547,136
1569930971,245.343,28.4634,-7.25537,177.605,6.13037,-145.547,136
1569930971,245.343,28.4634,-7.25537,177.605,6.13037,-145.547,136
1569930971,245.343,28.4634,-7.25537,177.605,6.13037,-145.547,136
1569930971,245.343,28.4634,-7.25537,177.605,6.13037,-145.547,136
1569930971,245.343,28.4634,-7.25537,177.605,6.13037,-145.547,136
1569930971,245.343,28.4634,-7.25537,177.605,6.13037,-145.547,136
1569930971,245.343,28.4634,-7.25537,177.605,6.13037,-145.547,136
1569930971,245.343,28.4634,-7.25537,177.605,6.13037,-145.547,136
1569930971,245.343,28.4634,-7.25537,177.605,6.13037,-145.547,136
1569930971,245.343,28.4634,-7.25537,177.605,6.13037,-145.547,136
1569930971,245.343,28.4634,-7.25537,177.605,6.13037,-145.547,136
1569930971,245.343,28.4634,-7.25537,177.605,6.13037,-145.547,140
1569930971,245.343,28.4634,-7.25537,177.605,6.13037,-145.547,140
1569930971,245.343,28.4634,-7.25537,177.605,6.13037,-145.547,140
1569930971,245.343,28.4634,-7.25537,177.605,6.13037,-145.547,140
1569930971,245.343,28.4634,-7.25537,177.605,6.13037,-145.547,136
1569930971,245.343,28.4634,-7.25537,177.605,6.13037,-145.547,136
1569930971,245.455,28.4634,-7.25537,177.605,6.13037,-145.547,136
1569930971,245.455,28.4634,-7.25537,177.605,6.13037,-145.547,136
1569930971,245.455,28.4634,-7.25537,177.605,6.13037,-145.547,136
1569930971,245.455,28.4634,-7.25537,177.605,6.13037,-145.547,136
1569930971,245.455,28.4634,-7.25537,177.605,6.13037,-145.547,136
1569930971,245.455,28.4634,-7.25537,177.605,6.13037,-145.547,136
1569930971,245.455,28.4634,-7.25537,177.605,6.13037,-145.547,136
1569930971,245.455,28.4634,-7.25537,177.605,6.13037,-145.547,136
1569930971,245.455,28.4634,-7.25537,177.605,6.13037,-145.547,136
1569930971,245.455,28.4634,-7.25537,177.605,6.13037,-145.547,136
1569930971,245.455,28.4634,-7.25537,177.605,6.13037,-145.547,136
1569930971,245.455,28.4634,-7.25537,177.605,6.13037,-145.547,136
1569930971,245.455,28.4634,-7.25537,177.605,6.13037,-145.547,136
1569930971,245.455,28.4634,-7.25537,177.605,6.13037,-145.547,136
1569930971,245.455,28.4634,-7.25537,177.605,6.13037,-145.547,136
1569930971,245.455,28.4634,-7.25537,177.605,6.13037,-145.547,136
1569930971,245.343,28.4634,-7.25537,177.605,6.13037,-145.547,136
1569930971,245.343,28.4634,-7.25537,177.605,6.13037,-145.547,136
1569930971,245.343,28.4634,-7.25537,177.605,6.13037,-145.547,136
1569930971,245.343,28.4634,-7.25537,177.605,6.13037,-145.547,136
1569930971,245.343,28.4634,-7.25537,177.605,6.13037,-145.547,136
1569930971,245.343,28.4634,-7.25537,177.605,6.13037,-145.547,136
1569930971,245.343,28.4634,-7.25537,177.605,6.13037,-145.547,136
1569930971,245.343,28.4634,-7.25537,177.605,6.13037,-145.547,136
1569930971,245.343,28.4634,-7.25537,177.605,6.13037,-145.547,136
1569930971,245.343,28.4634,-7.25537,177.605,6.13037,-145.547,136
1569930972,245.343,28.4634,-7.25537,177.605,6.13037,-145.547,136
1569930972,245.343,28.4634,-7.25537,177.605,6.13037,-145.547,136
1569930972,245.343,28.4634,-7.25537,177.605,6.13037,-145.547,136
1569930972,245.343,28.4634,-7.25537,177.605,6.13037,-145.547,136
1569930972,245.343,28.4634,-7.25537,177.605,6.13037,-145.547,136
1569930972,245.343,28.4634,-7.25537,177.605,6.13037,-145.547,136
1569930972,245.343,28.4634,-7.25537,177.605,6.13037,-145.547,136
1569930972,245.343,28.4634,-7.25537,177.605,6.13037,-145.547,140
1569930972,245.343,28.4634,-7.25537,177.605,6.13037,-145.547,140
1569930972,245.343,28.4634,-7.25537,177.605,6.13037,-145.547,140
1569930972,245.343,28.4634,-7.25537,177.605,6.13037,-145.547,140
1569930972,245.343,28.4634,-7.25537,177.605,6.13037,-145.547,140
1569930972,245.343,28.4634,-7.25537,177.605,6.13037,-145.547,140
1569930972,245.343,28.4634,-7.25537,177.605,6.13037,-145.547,140
1569930972,245.343,28.4634,-7.25537,177.605,6.13037,-145.547,140
1569930972,245.455,28.4634,-7.25537,177.605,6.13037,-145.547,140
1569930972,245.343,28.4634,-7.25537,177.605,6.13037,-145.547,140
1569930972,245.343,28.4634,-7.25537,177.605,6.13037,-145.547,140
1569930972,245.343,28.4634,-7.25537,177.605,6.13037,-145.547,140
1569930972,245.343,28.4634,-7.25537,177.605,6.13037,-145.547,140
1569930972,245.343,28.4634,-7.25537,177.605,6.13037,-145.547,140
1569930972,245.343,28.4634,-7.25537,177.605,6.13037,-145.547,140
1569930972,245.343,28.4634,-7.25537,177.605,6.13037,-145.547,140
1569930972,245.343,28.4634,-7.25537,177.605,6.13037,-145.547,140
1569930972,245.343,28.4634,-7.25537,177.605,6.13037,-145.547,140
1569930972,245.343,28.4634,-7.25537,177.605,6.13037,-145.547,140
1569930972,245.343,28.4634,-7.25537,177.605,6.13037,-145.547,140
1569930972,245.343,28.4634,-7.25537,177.605,6.13037,-145.547,140
1569930972,245.343,28.4634,-7.25537,177.605,6.13037,-145.547,140
1569930972,245.343,28.4634,-7.25537,177.605,6.13037,-145.547,140
1569930972,245.343,28.4634,-7.25537,177.605,6.13037,-145.547,140
1569930972,245.343,28.4634,-7.25537,177.605,6.13037,-145.547,140
1569930972,245.343,28.4634,-7.25537,177.605,6.13037,-145.547,140
1569930972,245.343,28.4634,-7.25537,177.605,6.13037,-145.547,140
1569930972,245.343,28.4634,-7.25537,177.605,6.13037,-145.547,140
1569930972,245.343,28.4634,-7.25537,177.605,6.13037,-145.547,140
1569930972,245.343,28.4634,-7.25537,177.605,6.13037,-145.547,140
1569930972,245.343,28.4634,-7.25537,177.605,6.13037,-145.547,140
1569930972,245.343,28.4634,-7.25537,177.605,6.13037,-145.547,136
1569930972,245.343,28.4634,-7.25537,177.605,6.13037,-145.547,136
1569930972,245.343,28.4634,-7.25537,177.605,6.13037,-145.547,136
1569930972,245.343,28.4634,-7.25537,177.605,6.13037,-145.547,136
1569930972,245.343,28.4634,-7.25537,177.605,6.13037,-145.547,136
1569930972,245.343,28.4634,-7.25537,177.605,6.13037,-145.547,136
1569930972,245.343,28.4634,-7.25537,177.605,6.13037,-145.547,136
1569930972,245.343,28.4634,-7.25537,177.605,6.13037,-145.547,136
1569930972,245.343,28.4634,-7.25537,177.605,6.13037,-145.547,136
1569930972,245.343,28.4634,-7.25537,177.605,6.13037,-145.547,136
1569930972,245.343,28.4634,-7.25537,177.605,6.13037,-145.547,136
1569930972,245.343,28.4634,-7.25537,177.605,6.13037,-145.547,136
1569930972,245.343,28.4634,-7.25537,177.605,6.13037,-145.547,136
1569930972,245.343,28.4634,-7.25537,177.605,6.13037,-145.547,136
1569930972,245.343,28.4634,-7.25537,177.605,6.13037,-145.547,136
1569930972,245.343,28.4634,-7.25537,177.605,6.13037,-145.547,136
1569930972,245.343,28.4634,-7.25537,177.605,6.13037,-145.547,136
1569930972,245.343,28.4634,-7.25537,177.605,6.13037,-145.547,136
1569930972,245.343,28.4634,-7.25537,177.605,6.13037,-145.547,136
1569930972,245.343,28.4634,-7.25537,177.605,6.13037,-145.547,136
1569930972,245.343,28.4634,-7.25537,177.605,6.13037,-145.547,136
1569930972,245.343,28.4634,-7.25537,177.605,6.13037,-145.547,136
1569930972,245.343,28.4634,-7.25537,177.605,6.13037,-145.547,136
1569930972,245.343,28.4634,-7.25537,177.605,6.13037,-145.547,136
1569930972,245.343,28.4634,-7.25537,177.605,6.13037,-145.547,136
1569930972,245.343,28.4634,-7.25537,177.605,6.13037,-145.547,136
1569930972,245.343,28.4634,-7.25537,177.605,6.13037,-145.547,136
1569930972,245.343,28.4634,-7.25537,177.605,6.13037,-145.547,136
1569930972,245.343,28.4634,-7.25537,177.605,6.13037,-145.547,136
1569930972,245.343,28.4634,-7.25537,177.605,6.13037,-145.547,136
1569930972,245.343,28.4634,-7.25537,177.605,6.13037,-145.547,136
1569930972,245.343,28.4634,-7.25537,177.605,6.13037,-145.547,136
1569930972,245.343,28.4634,-7.25537,177.605,6.13037,-145.547,136
1569930972,245.343,28.4634,-7.25537,177.605,6.13037,-145.547,136
1569930972,245.343,28.4634,-7.25537,177.605,6.13037,-145.547,136
1569930972,245.343,28.4634,-7.25537,177.605,6.13037,-145.547,136
1569930972,245.343,28.4634,-7.25537,177.605,6.13037,-145.547,136
1569930972,245.343,28.4634,-7.25537,177.605,6.13037,-145.547,136
1569930972,245.343,28.4634,-7.25537,177.605,6.13037,-145.547,136
1569930972,245.343,28.4634,-7.25537,177.605,6.13037,-145.547,136
1569930975,260.97,12.1667,-5.8043,177.781,6.37207,-144.998,176
1569930975,260.97,12.1667,-5.8043,177.781,6.3501,-144.998,176
1569930975,260.97,12.1667,-5.8043,177.781,6.3501,-144.998,176
1569930975,260.97,12.1667,-5.8043,177.781,6.3501,-144.998,176
1569930976,260.97,12.1667,-5.8043,177.781,6.3501,-144.998,176
1569930976,260.97,12.1667,-5.8043,177.781,6.3501,-144.998,176
1569930976,260.97,12.1667,-5.8043,177.759,6.3501,-144.998,176
1569930976,260.97,12.1667,-5.8043,177.759,6.3501,-144.998,176
1569930976,260.97,12.1667,-5.8043,177.759,6.3501,-144.998,176
1569930976,260.97,12.1667,-5.8043,177.759,6.3501,-144.998,176
1569930976,260.97,12.1667,-5.8043,177.759,6.3501,-144.998,176
1569930976,260.97,12.1667,-5.8043,177.759,6.3501,-144.998,176
1569930976,260.97,12.1667,-5.8043,177.759,6.3501,-144.998,176
1569930976,260.97,12.1667,-5.8043,177.759,6.3501,-144.998,176
1569930976,260.97,12.1667,-5.8043,177.759,6.3501,-144.998,176
1569930976,260.97,12.1667,-5.8043,177.759,6.3501,-144.998,176
1569930976,260.97,12.1667,-5.8043,177.759,6.3501,-144.998,176
1569930976,260.97,12.1667,-5.8043,177.759,6.3501,-144.998,176
1569930976,260.97,12.1667,-5.8043,177.759,6.3501,-144.998,172
1569930976,260.97,12.1667,-5.8043,177.759,6.3501,-144.998,172
1569930976,260.97,12.1667,-5.8043,177.759,6.37207,-144.998,172
1569930976,260.97,12.1667,-5.8043,177.759,6.37207,-144.998,172
1569930976,260.97,12.1667,-5.8043,177.759,6.37207,-144.998,172
1569930976,260.97,12.1667,-5.8043,177.759,6.37207,-144.998,172
1569930976,260.97,12.1667,-5.8043,177.759,6.37207,-144.998,172
1569930976,260.97,12.1667,-5.8043,177.759,6.37207,-144.998,172
1569930976,260.97,12.1667,-5.8043,177.759,6.37207,-144.998,172
1569930976,260.97,12.1667,-5.8043,177.759,6.37207,-144.998,172
1569930976,260.97,12.1667,-5.8043,177.759,6.37207,-144.998,172
1569930976,260.97,12.1667,-5.8043,177.759,6.37207,-144.998,172
1569930976,260.97,12.1667,-5.8043,177.759,6.37207,-144.998,172
1569930976,260.97,12.1667,-5.8043,177.759,6.37207,-144.998,172
1569930976,260.97,12.1667,-5.8043,177.759,6.37207,-144.998,172
1569930976,260.97,12.1667,-5.8043,177.759,6.37207,-144.998,172
1569930976,260.97,12.1667,-5.8043,177.759,6.37207,-144.998,172
1569930976,260.97,12.1667,-5.8043,177.759,6.37207,-144.998,172
1569930976,260.97,12.1667,-5.8043,177.759,6.37207,-144.998,172
1569930976,260.97,12.1667,-5.8043,177.759,6.37207,-144.998,172
1569930976,260.97,12.1667,-5.8043,177.759,6.37207,-144.998,172
1569930976,260.97,12.1667,-5.8043,177.759,6.37207,-144.998,172
1569930976,260.97,12.1667,-5.8043,177.759,6.37207,-144.998,172
1569930976,260.97,12.1667,-5.8043,177.759,6.37207,-144.998,172
1569930976,260.97,12.1667,-5.8043,177.759,6.37207,-144.998,172
1569930976,260.97,12.1667,-5.8043,177.759,6.37207,-144.998,172
1569930976,260.97,12.1667,-5.8043,177.759,6.37207,-144.998,172
1569930976,260.97,12.1667,-5.8043,177.759,6.37207,-144.998,172
1569930976,260.97,12.1667,-5.8043,177.759,6.37207,-144.998,172
1569930976,260.97,12.1667,-5.8043,177.759,6.37207,-144.998,172
1569930976,260.97,12.1667,-5.8043,177.759,6.37207,-144.998,172
1569930976,260.97,12.1667,-5.8043,177.759,6.37207,-144.998,176
1569930976,260.97,12.1667,-5.8043,177.759,6.37207,-144.998,176
1569930976,260.97,12.1667,-5.8043,177.759,6.37207,-144.998,176
1569930976,260.97,12.1667,-5.8043,177.759,6.37207,-144.998,176
1569930976,260.97,12.1667,-5.8043,177.759,6.37207,-144.998,176
1569930976,260.97,12.1667,-5.8043,177.759,6.37207,-144.998,176
1569930976,260.97,12.1667,-5.8043,177.759,6.37207,-144.998,176
1569930976,260.97,12.1667,-5.8043,177.759,6.37207,-144.998,176
1569930976,260.97,12.1667,-5.8043,177.759,6.37207,-144.998,176
1569930976,260.97,12.1667,-5.8043,177.759,6.37207,-144.998,176
1569930976,260.97,12.1667,-5.8043,177.759,6.37207,-144.998,176
1569930976,260.97,12.1667,-5.8043,177.759,6.37207,-144.998,176
1569930976,260.97,12.1667,-5.8043,177.759,6.37207,-144.998,176
1569930976,260.97,12.1667,-5.8043,177.759,6.37207,-144.998,176
1569930976,260.97,12.1667,-5.8043,177.759,6.37207,-144.998,176
1569930976,260.97,12.1667,-5.8043,177.759,6.37207,-144.998,176
1569930976,260.97,12.1667,-5.8043,177.759,6.37207,-144.998,176
1569930976,260.97,12.1667,-5.8043,177.759,6.37207,-144.998,176
1569930976,260.97,12.1667,-5.8043,177.759,6.37207,-144.998,176
1569930976,260.97,12.1667,-5.8043,177.759,6.37207,-144.998,176
1569930976,260.97,12.1667,-5.8043,177.759,6.37207,-144.998,176
1569930976,260.97,12.1667,-5.8043,177.759,6.37207,-144.998,180
1569930976,260.97,12.1667,-5.8043,177.759,6.37207,-144.998,180
1569930976,260.97,12.1667,-5.8043,177.759,6.37207,-144.998,180
1569930976,260.97,12.1667,-5.8043,177.759,6.37207,-144.998,180
1569930976,260.97,12.1667,-5.8043,177.759,6.37207,-144.998,180
1569930976,260.97,12.1667,-5.8043,177.759,6.37207,-144.998,180
1569930976,260.97,12.1667,-5.8043,177.759,6.37207,-144.998,180
1569930976,260.97,12.1667,-5.8043,177.759,6.37207,-144.998,180
1569930976,260.97,12.1667,-5.8043,177.759,6.37207,-144.998,180
1569930976,260.97,12.1667,-5.8043,177.759,6.37207,-144.998,176
1569930976,260.97,12.1667,-5.8043,177.759,6.3501,-144.998,176
1569930976,260.97,12.1667,-5.8043,177.759,6.3501,-144.998,176
1569930976,260.97,12.1667,-5.8043,177.759,6.3501,-144.998,176
1569930976,260.97,12.1667,-5.8043,177.759,6.3501,-144.998,176
1569930976,260.97,12.1667,-5.8043,177.759,6.3501,-144.998,176
1569930976,260.97,12.1667,-5.8043,177.759,6.3501,-144.998,176
1569930976,260.97,12.1667,-5.8043,177.759,6.3501,-144.998,180
1569930976,260.97,12.1667,-5.8043,177.759,6.3501,-144.998,180
1569930976,260.97,12.1667,-5.8043,177.759,6.3501,-144.998,180
1569930976,260.97,12.1667,-5.8043,177.759,6.3501,-144.998,180
1569930976,260.97,12.1667,-5.8043,177.759,6.3501,-144.998,180
1569930976,260.97,12.1667,-5.8043,177.759,6.3501,-144.998,180
1569930976,260.97,12.1667,-5.8043,177.759,6.37207,-144.998,180
1569930976,260.97,12.1667,-5.8043,177.759,6.37207,-144.998,180
1569930976,260.97,12.1667,-5.8043,177.759,6.37207,-144.998,180
1569930976,260.97,12.1667,-5.8043,177.759,6.37207,-144.998,180
1569930976,260.97,12.1667,-5.8043,177.759,6.37207,-144.998,180
1569930976,260.97,12.1667,-5.8043,177.759,6.37207,-144.998,180
1569930976,260.97,12.1667,-5.8043,177.759,6.37207,-144.998,180
1569930976,260.97,12.1667,-5.8043,177.759,6.37207,-144.998,180
1569930976,260.97,12.1667,-5.8043,177.759,6.37207,-144.998,180
1569930976,260.97,12.1667,-5.8043,177.759,6.37207,-144.998,180
1569930976,260.97,12.1667,-5.8043,177.759,6.37207,-144.998,180
1569930976,260.97,12.1667,-5.8043,177.759,6.37207,-144.998,180
1569930977,260.97,12.1667,-5.8043,177.759,6.37207,-144.998,180
1569930977,260.97,12.1667,-5.8043,177.759,6.37207,-144.998,180
1569930977,260.97,12.1667,-5.8043,177.759,6.37207,-144.998,180
1569930977,260.97,12.1667,-5.8043,177.759,6.37207,-144.998,180
1569930977,260.97,12.1667,-5.8043,177.759,6.37207,-144.998,180
1569930977,260.97,12.1667,-5.8043,177.759,6.37207,-144.998,180
1569930977,260.97,12.1667,-5.8043,177.759,6.37207,-144.998,180
1569930977,260.97,12.1667,-5.8043,177.759,6.37207,-144.998,180
1569930977,260.97,12.1667,-5.8043,177.759,6.37207,-144.998,180
1569930977,260.97,12.1667,-5.8043,177.759,6.37207,-144.998,180
1569930977,260.97,12.1667,-5.8043,177.759,6.37207,-144.998,180
1569930977,260.97,12.1667,-5.8043,177.759,6.37207,-144.998,180
1569930977,260.97,12.1667,-5.8043,177.759,6.37207,-144.998,180
1569930977,260.97,12.1667,-5.8043,177.759,6.37207,-144.998,180
1569930977,260.97,12.1667,-5.8043,177.759,6.37207,-144.998,180
1569930977,260.97,12.1667,-5.8043,177.759,6.37207,-144.998,180
1569930977,260.97,12.1667,-5.8043,177.759,6.37207,-144.998,180
1569930977,260.97,12.1667,-5.8043,177.759,6.37207,-144.998,180
1569930977,260.97,12.1667,-5.8043,177.759,6.37207,-144.998,180
1569930977,260.97,12.1667,-5.8043,177.759,6.37207,-144.998,180
1569930977,260.97,12.1667,-5.8043,177.759,6.37207,-144.998,180
1569930977,260.97,12.1667,-5.8043,177.759,6.37207,-144.998,180
1569930977,260.97,12.1667,-5.8043,177.759,6.37207,-144.998,180
1569930977,260.97,12.1667,-5.8043,177.759,6.37207,-144.998,180
1569930977,260.97,12.1667,-5.8043,177.759,6.37207,-144.998,180
1569930977,260.97,12.1667,-5.8043,177.759,6.37207,-144.998,180
1569930977,260.97,12.1667,-5.8043,177.759,6.37207,-144.998,180
1569930977,260.97,12.1667,-5.8043,177.759,6.37207,-144.998,180
1569930977,260.97,12.1667,-5.8043,177.759,6.37207,-144.998,180
1569930977,260.97,12.1667,-5.8043,177.759,6.37207,-144.998,180
1569930977,260.97,12.1667,-5.8043,177.759,6.37207,-144.998,180
1569930977,260.97,12.1667,-5.8043,177.759,6.37207,-144.998,180
1569930977,260.97,12.1667,-5.8043,177.759,6.37207,-144.998,180
1569930977,260.97,12.1667,-5.8043,177.759,6.37207,-144.998,180
1569930977,260.97,12.1667,-5.8043,177.759,6.37207,-144.998,180
1569930977,260.97,12.1667,-5.8043,177.759,6.37207,-144.998,180
1569930977,260.97,12.1667,-5.8043,177.759,6.37207,-144.998,180
1569930977,260.97,12.1667,-5.8043,177.759,6.37207,-144.998,180
1569930977,260.97,12.1667,-5.8043,177.759,6.37207,-144.998,180
1569930977,260.97,12.1667,-5.8043,177.759,6.37207,-144.998,180
1569930977,260.97,12.1667,-5.8043,177.759,6.37207,-144.998,180
1569930977,260.97,12.1667,-5.8043,177.759,6.37207,-144.998,180
1569930977,260.97,12.1667,-5.8043,177.759,6.37207,-144.998,180
1569930977,260.97,12.1667,-5.8043,177.759,6.37207,-144.998,176
1569930977,260.97,12.1667,-5.8043,177.759,6.37207,-144.998,176
1569930977,260.97,12.1667,-5.8043,177.759,6.37207,-144.998,176
1569930977,260.97,12.1667,-5.8043,177.759,6.37207,-144.998,176
1569930977,260.97,12.1667,-5.8043,177.759,6.37207,-144.998,176
1569930977,260.97,12.1667,-5.8043,177.759,6.37207,-144.998,176
1569930977,260.97,12.1667,-5.8043,177.759,6.37207,-144.998,176
1569930977,260.97,12.1667,-5.8043,177.759,6.37207,-144.998,172
1569930977,260.97,12.1667,-5.8043,177.759,6.37207,-144.998,172
1569930977,260.97,12.1667,-5.8043,177.759,6.37207,-144.998,172
1569930977,260.97,12.1667,-5.8043,177.759,6.37207,-144.998,172
1569930977,260.97,12.1667,-5.8043,177.759,6.37207,-144.998,172
1569930977,260.97,12.1667,-5.8043,177.759,6.37207,-144.998,172
1569930977,260.97,12.1667,-5.8043,177.759,6.37207,-144.998,172
1569930977,260.97,12.1667,-5.8043,177.759,6.37207,-144.998,172
1569930977,260.97,12.1667,-5.8043,177.759,6.37207,-144.998,172
1569930977,260.97,12.1667,-5.8043,177.759,6.37207,-144.998,172
1569930977,260.97,12.1667,-5.8043,177.759,6.37207,-144.998,172
1569930977,260.97,12.1667,-5.8043,177.759,6.37207,-144.998,172
1569930977,260.97,12.1667,-5.8043,177.759,6.37207,-144.998,172
1569930977,260.97,12.1667,-5.8043,177.759,6.37207,-144.998,172
1569930977,260.97,12.1667,-5.8043,177.759,6.37207,-144.998,172
1569930977,260.97,12.1667,-5.8043,177.759,6.37207,-144.998,172
1569930977,260.97,12.1667,-5.8043,177.759,6.37207,-144.998,172
1569930977,260.97,12.1667,-5.8043,177.759,6.37207,-144.998,172
1569930977,260.97,12.1667,-5.8043,177.759,6.37207,-144.998,172
1569930977,260.97,12.1667,-5.8043,177.759,6.37207,-144.998,172
1569930977,260.97,12.1667,-5.8043,177.759,6.37207,-144.998,176
1569930977,260.97,12.1667,-5.8043,177.759,6.37207,-144.998,176
1569930977,260.97,12.1667,-5.8043,177.759,6.37207,-144.998,176
1569930977,260.97,12.1667,-5.8043,177.759,6.37207,-144.998,176
1569930977,260.97,12.1667,-5.8043,177.759,6.37207,-144.998,176
1569930977,260.97,12.1667,-5.8043,177.759,6.37207,-144.998,176
1569930977,260.97,12.1667,-5.8043,177.759,6.37207,-144.998,176
1569930977,260.97,12.1667,-5.8043,177.759,6.37207,-144.998,176
1569930977,260.97,12.1667,-5.8043,177.759,6.37207,-144.998,176
1569930977,260.97,12.1667,-5.8043,177.759,6.37207,-144.998,176
1569930977,260.97,12.1667,-5.8043,177.759,6.37207,-144.998,176
1569930977,260.97,12.1667,-5.8043,177.759,6.37207,-144.998,176
1569930977,260.97,12.1667,-5.8043,177.759,6.37207,-144.998,176
1569930977,260.97,12.1667,-5.8043,177.759,6.37207,-144.998,176
1569930977,260.97,12.1667,-5.8043,177.759,6.37207,-144.998,176
1569930977,260.97,12.1667,-5.8043,177.759,6.37207,-144.998,176
1569930977,260.97,12.1667,-5.8043,177.759,6.37207,-144.998,176
1569930977,260.97,12.1667,-5.8043,177.759,6.37207,-144.998,176
1569930977,260.97,12.1667,-5.8043,177.759,6.37207,-144.998,176
1569930977,260.97,12.1667,-5.8043,177.759,6.37207,-144.998,176
1569930977,260.97,12.1667,-5.8043,177.759,6.37207,-144.998,176
1569930977,260.97,12.1667,-5.8043,177.759,6.37207,-144.998,176
1569930977,260.97,12.1667,-5.8043,177.759,6.37207,-144.998,176
1569930977,260.97,12.1667,-5.8043,177.759,6.37207,-144.998,176
1569930977,260.97,12.1667,-5.8043,177.759,6.37207,-144.998,176
1569930977,260.97,12.1667,-5.8043,177.759,6.37207,-144.998,176
1569930977,260.97,12.1667,-5.8043,177.759,6.37207,-144.998,176
1569930977,260.97,12.1667,-5.8043,177.759,6.37207,-144.998,176
1569930977,260.97,12.1667,-5.8043,177.759,6.3501,-144.998,176
1569930977,260.97,12.1667,-5.8043,177.759,6.3501,-144.998,176
1569930978,260.97,12.1667,-5.8043,177.759,6.3501,-144.998,176
1569930978,260.858,12.1667,-5.8043,177.759,6.3501,-144.998,176
1569930978,260.858,12.1667,-5.8043,177.759,6.3501,-144.998,176
1569930978,260.858,12.1667,-5.8043,177.759,6.3501,-144.998,176
1569930978,260.858,12.1667,-5.8043,177.759,6.3501,-144.998,176
1569930978,260.858,12.1667,-5.8043,177.759,6.3501,-144.998,176
1569930978,260.858,12.1667,-5.8043,177.759,6.3501,-144.998,176
1569930978,260.858,12.1667,-5.8043,177.759,6.3501,-144.998,176
1569930978,260.858,12.1667,-5.8043,177.759,6.3501,-144.998,176
1569930978,260.858,12.1667,-5.8043,177.759,6.37207,-144.998,176
1569930978,260.858,12.1667,-5.8043,177.759,6.37207,-144.998,176
1569930978,260.858,12.1667,-5.8043,177.759,6.37207,-144.998,176
1569930978,260.858,12.1667,-5.8043,177.759,6.37207,-144.998,176
1569930978,260.97,12.1667,-5.8043,177.759,6.37207,-144.998,176
1569930978,260.97,12.1667,-5.8043,177.759,6.37207,-144.998,176
1569930978,260.97,12.1667,-5.8043,177.759,6.37207,-144.998,176
1569930978,260.97,12.1667,-5.8043,177.759,6.37207,-144.998,176
1569930978,260.97,12.1667,-5.8043,177.759,6.37207,-144.998,176
1569930978,260.97,12.1667,-5.8043,177.759,6.37207,-144.998,176
1569930978,260.97,12.1667,-5.8043,177.759,6.37207,-144.998,176
1569930978,260.97,12.1667,-5.8043,177.759,6.37207,-144.998,176
1569930978,260.97,12.1667,-5.8043,177.759,6.37207,-144.998,176
1569930978,260.97,12.1667,-5.8043,177.759,6.37207,-144.998,176
1569930978,260.97,12.1667,-5.8043,177.759,6.37207,-144.998,176
1569930978,260.97,12.1667,-5.8043,177.759,6.37207,-144.998,180
1569930978,260.97,12.1667,-5.8043,177.759,6.37207,-144.998,180
1569930978,260.97,12.1667,-5.8043,177.759,6.37207,-144.998,180
1569930978,260.97,12.1667,-5.8043,177.759,6.37207,-144.998,180
1569930978,260.97,12.1667,-5.8043,177.759,6.37207,-144.998,180
1569930978,260.97,12.1667,-5.8043,177.759,6.37207,-144.998,180
1569930978,260.97,12.1667,-5.8043,177.759,6.37207,-144.998,180
1569930978,260.97,12.1667,-5.8043,177.759,6.37207,-144.998,180
1569930978,260.97,12.1667,-5.8043,177.759,6.37207,-144.998,176
1569930978,260.97,12.1667,-5.8043,177.759,6.37207,-144.998,176
1569930978,260.97,12.1667,-5.8043,177.759,6.37207,-144.998,176
1569930978,260.97,12.1667,-5.8043,177.759,6.37207,-144.998,176
1569930978,260.97,12.1667,-5.8043,177.759,6.37207,-144.998,176
1569930978,260.97,12.1667,-5.8043,177.759,6.37207,-144.998,176
1569930978,260.97,12.1667,-5.8043,177.759,6.37207,-144.998,176
1569930978,260.97,12.1667,-5.8043,177.759,6.37207,-144.998,176
1569930978,260.97,12.1667,-5.8043,177.759,6.37207,-144.998,176
1569930978,260.97,12.1667,-5.8043,177.759,6.37207,-144.998,176
1569930978,260.97,12.1667,-5.8043,177.759,6.37207,-144.998,176
1569930978,260.858,12.1667,-5.8043,177.759,6.37207,-144.998,176
1569930978,260.858,12.1667,-5.8043,177.759,6.37207,-144.998,176
1569930978,260.858,12.1667,-5.8043,177.759,6.37207,-144.998,176
1569930978,260.858,12.1667,-5.8043,177.759,6.37207,-144.998,176
1569930978,260.858,12.1667,-5.8043,177.759,6.37207,-144.998,176
1569930978,260.858,12.1667,-5.8043,177.759,6.37207,-144.998,176
1569930978,260.858,12.1667,-5.8043,177.759,6.37207,-144.998,176
1569930978,260.858,12.1667,-5.8043,177.759,6.37207,-144.998,176
1569930978,260.858,12.1667,-5.8043,177.759,6.37207,-144.998,176
1569930978,260.858,12.1667,-5.8043,177.759,6.37207,-144.998,176
1569930978,260.858,12.1667,-5.8043,177.759,6.37207,-144.998,176
1569930978,260.858,12.1667,-5.8043,177.759,6.37207,-144.998,176
1569930978,260.858,12.1667,-5.8043,177.759,6.37207,-144.998,176
1569930978,260.858,12.1667,-5.8043,177.759,6.37207,-144.998,176
1569930978,260.97,12.1667,-5.8043,177.759,6.37207,-144.998,176
1569930978,260.97,12.1667,-5.8043,177.759,6.37207,-144.998,176
1569930978,260.97,12.1667,-5.8043,177.759,6.37207,-144.998,176
1569930978,260.97,12.1667,-5.8043,177.759,6.37207,-144.998,176
1569930978,260.97,12.1667,-5.8043,177.759,6.37207,-144.998,176
1569930978,260.97,12.1667,-5.8043,177.759,6.37207,-144.998,176
1569930978,260.97,12.1667,-5.8043,177.759,6.37207,-144.998,176
1569930978,260.97,12.1667,-5.8043,177.759,6.37207,-144.998,176
1569930978,260.97,12.1667,-5.8043,177.759,6.37207,-144.998,176
1569930978,260.97,12.1667,-5.8043,177.759,6.37207,-144.998,176
1569930978,260.97,12.1667,-5.8043,177.759,6.37207,-144.998,176
1569930978,260.97,12.1667,-5.8043,177.759,6.37207,-144.998,176
1569930978,260.97,12.1667,-5.8043,177.759,6.37207,-144.998,176
1569930978,260.97,12.1667,-5.8043,177.759,6.37207,-144.998,176
1569930978,260.97,12.1667,-5.8043,177.759,6.37207,-144.998,176
1569930978,260.97,12.1667,-5.8043,177.759,6.37207,-144.998,176
1569930978,260.97,12.1667,-5.8043,177.759,6.37207,-144.998,176
1569930978,260.97,12.1667,-5.8043,177.759,6.37207,-144.998,176
1569930978,260.97,12.1667,-5.8043,177.759,6.37207,-144.998,176
1569930978,260.97,12.1667,-5.8043,177.759,6.37207,-144.998,176
1569930978,260.97,12.1667,-5.8043,177.759,6.37207,-144.998,176
1569930978,260.97,12.1667,-5.8043,177.759,6.37207,-144.998,176
1569930978,260.97,12.1667,-5.8043,177.759,6.37207,-144.998,176
1569930978,260.97,12.1667,-5.8043,177.759,6.37207,-144.998,176
1569930978,260.97,12.1667,-5.8043,177.759,6.37207,-144.998,176
1569930978,260.97,12.1667,-5.8043,177.759,6.37207,-144.998,176
1569930978,260.97,12.1667,-5.8043,177.759,6.37207,-144.998,176
1569930978,260.97,12.1667,-5.8043,177.759,6.37207,-144.998,176
1569930978,260.97,12.1667,-5.8043,177.759,6.37207,-144.998,172
1569930978,260.97,12.1667,-5.8043,177.759,6.37207,-144.998,172
1569930978,260.97,12.1667,-5.8043,177.759,6.37207,-144.998,172
1569930978,260.97,12.1667,-5.8043,177.759,6.37207,-144.998,172
1569930978,260.97,12.1667,-5.8043,177.759,6.37207,-144.998,172
1569930978,260.97,12.1667,-5.8043,177.759,6.37207,-144.998,172
1569930978,260.97,12.1667,-5.8043,177.759,6.37207,-144.998,172
1569930978,260.97,12.1667,-5.8043,177.759,6.37207,-144.998,176
1569930978,260.97,12.1667,-5.8043,177.759,6.37207,-144.998,176
1569930978,260.97,12.1667,-5.8043,177.759,6.37207,-144.998,176
1569930978,260.97,12.1667,-5.8043,177.759,6.37207,-144.998,176
1569930978,260.97,12.1667,-5.8043,177.759,6.37207,-144.998,176
1569930978,260.97,12.1667,-5.8043,177.759,6.37207,-144.998,176
1569930978,260.97,12.1667,-5.8043,177.759,6.37207,-144.998,176
1569930978,260.97,12.1667,-5.8043,177.759,6.37207,-144.998,176
1569930979,260.97,12.1667,-5.8043,177.759,6.37207,-144.998,176
1569930979,260.97,12.1667,-5.8043,177.759,6.37207,-144.998,176
1569930979,260.97,12.1667,-5.8043,177.759,6.37207,-144.998,176
1569930979,260.97,12.1667,-5.8043,177.759,6.37207,-144.998,176
1569930979,260.97,12.1667,-5.8043,177.759,6.37207,-144.998,180
1569930979,260.97,12.1667,-5.8043,177.759,6.37207,-144.998,180
1569930979,260.97,12.1667,-5.8043,177.759,6.37207,-144.998,180
1569930979,260.97,12.1667,-5.8043,177.759,6.37207,-144.998,180
1569930979,260.97,12.1667,-5.8043,177.759,6.37207,-144.998,180
1569930979,260.97,12.1667,-5.8043,177.781,6.37207,-144.998,180
1569930979,260.97,12.1667,-5.8043,177.781,6.37207,-144.998,180
1569930979,260.97,12.1667,-5.8043,177.781,6.37207,-144.998,180
1569930979,260.97,12.1667,-5.8043,177.781,6.37207,-144.998,180
1569930979,260.97,12.1667,-5.8043,177.781,6.37207,-144.998,180
1569930979,260.97,12.1667,-5.8043,177.781,6.37207,-144.998,180
1569930979,260.97,12.1667,-5.8043,177.781,6.37207,-144.998,180
1569930979,260.97,12.1667,-5.8043,177.781,6.37207,-144.998,180
1569930979,260.97,12.1667,-5.8043,177.781,6.37207,-144.998,180
1569930979,260.97,12.1667,-5.8043,177.781,6.37207,-144.998,180
1569930979,260.97,12.1667,-5.8043,177.781,6.37207,-144.998,180
1569930979,260.97,12.1667,-5.8043,177.781,6.37207,-144.998,180
1569930979,260.97,12.1667,-5.8043,177.759,6.37207,-144.998,180
1569930979,260.97,12.1667,-5.8043,177.759,6.37207,-144.998,180
1569930979,260.97,12.1667,-5.8043,177.759,6.37207,-144.998,180
1569930979,260.97,12.1667,-5.8043,177.759,6.37207,-144.998,180
1569930979,260.97,12.1667,-5.8043,177.759,6.37207,-144.998,180
1569930979,260.97,12.1667,-5.8043,177.759,6.37207,-144.998,180
1569930979,260.97,12.1667,-5.8043,177.759,6.37207,-144.998,180
1569930979,260.97,12.1667,-5.8043,177.759,6.37207,-144.998,180
1569930979,260.97,12.1667,-5.8043,177.759,6.37207,-144.998,180
1569930979,260.97,12.1667,-5.8043,177.759,6.37207,-144.998,180
1569930979,260.97,12.1667,-5.8043,177.759,6.37207,-144.998,180
1569930979,260.97,12.1667,-5.8043,177.759,6.37207,-144.998,180
1569930979,260.97,12.1667,-5.8043,177.759,6.37207,-144.998,180
1569930979,260.97,12.1667,-5.8043,177.759,6.37207,-144.998,180
1569930979,260.97,12.1667,-5.8043,177.759,6.37207,-144.998,180
1569930979,260.97,12.1667,-5.8043,177.759,6.37207,-144.998,180
1569930979,260.97,12.1667,-5.8043,177.759,6.37207,-144.998,180
1569930979,260.97,12.1667,-5.8043,177.759,6.37207,-144.998,180
1569930979,260.97,12.1667,-5.8043,177.759,6.37207,-144.998,180
1569930979,260.97,12.1667,-5.8043,177.759,6.37207,-144.998,180
1569930979,260.97,12.1667,-5.8043,177.759,6.37207,-144.998,180
1569930979,260.97,12.1667,-5.8043,177.759,6.37207,-144.998,180
1569930979,260.97,12.1667,-5.8043,177.759,6.37207,-144.998,180
1569930979,260.97,12.1667,-5.8043,177.759,6.37207,-144.998,180
1569930979,260.97,12.1667,-5.8043,177.759,6.37207,-144.998,180
1569930979,260.97,12.1667,-5.8043,177.759,6.37207,-144.998,180
1569930979,260.97,12.1667,-5.8043,177.759,6.37207,-144.998,180
1569930979,260.97,12.1667,-5.8043,177.759,6.37207,-144.998,180
1569930979,260.97,12.1667,-5.8043,177.759,6.37207,-144.998,180
1569930979,260.97,12.1667,-5.8043,177.759,6.37207,-144.998,180
1569930979,260.97,12.1667,-5.8043,177.759,6.37207,-144.998,180
1569930979,260.97,12.1667,-5.8043,177.759,6.37207,-144.998,180
1569930979,260.97,12.1667,-5.8043,177.759,6.37207,-144.998,180
1569930979,260.97,12.1667,-5.8043,177.759,6.37207,-144.998,180
1569930979,260.97,12.1667,-5.8043,177.759,6.37207,-144.998,180
1569930979,260.97,12.1667,-5.8043,177.759,6.37207,-144.998,180
1569930979,260.97,12.1667,-5.8043,177.759,6.37207,-144.998,180
1569930979,260.97,12.1667,-5.8043,177.759,6.37207,-144.998,180
1569930979,260.97,12.1667,-5.8043,177.759,6.37207,-144.998,180
1569930979,260.97,12.1667,-5.8043,177.759,6.37207,-144.998,180
1569930979,260.97,12.1667,-5.8043,177.759,6.37207,-144.998,180
1569930979,260.97,12.1667,-5.8043,177.759,6.37207,-144.998,180
1569930979,260.97,12.1667,-5.8043,177.759,6.37207,-144.998,180
1569930979,260.97,12.1667,-5.8043,177.759,6.37207,-144.998,180
1569930979,260.97,12.1667,-5.8043,177.759,6.37207,-144.998,176
1569930979,260.97,12.1667,-5.8043,177.759,6.37207,-144.998,176
1569930979,260.97,12.1667,-5.8043,177.759,6.37207,-144.998,176
1569930979,260.97,12.1667,-5.8043,177.759,6.37207,-144.998,176
1569930979,260.97,12.1667,-5.8043,177.759,6.37207,-144.998,176
1569930979,260.97,12.1667,-5.8043,177.759,6.37207,-144.998,176
1569930979,260.97,12.1667,-5.8043,177.759,6.37207,-144.998,176
1569930979,260.97,12.1667,-5.8043,177.759,6.37207,-144.998,176
1569930979,260.97,12.1667,-5.8043,177.759,6.37207,-144.998,176
1569930979,260.97,12.1667,-5.8043,177.759,6.37207,-144.998,176
1569930979,260.97,12.1667,-5.8043,177.759,6.37207,-144.998,176
1569930979,260.97,12.1667,-5.8043,177.759,6.37207,-144.998,176
1569930979,260.97,12.1667,-5.8043,177.759,6.37207,-144.998,172
1569930979,260.97,12.1667,-5.8043,177.759,6.37207,-144.998,172
1569930979,260.97,12.1667,-5.8043,177.759,6.37207,-144.998,172
1569930979,260.858,12.1667,-5.8043,177.759,6.37207,-144.998,172
1569930979,260.858,12.1667,-5.8043,177.759,6.37207,-144.998,172
1569930979,260.858,12.1667,-5.8043,177.759,6.37207,-144.998,172
1569930979,260.858,12.1667,-5.8043,177.759,6.37207,-144.998,172
1569930979,260.858,12.1667,-5.8043,177.759,6.37207,-144.998,172
1569930979,260.858,12.1667,-5.8043,177.759,6.37207,-144.998,172
1569930979,260.858,12.1667,-5.8043,177.759,6.37207,-144.998,172
1569930979,260.858,12.1667,-5.8043,177.759,6.37207,-144.998,172
1569930979,260.858,12.1667,-5.8043,177.759,6.37207,-144.998,172
1569930979,260.858,12.1667,-5.8043,177.759,6.37207,-144.998,172
1569930979,260.858,12.1667,-5.8043,177.781,6.37207,-144.998,172
1569930979,260.858,12.1667,-5.8043,177.781,6.37207,-144.998,172
1569930979,260.858,12.1667,-5.8043,177.781,6.37207,-144.998,172
1569930979,260.858,12.1667,-5.8043,177.781,6.37207,-144.998,172
1569930979,260.858,12.1667,-5.8043,177.781,6.37207,-144.998,172
1569930979,260.858,12.1667,-5.8043,177.781,6.37207,-144.998,172
1569930979,260.858,12.1667,-5.8043,177.781,6.37207,-144.998,172
1569930979,260.858,12.1667,-5.8043,177.781,6.37207,-144.998,172
1569930979,260.858,12.1667,-5.8043,177.781,6.37207,-144.998,172
1569930979,260.97,12.1667,-5.8043,177.781,6.37207,-144.998,172
1569930980,260.97,12.1667,-5.8043,177.781,6.37207,-144.998,172
1569930980,260.97,12.1667,-5.8043,177.781,6.37207,-144.998,172
1569930980,260.97,12.1667,-5.8043,177.781,6.37207,-144.998,172
1569930980,260.97,12.1667,-5.8043,177.781,6.37207,-144.998,172
1569930980,260.97,12.1667,-5.8043,177.781,6.37207,-144.998,172
1569930980,260.97,12.1667,-5.8043,177.781,6.37207,-144.998,172
1569930980,260.97,12.1667,-5.8043,177.781,6.37207,-144.998,172
1569930980,260.97,12.1667,-5.8043,177.781,6.37207,-144.998,172
1569930980,260.97,12.1667,-5.8043,177.781,6.37207,-144.998,172
1569930980,260.97,12.1667,-5.8043,177.781,6.37207,-144.998,172
1569930980,260.97,12.1667,-5.8043,177.781,6.37207,-144.998,172
1569930980,260.97,12.1667,-5.8043,177.781,6.37207,-144.998,172
1569930980,260.97,12.1667,-5.8043,177.781,6.3501,-144.998,172
1569930980,260.97,12.1667,-5.8043,177.781,6.3501,-144.998,172
1569930980,260.97,12.1667,-5.8043,177.781,6.3501,-144.998,172
1569930980,260.97,12.1667,-5.8043,177.781,6.3501,-144.998,172
1569930980,260.97,12.1667,-5.8043,177.781,6.3501,-144.998,172
1569930980,260.97,12.1667,-5.8043,177.781,6.37207,-144.998,172
1569930980,260.97,12.1667,-5.8043,177.781,6.37207,-144.998,172
1569930980,260.97,12.1667,-5.8043,177.781,6.37207,-144.998,172
1569930980,260.97,12.1667,-5.8043,177.781,6.37207,-144.998,172
1569930980,260.97,12.1667,-5.8043,177.781,6.37207,-144.998,172
1569930980,260.97,12.1667,-5.8043,177.781,6.37207,-144.998,172
1569930980,260.97,12.1667,-5.8043,177.781,6.37207,-144.998,172
1569930980,260.97,12.1667,-5.8043,177.781,6.37207,-144.998,172
1569930980,260.97,12.1667,-5.8043,177.781,6.37207,-144.998,172
1569930980,260.97,12.1667,-5.8043,177.781,6.37207,-144.998,172
1569930980,260.97,12.1667,-5.8043,177.781,6.37207,-144.998,172
1569930980,260.97,12.1667,-5.8043,177.781,6.37207,-144.998,172
1569930980,260.97,12.1667,-5.8043,177.781,6.37207,-144.998,172
1569930980,260.97,12.1667,-5.8043,177.781,6.37207,-144.998,172
1569930980,260.97,12.1667,-5.8043,177.781,6.37207,-144.998,172
1569930980,260.97,12.1667,-5.8043,177.781,6.37207,-144.998,172
1569930980,260.97,12.1667,-5.8043,177.781,6.37207,-144.998,172
1569930980,260.97,12.1667,-5.8043,177.781,6.37207,-144.998,172
1569930980,260.858,12.1667,-5.8043,177.781,6.37207,-144.998,172
1569930980,260.858,12.1667,-5.8043,177.781,6.37207,-144.998,172
1569930980,260.858,12.1667,-5.8043,177.781,6.37207,-144.998,172
1569930980,260.858,12.1667,-5.8043,177.781,6.37207,-144.998,172
1569930980,260.858,12.1667,-5.8043,177.781,6.37207,-144.998,172
1569930980,260.97,12.1667,-5.8043,177.781,6.37207,-144.998,168
1569930980,260.97,12.1667,-5.8043,177.781,6.37207,-144.998,168
1569930980,260.97,12.1667,-5.8043,177.781,6.37207,-144.998,168
1569930980,260.97,12.1667,-5.8043,177.781,6.37207,-144.998,168
1569930980,260.97,12.1667,-5.8043,177.759,6.37207,-144.998,168
1569930980,260.97,12.1667,-5.8043,177.759,6.37207,-144.998,168
1569930980,260.97,12.1667,-5.8043,177.781,6.37207,-144.998,168
1569930980,260.97,12.1667,-5.8043,177.781,6.37207,-144.998,168
1569930980,260.97,12.1667,-5.8043,177.781,6.37207,-144.998,168
1569930980,260.97,12.1667,-5.8043,177.781,6.37207,-144.998,168
1569930980,260.97,12.1667,-5.8043,177.781,6.37207,-144.998,168
1569930980,260.97,12.1667,-5.8043,177.781,6.37207,-144.998,168
1569930980,260.97,12.1667,-5.8043,177.781,6.37207,-144.998,168
1569930980,260.97,12.1667,-5.8043,177.781,6.37207,-144.998,168
1569930980,260.97,12.1667,-5.8043,177.759,6.37207,-144.998,168
1569930980,260.97,12.1667,-5.8043,177.759,6.37207,-144.998,168
1569930980,260.97,12.1667,-5.8043,177.759,6.37207,-144.998,168
1569930980,260.97,12.1667,-5.8043,177.759,6.37207,-144.998,168
1569930980,260.97,12.1667,-5.8043,177.759,6.37207,-144.998,168
1569930980,260.97,12.1667,-5.8043,177.759,6.37207,-144.998,168
1569930980,260.97,12.1667,-5.8043,177.759,6.37207,-144.998,168
1569930980,260.97,12.1667,-5.8043,177.759,6.37207,-144.998,172
1569930980,260.97,12.1667,-5.8043,177.759,6.37207,-144.998,172
1569930980,260.97,12.1667,-5.8043,177.759,6.37207,-144.998,172
1569930980,260.97,12.1667,-5.8043,177.759,6.37207,-144.998,172
1569930980,260.97,12.1667,-5.8043,177.759,6.37207,-144.998,172
1569930980,260.97,12.1667,-5.8043,177.759,6.37207,-144.998,172
1569930980,260.97,12.1667,-5.8043,177.759,6.37207,-144.998,172
1569930980,260.97,12.1667,-5.8043,177.759,6.37207,-144.998,172
1569930980,260.97,12.1667,-5.8043,177.759,6.37207,-144.998,172
1569930980,260.97,12.1667,-5.8043,177.759,6.37207,-144.998,172
1569930980,260.97,12.1667,-5.8043,177.759,6.37207,-144.998,172
1569930980,260.97,12.1667,-5.8043,177.759,6.37207,-144.998,172
1569930980,260.97,12.1667,-5.8043,177.759,6.37207,-144.998,172
1569930980,260.97,12.1667,-5.8043,177.759,6.37207,-144.998,172
1569930980,260.97,12.1667,-5.8043,177.759,6.37207,-144.998,172
1569930980,260.97,12.1667,-5.8043,177.759,6.37207,-144.998,172
1569930980,260.97,12.1667,-5.8043,177.759,6.37207,-144.998,172
1569930980,260.97,12.1667,-5.8043,177.759,6.37207,-144.998,168
1569930980,260.97,12.1667,-5.8043,177.759,6.37207,-144.998,168
1569930980,260.97,12.1667,-5.8043,177.759,6.37207,-144.998,172
1569930980,260.97,12.1667,-5.8043,177.759,6.37207,-144.998,172
1569930980,260.97,12.1667,-5.8043,177.759,6.37207,-144.998,172
1569930980,260.97,12.1667,-5.8043,177.759,6.37207,-144.998,172
1569930980,260.97,12.1667,-5.8043,177.759,6.37207,-144.998,172
1569930980,260.97,12.1667,-5.8043,177.759,6.37207,-144.998,172
1569930980,260.97,12.1667,-5.8043,177.759,6.37207,-144.998,172
1569930980,260.97,12.1667,-5.8043,177.759,6.37207,-144.998,172
1569930980,260.97,12.1667,-5.8043,177.759,6.37207,-144.998,172
1569930980,260.97,12.1667,-5.8043,177.759,6.37207,-144.998,172
1569930980,260.97,12.1667,-5.8043,177.759,6.37207,-144.998,172
1569930980,260.97,12.1667,-5.8043,177.759,6.37207,-144.998,168
1569930980,260.97,12.1667,-5.8043,177.759,6.37207,-144.998,168
1569930980,260.97,12.1667,-5.8043,177.759,6.37207,-144.998,168
1569930980,260.97,12.1667,-5.8043,177.759,6.37207,-144.998,168
1569930980,260.97,12.1667,-5.8043,177.759,6.37207,-144.998,168
1569930984,284.857,-11.8318,-3.34863,178,7.03125,-145.063,508
1569930984,284.857,-11.8318,-3.34863,178,7.03125,-145.063,508
1569930984,284.857,-11.8318,-3.34863,178,7.03125,-145.063,508
1569930984,284.857,-11.8318,-3.34863,178,7.03125,-145.063,508
1569930984,284.857,-11.8318,-3.34863,178,7.03125,-145.063,508
1569930984,284.857,-11.8318,-3.34863,178,7.03125,-145.063,508
1569930984,284.857,-11.8318,-3.34863,178,7.03125,-145.063,508
1569930984,284.857,-11.8318,-3.34863,178,7.03125,-145.063,508
1569930984,284.857,-11.8318,-3.34863,178,7.03125,-145.063,508
1569930984,284.857,-11.8318,-3.34863,178,7.03125,-145.063,508
1569930984,284.857,-11.8318,-3.34863,178,7.03125,-145.063,508
1569930984,284.857,-11.8318,-3.34863,178,7.03125,-145.063,508
1569930984,284.857,-11.8318,-3.34863,178,7.03125,-145.063,508
1569930984,284.857,-11.8318,-3.34863,178,7.03125,-145.063,508
1569930984,284.857,-11.8318,-3.34863,178,7.03125,-145.063,508
1569930984,284.857,-11.8318,-3.34863,178,7.03125,-145.063,508
1569930984,284.857,-11.8318,-3.34863,178,7.03125,-145.063,508
1569930984,284.857,-11.8318,-3.34863,178,7.03125,-145.063,508
1569930984,284.857,-11.8318,-3.34863,178,7.03125,-145.063,508
1569930984,284.857,-11.8318,-3.34863,178,7.03125,-145.063,508
1569930984,284.857,-11.8318,-3.34863,178,7.03125,-145.063,508
1569930984,284.857,-11.8318,-3.34863,178,7.03125,-145.063,508
1569930984,284.857,-11.8318,-3.34863,178,7.03125,-145.063,508
1569930984,284.857,-11.8318,-3.34863,178,7.03125,-145.063,508
1569930984,284.857,-11.8318,-3.34863,178,7.03125,-145.063,508
1569930984,284.857,-11.8318,-3.34863,178,7.03125,-145.063,508
1569930984,284.857,-11.8318,-3.34863,178,7.03125,-145.063,508
1569930984,284.857,-11.8318,-3.34863,178,7.03125,-145.063,508
1569930984,284.857,-11.8318,-3.34863,178,7.03125,-145.063,508
1569930984,284.857,-11.8318,-3.34863,178,7.03125,-145.063,508
1569930984,284.857,-11.8318,-3.34863,178,7.03125,-145.063,508
1569930984,284.857,-11.8318,-3.34863,178,7.03125,-145.063,508
1569930984,284.857,-11.8318,-3.34863,178,7.03125,-145.063,508
1569930984,284.857,-11.8318,-3.34863,178,7.03125,-145.063,508
1569930984,284.857,-11.8318,-3.34863,178,7.03125,-145.063,508
1569930984,284.857,-11.8318,-3.34863,178,7.03125,-145.063,508
1569930984,284.857,-11.8318,-3.34863,178,7.03125,-145.063,508
1569930984,284.857,-11.8318,-3.34863,178,7.03125,-145.063,508
1569930984,284.857,-11.8318,-3.34863,178,7.03125,-145.063,508
1569930984,284.857,-11.8318,-3.34863,178,7.03125,-145.063,508
1569930984,284.857,-11.8318,-3.34863,178,7.03125,-145.063,508
1569930984,284.857,-11.8318,-3.34863,178,7.03125,-145.063,508
1569930984,284.857,-11.8318,-3.34863,178,7.03125,-145.063,508
1569930984,284.857,-11.8318,-3.34863,178,7.03125,-145.063,508
1569930984,284.857,-11.8318,-3.34863,178,7.03125,-145.063,508
1569930984,284.857,-11.8318,-3.34863,178,7.03125,-145.063,508
1569930984,284.857,-11.8318,-3.34863,178,7.03125,-145.063,508
1569930984,284.857,-11.8318,-3.34863,178,7.03125,-145.063,508
1569930984,284.857,-11.8318,-3.34863,178,7.03125,-145.063,508
1569930984,284.857,-11.8318,-3.34863,178,7.03125,-145.063,508
1569930984,284.857,-11.8318,-3.34863,178,7.03125,-145.063,512
1569930984,284.857,-11.8318,-3.34863,178,7.03125,-145.063,512
1569930984,284.857,-11.8318,-3.34863,178.022,7.03125,-145.063,512
1569930984,284.857,-11.8318,-3.34863,178.022,7.03125,-145.063,512
1569930984,284.857,-11.8318,-3.34863,178.022,7.03125,-145.063,512
1569930984,284.857,-11.8318,-3.34863,178.022,7.03125,-145.063,512
1569930984,284.857,-11.8318,-3.34863,178.022,7.03125,-145.063,512
1569930984,284.857,-11.8318,-3.34863,178.022,7.03125,-145.063,512
1569930984,284.857,-11.8318,-3.34863,178.022,7.03125,-145.063,512
1569930984,284.857,-11.8318,-3.34863,178.022,7.03125,-145.063,512
1569930984,284.857,-11.8318,-3.34863,178.022,7.03125,-145.063,512
1569930984,284.857,-11.8318,-3.34863,178.022,7.03125,-145.042,512
1569930984,284.857,-11.8318,-3.34863,178.022,7.03125,-145.042,512
1569930984,284.857,-11.8318,-3.34863,178.022,7.03125,-145.042,512
1569930984,284.857,-11.8318,-3.34863,178.022,7.03125,-145.042,512
1569930984,284.857,-11.8318,-3.34863,178.022,7.03125,-145.042,512
1569930984,284.857,-11.8318,-3.34863,178.022,7.03125,-145.042,512
1569930984,284.857,-11.8318,-3.34863,178,7.03125,-145.042,512
1569930984,284.857,-11.8318,-3.34863,178,7.03125,-145.042,512
1569930985,284.857,-11.8318,-3.34863,178,7.03125,-145.042,512
1569930985,284.857,-11.8318,-3.34863,178,7.03125,-145.042,512
1569930985,284.857,-11.8318,-3.34863,178,7.03125,-145.042,512
1569930985,284.857,-11.8318,-3.34863,178,7.03125,-145.042,512
1569930985,284.857,-11.8318,-3.34863,178,7.03125,-145.042,512
1569930985,284.857,-11.8318,-3.34863,178,7.03125,-145.042,512
1569930985,284.857,-11.8318,-3.34863,178,7.03125,-145.042,512
1569930985,284.857,-11.8318,-3.34863,178,7.03125,-145.042,512
1569930985,284.857,-11.8318,-3.34863,178,7.03125,-145.042,512
1569930985,284.857,-11.8318,-3.34863,178,7.03125,-145.042,512
1569930985,284.857,-11.8318,-3.34863,178,7.03125,-145.042,512
1569930985,284.857,-11.8318,-3.34863,178,7.03125,-145.042,512
1569930985,284.857,-11.8318,-3.34863,178,7.03125,-145.063,512
1569930985,284.857,-11.8318,-3.34863,178,7.03125,-145.063,512
1569930985,284.857,-11.8318,-3.34863,178,7.03125,-145.063,512
1569930985,284.857,-11.8318,-3.34863,178,7.03125,-145.063,512
1569930985,284.857,-11.8318,-3.34863,178,7.03125,-145.063,512
1569930985,284.857,-11.8318,-3.34863,178,7.03125,-145.063,512
1569930985,284.857,-11.8318,-3.34863,178,7.03125,-145.063,512
1569930985,284.857,-11.8318,-3.34863,178,7.03125,-145.063,512
1569930985,284.857,-11.8318,-3.34863,178,7.03125,-145.063,512
1569930985,284.857,-11.8318,-3.34863,178,7.03125,-145.063,512
1569930985,284.857,-11.8318,-3.34863,178,7.03125,-145.063,512
1569930985,284.857,-11.8318,-3.34863,178,7.03125,-145.063,512
1569930985,284.857,-11.8318,-3.34863,178,7.03125,-145.063,512
1569930985,284.857,-11.8318,-3.34863,178,7.03125,-145.063,512
1569930985,284.857,-11.8318,-3.34863,178,7.03125,-145.063,512
1569930985,284.857,-11.8318,-3.34863,178,7.03125,-145.063,512
1569930985,284.857,-11.8318,-3.34863,178,7.03125,-145.063,512
1569930985,284.857,-11.8318,-3.34863,178,7.03125,-145.063,512
1569930985,284.857,-11.8318,-3.34863,178,7.03125,-145.063,512
1569930985,284.857,-11.8318,-3.34863,178,7.03125,-145.063,512
1569930985,284.857,-11.8318,-3.34863,178,7.03125,-145.063,512
1569930985,284.857,-11.8318,-3.34863,178,7.03125,-145.063,508
1569930985,284.857,-11.8318,-3.34863,178,7.03125,-145.063,508
1569930985,284.857,-11.8318,-3.34863,178,7.03125,-145.063,508
1569930985,284.857,-11.8318,-3.34863,178,7.03125,-145.063,508
1569930985,284.857,-11.8318,-3.34863,178,7.03125,-145.063,508
1569930985,284.857,-11.8318,-3.34863,178,7.03125,-145.063,508
1569930985,284.857,-11.8318,-3.34863,178,7.03125,-145.063,508
1569930985,284.857,-11.8318,-3.34863,178,7.03125,-145.063,508
1569930985,284.857,-11.8318,-3.34863,178,7.03125,-145.063,508
1569930985,284.857,-11.8318,-3.34863,178,7.03125,-145.063,508
1569930985,284.857,-11.8318,-3.34863,178,7.03125,-145.063,508
1569930985,284.857,-11.8318,-3.34863,178,7.03125,-145.063,512
1569930985,284.857,-11.8318,-3.34863,178,7.03125,-145.063,512
1569930985,284.857,-11.8318,-3.34863,178,7.03125,-145.063,512
1569930985,284.857,-11.8318,-3.34863,178,7.03125,-145.063,512
1569930985,284.857,-11.8318,-3.34863,178,7.03125,-145.063,512
1569930985,284.857,-11.8318,-3.34863,178,7.03125,-145.063,512
1569930985,284.857,-11.8318,-3.34863,178,7.03125,-145.063,512
1569930985,284.857,-11.8318,-3.34863,178.022,7.03125,-145.063,512
1569930985,284.857,-11.8318,-3.34863,178.022,7.03125,-145.063,512
1569930985,284.857,-11.8318,-3.34863,178.022,7.03125,-145.063,512
1569930985,284.857,-11.8318,-3.34863,178.022,7.03125,-145.063,512
1569930985,284.857,-11.8318,-3.34863,178.022,7.03125,-145.063,512
1569930985,284.857,-11.8318,-3.34863,178.022,7.03125,-145.063,512
1569930985,284.857,-11.8318,-3.34863,178.022,7.03125,-145.063,512
1569930985,284.857,-11.8318,-3.34863,178.022,7.03125,-145.063,512
1569930985,284.857,-11.8318,-3.34863,178.022,7.03125,-145.063,512
1569930985,284.857,-11.8318,-3.34863,178.022,7.03125,-145.063,512
1569930985,284.857,-11.8318,-3.34863,178.022,7.03125,-145.063,512
1569930985,284.857,-11.8318,-3.34863,178.022,7.03125,-145.063,512
1569930985,284.857,-11.8318,-3.34863,178.022,7.03125,-145.063,512
1569930985,284.857,-11.8318,-3.34863,178.022,7.03125,-145.063,512
1569930985,284.857,-11.8318,-3.34863,178.022,7.03125,-145.063,512
1569930985,284.857,-11.8318,-3.34863,178.022,7.03125,-145.063,512
1569930985,284.857,-11.8318,-3.34863,178.022,7.03125,-145.063,512
1569930985,284.857,-11.8318,-3.34863,178.022,7.03125,-145.063,512
1569930985,284.857,-11.8318,-3.34863,178.022,7.03125,-145.063,512
1569930985,284.857,-11.8318,-3.34863,178.022,7.03125,-145.063,512
1569930985,284.857,-11.8318,-3.34863,178.022,7.03125,-145.063,512
1569930985,284.857,-11.8318,-3.34863,178.022,7.03125,-145.063,512
1569930985,284.857,-11.8318,-3.34863,178.022,7.03125,-145.063,512
1569930985,284.857,-11.8318,-3.34863,178.022,7.03125,-145.063,512
1569930985,284.857,-11.8318,-3.34863,178.022,7.03125,-145.063,512
1569930985,284.857,-11.8318,-3.34863,178.022,7.03125,-145.063,512
1569930985,284.857,-11.8318,-3.34863,178.022,7.03125,-145.063,512
1569930985,284.857,-11.8318,-3.34863,178.022,7.03125,-145.063,512
1569930985,284.857,-11.8318,-3.34863,178.022,7.03125,-145.063,512
1569930985,284.857,-11.8318,-3.34863,178.022,7.03125,-145.063,512
1569930985,284.857,-11.8318,-3.34863,178.022,7.03125,-145.063,512
1569930985,284.857,-11.8318,-3.34863,178.022,7.03125,-145.063,512
1569930985,284.857,-11.8318,-3.34863,178.022,7.03125,-145.063,512
1569930985,284.857,-11.8318,-3.34863,178.022,7.03125,-145.063,512
1569930985,284.857,-11.8318,-3.34863,178.022,7.03125,-145.063,512
1569930985,284.857,-11.8318,-3.34863,178.022,7.03125,-145.063,512
1569930985,284.857,-11.8318,-3.34863,178.022,7.03125,-145.063,512
1569930985,284.857,-11.8318,-3.34863,178.022,7.03125,-145.063,512
1569930985,284.857,-11.8318,-3.34863,178.022,7.03125,-145.063,512
1569930985,284.857,-11.8318,-3.34863,178.022,7.03125,-145.063,512
1569930985,284.857,-11.8318,-3.34863,178.022,7.03125,-145.063,512
1569930985,284.857,-11.8318,-3.34863,178.022,7.03125,-145.063,508
1569930985,284.857,-11.8318,-3.34863,178.022,7.03125,-145.063,508
1569930985,284.857,-11.8318,-3.34863,178.022,7.03125,-145.063,508
1569930985,284.857,-11.8318,-3.34863,178.022,7.03125,-145.063,508
1569930985,284.857,-11.8318,-3.34863,178.022,7.03125,-145.063,508
1569930985,284.857,-11.8318,-3.34863,178.022,7.03125,-145.063,508
1569930985,284.857,-11.8318,-3.34863,178.022,7.03125,-145.063,508
1569930985,284.857,-11.8318,-3.34863,178.022,7.03125,-145.063,508
1569930986,284.857,-11.8318,-3.34863,178.022,7.03125,-145.063,512
1569930986,284.857,-11.8318,-3.34863,178.022,7.03125,-145.063,512
1569930986,284.857,-11.8318,-3.34863,178.022,7.03125,-145.063,512
1569930986,284.857,-11.8318,-3.34863,178,7.03125,-145.063,512
1569930986,284.857,-11.8318,-3.34863,178,7.03125,-145.063,512
1569930986,284.857,-11.8318,-3.34863,178,7.03125,-145.063,512
1569930986,284.857,-11.8318,-3.34863,178,7.03125,-145.063,512
1569930986,284.857,-11.8318,-3.34863,178,7.03125,-145.063,512
1569930986,284.857,-11.8318,-3.34863,178,7.03125,-145.063,512
1569930986,284.857,-11.8318,-3.34863,178,7.03125,-145.063,512
1569930986,284.857,-11.8318,-3.34863,178,7.03125,-145.063,516
1569930986,284.857,-11.8318,-3.34863,178,7.03125,-145.063,516
1569930986,284.857,-11.8318,-3.34863,178,7.03125,-145.063,516
1569930986,284.857,-11.8318,-3.34863,178,7.03125,-145.063,516
1569930986,284.857,-11.8318,-3.34863,178,7.03125,-145.063,516
1569930986,284.857,-11.8318,-3.34863,178,7.03125,-145.063,516
1569930986,284.857,-11.8318,-3.34863,178,7.03125,-145.063,516
1569930986,284.857,-11.8318,-3.34863,178,7.03125,-145.063,516
1569930986,284.857,-11.8318,-3.34863,178,7.03125,-145.063,516
1569930986,284.857,-11.8318,-3.34863,178,7.03125,-145.063,516
1569930986,284.857,-11.8318,-3.34863,178,7.03125,-145.063,516
1569930986,284.857,-11.8318,-3.34863,178,7.03125,-145.063,512
1569930986,284.857,-11.8318,-3.34863,178,7.03125,-145.063,512
1569930986,284.857,-11.8318,-3.34863,178,7.03125,-145.063,512
1569930986,284.857,-11.8318,-3.34863,178,7.03125,-145.063,512
1569930986,284.857,-11.8318,-3.34863,178,7.03125,-145.063,512
1569930986,284.857,-11.8318,-3.34863,178,7.03125,-145.063,512
1569930986,284.857,-11.8318,-3.34863,178,7.03125,-145.063,512
1569930986,284.857,-11.8318,-3.34863,178,7.03125,-145.063,512
1569930986,284.857,-11.8318,-3.34863,178.022,7.03125,-145.063,512
1569930986,284.857,-11.8318,-3.34863,178.022,7.03125,-145.063,512
1569930986,284.857,-11.8318,-3.34863,178.022,7.03125,-145.063,512
1569930986,284.857,-11.8318,-3.34863,178.022,7.03125,-145.063,512
1569930986,284.857,-11.8318,-3.34863,178.022,7.03125,-145.063,512
1569930986,284.857,-11.8318,-3.34863,178.022,7.03125,-145.063,512
1569930986,284.857,-11.8318,-3.34863,178.022,7.03125,-145.063,512
1569930986,284.857,-11.8318,-3.34863,178,7.03125,-145.063,512
1569930986,284.857,-11.8318,-3.34863,178,7.03125,-145.063,512
1569930986,284.857,-11.8318,-3.34863,178,7.03125,-145.063,512
1569930986,284.857,-11.8318,-3.34863,178,7.03125,-145.063,512
1569930986,284.857,-11.8318,-3.34863,178,7.03125,-145.063,516
1569930986,284.857,-11.8318,-3.34863,178,7.03125,-145.063,516
1569930986,284.857,-11.8318,-3.34863,178,7.03125,-145.063,516
1569930986,284.857,-11.8318,-3.34863,178,7.03125,-145.063,516
1569930986,284.857,-11.8318,-3.34863,178,7.03125,-145.063,516
1569930986,284.857,-11.8318,-3.34863,178,7.03125,-145.063,516
1569930986,284.857,-11.8318,-3.34863,178,7.03125,-145.063,516
1569930986,284.857,-11.8318,-3.34863,178,7.03125,-145.063,516
1569930986,284.857,-11.8318,-3.34863,178,7.03125,-145.063,516
1569930986,284.857,-11.8318,-3.34863,178,7.03125,-145.063,516
1569930986,284.857,-11.8318,-3.34863,178,7.03125,-145.063,516
1569930986,284.857,-11.8318,-3.34863,178,7.03125,-145.063,516
1569930986,284.857,-11.8318,-3.34863,178,7.03125,-145.063,516
1569930986,284.857,-11.8318,-3.34863,178,7.03125,-145.063,516
1569930986,284.857,-11.8318,-3.34863,178,7.03125,-145.063,516
1569930986,284.857,-11.8318,-3.34863,178,7.03125,-145.063,516
1569930986,284.857,-11.8318,-3.34863,178,7.03125,-145.063,516
1569930986,284.857,-11.8318,-3.34863,178,7.03125,-145.063,516
1569930986,284.857,-11.8318,-3.34863,178,7.03125,-145.063,516
1569930986,284.857,-11.8318,-3.34863,178,7.03125,-145.063,516
1569930986,284.857,-11.8318,-3.34863,178,7.03125,-145.063,516
1569930986,284.857,-11.8318,-3.34863,178,7.03125,-145.063,516
1569930986,284.857,-11.8318,-3.34863,178,7.03125,-145.063,516
1569930986,284.857,-11.8318,-3.34863,178,7.03125,-145.063,516
1569930986,284.857,-11.8318,-3.34863,178,7.03125,-145.063,516
1569930986,284.857,-11.8318,-3.34863,178,7.03125,-145.063,516
1569930986,284.857,-11.8318,-3.34863,178,7.03125,-145.063,516
1569930986,284.857,-11.8318,-3.34863,178,7.03125,-145.063,516
1569930986,284.857,-11.8318,-3.34863,178,7.03125,-145.063,516
1569930986,284.857,-11.8318,-3.34863,178.022,7.03125,-145.063,516
1569930986,284.857,-11.8318,-3.34863,178.022,7.03125,-145.063,516
1569930986,284.857,-11.8318,-3.34863,178.022,7.03125,-145.063,516
1569930986,284.857,-11.8318,-3.34863,178.022,7.03125,-145.063,516
1569930986,284.857,-11.8318,-3.34863,178.022,7.03125,-145.063,516
1569930986,284.857,-11.8318,-3.34863,178.022,7.03125,-145.063,516
1569930986,284.857,-11.8318,-3.34863,178.022,7.03125,-145.063,516
1569930986,284.857,-11.8318,-3.34863,178,7.03125,-145.063,516
1569930986,284.857,-11.8318,-3.34863,178,7.03125,-145.063,512
1569930986,284.857,-11.8318,-3.34863,178,7.03125,-145.042,512
1569930986,284.857,-11.8318,-3.34863,178,7.03125,-145.042,512
1569930986,284.857,-11.8318,-3.34863,178,7.03125,-145.042,512
1569930986,284.857,-11.8318,-3.34863,178,7.03125,-145.042,512
1569930986,284.857,-11.8318,-3.34863,178,7.03125,-145.042,512
1569930986,284.857,-11.8318,-3.34863,178,7.03125,-145.042,512
1569930986,284.857,-11.8318,-3.34863,178,7.03125,-145.042,508
1569930986,284.857,-11.8318,-3.34863,178,7.03125,-145.042,508
1569930986,284.857,-11.8318,-3.34863,178,7.03125,-145.042,508
1569930986,284.857,-11.8318,-3.34863,178,7.03125,-145.042,508
1569930986,284.857,-11.8318,-3.34863,178,7.03125,-145.042,508
1569930986,284.857,-11.8318,-3.34863,178,7.03125,-145.042,508
1569930986,284.857,-11.8318,-3.34863,178,7.03125,-145.042,508
1569930986,284.857,-11.8318,-3.34863,178,7.03125,-145.042,508
1569930986,284.857,-11.8318,-3.34863,178,7.03125,-145.042,508
1569930986,284.857,-11.8318,-3.34863,178,7.03125,-145.042,508
1569930986,284.857,-11.8318,-3.34863,178,7.03125,-145.042,508
1569930986,284.857,-11.8318,-3.34863,178,7.03125,-145.042,508
1569930986,284.857,-11.8318,-3.34863,178,7.03125,-145.042,508
1569930986,284.857,-11.8318,-3.34863,178,7.03125,-145.042,508
1569930986,284.857,-11.8318,-3.34863,178,7.03125,-145.042,508
1569930986,284.857,-11.8318,-3.34863,178,7.03125,-145.042,508
1569930987,284.857,-11.8318,-3.34863,178,7.03125,-145.042,508
1569930987,284.857,-11.8318,-3.34863,178,7.03125,-145.042,508
1569930987,284.857,-11.8318,-3.34863,178,7.03125,-145.042,504
1569930987,284.857,-11.8318,-3.34863,178,7.03125,-145.042,504
1569930987,284.857,-11.8318,-3.34863,178,7.03125,-145.042,504
1569930987,284.857,-11.8318,-3.34863,178,7.03125,-145.042,508
1569930987,284.857,-11.8318,-3.34863,178,7.03125,-145.042,508
1569930987,284.857,-11.8318,-3.34863,178,7.03125,-145.042,508
1569930987,284.857,-11.8318,-3.34863,178,7.03125,-145.042,508
1569930987,284.857,-11.8318,-3.34863,178,7.03125,-145.042,508
1569930987,284.857,-11.8318,-3.34863,178,7.03125,-145.042,508
1569930987,284.857,-11.8318,-3.34863,178,7.03125,-145.042,508
1569930987,284.857,-11.8318,-3.34863,178,7.03125,-145.042,508
1569930987,284.857,-11.8318,-3.34863,178,7.03125,-145.042,508
1569930987,284.857,-11.8318,-3.34863,178,7.03125,-145.042,508
1569930987,284.857,-11.8318,-3.34863,178,7.03125,-145.042,512
1569930987,284.857,-11.8318,-3.34863,178.022,7.03125,-145.042,512
1569930987,284.857,-11.8318,-3.34863,178.022,7.03125,-145.042,512
1569930987,284.857,-11.8318,-3.34863,178.022,7.03125,-145.042,512
1569930987,284.857,-11.8318,-3.34863,178.022,7.03125,-145.042,512
1569930987,284.857,-11.8318,-3.34863,178.022,7.00928,-145.042,512
1569930987,284.857,-11.8318,-3.34863,178.022,7.00928,-145.042,512
1569930987,284.857,-11.8318,-3.34863,178.022,7.00928,-145.042,512
1569930987,284.857,-11.8318,-3.34863,178.022,7.00928,-145.042,512
1569930987,284.857,-11.8318,-3.34863,178.022,7.00928,-145.042,512
1569930987,284.857,-11.8318,-3.34863,178.022,7.00928,-145.042,512
1569930987,284.857,-11.8318,-3.34863,178.022,7.00928,-145.042,516
1569930987,284.857,-11.8318,-3.34863,178.022,7.00928,-145.042,516
1569930987,284.857,-11.8318,-3.34863,178.022,7.00928,-145.042,516
1569930987,284.857,-11.8318,-3.34863,178.022,7.03125,-145.042,516
1569930987,284.857,-11.8318,-3.34863,178.022,7.03125,-145.042,516
1569930987,284.857,-11.8318,-3.34863,178.022,7.03125,-145.063,516
1569930987,284.857,-11.8318,-3.34863,178.022,7.03125,-145.063,516
1569930987,284.857,-11.8318,-3.34863,178,7.03125,-145.063,516
1569930987,284.857,-11.8318,-3.34863,178,7.03125,-145.063,516
1569930987,284.857,-11.8318,-3.34863,178,7.03125,-145.063,516
1569930987,284.857,-11.8318,-3.34863,178,7.03125,-145.063,516
1569930987,284.857,-11.8318,-3.34863,178,7.03125,-145.063,516
1569930987,284.857,-11.8318,-3.34863,178,7.03125,-145.063,516
1569930987,284.857,-11.8318,-3.34863,178,7.03125,-145.063,516
1569930987,284.857,-11.8318,-3.34863,178,7.03125,-145.063,516
1569930987,284.857,-11.8318,-3.34863,178,7.03125,-145.063,516
1569930987,284.857,-11.8318,-3.34863,178,7.03125,-145.063,516
1569930987,284.857,-11.8318,-3.34863,178,7.03125,-145.063,516
1569930987,284.857,-11.8318,-3.34863,178,7.03125,-145.063,512
1569930987,284.857,-11.8318,-3.34863,178,7.03125,-145.063,512
1569930987,284.857,-11.8318,-3.34863,178,7.03125,-145.063,512
1569930987,284.857,-11.8318,-3.34863,178,7.03125,-145.063,512
1569930987,284.857,-11.8318,-3.34863,178,7.03125,-145.063,512
1569930987,284.857,-11.8318,-3.34863,178,7.03125,-145.063,512
1569930987,284.857,-11.8318,-3.34863,178,7.03125,-145.063,512
1569930987,284.857,-11.8318,-3.34863,178,7.03125,-145.063,512
1569930987,284.857,-11.8318,-3.34863,178,7.03125,-145.063,512
1569930987,284.857,-11.8318,-3.34863,178,7.03125,-145.063,512
1569930987,284.857,-11.8318,-3.34863,178,7.03125,-145.063,512
1569930987,284.857,-11.8318,-3.34863,178,7.03125,-145.063,512
1569930987,284.857,-11.8318,-3.34863,178,7.03125,-145.063,512
1569930987,284.857,-11.8318,-3.34863,178,7.03125,-145.063,512
1569930987,284.857,-11.8318,-3.34863,178,7.03125,-145.063,512
1569930987,284.857,-11.8318,-3.34863,178,7.03125,-145.063,512
1569930987,284.857,-11.8318,-3.34863,178,7.03125,-145.063,512
1569930987,284.857,-11.8318,-3.34863,178,7.03125,-145.063,512
1569930987,284.857,-11.8318,-3.34863,178,7.03125,-145.063,512
1569930987,284.857,-11.8318,-3.34863,178,7.03125,-145.063,512
1569930987,284.857,-11.8318,-3.34863,178,7.03125,-145.063,512
1569930987,284.857,-11.8318,-3.34863,178,7.03125,-145.063,512
1569930987,284.857,-11.8318,-3.34863,178,7.03125,-145.063,512
1569930987,284.857,-11.8318,-3.34863,178,7.03125,-145.063,512
1569930987,284.857,-11.8318,-3.34863,178,7.03125,-145.063,512
1569930987,284.857,-11.8318,-3.34863,178,7.03125,-145.063,512
1569930987,284.857,-11.8318,-3.34863,178,7.03125,-145.063,508
1569930987,284.857,-11.8318,-3.34863,178,7.03125,-145.063,508
1569930987,284.857,-11.8318,-3.34863,178,7.03125,-145.063,508
1569930987,284.857,-11.8318,-3.34863,178,7.03125,-145.063,508
1569930987,284.857,-11.8318,-3.34863,178,7.03125,-145.063,508
1569930987,284.857,-11.8318,-3.34863,178,7.03125,-145.063,508
1569930987,284.857,-11.8318,-3.34863,178,7.03125,-145.063,508
1569930987,284.857,-11.8318,-3.34863,178,7.03125,-145.063,508
1569930987,284.857,-11.8318,-3.34863,178,7.03125,-145.063,508
1569930987,284.857,-11.8318,-3.34863,178,7.03125,-145.063,508
1569930987,284.857,-11.8318,-3.34863,178,7.03125,-145.063,508
1569930987,284.857,-11.8318,-3.34863,178,7.03125,-145.063,508
1569930987,284.857,-11.8318,-3.34863,178,7.03125,-145.063,508
1569930987,284.857,-11.8318,-3.34863,178,7.03125,-145.063,508
1569930987,284.857,-11.8318,-3.34863,178,7.03125,-145.063,508
1569930987,284.857,-11.8318,-3.34863,178,7.03125,-145.063,508
1569930987,284.857,-11.8318,-3.34863,178,7.03125,-145.063,508
1569930987,284.857,-11.8318,-3.34863,178,7.03125,-145.063,508
1569930987,284.857,-11.8318,-3.34863,178,7.03125,-145.063,508
1569930987,284.857,-11.8318,-3.34863,178,7.03125,-145.063,504
1569930987,284.857,-11.8318,-3.34863,178,7.03125,-145.063,504
1569930987,284.857,-11.8318,-3.34863,178,7.03125,-145.063,504
1569930987,284.857,-11.8318,-3.34863,178,7.03125,-145.063,504
1569930987,284.857,-11.8318,-3.34863,178,7.03125,-145.063,504
1569930987,284.857,-11.8318,-3.34863,178,7.03125,-145.063,504
1569930987,284.857,-11.8318,-3.34863,178,7.03125,-145.063,504
1569930987,284.857,-11.8318,-3.34863,178.022,7.03125,-145.063,504
1569930987,284.857,-11.8318,-3.34863,178.022,7.03125,-145.063,508
1569930987,284.857,-11.8318,-3.34863,178.022,7.03125,-145.063,508
1569930987,284.857,-11.8318,-3.34863,178.022,7.03125,-145.063,508
1569930988,284.857,-11.8318,-3.34863,178.022,7.03125,-145.063,508
1569930988,284.857,-11.8318,-3.34863,178.022,7.03125,-145.063,508
1569930988,284.857,-11.8318,-3.34863,178.022,7.03125,-145.063,508
1569930988,284.857,-11.8318,-3.34863,178.022,7.03125,-145.063,508
1569930988,284.857,-11.8318,-3.34863,178.022,7.03125,-145.063,508
1569930988,284.857,-11.8318,-3.34863,178.022,7.03125,-145.063,508
1569930988,284.857,-11.8318,-3.34863,178.022,7.03125,-145.063,508
1569930988,284.857,-11.8318,-3.34863,178.022,7.03125,-145.063,508
1569930988,284.857,-11.8318,-3.34863,178.022,7.03125,-145.063,508
1569930988,284.857,-11.8318,-3.34863,178.022,7.03125,-145.063,508
1569930988,284.857,-11.8318,-3.34863,178.022,7.03125,-145.063,508
1569930988,284.857,-11.8318,-3.34863,178.022,7.03125,-145.063,508
1569930988,284.857,-11.8318,-3.34863,178.022,7.03125,-145.063,508
1569930988,284.857,-11.8318,-3.34863,178.022,7.03125,-145.063,508
1569930988,284.857,-11.8318,-3.34863,178.022,7.03125,-145.063,508
1569930988,284.857,-11.8318,-3.34863,178.022,7.03125,-145.063,508
1569930988,284.857,-11.8318,-3.34863,178.022,7.03125,-145.063,508
1569930988,284.857,-11.8318,-3.34863,178.022,7.03125,-145.063,508
1569930988,284.857,-11.8318,-3.34863,178.022,7.03125,-145.063,508
1569930988,284.857,-11.8318,-3.34863,178.022,7.03125,-145.063,508
1569930988,284.857,-11.8318,-3.34863,178.022,7.03125,-145.063,508
1569930988,284.857,-11.8318,-3.34863,178.022,7.03125,-145.063,508
1569930988,284.857,-11.8318,-3.34863,178.022,7.03125,-145.063,508
1569930988,284.857,-11.8318,-3.34863,178.022,7.03125,-145.063,508
1569930988,284.857,-11.8318,-3.34863,178.022,7.03125,-145.063,508
1569930988,284.857,-11.8318,-3.34863,178.022,7.03125,-145.063,508
1569930988,284.857,-11.8318,-3.34863,178.022,7.03125,-145.063,508
1569930988,284.857,-11.8318,-3.34863,178.022,7.03125,-145.063,512
1569930988,284.857,-11.8318,-3.34863,178.022,7.03125,-145.063,512
1569930988,284.857,-11.8318,-3.34863,178.022,7.03125,-145.063,512
1569930988,284.857,-11.8318,-3.34863,178,7.03125,-145.063,512
1569930988,284.857,-11.8318,-3.34863,178,7.03125,-145.063,512
1569930988,284.857,-11.8318,-3.34863,178,7.03125,-145.063,512
1569930988,284.857,-11.8318,-3.34863,178,7.03125,-145.063,512
1569930988,284.857,-11.8318,-3.34863,178,7.03125,-145.063,512
1569930988,284.857,-11.8318,-3.34863,178,7.03125,-145.063,512
1569930988,284.857,-11.8318,-3.34863,178,7.03125,-145.063,512
1569930988,284.857,-11.8318,-3.34863,178,7.03125,-145.042,512
1569930988,284.857,-11.8318,-3.34863,178,7.03125,-145.042,512
1569930988,284.857,-11.8318,-3.34863,178,7.03125,-145.042,516
1569930988,284.857,-11.8318,-3.34863,178,7.03125,-145.042,516
1569930988,284.857,-11.8318,-3.34863,178,7.03125,-145.063,516
1569930988,284.857,-11.8318,-3.34863,178,7.03125,-145.063,516
1569930988,284.857,-11.8318,-3.34863,178,7.03125,-145.063,516
1569930988,284.857,-11.8318,-3.34863,178.022,7.03125,-145.063,516
1569930988,284.857,-11.8318,-3.34863,178.022,7.03125,-145.063,516
1569930988,284.857,-11.8318,-3.34863,178.022,7.03125,-145.063,516
1569930988,284.857,-11.8318,-3.34863,178.022,7.03125,-145.063,516
1569930988,284.857,-11.8318,-3.34863,178.022,7.03125,-145.063,516
1569930988,284.857,-11.8318,-3.34863,178.022,7.03125,-145.063,516
1569930988,284.857,-11.8318,-3.34863,178.022,7.03125,-145.063,516
1569930988,284.857,-11.8318,-3.34863,178.022,7.03125,-145.063,516
1569930988,284.857,-11.8318,-3.34863,178.022,7.03125,-145.063,516
1569930988,284.857,-11.8318,-3.34863,178.022,7.03125,-145.063,516
1569930988,284.857,-11.8318,-3.34863,178.022,7.03125,-145.063,516
1569930988,284.857,-11.8318,-3.34863,178.022,7.03125,-145.063,516
1569930988,284.857,-11.8318,-3.34863,178.022,7.03125,-145.063,516
1569930988,284.857,-11.8318,-3.34863,178.022,7.03125,-145.063,516
1569930988,284.857,-11.8318,-3.34863,178.022,7.03125,-145.063,516
1569930988,284.857,-11.8318,-3.34863,178.022,7.03125,-145.063,516
1569930988,284.857,-11.8318,-3.34863,178.022,7.03125,-145.063,516
1569930988,284.857,-11.8318,-3.34863,178.022,7.03125,-145.063,516
1569930988,284.857,-11.8318,-3.34863,178.022,7.03125,-145.063,516
1569930988,284.857,-11.8318,-3.34863,178.022,7.03125,-145.063,516
1569930988,284.857,-11.8318,-3.34863,178.022,7.03125,-145.063,516
1569930988,284.857,-11.8318,-3.34863,178.022,7.03125,-145.063,516
1569930988,284.857,-11.8318,-3.34863,178.022,7.03125,-145.063,516
1569930988,284.857,-11.8318,-3.34863,178.022,7.03125,-145.063,516
1569930988,284.857,-11.8318,-3.34863,178.022,7.03125,-145.063,516
1569930988,284.857,-11.8318,-3.34863,178.022,7.03125,-145.063,516
1569930988,284.857,-11.8318,-3.34863,178.022,7.03125,-145.063,516
1569930988,284.857,-11.8318,-3.34863,178.022,7.03125,-145.063,516
1569930988,284.857,-11.8318,-3.34863,178.022,7.03125,-145.063,516
1569930988,284.857,-11.8318,-3.34863,178.022,7.03125,-145.063,516
1569930988,284.857,-11.8318,-3.34863,178.022,7.03125,-145.063,516
1569930988,284.857,-11.8318,-3.34863,178.022,7.03125,-145.063,516
1569930988,284.857,-11.8318,-3.34863,178.022,7.03125,-145.063,516
1569930988,284.857,-11.8318,-3.34863,178.022,7.03125,-145.063,516
1569930988,284.857,-11.8318,-3.34863,178.022,7.03125,-145.063,516
1569930988,284.857,-11.8318,-3.34863,178.022,7.03125,-145.063,516
1569930988,284.857,-11.8318,-3.34863,178.022,7.03125,-145.063,516
1569930988,284.857,-11.8318,-3.34863,178.022,7.03125,-145.063,516
1569930988,284.857,-11.8318,-3.34863,178.022,7.03125,-145.063,512
1569930988,284.857,-11.8318,-3.34863,178.022,7.03125,-145.063,512
1569930988,284.857,-11.8318,-3.34863,178.022,7.03125,-145.063,512
1569930988,284.857,-11.8318,-3.34863,178.022,7.03125,-145.063,512
1569930988,284.857,-11.8318,-3.34863,178.022,7.03125,-145.063,512
1569930988,284.857,-11.8318,-3.34863,178.022,7.03125,-145.063,512
1569930988,284.857,-11.8318,-3.34863,178.022,7.05322,-145.063,512
1569930988,284.857,-11.8318,-3.34863,178.022,7.05322,-145.063,512
1569930988,284.857,-11.8318,-3.34863,178.022,7.05322,-145.063,512
1569930988,284.857,-11.8318,-3.34863,178.022,7.05322,-145.063,508
1569930988,284.857,-11.8318,-3.34863,178.022,7.05322,-145.063,508
1569930988,284.857,-11.8318,-3.34863,178.022,7.05322,-145.063,508
1569930988,284.857,-11.8318,-3.34863,178.022,7.05322,-145.063,508
1569930988,284.857,-11.8318,-3.34863,178.022,7.05322,-145.063,508
1569930988,284.857,-11.8318,-3.34863,178.022,7.05322,-145.063,508
1569930988,284.857,-11.8318,-3.34863,178.022,7.05322,-145.063,508
1569930988,284.857,-11.8318,-3.34863,178.022,7.05322,-145.063,508
1569930988,284.857,-11.8318,-3.34863,178.022,7.05322,-145.063,508
1569930989,284.857,-11.8318,-3.34863,178.022,7.05322,-145.063,508
1569930989,284.857,-11.8318,-3.34863,178.022,7.05322,-145.063,508
1569930989,284.857,-11.8318,-3.34863,178.022,7.05322,-145.063,512
1569930989,284.857,-11.8318,-3.34863,178.022,7.05322,-145.063,512
1569930989,284.857,-11.8318,-3.34863,178.022,7.05322,-145.063,512
1569930989,284.857,-11.8318,-3.34863,178.022,7.05322,-145.063,512
1569930989,284.857,-11.8318,-3.34863,178.022,7.05322,-145.063,512
1569930989,284.857,-11.8318,-3.34863,178.022,7.05322,-145.063,512
1569930989,284.857,-11.8318,-3.34863,178.022,7.05322,-145.063,512
1569930989,284.857,-11.8318,-3.34863,178.022,7.05322,-145.063,512
1569930989,284.857,-11.8318,-3.34863,178.022,7.05322,-145.063,512
1569930989,284.857,-11.8318,-3.34863,178,7.05322,-145.063,512
1569930989,284.857,-11.8318,-3.34863,178,7.05322,-145.063,508
1569930989,284.857,-11.8318,-3.34863,178,7.05322,-145.063,508
1569930989,284.857,-11.8318,-3.34863,178,7.03125,-145.063,508
1569930989,284.857,-11.8318,-3.34863,178,7.03125,-145.063,508
1569930989,284.857,-11.8318,-3.34863,178.022,7.03125,-145.063,508
1569930989,284.857,-11.8318,-3.34863,178.022,7.03125,-145.063,508
1569930989,284.857,-11.8318,-3.34863,178.022,7.03125,-145.063,508
1569930989,284.857,-11.8318,-3.34863,178.022,7.03125,-145.063,508
1569930989,284.857,-11.8318,-3.34863,178.022,7.03125,-145.063,508
1569930989,284.857,-11.8318,-3.34863,178.022,7.03125,-145.063,508
1569930989,284.857,-11.8318,-3.34863,178.022,7.03125,-145.063,508
1569930989,284.857,-11.8318,-3.34863,178.022,7.03125,-145.063,508
1569930989,284.857,-11.8318,-3.34863,178.022,7.03125,-145.063,508
1569930989,284.857,-11.8318,-3.34863,178.022,7.03125,-145.063,508
1569930989,284.857,-11.8318,-3.34863,178.022,7.03125,-145.063,508
1569930989,284.857,-11.8318,-3.34863,178.022,7.03125,-145.063,508
1569930989,284.857,-11.8318,-3.34863,178.022,7.03125,-145.063,508
1569930989,284.857,-11.8318,-3.34863,178.022,7.03125,-145.063,508
1569930989,284.857,-11.8318,-3.34863,178.022,7.03125,-145.063,508
1569930992,325.599,-52.0154,-0.781348,178.704,7.05322,-143.943,1164
1569930992,325.599,-52.0154,-0.781348,178.704,7.05322,-143.943,1168
1569930992,325.599,-52.0154,-0.781348,178.704,7.05322,-143.943,1168
1569930992,325.71,-52.0154,-0.781348,178.704,7.05322,-143.943,1168
1569930992,325.71,-52.0154,-0.781348,178.704,7.05322,-143.943,1168
1569930992,325.71,-52.0154,-0.781348,178.704,7.0752,-143.943,1172
1569930992,325.71,-52.0154,-0.781348,178.704,7.0752,-143.943,1172
1569930992,325.71,-52.0154,-0.781348,178.704,7.0752,-143.943,1172
1569930992,325.71,-52.0154,-0.781348,178.704,7.0752,-143.943,1172
1569930992,325.71,-51.9038,-0.781348,178.704,7.0752,-143.943,1176
1569930992,325.71,-51.9038,-0.781348,178.704,7.0752,-143.943,1176
1569930992,325.71,-51.9038,-0.781348,178.704,7.0752,-143.943,1176
1569930992,325.71,-52.0154,-0.781348,178.704,7.0752,-143.943,1176
1569930992,325.71,-52.0154,-0.781348,178.704,7.0752,-143.943,1176
1569930992,325.599,-52.0154,-0.781348,178.682,7.0752,-143.943,1176
1569930992,325.599,-52.0154,-0.781348,178.682,7.0752,-143.943,1176
1569930992,325.599,-52.0154,-0.781348,178.682,7.0752,-143.943,1176
1569930992,325.599,-52.0154,-0.781348,178.682,7.0752,-143.943,1176
1569930992,325.599,-52.0154,-0.781348,178.682,7.0752,-143.943,1176
1569930992,325.599,-52.0154,-0.781348,178.682,7.0752,-143.943,1176
1569930992,325.599,-52.0154,-0.781348,178.682,7.0752,-143.943,1172
1569930992,325.599,-52.0154,-0.781348,178.682,7.0752,-143.943,1172
1569930992,325.599,-52.0154,-0.781348,178.682,7.0752,-143.943,1172
1569930992,325.599,-52.0154,-0.781348,178.682,7.0752,-143.943,1172
1569930992,325.599,-52.0154,-0.781348,178.682,7.0752,-143.943,1172
1569930992,325.599,-51.9038,-0.781348,178.704,7.0752,-143.943,1172
1569930993,325.599,-51.9038,-0.781348,178.704,7.0752,-143.943,1172
1569930993,325.599,-51.9038,-0.781348,178.704,7.0752,-143.943,1172
1569930993,325.599,-51.9038,-0.781348,178.704,7.0752,-143.943,1172
1569930993,325.599,-51.9038,-0.781348,178.704,7.05322,-143.943,1172
1569930993,325.599,-51.9038,-0.781348,178.704,7.05322,-143.943,1172
1569930993,325.599,-51.9038,-0.781348,178.704,7.05322,-143.921,1172
1569930993,325.599,-51.9038,-0.781348,178.704,7.05322,-143.921,1172
1569930993,325.599,-51.9038,-0.781348,178.704,7.05322,-143.921,1172
1569930993,325.599,-51.9038,-0.781348,178.704,7.05322,-143.921,1172
1569930993,325.71,-51.9038,-0.781348,178.682,7.05322,-143.921,1176
1569930993,325.71,-52.0154,-0.781348,178.682,7.05322,-143.921,1176
1569930993,325.71,-52.0154,-0.781348,178.682,7.05322,-143.921,1176
1569930993,325.71,-52.0154,-0.781348,178.682,7.05322,-143.921,1176
1569930993,325.71,-52.0154,-0.781348,178.682,7.05322,-143.921,1176
1569930993,325.71,-52.0154,-0.892969,178.682,7.05322,-143.921,1176
1569930993,325.71,-52.0154,-0.892969,178.682,7.05322,-143.921,1176
1569930993,325.71,-52.0154,-0.892969,178.682,7.05322,-143.921,1176
1569930993,325.71,-52.0154,-0.892969,178.682,7.05322,-143.921,1176
1569930993,325.71,-52.0154,-0.892969,178.682,7.05322,-143.921,1176
1569930993,325.71,-52.0154,-0.892969,178.682,7.05322,-143.921,1176
1569930993,325.71,-52.0154,-0.892969,178.704,7.05322,-143.921,1176
1569930993,325.599,-52.0154,-0.892969,178.704,7.05322,-143.921,1176
1569930993,325.599,-51.9038,-0.892969,178.704,7.05322,-143.921,1176
1569930993,325.599,-51.9038,-0.892969,178.704,7.05322,-143.921,1176
1569930993,325.599,-51.9038,-0.892969,178.704,7.05322,-143.921,1176
1569930993,325.599,-51.9038,-0.892969,178.704,7.05322,-143.921,1172
1569930993,325.599,-51.9038,-0.781348,178.704,7.05322,-143.921,1172
1569930993,325.599,-51.9038,-0.781348,178.704,7.05322,-143.921,1172
1569930993,325.599,-51.9038,-0.781348,178.704,7.05322,-143.921,1172
1569930993,325.599,-51.9038,-0.781348,178.704,7.05322,-143.921,1172
1569930993,325.71,-51.9038,-0.781348,178.704,7.05322,-143.921,1172
1569930993,325.71,-51.9038,-0.781348,178.704,7.05322,-143.921,1172
1569930993,325.71,-51.9038,-0.781348,178.704,7.05322,-143.921,1172
1569930993,325.71,-51.9038,-0.781348,178.704,7.05322,-143.921,1172
1569930993,325.71,-51.9038,-0.781348,178.704,7.05322,-143.921,1172
1569930993,325.71,-51.9038,-0.892969,178.704,7.05322,-143.921,1172
1569930993,325.71,-51.9038,-0.892969,178.704,7.05322,-143.921,1172
1569930993,325.71,-51.9038,-0.892969,178.704,7.05322,-143.921,1172
1569930993,325.71,-51.9038,-0.892969,178.704,7.05322,-143.921,1172
1569930993,325.71,-51.9038,-0.892969,178.704,7.05322,-143.921,1172
1569930993,325.71,-51.9038,-0.892969,178.704,7.05322,-143.921,1172
1569930993,325.71,-51.9038,-0.892969,178.704,7.05322,-143.921,1172
1569930993,325.71,-51.9038,-0.892969,178.704,7.05322,-143.921,1172
1569930993,325.71,-51.9038,-0.892969,178.704,7.05322,-143.921,1172
1569930993,325.71,-51.9038,-0.892969,178.704,7.05322,-143.921,1176
1569930993,325.71,-51.9038,-0.892969,178.704,7.05322,-143.921,1176
1569930993,325.71,-51.9038,-0.892969,178.704,7.05322,-143.921,1176
1569930993,325.71,-51.9038,-0.892969,178.704,7.05322,-143.921,1176
1569930993,325.71,-51.9038,-0.892969,178.704,7.05322,-143.921,1176
1569930993,325.71,-51.9038,-0.892969,178.704,7.05322,-143.921,1176
1569930993,325.71,-51.9038,-0.892969,178.704,7.05322,-143.921,1176
1569930993,325.599,-51.9038,-0.892969,178.704,7.05322,-143.921,1176
1569930993,325.599,-51.9038,-0.892969,178.704,7.05322,-143.921,1176
1569930993,325.599,-51.9038,-0.781348,178.704,7.05322,-143.921,1176
1569930993,325.599,-51.9038,-0.781348,178.704,7.05322,-143.921,1172
1569930993,325.599,-51.9038,-0.781348,178.704,7.05322,-143.921,1172
1569930993,325.599,-51.9038,-0.781348,178.704,7.05322,-143.921,1172
1569930993,325.599,-51.9038,-0.781348,178.704,7.05322,-143.921,1172
1569930993,325.599,-51.9038,-0.781348,178.704,7.05322,-143.921,1172
1569930993,325.599,-51.9038,-0.781348,178.704,7.05322,-143.921,1172
1569930993,325.599,-51.9038,-0.781348,178.704,7.05322,-143.921,1172
1569930993,325.599,-51.9038,-0.781348,178.704,7.05322,-143.943,1172
1569930993,325.599,-51.9038,-0.781348,178.704,7.0752,-143.943,1172
1569930993,325.599,-51.9038,-0.781348,178.704,7.0752,-143.943,1168
1569930993,325.599,-51.9038,-0.781348,178.704,7.0752,-143.943,1168
1569930993,325.599,-51.9038,-0.781348,178.704,7.0752,-143.943,1168
1569930993,325.599,-51.9038,-0.781348,178.704,7.0752,-143.943,1168
1569930993,325.599,-51.9038,-0.781348,178.704,7.0752,-143.943,1168
1569930993,325.599,-51.9038,-0.781348,178.704,7.0752,-143.943,1168
1569930993,325.599,-51.9038,-0.781348,178.704,7.0752,-143.943,1168
1569930993,325.599,-51.9038,-0.781348,178.704,7.0752,-143.943,1168
1569930993,325.599,-51.9038,-0.781348,178.704,7.0752,-143.943,1168
1569930993,325.599,-51.9038,-0.781348,178.704,7.0752,-143.943,1168
1569930993,325.599,-51.9038,-0.781348,178.704,7.0752,-143.943,1168
1569930993,325.599,-51.9038,-0.781348,178.704,7.0752,-143.943,1168
1569930993,325.599,-51.9038,-0.781348,178.704,7.0752,-143.943,1168
1569930993,325.599,-51.9038,-0.781348,178.704,7.0752,-143.943,1168
1569930993,325.599,-51.9038,-0.781348,178.704,7.0752,-143.943,1168
1569930993,325.599,-51.9038,-0.781348,178.704,7.0752,-143.943,1168
1569930993,325.599,-51.9038,-0.781348,178.704,7.0752,-143.943,1168
1569930993,325.599,-51.9038,-0.781348,178.704,7.0752,-143.943,1168
1569930993,325.599,-51.9038,-0.781348,178.704,7.0752,-143.943,1168
1569930993,325.599,-51.9038,-0.781348,178.704,7.05322,-143.943,1168
1569930993,325.599,-51.9038,-0.781348,178.704,7.05322,-143.943,1168
1569930993,325.599,-51.9038,-0.892969,178.704,7.05322,-143.943,1168
1569930993,325.599,-51.9038,-0.892969,178.704,7.05322,-143.943,1164
1569930993,325.599,-51.9038,-0.892969,178.704,7.05322,-143.943,1164
1569930993,325.599,-51.9038,-0.892969,178.704,7.05322,-143.943,1164
1569930993,325.599,-51.9038,-0.892969,178.704,7.05322,-143.943,1164
1569930993,325.599,-51.9038,-0.892969,178.682,7.05322,-143.943,1164
1569930993,325.599,-51.9038,-0.892969,178.682,7.05322,-143.943,1164
1569930993,325.599,-51.9038,-0.892969,178.682,7.05322,-143.943,1164
1569930993,325.599,-51.9038,-0.892969,178.682,7.05322,-143.943,1164
1569930993,325.599,-51.9038,-0.892969,178.682,7.05322,-143.943,1164
1569930993,325.599,-51.9038,-0.892969,178.682,7.05322,-143.943,1164
1569930993,325.599,-51.9038,-0.892969,178.682,7.05322,-143.943,1164
1569930993,325.599,-52.0154,-0.892969,178.682,7.05322,-143.943,1164
1569930993,325.599,-52.0154,-0.892969,178.682,7.05322,-143.943,1164
1569930993,325.599,-52.0154,-0.892969,178.682,7.05322,-143.943,1164
1569930993,325.599,-52.0154,-0.892969,178.682,7.05322,-143.943,1164
1569930994,325.599,-52.0154,-0.892969,178.682,7.05322,-143.943,1164
1569930994,325.599,-52.0154,-0.892969,178.682,7.05322,-143.943,1164
1569930994,325.599,-52.0154,-0.892969,178.682,7.05322,-143.943,1164
1569930994,325.599,-52.0154,-0.892969,178.682,7.05322,-143.943,1164
1569930994,325.599,-52.0154,-0.892969,178.682,7.05322,-143.943,1164
1569930994,325.599,-52.0154,-0.892969,178.682,7.05322,-143.943,1164
1569930994,325.599,-52.0154,-0.892969,178.682,7.05322,-143.943,1164
1569930994,325.599,-52.0154,-0.892969,178.682,7.05322,-143.943,1164
1569930994,325.599,-51.9038,-0.892969,178.682,7.05322,-143.943,1164
1569930994,325.599,-51.9038,-0.892969,178.682,7.05322,-143.943,1164
1569930994,325.599,-51.9038,-0.892969,178.682,7.05322,-143.943,1164
1569930994,325.599,-51.9038,-0.892969,178.704,7.05322,-143.943,1164
1569930994,325.599,-51.9038,-0.892969,178.704,7.05322,-143.943,1164
1569930994,325.599,-51.9038,-0.892969,178.704,7.05322,-143.943,1164
1569930994,325.599,-51.9038,-0.781348,178.704,7.05322,-143.943,1164
1569930994,325.599,-51.9038,-0.781348,178.704,7.05322,-143.943,1164
1569930994,325.599,-51.9038,-0.781348,178.704,7.05322,-143.943,1164
1569930994,325.599,-51.9038,-0.781348,178.704,7.05322,-143.943,1164
1569930994,325.599,-51.9038,-0.781348,178.704,7.05322,-143.943,1164
1569930994,325.599,-51.9038,-0.781348,178.704,7.05322,-143.943,1164
1569930994,325.599,-51.9038,-0.781348,178.704,7.05322,-143.943,1164
1569930994,325.599,-51.9038,-0.781348,178.704,7.0752,-143.943,1164
1569930994,325.599,-51.9038,-0.781348,178.704,7.0752,-143.943,1164
1569930994,325.599,-51.9038,-0.781348,178.704,7.0752,-143.943,1164
1569930994,325.599,-51.9038,-0.781348,178.704,7.0752,-143.943,1164
1569930994,325.599,-51.9038,-0.781348,178.704,7.0752,-143.943,1164
1569930994,325.599,-51.9038,-0.781348,178.704,7.0752,-143.943,1164
1569930994,325.599,-51.9038,-0.781348,178.704,7.0752,-143.943,1164
1569930994,325.599,-51.9038,-0.781348,178.704,7.0752,-143.943,1164
1569930994,325.599,-51.9038,-0.781348,178.704,7.0752,-143.943,1164
1569930994,325.599,-51.9038,-0.781348,178.704,7.0752,-143.943,1164
1569930994,325.599,-51.9038,-0.781348,178.704,7.0752,-143.943,1164
1569930994,325.599,-51.9038,-0.781348,178.704,7.0752,-143.943,1164
1569930994,325.599,-51.9038,-0.781348,178.704,7.05322,-143.943,1164
1569930994,325.599,-51.9038,-0.781348,178.704,7.05322,-143.943,1164
1569930994,325.599,-51.9038,-0.781348,178.704,7.05322,-143.943,1164
1569930994,325.599,-51.9038,-0.781348,178.704,7.05322,-143.943,1164
1569930994,325.599,-51.9038,-0.781348,178.704,7.05322,-143.943,1168
1569930994,325.599,-51.9038,-0.781348,178.704,7.05322,-143.943,1168
1569930994,325.599,-51.9038,-0.781348,178.682,7.05322,-143.943,1168
1569930994,325.599,-51.9038,-0.781348,178.682,7.05322,-143.943,1168
1569930994,325.599,-52.0154,-0.781348,178.682,7.05322,-143.943,1168
1569930994,325.599,-51.9038,-0.781348,178.682,7.05322,-143.943,1168
1569930994,325.599,-51.9038,-0.781348,178.682,7.05322,-143.943,1168
1569930994,325.599,-51.9038,-0.781348,178.682,7.05322,-143.943,1168
1569930994,325.599,-51.9038,-0.781348,178.682,7.05322,-143.943,1168
1569930994,325.599,-51.9038,-0.892969,178.682,7.05322,-143.943,1168
1569930994,325.599,-51.9038,-0.892969,178.682,7.05322,-143.943,1168
1569930994,325.599,-51.9038,-0.892969,178.704,7.05322,-143.943,1168
1569930994,325.599,-51.9038,-0.892969,178.704,7.05322,-143.943,1168
1569930994,325.599,-51.9038,-0.892969,178.704,7.05322,-143.943,1172
1569930994,325.599,-51.9038,-0.892969,178.704,7.05322,-143.943,1172
1569930994,325.599,-51.9038,-0.892969,178.704,7.05322,-143.943,1172
1569930994,325.599,-51.9038,-0.892969,178.704,7.05322,-143.943,1172
1569930994,325.599,-51.9038,-0.892969,178.682,7.05322,-143.943,1172
1569930994,325.599,-51.9038,-0.892969,178.682,7.05322,-143.943,1172
1569930994,325.599,-51.9038,-0.892969,178.682,7.05322,-143.943,1172
1569930994,325.599,-51.9038,-0.892969,178.682,7.05322,-143.943,1172
1569930994,325.599,-51.9038,-0.892969,178.682,7.05322,-143.943,1172
1569930994,325.599,-51.9038,-0.892969,178.682,7.05322,-143.943,1172
1569930994,325.599,-51.9038,-0.892969,178.682,7.05322,-143.943,1172
1569930994,325.599,-51.9038,-0.892969,178.682,7.05322,-143.943,1172
1569930994,325.599,-51.9038,-0.892969,178.682,7.05322,-143.943,1172
1569930994,325.599,-51.9038,-0.892969,178.682,7.05322,-143.943,1172
1569930994,325.599,-51.9038,-0.781348,178.682,7.05322,-143.943,1172
1569930994,325.599,-51.9038,-0.781348,178.682,7.05322,-143.943,1172
1569930994,325.599,-51.9038,-0.781348,178.704,7.05322,-143.943,1172
1569930994,325.599,-51.9038,-0.781348,178.704,7.05322,-143.921,1172
1569930994,325.599,-51.9038,-0.781348,178.704,7.05322,-143.921,1172
1569930994,325.599,-51.9038,-0.781348,178.704,7.05322,-143.921,1172
1569930994,325.599,-51.9038,-0.781348,178.704,7.05322,-143.921,1172
1569930994,325.599,-51.9038,-0.781348,178.704,7.05322,-143.921,1172
1569930994,325.599,-51.9038,-0.781348,178.704,7.05322,-143.921,1172
1569930994,325.599,-51.9038,-0.781348,178.704,7.05322,-143.921,1172
1569930994,325.599,-51.9038,-0.781348,178.704,7.05322,-143.943,1172
1569930994,325.599,-51.9038,-0.781348,178.704,7.05322,-143.943,1172
1569930994,325.599,-51.9038,-0.781348,178.704,7.05322,-143.943,1168
1569930994,325.599,-51.9038,-0.781348,178.704,7.05322,-143.943,1168
1569930994,325.599,-51.9038,-0.781348,178.704,7.05322,-143.943,1168
1569930994,325.599,-51.9038,-0.781348,178.704,7.05322,-143.943,1168
1569930994,325.599,-51.9038,-0.781348,178.704,7.05322,-143.943,1164
1569930994,325.599,-51.9038,-0.781348,178.704,7.05322,-143.943,1164
1569930994,325.599,-51.9038,-0.781348,178.704,7.05322,-143.943,1164
1569930994,325.599,-51.9038,-0.781348,178.704,7.05322,-143.943,1164
1569930994,325.599,-51.9038,-0.781348,178.704,7.05322,-143.943,1164
1569930994,325.599,-51.9038,-0.781348,178.704,7.05322,-143.943,1164
1569930994,325.599,-51.9038,-0.892969,178.704,7.05322,-143.943,1164
1569930994,325.599,-51.9038,-0.892969,178.704,7.05322,-143.943,1164
1569930994,325.599,-51.9038,-0.892969,178.704,7.05322,-143.943,1164
1569930994,325.599,-51.9038,-0.892969,178.704,7.05322,-143.943,1164
1569930994,325.599,-51.9038,-0.892969,178.704,7.05322,-143.943,1164
1569930994,325.599,-51.9038,-0.892969,178.704,7.05322,-143.943,1164
1569930994,325.599,-51.9038,-0.892969,178.704,7.05322,-143.943,1164
1569930994,325.599,-51.9038,-0.892969,178.704,7.05322,-143.943,1164
1569930994,325.599,-51.9038,-0.892969,178.704,7.03125,-143.943,1164
1569930994,325.599,-51.9038,-0.892969,178.704,7.03125,-143.943,1164
1569930994,325.599,-51.9038,-0.892969,178.704,7.03125,-143.943,1164
1569930994,325.599,-51.9038,-0.892969,178.704,7.03125,-143.943,1164
1569930994,325.599,-51.9038,-0.892969,178.704,7.03125,-143.943,1164
1569930994,325.599,-51.9038,-0.892969,178.704,7.03125,-143.943,1164
1569930994,325.599,-51.9038,-0.892969,178.704,7.03125,-143.943,1164
1569930995,325.599,-51.9038,-0.892969,178.704,7.03125,-143.943,1164
1569930995,325.599,-51.9038,-0.892969,178.704,7.03125,-143.943,1164
1569930995,325.599,-51.9038,-0.892969,178.704,7.03125,-143.921,1164
1569930995,325.599,-51.9038,-0.892969,178.704,7.03125,-143.921,1164
1569930995,325.599,-51.9038,-0.892969,178.704,7.03125,-143.921,1164
1569930995,325.599,-51.9038,-0.892969,178.704,7.03125,-143.921,1164
1569930995,325.599,-51.9038,-0.892969,178.704,7.03125,-143.921,1164
1569930995,325.599,-51.9038,-0.892969,178.704,7.03125,-143.921,1164
1569930995,325.599,-51.9038,-0.892969,178.704,7.03125,-143.921,1160
1569930995,325.599,-51.9038,-0.892969,178.682,7.03125,-143.921,1160
1569930995,325.599,-52.0154,-0.892969,178.682,7.05322,-143.921,1160
1569930995,325.599,-52.0154,-0.892969,178.682,7.05322,-143.921,1160
1569930995,325.599,-52.0154,-0.892969,178.682,7.05322,-143.921,1160
1569930995,325.599,-52.0154,-0.892969,178.682,7.05322,-143.921,1160
1569930995,325.599,-52.0154,-0.892969,178.682,7.05322,-143.921,1160
1569930995,325.599,-52.0154,-0.892969,178.682,7.05322,-143.921,1160
1569930995,325.599,-52.0154,-0.892969,178.682,7.05322,-143.921,1160
1569930995,325.599,-52.0154,-0.892969,178.682,7.05322,-143.921,1160
1569930995,325.599,-52.0154,-0.892969,178.682,7.05322,-143.921,1160
1569930995,325.599,-52.0154,-0.892969,178.682,7.05322,-143.921,1160
1569930995,325.599,-52.0154,-0.892969,178.682,7.05322,-143.921,1160
1569930995,325.599,-52.0154,-0.892969,178.682,7.05322,-143.921,1160
1569930995,325.599,-52.0154,-0.892969,178.682,7.05322,-143.921,1160
1569930995,325.599,-52.0154,-0.892969,178.682,7.05322,-143.921,1160
1569930995,325.599,-52.0154,-0.892969,178.704,7.05322,-143.921,1160
1569930995,325.599,-52.0154,-0.892969,178.704,7.05322,-143.921,1160
1569930995,325.599,-51.9038,-0.892969,178.704,7.05322,-143.921,1164
1569930995,325.599,-51.9038,-0.892969,178.704,7.05322,-143.921,1164
1569930995,325.599,-51.9038,-0.892969,178.704,7.05322,-143.921,1164
1569930995,325.599,-51.9038,-0.892969,178.704,7.05322,-143.921,1164
1569930995,325.599,-51.9038,-0.892969,178.704,7.05322,-143.921,1164
1569930995,325.599,-51.9038,-0.781348,178.704,7.05322,-143.943,1164
1569930995,325.599,-51.9038,-0.781348,178.704,7.05322,-143.943,1164
1569930995,325.599,-51.9038,-0.781348,178.704,7.05322,-143.943,1164
1569930995,325.599,-51.9038,-0.781348,178.704,7.05322,-143.943,1164
1569930995,325.599,-51.9038,-0.781348,178.704,7.05322,-143.943,1164
1569930995,325.599,-51.9038,-0.781348,178.704,7.05322,-143.943,1164
1569930995,325.599,-51.9038,-0.781348,178.704,7.05322,-143.943,1168
1569930995,325.599,-51.9038,-0.781348,178.704,7.05322,-143.943,1168
1569930995,325.599,-51.9038,-0.892969,178.704,7.05322,-143.943,1168
1569930995,325.599,-51.9038,-0.892969,178.704,7.05322,-143.921,1168
1569930995,325.599,-51.9038,-0.892969,178.704,7.05322,-143.921,1168
1569930995,325.599,-51.9038,-0.892969,178.704,7.05322,-143.921,1168
1569930995,325.599,-51.9038,-0.892969,178.704,7.05322,-143.921,1168
1569930995,325.599,-51.9038,-0.781348,178.682,7.05322,-143.921,1168
1569930995,325.599,-51.9038,-0.781348,178.682,7.05322,-143.921,1168
1569930995,325.599,-51.9038,-0.781348,178.704,7.05322,-143.921,1168
1569930995,325.599,-51.9038,-0.781348,178.704,7.05322,-143.921,1168
1569930995,325.599,-51.9038,-0.781348,178.704,7.05322,-143.921,1168
1569930995,325.599,-51.9038,-0.781348,178.704,7.05322,-143.921,1168
1569930995,325.599,-51.9038,-0.781348,178.704,7.05322,-143.921,1168
1569930995,325.599,-51.9038,-0.781348,178.704,7.05322,-143.921,1172
1569930995,325.599,-51.9038,-0.781348,178.704,7.05322,-143.943,1172
1569930995,325.599,-51.9038,-0.781348,178.704,7.05322,-143.943,1172
1569930995,325.599,-51.9038,-0.892969,178.704,7.05322,-143.943,1172
1569930995,325.599,-51.9038,-0.892969,178.704,7.05322,-143.943,1172
1569930995,325.599,-51.9038,-0.892969,178.704,7.05322,-143.943,1172
1569930995,325.599,-51.9038,-0.892969,178.704,7.05322,-143.943,1172
1569930995,325.599,-51.9038,-0.892969,178.704,7.05322,-143.943,1172
1569930995,325.599,-51.9038,-0.892969,178.704,7.05322,-143.943,1172
1569930995,325.599,-51.9038,-0.892969,178.704,7.05322,-143.943,1172
1569930995,325.599,-51.9038,-0.781348,178.704,7.05322,-143.943,1172
1569930995,325.599,-51.9038,-0.781348,178.704,7.05322,-143.943,1172
1569930995,325.599,-51.9038,-0.781348,178.704,7.05322,-143.943,1172
1569930995,325.599,-51.9038,-0.781348,178.704,7.05322,-143.943,1172
1569930995,325.599,-51.9038,-0.781348,178.704,7.05322,-143.943,1168
1569930995,325.599,-51.9038,-0.781348,178.704,7.05322,-143.943,1168
1569930995,325.599,-51.9038,-0.781348,178.704,7.05322,-143.943,1168
1569930995,325.599,-51.9038,-0.892969,178.704,7.05322,-143.943,1168
1569930995,325.599,-51.9038,-0.892969,178.704,7.05322,-143.943,1168
1569930995,325.599,-51.9038,-0.892969,178.704,7.05322,-143.943,1168
1569930995,325.599,-51.9038,-0.892969,178.704,7.05322,-143.943,1168
1569930995,325.599,-51.9038,-0.892969,178.704,7.05322,-143.943,1168
1569930995,325.599,-51.9038,-0.892969,178.704,7.05322,-143.943,1164
1569930995,325.599,-51.9038,-0.892969,178.704,7.05322,-143.943,1164
1569930995,325.599,-51.9038,-0.892969,178.704,7.05322,-143.943,1164
1569930995,325.599,-51.9038,-0.892969,178.704,7.05322,-143.943,1164
1569930995,325.599,-51.9038,-0.892969,178.704,7.05322,-143.943,1164
1569930995,325.599,-51.9038,-0.892969,178.704,7.05322,-143.943,1164
1569930995,325.599,-51.9038,-0.892969,178.704,7.05322,-143.943,1164
1569930995,325.599,-51.9038,-0.892969,178.704,7.05322,-143.943,1164
1569930995,325.599,-51.9038,-0.892969,178.704,7.05322,-143.943,1164
1569930995,325.599,-51.9038,-0.892969,178.704,7.05322,-143.943,1160
1569930995,325.599,-51.9038,-0.892969,178.704,7.05322,-143.943,1160
1569930995,325.599,-51.9038,-0.892969,178.704,7.05322,-143.943,1160
1569930995,325.599,-51.9038,-0.892969,178.704,7.05322,-143.943,1160
1569930995,325.599,-51.9038,-0.892969,178.704,7.05322,-143.943,1160
1569930995,325.599,-51.9038,-0.892969,178.704,7.05322,-143.943,1160
1569930995,325.599,-51.9038,-0.892969,178.704,7.05322,-143.943,1160
1569930995,325.599,-51.9038,-0.892969,178.704,7.05322,-143.943,1160
1569930995,325.599,-51.9038,-0.892969,178.704,7.05322,-143.943,1160
1569930995,325.599,-51.9038,-0.892969,178.704,7.05322,-143.943,1160
1569930995,325.599,-51.9038,-0.892969,178.704,7.05322,-143.943,1160
1569930995,325.599,-51.9038,-0.892969,178.704,7.05322,-143.943,1160
1569930995,325.599,-51.9038,-0.892969,178.704,7.05322,-143.943,1160
1569930995,325.599,-51.9038,-0.892969,178.704,7.05322,-143.943,1160
1569930995,325.599,-51.9038,-0.892969,178.704,7.05322,-143.943,1160
1569930995,325.599,-51.9038,-0.892969,178.704,7.05322,-143.943,1160
1569930995,325.599,-51.9038,-0.892969,178.704,7.05322,-143.943,1160
1569930995,325.599,-51.9038,-0.892969,178.704,7.05322,-143.943,1160
1569930996,325.599,-51.9038,-0.892969,178.704,7.05322,-143.943,1160
1569930996,325.599,-51.9038,-0.892969,178.704,7.05322,-143.943,1160
1569930996,325.599,-51.9038,-0.892969,178.704,7.05322,-143.921,1160
1569930996,325.599,-51.9038,-0.892969,178.704,7.05322,-143.921,1160
