time,x,y,z,ax,ay,az,q
1571130132,242.218,-95.2128,-16.7432,179.824,1.40625,-145.437,484
1571130132,242.218,-95.2128,-16.7432,179.824,1.40625,-145.437,484
1571130132,242.218,-95.2128,-16.7432,179.824,1.40625,-145.437,484
1571130132,242.218,-95.2128,-16.7432,179.824,1.40625,-145.437,484
1571130132,242.218,-95.2128,-16.7432,179.824,1.40625,-145.437,484
1571130132,242.218,-95.2128,-16.7432,179.824,1.40625,-145.437,484
1571130132,242.218,-95.2128,-16.7432,179.824,1.40625,-145.437,484
1571130132,242.218,-95.2128,-16.7432,179.824,1.40625,-145.437,484
1571130132,242.218,-95.2128,-16.7432,179.824,1.40625,-145.437,484
1571130132,242.218,-95.2128,-16.7432,179.824,1.40625,-145.437,484
1571130132,242.218,-95.2128,-16.7432,179.824,1.40625,-145.437,484
1571130132,242.218,-95.2128,-16.7432,179.824,1.40625,-145.437,484
1571130132,242.218,-95.2128,-16.7432,179.824,1.40625,-145.437,484
1571130132,242.218,-95.2128,-16.7432,179.824,1.40625,-145.437,484
1571130132,242.218,-95.2128,-16.7432,179.824,1.40625,-145.437,484
1571130132,242.218,-95.2128,-16.7432,179.824,1.40625,-145.437,484
1571130132,242.218,-95.2128,-16.7432,179.846,1.40625,-145.437,484
1571130132,242.218,-95.2128,-16.7432,179.846,1.40625,-145.437,484
1571130132,242.218,-95.2128,-16.7432,179.846,1.40625,-145.437,484
1571130132,242.218,-95.2128,-16.7432,179.846,1.40625,-145.437,484
1571130132,242.218,-95.2128,-16.7432,179.846,1.40625,-145.437,484
1571130132,242.218,-95.2128,-16.7432,179.846,1.40625,-145.437,484
1571130132,242.218,-95.2128,-16.7432,179.846,1.40625,-145.437,484
1571130132,242.218,-95.2128,-16.7432,179.846,1.40625,-145.437,484
1571130132,242.218,-95.2128,-16.7432,179.846,1.40625,-145.437,484
1571130132,242.218,-95.2128,-16.7432,179.846,1.40625,-145.437,484
1571130132,242.218,-95.2128,-16.7432,179.846,1.40625,-145.437,484
1571130132,242.218,-95.2128,-16.7432,179.846,1.40625,-145.437,484
1571130132,242.218,-95.2128,-16.7432,179.846,1.40625,-145.437,484
1571130132,242.218,-95.2128,-16.7432,179.846,1.40625,-145.437,484
1571130132,242.218,-95.2128,-16.7432,179.846,1.40625,-145.437,484
1571130132,242.218,-95.2128,-16.7432,179.846,1.40625,-145.437,484
1571130132,242.218,-95.2128,-16.7432,179.824,1.40625,-145.437,484
1571130132,242.218,-95.2128,-16.7432,179.824,1.40625,-145.437,484
1571130132,242.218,-95.2128,-16.7432,179.824,1.40625,-145.437,484
1571130132,242.218,-95.2128,-16.7432,179.824,1.40625,-145.437,484
1571130132,242.218,-95.2128,-16.7432,179.824,1.40625,-145.437,484
1571130132,242.218,-95.2128,-16.7432,179.824,1.40625,-145.437,480
1571130132,242.218,-95.2128,-16.7432,179.824,1.40625,-145.437,480
1571130132,242.218,-95.2128,-16.7432,179.824,1.40625,-145.437,480
1571130132,242.218,-95.2128,-16.7432,179.824,1.40625,-145.437,480
1571130132,242.218,-95.2128,-16.7432,179.824,1.40625,-145.437,480
1571130132,242.218,-95.2128,-16.7432,179.824,1.40625,-145.437,480
1571130132,242.218,-95.2128,-16.7432,179.824,1.40625,-145.437,480
1571130132,242.218,-95.2128,-16.7432,179.824,1.40625,-145.437,480
1571130132,242.218,-95.2128,-16.7432,179.824,1.40625,-145.437,480
1571130132,242.218,-95.2128,-16.7432,179.824,1.40625,-145.437,480
1571130132,242.218,-95.2128,-16.7432,179.824,1.40625,-145.437,480
1571130132,242.218,-95.2128,-16.7432,179.824,1.40625,-145.437,480
1571130132,242.218,-95.2128,-16.7432,179.824,1.40625,-145.437,480
1571130132,242.218,-95.2128,-16.7432,179.824,1.40625,-145.437,480
1571130132,242.218,-95.2128,-16.7432,179.824,1.40625,-145.437,480
1571130132,242.218,-95.2128,-16.7432,179.824,1.40625,-145.437,480
1571130132,242.218,-95.2128,-16.7432,179.824,1.40625,-145.437,480
1571130132,242.218,-95.2128,-16.7432,179.824,1.40625,-145.437,480
1571130132,242.218,-95.2128,-16.7432,179.824,1.40625,-145.437,480
1571130132,242.218,-95.2128,-16.7432,179.824,1.40625,-145.437,480
1571130132,242.218,-95.2128,-16.7432,179.824,1.40625,-145.437,480
1571130132,242.218,-95.2128,-16.7432,179.824,1.40625,-145.437,480
1571130132,242.218,-95.2128,-16.7432,179.824,1.40625,-145.437,480
1571130132,242.218,-95.2128,-16.7432,179.824,1.40625,-145.437,476
1571130132,242.218,-95.2128,-16.7432,179.824,1.40625,-145.437,476
1571130132,242.218,-95.2128,-16.7432,179.824,1.40625,-145.437,476
1571130132,242.218,-95.2128,-16.7432,179.824,1.40625,-145.437,476
1571130132,242.218,-95.2128,-16.7432,179.824,1.40625,-145.437,476
1571130132,242.218,-95.2128,-16.7432,179.846,1.40625,-145.437,476
1571130132,242.218,-95.2128,-16.7432,179.846,1.40625,-145.437,476
1571130132,242.218,-95.2128,-16.7432,179.846,1.40625,-145.437,476
1571130132,242.218,-95.2128,-16.7432,179.846,1.40625,-145.437,476
1571130132,242.218,-95.2128,-16.7432,179.846,1.40625,-145.437,476
1571130132,242.218,-95.2128,-16.7432,179.846,1.40625,-145.437,476
1571130132,242.218,-95.2128,-16.7432,179.846,1.40625,-145.437,476
1571130132,242.218,-95.2128,-16.7432,179.824,1.40625,-145.437,476
1571130132,242.218,-95.2128,-16.7432,179.824,1.40625,-145.437,476
1571130132,242.218,-95.2128,-16.7432,179.846,1.40625,-145.437,476
1571130132,242.218,-95.2128,-16.7432,179.846,1.40625,-145.437,476
1571130132,242.218,-95.2128,-16.7432,179.846,1.40625,-145.437,476
1571130132,242.218,-95.2128,-16.7432,179.846,1.40625,-145.437,476
1571130132,242.218,-95.2128,-16.7432,179.846,1.40625,-145.437,476
1571130132,242.218,-95.2128,-16.7432,179.846,1.40625,-145.437,476
1571130132,242.218,-95.2128,-16.7432,179.846,1.40625,-145.437,476
1571130132,242.218,-95.2128,-16.7432,179.846,1.40625,-145.437,476
1571130132,242.218,-95.2128,-16.7432,179.846,1.40625,-145.437,476
1571130132,242.218,-95.2128,-16.7432,179.846,1.40625,-145.437,476
1571130132,242.218,-95.2128,-16.7432,179.846,1.40625,-145.437,476
1571130132,242.218,-95.2128,-16.7432,179.846,1.40625,-145.437,476
1571130132,242.218,-95.2128,-16.7432,179.846,1.40625,-145.437,476
1571130132,242.218,-95.2128,-16.7432,179.846,1.40625,-145.437,476
1571130132,242.218,-95.2128,-16.7432,179.846,1.40625,-145.437,476
1571130132,242.218,-95.2128,-16.7432,179.846,1.40625,-145.437,476
1571130132,242.218,-95.2128,-16.7432,179.846,1.40625,-145.437,476
1571130132,242.218,-95.2128,-16.7432,179.846,1.40625,-145.437,476
1571130132,242.218,-95.2128,-16.7432,179.846,1.40625,-145.437,476
1571130132,242.218,-95.2128,-16.7432,179.846,1.40625,-145.437,476
1571130132,242.218,-95.2128,-16.7432,179.846,1.40625,-145.437,476
1571130132,242.218,-95.2128,-16.7432,179.846,1.40625,-145.437,476
1571130133,242.218,-95.2128,-16.7432,179.846,1.40625,-145.437,476
1571130133,242.218,-95.2128,-16.7432,179.846,1.40625,-145.437,476
1571130133,242.218,-95.2128,-16.7432,179.846,1.40625,-145.437,476
1571130133,242.218,-95.2128,-16.7432,179.846,1.40625,-145.437,476
1571130133,242.218,-95.2128,-16.7432,179.846,1.40625,-145.437,476
1571130133,242.218,-95.2128,-16.7432,179.846,1.40625,-145.437,476
1571130133,242.218,-95.2128,-16.7432,179.846,1.40625,-145.437,476
1571130133,242.218,-95.2128,-16.7432,179.846,1.40625,-145.437,476
1571130133,242.218,-95.2128,-16.7432,179.846,1.40625,-145.437,476
1571130133,242.218,-95.2128,-16.7432,179.846,1.40625,-145.437,476
1571130133,242.218,-95.2128,-16.7432,179.846,1.40625,-145.437,476
1571130133,242.218,-95.2128,-16.7432,179.846,1.40625,-145.437,476
1571130133,242.218,-95.2128,-16.7432,179.846,1.40625,-145.437,476
1571130133,242.218,-95.2128,-16.7432,179.824,1.40625,-145.437,476
1571130133,242.218,-95.2128,-16.7432,179.824,1.40625,-145.437,476
1571130133,242.218,-95.2128,-16.7432,179.824,1.40625,-145.437,476
1571130133,242.218,-95.2128,-16.7432,179.824,1.40625,-145.437,476
1571130133,242.218,-95.2128,-16.7432,179.824,1.40625,-145.437,476
1571130133,242.218,-95.2128,-16.7432,179.824,1.40625,-145.437,476
1571130133,242.218,-95.2128,-16.7432,179.824,1.40625,-145.437,476
1571130133,242.218,-95.2128,-16.7432,179.824,1.40625,-145.437,476
1571130133,242.218,-95.2128,-16.7432,179.824,1.40625,-145.437,476
1571130133,242.218,-95.2128,-16.7432,179.824,1.38428,-145.437,476
1571130133,242.218,-95.2128,-16.7432,179.824,1.38428,-145.437,476
1571130133,242.218,-95.2128,-16.7432,179.824,1.38428,-145.437,476
1571130133,242.218,-95.2128,-16.7432,179.824,1.38428,-145.437,476
1571130133,242.218,-95.2128,-16.7432,179.846,1.38428,-145.437,480
1571130133,242.218,-95.2128,-16.7432,179.846,1.38428,-145.437,480
1571130133,242.218,-95.2128,-16.7432,179.846,1.38428,-145.437,480
1571130133,242.218,-95.2128,-16.7432,179.846,1.38428,-145.437,480
1571130133,242.218,-95.2128,-16.7432,179.846,1.38428,-145.437,480
1571130133,242.218,-95.2128,-16.7432,179.846,1.40625,-145.437,480
1571130133,242.218,-95.2128,-16.7432,179.846,1.40625,-145.437,480
1571130133,242.218,-95.2128,-16.7432,179.846,1.40625,-145.437,480
1571130133,242.218,-95.2128,-16.7432,179.846,1.40625,-145.437,484
1571130133,242.218,-95.2128,-16.7432,179.846,1.40625,-145.437,484
1571130133,242.218,-95.2128,-16.7432,179.846,1.40625,-145.437,484
1571130133,242.218,-95.2128,-16.7432,179.846,1.40625,-145.437,484
1571130133,242.218,-95.2128,-16.7432,179.846,1.40625,-145.437,484
1571130133,242.218,-95.2128,-16.7432,179.846,1.40625,-145.437,484
1571130133,242.218,-95.2128,-16.7432,179.846,1.40625,-145.437,484
1571130133,242.218,-95.2128,-16.7432,179.846,1.40625,-145.437,484
1571130133,242.218,-95.2128,-16.7432,179.846,1.40625,-145.437,484
1571130133,242.218,-95.2128,-16.7432,179.846,1.40625,-145.437,484
1571130133,242.218,-95.2128,-16.7432,179.846,1.40625,-145.437,484
1571130133,242.218,-95.2128,-16.7432,179.846,1.40625,-145.437,484
1571130133,242.218,-95.2128,-16.7432,179.846,1.40625,-145.437,484
1571130133,242.218,-95.2128,-16.7432,179.846,1.40625,-145.437,484
1571130133,242.218,-95.2128,-16.7432,179.846,1.40625,-145.437,484
1571130133,242.218,-95.2128,-16.7432,179.846,1.38428,-145.437,484
1571130133,242.218,-95.2128,-16.7432,179.846,1.38428,-145.437,484
1571130133,242.218,-95.2128,-16.7432,179.846,1.38428,-145.437,484
1571130133,242.218,-95.2128,-16.7432,179.846,1.38428,-145.437,484
1571130133,242.218,-95.2128,-16.7432,179.846,1.38428,-145.437,484
1571130133,242.218,-95.2128,-16.7432,179.846,1.38428,-145.437,484
1571130133,242.218,-95.2128,-16.7432,179.846,1.38428,-145.437,484
1571130133,242.218,-95.2128,-16.7432,179.846,1.38428,-145.437,484
1571130133,242.218,-95.2128,-16.7432,179.846,1.40625,-145.437,484
1571130133,242.218,-95.2128,-16.7432,179.846,1.40625,-145.437,480
1571130133,242.218,-95.2128,-16.7432,179.846,1.40625,-145.437,480
1571130133,242.218,-95.2128,-16.7432,179.846,1.40625,-145.437,480
1571130133,242.218,-95.2128,-16.7432,179.846,1.40625,-145.437,480
1571130133,242.218,-95.2128,-16.7432,179.846,1.40625,-145.437,480
1571130133,242.218,-95.2128,-16.7432,179.846,1.40625,-145.437,480
1571130133,242.218,-95.2128,-16.7432,179.846,1.40625,-145.437,480
1571130133,242.218,-95.2128,-16.7432,179.846,1.40625,-145.437,480
1571130133,242.218,-95.2128,-16.7432,179.846,1.40625,-145.437,480
1571130133,242.218,-95.2128,-16.7432,179.846,1.40625,-145.437,480
1571130133,242.218,-95.2128,-16.7432,179.846,1.40625,-145.437,480
1571130133,242.218,-95.2128,-16.7432,179.846,1.40625,-145.437,480
1571130133,242.218,-95.2128,-16.7432,179.846,1.40625,-145.437,480
1571130133,242.218,-95.2128,-16.7432,179.846,1.40625,-145.437,480
1571130133,242.218,-95.2128,-16.7432,179.846,1.40625,-145.437,480
1571130133,242.218,-95.2128,-16.7432,179.846,1.38428,-145.437,480
1571130133,242.218,-95.2128,-16.7432,179.846,1.40625,-145.437,480
1571130133,242.218,-95.2128,-16.7432,179.846,1.40625,-145.437,480
1571130133,242.218,-95.2128,-16.7432,179.846,1.40625,-145.437,480
1571130133,242.218,-95.2128,-16.7432,179.846,1.38428,-145.437,480
1571130133,242.218,-95.2128,-16.7432,179.846,1.38428,-145.437,480
1571130133,242.218,-95.2128,-16.7432,179.846,1.38428,-145.437,480
1571130133,242.218,-95.2128,-16.7432,179.846,1.38428,-145.437,480
1571130133,242.218,-95.2128,-16.7432,179.846,1.38428,-145.437,480
1571130133,242.218,-95.2128,-16.7432,179.846,1.38428,-145.437,480
1571130133,242.218,-95.2128,-16.7432,179.846,1.38428,-145.437,480
1571130133,242.218,-95.2128,-16.7432,179.846,1.38428,-145.437,480
1571130133,242.218,-95.2128,-16.7432,179.846,1.38428,-145.437,480
1571130133,242.218,-95.2128,-16.7432,179.846,1.38428,-145.437,480
1571130133,242.218,-95.2128,-16.7432,179.846,1.38428,-145.437,480
1571130133,242.218,-95.2128,-16.7432,179.846,1.38428,-145.437,480
1571130133,242.218,-95.2128,-16.7432,179.846,1.38428,-145.437,480
1571130133,242.218,-95.2128,-16.7432,179.846,1.38428,-145.437,480
1571130133,242.218,-95.2128,-16.7432,179.846,1.40625,-145.437,480
1571130133,242.218,-95.2128,-16.7432,179.846,1.40625,-145.437,480
1571130133,242.218,-95.2128,-16.7432,179.846,1.40625,-145.437,480
1571130133,242.218,-95.2128,-16.7432,179.846,1.40625,-145.437,480
1571130133,242.218,-95.2128,-16.7432,179.846,1.40625,-145.437,484
1571130133,242.218,-95.2128,-16.7432,179.846,1.40625,-145.437,484
1571130133,242.218,-95.2128,-16.7432,179.846,1.40625,-145.437,484
1571130133,242.218,-95.2128,-16.7432,179.846,1.40625,-145.437,484
1571130133,242.218,-95.2128,-16.7432,179.846,1.40625,-145.437,484
1571130134,242.218,-95.2128,-16.7432,179.846,1.40625,-145.437,484
1571130134,242.218,-95.2128,-16.7432,179.846,1.40625,-145.437,484
1571130134,242.218,-95.2128,-16.7432,179.846,1.40625,-145.437,484
1571130134,242.218,-95.2128,-16.7432,179.846,1.40625,-145.437,484
1571130134,242.218,-95.2128,-16.7432,179.846,1.40625,-145.437,484
1571130134,242.218,-95.2128,-16.7432,179.846,1.40625,-145.437,484
1571130134,242.218,-95.2128,-16.7432,179.846,1.40625,-145.437,484
1571130134,242.218,-95.2128,-16.7432,179.846,1.40625,-145.437,480
1571130134,242.218,-95.2128,-16.7432,179.846,1.40625,-145.437,480
1571130134,242.218,-95.2128,-16.7432,179.846,1.40625,-145.437,480
1571130134,242.218,-95.2128,-16.7432,179.846,1.40625,-145.437,480
1571130134,242.218,-95.2128,-16.7432,179.846,1.40625,-145.437,480
1571130134,242.218,-95.2128,-16.7432,179.846,1.40625,-145.437,480
1571130134,242.218,-95.2128,-16.7432,179.846,1.40625,-145.437,480
1571130134,242.218,-95.2128,-16.7432,179.846,1.40625,-145.437,480
1571130134,242.218,-95.2128,-16.7432,179.846,1.40625,-145.437,480
1571130134,242.218,-95.2128,-16.7432,179.846,1.40625,-145.437,480
1571130134,242.218,-95.2128,-16.7432,179.846,1.40625,-145.437,480
1571130134,242.218,-95.2128,-16.7432,179.846,1.40625,-145.437,484
1571130134,242.218,-95.2128,-16.7432,179.846,1.40625,-145.437,484
1571130134,242.218,-95.2128,-16.7432,179.846,1.40625,-145.437,484
1571130134,242.218,-95.2128,-16.7432,179.846,1.40625,-145.437,484
1571130134,242.218,-95.2128,-16.7432,179.846,1.40625,-145.437,484
1571130134,242.218,-95.2128,-16.7432,179.846,1.40625,-145.437,484
1571130134,242.218,-95.2128,-16.7432,179.846,1.40625,-145.437,484
1571130134,242.218,-95.2128,-16.7432,179.846,1.40625,-145.437,484
1571130134,242.218,-95.2128,-16.7432,179.846,1.40625,-145.437,484
1571130134,242.218,-95.2128,-16.7432,179.846,1.40625,-145.437,484
1571130134,242.218,-95.2128,-16.7432,179.846,1.40625,-145.437,484
1571130134,242.218,-95.2128,-16.7432,179.846,1.40625,-145.437,484
1571130134,242.218,-95.2128,-16.7432,179.846,1.40625,-145.437,484
1571130134,242.218,-95.2128,-16.7432,179.846,1.40625,-145.437,484
1571130134,242.218,-95.2128,-16.7432,179.846,1.40625,-145.437,484
1571130134,242.218,-95.2128,-16.7432,179.846,1.40625,-145.437,480
1571130134,242.218,-95.2128,-16.7432,179.846,1.40625,-145.437,480
1571130134,242.218,-95.2128,-16.7432,179.846,1.38428,-145.437,480
1571130134,242.218,-95.2128,-16.7432,179.846,1.38428,-145.437,480
1571130134,242.218,-95.2128,-16.7432,179.846,1.38428,-145.437,480
1571130134,242.218,-95.2128,-16.7432,179.846,1.38428,-145.437,480
1571130134,242.218,-95.2128,-16.7432,179.846,1.38428,-145.437,480
1571130134,242.218,-95.2128,-16.7432,179.846,1.38428,-145.437,480
1571130134,242.218,-95.2128,-16.7432,179.824,1.38428,-145.437,480
1571130134,242.218,-95.2128,-16.7432,179.824,1.38428,-145.437,480
1571130134,242.218,-95.2128,-16.7432,179.824,1.40625,-145.437,480
1571130134,242.218,-95.2128,-16.7432,179.824,1.40625,-145.437,480
1571130134,242.218,-95.2128,-16.7432,179.824,1.40625,-145.437,480
1571130134,242.218,-95.2128,-16.7432,179.824,1.40625,-145.437,480
1571130134,242.218,-95.2128,-16.7432,179.824,1.40625,-145.437,480
1571130134,242.218,-95.2128,-16.7432,179.824,1.40625,-145.437,480
1571130134,242.218,-95.2128,-16.7432,179.824,1.40625,-145.437,480
1571130134,242.218,-95.2128,-16.7432,179.824,1.40625,-145.437,480
1571130134,242.218,-95.2128,-16.7432,179.824,1.40625,-145.437,480
1571130134,242.218,-95.2128,-16.7432,179.824,1.40625,-145.437,480
1571130134,242.218,-95.2128,-16.7432,179.824,1.40625,-145.437,480
1571130134,242.218,-95.2128,-16.7432,179.824,1.40625,-145.437,480
1571130134,242.218,-95.2128,-16.7432,179.846,1.40625,-145.437,480
1571130134,242.218,-95.2128,-16.7432,179.846,1.40625,-145.437,480
1571130134,242.218,-95.2128,-16.7432,179.846,1.40625,-145.437,480
1571130134,242.218,-95.2128,-16.7432,179.846,1.40625,-145.437,480
1571130134,242.218,-95.2128,-16.7432,179.846,1.40625,-145.437,480
1571130134,242.218,-95.2128,-16.7432,179.846,1.40625,-145.437,480
1571130134,242.218,-95.2128,-16.7432,179.846,1.40625,-145.437,480
1571130134,242.218,-95.2128,-16.7432,179.846,1.40625,-145.437,480
1571130134,242.218,-95.2128,-16.7432,179.824,1.40625,-145.437,480
1571130134,242.218,-95.2128,-16.7432,179.824,1.40625,-145.437,480
1571130134,242.218,-95.2128,-16.7432,179.824,1.40625,-145.437,480
1571130134,242.218,-95.2128,-16.7432,179.824,1.40625,-145.437,480
1571130134,242.218,-95.2128,-16.7432,179.824,1.40625,-145.437,480
1571130134,242.218,-95.2128,-16.7432,179.824,1.40625,-145.437,480
1571130134,242.218,-95.2128,-16.7432,179.824,1.40625,-145.437,480
1571130134,242.218,-95.2128,-16.7432,179.824,1.40625,-145.437,480
1571130134,242.218,-95.2128,-16.7432,179.824,1.40625,-145.437,476
1571130134,242.218,-95.2128,-16.7432,179.824,1.40625,-145.437,476
1571130134,242.218,-95.2128,-16.7432,179.846,1.40625,-145.437,476
1571130134,242.218,-95.2128,-16.7432,179.846,1.40625,-145.437,476
1571130134,242.218,-95.2128,-16.7432,179.846,1.40625,-145.437,476
1571130134,242.218,-95.2128,-16.7432,179.846,1.40625,-145.437,476
1571130134,242.218,-95.2128,-16.7432,179.846,1.40625,-145.437,476
1571130134,242.218,-95.2128,-16.7432,179.846,1.40625,-145.437,472
1571130134,242.218,-95.2128,-16.7432,179.846,1.40625,-145.437,472
1571130134,242.218,-95.2128,-16.7432,179.846,1.40625,-145.437,472
1571130134,242.218,-95.2128,-16.7432,179.846,1.40625,-145.437,472
1571130134,242.218,-95.2128,-16.7432,179.846,1.40625,-145.437,472
1571130134,242.218,-95.2128,-16.7432,179.846,1.40625,-145.437,472
1571130134,242.218,-95.2128,-16.7432,179.846,1.40625,-145.437,472
1571130134,242.218,-95.2128,-16.7432,179.846,1.38428,-145.437,472
1571130134,242.218,-95.2128,-16.7432,179.846,1.38428,-145.437,472
1571130134,242.218,-95.2128,-16.7432,179.846,1.38428,-145.437,472
1571130134,242.218,-95.2128,-16.7432,179.846,1.38428,-145.437,472
1571130134,242.218,-95.2128,-16.7432,179.846,1.38428,-145.437,472
1571130134,242.218,-95.2128,-16.7432,179.846,1.38428,-145.437,476
1571130134,242.218,-95.2128,-16.7432,179.846,1.38428,-145.437,476
1571130134,242.218,-95.2128,-16.7432,179.846,1.38428,-145.437,476
1571130134,242.218,-95.2128,-16.7432,179.846,1.38428,-145.437,476
1571130134,242.218,-95.2128,-16.7432,179.846,1.38428,-145.437,476
1571130134,242.218,-95.2128,-16.7432,179.846,1.38428,-145.437,476
1571130134,242.218,-95.2128,-16.7432,179.846,1.38428,-145.437,476
1571130134,242.218,-95.2128,-16.7432,179.846,1.38428,-145.437,476
1571130134,242.218,-95.2128,-16.7432,179.846,1.38428,-145.437,476
1571130134,242.218,-95.2128,-16.7432,179.846,1.38428,-145.437,476
1571130135,242.218,-95.2128,-16.7432,179.846,1.38428,-145.437,476
1571130135,242.218,-95.2128,-16.7432,179.846,1.38428,-145.437,476
1571130135,242.218,-95.2128,-16.7432,179.846,1.38428,-145.437,480
1571130135,242.218,-95.2128,-16.7432,179.846,1.38428,-145.437,480
1571130135,242.218,-95.2128,-16.7432,179.846,1.38428,-145.437,480
1571130135,242.218,-95.2128,-16.7432,179.846,1.38428,-145.437,480
1571130135,242.218,-95.2128,-16.7432,179.846,1.38428,-145.437,480
1571130135,242.218,-95.2128,-16.7432,179.846,1.38428,-145.437,480
1571130135,242.218,-95.2128,-16.7432,179.846,1.38428,-145.437,480
1571130135,242.218,-95.2128,-16.7432,179.846,1.38428,-145.437,480
1571130135,242.218,-95.2128,-16.7432,179.846,1.38428,-145.437,480
1571130135,242.218,-95.2128,-16.7432,179.846,1.38428,-145.437,480
1571130135,242.218,-95.2128,-16.7432,179.846,1.38428,-145.437,484
1571130135,242.218,-95.2128,-16.7432,179.846,1.38428,-145.437,484
1571130135,242.218,-95.2128,-16.7432,179.846,1.38428,-145.437,484
1571130135,242.218,-95.2128,-16.7432,179.846,1.38428,-145.437,484
1571130135,242.218,-95.2128,-16.7432,179.846,1.38428,-145.437,484
1571130135,242.218,-95.2128,-16.7432,179.846,1.38428,-145.437,484
1571130135,242.218,-95.2128,-16.7432,179.846,1.38428,-145.437,484
1571130135,242.218,-95.2128,-16.7432,179.846,1.38428,-145.437,484
1571130135,242.218,-95.2128,-16.7432,179.846,1.38428,-145.437,484
1571130135,242.218,-95.2128,-16.7432,179.846,1.38428,-145.437,484
1571130135,242.218,-95.2128,-16.7432,179.846,1.38428,-145.437,484
1571130135,242.218,-95.2128,-16.7432,179.846,1.38428,-145.437,484
1571130135,242.218,-95.2128,-16.7432,179.846,1.38428,-145.437,484
1571130135,242.218,-95.2128,-16.7432,179.846,1.38428,-145.437,484
1571130135,242.218,-95.2128,-16.7432,179.846,1.38428,-145.437,484
1571130135,242.218,-95.2128,-16.7432,179.846,1.38428,-145.437,484
1571130135,242.218,-95.2128,-16.7432,179.846,1.38428,-145.437,484
1571130135,242.218,-95.2128,-16.7432,179.846,1.38428,-145.437,484
1571130135,242.218,-95.2128,-16.7432,179.846,1.40625,-145.437,484
1571130135,242.218,-95.2128,-16.7432,179.846,1.40625,-145.437,484
1571130135,242.218,-95.2128,-16.7432,179.846,1.40625,-145.437,484
1571130135,242.218,-95.2128,-16.7432,179.846,1.38428,-145.437,484
1571130135,242.218,-95.2128,-16.7432,179.846,1.38428,-145.437,484
1571130135,242.218,-95.2128,-16.7432,179.846,1.38428,-145.437,480
1571130135,242.218,-95.2128,-16.7432,179.846,1.38428,-145.437,480
1571130135,242.218,-95.2128,-16.7432,179.846,1.38428,-145.437,480
1571130135,242.218,-95.2128,-16.7432,179.846,1.38428,-145.437,480
1571130135,242.218,-95.2128,-16.7432,179.846,1.38428,-145.437,480
1571130135,242.218,-95.2128,-16.7432,179.846,1.38428,-145.437,480
1571130135,242.218,-95.2128,-16.7432,179.846,1.38428,-145.437,480
1571130135,242.218,-95.2128,-16.7432,179.846,1.38428,-145.437,480
1571130135,242.218,-95.2128,-16.7432,179.846,1.38428,-145.437,480
1571130135,242.218,-95.2128,-16.7432,179.846,1.38428,-145.437,480
1571130135,242.218,-95.2128,-16.7432,179.846,1.38428,-145.437,480
1571130135,242.218,-95.2128,-16.7432,179.846,1.38428,-145.437,480
1571130135,242.218,-95.2128,-16.7432,179.846,1.38428,-145.437,480
1571130135,242.218,-95.2128,-16.7432,179.846,1.38428,-145.437,480
1571130135,242.218,-95.2128,-16.7432,179.846,1.38428,-145.437,480
1571130135,242.218,-95.2128,-16.7432,179.846,1.38428,-145.437,480
1571130135,242.218,-95.2128,-16.7432,179.846,1.38428,-145.437,480
1571130135,242.218,-95.2128,-16.7432,179.846,1.38428,-145.437,480
1571130135,242.218,-95.2128,-16.7432,179.846,1.38428,-145.437,480
1571130135,242.218,-95.2128,-16.7432,179.846,1.38428,-145.437,480
1571130135,242.218,-95.2128,-16.7432,179.846,1.38428,-145.437,480
1571130135,242.218,-95.2128,-16.7432,179.846,1.38428,-145.437,480
1571130135,242.218,-95.2128,-16.7432,179.846,1.38428,-145.437,480
1571130135,242.218,-95.2128,-16.7432,179.846,1.38428,-145.437,480
1571130135,242.218,-95.2128,-16.7432,179.846,1.38428,-145.437,480
1571130135,242.218,-95.2128,-16.7432,179.846,1.38428,-145.437,480
1571130135,242.218,-95.2128,-16.7432,179.846,1.38428,-145.437,480
1571130135,242.218,-95.2128,-16.7432,179.846,1.38428,-145.437,480
1571130135,242.218,-95.2128,-16.7432,179.846,1.38428,-145.437,480
1571130135,242.218,-95.2128,-16.7432,179.846,1.38428,-145.437,480
1571130135,242.218,-95.2128,-16.7432,179.846,1.38428,-145.437,480
1571130135,242.218,-95.2128,-16.7432,179.846,1.38428,-145.437,480
1571130135,242.218,-95.2128,-16.7432,179.846,1.38428,-145.437,484
1571130135,242.218,-95.2128,-16.7432,179.846,1.38428,-145.437,484
1571130135,242.218,-95.2128,-16.7432,179.846,1.38428,-145.437,484
1571130135,242.218,-95.2128,-16.7432,179.846,1.38428,-145.437,484
1571130135,242.218,-95.2128,-16.7432,179.824,1.38428,-145.437,484
1571130135,242.218,-95.2128,-16.7432,179.824,1.38428,-145.437,484
1571130135,242.218,-95.2128,-16.7432,179.824,1.38428,-145.437,484
1571130135,242.218,-95.2128,-16.7432,179.824,1.38428,-145.437,484
1571130135,242.218,-95.2128,-16.7432,179.824,1.38428,-145.437,484
1571130135,242.218,-95.2128,-16.7432,179.824,1.38428,-145.437,484
1571130135,242.218,-95.2128,-16.7432,179.824,1.38428,-145.437,484
1571130135,242.218,-95.2128,-16.7432,179.824,1.38428,-145.437,484
1571130135,242.218,-95.2128,-16.7432,179.824,1.38428,-145.437,484
1571130135,242.218,-95.2128,-16.7432,179.824,1.38428,-145.437,484
1571130135,242.218,-95.2128,-16.7432,179.824,1.38428,-145.437,484
1571130135,242.218,-95.2128,-16.7432,179.824,1.38428,-145.437,484
1571130135,242.218,-95.2128,-16.7432,179.824,1.38428,-145.437,484
1571130135,242.218,-95.2128,-16.7432,179.824,1.38428,-145.437,484
1571130135,242.218,-95.2128,-16.7432,179.824,1.38428,-145.437,484
1571130135,242.218,-95.2128,-16.7432,179.824,1.38428,-145.437,484
1571130135,242.218,-95.2128,-16.7432,179.824,1.38428,-145.437,484
1571130135,242.218,-95.2128,-16.7432,179.824,1.38428,-145.437,484
1571130135,242.218,-95.2128,-16.7432,179.824,1.38428,-145.437,484
1571130135,242.218,-95.2128,-16.7432,179.824,1.38428,-145.437,484
1571130135,242.218,-95.2128,-16.7432,179.824,1.38428,-145.437,484
1571130135,242.218,-95.2128,-16.7432,179.824,1.40625,-145.437,484
1571130135,242.218,-95.2128,-16.7432,179.824,1.40625,-145.437,484
1571130135,242.218,-95.2128,-16.7432,179.824,1.40625,-145.437,484
1571130135,242.218,-95.2128,-16.7432,179.824,1.40625,-145.437,484
1571130135,242.218,-95.2128,-16.7432,179.824,1.40625,-145.437,484
1571130135,242.218,-95.2128,-16.7432,179.824,1.40625,-145.437,484
1571130135,242.218,-95.2128,-16.7432,179.824,1.40625,-145.437,484
1571130135,242.218,-95.2128,-16.7432,179.824,1.40625,-145.437,484
1571130136,242.218,-95.2128,-16.7432,179.824,1.40625,-145.437,484
1571130136,242.218,-95.2128,-16.7432,179.824,1.40625,-145.437,484
1571130136,242.218,-95.2128,-16.7432,179.824,1.40625,-145.437,484
1571130136,242.218,-95.2128,-16.7432,179.824,1.40625,-145.437,480
1571130136,242.218,-95.2128,-16.7432,179.824,1.40625,-145.437,480
1571130136,242.218,-95.2128,-16.7432,179.824,1.40625,-145.437,480
1571130136,242.218,-95.2128,-16.7432,179.824,1.40625,-145.437,480
1571130136,242.218,-95.2128,-16.7432,179.846,1.40625,-145.437,480
1571130136,242.218,-95.2128,-16.7432,179.846,1.40625,-145.437,480
1571130136,242.218,-95.2128,-16.7432,179.846,1.40625,-145.437,480
1571130136,242.218,-95.2128,-16.7432,179.846,1.40625,-145.437,480
1571130136,242.218,-95.2128,-16.7432,179.846,1.40625,-145.437,480
1571130136,242.218,-95.2128,-16.7432,179.846,1.40625,-145.437,480
1571130136,242.218,-95.2128,-16.7432,179.846,1.40625,-145.437,480
1571130136,242.218,-95.2128,-16.7432,179.846,1.40625,-145.437,480
1571130136,242.218,-95.2128,-16.7432,179.846,1.40625,-145.437,480
1571130136,242.218,-95.2128,-16.7432,179.846,1.40625,-145.437,480
1571130136,242.218,-95.2128,-16.7432,179.846,1.40625,-145.437,480
1571130136,242.218,-95.2128,-16.7432,179.846,1.40625,-145.437,480
1571130136,242.218,-95.2128,-16.7432,179.846,1.40625,-145.437,484
1571130136,242.218,-95.2128,-16.7432,179.846,1.40625,-145.437,484
1571130136,242.218,-95.2128,-16.7432,179.846,1.40625,-145.437,484
1571130136,242.218,-95.2128,-16.7432,179.846,1.40625,-145.437,484
1571130136,242.218,-95.2128,-16.7432,179.846,1.40625,-145.437,484
1571130136,242.218,-95.2128,-16.7432,179.846,1.40625,-145.437,484
1571130136,242.218,-95.2128,-16.7432,179.846,1.40625,-145.437,484
1571130136,242.218,-95.2128,-16.7432,179.846,1.40625,-145.437,484
1571130136,242.218,-95.2128,-16.7432,179.846,1.40625,-145.437,484
1571130136,242.218,-95.2128,-16.7432,179.846,1.40625,-145.437,484
1571130136,242.218,-95.2128,-16.7432,179.846,1.40625,-145.437,484
1571130136,242.218,-95.2128,-16.7432,179.824,1.40625,-145.437,484
1571130136,242.218,-95.2128,-16.7432,179.824,1.40625,-145.437,484
1571130136,242.218,-95.2128,-16.7432,179.824,1.40625,-145.437,484
1571130136,242.218,-95.2128,-16.7432,179.824,1.40625,-145.437,484
1571130136,242.218,-95.2128,-16.7432,179.824,1.40625,-145.437,484
1571130136,242.218,-95.2128,-16.7432,179.824,1.40625,-145.437,484
1571130136,242.218,-95.2128,-16.7432,179.824,1.40625,-145.437,484
1571130136,242.218,-95.2128,-16.7432,179.824,1.40625,-145.437,484
1571130136,242.218,-95.2128,-16.7432,179.824,1.40625,-145.437,484
1571130136,242.218,-95.2128,-16.7432,179.824,1.40625,-145.437,484
1571130136,242.218,-95.2128,-16.7432,179.824,1.40625,-145.437,484
1571130136,242.218,-95.2128,-16.7432,179.824,1.40625,-145.437,484
1571130136,242.218,-95.2128,-16.7432,179.824,1.40625,-145.437,484
1571130136,242.218,-95.2128,-16.7432,179.824,1.40625,-145.437,484
1571130136,242.218,-95.2128,-16.7432,179.824,1.40625,-145.437,484
1571130136,242.218,-95.2128,-16.7432,179.824,1.40625,-145.437,484
1571130136,242.218,-95.2128,-16.7432,179.824,1.40625,-145.437,484
1571130136,242.218,-95.2128,-16.7432,179.824,1.40625,-145.437,484
1571130136,242.218,-95.2128,-16.7432,179.824,1.40625,-145.437,484
1571130136,242.218,-95.2128,-16.7432,179.824,1.40625,-145.437,484
1571130136,242.218,-95.2128,-16.7432,179.824,1.40625,-145.437,480
1571130136,242.218,-95.2128,-16.7432,179.824,1.40625,-145.437,480
1571130136,242.218,-95.2128,-16.7432,179.824,1.40625,-145.437,480
1571130136,242.218,-95.2128,-16.7432,179.824,1.40625,-145.437,480
1571130136,242.218,-95.2128,-16.7432,179.824,1.40625,-145.437,480
1571130136,242.218,-95.2128,-16.7432,179.824,1.40625,-145.437,480
1571130136,242.218,-95.2128,-16.7432,179.824,1.40625,-145.437,480
1571130136,242.218,-95.2128,-16.7432,179.824,1.40625,-145.437,480
1571130136,242.218,-95.2128,-16.7432,179.824,1.40625,-145.437,480
1571130136,242.218,-95.2128,-16.7432,179.824,1.40625,-145.437,480
1571130136,242.218,-95.2128,-16.7432,179.824,1.40625,-145.437,480
1571130136,242.218,-95.2128,-16.7432,179.824,1.40625,-145.437,480
1571130136,242.218,-95.2128,-16.7432,179.846,1.40625,-145.437,480
1571130136,242.218,-95.2128,-16.7432,179.846,1.40625,-145.437,480
1571130136,242.218,-95.2128,-16.7432,179.846,1.40625,-145.437,480
1571130136,242.218,-95.2128,-16.7432,179.846,1.40625,-145.437,480
1571130136,242.218,-95.2128,-16.7432,179.846,1.38428,-145.437,480
1571130136,242.218,-95.2128,-16.7432,179.846,1.38428,-145.437,480
1571130136,242.218,-95.2128,-16.7432,179.846,1.38428,-145.437,480
1571130136,242.218,-95.2128,-16.7432,179.846,1.38428,-145.437,480
1571130136,242.218,-95.2128,-16.7432,179.846,1.40625,-145.437,480
1571130136,242.218,-95.2128,-16.7432,179.846,1.40625,-145.437,480
1571130136,242.218,-95.2128,-16.7432,179.846,1.40625,-145.437,480
1571130136,242.218,-95.2128,-16.7432,179.846,1.40625,-145.437,480
1571130136,242.218,-95.2128,-16.7432,179.846,1.40625,-145.437,480
1571130136,242.218,-95.2128,-16.7432,179.846,1.40625,-145.437,480
1571130136,242.218,-95.2128,-16.7432,179.846,1.40625,-145.437,480
1571130136,242.218,-95.2128,-16.7432,179.846,1.40625,-145.437,480
1571130136,242.218,-95.2128,-16.7432,179.846,1.40625,-145.437,480
1571130136,242.218,-95.2128,-16.7432,179.846,1.40625,-145.437,480
1571130136,242.218,-95.2128,-16.7432,179.824,1.40625,-145.437,480
1571130136,242.218,-95.2128,-16.7432,179.824,1.40625,-145.437,480
1571130136,242.218,-95.2128,-16.7432,179.824,1.40625,-145.437,480
1571130136,242.218,-95.2128,-16.7432,179.824,1.40625,-145.437,480
1571130136,242.218,-95.2128,-16.7432,179.824,1.40625,-145.437,480
1571130136,242.218,-95.2128,-16.7432,179.824,1.40625,-145.437,480
1571130136,242.218,-95.2128,-16.7432,179.824,1.40625,-145.437,480
1571130136,242.218,-95.2128,-16.7432,179.824,1.40625,-145.437,480
1571130136,242.218,-95.2128,-16.7432,179.824,1.40625,-145.437,480
1571130136,242.218,-95.2128,-16.7432,179.824,1.40625,-145.437,480
1571130136,242.218,-95.2128,-16.7432,179.824,1.40625,-145.437,480
1571130136,242.218,-95.2128,-16.7432,179.824,1.40625,-145.437,480
1571130136,242.218,-95.2128,-16.7432,179.824,1.40625,-145.437,480
1571130136,242.218,-95.2128,-16.7432,179.824,1.40625,-145.437,480
1571130136,242.218,-95.2128,-16.7432,179.824,1.40625,-145.437,480
1571130136,242.218,-95.2128,-16.7432,179.824,1.40625,-145.437,480
1571130136,242.218,-95.2128,-16.7432,179.824,1.40625,-145.437,480
1571130136,242.218,-95.2128,-16.7432,179.824,1.40625,-145.437,480
1571130136,242.218,-95.2128,-16.7432,179.824,1.40625,-145.437,480
1571130136,242.218,-95.2128,-16.7432,179.824,1.40625,-145.437,480
1571130137,242.218,-95.2128,-16.7432,179.824,1.40625,-145.437,480
1571130137,242.218,-95.2128,-16.7432,179.824,1.40625,-145.437,480
1571130137,242.218,-95.2128,-16.7432,179.824,1.40625,-145.437,480
1571130137,242.218,-95.2128,-16.7432,179.824,1.40625,-145.437,480
1571130144,257.621,-111.509,-16.7432,179.868,1.25244,-145.151,532
1571130144,257.621,-111.509,-16.7432,179.868,1.25244,-145.151,532
1571130144,257.621,-111.509,-16.7432,179.89,1.25244,-145.151,532
1571130144,257.621,-111.509,-16.7432,179.89,1.25244,-145.151,532
1571130144,257.621,-111.509,-16.7432,179.89,1.25244,-145.151,532
1571130144,257.621,-111.509,-16.7432,179.89,1.25244,-145.151,532
1571130144,257.621,-111.509,-16.7432,179.89,1.25244,-145.151,532
1571130144,257.621,-111.509,-16.7432,179.89,1.25244,-145.151,532
1571130144,257.621,-111.509,-16.7432,179.89,1.25244,-145.151,532
1571130144,257.621,-111.509,-16.7432,179.89,1.25244,-145.129,532
1571130144,257.621,-111.509,-16.7432,179.89,1.25244,-145.129,532
1571130144,257.621,-111.509,-16.7432,179.89,1.25244,-145.129,532
1571130144,257.621,-111.509,-16.7432,179.89,1.25244,-145.129,528
1571130144,257.621,-111.509,-16.7432,179.89,1.25244,-145.129,528
1571130144,257.621,-111.509,-16.7432,179.89,1.25244,-145.129,528
1571130144,257.621,-111.509,-16.7432,179.89,1.25244,-145.129,528
1571130144,257.621,-111.509,-16.7432,179.89,1.25244,-145.129,528
1571130144,257.621,-111.509,-16.7432,179.89,1.25244,-145.151,528
1571130144,257.621,-111.509,-16.7432,179.89,1.25244,-145.151,528
1571130144,257.621,-111.509,-16.7432,179.89,1.25244,-145.151,528
1571130144,257.621,-111.509,-16.7432,179.89,1.25244,-145.151,524
1571130144,257.621,-111.509,-16.7432,179.89,1.25244,-145.151,524
1571130144,257.621,-111.509,-16.7432,179.89,1.25244,-145.151,524
1571130144,257.621,-111.509,-16.7432,179.89,1.25244,-145.151,524
1571130144,257.621,-111.509,-16.7432,179.89,1.25244,-145.151,524
1571130144,257.621,-111.509,-16.7432,179.89,1.25244,-145.151,524
1571130144,257.621,-111.509,-16.7432,179.89,1.25244,-145.151,524
1571130144,257.621,-111.509,-16.7432,179.89,1.25244,-145.151,524
1571130144,257.621,-111.509,-16.7432,179.89,1.23047,-145.151,520
1571130144,257.621,-111.509,-16.7432,179.89,1.23047,-145.151,520
1571130144,257.621,-111.509,-16.7432,179.89,1.23047,-145.151,520
1571130144,257.621,-111.509,-16.7432,179.89,1.23047,-145.151,524
1571130144,257.621,-111.509,-16.7432,179.89,1.23047,-145.151,524
1571130144,257.621,-111.509,-16.7432,179.89,1.23047,-145.151,524
1571130144,257.621,-111.509,-16.7432,179.89,1.23047,-145.129,524
1571130144,257.621,-111.509,-16.7432,179.89,1.23047,-145.129,524
1571130144,257.621,-111.509,-16.7432,179.89,1.23047,-145.129,524
1571130144,257.621,-111.509,-16.7432,179.89,1.23047,-145.129,524
1571130144,257.621,-111.509,-16.7432,179.89,1.25244,-145.129,524
1571130144,257.621,-111.509,-16.7432,179.89,1.25244,-145.129,524
1571130144,257.621,-111.509,-16.7432,179.89,1.25244,-145.151,524
1571130144,257.621,-111.509,-16.7432,179.89,1.25244,-145.151,524
1571130144,257.621,-111.509,-16.7432,179.89,1.25244,-145.151,524
1571130144,257.621,-111.509,-16.7432,179.89,1.25244,-145.151,528
1571130144,257.621,-111.509,-16.7432,179.89,1.25244,-145.151,528
1571130144,257.621,-111.509,-16.7432,179.89,1.25244,-145.151,528
1571130144,257.621,-111.509,-16.7432,179.89,1.25244,-145.151,528
1571130144,257.621,-111.509,-16.7432,179.89,1.25244,-145.151,528
1571130144,257.621,-111.509,-16.7432,179.89,1.25244,-145.151,528
1571130144,257.621,-111.509,-16.7432,179.89,1.25244,-145.151,528
1571130144,257.621,-111.509,-16.7432,179.89,1.25244,-145.151,528
1571130144,257.621,-111.509,-16.7432,179.89,1.25244,-145.151,528
1571130144,257.621,-111.509,-16.7432,179.89,1.25244,-145.151,528
1571130144,257.621,-111.509,-16.7432,179.89,1.25244,-145.151,528
1571130144,257.621,-111.509,-16.7432,179.89,1.25244,-145.151,528
1571130144,257.621,-111.509,-16.7432,179.89,1.25244,-145.151,528
1571130144,257.621,-111.509,-16.7432,179.89,1.25244,-145.151,528
1571130144,257.621,-111.509,-16.7432,179.89,1.25244,-145.151,528
1571130144,257.621,-111.509,-16.7432,179.89,1.25244,-145.151,532
1571130144,257.621,-111.509,-16.7432,179.89,1.25244,-145.151,532
1571130144,257.621,-111.509,-16.7432,179.89,1.25244,-145.151,532
1571130144,257.621,-111.509,-16.7432,179.89,1.25244,-145.151,532
1571130145,257.621,-111.509,-16.7432,179.89,1.25244,-145.151,532
1571130145,257.621,-111.509,-16.7432,179.89,1.25244,-145.151,532
1571130145,257.621,-111.509,-16.7432,179.89,1.25244,-145.151,532
1571130145,257.621,-111.509,-16.7432,179.89,1.25244,-145.151,532
1571130145,257.621,-111.509,-16.7432,179.89,1.25244,-145.151,532
1571130145,257.621,-111.509,-16.7432,179.89,1.25244,-145.151,532
1571130145,257.621,-111.509,-16.7432,179.89,1.25244,-145.151,532
1571130145,257.621,-111.509,-16.7432,179.89,1.25244,-145.151,532
1571130145,257.621,-111.509,-16.7432,179.89,1.25244,-145.151,532
1571130145,257.621,-111.509,-16.7432,179.89,1.25244,-145.151,532
1571130145,257.621,-111.509,-16.7432,179.89,1.25244,-145.151,532
1571130145,257.621,-111.509,-16.7432,179.89,1.23047,-145.151,532
1571130145,257.621,-111.509,-16.7432,179.89,1.23047,-145.151,536
1571130145,257.621,-111.509,-16.7432,179.89,1.23047,-145.151,536
1571130145,257.621,-111.509,-16.7432,179.89,1.23047,-145.151,536
1571130145,257.621,-111.509,-16.7432,179.89,1.23047,-145.151,536
1571130145,257.51,-111.509,-16.7432,179.89,1.23047,-145.151,536
1571130145,257.51,-111.509,-16.7432,179.868,1.23047,-145.151,536
1571130145,257.51,-111.509,-16.7432,179.868,1.23047,-145.151,536
1571130145,257.51,-111.509,-16.7432,179.868,1.23047,-145.151,536
1571130145,257.51,-111.509,-16.7432,179.868,1.23047,-145.151,536
1571130145,257.51,-111.509,-16.7432,179.868,1.23047,-145.151,536
1571130145,257.51,-111.509,-16.7432,179.868,1.23047,-145.151,536
1571130145,257.51,-111.509,-16.7432,179.868,1.23047,-145.151,536
1571130145,257.51,-111.509,-16.7432,179.868,1.23047,-145.151,536
1571130145,257.51,-111.509,-16.7432,179.868,1.23047,-145.151,536
1571130145,257.51,-111.509,-16.7432,179.868,1.23047,-145.151,536
1571130145,257.51,-111.509,-16.7432,179.868,1.23047,-145.151,536
1571130145,257.51,-111.509,-16.7432,179.868,1.23047,-145.151,536
1571130145,257.51,-111.509,-16.7432,179.868,1.25244,-145.151,536
1571130145,257.51,-111.509,-16.7432,179.868,1.25244,-145.151,536
1571130145,257.51,-111.509,-16.7432,179.868,1.25244,-145.151,536
1571130145,257.51,-111.509,-16.7432,179.868,1.25244,-145.151,536
1571130145,257.51,-111.509,-16.7432,179.868,1.25244,-145.151,536
1571130145,257.51,-111.509,-16.7432,179.868,1.25244,-145.151,536
1571130145,257.51,-111.509,-16.7432,179.868,1.25244,-145.151,536
1571130145,257.51,-111.509,-16.7432,179.868,1.25244,-145.151,536
1571130145,257.51,-111.509,-16.7432,179.868,1.25244,-145.151,536
1571130145,257.51,-111.509,-16.7432,179.868,1.25244,-145.129,532
1571130145,257.51,-111.509,-16.7432,179.89,1.25244,-145.129,532
1571130145,257.51,-111.509,-16.7432,179.89,1.25244,-145.129,532
1571130145,257.51,-111.509,-16.7432,179.89,1.25244,-145.129,532
1571130145,257.51,-111.509,-16.7432,179.89,1.25244,-145.129,532
1571130145,257.621,-111.509,-16.7432,179.89,1.25244,-145.129,532
1571130145,257.51,-111.509,-16.7432,179.89,1.25244,-145.129,532
1571130145,257.51,-111.509,-16.7432,179.89,1.25244,-145.129,532
1571130145,257.51,-111.509,-16.6315,179.89,1.25244,-145.129,532
1571130145,257.51,-111.509,-16.6315,179.89,1.25244,-145.129,532
1571130145,257.51,-111.509,-16.6315,179.89,1.25244,-145.129,532
1571130145,257.51,-111.509,-16.7432,179.89,1.25244,-145.129,532
1571130145,257.621,-111.509,-16.7432,179.89,1.25244,-145.129,532
1571130145,257.621,-111.509,-16.7432,179.89,1.25244,-145.129,532
1571130145,257.621,-111.509,-16.7432,179.89,1.25244,-145.129,532
1571130145,257.621,-111.509,-16.7432,179.89,1.25244,-145.129,532
1571130145,257.621,-111.509,-16.7432,179.89,1.25244,-145.129,532
1571130145,257.621,-111.509,-16.7432,179.89,1.25244,-145.129,532
1571130145,257.621,-111.509,-16.7432,179.89,1.25244,-145.129,532
1571130145,257.621,-111.509,-16.7432,179.89,1.25244,-145.129,532
1571130145,257.621,-111.509,-16.7432,179.89,1.25244,-145.129,532
1571130145,257.621,-111.509,-16.7432,179.89,1.25244,-145.129,532
1571130145,257.621,-111.509,-16.7432,179.89,1.25244,-145.129,532
1571130145,257.621,-111.509,-16.7432,179.89,1.25244,-145.129,532
1571130145,257.621,-111.509,-16.7432,179.89,1.25244,-145.129,532
1571130145,257.621,-111.509,-16.7432,179.89,1.25244,-145.129,536
1571130145,257.621,-111.509,-16.7432,179.89,1.25244,-145.129,536
1571130145,257.621,-111.509,-16.7432,179.89,1.25244,-145.129,536
1571130145,257.621,-111.509,-16.7432,179.89,1.25244,-145.129,536
1571130145,257.621,-111.509,-16.7432,179.89,1.25244,-145.129,536
1571130145,257.621,-111.509,-16.7432,179.89,1.25244,-145.129,536
1571130145,257.621,-111.509,-16.7432,179.89,1.25244,-145.129,536
1571130145,257.621,-111.509,-16.7432,179.89,1.25244,-145.129,536
1571130145,257.621,-111.509,-16.7432,179.89,1.25244,-145.129,536
1571130145,257.621,-111.509,-16.7432,179.89,1.25244,-145.129,536
1571130145,257.621,-111.509,-16.7432,179.89,1.25244,-145.129,536
1571130145,257.621,-111.509,-16.7432,179.89,1.25244,-145.129,536
1571130145,257.621,-111.509,-16.7432,179.89,1.25244,-145.129,536
1571130145,257.621,-111.509,-16.7432,179.89,1.25244,-145.129,536
1571130145,257.621,-111.509,-16.7432,179.89,1.25244,-145.129,536
1571130145,257.621,-111.509,-16.7432,179.89,1.25244,-145.129,536
1571130145,257.621,-111.509,-16.6315,179.89,1.25244,-145.129,536
1571130145,257.621,-111.509,-16.6315,179.89,1.25244,-145.129,536
1571130145,257.621,-111.509,-16.6315,179.89,1.25244,-145.129,536
1571130145,257.621,-111.509,-16.6315,179.89,1.25244,-145.129,536
1571130145,257.621,-111.509,-16.6315,179.89,1.25244,-145.129,536
1571130145,257.621,-111.509,-16.6315,179.89,1.25244,-145.129,536
1571130145,257.621,-111.509,-16.6315,179.89,1.25244,-145.129,536
1571130145,257.621,-111.509,-16.6315,179.89,1.25244,-145.129,536
1571130145,257.621,-111.509,-16.6315,179.89,1.25244,-145.129,536
1571130145,257.621,-111.509,-16.6315,179.89,1.27441,-145.129,536
1571130145,257.621,-111.509,-16.6315,179.89,1.27441,-145.129,536
1571130145,257.621,-111.509,-16.6315,179.89,1.27441,-145.129,536
1571130145,257.621,-111.509,-16.6315,179.89,1.25244,-145.129,536
1571130145,257.621,-111.509,-16.6315,179.89,1.25244,-145.129,536
1571130145,257.621,-111.509,-16.6315,179.89,1.25244,-145.129,536
1571130145,257.621,-111.509,-16.6315,179.89,1.25244,-145.129,536
1571130145,257.621,-111.509,-16.6315,179.89,1.25244,-145.129,536
1571130145,257.621,-111.509,-16.6315,179.89,1.25244,-145.129,536
1571130145,257.621,-111.509,-16.6315,179.89,1.25244,-145.129,536
1571130145,257.621,-111.509,-16.6315,179.89,1.25244,-145.129,536
1571130145,257.621,-111.509,-16.6315,179.89,1.25244,-145.129,536
1571130146,257.621,-111.509,-16.6315,179.89,1.25244,-145.129,536
1571130146,257.621,-111.509,-16.7432,179.89,1.25244,-145.129,540
1571130146,257.621,-111.509,-16.7432,179.89,1.25244,-145.129,540
1571130146,257.621,-111.509,-16.7432,179.89,1.25244,-145.129,540
1571130146,257.621,-111.509,-16.7432,179.89,1.25244,-145.129,540
1571130146,257.621,-111.509,-16.7432,179.89,1.25244,-145.129,540
1571130146,257.621,-111.509,-16.7432,179.89,1.25244,-145.129,540
1571130146,257.621,-111.509,-16.7432,179.89,1.25244,-145.129,540
1571130146,257.621,-111.509,-16.6315,179.89,1.25244,-145.129,544
1571130146,257.621,-111.509,-16.6315,179.89,1.25244,-145.129,544
1571130146,257.621,-111.509,-16.6315,179.89,1.25244,-145.129,544
1571130146,257.621,-111.509,-16.6315,179.89,1.25244,-145.129,544
1571130146,257.621,-111.509,-16.6315,179.89,1.25244,-145.129,544
1571130146,257.621,-111.509,-16.6315,179.89,1.25244,-145.129,544
1571130146,257.621,-111.509,-16.7432,179.89,1.25244,-145.129,544
1571130146,257.621,-111.509,-16.7432,179.89,1.25244,-145.129,544
1571130146,257.621,-111.509,-16.7432,179.89,1.25244,-145.129,544
1571130146,257.621,-111.509,-16.7432,179.89,1.25244,-145.129,544
1571130146,257.621,-111.509,-16.7432,179.89,1.25244,-145.129,544
1571130146,257.621,-111.509,-16.7432,179.89,1.25244,-145.129,544
1571130146,257.621,-111.509,-16.7432,179.89,1.25244,-145.129,544
1571130146,257.621,-111.509,-16.7432,179.89,1.25244,-145.129,540
1571130146,257.621,-111.509,-16.7432,179.89,1.25244,-145.129,540
1571130146,257.621,-111.509,-16.7432,179.89,1.25244,-145.129,540
1571130146,257.621,-111.509,-16.7432,179.89,1.25244,-145.129,540
1571130146,257.621,-111.509,-16.7432,179.89,1.25244,-145.129,540
1571130146,257.621,-111.509,-16.7432,179.89,1.25244,-145.129,540
1571130146,257.621,-111.509,-16.7432,179.89,1.25244,-145.129,540
1571130146,257.621,-111.509,-16.7432,179.89,1.25244,-145.129,540
1571130146,257.621,-111.509,-16.7432,179.89,1.25244,-145.129,540
1571130146,257.621,-111.509,-16.7432,179.89,1.25244,-145.129,540
1571130146,257.621,-111.509,-16.7432,179.89,1.25244,-145.129,540
1571130146,257.621,-111.509,-16.7432,179.89,1.25244,-145.129,540
1571130146,257.621,-111.509,-16.7432,179.89,1.25244,-145.129,540
1571130146,257.621,-111.509,-16.7432,179.89,1.25244,-145.129,540
1571130146,257.621,-111.509,-16.7432,179.89,1.25244,-145.129,540
1571130146,257.621,-111.509,-16.7432,179.89,1.25244,-145.129,540
1571130146,257.621,-111.509,-16.7432,179.89,1.25244,-145.129,540
1571130146,257.621,-111.509,-16.7432,179.89,1.25244,-145.129,540
1571130146,257.621,-111.509,-16.7432,179.89,1.25244,-145.129,536
1571130146,257.621,-111.509,-16.7432,179.89,1.25244,-145.129,536
1571130146,257.621,-111.509,-16.7432,179.89,1.25244,-145.129,536
1571130146,257.621,-111.509,-16.7432,179.89,1.25244,-145.129,536
1571130146,257.621,-111.509,-16.7432,179.89,1.25244,-145.129,536
1571130146,257.621,-111.509,-16.7432,179.89,1.25244,-145.129,536
1571130146,257.621,-111.509,-16.7432,179.89,1.23047,-145.129,536
1571130146,257.621,-111.509,-16.7432,179.89,1.23047,-145.129,536
1571130146,257.621,-111.509,-16.7432,179.89,1.23047,-145.129,536
1571130146,257.621,-111.509,-16.7432,179.89,1.23047,-145.129,536
1571130146,257.621,-111.509,-16.7432,179.89,1.23047,-145.129,536
1571130146,257.621,-111.509,-16.7432,179.89,1.23047,-145.129,536
1571130146,257.621,-111.509,-16.7432,179.89,1.23047,-145.129,536
1571130146,257.621,-111.509,-16.7432,179.89,1.23047,-145.129,536
1571130146,257.621,-111.509,-16.7432,179.89,1.23047,-145.151,536
1571130146,257.621,-111.509,-16.7432,179.89,1.23047,-145.151,536
1571130146,257.621,-111.509,-16.7432,179.89,1.23047,-145.151,536
1571130146,257.621,-111.509,-16.7432,179.89,1.23047,-145.151,532
1571130146,257.621,-111.509,-16.7432,179.89,1.25244,-145.151,532
1571130146,257.621,-111.509,-16.7432,179.89,1.25244,-145.151,532
1571130146,257.621,-111.509,-16.7432,179.89,1.25244,-145.129,532
1571130146,257.621,-111.509,-16.7432,179.89,1.25244,-145.129,532
1571130146,257.621,-111.509,-16.7432,179.89,1.25244,-145.129,532
1571130146,257.621,-111.509,-16.7432,179.89,1.25244,-145.129,532
1571130146,257.621,-111.509,-16.7432,179.89,1.25244,-145.129,532
1571130146,257.621,-111.509,-16.7432,179.89,1.25244,-145.129,532
1571130146,257.621,-111.509,-16.7432,179.89,1.25244,-145.129,528
1571130146,257.621,-111.509,-16.7432,179.89,1.23047,-145.129,528
1571130146,257.621,-111.509,-16.7432,179.89,1.23047,-145.129,528
1571130146,257.621,-111.509,-16.7432,179.89,1.23047,-145.129,528
1571130146,257.621,-111.509,-16.7432,179.89,1.23047,-145.129,528
1571130146,257.621,-111.509,-16.7432,179.89,1.23047,-145.129,528
1571130146,257.621,-111.509,-16.7432,179.89,1.23047,-145.129,528
1571130146,257.621,-111.509,-16.7432,179.89,1.23047,-145.129,528
1571130146,257.621,-111.509,-16.7432,179.89,1.23047,-145.129,528
1571130146,257.621,-111.509,-16.7432,179.89,1.23047,-145.129,528
1571130146,257.621,-111.509,-16.7432,179.89,1.23047,-145.129,528
1571130146,257.621,-111.509,-16.7432,179.89,1.23047,-145.129,528
1571130146,257.621,-111.509,-16.7432,179.89,1.23047,-145.129,528
1571130146,257.621,-111.509,-16.7432,179.89,1.23047,-145.129,528
1571130146,257.621,-111.509,-16.7432,179.89,1.23047,-145.129,528
1571130146,257.621,-111.509,-16.7432,179.89,1.23047,-145.129,528
1571130146,257.621,-111.509,-16.7432,179.89,1.23047,-145.129,528
1571130146,257.621,-111.509,-16.7432,179.89,1.23047,-145.129,528
1571130146,257.621,-111.509,-16.7432,179.89,1.25244,-145.129,528
1571130146,257.621,-111.509,-16.7432,179.89,1.25244,-145.129,528
1571130146,257.621,-111.509,-16.7432,179.89,1.25244,-145.129,528
1571130146,257.621,-111.509,-16.7432,179.89,1.25244,-145.129,528
1571130146,257.621,-111.509,-16.7432,179.89,1.25244,-145.129,528
1571130146,257.621,-111.509,-16.7432,179.89,1.25244,-145.129,528
1571130146,257.621,-111.509,-16.7432,179.89,1.25244,-145.129,528
1571130146,257.621,-111.509,-16.7432,179.89,1.25244,-145.129,528
1571130146,257.621,-111.509,-16.7432,179.89,1.25244,-145.129,528
1571130146,257.621,-111.509,-16.7432,179.89,1.25244,-145.129,528
1571130146,257.621,-111.509,-16.7432,179.868,1.25244,-145.129,528
1571130146,257.621,-111.509,-16.7432,179.868,1.25244,-145.129,528
1571130146,257.621,-111.509,-16.7432,179.868,1.25244,-145.129,528
1571130146,257.621,-111.509,-16.7432,179.868,1.25244,-145.151,528
1571130146,257.621,-111.509,-16.7432,179.868,1.25244,-145.151,528
1571130146,257.621,-111.509,-16.7432,179.868,1.25244,-145.151,528
1571130146,257.621,-111.509,-16.7432,179.868,1.25244,-145.151,528
1571130147,257.621,-111.509,-16.7432,179.868,1.25244,-145.151,528
1571130147,257.621,-111.509,-16.7432,179.868,1.25244,-145.151,528
1571130147,257.621,-111.509,-16.7432,179.868,1.25244,-145.151,528
1571130147,257.621,-111.509,-16.7432,179.868,1.25244,-145.151,528
1571130147,257.621,-111.509,-16.7432,179.868,1.25244,-145.151,528
1571130147,257.621,-111.509,-16.7432,179.868,1.25244,-145.151,528
1571130147,257.621,-111.509,-16.7432,179.868,1.25244,-145.151,528
1571130147,257.621,-111.509,-16.7432,179.868,1.25244,-145.151,528
1571130147,257.621,-111.509,-16.7432,179.868,1.25244,-145.151,528
1571130147,257.621,-111.509,-16.7432,179.868,1.25244,-145.151,528
1571130147,257.621,-111.509,-16.7432,179.868,1.25244,-145.151,528
1571130147,257.621,-111.509,-16.7432,179.868,1.25244,-145.151,528
1571130147,257.621,-111.509,-16.7432,179.868,1.25244,-145.151,528
1571130147,257.621,-111.509,-16.7432,179.868,1.25244,-145.151,528
1571130147,257.621,-111.509,-16.7432,179.868,1.25244,-145.151,528
1571130147,257.621,-111.509,-16.7432,179.868,1.25244,-145.151,528
1571130147,257.621,-111.509,-16.7432,179.868,1.25244,-145.151,528
1571130147,257.621,-111.509,-16.7432,179.868,1.25244,-145.151,528
1571130147,257.51,-111.509,-16.7432,179.868,1.25244,-145.151,528
1571130147,257.51,-111.509,-16.7432,179.868,1.25244,-145.151,528
1571130147,257.51,-111.509,-16.7432,179.868,1.25244,-145.151,532
1571130147,257.51,-111.509,-16.7432,179.868,1.25244,-145.151,532
1571130147,257.51,-111.509,-16.7432,179.868,1.25244,-145.151,532
1571130147,257.51,-111.509,-16.7432,179.868,1.25244,-145.151,532
1571130147,257.51,-111.509,-16.7432,179.868,1.25244,-145.151,532
1571130147,257.51,-111.509,-16.7432,179.868,1.25244,-145.151,532
1571130147,257.51,-111.509,-16.7432,179.868,1.25244,-145.151,532
1571130147,257.51,-111.509,-16.7432,179.868,1.25244,-145.151,532
1571130147,257.51,-111.509,-16.7432,179.868,1.25244,-145.151,532
1571130147,257.51,-111.509,-16.7432,179.868,1.25244,-145.151,532
1571130147,257.51,-111.509,-16.7432,179.868,1.25244,-145.151,536
1571130147,257.51,-111.509,-16.7432,179.868,1.25244,-145.151,536
1571130147,257.51,-111.509,-16.7432,179.868,1.25244,-145.151,536
1571130147,257.51,-111.509,-16.7432,179.868,1.25244,-145.151,536
1571130147,257.51,-111.509,-16.7432,179.868,1.23047,-145.151,536
1571130147,257.51,-111.509,-16.7432,179.868,1.23047,-145.151,536
1571130147,257.51,-111.509,-16.7432,179.868,1.23047,-145.151,536
1571130147,257.51,-111.509,-16.7432,179.868,1.23047,-145.151,536
1571130147,257.51,-111.509,-16.7432,179.868,1.23047,-145.151,536
1571130147,257.51,-111.509,-16.7432,179.868,1.23047,-145.151,536
1571130147,257.51,-111.509,-16.7432,179.868,1.23047,-145.151,536
1571130147,257.51,-111.509,-16.7432,179.868,1.23047,-145.151,536
1571130147,257.51,-111.509,-16.7432,179.868,1.23047,-145.151,536
1571130147,257.51,-111.509,-16.7432,179.868,1.25244,-145.151,536
1571130147,257.51,-111.509,-16.7432,179.868,1.25244,-145.151,540
1571130147,257.51,-111.509,-16.7432,179.868,1.25244,-145.151,540
1571130147,257.51,-111.509,-16.7432,179.868,1.25244,-145.129,540
1571130147,257.51,-111.509,-16.7432,179.868,1.25244,-145.129,540
1571130147,257.51,-111.509,-16.7432,179.868,1.25244,-145.129,540
1571130147,257.51,-111.509,-16.7432,179.868,1.25244,-145.129,540
1571130147,257.51,-111.509,-16.7432,179.868,1.25244,-145.129,540
1571130147,257.51,-111.509,-16.7432,179.868,1.25244,-145.129,540
1571130147,257.51,-111.509,-16.7432,179.868,1.25244,-145.129,540
1571130147,257.51,-111.509,-16.7432,179.868,1.25244,-145.129,540
1571130147,257.51,-111.509,-16.7432,179.868,1.25244,-145.129,540
1571130147,257.51,-111.509,-16.7432,179.868,1.23047,-145.129,540
1571130147,257.51,-111.509,-16.7432,179.868,1.23047,-145.129,540
1571130147,257.621,-111.509,-16.7432,179.868,1.23047,-145.129,540
1571130147,257.621,-111.509,-16.7432,179.89,1.23047,-145.129,540
1571130147,257.621,-111.509,-16.7432,179.89,1.23047,-145.129,540
1571130147,257.621,-111.509,-16.7432,179.89,1.23047,-145.129,540
1571130147,257.621,-111.509,-16.7432,179.89,1.23047,-145.129,540
1571130147,257.621,-111.509,-16.7432,179.89,1.23047,-145.129,540
1571130147,257.51,-111.509,-16.7432,179.89,1.23047,-145.129,540
1571130147,257.51,-111.509,-16.7432,179.89,1.23047,-145.129,540
1571130147,257.51,-111.509,-16.7432,179.89,1.23047,-145.129,540
1571130147,257.51,-111.509,-16.7432,179.89,1.23047,-145.129,540
1571130147,257.51,-111.509,-16.7432,179.89,1.23047,-145.129,540
1571130147,257.621,-111.509,-16.7432,179.89,1.23047,-145.129,540
1571130147,257.621,-111.509,-16.7432,179.89,1.23047,-145.129,540
1571130147,257.621,-111.509,-16.7432,179.89,1.23047,-145.129,540
1571130147,257.621,-111.509,-16.7432,179.89,1.23047,-145.129,540
1571130147,257.621,-111.509,-16.7432,179.89,1.23047,-145.129,536
1571130147,257.621,-111.509,-16.7432,179.89,1.25244,-145.129,536
1571130147,257.621,-111.509,-16.7432,179.89,1.25244,-145.129,536
1571130147,257.621,-111.509,-16.7432,179.89,1.25244,-145.129,536
1571130147,257.621,-111.509,-16.7432,179.89,1.25244,-145.129,536
1571130147,257.621,-111.509,-16.7432,179.89,1.25244,-145.129,536
1571130147,257.621,-111.509,-16.7432,179.89,1.25244,-145.129,536
1571130147,257.621,-111.509,-16.7432,179.89,1.25244,-145.129,536
1571130147,257.621,-111.509,-16.7432,179.89,1.25244,-145.129,536
1571130147,257.621,-111.509,-16.7432,179.89,1.25244,-145.129,536
1571130147,257.621,-111.509,-16.7432,179.89,1.25244,-145.129,536
1571130147,257.621,-111.509,-16.6315,179.89,1.25244,-145.129,536
1571130147,257.621,-111.509,-16.6315,179.89,1.25244,-145.129,536
1571130147,257.621,-111.509,-16.6315,179.868,1.25244,-145.129,536
1571130147,257.621,-111.509,-16.6315,179.868,1.25244,-145.129,536
1571130147,257.621,-111.509,-16.6315,179.868,1.25244,-145.129,536
1571130147,257.51,-111.509,-16.6315,179.868,1.25244,-145.129,536
1571130147,257.51,-111.509,-16.6315,179.868,1.25244,-145.129,536
1571130147,257.51,-111.509,-16.6315,179.868,1.25244,-145.129,536
1571130147,257.51,-111.509,-16.6315,179.868,1.25244,-145.129,536
1571130147,257.51,-111.509,-16.6315,179.868,1.25244,-145.129,536
1571130147,257.51,-111.509,-16.6315,179.868,1.25244,-145.129,536
1571130147,257.51,-111.509,-16.6315,179.868,1.25244,-145.129,536
1571130147,257.51,-111.509,-16.6315,179.868,1.25244,-145.129,536
1571130147,257.51,-111.509,-16.6315,179.868,1.25244,-145.129,536
1571130147,257.51,-111.509,-16.6315,179.868,1.25244,-145.129,536
1571130147,257.51,-111.509,-16.6315,179.868,1.25244,-145.129,536
1571130147,257.51,-111.509,-16.6315,179.868,1.25244,-145.129,536
1571130148,257.621,-111.509,-16.6315,179.89,1.25244,-145.129,532
1571130148,257.621,-111.509,-16.6315,179.89,1.25244,-145.129,532
1571130148,257.621,-111.509,-16.6315,179.89,1.25244,-145.129,532
1571130148,257.621,-111.509,-16.6315,179.89,1.25244,-145.129,532
1571130148,257.621,-111.509,-16.6315,179.89,1.25244,-145.129,532
1571130148,257.621,-111.509,-16.6315,179.89,1.25244,-145.129,532
1571130148,257.621,-111.509,-16.6315,179.89,1.25244,-145.129,532
1571130148,257.621,-111.509,-16.6315,179.89,1.25244,-145.129,532
1571130148,257.621,-111.509,-16.6315,179.89,1.25244,-145.129,532
1571130148,257.621,-111.509,-16.6315,179.89,1.25244,-145.129,532
1571130148,257.621,-111.509,-16.6315,179.89,1.25244,-145.129,532
1571130148,257.621,-111.509,-16.6315,179.89,1.25244,-145.129,532
1571130148,257.621,-111.509,-16.6315,179.89,1.25244,-145.129,532
1571130148,257.621,-111.509,-16.6315,179.89,1.25244,-145.129,532
1571130148,257.621,-111.509,-16.6315,179.89,1.25244,-145.129,532
1571130148,257.621,-111.509,-16.7432,179.89,1.25244,-145.129,532
1571130148,257.621,-111.509,-16.7432,179.89,1.25244,-145.129,532
1571130148,257.621,-111.509,-16.7432,179.89,1.25244,-145.129,532
1571130148,257.621,-111.509,-16.7432,179.89,1.25244,-145.129,528
1571130148,257.621,-111.509,-16.7432,179.89,1.25244,-145.129,528
1571130148,257.621,-111.509,-16.7432,179.89,1.25244,-145.129,528
1571130148,257.621,-111.509,-16.7432,179.89,1.25244,-145.129,532
1571130148,257.621,-111.509,-16.7432,179.89,1.25244,-145.129,532
1571130148,257.621,-111.509,-16.7432,179.89,1.25244,-145.129,532
1571130148,257.621,-111.509,-16.7432,179.89,1.25244,-145.129,532
1571130148,257.621,-111.509,-16.7432,179.89,1.25244,-145.129,532
1571130148,257.621,-111.509,-16.7432,179.89,1.25244,-145.129,532
1571130148,257.621,-111.509,-16.7432,179.89,1.25244,-145.129,532
1571130148,257.621,-111.509,-16.7432,179.89,1.25244,-145.129,532
1571130148,257.621,-111.509,-16.7432,179.89,1.25244,-145.129,532
1571130148,257.621,-111.509,-16.7432,179.89,1.25244,-145.129,532
1571130148,257.621,-111.509,-16.7432,179.89,1.25244,-145.129,532
1571130148,257.621,-111.509,-16.7432,179.89,1.25244,-145.129,532
1571130148,257.621,-111.509,-16.7432,179.89,1.25244,-145.129,532
1571130148,257.621,-111.509,-16.7432,179.89,1.25244,-145.129,532
1571130148,257.621,-111.509,-16.7432,179.89,1.25244,-145.129,532
1571130148,257.621,-111.509,-16.7432,179.89,1.25244,-145.129,532
1571130148,257.621,-111.509,-16.7432,179.89,1.25244,-145.129,532
1571130148,257.621,-111.509,-16.7432,179.89,1.25244,-145.129,532
1571130148,257.621,-111.509,-16.7432,179.89,1.25244,-145.129,532
1571130148,257.621,-111.509,-16.7432,179.89,1.25244,-145.129,532
1571130148,257.621,-111.509,-16.7432,179.89,1.25244,-145.129,532
1571130148,257.621,-111.509,-16.7432,179.89,1.25244,-145.129,532
1571130148,257.51,-111.509,-16.7432,179.89,1.23047,-145.129,536
1571130148,257.51,-111.509,-16.7432,179.89,1.23047,-145.129,536
1571130148,257.51,-111.509,-16.7432,179.89,1.23047,-145.129,536
1571130148,257.51,-111.509,-16.7432,179.89,1.23047,-145.129,536
1571130148,257.51,-111.509,-16.7432,179.89,1.23047,-145.129,536
1571130148,257.51,-111.509,-16.7432,179.89,1.23047,-145.129,536
1571130148,257.51,-111.509,-16.7432,179.89,1.23047,-145.129,536
1571130148,257.51,-111.509,-16.7432,179.89,1.23047,-145.129,536
1571130148,257.51,-111.509,-16.7432,179.89,1.23047,-145.129,536
1571130148,257.51,-111.509,-16.7432,179.89,1.23047,-145.129,536
1571130148,257.621,-111.509,-16.7432,179.89,1.23047,-145.129,536
1571130148,257.621,-111.509,-16.7432,179.89,1.23047,-145.129,536
1571130148,257.621,-111.509,-16.7432,179.89,1.23047,-145.129,536
1571130148,257.621,-111.509,-16.7432,179.89,1.23047,-145.129,536
1571130148,257.621,-111.509,-16.7432,179.89,1.23047,-145.129,536
1571130148,257.621,-111.509,-16.7432,179.89,1.23047,-145.129,532
1571130148,257.621,-111.509,-16.7432,179.89,1.23047,-145.129,532
1571130148,257.621,-111.509,-16.7432,179.89,1.23047,-145.129,532
1571130148,257.621,-111.509,-16.7432,179.89,1.23047,-145.129,532
1571130148,257.621,-111.509,-16.7432,179.89,1.23047,-145.129,532
1571130148,257.621,-111.509,-16.7432,179.89,1.25244,-145.129,532
1571130148,257.621,-111.509,-16.7432,179.89,1.25244,-145.129,532
1571130148,257.621,-111.509,-16.7432,179.89,1.25244,-145.129,532
1571130148,257.621,-111.509,-16.7432,179.89,1.25244,-145.129,532
1571130148,257.621,-111.509,-16.7432,179.89,1.25244,-145.129,532
1571130148,257.621,-111.509,-16.6315,179.89,1.25244,-145.129,532
1571130148,257.621,-111.509,-16.6315,179.89,1.25244,-145.129,532
1571130148,257.621,-111.509,-16.6315,179.89,1.25244,-145.129,532
1571130148,257.621,-111.509,-16.6315,179.89,1.25244,-145.129,532
1571130148,257.621,-111.509,-16.6315,179.89,1.25244,-145.129,532
1571130148,257.621,-111.509,-16.6315,179.89,1.25244,-145.129,528
1571130148,257.621,-111.509,-16.6315,179.89,1.25244,-145.129,528
1571130148,257.621,-111.509,-16.6315,179.89,1.25244,-145.129,528
1571130148,257.621,-111.509,-16.6315,179.868,1.25244,-145.129,528
1571130148,257.621,-111.509,-16.6315,179.868,1.25244,-145.129,528
1571130148,257.621,-111.509,-16.6315,179.868,1.25244,-145.129,528
1571130148,257.621,-111.509,-16.6315,179.868,1.25244,-145.129,528
1571130148,257.621,-111.509,-16.6315,179.868,1.25244,-145.129,528
1571130148,257.51,-111.509,-16.6315,179.868,1.25244,-145.129,528
1571130148,257.51,-111.509,-16.6315,179.868,1.25244,-145.129,532
1571130148,257.51,-111.509,-16.6315,179.868,1.25244,-145.129,532
1571130148,257.51,-111.509,-16.6315,179.868,1.25244,-145.129,532
1571130148,257.51,-111.509,-16.6315,179.868,1.25244,-145.129,532
1571130148,257.51,-111.509,-16.7432,179.868,1.25244,-145.129,532
1571130148,257.51,-111.509,-16.7432,179.868,1.25244,-145.129,532
1571130148,257.51,-111.509,-16.7432,179.868,1.25244,-145.129,528
1571130148,257.51,-111.509,-16.7432,179.868,1.25244,-145.129,528
1571130148,257.51,-111.509,-16.7432,179.868,1.25244,-145.129,528
1571130148,257.51,-111.509,-16.7432,179.868,1.25244,-145.129,528
1571130148,257.51,-111.509,-16.7432,179.868,1.25244,-145.129,528
1571130148,257.621,-111.509,-16.7432,179.868,1.25244,-145.129,528
1571130148,257.621,-111.509,-16.7432,179.868,1.25244,-145.129,528
1571130148,257.621,-111.509,-16.7432,179.868,1.25244,-145.129,528
1571130148,257.621,-111.509,-16.7432,179.868,1.25244,-145.129,528
1571130148,257.621,-111.509,-16.7432,179.868,1.25244,-145.129,528
1571130148,257.621,-111.509,-16.7432,179.868,1.25244,-145.129,528
1571130148,257.621,-111.509,-16.7432,179.868,1.25244,-145.129,524
1571130149,257.621,-111.509,-16.7432,179.868,1.25244,-145.129,524
1571130149,257.621,-111.509,-16.7432,179.868,1.25244,-145.129,524
1571130149,257.621,-111.509,-16.7432,179.868,1.25244,-145.129,524
1571130149,257.621,-111.509,-16.7432,179.89,1.25244,-145.129,524
1571130149,257.621,-111.509,-16.7432,179.89,1.25244,-145.129,524
1571130149,257.621,-111.509,-16.7432,179.89,1.25244,-145.129,524
1571130149,257.621,-111.509,-16.7432,179.89,1.25244,-145.129,524
1571130149,257.621,-111.509,-16.7432,179.89,1.25244,-145.129,524
1571130149,257.621,-111.509,-16.7432,179.89,1.25244,-145.129,528
1571130149,257.621,-111.509,-16.7432,179.89,1.25244,-145.129,528
1571130149,257.621,-111.509,-16.7432,179.89,1.25244,-145.129,528
1571130149,257.621,-111.509,-16.7432,179.89,1.25244,-145.129,528
1571130149,257.621,-111.509,-16.7432,179.89,1.25244,-145.129,528
1571130149,257.621,-111.509,-16.7432,179.89,1.25244,-145.129,528
1571130149,257.621,-111.509,-16.7432,179.89,1.25244,-145.129,528
1571130149,257.621,-111.509,-16.7432,179.89,1.23047,-145.129,528
1571130149,257.621,-111.509,-16.7432,179.89,1.23047,-145.129,528
1571130149,257.621,-111.509,-16.7432,179.89,1.23047,-145.129,528
1571130149,257.621,-111.509,-16.7432,179.89,1.23047,-145.129,528
1571130149,257.621,-111.509,-16.7432,179.89,1.25244,-145.129,528
1571130149,257.621,-111.509,-16.7432,179.89,1.25244,-145.129,532
1571130149,257.621,-111.509,-16.7432,179.89,1.25244,-145.129,532
1571130149,257.621,-111.509,-16.7432,179.89,1.25244,-145.129,532
1571130149,257.621,-111.509,-16.7432,179.89,1.25244,-145.129,532
1571130149,257.621,-111.509,-16.7432,179.89,1.25244,-145.129,532
1571130149,257.621,-111.509,-16.7432,179.89,1.25244,-145.129,532
1571130149,257.621,-111.509,-16.7432,179.89,1.25244,-145.129,532
1571130149,257.621,-111.509,-16.7432,179.89,1.25244,-145.129,532
1571130149,257.621,-111.509,-16.7432,179.89,1.25244,-145.129,532
1571130149,257.621,-111.509,-16.7432,179.89,1.25244,-145.129,532
1571130149,257.621,-111.509,-16.7432,179.89,1.25244,-145.129,532
1571130149,257.621,-111.509,-16.7432,179.89,1.25244,-145.129,532
1571130149,257.621,-111.509,-16.7432,179.89,1.25244,-145.129,532
1571130149,257.621,-111.509,-16.7432,179.89,1.25244,-145.129,532
1571130149,257.621,-111.509,-16.7432,179.89,1.25244,-145.129,532
1571130149,257.621,-111.509,-16.7432,179.89,1.25244,-145.129,532
1571130149,257.621,-111.509,-16.7432,179.89,1.25244,-145.129,532
1571130149,257.621,-111.509,-16.7432,179.89,1.25244,-145.129,532
1571130153,280.615,-135.731,-16.2967,179.89,1.49414,-145.437,624
1571130153,280.615,-135.731,-16.2967,179.89,1.49414,-145.437,624
1571130153,280.615,-135.731,-16.2967,179.89,1.49414,-145.437,624
1571130153,280.615,-135.731,-16.2967,179.89,1.49414,-145.437,620
1571130153,280.615,-135.731,-16.2967,179.89,1.49414,-145.437,620
1571130153,280.615,-135.731,-16.2967,179.89,1.49414,-145.437,620
1571130153,280.615,-135.731,-16.2967,179.89,1.49414,-145.437,620
1571130153,280.615,-135.731,-16.2967,179.89,1.49414,-145.437,620
1571130153,280.615,-135.731,-16.2967,179.89,1.49414,-145.437,620
1571130153,280.615,-135.731,-16.2967,179.89,1.49414,-145.437,620
1571130153,280.615,-135.731,-16.2967,179.89,1.49414,-145.437,620
1571130153,280.615,-135.731,-16.2967,179.89,1.49414,-145.437,620
1571130153,280.615,-135.731,-16.2967,179.89,1.49414,-145.437,620
1571130153,280.615,-135.731,-16.2967,179.89,1.49414,-145.437,620
1571130153,280.615,-135.731,-16.2967,179.89,1.49414,-145.437,620
1571130153,280.615,-135.731,-16.2967,179.912,1.49414,-145.437,620
1571130153,280.615,-135.731,-16.2967,179.912,1.49414,-145.437,620
1571130153,280.615,-135.62,-16.2967,179.912,1.49414,-145.437,624
1571130153,280.615,-135.62,-16.2967,179.912,1.49414,-145.437,624
1571130153,280.615,-135.62,-16.2967,179.912,1.49414,-145.437,624
1571130153,280.615,-135.62,-16.2967,179.912,1.49414,-145.437,624
1571130153,280.615,-135.62,-16.2967,179.912,1.49414,-145.437,624
1571130153,280.615,-135.62,-16.2967,179.912,1.49414,-145.437,624
1571130153,280.615,-135.62,-16.2967,179.912,1.49414,-145.437,624
1571130153,280.615,-135.62,-16.2967,179.912,1.49414,-145.437,624
1571130153,280.615,-135.62,-16.2967,179.912,1.49414,-145.437,624
1571130153,280.615,-135.62,-16.2967,179.912,1.49414,-145.437,624
1571130153,280.615,-135.62,-16.2967,179.912,1.49414,-145.437,624
1571130153,280.615,-135.62,-16.2967,179.912,1.49414,-145.437,624
1571130153,280.615,-135.62,-16.2967,179.912,1.49414,-145.415,624
1571130153,280.615,-135.62,-16.2967,179.912,1.51611,-145.415,624
1571130153,280.615,-135.62,-16.1851,179.912,1.51611,-145.415,624
1571130153,280.615,-135.62,-16.1851,179.912,1.51611,-145.415,620
1571130153,280.615,-135.62,-16.1851,179.912,1.51611,-145.415,620
1571130153,280.615,-135.62,-16.1851,179.912,1.51611,-145.415,620
1571130153,280.615,-135.62,-16.1851,179.912,1.51611,-145.415,620
1571130153,280.615,-135.62,-16.1851,179.912,1.51611,-145.415,620
1571130153,280.615,-135.62,-16.1851,179.912,1.51611,-145.415,620
1571130153,280.615,-135.62,-16.1851,179.912,1.51611,-145.415,620
1571130153,280.615,-135.62,-16.1851,179.912,1.51611,-145.415,620
1571130153,280.615,-135.62,-16.1851,179.912,1.51611,-145.415,620
1571130153,280.615,-135.62,-16.1851,179.912,1.51611,-145.437,616
1571130153,280.615,-135.62,-16.1851,179.912,1.51611,-145.437,616
1571130153,280.615,-135.62,-16.1851,179.912,1.51611,-145.437,616
1571130153,280.615,-135.62,-16.1851,179.934,1.51611,-145.437,616
1571130153,280.615,-135.62,-16.1851,179.934,1.51611,-145.437,616
1571130153,280.615,-135.62,-16.1851,179.934,1.51611,-145.437,616
1571130153,280.615,-135.62,-16.1851,179.934,1.51611,-145.437,616
1571130153,280.727,-135.62,-16.2967,179.934,1.51611,-145.437,616
1571130153,280.727,-135.62,-16.2967,179.934,1.51611,-145.437,616
1571130153,280.727,-135.62,-16.2967,179.934,1.51611,-145.437,616
1571130153,280.727,-135.62,-16.2967,179.934,1.51611,-145.437,616
1571130153,280.727,-135.62,-16.2967,179.934,1.51611,-145.437,616
1571130153,280.727,-135.62,-16.2967,179.934,1.51611,-145.437,616
1571130153,280.727,-135.62,-16.1851,179.934,1.51611,-145.437,616
1571130153,280.727,-135.62,-16.1851,179.934,1.51611,-145.437,616
1571130153,280.727,-135.62,-16.1851,179.934,1.51611,-145.437,616
1571130153,280.727,-135.62,-16.1851,179.934,1.51611,-145.437,616
1571130153,280.615,-135.62,-16.1851,179.934,1.51611,-145.437,616
1571130153,280.615,-135.62,-16.1851,179.934,1.51611,-145.437,616
1571130153,280.615,-135.62,-16.1851,179.934,1.51611,-145.437,616
1571130153,280.615,-135.62,-16.2967,179.934,1.51611,-145.437,616
1571130153,280.615,-135.62,-16.2967,179.934,1.49414,-145.437,616
1571130153,280.615,-135.62,-16.2967,179.934,1.49414,-145.437,616
1571130153,280.615,-135.62,-16.2967,179.934,1.49414,-145.437,616
1571130153,280.615,-135.62,-16.2967,179.934,1.49414,-145.437,616
1571130153,280.615,-135.62,-16.2967,179.934,1.49414,-145.437,616
1571130153,280.615,-135.62,-16.2967,179.934,1.49414,-145.437,616
1571130153,280.615,-135.62,-16.2967,179.934,1.49414,-145.437,616
1571130153,280.615,-135.62,-16.2967,179.934,1.49414,-145.437,616
1571130154,280.615,-135.62,-16.2967,179.912,1.49414,-145.437,616
1571130154,280.615,-135.62,-16.2967,179.912,1.49414,-145.437,616
1571130154,280.615,-135.62,-16.2967,179.912,1.49414,-145.437,616
1571130154,280.615,-135.62,-16.2967,179.912,1.49414,-145.437,616
1571130154,280.615,-135.62,-16.2967,179.912,1.49414,-145.437,616
1571130154,280.615,-135.731,-16.2967,179.912,1.49414,-145.437,616
1571130154,280.615,-135.731,-16.2967,179.912,1.49414,-145.437,616
1571130154,280.615,-135.731,-16.2967,179.912,1.49414,-145.437,616
1571130154,280.615,-135.731,-16.2967,179.912,1.49414,-145.437,616
1571130154,280.615,-135.731,-16.2967,179.912,1.49414,-145.437,616
1571130154,280.615,-135.62,-16.2967,179.912,1.49414,-145.437,616
1571130154,280.615,-135.62,-16.2967,179.912,1.49414,-145.437,616
1571130154,280.615,-135.62,-16.2967,179.912,1.49414,-145.437,616
1571130154,280.615,-135.62,-16.2967,179.912,1.49414,-145.415,616
1571130154,280.615,-135.62,-16.2967,179.912,1.49414,-145.415,616
1571130154,280.615,-135.62,-16.2967,179.912,1.49414,-145.415,616
1571130154,280.615,-135.62,-16.2967,179.912,1.49414,-145.415,616
1571130154,280.615,-135.62,-16.2967,179.912,1.49414,-145.415,616
1571130154,280.615,-135.62,-16.2967,179.912,1.49414,-145.415,616
1571130154,280.615,-135.62,-16.2967,179.912,1.49414,-145.415,616
1571130154,280.615,-135.62,-16.2967,179.912,1.49414,-145.415,616
1571130154,280.615,-135.62,-16.2967,179.912,1.49414,-145.415,616
1571130154,280.615,-135.62,-16.2967,179.912,1.49414,-145.415,616
1571130154,280.615,-135.62,-16.2967,179.912,1.49414,-145.415,616
1571130154,280.615,-135.62,-16.2967,179.912,1.49414,-145.415,616
1571130154,280.615,-135.62,-16.2967,179.912,1.49414,-145.415,616
1571130154,280.615,-135.62,-16.2967,179.912,1.49414,-145.415,616
1571130154,280.615,-135.62,-16.2967,179.912,1.49414,-145.415,616
1571130154,280.615,-135.62,-16.2967,179.912,1.49414,-145.415,620
1571130154,280.615,-135.62,-16.2967,179.912,1.49414,-145.415,620
1571130154,280.615,-135.62,-16.2967,179.912,1.49414,-145.415,620
1571130154,280.615,-135.62,-16.2967,179.912,1.49414,-145.415,620
1571130154,280.615,-135.62,-16.2967,179.912,1.49414,-145.415,620
1571130154,280.615,-135.62,-16.2967,179.912,1.49414,-145.415,620
1571130154,280.615,-135.62,-16.2967,179.912,1.49414,-145.415,620
1571130154,280.615,-135.731,-16.2967,179.912,1.49414,-145.415,620
1571130154,280.615,-135.731,-16.2967,179.912,1.49414,-145.415,620
1571130154,280.615,-135.731,-16.2967,179.912,1.49414,-145.415,620
1571130154,280.615,-135.731,-16.2967,179.912,1.49414,-145.415,620
1571130154,280.615,-135.731,-16.2967,179.912,1.49414,-145.415,620
1571130154,280.615,-135.731,-16.2967,179.912,1.49414,-145.415,620
1571130154,280.615,-135.731,-16.2967,179.912,1.49414,-145.415,620
1571130154,280.615,-135.731,-16.2967,179.912,1.49414,-145.415,620
1571130154,280.615,-135.731,-16.2967,179.912,1.49414,-145.415,620
1571130154,280.615,-135.731,-16.2967,179.912,1.49414,-145.415,620
1571130154,280.615,-135.731,-16.2967,179.912,1.49414,-145.415,620
1571130154,280.615,-135.731,-16.2967,179.912,1.49414,-145.415,620
1571130154,280.615,-135.731,-16.2967,179.912,1.49414,-145.415,620
1571130154,280.615,-135.731,-16.2967,179.912,1.49414,-145.415,620
1571130154,280.615,-135.731,-16.2967,179.912,1.49414,-145.415,616
1571130154,280.615,-135.731,-16.2967,179.912,1.49414,-145.415,616
1571130154,280.615,-135.731,-16.2967,179.912,1.49414,-145.415,616
1571130154,280.615,-135.731,-16.2967,179.912,1.49414,-145.415,620
1571130154,280.615,-135.731,-16.2967,179.912,1.51611,-145.415,620
1571130154,280.615,-135.731,-16.2967,179.912,1.51611,-145.415,620
1571130154,280.615,-135.731,-16.2967,179.912,1.51611,-145.415,620
1571130154,280.615,-135.731,-16.2967,179.912,1.51611,-145.415,620
1571130154,280.615,-135.731,-16.2967,179.912,1.51611,-145.415,620
1571130154,280.615,-135.731,-16.2967,179.912,1.51611,-145.415,620
1571130154,280.615,-135.731,-16.1851,179.912,1.51611,-145.415,620
1571130154,280.615,-135.731,-16.1851,179.912,1.51611,-145.415,620
1571130154,280.615,-135.731,-16.1851,179.912,1.51611,-145.415,620
1571130154,280.615,-135.731,-16.1851,179.912,1.51611,-145.415,620
1571130154,280.615,-135.731,-16.1851,179.912,1.51611,-145.415,620
1571130154,280.615,-135.731,-16.1851,179.912,1.51611,-145.415,620
1571130154,280.615,-135.731,-16.1851,179.912,1.51611,-145.415,620
1571130154,280.615,-135.731,-16.1851,179.912,1.51611,-145.415,620
1571130154,280.615,-135.731,-16.1851,179.912,1.51611,-145.415,620
1571130154,280.615,-135.731,-16.1851,179.912,1.51611,-145.415,620
1571130154,280.615,-135.731,-16.1851,179.912,1.51611,-145.415,620
1571130154,280.615,-135.731,-16.1851,179.912,1.51611,-145.415,620
1571130154,280.615,-135.731,-16.1851,179.912,1.51611,-145.415,620
1571130154,280.615,-135.731,-16.1851,179.912,1.51611,-145.415,620
1571130154,280.615,-135.731,-16.1851,179.912,1.51611,-145.415,620
1571130154,280.615,-135.731,-16.1851,179.912,1.51611,-145.415,620
1571130154,280.615,-135.731,-16.1851,179.912,1.51611,-145.415,620
1571130154,280.615,-135.731,-16.1851,179.912,1.51611,-145.415,620
1571130154,280.615,-135.731,-16.1851,179.912,1.51611,-145.415,620
1571130154,280.615,-135.731,-16.1851,179.912,1.51611,-145.415,620
1571130154,280.615,-135.731,-16.1851,179.912,1.51611,-145.415,620
1571130154,280.615,-135.731,-16.1851,179.912,1.51611,-145.415,620
1571130154,280.615,-135.731,-16.1851,179.912,1.51611,-145.415,620
1571130154,280.615,-135.731,-16.1851,179.912,1.51611,-145.415,620
1571130154,280.615,-135.731,-16.1851,179.912,1.51611,-145.415,620
1571130154,280.615,-135.731,-16.1851,179.912,1.51611,-145.415,620
1571130154,280.615,-135.731,-16.2967,179.912,1.51611,-145.415,620
1571130154,280.615,-135.731,-16.2967,179.912,1.51611,-145.415,620
1571130154,280.615,-135.731,-16.2967,179.912,1.51611,-145.415,620
1571130154,280.615,-135.731,-16.2967,179.912,1.51611,-145.415,620
1571130154,280.615,-135.731,-16.2967,179.912,1.51611,-145.415,620
1571130154,280.615,-135.731,-16.2967,179.912,1.49414,-145.415,620
1571130154,280.615,-135.731,-16.2967,179.912,1.49414,-145.415,620
1571130154,280.615,-135.731,-16.2967,179.912,1.49414,-145.415,620
1571130154,280.615,-135.731,-16.2967,179.912,1.49414,-145.415,620
1571130154,280.615,-135.731,-16.2967,179.912,1.49414,-145.415,620
1571130154,280.615,-135.731,-16.2967,179.912,1.49414,-145.415,620
1571130154,280.615,-135.731,-16.2967,179.912,1.49414,-145.415,620
1571130154,280.615,-135.731,-16.2967,179.912,1.49414,-145.415,620
1571130154,280.615,-135.731,-16.2967,179.912,1.49414,-145.415,620
1571130154,280.615,-135.731,-16.2967,179.912,1.49414,-145.415,620
1571130155,280.615,-135.731,-16.2967,179.912,1.49414,-145.415,620
1571130155,280.727,-135.731,-16.2967,179.912,1.51611,-145.415,620
1571130155,280.727,-135.731,-16.1851,179.912,1.51611,-145.415,620
1571130155,280.727,-135.731,-16.1851,179.912,1.51611,-145.415,620
1571130155,280.727,-135.731,-16.1851,179.912,1.51611,-145.415,620
1571130155,280.727,-135.731,-16.1851,179.912,1.51611,-145.415,620
1571130155,280.727,-135.731,-16.1851,179.912,1.51611,-145.415,620
1571130155,280.727,-135.731,-16.1851,179.912,1.51611,-145.415,620
1571130155,280.727,-135.731,-16.1851,179.912,1.51611,-145.415,620
1571130155,280.727,-135.731,-16.1851,179.912,1.51611,-145.415,616
1571130155,280.727,-135.731,-16.1851,179.912,1.51611,-145.415,616
1571130155,280.727,-135.731,-16.1851,179.912,1.51611,-145.415,616
1571130155,280.727,-135.731,-16.1851,179.912,1.51611,-145.393,616
1571130155,280.727,-135.731,-16.1851,179.912,1.51611,-145.393,616
1571130155,280.727,-135.731,-16.1851,179.912,1.51611,-145.393,616
1571130155,280.727,-135.731,-16.1851,179.912,1.51611,-145.393,616
1571130155,280.727,-135.731,-16.1851,179.912,1.51611,-145.393,616
1571130155,280.727,-135.731,-16.1851,179.912,1.51611,-145.393,616
1571130155,280.727,-135.731,-16.1851,179.912,1.51611,-145.393,616
1571130155,280.727,-135.731,-16.1851,179.912,1.51611,-145.393,616
1571130155,280.727,-135.731,-16.1851,179.912,1.51611,-145.393,616
1571130155,280.727,-135.731,-16.1851,179.912,1.51611,-145.393,616
1571130155,280.615,-135.731,-16.1851,179.912,1.51611,-145.393,616
1571130155,280.615,-135.731,-16.1851,179.912,1.51611,-145.415,616
1571130155,280.615,-135.731,-16.1851,179.912,1.51611,-145.415,616
1571130155,280.727,-135.731,-16.1851,179.912,1.51611,-145.415,616
1571130155,280.727,-135.731,-16.1851,179.912,1.51611,-145.415,616
1571130155,280.727,-135.731,-16.1851,179.912,1.51611,-145.415,616
1571130155,280.727,-135.731,-16.1851,179.912,1.51611,-145.415,616
1571130155,280.727,-135.731,-16.1851,179.912,1.51611,-145.415,616
1571130155,280.727,-135.731,-16.1851,179.912,1.51611,-145.415,616
1571130155,280.727,-135.62,-16.1851,179.934,1.51611,-145.415,616
1571130155,280.727,-135.62,-16.1851,179.934,1.51611,-145.415,616
1571130155,280.615,-135.62,-16.1851,179.934,1.51611,-145.415,616
1571130155,280.615,-135.62,-16.1851,179.934,1.51611,-145.415,616
1571130155,280.615,-135.62,-16.1851,179.934,1.51611,-145.415,616
1571130155,280.615,-135.62,-16.1851,179.934,1.51611,-145.415,616
1571130155,280.727,-135.62,-16.1851,179.934,1.51611,-145.415,616
1571130155,280.727,-135.62,-16.1851,179.934,1.51611,-145.415,616
1571130155,280.727,-135.62,-16.1851,179.934,1.51611,-145.415,616
1571130155,280.727,-135.62,-16.1851,179.934,1.51611,-145.415,616
1571130155,280.727,-135.62,-16.1851,179.934,1.51611,-145.415,616
1571130155,280.727,-135.62,-16.1851,179.934,1.51611,-145.415,616
1571130155,280.727,-135.62,-16.1851,179.934,1.51611,-145.415,616
1571130155,280.727,-135.62,-16.1851,179.934,1.51611,-145.415,616
1571130155,280.727,-135.62,-16.1851,179.934,1.51611,-145.415,616
1571130155,280.727,-135.62,-16.1851,179.934,1.51611,-145.415,616
1571130155,280.727,-135.62,-16.1851,179.934,1.51611,-145.415,616
1571130155,280.727,-135.62,-16.1851,179.934,1.51611,-145.415,616
1571130155,280.727,-135.62,-16.1851,179.912,1.51611,-145.415,616
1571130155,280.727,-135.731,-16.1851,179.912,1.51611,-145.415,616
1571130155,280.727,-135.731,-16.1851,179.912,1.51611,-145.415,616
1571130155,280.727,-135.731,-16.1851,179.912,1.51611,-145.415,616
1571130155,280.727,-135.731,-16.1851,179.912,1.51611,-145.415,616
1571130155,280.727,-135.731,-16.1851,179.912,1.51611,-145.415,616
1571130155,280.727,-135.731,-16.1851,179.912,1.51611,-145.415,616
1571130155,280.727,-135.731,-16.1851,179.912,1.51611,-145.415,616
1571130155,280.727,-135.731,-16.1851,179.912,1.51611,-145.415,616
1571130155,280.615,-135.731,-16.1851,179.912,1.51611,-145.415,620
1571130155,280.615,-135.62,-16.1851,179.912,1.51611,-145.415,620
1571130155,280.615,-135.62,-16.2967,179.912,1.51611,-145.415,620
1571130155,280.615,-135.62,-16.2967,179.934,1.51611,-145.415,620
1571130155,280.727,-135.62,-16.2967,179.934,1.51611,-145.415,620
1571130155,280.727,-135.62,-16.2967,179.934,1.49414,-145.415,620
1571130155,280.727,-135.62,-16.2967,179.934,1.49414,-145.415,620
1571130155,280.727,-135.62,-16.2967,179.934,1.49414,-145.415,620
1571130155,280.727,-135.62,-16.2967,179.934,1.49414,-145.415,620
1571130155,280.615,-135.62,-16.2967,179.934,1.49414,-145.415,620
1571130155,280.615,-135.62,-16.2967,179.934,1.49414,-145.415,620
1571130155,280.615,-135.62,-16.2967,179.934,1.49414,-145.415,620
1571130155,280.615,-135.62,-16.2967,179.934,1.49414,-145.415,620
1571130155,280.615,-135.62,-16.2967,179.934,1.51611,-145.415,620
1571130155,280.615,-135.62,-16.2967,179.934,1.51611,-145.415,620
1571130155,280.615,-135.62,-16.2967,179.934,1.51611,-145.415,620
1571130155,280.615,-135.62,-16.2967,179.934,1.51611,-145.415,616
1571130155,280.615,-135.62,-16.1851,179.934,1.51611,-145.415,616
1571130155,280.615,-135.62,-16.1851,179.934,1.51611,-145.415,616
1571130155,280.615,-135.62,-16.1851,179.912,1.51611,-145.415,616
1571130155,280.615,-135.62,-16.1851,179.912,1.51611,-145.415,616
1571130155,280.615,-135.62,-16.1851,179.912,1.51611,-145.415,616
1571130155,280.615,-135.62,-16.1851,179.912,1.51611,-145.415,616
1571130155,280.615,-135.62,-16.2967,179.912,1.51611,-145.415,616
1571130155,280.615,-135.62,-16.2967,179.934,1.51611,-145.415,616
1571130155,280.727,-135.62,-16.2967,179.934,1.51611,-145.415,616
1571130155,280.727,-135.62,-16.2967,179.934,1.49414,-145.415,616
1571130155,280.727,-135.62,-16.2967,179.934,1.49414,-145.415,612
1571130155,280.727,-135.62,-16.2967,179.934,1.49414,-145.415,612
1571130155,280.727,-135.62,-16.2967,179.934,1.49414,-145.415,612
1571130155,280.727,-135.62,-16.2967,179.934,1.49414,-145.415,612
1571130155,280.727,-135.62,-16.2967,179.934,1.49414,-145.415,612
1571130155,280.727,-135.62,-16.2967,179.934,1.49414,-145.415,612
1571130155,280.727,-135.62,-16.2967,179.934,1.49414,-145.415,612
1571130155,280.727,-135.62,-16.2967,179.934,1.49414,-145.415,612
1571130155,280.727,-135.62,-16.2967,179.934,1.49414,-145.415,612
1571130155,280.727,-135.62,-16.2967,179.934,1.49414,-145.415,612
1571130155,280.727,-135.62,-16.2967,179.934,1.49414,-145.415,608
1571130155,280.727,-135.62,-16.2967,179.934,1.49414,-145.415,608
1571130155,280.727,-135.62,-16.2967,179.934,1.49414,-145.415,608
1571130155,280.727,-135.62,-16.2967,179.934,1.49414,-145.415,608
1571130155,280.727,-135.62,-16.2967,179.934,1.49414,-145.415,608
1571130156,280.727,-135.62,-16.2967,179.934,1.49414,-145.415,608
1571130156,280.727,-135.62,-16.2967,179.934,1.49414,-145.415,608
1571130156,280.727,-135.62,-16.2967,179.934,1.49414,-145.415,608
1571130156,280.727,-135.62,-16.2967,179.934,1.49414,-145.415,608
1571130156,280.727,-135.62,-16.2967,179.934,1.49414,-145.415,608
1571130156,280.727,-135.62,-16.2967,179.934,1.49414,-145.415,608
1571130156,280.727,-135.62,-16.2967,179.934,1.49414,-145.415,608
1571130156,280.727,-135.62,-16.2967,179.934,1.49414,-145.415,608
1571130156,280.727,-135.62,-16.2967,179.934,1.49414,-145.415,608
1571130156,280.727,-135.62,-16.2967,179.934,1.49414,-145.415,608
1571130156,280.727,-135.62,-16.2967,179.934,1.49414,-145.415,608
1571130156,280.727,-135.62,-16.2967,179.934,1.49414,-145.415,608
1571130156,280.727,-135.62,-16.2967,179.934,1.49414,-145.415,608
1571130156,280.727,-135.62,-16.2967,179.934,1.51611,-145.415,608
1571130156,280.727,-135.62,-16.2967,179.934,1.51611,-145.415,608
1571130156,280.727,-135.62,-16.1851,179.934,1.51611,-145.415,608
1571130156,280.727,-135.62,-16.1851,179.934,1.51611,-145.415,608
1571130156,280.727,-135.62,-16.1851,179.934,1.51611,-145.415,608
1571130156,280.727,-135.62,-16.1851,179.934,1.51611,-145.415,608
1571130156,280.727,-135.62,-16.1851,179.934,1.51611,-145.415,608
1571130156,280.727,-135.62,-16.1851,179.912,1.51611,-145.415,608
1571130156,280.727,-135.62,-16.1851,179.912,1.51611,-145.415,608
1571130156,280.727,-135.731,-16.1851,179.912,1.51611,-145.415,608
1571130156,280.727,-135.731,-16.1851,179.912,1.51611,-145.415,608
1571130156,280.727,-135.731,-16.2967,179.912,1.51611,-145.415,608
1571130156,280.727,-135.731,-16.2967,179.912,1.49414,-145.415,608
1571130156,280.727,-135.731,-16.2967,179.912,1.49414,-145.415,608
1571130156,280.727,-135.731,-16.2967,179.912,1.49414,-145.415,608
1571130156,280.615,-135.731,-16.2967,179.912,1.49414,-145.415,608
1571130156,280.615,-135.731,-16.2967,179.912,1.49414,-145.415,608
1571130156,280.615,-135.731,-16.2967,179.912,1.49414,-145.415,608
1571130156,280.615,-135.731,-16.2967,179.912,1.49414,-145.415,608
1571130156,280.615,-135.731,-16.2967,179.912,1.49414,-145.415,608
1571130156,280.615,-135.731,-16.2967,179.912,1.49414,-145.415,608
1571130156,280.615,-135.731,-16.2967,179.912,1.49414,-145.415,608
1571130156,280.615,-135.731,-16.2967,179.912,1.49414,-145.415,608
1571130156,280.615,-135.731,-16.2967,179.912,1.49414,-145.415,612
1571130156,280.615,-135.731,-16.2967,179.912,1.49414,-145.415,612
1571130156,280.615,-135.731,-16.2967,179.912,1.49414,-145.415,612
1571130156,280.615,-135.731,-16.2967,179.912,1.49414,-145.415,612
1571130156,280.615,-135.731,-16.2967,179.912,1.49414,-145.415,612
1571130156,280.615,-135.731,-16.2967,179.912,1.49414,-145.415,612
1571130156,280.615,-135.731,-16.2967,179.912,1.49414,-145.415,612
1571130156,280.615,-135.731,-16.2967,179.912,1.49414,-145.415,616
1571130156,280.615,-135.731,-16.2967,179.912,1.49414,-145.415,616
1571130156,280.615,-135.731,-16.2967,179.912,1.49414,-145.415,616
1571130156,280.615,-135.731,-16.2967,179.912,1.49414,-145.415,616
1571130156,280.615,-135.62,-16.2967,179.912,1.49414,-145.415,616
1571130156,280.615,-135.62,-16.2967,179.912,1.49414,-145.415,616
1571130156,280.615,-135.62,-16.2967,179.912,1.49414,-145.415,616
1571130156,280.615,-135.62,-16.2967,179.912,1.49414,-145.415,616
1571130156,280.615,-135.62,-16.2967,179.912,1.49414,-145.415,616
1571130156,280.615,-135.62,-16.2967,179.912,1.49414,-145.415,616
1571130156,280.615,-135.62,-16.2967,179.912,1.49414,-145.415,616
1571130156,280.615,-135.62,-16.2967,179.912,1.49414,-145.415,616
1571130156,280.615,-135.62,-16.2967,179.912,1.49414,-145.415,616
1571130156,280.615,-135.62,-16.2967,179.912,1.49414,-145.415,616
1571130156,280.615,-135.62,-16.2967,179.912,1.49414,-145.415,616
1571130156,280.615,-135.62,-16.2967,179.912,1.49414,-145.415,616
1571130156,280.615,-135.62,-16.2967,179.912,1.49414,-145.415,616
1571130156,280.615,-135.62,-16.2967,179.912,1.49414,-145.415,616
1571130156,280.615,-135.62,-16.2967,179.912,1.49414,-145.415,616
1571130156,280.615,-135.62,-16.2967,179.912,1.49414,-145.415,616
1571130156,280.615,-135.62,-16.2967,179.912,1.49414,-145.415,612
1571130156,280.615,-135.62,-16.2967,179.934,1.49414,-145.415,612
1571130156,280.727,-135.62,-16.2967,179.934,1.49414,-145.415,612
1571130156,280.727,-135.62,-16.2967,179.934,1.49414,-145.415,612
1571130156,280.615,-135.62,-16.2967,179.934,1.49414,-145.415,612
1571130156,280.615,-135.62,-16.2967,179.934,1.49414,-145.415,612
1571130156,280.615,-135.62,-16.2967,179.934,1.49414,-145.415,612
1571130156,280.615,-135.62,-16.2967,179.934,1.49414,-145.415,612
1571130156,280.615,-135.62,-16.2967,179.912,1.49414,-145.415,612
1571130156,280.615,-135.62,-16.2967,179.912,1.49414,-145.415,612
1571130156,280.615,-135.62,-16.2967,179.912,1.49414,-145.415,612
1571130156,280.615,-135.62,-16.2967,179.912,1.49414,-145.415,612
1571130156,280.615,-135.62,-16.2967,179.912,1.49414,-145.415,616
1571130156,280.615,-135.62,-16.2967,179.912,1.49414,-145.415,616
1571130156,280.615,-135.731,-16.2967,179.912,1.49414,-145.415,616
1571130156,280.615,-135.731,-16.2967,179.912,1.49414,-145.415,616
1571130156,280.615,-135.731,-16.2967,179.912,1.49414,-145.415,616
1571130156,280.615,-135.731,-16.2967,179.912,1.49414,-145.415,616
1571130156,280.615,-135.731,-16.2967,179.912,1.49414,-145.415,616
1571130156,280.615,-135.731,-16.2967,179.912,1.49414,-145.415,616
1571130156,280.615,-135.731,-16.2967,179.912,1.49414,-145.415,616
1571130156,280.615,-135.731,-16.2967,179.912,1.49414,-145.415,616
1571130156,280.615,-135.731,-16.2967,179.912,1.49414,-145.415,616
1571130156,280.615,-135.731,-16.2967,179.912,1.49414,-145.415,616
1571130156,280.615,-135.731,-16.2967,179.912,1.49414,-145.415,616
1571130156,280.727,-135.731,-16.2967,179.912,1.49414,-145.415,616
1571130156,280.727,-135.731,-16.2967,179.912,1.49414,-145.415,616
1571130156,280.727,-135.731,-16.2967,179.912,1.49414,-145.415,616
1571130156,280.727,-135.731,-16.2967,179.912,1.49414,-145.415,612
1571130156,280.727,-135.62,-16.2967,179.934,1.49414,-145.415,612
1571130156,280.727,-135.62,-16.2967,179.934,1.49414,-145.415,612
1571130156,280.727,-135.62,-16.2967,179.934,1.49414,-145.415,612
1571130156,280.727,-135.62,-16.2967,179.934,1.49414,-145.415,612
1571130156,280.727,-135.62,-16.2967,179.934,1.49414,-145.415,612
1571130156,280.727,-135.62,-16.2967,179.934,1.49414,-145.415,612
1571130156,280.727,-135.62,-16.2967,179.934,1.49414,-145.415,612
1571130156,280.727,-135.62,-16.2967,179.934,1.49414,-145.415,612
1571130157,280.727,-135.62,-16.2967,179.934,1.49414,-145.415,612
1571130157,280.727,-135.62,-16.2967,179.934,1.49414,-145.415,612
1571130157,280.727,-135.62,-16.2967,179.934,1.49414,-145.415,612
1571130157,280.727,-135.62,-16.2967,179.934,1.49414,-145.415,612
1571130157,280.727,-135.62,-16.2967,179.934,1.49414,-145.415,612
1571130157,280.727,-135.62,-16.2967,179.934,1.49414,-145.415,612
1571130157,280.727,-135.62,-16.2967,179.934,1.49414,-145.415,612
1571130157,280.727,-135.62,-16.2967,179.934,1.49414,-145.415,612
1571130157,280.727,-135.62,-16.2967,179.934,1.49414,-145.415,612
1571130157,280.727,-135.62,-16.2967,179.934,1.49414,-145.415,612
1571130157,280.727,-135.62,-16.2967,179.934,1.49414,-145.415,612
1571130157,280.727,-135.62,-16.2967,179.934,1.49414,-145.415,612
1571130157,280.727,-135.62,-16.2967,179.934,1.49414,-145.415,612
1571130157,280.727,-135.62,-16.2967,179.934,1.49414,-145.415,612
1571130157,280.727,-135.62,-16.2967,179.934,1.49414,-145.415,612
1571130157,280.727,-135.62,-16.2967,179.934,1.49414,-145.415,612
1571130157,280.727,-135.62,-16.2967,179.934,1.49414,-145.415,612
1571130157,280.727,-135.62,-16.2967,179.934,1.49414,-145.415,612
1571130157,280.727,-135.62,-16.2967,179.934,1.51611,-145.415,616
1571130157,280.727,-135.62,-16.2967,179.934,1.49414,-145.415,616
1571130157,280.727,-135.62,-16.2967,179.934,1.49414,-145.415,616
1571130157,280.727,-135.62,-16.2967,179.934,1.49414,-145.415,616
1571130157,280.727,-135.62,-16.2967,179.934,1.49414,-145.415,616
1571130157,280.727,-135.62,-16.2967,179.934,1.49414,-145.415,616
1571130157,280.727,-135.62,-16.2967,179.934,1.49414,-145.415,616
1571130157,280.727,-135.62,-16.2967,179.934,1.49414,-145.415,620
1571130157,280.727,-135.62,-16.2967,179.934,1.49414,-145.415,620
1571130157,280.727,-135.62,-16.2967,179.934,1.49414,-145.415,620
1571130157,280.727,-135.62,-16.2967,179.934,1.49414,-145.415,620
1571130157,280.727,-135.62,-16.2967,179.934,1.49414,-145.415,620
1571130157,280.727,-135.62,-16.2967,179.934,1.51611,-145.415,620
1571130157,280.727,-135.62,-16.2967,179.934,1.51611,-145.415,620
1571130157,280.727,-135.62,-16.2967,179.934,1.51611,-145.415,620
1571130157,280.727,-135.731,-16.2967,179.912,1.51611,-145.415,620
1571130157,280.727,-135.731,-16.2967,179.912,1.51611,-145.415,620
1571130157,280.727,-135.731,-16.2967,179.912,1.51611,-145.415,616
1571130157,280.727,-135.731,-16.2967,179.912,1.51611,-145.415,616
1571130157,280.727,-135.731,-16.2967,179.912,1.51611,-145.415,616
1571130157,280.727,-135.731,-16.1851,179.912,1.51611,-145.415,616
1571130157,280.727,-135.731,-16.1851,179.912,1.51611,-145.415,616
1571130157,280.727,-135.731,-16.1851,179.912,1.51611,-145.415,616
1571130157,280.727,-135.731,-16.1851,179.912,1.51611,-145.415,616
1571130157,280.727,-135.731,-16.1851,179.912,1.51611,-145.415,616
1571130157,280.727,-135.731,-16.1851,179.912,1.51611,-145.415,616
1571130157,280.727,-135.731,-16.1851,179.912,1.51611,-145.415,616
1571130157,280.727,-135.731,-16.1851,179.912,1.51611,-145.415,616
1571130157,280.727,-135.731,-16.1851,179.912,1.51611,-145.415,616
1571130157,280.727,-135.731,-16.1851,179.912,1.51611,-145.415,616
1571130157,280.727,-135.731,-16.1851,179.912,1.51611,-145.415,616
1571130157,280.727,-135.731,-16.1851,179.912,1.51611,-145.415,616
1571130157,280.727,-135.731,-16.1851,179.934,1.51611,-145.415,616
1571130157,280.727,-135.62,-16.1851,179.934,1.51611,-145.415,616
1571130157,280.727,-135.62,-16.1851,179.934,1.51611,-145.415,612
1571130157,280.727,-135.62,-16.1851,179.934,1.51611,-145.415,612
1571130157,280.727,-135.62,-16.1851,179.934,1.51611,-145.415,612
1571130157,280.727,-135.62,-16.1851,179.934,1.51611,-145.415,612
1571130157,280.727,-135.62,-16.1851,179.934,1.51611,-145.415,612
1571130157,280.727,-135.62,-16.1851,179.934,1.51611,-145.415,612
1571130157,280.727,-135.62,-16.1851,179.934,1.51611,-145.415,612
1571130157,280.727,-135.62,-16.1851,179.934,1.51611,-145.415,616
1571130157,280.727,-135.62,-16.1851,179.934,1.51611,-145.415,616
1571130157,280.727,-135.62,-16.1851,179.934,1.51611,-145.415,616
1571130157,280.727,-135.62,-16.1851,179.934,1.51611,-145.415,616
1571130157,280.727,-135.62,-16.1851,179.934,1.51611,-145.415,616
1571130157,280.727,-135.62,-16.1851,179.934,1.51611,-145.415,616
1571130157,280.727,-135.62,-16.1851,179.934,1.51611,-145.415,616
1571130157,280.727,-135.62,-16.1851,179.934,1.51611,-145.415,616
1571130157,280.727,-135.62,-16.1851,179.934,1.51611,-145.415,616
1571130157,280.727,-135.62,-16.1851,179.934,1.51611,-145.415,616
1571130157,280.727,-135.62,-16.1851,179.934,1.51611,-145.415,616
1571130157,280.727,-135.62,-16.1851,179.934,1.51611,-145.415,616
1571130157,280.727,-135.62,-16.1851,179.934,1.51611,-145.415,616
1571130157,280.727,-135.62,-16.1851,179.934,1.51611,-145.415,616
1571130157,280.727,-135.62,-16.1851,179.934,1.51611,-145.415,616
1571130157,280.727,-135.62,-16.1851,179.934,1.51611,-145.415,616
1571130157,280.727,-135.62,-16.2967,179.934,1.51611,-145.415,616
1571130157,280.727,-135.62,-16.2967,179.934,1.49414,-145.415,616
1571130157,280.727,-135.62,-16.2967,179.934,1.49414,-145.415,616
1571130157,280.727,-135.62,-16.2967,179.934,1.49414,-145.415,616
1571130157,280.727,-135.62,-16.1851,179.934,1.49414,-145.415,616
1571130157,280.727,-135.62,-16.1851,179.934,1.51611,-145.415,616
1571130157,280.727,-135.62,-16.1851,179.934,1.51611,-145.415,616
1571130157,280.727,-135.62,-16.1851,179.934,1.51611,-145.415,616
1571130157,280.727,-135.62,-16.1851,179.934,1.51611,-145.415,616
1571130157,280.727,-135.62,-16.1851,179.934,1.51611,-145.415,616
1571130157,280.727,-135.62,-16.1851,179.934,1.49414,-145.415,616
1571130157,280.727,-135.62,-16.1851,179.934,1.49414,-145.415,616
1571130157,280.727,-135.62,-16.1851,179.934,1.49414,-145.415,616
1571130157,280.727,-135.62,-16.2967,179.934,1.49414,-145.415,612
1571130157,280.727,-135.62,-16.2967,179.934,1.49414,-145.415,612
1571130157,280.727,-135.62,-16.2967,179.934,1.49414,-145.415,612
1571130157,280.727,-135.62,-16.2967,179.934,1.49414,-145.415,612
1571130157,280.727,-135.62,-16.2967,179.934,1.49414,-145.415,612
1571130157,280.727,-135.62,-16.2967,179.912,1.49414,-145.415,612
1571130157,280.727,-135.731,-16.2967,179.912,1.49414,-145.415,612
1571130157,280.727,-135.731,-16.2967,179.912,1.49414,-145.415,612
1571130157,280.727,-135.62,-16.2967,179.912,1.49414,-145.415,612
1571130157,280.727,-135.62,-16.2967,179.912,1.49414,-145.415,612
1571130157,280.727,-135.62,-16.2967,179.912,1.49414,-145.415,612
1571130157,280.727,-135.62,-16.2967,179.912,1.49414,-145.415,612
1571130158,280.727,-135.62,-16.2967,179.912,1.49414,-145.415,612
1571130158,280.727,-135.62,-16.2967,179.934,1.49414,-145.415,612
1571130158,280.727,-135.62,-16.2967,179.934,1.49414,-145.415,612
1571130158,280.615,-135.62,-16.2967,179.934,1.49414,-145.415,612
1571130158,280.615,-135.62,-16.2967,179.934,1.49414,-145.415,612
1571130158,280.615,-135.62,-16.2967,179.934,1.49414,-145.415,612
1571130158,280.615,-135.62,-16.2967,179.912,1.49414,-145.415,612
1571130158,280.615,-135.62,-16.2967,179.912,1.49414,-145.415,612
1571130158,280.615,-135.62,-16.2967,179.912,1.49414,-145.415,612
1571130158,280.615,-135.62,-16.2967,179.912,1.49414,-145.415,612
1571130158,280.615,-135.62,-16.2967,179.912,1.49414,-145.415,616
1571130158,280.615,-135.62,-16.2967,179.912,1.49414,-145.415,616
1571130158,280.615,-135.62,-16.1851,179.912,1.49414,-145.415,616
1571130158,280.615,-135.62,-16.2967,179.912,1.49414,-145.415,616
1571130158,280.615,-135.62,-16.2967,179.912,1.49414,-145.415,616
1571130158,280.615,-135.62,-16.2967,179.912,1.49414,-145.415,616
1571130158,280.615,-135.62,-16.2967,179.912,1.49414,-145.415,616
1571130158,280.615,-135.62,-16.2967,179.912,1.49414,-145.415,620
1571130158,280.615,-135.62,-16.2967,179.912,1.49414,-145.415,620
1571130158,280.615,-135.62,-16.2967,179.912,1.49414,-145.415,620
1571130158,280.615,-135.62,-16.2967,179.912,1.49414,-145.415,620
1571130158,280.615,-135.62,-16.2967,179.912,1.49414,-145.415,620
1571130158,280.615,-135.62,-16.2967,179.912,1.49414,-145.415,620
1571130158,280.615,-135.62,-16.2967,179.912,1.49414,-145.415,624
1571130158,280.615,-135.62,-16.2967,179.912,1.49414,-145.415,624
1571130158,280.615,-135.62,-16.2967,179.912,1.49414,-145.415,624
1571130158,280.615,-135.62,-16.2967,179.912,1.49414,-145.415,624
1571130158,280.615,-135.62,-16.2967,179.912,1.49414,-145.415,624
1571130158,280.615,-135.731,-16.2967,179.912,1.49414,-145.415,624
1571130158,280.727,-135.731,-16.2967,179.912,1.49414,-145.415,624
1571130161,318.901,-176.25,-15.1805,179.868,1.97754,-145.371,684
1571130161,318.901,-176.25,-15.1805,179.868,1.97754,-145.371,684
1571130161,318.901,-176.25,-15.1805,179.868,1.97754,-145.371,684
1571130161,318.901,-176.25,-15.1805,179.868,1.97754,-145.371,684
1571130161,318.901,-176.25,-15.1805,179.868,1.97754,-145.371,688
1571130161,318.901,-176.25,-15.1805,179.868,1.97754,-145.371,688
1571130161,319.013,-176.25,-15.1805,179.868,1.97754,-145.371,688
1571130161,319.013,-176.25,-15.1805,179.868,1.97754,-145.371,688
1571130161,319.013,-176.25,-15.1805,179.868,1.97754,-145.371,688
1571130161,319.013,-176.25,-15.1805,179.868,1.97754,-145.371,688
1571130161,319.013,-176.25,-15.1805,179.868,1.97754,-145.371,688
1571130161,319.013,-176.25,-15.1805,179.868,1.97754,-145.371,688
1571130161,319.013,-176.361,-15.1805,179.868,1.97754,-145.371,688
1571130161,319.013,-176.361,-15.1805,179.868,1.97754,-145.371,684
1571130161,319.013,-176.361,-15.1805,179.868,1.97754,-145.371,684
1571130161,319.013,-176.361,-15.1805,179.868,1.97754,-145.371,684
1571130161,319.013,-176.361,-15.1805,179.868,1.97754,-145.371,684
1571130161,319.013,-176.361,-15.1805,179.868,1.97754,-145.371,684
1571130161,319.013,-176.361,-15.1805,179.868,1.97754,-145.371,684
1571130161,319.013,-176.361,-15.1805,179.868,1.97754,-145.371,680
1571130161,319.013,-176.361,-15.1805,179.868,1.97754,-145.371,680
1571130161,319.013,-176.361,-15.1805,179.846,1.97754,-145.371,680
1571130161,319.013,-176.361,-15.1805,179.846,1.97754,-145.371,680
1571130162,319.013,-176.361,-15.1805,179.846,1.97754,-145.371,680
1571130162,319.013,-176.361,-15.0688,179.846,1.99951,-145.371,680
1571130162,319.013,-176.361,-15.0688,179.846,1.99951,-145.371,684
1571130162,319.013,-176.361,-15.0688,179.846,1.99951,-145.371,684
1571130162,319.013,-176.361,-15.0688,179.846,1.99951,-145.349,684
1571130162,319.013,-176.361,-15.0688,179.846,1.99951,-145.349,684
1571130162,319.013,-176.361,-15.0688,179.846,1.99951,-145.349,684
1571130162,319.013,-176.361,-15.0688,179.846,1.99951,-145.349,688
1571130162,319.013,-176.361,-15.0688,179.846,1.99951,-145.349,688
1571130162,318.901,-176.361,-15.0688,179.846,1.99951,-145.349,688
1571130162,318.901,-176.361,-15.0688,179.846,1.99951,-145.349,692
1571130162,318.901,-176.361,-15.0688,179.846,1.99951,-145.349,692
1571130162,318.901,-176.361,-15.0688,179.846,1.99951,-145.349,692
1571130162,318.901,-176.361,-15.0688,179.846,1.99951,-145.349,692
1571130162,318.901,-176.361,-15.0688,179.846,1.97754,-145.349,696
1571130162,318.901,-176.361,-15.0688,179.846,1.97754,-145.349,696
1571130162,318.901,-176.361,-15.1805,179.846,1.97754,-145.349,696
1571130162,318.901,-176.361,-15.1805,179.868,1.97754,-145.371,696
1571130162,318.901,-176.361,-15.1805,179.868,1.97754,-145.371,696
1571130162,318.901,-176.361,-15.1805,179.868,1.97754,-145.371,696
1571130162,318.901,-176.361,-15.1805,179.868,1.97754,-145.371,696
1571130162,318.901,-176.361,-15.1805,179.868,1.97754,-145.371,696
1571130162,318.901,-176.361,-15.1805,179.868,1.97754,-145.371,700
1571130162,318.901,-176.361,-15.1805,179.868,1.97754,-145.371,700
1571130162,318.901,-176.361,-15.1805,179.868,1.97754,-145.371,700
1571130162,318.901,-176.361,-15.1805,179.846,1.97754,-145.371,700
1571130162,318.901,-176.361,-15.1805,179.846,1.97754,-145.371,700
1571130162,318.901,-176.361,-15.1805,179.846,1.97754,-145.371,700
1571130162,318.901,-176.361,-15.1805,179.846,1.97754,-145.371,704
1571130162,318.901,-176.361,-15.1805,179.846,1.97754,-145.371,704
1571130162,318.901,-176.361,-15.1805,179.846,1.97754,-145.371,704
1571130162,318.901,-176.361,-15.1805,179.846,1.97754,-145.371,704
1571130162,318.901,-176.361,-15.1805,179.846,1.97754,-145.371,704
1571130162,318.901,-176.361,-15.1805,179.846,1.97754,-145.371,704
1571130162,318.901,-176.361,-15.1805,179.846,1.97754,-145.371,704
1571130162,318.901,-176.361,-15.1805,179.846,1.97754,-145.371,704
1571130162,318.901,-176.361,-15.1805,179.846,1.97754,-145.371,704
1571130162,319.013,-176.361,-15.1805,179.846,1.97754,-145.371,704
1571130162,319.013,-176.361,-15.1805,179.846,1.97754,-145.371,704
1571130162,319.013,-176.361,-15.1805,179.846,1.97754,-145.371,704
1571130162,319.013,-176.361,-15.1805,179.846,1.97754,-145.371,704
1571130162,319.013,-176.361,-15.1805,179.846,1.97754,-145.371,704
1571130162,319.013,-176.361,-15.1805,179.846,1.97754,-145.371,704
1571130162,319.013,-176.361,-15.1805,179.846,1.97754,-145.371,704
1571130162,319.013,-176.361,-15.1805,179.846,1.97754,-145.371,704
1571130162,319.013,-176.361,-15.1805,179.846,1.97754,-145.371,700
1571130162,319.013,-176.361,-15.1805,179.846,1.97754,-145.371,700
1571130162,319.013,-176.361,-15.1805,179.846,1.97754,-145.371,700
1571130162,319.013,-176.361,-15.1805,179.846,1.97754,-145.371,700
1571130162,319.013,-176.361,-15.1805,179.868,1.97754,-145.371,700
1571130162,319.013,-176.361,-15.1805,179.868,1.97754,-145.371,696
1571130162,319.013,-176.361,-15.1805,179.868,1.97754,-145.371,696
1571130162,319.013,-176.361,-15.1805,179.868,1.97754,-145.371,696
1571130162,319.013,-176.361,-15.1805,179.868,1.97754,-145.371,696
1571130162,319.013,-176.361,-15.1805,179.868,1.97754,-145.371,696
1571130162,319.013,-176.361,-15.1805,179.868,1.97754,-145.371,696
1571130162,319.013,-176.361,-15.1805,179.868,1.97754,-145.371,696
1571130162,319.013,-176.361,-15.1805,179.868,1.97754,-145.371,692
1571130162,319.013,-176.361,-15.1805,179.868,1.97754,-145.371,692
1571130162,319.013,-176.361,-15.1805,179.868,1.97754,-145.371,692
1571130162,319.013,-176.361,-15.1805,179.868,1.97754,-145.371,692
1571130162,319.013,-176.361,-15.1805,179.868,1.97754,-145.371,692
1571130162,319.013,-176.361,-15.1805,179.868,1.99951,-145.371,692
1571130162,319.013,-176.361,-15.1805,179.868,1.99951,-145.371,692
1571130162,319.013,-176.361,-15.1805,179.868,1.99951,-145.371,692
1571130162,319.013,-176.361,-15.0688,179.868,1.99951,-145.371,696
1571130162,319.013,-176.361,-15.0688,179.868,1.99951,-145.371,696
1571130162,319.013,-176.361,-15.0688,179.868,1.99951,-145.371,696
1571130162,319.013,-176.361,-15.0688,179.868,1.99951,-145.371,696
1571130162,319.013,-176.361,-15.0688,179.868,2.02148,-145.371,696
1571130162,319.013,-176.361,-15.0688,179.868,2.02148,-145.371,696
1571130162,319.013,-176.361,-15.0688,179.868,2.02148,-145.371,696
1571130162,319.013,-176.361,-15.0688,179.868,2.02148,-145.371,696
1571130162,319.013,-176.361,-15.0688,179.868,2.02148,-145.371,696
1571130162,319.013,-176.361,-15.0688,179.868,2.02148,-145.371,696
1571130162,319.013,-176.361,-15.0688,179.868,2.02148,-145.371,696
1571130162,319.013,-176.361,-15.0688,179.868,2.02148,-145.371,696
1571130162,319.013,-176.361,-15.0688,179.868,2.02148,-145.371,696
1571130162,319.013,-176.361,-15.0688,179.868,2.02148,-145.371,696
1571130162,319.013,-176.361,-15.0688,179.868,2.02148,-145.371,696
1571130162,319.013,-176.361,-15.0688,179.868,2.02148,-145.371,696
1571130162,319.013,-176.361,-15.0688,179.868,2.02148,-145.371,696
1571130162,319.013,-176.361,-15.0688,179.868,2.02148,-145.371,692
1571130162,319.013,-176.361,-15.0688,179.868,2.02148,-145.371,692
1571130162,319.013,-176.361,-15.0688,179.868,2.02148,-145.371,692
1571130162,319.013,-176.361,-15.0688,179.868,2.02148,-145.371,692
1571130162,319.013,-176.361,-15.0688,179.868,2.02148,-145.371,692
1571130162,319.013,-176.361,-15.0688,179.868,2.02148,-145.371,688
1571130162,319.013,-176.361,-15.0688,179.868,2.02148,-145.371,688
1571130162,319.013,-176.361,-15.0688,179.868,2.02148,-145.371,688
1571130162,319.013,-176.361,-15.0688,179.868,2.02148,-145.371,688
1571130162,319.013,-176.361,-15.0688,179.868,2.02148,-145.371,688
1571130162,319.013,-176.361,-15.0688,179.868,2.02148,-145.371,688
1571130162,319.013,-176.361,-15.0688,179.868,2.02148,-145.371,688
1571130162,319.013,-176.361,-15.0688,179.868,2.02148,-145.349,684
1571130162,319.013,-176.361,-15.0688,179.868,2.04346,-145.349,684
1571130162,319.013,-176.361,-15.0688,179.868,2.04346,-145.349,684
1571130162,319.013,-176.361,-14.9572,179.868,2.04346,-145.349,684
1571130162,319.013,-176.361,-14.9572,179.868,2.04346,-145.349,684
1571130162,319.013,-176.361,-14.9572,179.868,2.04346,-145.349,684
1571130163,319.013,-176.361,-14.9572,179.868,2.04346,-145.349,684
1571130163,319.013,-176.361,-14.9572,179.868,2.04346,-145.349,684
1571130163,319.013,-176.361,-14.9572,179.868,2.04346,-145.349,684
1571130163,319.013,-176.361,-14.9572,179.868,2.04346,-145.349,684
1571130163,319.013,-176.361,-14.9572,179.868,2.04346,-145.349,684
1571130163,319.013,-176.361,-14.9572,179.868,2.04346,-145.349,684
1571130163,319.013,-176.361,-14.9572,179.868,2.04346,-145.349,684
1571130163,319.013,-176.361,-14.9572,179.868,2.04346,-145.349,680
1571130163,319.013,-176.361,-14.9572,179.868,2.04346,-145.349,680
1571130163,319.013,-176.361,-14.9572,179.868,2.04346,-145.349,680
1571130163,319.013,-176.361,-15.0688,179.868,2.02148,-145.349,680
1571130163,319.013,-176.361,-15.0688,179.868,2.02148,-145.349,680
1571130163,319.013,-176.361,-15.0688,179.868,2.02148,-145.349,680
1571130163,319.013,-176.361,-15.0688,179.868,2.02148,-145.349,680
1571130163,319.013,-176.361,-15.0688,179.868,2.02148,-145.349,680
1571130163,319.013,-176.361,-15.0688,179.868,2.02148,-145.349,680
1571130163,319.013,-176.361,-15.0688,179.868,2.02148,-145.349,680
1571130163,319.013,-176.361,-15.0688,179.868,2.02148,-145.349,680
1571130163,319.013,-176.361,-15.0688,179.868,2.02148,-145.349,680
1571130163,319.013,-176.361,-15.0688,179.868,2.02148,-145.349,680
1571130163,319.125,-176.361,-15.0688,179.868,2.02148,-145.349,680
1571130163,319.125,-176.361,-15.0688,179.868,2.02148,-145.349,680
1571130163,319.125,-176.361,-15.0688,179.868,2.02148,-145.349,680
1571130163,319.125,-176.361,-15.0688,179.868,2.02148,-145.349,680
1571130163,319.125,-176.361,-15.0688,179.868,2.02148,-145.349,680
1571130163,319.125,-176.361,-15.0688,179.868,2.02148,-145.349,680
1571130163,319.125,-176.361,-15.0688,179.868,2.02148,-145.349,676
1571130163,319.125,-176.361,-15.0688,179.868,2.02148,-145.349,676
1571130163,319.125,-176.361,-15.0688,179.868,2.02148,-145.349,676
1571130163,319.125,-176.361,-15.0688,179.868,2.02148,-145.349,676
1571130163,319.013,-176.361,-15.0688,179.846,2.02148,-145.349,676
1571130163,319.013,-176.361,-15.0688,179.868,2.02148,-145.349,676
1571130163,319.013,-176.361,-15.0688,179.868,1.99951,-145.371,680
1571130163,319.013,-176.361,-15.0688,179.868,1.99951,-145.371,680
1571130163,319.013,-176.361,-15.0688,179.868,1.99951,-145.371,680
1571130163,319.013,-176.361,-15.0688,179.868,1.99951,-145.371,680
1571130163,319.013,-176.361,-15.0688,179.868,1.99951,-145.371,680
1571130163,319.013,-176.361,-15.0688,179.868,1.99951,-145.371,680
1571130163,319.013,-176.361,-15.0688,179.868,1.99951,-145.371,680
1571130163,319.013,-176.361,-15.0688,179.868,1.99951,-145.371,680
1571130163,319.013,-176.361,-15.0688,179.868,1.99951,-145.371,680
1571130163,319.013,-176.361,-15.1805,179.868,1.99951,-145.371,684
1571130163,319.013,-176.361,-15.1805,179.868,1.99951,-145.371,684
1571130163,319.013,-176.361,-15.1805,179.846,1.99951,-145.371,684
1571130163,319.013,-176.361,-15.0688,179.846,1.99951,-145.371,684
1571130163,319.013,-176.361,-15.0688,179.846,1.99951,-145.371,684
1571130163,319.013,-176.361,-15.0688,179.846,1.99951,-145.371,684
1571130163,319.013,-176.361,-15.0688,179.846,1.99951,-145.371,684
1571130163,319.013,-176.361,-15.0688,179.846,1.99951,-145.371,684
1571130163,319.013,-176.361,-15.0688,179.846,1.99951,-145.371,684
1571130163,319.013,-176.361,-15.0688,179.846,2.02148,-145.371,684
1571130163,319.013,-176.361,-15.0688,179.846,2.02148,-145.371,684
1571130163,319.013,-176.361,-15.0688,179.846,2.02148,-145.371,684
1571130163,319.013,-176.361,-15.0688,179.868,2.02148,-145.371,684
1571130163,319.013,-176.361,-14.9572,179.868,2.04346,-145.371,688
1571130163,319.013,-176.25,-14.9572,179.868,2.04346,-145.371,688
1571130163,319.013,-176.25,-14.9572,179.868,2.04346,-145.371,688
1571130163,319.013,-176.25,-14.9572,179.868,2.04346,-145.371,688
1571130163,319.013,-176.25,-14.9572,179.868,2.04346,-145.371,688
1571130163,319.013,-176.25,-14.9572,179.868,2.04346,-145.371,684
1571130163,319.013,-176.25,-14.9572,179.868,2.04346,-145.371,684
1571130163,319.013,-176.25,-14.9572,179.868,2.04346,-145.371,684
1571130163,319.013,-176.25,-15.0688,179.868,2.02148,-145.371,684
1571130163,319.013,-176.25,-15.0688,179.868,2.02148,-145.371,684
1571130163,319.013,-176.25,-15.0688,179.868,2.02148,-145.371,684
1571130163,319.013,-176.361,-15.0688,179.868,2.02148,-145.371,684
1571130163,319.013,-176.361,-15.0688,179.868,2.02148,-145.371,680
1571130163,319.013,-176.361,-15.0688,179.868,2.02148,-145.371,680
1571130163,319.013,-176.361,-15.0688,179.868,2.02148,-145.371,680
1571130163,319.013,-176.361,-15.0688,179.868,2.02148,-145.371,680
1571130163,319.013,-176.361,-15.0688,179.868,2.02148,-145.371,680
1571130163,319.013,-176.361,-15.0688,179.868,2.02148,-145.371,680
1571130163,319.013,-176.361,-15.0688,179.868,2.02148,-145.371,680
1571130163,319.013,-176.361,-15.0688,179.868,2.02148,-145.371,680
1571130163,319.013,-176.25,-15.0688,179.868,2.02148,-145.371,680
1571130163,319.013,-176.25,-15.0688,179.868,2.02148,-145.371,680
1571130163,319.013,-176.25,-15.0688,179.868,2.02148,-145.371,680
1571130163,319.013,-176.25,-15.0688,179.868,2.02148,-145.371,680
1571130163,319.013,-176.25,-15.0688,179.868,2.02148,-145.371,680
1571130163,319.013,-176.25,-15.0688,179.868,2.02148,-145.371,680
1571130163,319.013,-176.25,-15.0688,179.868,2.02148,-145.371,680
1571130163,319.013,-176.25,-15.0688,179.868,2.02148,-145.371,680
1571130163,319.013,-176.25,-15.0688,179.868,1.99951,-145.371,680
1571130163,319.013,-176.25,-15.0688,179.868,1.99951,-145.371,680
1571130163,319.013,-176.25,-15.0688,179.868,1.99951,-145.371,680
1571130163,319.013,-176.25,-15.0688,179.868,1.99951,-145.371,680
1571130163,319.013,-176.25,-15.0688,179.868,1.99951,-145.371,680
1571130163,319.013,-176.25,-15.0688,179.868,1.99951,-145.371,676
1571130163,319.013,-176.25,-15.0688,179.868,1.99951,-145.371,676
1571130163,319.013,-176.25,-15.0688,179.89,1.99951,-145.371,676
1571130163,319.013,-176.25,-15.0688,179.89,1.99951,-145.371,676
1571130163,319.013,-176.25,-15.0688,179.89,1.99951,-145.371,676
1571130163,319.013,-176.25,-15.0688,179.89,1.99951,-145.371,676
1571130163,319.013,-176.25,-15.0688,179.89,1.99951,-145.371,676
1571130163,319.013,-176.25,-15.0688,179.868,1.99951,-145.371,680
1571130163,319.013,-176.25,-15.0688,179.868,2.02148,-145.371,680
1571130163,319.013,-176.25,-15.0688,179.868,1.99951,-145.371,680
1571130163,319.013,-176.25,-15.0688,179.868,1.99951,-145.371,680
1571130163,319.013,-176.25,-15.0688,179.868,1.99951,-145.371,680
1571130163,319.013,-176.25,-15.0688,179.868,1.99951,-145.371,680
1571130164,319.013,-176.25,-15.0688,179.868,1.99951,-145.371,680
1571130164,319.013,-176.25,-15.0688,179.868,1.99951,-145.371,684
1571130164,319.013,-176.25,-15.0688,179.89,1.99951,-145.371,684
1571130164,319.013,-176.25,-15.0688,179.89,1.99951,-145.371,684
1571130164,319.013,-176.25,-15.0688,179.89,1.99951,-145.371,684
1571130164,319.013,-176.25,-15.0688,179.89,1.99951,-145.371,688
1571130164,319.013,-176.25,-15.0688,179.89,1.99951,-145.371,688
1571130164,319.013,-176.25,-15.0688,179.89,1.99951,-145.371,688
1571130164,319.013,-176.25,-15.0688,179.89,1.99951,-145.371,688
1571130164,319.013,-176.25,-15.0688,179.868,1.99951,-145.371,688
1571130164,319.013,-176.25,-15.0688,179.868,1.99951,-145.371,692
1571130164,319.013,-176.25,-15.0688,179.868,1.99951,-145.371,692
1571130164,319.013,-176.25,-15.0688,179.868,1.99951,-145.371,692
1571130164,319.013,-176.25,-15.0688,179.868,1.99951,-145.371,692
1571130164,319.013,-176.25,-15.0688,179.868,1.99951,-145.371,692
1571130164,318.901,-176.25,-15.0688,179.868,1.99951,-145.371,692
1571130164,318.901,-176.25,-15.0688,179.868,1.99951,-145.371,692
1571130164,318.901,-176.25,-15.0688,179.868,1.99951,-145.371,692
1571130164,319.013,-176.25,-15.0688,179.868,1.99951,-145.371,692
1571130164,319.013,-176.25,-15.0688,179.868,1.99951,-145.371,692
1571130164,319.013,-176.25,-15.0688,179.868,1.99951,-145.371,692
1571130164,319.013,-176.25,-15.0688,179.868,1.99951,-145.349,692
1571130164,319.013,-176.25,-15.0688,179.868,1.99951,-145.349,692
1571130164,319.013,-176.25,-15.0688,179.868,1.99951,-145.349,692
1571130164,319.013,-176.25,-15.0688,179.868,1.99951,-145.349,692
1571130164,319.013,-176.25,-15.0688,179.868,1.99951,-145.349,696
1571130164,319.013,-176.25,-15.0688,179.868,1.99951,-145.371,696
1571130164,318.901,-176.25,-15.0688,179.868,1.99951,-145.371,696
1571130164,318.901,-176.25,-15.0688,179.868,1.99951,-145.371,696
1571130164,318.901,-176.25,-15.0688,179.868,1.99951,-145.371,696
1571130164,318.901,-176.25,-15.0688,179.868,1.99951,-145.371,696
1571130164,318.901,-176.25,-15.0688,179.868,1.99951,-145.371,696
1571130164,318.901,-176.25,-15.0688,179.868,1.99951,-145.371,700
1571130164,318.901,-176.25,-15.0688,179.868,1.99951,-145.371,700
1571130164,318.901,-176.25,-15.0688,179.868,1.99951,-145.371,700
1571130164,318.901,-176.25,-15.0688,179.868,1.97754,-145.371,700
1571130164,318.901,-176.25,-15.1805,179.868,1.97754,-145.371,704
1571130164,318.901,-176.25,-15.1805,179.868,1.97754,-145.371,704
1571130164,318.901,-176.25,-15.1805,179.868,1.97754,-145.371,704
1571130164,318.901,-176.25,-15.1805,179.89,1.97754,-145.371,704
1571130164,318.901,-176.25,-15.1805,179.89,1.97754,-145.371,704
1571130164,318.901,-176.25,-15.1805,179.89,1.97754,-145.371,704
1571130164,318.901,-176.25,-15.1805,179.89,1.97754,-145.371,704
1571130164,318.901,-176.25,-15.1805,179.89,1.97754,-145.371,704
1571130164,319.013,-176.25,-15.1805,179.89,1.97754,-145.371,704
1571130164,319.013,-176.25,-15.1805,179.89,1.97754,-145.371,704
1571130164,319.013,-176.25,-15.1805,179.89,1.97754,-145.371,704
1571130164,319.013,-176.25,-15.1805,179.89,1.97754,-145.371,704
1571130164,319.013,-176.25,-15.1805,179.89,1.97754,-145.371,704
1571130164,319.013,-176.138,-15.1805,179.89,1.97754,-145.371,704
1571130164,319.013,-176.138,-15.1805,179.89,1.95557,-145.349,704
1571130164,319.013,-176.138,-15.1805,179.89,1.95557,-145.349,704
1571130164,319.013,-176.138,-15.1805,179.89,1.95557,-145.349,704
1571130164,319.013,-176.138,-15.1805,179.89,1.97754,-145.349,700
1571130164,319.013,-176.138,-15.1805,179.89,1.97754,-145.349,700
1571130164,319.013,-176.138,-15.1805,179.89,1.97754,-145.349,700
1571130164,319.013,-176.138,-15.1805,179.89,1.97754,-145.349,700
1571130164,319.013,-176.138,-15.1805,179.89,1.97754,-145.349,700
1571130164,319.013,-176.138,-15.1805,179.89,1.97754,-145.349,700
1571130164,318.901,-176.25,-15.1805,179.89,1.97754,-145.371,700
1571130164,318.901,-176.25,-15.1805,179.89,1.97754,-145.371,700
1571130164,318.901,-176.25,-15.1805,179.89,1.97754,-145.371,704
1571130164,318.901,-176.25,-15.1805,179.89,1.97754,-145.371,704
1571130164,318.901,-176.25,-15.1805,179.89,1.97754,-145.371,704
1571130164,318.901,-176.25,-15.1805,179.868,1.97754,-145.371,704
1571130164,319.013,-176.25,-15.1805,179.868,1.97754,-145.371,704
1571130164,319.013,-176.25,-15.1805,179.868,1.97754,-145.371,704
1571130164,319.013,-176.25,-15.1805,179.868,1.99951,-145.371,704
1571130164,319.013,-176.25,-15.0688,179.868,1.99951,-145.371,704
1571130164,319.013,-176.25,-15.0688,179.868,1.99951,-145.371,704
1571130164,319.013,-176.25,-15.0688,179.868,1.99951,-145.371,704
1571130164,319.013,-176.25,-15.0688,179.868,1.99951,-145.371,704
1571130164,318.901,-176.25,-15.0688,179.868,1.99951,-145.371,704
1571130164,318.901,-176.25,-15.0688,179.868,1.99951,-145.371,704
1571130164,318.901,-176.25,-15.1805,179.868,1.99951,-145.371,704
1571130164,318.901,-176.25,-15.1805,179.868,1.99951,-145.371,704
1571130164,318.901,-176.25,-15.1805,179.868,1.99951,-145.371,704
1571130164,318.901,-176.25,-15.1805,179.868,1.97754,-145.371,704
1571130164,318.901,-176.25,-15.1805,179.868,1.97754,-145.371,704
1571130164,318.901,-176.25,-15.1805,179.868,1.97754,-145.371,704
1571130164,318.901,-176.25,-15.1805,179.868,1.97754,-145.371,704
1571130164,318.901,-176.25,-15.1805,179.868,1.97754,-145.371,704
