time,x,y,z,ax,ay,az,q
1569847965,333.859,148.568,-3.12539,176.177,4.94385,-146.711,920
1569847965,333.859,148.568,-3.12539,176.177,4.94385,-146.711,920
1569847965,333.859,148.568,-3.23701,176.177,4.94385,-146.711,920
1569847965,333.859,148.568,-3.23701,176.177,4.94385,-146.711,920
1569847965,333.859,148.568,-3.23701,176.177,4.94385,-146.711,924
1569847965,333.859,148.568,-3.23701,176.177,4.94385,-146.711,924
1569847965,333.859,148.568,-3.23701,176.177,4.94385,-146.711,924
1569847965,333.859,148.568,-3.23701,176.177,4.94385,-146.711,924
1569847965,333.859,148.568,-3.23701,176.177,4.94385,-146.711,928
1569847965,333.859,148.568,-3.23701,176.177,4.94385,-146.711,928
1569847965,333.859,148.568,-3.23701,176.177,4.94385,-146.711,928
1569847965,333.97,148.568,-3.23701,176.177,4.94385,-146.711,928
1569847965,333.97,148.568,-3.23701,176.177,4.94385,-146.733,932
1569847965,333.97,148.568,-3.12539,176.177,4.94385,-146.733,932
1569847965,333.97,148.568,-3.12539,176.177,4.94385,-146.733,932
1569847965,333.97,148.568,-3.12539,176.177,4.94385,-146.733,932
1569847965,333.859,148.568,-3.12539,176.177,4.94385,-146.733,932
1569847965,333.97,148.568,-3.23701,176.155,4.94385,-146.733,932
1569847965,333.97,148.568,-3.23701,176.155,4.94385,-146.733,932
1569847965,333.97,148.568,-3.23701,176.155,4.92188,-146.711,932
1569847965,333.859,148.568,-3.23701,176.155,4.92188,-146.711,932
1569847965,333.859,148.568,-3.23701,176.155,4.92188,-146.711,932
1569847965,333.859,148.568,-3.23701,176.177,4.92188,-146.711,932
1569847965,333.859,148.568,-3.23701,176.177,4.92188,-146.711,932
1569847965,333.859,148.568,-3.23701,176.177,4.92188,-146.711,928
1569847965,333.97,148.568,-3.23701,176.177,4.92188,-146.711,928
1569847965,333.97,148.568,-3.23701,176.177,4.92188,-146.711,928
1569847965,333.97,148.568,-3.23701,176.177,4.92188,-146.711,928
1569847965,333.97,148.568,-3.23701,176.177,4.92188,-146.711,928
1569847965,333.97,148.568,-3.23701,176.177,4.92188,-146.711,932
1569847965,333.97,148.568,-3.23701,176.155,4.92188,-146.711,932
1569847965,333.97,148.568,-3.23701,176.155,4.92188,-146.711,932
1569847965,333.97,148.568,-3.23701,176.155,4.92188,-146.711,932
1569847965,333.97,148.568,-3.23701,176.155,4.92188,-146.711,932
1569847965,333.97,148.568,-3.23701,176.155,4.92188,-146.711,932
1569847965,333.97,148.568,-3.23701,176.155,4.8999,-146.711,936
1569847965,333.97,148.456,-3.23701,176.155,4.8999,-146.711,936
1569847965,333.97,148.456,-3.23701,176.155,4.8999,-146.711,936
1569847965,333.97,148.456,-3.23701,176.155,4.8999,-146.711,936
1569847965,333.97,148.456,-3.23701,176.155,4.8999,-146.711,936
1569847965,333.97,148.456,-3.23701,176.155,4.92188,-146.711,936
1569847965,333.97,148.456,-3.23701,176.155,4.92188,-146.711,936
1569847965,333.97,148.456,-3.23701,176.155,4.92188,-146.711,936
1569847965,333.97,148.456,-3.23701,176.155,4.92188,-146.711,936
1569847965,333.97,148.456,-3.23701,176.155,4.92188,-146.711,936
1569847965,333.97,148.456,-3.23701,176.155,4.92188,-146.711,936
1569847965,333.97,148.568,-3.23701,176.155,4.92188,-146.711,936
1569847965,333.97,148.568,-3.23701,176.155,4.92188,-146.711,932
1569847965,333.97,148.568,-3.23701,176.155,4.92188,-146.711,932
1569847965,333.97,148.568,-3.23701,176.155,4.92188,-146.711,932
1569847965,333.97,148.568,-3.23701,176.155,4.92188,-146.711,932
1569847965,333.97,148.568,-3.23701,176.155,4.92188,-146.711,932
1569847965,333.97,148.568,-3.23701,176.155,4.92188,-146.711,928
1569847965,333.97,148.568,-3.23701,176.155,4.92188,-146.711,928
1569847965,333.97,148.568,-3.23701,176.155,4.92188,-146.711,928
1569847965,333.97,148.456,-3.23701,176.155,4.92188,-146.711,928
1569847965,333.97,148.456,-3.23701,176.155,4.92188,-146.711,928
1569847965,333.97,148.456,-3.23701,176.155,4.92188,-146.711,928
1569847965,333.97,148.456,-3.23701,176.155,4.92188,-146.711,928
1569847965,333.859,148.456,-3.23701,176.133,4.92188,-146.711,928
1569847965,333.859,148.456,-3.23701,176.133,4.92188,-146.711,924
1569847965,333.859,148.456,-3.23701,176.133,4.92188,-146.711,924
1569847965,333.859,148.456,-3.23701,176.133,4.92188,-146.711,924
1569847965,333.859,148.456,-3.23701,176.133,4.92188,-146.711,924
1569847965,333.97,148.456,-3.23701,176.133,4.92188,-146.711,924
1569847965,333.97,148.456,-3.23701,176.133,4.92188,-146.711,924
1569847965,333.97,148.456,-3.23701,176.133,4.92188,-146.711,924
1569847966,333.97,148.456,-3.23701,176.133,4.92188,-146.711,924
1569847966,333.97,148.456,-3.23701,176.133,4.92188,-146.711,924
1569847966,333.97,148.456,-3.23701,176.133,4.92188,-146.711,928
1569847966,333.859,148.456,-3.23701,176.133,4.92188,-146.711,928
1569847966,333.859,148.456,-3.23701,176.133,4.92188,-146.711,928
1569847966,333.859,148.456,-3.23701,176.133,4.8999,-146.711,928
1569847966,333.859,148.456,-3.23701,176.155,4.8999,-146.711,928
1569847966,333.859,148.456,-3.23701,176.155,4.8999,-146.711,928
1569847966,333.859,148.456,-3.23701,176.155,4.8999,-146.711,928
1569847966,333.859,148.456,-3.23701,176.155,4.8999,-146.711,928
1569847966,333.859,148.456,-3.23701,176.155,4.8999,-146.711,928
1569847966,333.859,148.456,-3.23701,176.155,4.8999,-146.711,928
1569847966,333.859,148.456,-3.23701,176.155,4.8999,-146.711,928
1569847966,333.859,148.456,-3.23701,176.155,4.8999,-146.711,928
1569847966,333.859,148.456,-3.23701,176.155,4.8999,-146.711,928
1569847966,333.859,148.456,-3.23701,176.155,4.8999,-146.711,928
1569847966,333.859,148.456,-3.23701,176.155,4.8999,-146.711,928
1569847966,333.859,148.456,-3.23701,176.155,4.8999,-146.711,928
1569847966,333.859,148.456,-3.23701,176.155,4.8999,-146.711,928
1569847966,333.859,148.456,-3.23701,176.155,4.8999,-146.711,928
1569847966,333.859,148.456,-3.23701,176.155,4.8999,-146.711,928
1569847966,333.859,148.456,-3.23701,176.155,4.8999,-146.711,928
1569847966,333.859,148.456,-3.23701,176.155,4.8999,-146.711,928
1569847966,333.859,148.456,-3.23701,176.155,4.8999,-146.711,928
1569847966,333.859,148.456,-3.23701,176.155,4.8999,-146.711,928
1569847966,333.859,148.456,-3.23701,176.155,4.8999,-146.711,928
1569847966,333.859,148.456,-3.23701,176.155,4.8999,-146.711,928
1569847966,333.859,148.456,-3.34863,176.155,4.8999,-146.711,928
1569847966,333.859,148.456,-3.34863,176.155,4.8999,-146.711,928
1569847966,333.859,148.456,-3.34863,176.155,4.8999,-146.711,928
1569847966,333.97,148.456,-3.34863,176.155,4.87793,-146.711,928
1569847966,333.97,148.456,-3.34863,176.155,4.87793,-146.711,928
1569847966,333.97,148.456,-3.34863,176.155,4.87793,-146.711,928
1569847966,333.97,148.456,-3.34863,176.155,4.87793,-146.711,928
1569847966,333.97,148.456,-3.34863,176.155,4.87793,-146.711,928
1569847966,333.97,148.456,-3.34863,176.155,4.87793,-146.711,928
1569847966,333.97,148.456,-3.34863,176.155,4.87793,-146.711,928
1569847966,333.97,148.456,-3.34863,176.155,4.87793,-146.711,928
1569847966,333.97,148.456,-3.34863,176.155,4.87793,-146.711,928
1569847966,333.97,148.456,-3.34863,176.155,4.8999,-146.711,928
1569847966,333.97,148.456,-3.34863,176.155,4.8999,-146.711,928
1569847966,333.97,148.456,-3.34863,176.155,4.8999,-146.711,928
1569847966,333.97,148.456,-3.34863,176.155,4.8999,-146.711,928
1569847966,333.97,148.456,-3.34863,176.155,4.8999,-146.711,928
1569847966,333.97,148.456,-3.34863,176.155,4.8999,-146.711,928
1569847966,333.97,148.456,-3.34863,176.155,4.8999,-146.711,928
1569847966,333.97,148.456,-3.34863,176.155,4.8999,-146.711,928
1569847966,333.97,148.456,-3.34863,176.155,4.8999,-146.711,928
1569847966,333.97,148.456,-3.34863,176.155,4.8999,-146.711,928
1569847966,333.97,148.456,-3.34863,176.155,4.8999,-146.711,928
1569847966,333.97,148.456,-3.34863,176.155,4.8999,-146.711,928
1569847966,333.97,148.456,-3.23701,176.155,4.8999,-146.711,928
1569847966,333.97,148.456,-3.23701,176.155,4.8999,-146.733,928
1569847966,333.97,148.456,-3.23701,176.155,4.8999,-146.733,928
1569847966,333.97,148.456,-3.23701,176.155,4.8999,-146.733,932
1569847966,333.97,148.456,-3.23701,176.155,4.8999,-146.733,932
1569847966,333.97,148.456,-3.23701,176.155,4.8999,-146.733,932
1569847966,333.97,148.456,-3.23701,176.155,4.8999,-146.733,932
1569847966,333.97,148.456,-3.23701,176.155,4.8999,-146.733,932
1569847966,333.97,148.456,-3.23701,176.155,4.8999,-146.733,932
1569847966,333.97,148.568,-3.23701,176.155,4.8999,-146.733,936
1569847966,333.97,148.568,-3.23701,176.155,4.8999,-146.733,936
1569847966,333.97,148.568,-3.23701,176.155,4.8999,-146.733,936
1569847966,333.97,148.568,-3.23701,176.155,4.8999,-146.733,936
1569847966,333.97,148.568,-3.23701,176.155,4.8999,-146.733,936
1569847966,333.97,148.568,-3.23701,176.155,4.8999,-146.733,940
1569847966,333.97,148.568,-3.23701,176.155,4.8999,-146.733,940
1569847966,333.97,148.568,-3.23701,176.155,4.8999,-146.733,940
1569847966,333.97,148.568,-3.23701,176.155,4.8999,-146.733,940
1569847966,333.97,148.568,-3.23701,176.155,4.8999,-146.733,940
1569847966,333.97,148.568,-3.23701,176.155,4.8999,-146.733,940
1569847966,333.97,148.456,-3.23701,176.155,4.8999,-146.733,940
1569847966,333.97,148.456,-3.23701,176.155,4.8999,-146.733,940
1569847966,333.97,148.456,-3.23701,176.155,4.8999,-146.733,940
1569847966,333.97,148.456,-3.23701,176.155,4.8999,-146.733,940
1569847966,333.97,148.456,-3.23701,176.155,4.8999,-146.733,940
1569847966,333.97,148.456,-3.23701,176.155,4.8999,-146.733,940
1569847966,333.97,148.456,-3.23701,176.133,4.8999,-146.733,940
1569847966,333.97,148.456,-3.23701,176.133,4.8999,-146.733,940
1569847966,333.97,148.456,-3.23701,176.133,4.8999,-146.733,940
1569847966,333.97,148.456,-3.23701,176.133,4.8999,-146.733,940
1569847966,333.97,148.456,-3.23701,176.133,4.8999,-146.733,940
1569847966,333.97,148.456,-3.23701,176.133,4.8999,-146.733,940
1569847966,333.97,148.456,-3.23701,176.133,4.8999,-146.733,944
1569847966,333.97,148.456,-3.23701,176.133,4.8999,-146.733,944
1569847966,333.97,148.456,-3.23701,176.155,4.8999,-146.733,944
1569847966,333.97,148.456,-3.23701,176.155,4.8999,-146.733,944
1569847966,333.97,148.456,-3.23701,176.155,4.92188,-146.711,944
1569847966,333.97,148.456,-3.23701,176.155,4.92188,-146.711,944
1569847966,333.97,148.456,-3.23701,176.155,4.92188,-146.711,944
1569847966,333.859,148.456,-3.23701,176.155,4.92188,-146.711,944
1569847966,333.859,148.456,-3.23701,176.155,4.8999,-146.711,944
1569847966,333.859,148.456,-3.23701,176.155,4.8999,-146.711,944
1569847966,333.859,148.568,-3.23701,176.155,4.8999,-146.711,944
1569847966,333.859,148.568,-3.23701,176.155,4.8999,-146.711,944
1569847966,333.859,148.568,-3.23701,176.155,4.8999,-146.711,944
1569847966,333.859,148.568,-3.23701,176.155,4.8999,-146.711,940
1569847966,333.859,148.568,-3.23701,176.155,4.8999,-146.711,940
1569847966,333.859,148.568,-3.23701,176.155,4.8999,-146.711,940
1569847966,333.859,148.568,-3.23701,176.155,4.8999,-146.711,940
1569847967,333.859,148.568,-3.23701,176.155,4.8999,-146.711,936
1569847967,333.859,148.568,-3.23701,176.177,4.8999,-146.711,936
1569847967,333.859,148.568,-3.23701,176.177,4.8999,-146.711,936
1569847967,333.859,148.568,-3.23701,176.177,4.8999,-146.711,936
1569847967,333.859,148.568,-3.23701,176.177,4.8999,-146.711,936
1569847967,333.859,148.568,-3.34863,176.177,4.8999,-146.711,936
1569847967,333.859,148.568,-3.34863,176.177,4.8999,-146.711,932
1569847967,333.859,148.568,-3.34863,176.177,4.8999,-146.711,932
1569847967,333.859,148.568,-3.34863,176.177,4.87793,-146.711,932
1569847967,333.859,148.568,-3.34863,176.177,4.87793,-146.711,932
1569847967,333.859,148.568,-3.34863,176.177,4.87793,-146.711,932
1569847967,333.859,148.568,-3.34863,176.177,4.87793,-146.711,928
1569847967,333.859,148.568,-3.34863,176.177,4.87793,-146.711,928
1569847967,333.859,148.568,-3.34863,176.177,4.87793,-146.711,928
1569847967,333.859,148.568,-3.34863,176.177,4.87793,-146.711,928
1569847967,333.859,148.568,-3.34863,176.177,4.87793,-146.711,928
1569847967,333.859,148.568,-3.34863,176.177,4.87793,-146.711,924
1569847967,333.859,148.568,-3.34863,176.177,4.87793,-146.711,924
1569847967,333.859,148.568,-3.34863,176.177,4.87793,-146.711,924
1569847967,333.859,148.568,-3.34863,176.177,4.87793,-146.711,924
1569847967,333.859,148.568,-3.34863,176.177,4.87793,-146.711,924
1569847967,333.859,148.568,-3.34863,176.177,4.8999,-146.711,924
1569847967,333.859,148.568,-3.34863,176.177,4.8999,-146.711,924
1569847967,333.859,148.568,-3.34863,176.199,4.8999,-146.711,924
1569847967,333.859,148.568,-3.34863,176.199,4.8999,-146.711,924
1569847967,333.859,148.568,-3.34863,176.199,4.8999,-146.711,924
1569847967,333.859,148.568,-3.34863,176.199,4.8999,-146.711,924
1569847967,333.859,148.568,-3.34863,176.199,4.8999,-146.711,928
1569847967,333.859,148.568,-3.34863,176.199,4.8999,-146.711,928
1569847967,333.859,148.568,-3.34863,176.199,4.8999,-146.711,928
1569847967,333.859,148.568,-3.34863,176.199,4.8999,-146.711,928
1569847967,333.859,148.679,-3.34863,176.199,4.8999,-146.711,928
1569847967,333.859,148.679,-3.34863,176.199,4.8999,-146.711,932
1569847967,333.859,148.679,-3.34863,176.199,4.8999,-146.711,932
1569847967,333.859,148.679,-3.34863,176.199,4.8999,-146.711,932
1569847967,333.859,148.568,-3.34863,176.199,4.8999,-146.711,932
1569847967,333.859,148.568,-3.34863,176.199,4.8999,-146.711,932
1569847967,333.859,148.568,-3.34863,176.199,4.8999,-146.711,932
1569847967,333.859,148.568,-3.34863,176.199,4.8999,-146.711,932
1569847967,333.859,148.568,-3.34863,176.199,4.8999,-146.711,932
1569847967,333.859,148.568,-3.34863,176.199,4.8999,-146.711,932
1569847967,333.859,148.568,-3.34863,176.199,4.8999,-146.711,932
1569847967,333.859,148.568,-3.34863,176.177,4.8999,-146.711,932
1569847967,333.859,148.568,-3.34863,176.177,4.8999,-146.711,932
1569847967,333.859,148.568,-3.34863,176.177,4.8999,-146.711,932
1569847967,333.859,148.568,-3.34863,176.177,4.8999,-146.711,932
1569847967,333.859,148.568,-3.34863,176.177,4.8999,-146.711,932
1569847967,333.859,148.568,-3.23701,176.177,4.8999,-146.711,932
1569847967,333.859,148.568,-3.23701,176.177,4.8999,-146.711,932
1569847967,333.859,148.568,-3.23701,176.177,4.8999,-146.711,928
1569847967,333.859,148.568,-3.23701,176.177,4.8999,-146.711,928
1569847967,333.859,148.568,-3.23701,176.177,4.8999,-146.711,928
1569847967,333.859,148.568,-3.23701,176.177,4.92188,-146.711,928
1569847967,333.859,148.568,-3.23701,176.177,4.92188,-146.711,928
1569847967,333.859,148.568,-3.23701,176.177,4.92188,-146.711,928
1569847967,333.859,148.568,-3.23701,176.177,4.92188,-146.711,928
1569847967,333.859,148.568,-3.23701,176.177,4.92188,-146.711,928
1569847967,333.859,148.568,-3.23701,176.177,4.92188,-146.711,924
1569847967,333.859,148.568,-3.23701,176.177,4.92188,-146.711,924
1569847967,333.859,148.568,-3.23701,176.177,4.92188,-146.711,924
1569847967,333.859,148.568,-3.23701,176.177,4.92188,-146.711,924
1569847967,333.859,148.568,-3.23701,176.177,4.92188,-146.711,924
1569847967,333.859,148.568,-3.23701,176.177,4.92188,-146.711,924
1569847967,333.859,148.568,-3.23701,176.177,4.92188,-146.711,924
1569847967,333.859,148.568,-3.23701,176.177,4.92188,-146.711,924
1569847967,333.859,148.568,-3.23701,176.177,4.92188,-146.711,924
1569847967,333.859,148.568,-3.23701,176.177,4.92188,-146.711,924
1569847967,333.859,148.568,-3.23701,176.177,4.92188,-146.711,924
1569847967,333.859,148.568,-3.23701,176.177,4.92188,-146.711,924
1569847967,333.859,148.568,-3.23701,176.177,4.92188,-146.711,924
1569847967,333.859,148.568,-3.23701,176.177,4.92188,-146.711,924
1569847967,333.859,148.568,-3.23701,176.177,4.92188,-146.711,924
1569847967,333.859,148.568,-3.23701,176.177,4.92188,-146.711,924
1569847967,333.859,148.568,-3.23701,176.177,4.92188,-146.711,924
1569847967,333.859,148.568,-3.23701,176.199,4.94385,-146.711,924
1569847967,333.859,148.568,-3.12539,176.199,4.94385,-146.711,924
1569847967,333.859,148.568,-3.12539,176.199,4.94385,-146.711,924
1569847967,333.859,148.568,-3.12539,176.199,4.94385,-146.711,924
1569847967,333.859,148.568,-3.12539,176.199,4.94385,-146.711,924
1569847967,333.859,148.568,-3.12539,176.177,4.94385,-146.711,924
1569847967,333.859,148.568,-3.12539,176.177,4.94385,-146.711,924
1569847967,333.859,148.568,-3.12539,176.177,4.94385,-146.711,924
1569847967,333.859,148.568,-3.12539,176.177,4.94385,-146.711,924
1569847967,333.859,148.568,-3.12539,176.177,4.94385,-146.711,924
1569847967,333.859,148.568,-3.12539,176.177,4.94385,-146.711,924
1569847967,333.859,148.568,-3.12539,176.177,4.94385,-146.711,924
1569847967,333.859,148.568,-3.12539,176.177,4.94385,-146.711,924
1569847967,333.859,148.568,-3.12539,176.177,4.94385,-146.711,924
1569847967,333.859,148.568,-3.12539,176.177,4.94385,-146.711,924
1569847967,333.859,148.568,-3.12539,176.177,4.94385,-146.711,924
1569847967,333.97,148.568,-3.12539,176.177,4.94385,-146.711,924
1569847967,333.97,148.568,-3.12539,176.177,4.94385,-146.711,924
1569847967,333.97,148.568,-3.12539,176.155,4.94385,-146.711,928
1569847967,333.97,148.568,-3.12539,176.155,4.94385,-146.711,928
1569847967,333.97,148.568,-3.12539,176.155,4.94385,-146.711,928
1569847967,333.97,148.568,-3.12539,176.155,4.94385,-146.711,928
1569847967,333.97,148.568,-3.12539,176.155,4.94385,-146.711,928
1569847967,333.97,148.568,-3.12539,176.155,4.94385,-146.711,928
1569847967,333.97,148.568,-3.23701,176.155,4.94385,-146.711,928
1569847967,333.97,148.568,-3.23701,176.155,4.94385,-146.711,928
1569847968,333.97,148.568,-3.23701,176.155,4.94385,-146.711,928
1569847968,333.97,148.568,-3.23701,176.155,4.94385,-146.711,928
1569847968,333.97,148.568,-3.23701,176.155,4.94385,-146.711,928
1569847968,333.97,148.568,-3.12539,176.155,4.94385,-146.711,924
1569847968,333.97,148.568,-3.12539,176.155,4.94385,-146.711,924
1569847968,333.97,148.568,-3.12539,176.155,4.94385,-146.711,924
1569847968,333.97,148.568,-3.12539,176.155,4.94385,-146.711,924
1569847968,333.97,148.568,-3.12539,176.155,4.94385,-146.733,924
1569847968,333.97,148.568,-3.12539,176.155,4.94385,-146.733,924
1569847968,333.97,148.568,-3.12539,176.155,4.94385,-146.733,924
1569847968,333.97,148.568,-3.12539,176.155,4.94385,-146.733,924
1569847968,333.97,148.568,-3.12539,176.155,4.94385,-146.733,924
1569847968,333.97,148.568,-3.12539,176.155,4.94385,-146.733,924
1569847968,333.97,148.568,-3.12539,176.155,4.94385,-146.733,924
1569847968,333.97,148.568,-3.12539,176.155,4.94385,-146.733,924
1569847968,333.97,148.568,-3.12539,176.155,4.94385,-146.733,924
1569847968,333.859,148.568,-3.12539,176.155,4.94385,-146.733,924
1569847968,333.859,148.568,-3.12539,176.155,4.94385,-146.733,920
1569847968,333.859,148.568,-3.12539,176.177,4.94385,-146.733,920
1569847968,333.859,148.568,-3.12539,176.177,4.94385,-146.733,920
1569847968,333.859,148.568,-3.12539,176.177,4.94385,-146.733,920
1569847968,333.859,148.568,-3.12539,176.177,4.94385,-146.733,920
1569847968,333.859,148.568,-3.12539,176.177,4.94385,-146.733,920
1569847968,333.859,148.568,-3.12539,176.177,4.94385,-146.733,920
1569847968,333.859,148.568,-3.12539,176.177,4.94385,-146.733,920
1569847968,333.859,148.568,-3.12539,176.177,4.94385,-146.733,924
1569847968,333.859,148.568,-3.12539,176.177,4.94385,-146.733,924
1569847968,333.859,148.568,-3.12539,176.177,4.94385,-146.733,924
1569847968,333.859,148.568,-3.12539,176.177,4.94385,-146.733,924
1569847968,333.859,148.568,-3.12539,176.177,4.94385,-146.733,924
1569847968,333.859,148.568,-3.12539,176.177,4.94385,-146.733,924
1569847968,333.859,148.568,-3.12539,176.177,4.94385,-146.733,924
1569847968,333.859,148.568,-3.12539,176.177,4.94385,-146.733,924
1569847968,333.859,148.568,-3.12539,176.177,4.94385,-146.733,924
1569847968,333.859,148.568,-3.12539,176.177,4.94385,-146.733,924
1569847968,333.859,148.568,-3.12539,176.177,4.94385,-146.733,924
1569847968,333.859,148.568,-3.12539,176.177,4.94385,-146.733,924
1569847968,333.859,148.568,-3.12539,176.177,4.94385,-146.733,924
1569847968,333.859,148.568,-3.12539,176.177,4.94385,-146.733,924
1569847968,333.859,148.568,-3.12539,176.177,4.94385,-146.733,924
1569847968,333.859,148.568,-3.12539,176.177,4.94385,-146.733,924
1569847968,333.859,148.568,-3.12539,176.177,4.94385,-146.733,928
1569847968,333.859,148.568,-3.12539,176.177,4.94385,-146.733,928
1569847968,333.859,148.568,-3.12539,176.177,4.94385,-146.733,928
1569847968,333.859,148.568,-3.12539,176.177,4.94385,-146.733,928
1569847968,333.859,148.568,-3.12539,176.177,4.94385,-146.733,928
1569847968,333.859,148.568,-3.12539,176.177,4.94385,-146.733,932
1569847968,333.859,148.568,-3.12539,176.177,4.92188,-146.733,932
1569847968,333.859,148.568,-3.12539,176.177,4.92188,-146.733,932
1569847968,333.97,148.568,-3.12539,176.177,4.92188,-146.733,932
1569847968,333.97,148.568,-3.12539,176.177,4.92188,-146.733,936
1569847968,333.97,148.568,-3.12539,176.177,4.92188,-146.733,936
1569847968,333.97,148.568,-3.12539,176.177,4.92188,-146.733,936
1569847968,333.97,148.568,-3.12539,176.177,4.92188,-146.733,936
1569847968,333.859,148.568,-3.12539,176.177,4.92188,-146.733,936
1569847968,333.859,148.568,-3.12539,176.177,4.92188,-146.733,936
1569847968,333.859,148.568,-3.12539,176.177,4.92188,-146.733,936
1569847968,333.859,148.568,-3.12539,176.177,4.92188,-146.733,936
1569847968,333.859,148.568,-3.12539,176.177,4.92188,-146.733,936
1569847968,333.859,148.568,-3.12539,176.199,4.92188,-146.733,936
1569847968,333.859,148.568,-3.23701,176.199,4.92188,-146.733,936
1569847968,333.859,148.568,-3.23701,176.199,4.92188,-146.733,936
1569847968,333.859,148.568,-3.23701,176.177,4.92188,-146.733,932
1569847968,333.859,148.568,-3.23701,176.177,4.92188,-146.733,932
1569847968,333.859,148.568,-3.23701,176.177,4.92188,-146.733,932
1569847968,333.859,148.568,-3.23701,176.177,4.92188,-146.733,932
1569847968,333.859,148.568,-3.23701,176.177,4.92188,-146.733,932
1569847968,333.859,148.568,-3.23701,176.177,4.92188,-146.733,932
1569847968,333.859,148.568,-3.23701,176.177,4.92188,-146.733,932
1569847968,333.859,148.568,-3.23701,176.177,4.92188,-146.733,932
1569847968,333.859,148.568,-3.23701,176.177,4.92188,-146.733,932
1569847968,333.859,148.568,-3.23701,176.177,4.92188,-146.733,932
1569847968,333.859,148.568,-3.23701,176.177,4.92188,-146.733,932
1569847968,333.859,148.568,-3.23701,176.177,4.92188,-146.733,932
1569847968,333.859,148.568,-3.23701,176.177,4.92188,-146.711,936
1569847968,333.859,148.568,-3.23701,176.177,4.92188,-146.711,936
1569847968,333.859,148.568,-3.23701,176.177,4.92188,-146.711,936
1569847968,333.859,148.568,-3.23701,176.177,4.92188,-146.711,936
1569847968,333.859,148.568,-3.23701,176.177,4.92188,-146.711,936
1569847968,333.859,148.568,-3.23701,176.177,4.92188,-146.711,940
1569847968,333.859,148.568,-3.23701,176.177,4.92188,-146.711,940
1569847968,333.859,148.568,-3.23701,176.177,4.92188,-146.711,940
1569847968,333.859,148.568,-3.23701,176.177,4.92188,-146.711,940
1569847968,333.859,148.568,-3.23701,176.177,4.92188,-146.711,940
1569847968,333.859,148.568,-3.23701,176.177,4.92188,-146.711,940
1569847968,333.859,148.568,-3.23701,176.177,4.92188,-146.711,940
1569847968,333.859,148.568,-3.23701,176.177,4.92188,-146.711,940
1569847968,333.859,148.568,-3.23701,176.177,4.92188,-146.711,940
1569847968,333.859,148.568,-3.23701,176.177,4.92188,-146.711,940
1569847968,333.97,148.568,-3.23701,176.177,4.92188,-146.711,940
1569847968,333.97,148.568,-3.23701,176.199,4.92188,-146.711,940
1569847968,333.97,148.568,-3.23701,176.199,4.92188,-146.711,940
1569847968,333.97,148.568,-3.23701,176.199,4.92188,-146.711,940
1569847968,333.97,148.568,-3.23701,176.199,4.92188,-146.711,940
1569847968,333.97,148.568,-3.23701,176.199,4.92188,-146.711,940
1569847968,333.859,148.568,-3.23701,176.199,4.92188,-146.711,940
1569847968,333.859,148.568,-3.23701,176.199,4.92188,-146.711,940
1569847968,333.859,148.679,-3.23701,176.199,4.92188,-146.711,940
1569847968,333.859,148.679,-3.23701,176.199,4.92188,-146.711,940
1569847968,333.859,148.679,-3.23701,176.199,4.92188,-146.711,940
1569847969,333.859,148.679,-3.23701,176.199,4.92188,-146.711,940
1569847969,333.859,148.679,-3.23701,176.199,4.92188,-146.711,940
1569847969,333.859,148.679,-3.23701,176.199,4.92188,-146.711,940
1569847969,333.859,148.679,-3.23701,176.199,4.92188,-146.711,940
1569847969,333.859,148.679,-3.23701,176.221,4.92188,-146.711,940
1569847969,333.859,148.679,-3.23701,176.221,4.92188,-146.711,940
1569847969,333.859,148.679,-3.23701,176.221,4.92188,-146.711,940
1569847969,333.859,148.679,-3.23701,176.221,4.92188,-146.711,936
1569847969,333.859,148.679,-3.23701,176.221,4.92188,-146.711,936
1569847969,333.859,148.679,-3.23701,176.221,4.92188,-146.711,936
1569847969,333.859,148.679,-3.23701,176.221,4.92188,-146.711,936
1569847969,333.859,148.679,-3.23701,176.221,4.92188,-146.711,936
1569847969,333.859,148.679,-3.23701,176.221,4.92188,-146.711,936
1569847969,333.859,148.679,-3.23701,176.221,4.94385,-146.711,936
1569847969,333.859,148.568,-3.12539,176.221,4.94385,-146.711,936
1569847969,333.859,148.568,-3.12539,176.221,4.94385,-146.711,936
1569847969,333.859,148.568,-3.12539,176.199,4.94385,-146.711,932
1569847969,333.859,148.568,-3.12539,176.199,4.94385,-146.711,932
1569847969,333.859,148.568,-3.12539,176.199,4.94385,-146.711,932
1569847969,333.859,148.568,-3.12539,176.199,4.94385,-146.711,932
1569847969,333.859,148.568,-3.12539,176.199,4.94385,-146.711,932
1569847969,333.859,148.568,-3.12539,176.199,4.94385,-146.711,932
1569847969,333.859,148.568,-3.12539,176.199,4.94385,-146.711,932
1569847969,333.859,148.568,-3.12539,176.199,4.94385,-146.711,932
1569847969,333.859,148.568,-3.12539,176.199,4.94385,-146.711,932
1569847969,333.859,148.568,-3.12539,176.199,4.94385,-146.711,928
1569847969,333.859,148.568,-3.12539,176.199,4.94385,-146.711,928
1569847969,333.859,148.568,-3.12539,176.199,4.94385,-146.711,928
1569847969,333.859,148.568,-3.12539,176.199,4.94385,-146.711,928
1569847969,333.859,148.568,-3.12539,176.199,4.94385,-146.711,928
1569847969,333.859,148.568,-3.12539,176.199,4.94385,-146.711,928
1569847969,333.859,148.568,-3.12539,176.199,4.94385,-146.711,924
1569847969,333.859,148.568,-3.12539,176.199,4.94385,-146.711,924
1569847969,333.859,148.568,-3.12539,176.199,4.94385,-146.711,924
1569847969,333.859,148.568,-3.12539,176.199,4.94385,-146.711,924
1569847969,333.859,148.568,-3.12539,176.199,4.94385,-146.711,924
1569847969,333.859,148.568,-3.12539,176.199,4.94385,-146.711,924
1569847969,333.859,148.568,-3.23701,176.199,4.94385,-146.711,924
1569847969,333.859,148.568,-3.23701,176.199,4.94385,-146.711,924
1569847969,333.859,148.568,-3.23701,176.199,4.92188,-146.711,924
1569847969,333.859,148.568,-3.23701,176.199,4.92188,-146.711,924
1569847969,333.859,148.568,-3.23701,176.177,4.92188,-146.711,924
1569847969,333.859,148.568,-3.23701,176.177,4.92188,-146.711,924
1569847969,333.859,148.568,-3.23701,176.177,4.92188,-146.711,924
1569847969,333.859,148.568,-3.23701,176.177,4.92188,-146.711,924
1569847969,333.859,148.568,-3.23701,176.177,4.92188,-146.711,924
1569847969,333.859,148.568,-3.23701,176.177,4.92188,-146.733,924
1569847969,333.859,148.568,-3.23701,176.177,4.92188,-146.733,924
1569847969,333.859,148.568,-3.23701,176.177,4.92188,-146.733,924
1569847969,333.859,148.568,-3.23701,176.177,4.92188,-146.733,924
1569847969,333.859,148.568,-3.23701,176.177,4.92188,-146.733,924
1569847969,333.859,148.568,-3.23701,176.177,4.92188,-146.733,924
1569847969,333.859,148.568,-3.23701,176.177,4.92188,-146.733,924
1569847969,333.859,148.568,-3.23701,176.177,4.92188,-146.733,924
1569847969,333.859,148.568,-3.23701,176.177,4.92188,-146.733,924
1569847969,333.859,148.568,-3.23701,176.177,4.92188,-146.733,924
1569847969,333.859,148.568,-3.23701,176.177,4.92188,-146.733,924
1569847969,333.859,148.568,-3.23701,176.177,4.92188,-146.733,924
1569847969,333.859,148.568,-3.23701,176.177,4.92188,-146.733,924
1569847969,333.859,148.568,-3.23701,176.177,4.92188,-146.733,928
1569847969,333.859,148.568,-3.23701,176.177,4.92188,-146.733,928
1569847969,333.859,148.568,-3.23701,176.177,4.92188,-146.711,928
1569847969,333.859,148.568,-3.23701,176.177,4.92188,-146.711,928
1569847969,333.859,148.568,-3.23701,176.177,4.92188,-146.711,928
1569847969,333.97,148.568,-3.23701,176.177,4.92188,-146.711,928
1569847969,333.97,148.568,-3.23701,176.177,4.92188,-146.711,932
1569847969,333.97,148.568,-3.23701,176.177,4.92188,-146.711,932
1569847969,333.97,148.568,-3.23701,176.177,4.92188,-146.711,932
1569847969,333.97,148.568,-3.23701,176.177,4.92188,-146.711,932
1569847969,333.97,148.568,-3.23701,176.177,4.92188,-146.711,932
1569847969,333.97,148.568,-3.23701,176.177,4.92188,-146.711,932
1569847969,333.97,148.568,-3.23701,176.177,4.92188,-146.711,932
1569847969,333.859,148.568,-3.23701,176.177,4.92188,-146.711,932
1569847969,333.859,148.568,-3.23701,176.177,4.92188,-146.711,932
1569847969,333.859,148.568,-3.23701,176.177,4.92188,-146.711,932
1569847969,333.859,148.568,-3.23701,176.177,4.92188,-146.711,932
1569847969,333.859,148.568,-3.23701,176.177,4.92188,-146.711,932
1569847969,333.859,148.568,-3.23701,176.177,4.92188,-146.711,932
1569847969,333.859,148.568,-3.23701,176.177,4.92188,-146.711,932
1569847969,333.859,148.568,-3.23701,176.177,4.92188,-146.711,932
1569847969,333.859,148.568,-3.23701,176.177,4.92188,-146.711,932
1569847969,333.859,148.568,-3.23701,176.177,4.92188,-146.711,932
1569847969,333.859,148.568,-3.23701,176.177,4.92188,-146.711,932
1569847969,333.859,148.568,-3.23701,176.177,4.92188,-146.733,932
1569847969,333.859,148.568,-3.23701,176.177,4.92188,-146.733,932
1569847969,333.859,148.568,-3.23701,176.177,4.92188,-146.733,932
1569847969,333.859,148.568,-3.23701,176.177,4.92188,-146.733,932
1569847969,333.859,148.568,-3.23701,176.177,4.92188,-146.733,932
1569847969,333.859,148.568,-3.23701,176.177,4.92188,-146.733,932
1569847969,333.859,148.568,-3.23701,176.177,4.92188,-146.733,932
1569847969,333.859,148.568,-3.23701,176.177,4.92188,-146.733,932
1569847969,333.859,148.568,-3.23701,176.177,4.92188,-146.733,932
1569847969,333.859,148.568,-3.23701,176.177,4.92188,-146.733,932
1569847969,333.859,148.568,-3.23701,176.177,4.92188,-146.733,932
1569847969,333.859,148.568,-3.23701,176.177,4.92188,-146.733,932
1569847969,333.859,148.568,-3.23701,176.177,4.8999,-146.733,932
1569847969,333.859,148.568,-3.23701,176.177,4.8999,-146.711,932
1569847969,333.859,148.568,-3.23701,176.177,4.8999,-146.711,932
1569847969,333.859,148.568,-3.23701,176.177,4.8999,-146.711,932
1569847969,333.859,148.568,-3.23701,176.177,4.8999,-146.711,932
1569847970,333.859,148.568,-3.23701,176.177,4.8999,-146.711,932
1569847970,333.859,148.568,-3.23701,176.177,4.8999,-146.711,928
1569847970,333.859,148.568,-3.23701,176.177,4.8999,-146.711,928
1569847970,333.859,148.568,-3.34863,176.177,4.8999,-146.711,928
1569847970,333.859,148.568,-3.34863,176.177,4.8999,-146.711,928
1569847970,333.859,148.568,-3.34863,176.199,4.8999,-146.711,928
1569847970,333.859,148.568,-3.34863,176.199,4.8999,-146.711,928
1569847970,333.859,148.568,-3.34863,176.199,4.8999,-146.711,932
1569847970,333.859,148.568,-3.34863,176.199,4.8999,-146.711,932
1569847970,333.859,148.568,-3.34863,176.199,4.8999,-146.711,932
1569847970,333.859,148.568,-3.34863,176.199,4.8999,-146.711,932
1569847970,333.859,148.568,-3.34863,176.199,4.8999,-146.711,932
1569847970,333.859,148.568,-3.34863,176.199,4.8999,-146.711,936
1569847970,333.859,148.568,-3.34863,176.199,4.8999,-146.711,936
1569847970,333.859,148.568,-3.23701,176.199,4.8999,-146.711,936
1569847970,333.859,148.568,-3.23701,176.199,4.8999,-146.711,936
1569847970,333.859,148.568,-3.23701,176.199,4.8999,-146.711,936
1569847970,333.859,148.568,-3.23701,176.199,4.8999,-146.711,936
1569847970,333.859,148.568,-3.23701,176.199,4.8999,-146.711,940
1569847970,333.859,148.568,-3.23701,176.199,4.92188,-146.711,940
1569847970,333.859,148.568,-3.23701,176.199,4.92188,-146.711,936
1569847970,333.859,148.568,-3.23701,176.199,4.92188,-146.711,936
1569847970,333.859,148.568,-3.23701,176.177,4.92188,-146.711,936
1569847970,333.859,148.568,-3.23701,176.177,4.92188,-146.711,936
1569847970,333.859,148.568,-3.23701,176.177,4.92188,-146.711,936
1569847970,333.859,148.568,-3.23701,176.177,4.92188,-146.711,936
1569847970,333.859,148.568,-3.23701,176.177,4.92188,-146.711,932
1569847970,333.859,148.568,-3.23701,176.177,4.92188,-146.711,932
1569847970,333.859,148.568,-3.23701,176.177,4.92188,-146.711,932
1569847970,333.859,148.568,-3.23701,176.177,4.92188,-146.711,932
1569847970,333.859,148.568,-3.23701,176.177,4.92188,-146.733,932
1569847970,333.859,148.568,-3.12539,176.177,4.92188,-146.733,932
1569847970,333.859,148.568,-3.12539,176.177,4.92188,-146.733,932
1569847975,349.039,132.271,-3.01377,176.396,4.83398,-146.03,1068
1569847975,349.039,132.271,-3.01377,176.418,4.83398,-146.03,1068
1569847975,349.039,132.271,-3.01377,176.418,4.83398,-146.03,1068
1569847975,349.039,132.271,-3.01377,176.418,4.83398,-146.03,1068
1569847975,349.039,132.271,-3.01377,176.418,4.83398,-146.03,1068
1569847975,349.039,132.271,-3.01377,176.418,4.83398,-146.03,1068
1569847975,349.039,132.271,-3.01377,176.418,4.83398,-146.03,1064
1569847975,349.039,132.271,-3.01377,176.396,4.83398,-146.03,1064
1569847975,349.039,132.271,-3.01377,176.396,4.83398,-146.052,1064
1569847975,349.039,132.159,-3.01377,176.396,4.81201,-146.052,1064
1569847975,349.039,132.159,-3.01377,176.396,4.81201,-146.052,1064
1569847975,349.039,132.159,-3.01377,176.396,4.81201,-146.052,1064
1569847975,349.039,132.159,-3.01377,176.396,4.81201,-146.052,1064
1569847975,349.039,132.159,-3.01377,176.396,4.81201,-146.052,1064
1569847975,349.039,132.271,-3.01377,176.396,4.81201,-146.052,1064
1569847975,349.039,132.271,-3.01377,176.396,4.81201,-146.052,1064
1569847975,349.039,132.271,-3.01377,176.396,4.81201,-146.052,1064
1569847975,349.039,132.271,-3.01377,176.396,4.81201,-146.052,1064
1569847975,349.039,132.271,-3.01377,176.396,4.83398,-146.052,1064
1569847975,349.039,132.271,-3.01377,176.396,4.83398,-146.052,1064
1569847975,349.039,132.271,-3.01377,176.396,4.81201,-146.052,1064
1569847975,349.039,132.271,-3.01377,176.418,4.81201,-146.052,1068
1569847975,349.039,132.271,-3.01377,176.418,4.81201,-146.03,1068
1569847975,349.039,132.271,-3.01377,176.418,4.81201,-146.03,1068
1569847975,349.039,132.271,-3.01377,176.418,4.81201,-146.03,1068
1569847975,349.039,132.271,-3.01377,176.418,4.81201,-146.03,1068
1569847975,349.039,132.271,-3.01377,176.418,4.81201,-146.03,1068
1569847975,349.039,132.271,-3.01377,176.418,4.81201,-146.052,1068
1569847975,349.039,132.271,-3.01377,176.418,4.81201,-146.052,1068
1569847975,349.039,132.271,-3.01377,176.418,4.81201,-146.052,1068
1569847975,349.039,132.271,-3.01377,176.418,4.81201,-146.052,1068
1569847975,349.039,132.271,-3.01377,176.418,4.81201,-146.052,1068
1569847975,349.039,132.271,-3.01377,176.418,4.81201,-146.052,1068
1569847975,349.039,132.271,-3.01377,176.418,4.81201,-146.052,1068
1569847975,349.039,132.271,-3.01377,176.418,4.81201,-146.052,1072
1569847975,349.039,132.271,-3.01377,176.418,4.81201,-146.052,1072
1569847975,349.039,132.383,-3.01377,176.418,4.81201,-146.052,1072
1569847976,349.039,132.383,-3.01377,176.418,4.81201,-146.052,1072
1569847976,349.039,132.383,-3.01377,176.418,4.81201,-146.052,1072
1569847976,349.039,132.383,-3.01377,176.418,4.81201,-146.052,1072
1569847976,349.039,132.383,-3.01377,176.418,4.81201,-146.052,1076
1569847976,349.039,132.383,-3.01377,176.418,4.81201,-146.052,1076
1569847976,349.039,132.383,-3.01377,176.418,4.81201,-146.052,1076
1569847976,349.039,132.383,-3.01377,176.418,4.81201,-146.052,1076
1569847976,349.039,132.383,-3.01377,176.418,4.81201,-146.052,1076
1569847976,349.039,132.383,-3.01377,176.418,4.81201,-146.052,1080
1569847976,349.039,132.271,-3.01377,176.418,4.81201,-146.052,1080
1569847976,349.039,132.271,-3.01377,176.418,4.81201,-146.052,1080
1569847976,349.039,132.271,-3.01377,176.418,4.81201,-146.052,1084
1569847976,349.039,132.271,-3.01377,176.418,4.81201,-146.03,1084
1569847976,349.039,132.271,-3.01377,176.396,4.81201,-146.03,1084
1569847976,349.151,132.271,-3.01377,176.396,4.81201,-146.03,1084
1569847976,349.151,132.271,-3.01377,176.396,4.81201,-146.03,1088
1569847976,349.151,132.271,-3.01377,176.396,4.81201,-146.03,1088
1569847976,349.151,132.271,-3.01377,176.396,4.81201,-146.03,1088
1569847976,349.151,132.271,-3.01377,176.396,4.81201,-146.03,1088
1569847976,349.039,132.271,-3.01377,176.396,4.81201,-146.03,1088
1569847976,349.039,132.271,-3.01377,176.396,4.81201,-146.03,1088
1569847976,349.039,132.271,-3.01377,176.396,4.81201,-146.03,1088
1569847976,349.039,132.271,-3.01377,176.396,4.81201,-146.03,1088
1569847976,349.039,132.271,-3.01377,176.396,4.81201,-146.03,1088
1569847976,349.039,132.271,-3.01377,176.396,4.81201,-146.03,1088
1569847976,349.039,132.271,-3.01377,176.418,4.81201,-146.03,1088
1569847976,349.039,132.271,-3.01377,176.418,4.81201,-146.03,1088
1569847976,349.039,132.271,-3.01377,176.418,4.81201,-146.03,1084
1569847976,349.039,132.271,-3.01377,176.418,4.81201,-146.03,1084
1569847976,349.039,132.271,-3.01377,176.418,4.81201,-146.03,1084
1569847976,349.039,132.271,-3.01377,176.418,4.81201,-146.03,1084
1569847976,349.039,132.271,-3.01377,176.418,4.81201,-146.03,1084
1569847976,349.039,132.271,-3.01377,176.418,4.81201,-146.03,1080
1569847976,349.039,132.271,-3.01377,176.418,4.81201,-146.03,1080
1569847976,349.039,132.271,-3.01377,176.396,4.81201,-146.03,1080
1569847976,349.039,132.271,-3.01377,176.396,4.81201,-146.03,1080
1569847976,349.039,132.271,-3.01377,176.396,4.81201,-146.03,1080
1569847976,349.039,132.271,-3.01377,176.396,4.81201,-146.03,1080
1569847976,349.039,132.271,-3.01377,176.418,4.81201,-146.03,1076
1569847976,349.039,132.271,-3.01377,176.418,4.81201,-146.03,1076
1569847976,349.039,132.271,-3.01377,176.418,4.81201,-146.03,1076
1569847976,349.039,132.271,-3.01377,176.418,4.81201,-146.03,1076
1569847976,349.039,132.271,-3.01377,176.418,4.81201,-146.03,1076
1569847976,349.039,132.271,-3.01377,176.418,4.81201,-146.03,1076
1569847976,349.039,132.271,-3.01377,176.418,4.81201,-146.03,1076
1569847976,349.039,132.271,-3.01377,176.418,4.81201,-146.03,1076
1569847976,349.039,132.271,-3.01377,176.418,4.81201,-146.03,1080
1569847976,349.039,132.271,-3.01377,176.418,4.81201,-146.03,1080
1569847976,349.039,132.271,-3.01377,176.418,4.81201,-146.03,1080
1569847976,349.039,132.271,-3.01377,176.418,4.81201,-146.03,1080
1569847976,349.039,132.271,-3.01377,176.418,4.81201,-146.03,1080
1569847976,349.039,132.271,-3.01377,176.418,4.81201,-146.03,1080
1569847976,349.039,132.271,-3.01377,176.418,4.81201,-146.03,1080
1569847976,349.039,132.271,-3.01377,176.418,4.81201,-146.03,1080
1569847976,349.039,132.271,-3.01377,176.418,4.81201,-146.03,1080
1569847976,349.039,132.271,-3.01377,176.418,4.81201,-146.03,1080
1569847976,349.039,132.271,-3.01377,176.418,4.81201,-146.03,1080
1569847976,349.039,132.271,-3.01377,176.418,4.81201,-146.03,1080
1569847976,349.039,132.271,-3.01377,176.396,4.81201,-146.03,1080
1569847976,349.039,132.271,-3.01377,176.396,4.81201,-146.03,1080
1569847976,349.039,132.271,-3.01377,176.396,4.83398,-146.03,1080
1569847976,349.039,132.271,-3.01377,176.396,4.83398,-146.03,1080
1569847976,349.039,132.271,-2.90215,176.396,4.83398,-146.03,1080
1569847976,349.039,132.159,-2.90215,176.396,4.83398,-146.008,1080
1569847976,349.039,132.159,-2.90215,176.396,4.83398,-146.008,1080
1569847976,349.039,132.159,-2.90215,176.396,4.83398,-146.008,1080
1569847976,349.039,132.159,-2.90215,176.396,4.83398,-146.008,1080
1569847976,349.039,132.159,-2.90215,176.396,4.83398,-146.03,1080
1569847976,349.039,132.159,-2.90215,176.396,4.83398,-146.03,1080
1569847976,349.039,132.159,-2.90215,176.396,4.83398,-146.03,1080
1569847976,349.039,132.159,-2.90215,176.396,4.83398,-146.03,1080
1569847976,349.039,132.159,-2.90215,176.396,4.83398,-146.03,1080
1569847976,349.039,132.271,-2.90215,176.396,4.83398,-146.03,1080
1569847976,349.039,132.271,-2.90215,176.396,4.83398,-146.03,1080
1569847976,349.039,132.271,-2.90215,176.396,4.83398,-146.03,1080
1569847976,349.039,132.271,-2.90215,176.396,4.83398,-146.03,1080
1569847976,349.039,132.271,-2.90215,176.396,4.83398,-146.03,1080
1569847976,349.039,132.271,-2.90215,176.396,4.83398,-146.03,1080
1569847976,349.039,132.271,-2.90215,176.396,4.85596,-146.03,1080
1569847976,349.039,132.271,-2.90215,176.396,4.85596,-146.03,1080
1569847976,349.039,132.271,-2.90215,176.396,4.85596,-146.03,1076
1569847976,349.039,132.271,-2.90215,176.396,4.85596,-146.03,1076
1569847976,349.039,132.271,-2.90215,176.396,4.85596,-146.03,1076
1569847976,349.039,132.271,-2.90215,176.396,4.85596,-146.03,1076
1569847976,349.039,132.271,-2.90215,176.396,4.83398,-146.03,1076
1569847976,349.039,132.271,-2.90215,176.396,4.83398,-146.03,1072
1569847976,349.039,132.271,-2.90215,176.396,4.83398,-146.052,1072
1569847976,349.039,132.271,-2.90215,176.396,4.83398,-146.052,1072
1569847976,349.039,132.271,-2.90215,176.396,4.83398,-146.052,1072
1569847976,349.039,132.271,-2.90215,176.396,4.83398,-146.052,1072
1569847976,349.039,132.271,-2.90215,176.396,4.83398,-146.052,1072
1569847976,349.039,132.271,-2.90215,176.396,4.83398,-146.052,1068
1569847976,349.039,132.271,-2.90215,176.396,4.83398,-146.052,1068
1569847976,349.039,132.271,-2.90215,176.396,4.83398,-146.052,1068
1569847976,349.039,132.271,-2.90215,176.396,4.83398,-146.052,1068
1569847976,349.039,132.271,-2.90215,176.418,4.83398,-146.052,1068
1569847976,349.039,132.271,-2.90215,176.418,4.83398,-146.052,1068
1569847976,349.039,132.271,-2.90215,176.418,4.83398,-146.052,1068
1569847976,349.039,132.271,-2.90215,176.418,4.83398,-146.052,1068
1569847976,349.039,132.271,-2.90215,176.418,4.83398,-146.052,1068
1569847977,349.039,132.271,-2.90215,176.418,4.83398,-146.052,1068
1569847977,349.039,132.271,-2.90215,176.396,4.83398,-146.052,1068
1569847977,349.039,132.271,-2.90215,176.396,4.83398,-146.052,1068
1569847977,349.039,132.271,-2.90215,176.396,4.83398,-146.052,1068
1569847977,349.039,132.271,-2.90215,176.396,4.83398,-146.052,1068
1569847977,349.039,132.271,-2.90215,176.396,4.83398,-146.03,1068
1569847977,349.039,132.271,-2.90215,176.396,4.83398,-146.03,1068
1569847977,349.039,132.271,-2.90215,176.396,4.83398,-146.03,1068
1569847977,349.039,132.271,-2.90215,176.396,4.83398,-146.03,1068
1569847977,349.039,132.271,-2.90215,176.396,4.83398,-146.03,1072
1569847977,349.039,132.271,-2.90215,176.396,4.83398,-146.03,1072
1569847977,349.039,132.271,-2.90215,176.396,4.83398,-146.03,1072
1569847977,349.039,132.271,-2.90215,176.396,4.83398,-146.03,1072
1569847977,349.039,132.271,-2.90215,176.396,4.83398,-146.03,1072
1569847977,349.039,132.271,-2.90215,176.396,4.83398,-146.03,1072
1569847977,349.039,132.271,-2.90215,176.418,4.83398,-146.03,1072
1569847977,349.039,132.271,-2.90215,176.396,4.83398,-146.03,1076
1569847977,349.039,132.271,-2.90215,176.396,4.83398,-146.03,1076
1569847977,349.039,132.271,-2.90215,176.396,4.83398,-146.03,1076
1569847977,349.039,132.271,-2.90215,176.396,4.83398,-146.03,1076
1569847977,349.039,132.271,-2.90215,176.396,4.83398,-146.03,1080
1569847977,349.039,132.271,-2.90215,176.396,4.83398,-146.03,1080
1569847977,349.039,132.271,-2.90215,176.396,4.83398,-146.03,1080
1569847977,349.039,132.271,-2.90215,176.396,4.83398,-146.03,1080
1569847977,349.039,132.271,-2.90215,176.396,4.83398,-146.03,1084
1569847977,349.039,132.271,-2.90215,176.396,4.83398,-146.03,1084
1569847977,349.039,132.271,-2.90215,176.418,4.83398,-146.03,1084
1569847977,349.039,132.271,-2.90215,176.418,4.83398,-146.03,1084
1569847977,349.039,132.271,-2.90215,176.418,4.83398,-146.03,1084
1569847977,349.039,132.271,-3.01377,176.418,4.83398,-146.03,1084
1569847977,349.039,132.271,-3.01377,176.418,4.83398,-146.03,1084
1569847977,349.039,132.271,-3.01377,176.418,4.83398,-146.03,1084
1569847977,349.039,132.271,-3.01377,176.418,4.83398,-146.03,1084
1569847977,349.039,132.271,-3.01377,176.396,4.83398,-146.03,1084
1569847977,349.039,132.271,-3.01377,176.396,4.83398,-146.03,1084
1569847977,349.151,132.271,-3.01377,176.396,4.83398,-146.03,1084
1569847977,349.151,132.271,-3.01377,176.396,4.83398,-146.03,1088
1569847977,349.151,132.271,-3.01377,176.396,4.83398,-146.03,1088
1569847977,349.151,132.271,-3.01377,176.396,4.83398,-146.03,1088
1569847977,349.151,132.271,-2.90215,176.396,4.83398,-146.03,1088
1569847977,349.151,132.271,-2.90215,176.396,4.83398,-146.03,1088
1569847977,349.151,132.271,-2.90215,176.396,4.83398,-146.03,1088
1569847977,349.151,132.271,-2.90215,176.396,4.83398,-146.03,1088
1569847977,349.151,132.271,-3.01377,176.396,4.83398,-146.03,1088
1569847977,349.151,132.271,-3.01377,176.396,4.83398,-146.03,1092
1569847977,349.151,132.271,-3.01377,176.396,4.83398,-146.03,1092
1569847977,349.151,132.271,-3.01377,176.396,4.83398,-146.03,1092
1569847977,349.151,132.271,-3.01377,176.396,4.83398,-146.03,1092
1569847977,349.151,132.271,-3.01377,176.396,4.83398,-146.03,1092
1569847977,349.151,132.271,-3.01377,176.396,4.81201,-146.03,1092
1569847977,349.151,132.271,-3.01377,176.396,4.81201,-146.03,1096
1569847977,349.151,132.271,-3.01377,176.375,4.81201,-146.03,1096
1569847977,349.151,132.271,-3.01377,176.375,4.81201,-146.03,1096
1569847977,349.151,132.271,-3.01377,176.375,4.81201,-146.03,1096
1569847977,349.151,132.271,-3.01377,176.375,4.81201,-146.03,1096
1569847977,349.151,132.271,-3.01377,176.375,4.81201,-146.03,1096
1569847977,349.151,132.271,-3.01377,176.375,4.81201,-146.03,1096
1569847977,349.151,132.271,-3.01377,176.375,4.81201,-146.03,1096
1569847977,349.151,132.271,-3.01377,176.375,4.81201,-146.03,1096
1569847977,349.151,132.271,-3.01377,176.396,4.81201,-146.03,1096
1569847977,349.151,132.271,-3.01377,176.396,4.81201,-146.03,1096
1569847977,349.151,132.271,-3.01377,176.396,4.81201,-146.03,1096
1569847977,349.151,132.271,-3.01377,176.396,4.81201,-146.03,1096
1569847977,349.039,132.271,-3.01377,176.396,4.81201,-146.03,1096
1569847977,349.039,132.271,-3.01377,176.396,4.81201,-146.03,1096
1569847977,349.039,132.271,-3.01377,176.396,4.79004,-146.03,1096
1569847977,349.039,132.271,-3.12539,176.396,4.79004,-146.03,1096
1569847977,349.039,132.271,-3.12539,176.396,4.79004,-146.03,1096
1569847977,349.039,132.271,-3.12539,176.396,4.79004,-146.03,1096
1569847977,349.039,132.271,-3.12539,176.396,4.79004,-146.03,1096
1569847977,349.039,132.271,-3.12539,176.396,4.79004,-146.03,1096
1569847977,349.151,132.271,-3.12539,176.396,4.79004,-146.03,1092
1569847977,349.151,132.271,-3.12539,176.396,4.79004,-146.03,1092
1569847977,349.151,132.271,-3.01377,176.396,4.79004,-146.03,1092
1569847977,349.151,132.271,-3.01377,176.396,4.79004,-146.03,1092
1569847977,349.151,132.271,-3.01377,176.396,4.79004,-146.03,1092
1569847977,349.151,132.271,-3.01377,176.396,4.81201,-146.03,1092
1569847977,349.151,132.271,-3.01377,176.396,4.81201,-146.03,1092
1569847977,349.151,132.271,-3.01377,176.396,4.81201,-146.03,1092
1569847977,349.151,132.271,-3.01377,176.396,4.81201,-146.03,1088
1569847977,349.151,132.271,-3.01377,176.396,4.81201,-146.03,1088
1569847977,349.151,132.271,-3.01377,176.396,4.81201,-146.052,1088
1569847977,349.151,132.271,-3.01377,176.396,4.81201,-146.052,1088
1569847977,349.039,132.271,-3.01377,176.396,4.81201,-146.052,1084
1569847977,349.039,132.271,-3.01377,176.396,4.81201,-146.052,1084
1569847977,349.039,132.159,-3.01377,176.396,4.81201,-146.052,1084
1569847977,349.039,132.159,-3.01377,176.396,4.81201,-146.052,1084
1569847977,349.039,132.159,-3.01377,176.396,4.81201,-146.052,1080
1569847977,349.039,132.159,-3.01377,176.396,4.81201,-146.052,1080
1569847977,349.039,132.159,-3.01377,176.396,4.81201,-146.052,1080
1569847977,349.039,132.159,-3.01377,176.396,4.81201,-146.052,1076
1569847977,349.039,132.159,-3.01377,176.396,4.81201,-146.052,1076
1569847977,349.039,132.159,-3.01377,176.396,4.81201,-146.052,1076
1569847977,349.151,132.159,-3.01377,176.396,4.81201,-146.052,1072
1569847977,349.151,132.159,-3.01377,176.375,4.81201,-146.052,1072
1569847977,349.151,132.159,-3.01377,176.375,4.81201,-146.052,1072
1569847977,349.151,132.159,-3.01377,176.375,4.81201,-146.052,1072
1569847977,349.151,132.159,-3.01377,176.375,4.81201,-146.052,1072
1569847977,349.151,132.159,-3.01377,176.375,4.81201,-146.052,1068
1569847977,349.151,132.159,-3.01377,176.375,4.81201,-146.052,1068
1569847978,349.151,132.159,-3.01377,176.375,4.81201,-146.052,1068
1569847978,349.151,132.159,-3.01377,176.375,4.81201,-146.052,1068
1569847978,349.151,132.159,-3.01377,176.375,4.81201,-146.052,1068
1569847978,349.151,132.159,-3.01377,176.375,4.81201,-146.052,1068
1569847978,349.151,132.159,-3.01377,176.375,4.81201,-146.052,1068
1569847978,349.151,132.159,-3.01377,176.375,4.81201,-146.052,1068
1569847978,349.151,132.159,-3.01377,176.375,4.81201,-146.052,1068
1569847978,349.151,132.159,-2.90215,176.375,4.81201,-146.052,1068
1569847978,349.151,132.159,-2.90215,176.375,4.83398,-146.052,1068
1569847978,349.151,132.159,-2.90215,176.375,4.83398,-146.074,1068
1569847978,349.151,132.159,-2.90215,176.375,4.83398,-146.074,1068
1569847978,349.151,132.159,-2.90215,176.375,4.83398,-146.074,1068
1569847978,349.151,132.159,-2.90215,176.375,4.83398,-146.052,1068
1569847978,349.151,132.159,-2.90215,176.396,4.83398,-146.052,1068
1569847978,349.151,132.159,-2.90215,176.396,4.83398,-146.052,1068
1569847978,349.151,132.271,-2.90215,176.396,4.83398,-146.052,1068
1569847978,349.151,132.271,-2.90215,176.396,4.83398,-146.052,1068
1569847978,349.151,132.271,-2.90215,176.396,4.83398,-146.052,1068
1569847978,349.151,132.271,-2.90215,176.396,4.83398,-146.052,1068
1569847978,349.039,132.271,-2.90215,176.396,4.83398,-146.052,1068
1569847978,349.039,132.271,-2.90215,176.396,4.83398,-146.052,1068
1569847978,349.039,132.271,-2.90215,176.396,4.83398,-146.052,1068
1569847978,349.039,132.271,-2.90215,176.396,4.83398,-146.052,1068
1569847978,349.039,132.271,-2.90215,176.396,4.83398,-146.052,1068
1569847978,349.039,132.271,-2.90215,176.418,4.83398,-146.052,1068
1569847978,349.039,132.271,-2.90215,176.418,4.83398,-146.052,1068
1569847978,349.039,132.271,-2.90215,176.418,4.83398,-146.052,1068
1569847978,349.039,132.271,-2.90215,176.418,4.83398,-146.052,1064
1569847978,349.039,132.271,-2.90215,176.418,4.85596,-146.052,1064
1569847978,349.039,132.271,-2.90215,176.418,4.85596,-146.052,1064
1569847978,349.039,132.271,-2.90215,176.418,4.85596,-146.052,1064
1569847978,349.039,132.271,-2.90215,176.418,4.85596,-146.052,1064
1569847978,349.039,132.271,-2.90215,176.418,4.85596,-146.052,1064
1569847978,349.039,132.271,-2.90215,176.418,4.85596,-146.052,1064
1569847978,349.039,132.271,-2.90215,176.418,4.85596,-146.052,1068
1569847978,349.039,132.271,-2.90215,176.418,4.85596,-146.052,1068
1569847978,349.039,132.271,-2.90215,176.418,4.85596,-146.052,1068
1569847978,349.039,132.271,-2.90215,176.418,4.83398,-146.052,1068
1569847978,349.039,132.271,-2.90215,176.418,4.83398,-146.052,1068
1569847978,349.039,132.271,-2.90215,176.418,4.83398,-146.052,1072
1569847978,349.039,132.271,-2.90215,176.418,4.83398,-146.052,1072
1569847978,349.039,132.271,-2.90215,176.418,4.83398,-146.052,1072
1569847978,349.039,132.271,-2.90215,176.418,4.83398,-146.052,1072
1569847978,349.039,132.271,-2.90215,176.418,4.83398,-146.052,1072
1569847978,349.039,132.271,-2.90215,176.44,4.83398,-146.052,1072
1569847978,349.039,132.271,-2.90215,176.44,4.83398,-146.052,1072
1569847978,349.039,132.271,-2.90215,176.44,4.83398,-146.052,1072
1569847978,349.039,132.271,-2.90215,176.44,4.83398,-146.052,1072
1569847978,349.039,132.271,-2.90215,176.44,4.83398,-146.052,1072
1569847978,349.039,132.271,-2.90215,176.44,4.83398,-146.052,1072
1569847978,349.039,132.271,-2.90215,176.44,4.83398,-146.052,1072
1569847978,349.039,132.271,-2.90215,176.44,4.83398,-146.052,1072
1569847978,349.039,132.271,-2.90215,176.44,4.83398,-146.052,1072
1569847978,349.039,132.271,-2.90215,176.44,4.83398,-146.052,1072
1569847978,349.039,132.271,-2.90215,176.44,4.83398,-146.052,1072
1569847978,349.039,132.383,-2.90215,176.44,4.83398,-146.052,1068
1569847978,349.039,132.383,-2.90215,176.44,4.83398,-146.052,1068
1569847978,349.039,132.383,-2.90215,176.44,4.83398,-146.052,1068
1569847978,349.039,132.383,-2.90215,176.44,4.83398,-146.052,1068
1569847978,349.039,132.383,-2.90215,176.44,4.83398,-146.052,1068
1569847978,349.039,132.383,-2.90215,176.44,4.83398,-146.052,1068
1569847978,349.039,132.383,-2.90215,176.44,4.83398,-146.052,1068
1569847978,349.039,132.383,-2.90215,176.44,4.83398,-146.052,1068
1569847978,349.039,132.383,-2.90215,176.44,4.83398,-146.052,1068
1569847978,349.039,132.383,-2.90215,176.44,4.83398,-146.052,1068
1569847978,349.039,132.383,-2.90215,176.44,4.83398,-146.052,1068
1569847978,349.039,132.383,-2.90215,176.44,4.81201,-146.052,1068
1569847978,349.039,132.383,-3.01377,176.44,4.81201,-146.052,1068
1569847978,349.039,132.383,-3.01377,176.44,4.81201,-146.052,1068
1569847978,349.039,132.383,-3.01377,176.44,4.81201,-146.052,1068
1569847978,349.039,132.383,-3.01377,176.44,4.81201,-146.052,1068
1569847978,349.039,132.383,-3.01377,176.44,4.81201,-146.052,1068
1569847978,349.039,132.383,-3.01377,176.44,4.81201,-146.052,1068
1569847978,349.039,132.383,-3.01377,176.44,4.81201,-146.052,1068
1569847978,349.039,132.383,-3.01377,176.44,4.81201,-146.052,1068
1569847978,349.039,132.383,-3.01377,176.44,4.81201,-146.052,1068
1569847978,349.039,132.383,-3.01377,176.44,4.81201,-146.052,1068
1569847978,349.039,132.383,-3.01377,176.418,4.81201,-146.052,1068
1569847978,349.039,132.383,-3.01377,176.418,4.81201,-146.052,1068
1569847978,349.039,132.271,-3.01377,176.418,4.81201,-146.03,1068
1569847978,349.039,132.271,-3.01377,176.418,4.79004,-146.03,1068
1569847978,349.039,132.271,-3.01377,176.418,4.79004,-146.03,1068
1569847978,349.039,132.271,-3.01377,176.418,4.79004,-146.03,1068
1569847978,349.039,132.271,-3.01377,176.418,4.79004,-146.03,1068
1569847978,349.039,132.271,-3.01377,176.418,4.81201,-146.03,1068
1569847978,349.039,132.271,-3.01377,176.418,4.81201,-146.03,1068
1569847978,349.039,132.271,-3.01377,176.418,4.81201,-146.03,1068
1569847978,349.039,132.271,-3.01377,176.418,4.81201,-146.03,1068
1569847978,349.039,132.271,-3.01377,176.418,4.81201,-146.03,1068
1569847978,349.039,132.271,-3.01377,176.418,4.81201,-146.03,1068
1569847978,349.039,132.271,-3.01377,176.418,4.81201,-146.03,1068
1569847978,349.039,132.271,-3.01377,176.418,4.81201,-146.03,1068
1569847978,349.039,132.271,-3.01377,176.418,4.81201,-146.03,1068
1569847978,349.039,132.271,-3.01377,176.418,4.79004,-146.03,1068
1569847978,349.039,132.271,-3.01377,176.418,4.79004,-146.03,1068
1569847978,349.039,132.271,-3.01377,176.418,4.79004,-146.03,1068
1569847978,349.039,132.271,-3.01377,176.418,4.79004,-146.03,1068
1569847978,349.039,132.271,-3.01377,176.418,4.79004,-146.03,1072
1569847978,349.039,132.271,-3.01377,176.418,4.79004,-146.03,1072
1569847978,349.039,132.271,-3.01377,176.418,4.79004,-146.03,1072
1569847979,349.039,132.271,-3.01377,176.418,4.79004,-146.03,1072
1569847979,349.039,132.271,-3.01377,176.418,4.79004,-146.03,1072
1569847979,349.039,132.271,-3.01377,176.418,4.79004,-146.03,1076
1569847979,349.039,132.271,-3.01377,176.396,4.79004,-146.03,1076
1569847979,349.039,132.271,-3.01377,176.396,4.79004,-146.03,1076
1569847979,349.039,132.271,-3.12539,176.396,4.79004,-146.03,1076
1569847979,349.039,132.271,-3.12539,176.396,4.79004,-146.03,1076
1569847979,349.039,132.271,-3.12539,176.396,4.79004,-146.03,1076
1569847979,349.039,132.271,-3.12539,176.396,4.79004,-146.03,1076
1569847979,349.039,132.271,-3.12539,176.396,4.79004,-146.03,1076
1569847979,349.039,132.271,-3.12539,176.396,4.79004,-146.03,1076
1569847979,349.039,132.271,-3.12539,176.396,4.79004,-146.03,1076
1569847979,349.039,132.271,-3.12539,176.396,4.79004,-146.03,1076
1569847979,349.039,132.271,-3.12539,176.396,4.79004,-146.03,1076
1569847979,349.039,132.271,-3.01377,176.396,4.79004,-146.03,1076
1569847979,349.039,132.271,-3.01377,176.396,4.79004,-146.03,1076
1569847979,349.039,132.271,-3.01377,176.396,4.79004,-146.03,1076
1569847979,349.039,132.271,-3.01377,176.396,4.79004,-146.03,1076
1569847979,349.039,132.271,-3.01377,176.396,4.79004,-146.03,1076
1569847979,349.039,132.271,-3.01377,176.396,4.81201,-146.03,1076
1569847979,349.039,132.271,-3.01377,176.396,4.81201,-146.03,1076
1569847979,349.039,132.271,-3.01377,176.396,4.81201,-146.03,1076
1569847979,349.039,132.271,-3.01377,176.396,4.81201,-146.008,1072
1569847979,349.039,132.271,-3.01377,176.396,4.81201,-146.008,1072
1569847979,349.039,132.271,-3.01377,176.396,4.81201,-146.008,1072
1569847979,349.039,132.271,-3.01377,176.396,4.81201,-146.008,1072
1569847979,349.039,132.271,-3.01377,176.396,4.81201,-146.008,1072
1569847979,349.039,132.271,-3.01377,176.396,4.81201,-146.008,1072
1569847979,349.039,132.271,-3.01377,176.396,4.81201,-146.008,1072
1569847979,349.039,132.271,-3.01377,176.396,4.81201,-146.008,1072
1569847979,349.039,132.271,-3.01377,176.396,4.81201,-146.008,1072
1569847979,349.039,132.271,-3.01377,176.396,4.81201,-146.008,1072
1569847979,349.039,132.271,-3.01377,176.396,4.81201,-146.008,1072
1569847979,349.039,132.271,-3.01377,176.396,4.81201,-146.008,1072
1569847979,349.039,132.271,-3.01377,176.396,4.83398,-146.008,1072
1569847979,349.039,132.271,-3.01377,176.396,4.83398,-146.008,1072
1569847979,349.039,132.271,-3.01377,176.396,4.83398,-146.008,1072
1569847979,349.039,132.271,-3.01377,176.396,4.83398,-146.008,1072
1569847979,349.039,132.271,-3.01377,176.396,4.83398,-146.008,1072
1569847979,349.039,132.271,-3.01377,176.396,4.83398,-146.008,1072
1569847979,349.039,132.271,-3.01377,176.396,4.83398,-146.008,1072
1569847979,349.039,132.271,-3.01377,176.396,4.83398,-146.03,1076
1569847979,349.039,132.271,-3.01377,176.396,4.83398,-146.03,1076
1569847979,349.039,132.271,-3.01377,176.396,4.83398,-146.03,1076
1569847979,349.039,132.271,-3.01377,176.396,4.81201,-146.03,1076
1569847979,349.039,132.271,-3.01377,176.396,4.81201,-146.03,1076
1569847979,349.039,132.271,-3.01377,176.396,4.81201,-146.03,1076
1569847979,349.039,132.271,-2.90215,176.396,4.81201,-146.03,1076
1569847979,349.039,132.271,-2.90215,176.396,4.83398,-146.03,1076
1569847979,349.039,132.271,-2.90215,176.396,4.83398,-146.03,1076
1569847979,349.039,132.271,-2.90215,176.396,4.83398,-146.03,1076
1569847979,349.039,132.271,-2.90215,176.396,4.83398,-146.03,1076
1569847979,349.039,132.271,-2.90215,176.396,4.83398,-146.03,1076
1569847979,349.039,132.271,-2.90215,176.396,4.83398,-146.03,1076
1569847979,349.039,132.271,-2.90215,176.396,4.81201,-146.03,1076
1569847979,349.039,132.271,-2.90215,176.396,4.81201,-146.03,1076
1569847979,349.039,132.271,-2.90215,176.396,4.81201,-146.03,1076
1569847979,349.039,132.271,-2.90215,176.396,4.81201,-146.03,1076
1569847979,349.039,132.271,-2.90215,176.396,4.81201,-146.03,1076
1569847979,349.039,132.271,-3.01377,176.396,4.81201,-146.03,1076
1569847979,349.039,132.271,-3.01377,176.396,4.81201,-146.03,1076
1569847979,349.039,132.271,-3.01377,176.396,4.81201,-146.03,1076
1569847979,349.039,132.271,-3.01377,176.396,4.81201,-146.03,1076
1569847979,349.039,132.271,-3.01377,176.396,4.81201,-146.03,1076
1569847979,349.039,132.271,-3.01377,176.396,4.81201,-146.03,1076
1569847979,349.039,132.271,-3.01377,176.396,4.81201,-146.03,1076
1569847979,349.039,132.271,-3.01377,176.396,4.81201,-146.03,1076
1569847979,349.039,132.271,-3.01377,176.396,4.81201,-146.03,1076
1569847979,349.039,132.271,-3.01377,176.396,4.81201,-146.03,1076
1569847979,349.039,132.271,-3.01377,176.396,4.81201,-146.03,1076
1569847979,349.039,132.271,-3.01377,176.396,4.81201,-146.03,1076
1569847979,349.039,132.271,-2.90215,176.396,4.81201,-146.03,1076
1569847979,349.039,132.271,-2.90215,176.396,4.81201,-146.03,1076
1569847979,349.039,132.271,-3.01377,176.396,4.81201,-146.03,1076
1569847979,349.039,132.271,-3.01377,176.396,4.81201,-146.03,1076
1569847979,349.039,132.271,-3.01377,176.396,4.81201,-146.03,1076
1569847979,349.039,132.271,-3.01377,176.396,4.81201,-146.03,1076
1569847979,349.039,132.271,-3.01377,176.396,4.81201,-146.03,1076
1569847979,349.039,132.271,-3.01377,176.396,4.81201,-146.03,1076
1569847979,349.039,132.271,-3.01377,176.396,4.81201,-146.03,1076
1569847979,349.039,132.271,-3.01377,176.396,4.81201,-146.03,1080
1569847979,349.039,132.271,-3.01377,176.396,4.81201,-146.03,1080
1569847979,349.039,132.271,-3.01377,176.396,4.81201,-146.03,1080
1569847979,349.039,132.271,-3.01377,176.396,4.81201,-146.03,1080
1569847979,349.039,132.271,-3.01377,176.396,4.81201,-146.03,1084
1569847979,349.039,132.271,-3.01377,176.396,4.81201,-146.03,1084
1569847979,349.039,132.271,-3.01377,176.396,4.81201,-146.03,1084
1569847979,349.039,132.271,-3.01377,176.396,4.81201,-146.03,1084
1569847979,349.039,132.271,-3.01377,176.396,4.81201,-146.03,1084
1569847979,349.039,132.271,-3.01377,176.396,4.81201,-146.03,1088
1569847979,349.039,132.271,-2.90215,176.396,4.81201,-146.03,1088
1569847979,349.039,132.271,-2.90215,176.396,4.83398,-146.03,1088
1569847979,349.039,132.271,-2.90215,176.396,4.83398,-146.03,1088
1569847979,349.039,132.271,-2.90215,176.396,4.83398,-146.03,1088
1569847979,349.039,132.271,-2.90215,176.396,4.83398,-146.03,1088
1569847979,349.039,132.271,-2.90215,176.396,4.83398,-146.03,1088
1569847979,349.039,132.271,-2.90215,176.396,4.83398,-146.03,1092
1569847979,349.039,132.271,-2.90215,176.396,4.83398,-146.03,1092
1569847979,349.039,132.271,-3.01377,176.396,4.83398,-146.03,1092
1569847979,349.039,132.271,-3.01377,176.396,4.83398,-146.03,1092
1569847980,349.039,132.271,-3.01377,176.396,4.83398,-146.03,1092
1569847980,349.039,132.271,-3.01377,176.396,4.81201,-146.03,1092
1569847980,349.039,132.271,-3.01377,176.396,4.81201,-146.03,1092
1569847980,349.039,132.271,-3.01377,176.418,4.81201,-146.03,1092
1569847980,349.039,132.271,-3.01377,176.418,4.81201,-146.03,1092
1569847980,349.039,132.271,-3.01377,176.418,4.81201,-146.03,1092
1569847980,349.039,132.271,-3.01377,176.418,4.83398,-146.03,1092
1569847980,349.039,132.271,-3.01377,176.418,4.83398,-146.03,1092
1569847980,349.039,132.271,-2.90215,176.418,4.83398,-146.03,1092
1569847980,349.039,132.271,-2.90215,176.418,4.83398,-146.03,1092
1569847980,349.039,132.271,-2.90215,176.418,4.83398,-146.03,1092
1569847980,349.039,132.271,-2.90215,176.418,4.83398,-146.03,1092
1569847980,349.039,132.271,-2.90215,176.418,4.83398,-146.03,1092
1569847980,349.039,132.271,-2.90215,176.418,4.83398,-146.03,1088
1569847980,349.039,132.271,-2.90215,176.418,4.83398,-146.03,1088
1569847980,349.039,132.271,-2.90215,176.396,4.83398,-146.03,1088
1569847980,349.039,132.271,-2.90215,176.396,4.83398,-146.03,1088
1569847980,349.039,132.271,-2.90215,176.396,4.83398,-146.03,1088
1569847980,349.039,132.271,-2.90215,176.396,4.83398,-146.03,1084
1569847980,349.039,132.271,-2.90215,176.396,4.83398,-146.03,1084
1569847980,349.039,132.271,-2.90215,176.396,4.83398,-146.03,1084
1569847980,349.039,132.271,-2.90215,176.396,4.83398,-146.03,1084
1569847980,349.039,132.271,-2.90215,176.396,4.83398,-146.03,1084
1569847980,349.039,132.271,-2.90215,176.396,4.83398,-146.03,1080
1569847980,349.039,132.271,-2.90215,176.396,4.83398,-146.03,1080
1569847980,349.039,132.271,-2.90215,176.418,4.83398,-146.03,1080
1569847980,349.039,132.271,-2.90215,176.418,4.83398,-146.03,1080
1569847980,349.039,132.271,-2.90215,176.418,4.83398,-146.03,1080
1569847980,349.039,132.271,-2.90215,176.418,4.83398,-146.03,1080
1569847980,349.039,132.271,-2.90215,176.418,4.85596,-146.03,1080
1569847980,349.039,132.271,-2.90215,176.418,4.85596,-146.03,1080
1569847980,349.039,132.271,-2.90215,176.418,4.85596,-146.03,1080
1569847980,349.039,132.271,-2.90215,176.418,4.85596,-146.03,1080
1569847980,349.039,132.271,-2.90215,176.418,4.83398,-146.03,1080
1569847980,349.039,132.271,-2.90215,176.418,4.83398,-146.03,1080
1569847980,349.039,132.271,-2.90215,176.418,4.83398,-146.03,1080
1569847980,349.039,132.271,-2.90215,176.418,4.83398,-146.03,1080
1569847980,349.039,132.271,-2.90215,176.418,4.83398,-146.03,1080
1569847980,349.039,132.271,-2.90215,176.418,4.83398,-146.03,1080
1569847980,349.039,132.271,-2.90215,176.396,4.83398,-146.03,1080
1569847980,349.039,132.271,-2.90215,176.396,4.83398,-146.03,1080
1569847980,349.039,132.271,-2.90215,176.396,4.83398,-146.03,1080
1569847980,349.039,132.271,-2.90215,176.396,4.83398,-146.03,1080
1569847980,349.039,132.271,-2.90215,176.396,4.83398,-146.03,1080
1569847980,349.039,132.271,-2.90215,176.396,4.83398,-146.03,1080
1569847980,349.039,132.271,-2.90215,176.396,4.83398,-146.03,1080
1569847980,349.039,132.271,-2.90215,176.396,4.83398,-146.03,1080
1569847980,349.039,132.271,-2.90215,176.396,4.83398,-146.03,1080
1569847980,349.039,132.271,-2.90215,176.396,4.83398,-146.052,1080
1569847980,349.039,132.271,-2.90215,176.396,4.83398,-146.052,1080
1569847980,349.039,132.159,-2.90215,176.396,4.83398,-146.052,1080
1569847980,349.039,132.159,-2.90215,176.396,4.83398,-146.052,1080
1569847980,349.039,132.159,-2.90215,176.375,4.83398,-146.052,1080
1569847980,349.039,132.159,-2.90215,176.375,4.83398,-146.052,1080
1569847980,349.039,132.159,-3.01377,176.375,4.83398,-146.052,1080
1569847980,349.039,132.159,-3.01377,176.375,4.83398,-146.052,1080
1569847980,349.039,132.159,-3.01377,176.375,4.83398,-146.03,1080
1569847980,349.039,132.159,-3.01377,176.375,4.83398,-146.03,1080
1569847980,349.039,132.159,-3.01377,176.375,4.83398,-146.03,1076
1569847980,349.039,132.159,-2.90215,176.396,4.83398,-146.03,1076
1569847980,349.039,132.159,-2.90215,176.396,4.83398,-146.052,1076
1569847980,349.039,132.159,-2.90215,176.396,4.83398,-146.052,1076
1569847980,349.039,132.159,-2.90215,176.396,4.83398,-146.052,1076
1569847985,372.256,108.496,-2.56729,176.726,4.8999,-146.206,1292
1569847985,372.256,108.496,-2.56729,176.726,4.8999,-146.206,1292
1569847985,372.256,108.496,-2.56729,176.726,4.8999,-146.184,1292
1569847985,372.256,108.496,-2.56729,176.726,4.8999,-146.184,1292
1569847985,372.256,108.496,-2.56729,176.726,4.8999,-146.206,1292
1569847985,372.256,108.496,-2.56729,176.726,4.8999,-146.206,1292
1569847985,372.256,108.496,-2.56729,176.726,4.8999,-146.206,1292
1569847985,372.256,108.496,-2.56729,176.726,4.8999,-146.206,1292
1569847985,372.256,108.496,-2.56729,176.726,4.8999,-146.206,1292
1569847985,372.256,108.496,-2.56729,176.726,4.8999,-146.206,1292
1569847985,372.256,108.496,-2.56729,176.726,4.8999,-146.206,1292
1569847985,372.256,108.496,-2.56729,176.726,4.8999,-146.206,1292
1569847985,372.256,108.496,-2.56729,176.726,4.8999,-146.206,1292
1569847985,372.256,108.496,-2.56729,176.726,4.8999,-146.206,1292
1569847985,372.256,108.496,-2.56729,176.726,4.87793,-146.206,1292
1569847985,372.256,108.496,-2.56729,176.726,4.87793,-146.206,1292
1569847985,372.256,108.496,-2.56729,176.748,4.87793,-146.206,1292
1569847985,372.145,108.496,-2.56729,176.748,4.87793,-146.206,1292
1569847985,372.145,108.496,-2.56729,176.748,4.87793,-146.206,1292
1569847985,372.145,108.496,-2.56729,176.748,4.87793,-146.206,1292
1569847985,372.145,108.496,-2.56729,176.748,4.87793,-146.206,1292
1569847985,372.145,108.496,-2.56729,176.748,4.87793,-146.206,1292
1569847985,372.145,108.496,-2.56729,176.748,4.87793,-146.184,1292
1569847985,372.145,108.496,-2.56729,176.748,4.87793,-146.184,1292
1569847985,372.145,108.496,-2.56729,176.748,4.87793,-146.184,1292
1569847985,372.256,108.496,-2.56729,176.748,4.87793,-146.184,1292
1569847985,372.256,108.496,-2.56729,176.748,4.87793,-146.184,1292
1569847985,372.256,108.496,-2.56729,176.748,4.87793,-146.184,1292
1569847985,372.256,108.496,-2.56729,176.748,4.87793,-146.184,1292
1569847985,372.256,108.496,-2.56729,176.748,4.87793,-146.184,1292
1569847985,372.256,108.496,-2.56729,176.726,4.87793,-146.184,1292
1569847985,372.256,108.496,-2.56729,176.726,4.87793,-146.184,1292
1569847985,372.256,108.496,-2.56729,176.726,4.87793,-146.184,1292
1569847985,372.256,108.496,-2.56729,176.726,4.87793,-146.184,1292
1569847985,372.256,108.496,-2.56729,176.726,4.87793,-146.184,1292
1569847985,372.256,108.496,-2.56729,176.726,4.8999,-146.184,1292
1569847985,372.256,108.496,-2.56729,176.726,4.8999,-146.184,1292
1569847985,372.256,108.496,-2.56729,176.726,4.8999,-146.184,1296
1569847985,372.256,108.496,-2.56729,176.726,4.8999,-146.184,1296
1569847985,372.256,108.496,-2.56729,176.726,4.8999,-146.184,1296
1569847985,372.256,108.496,-2.56729,176.726,4.8999,-146.184,1296
1569847985,372.256,108.496,-2.56729,176.726,4.8999,-146.184,1296
1569847985,372.256,108.496,-2.56729,176.726,4.8999,-146.184,1296
1569847985,372.256,108.496,-2.56729,176.726,4.8999,-146.184,1300
1569847985,372.256,108.496,-2.56729,176.726,4.8999,-146.184,1300
1569847985,372.256,108.384,-2.56729,176.704,4.8999,-146.184,1300
1569847985,372.256,108.384,-2.56729,176.704,4.8999,-146.184,1300
1569847985,372.256,108.384,-2.56729,176.704,4.8999,-146.184,1300
1569847985,372.256,108.384,-2.56729,176.704,4.87793,-146.184,1300
1569847985,372.256,108.384,-2.56729,176.704,4.87793,-146.184,1300
1569847985,372.256,108.384,-2.56729,176.704,4.87793,-146.184,1300
1569847985,372.256,108.384,-2.56729,176.704,4.87793,-146.184,1300
1569847985,372.256,108.384,-2.56729,176.704,4.87793,-146.184,1300
1569847985,372.256,108.384,-2.56729,176.704,4.87793,-146.184,1300
1569847985,372.256,108.384,-2.56729,176.704,4.87793,-146.184,1300
1569847985,372.256,108.384,-2.56729,176.704,4.87793,-146.184,1296
1569847985,372.256,108.384,-2.56729,176.704,4.87793,-146.184,1296
1569847985,372.256,108.384,-2.56729,176.704,4.87793,-146.184,1296
1569847985,372.256,108.384,-2.56729,176.704,4.87793,-146.184,1296
1569847985,372.256,108.384,-2.56729,176.704,4.87793,-146.184,1296
1569847985,372.256,108.384,-2.67891,176.704,4.87793,-146.184,1296
1569847985,372.256,108.384,-2.67891,176.704,4.85596,-146.184,1296
1569847985,372.256,108.384,-2.67891,176.704,4.85596,-146.184,1296
1569847985,372.256,108.384,-2.67891,176.704,4.85596,-146.184,1296
1569847985,372.256,108.384,-2.67891,176.704,4.85596,-146.184,1296
1569847985,372.256,108.384,-2.67891,176.704,4.85596,-146.184,1296
1569847985,372.256,108.384,-2.67891,176.704,4.85596,-146.184,1296
1569847985,372.256,108.384,-2.67891,176.704,4.85596,-146.184,1296
1569847985,372.256,108.384,-2.67891,176.704,4.85596,-146.184,1296
1569847985,372.256,108.384,-2.67891,176.704,4.85596,-146.184,1296
1569847985,372.256,108.384,-2.67891,176.704,4.85596,-146.184,1292
1569847985,372.256,108.384,-2.67891,176.704,4.85596,-146.184,1292
1569847985,372.256,108.384,-2.67891,176.682,4.85596,-146.184,1292
1569847985,372.256,108.384,-2.67891,176.682,4.85596,-146.184,1292
1569847985,372.256,108.384,-2.67891,176.682,4.85596,-146.206,1292
1569847985,372.256,108.384,-2.67891,176.682,4.85596,-146.206,1292
1569847985,372.256,108.384,-2.67891,176.682,4.85596,-146.206,1292
1569847985,372.256,108.384,-2.67891,176.682,4.85596,-146.206,1292
1569847985,372.256,108.384,-2.67891,176.682,4.85596,-146.206,1292
1569847985,372.256,108.384,-2.67891,176.682,4.85596,-146.206,1292
1569847986,372.256,108.384,-2.67891,176.682,4.85596,-146.206,1292
1569847986,372.256,108.384,-2.56729,176.704,4.85596,-146.206,1292
1569847986,372.256,108.384,-2.56729,176.704,4.85596,-146.206,1292
1569847986,372.256,108.384,-2.56729,176.704,4.85596,-146.206,1292
1569847986,372.256,108.384,-2.56729,176.704,4.85596,-146.206,1292
1569847986,372.256,108.384,-2.56729,176.704,4.85596,-146.206,1292
1569847986,372.256,108.384,-2.56729,176.704,4.85596,-146.206,1292
1569847986,372.256,108.384,-2.56729,176.704,4.87793,-146.206,1292
1569847986,372.256,108.384,-2.56729,176.704,4.87793,-146.206,1292
1569847986,372.256,108.384,-2.56729,176.704,4.87793,-146.206,1292
1569847986,372.256,108.384,-2.56729,176.704,4.87793,-146.206,1292
1569847986,372.256,108.496,-2.56729,176.704,4.87793,-146.206,1292
1569847986,372.256,108.496,-2.56729,176.726,4.87793,-146.206,1288
1569847986,372.256,108.496,-2.56729,176.726,4.87793,-146.206,1288
1569847986,372.256,108.496,-2.56729,176.726,4.87793,-146.206,1288
1569847986,372.256,108.496,-2.56729,176.726,4.87793,-146.206,1288
1569847986,372.256,108.496,-2.56729,176.726,4.87793,-146.206,1288
1569847986,372.256,108.496,-2.56729,176.726,4.87793,-146.206,1284
1569847986,372.256,108.496,-2.56729,176.726,4.87793,-146.206,1284
1569847986,372.256,108.496,-2.56729,176.726,4.87793,-146.206,1284
1569847986,372.256,108.496,-2.56729,176.726,4.87793,-146.206,1280
1569847986,372.256,108.496,-2.56729,176.726,4.87793,-146.206,1280
1569847986,372.256,108.496,-2.56729,176.726,4.87793,-146.206,1280
1569847986,372.145,108.496,-2.56729,176.726,4.87793,-146.206,1276
1569847986,372.145,108.496,-2.56729,176.726,4.87793,-146.206,1276
1569847986,372.145,108.496,-2.56729,176.726,4.87793,-146.206,1276
1569847986,372.145,108.496,-2.56729,176.726,4.8999,-146.206,1272
1569847986,372.145,108.496,-2.45566,176.726,4.8999,-146.206,1272
1569847986,372.145,108.496,-2.45566,176.726,4.8999,-146.206,1272
1569847986,372.145,108.496,-2.45566,176.726,4.8999,-146.206,1272
1569847986,372.145,108.496,-2.45566,176.726,4.8999,-146.206,1268
1569847986,372.145,108.496,-2.45566,176.726,4.8999,-146.206,1268
1569847986,372.145,108.384,-2.45566,176.726,4.8999,-146.206,1268
1569847986,372.145,108.384,-2.45566,176.726,4.8999,-146.206,1268
1569847986,372.145,108.384,-2.45566,176.726,4.8999,-146.206,1264
1569847986,372.145,108.384,-2.56729,176.726,4.8999,-146.206,1264
1569847986,372.145,108.384,-2.56729,176.726,4.8999,-146.206,1264
1569847986,372.145,108.384,-2.56729,176.726,4.8999,-146.206,1264
1569847986,372.145,108.384,-2.56729,176.726,4.8999,-146.206,1264
1569847986,372.145,108.384,-2.56729,176.726,4.8999,-146.206,1264
1569847986,372.256,108.384,-2.56729,176.726,4.8999,-146.206,1264
1569847986,372.256,108.384,-2.56729,176.726,4.8999,-146.206,1264
1569847986,372.256,108.384,-2.56729,176.726,4.8999,-146.206,1268
1569847986,372.256,108.384,-2.56729,176.726,4.87793,-146.206,1268
1569847986,372.256,108.496,-2.56729,176.726,4.87793,-146.206,1268
1569847986,372.256,108.496,-2.56729,176.726,4.87793,-146.206,1268
1569847986,372.256,108.496,-2.56729,176.726,4.87793,-146.206,1272
1569847986,372.256,108.496,-2.56729,176.726,4.87793,-146.206,1272
1569847986,372.256,108.496,-2.56729,176.726,4.87793,-146.206,1272
1569847986,372.256,108.496,-2.56729,176.726,4.87793,-146.206,1272
1569847986,372.256,108.496,-2.56729,176.726,4.87793,-146.206,1272
1569847986,372.256,108.496,-2.56729,176.726,4.87793,-146.206,1276
1569847986,372.256,108.496,-2.56729,176.726,4.87793,-146.206,1276
1569847986,372.256,108.496,-2.56729,176.726,4.87793,-146.206,1276
1569847986,372.256,108.496,-2.56729,176.726,4.87793,-146.206,1276
1569847986,372.256,108.496,-2.56729,176.726,4.87793,-146.206,1276
1569847986,372.256,108.496,-2.56729,176.726,4.87793,-146.206,1276
1569847986,372.256,108.496,-2.56729,176.726,4.87793,-146.206,1276
1569847986,372.256,108.496,-2.56729,176.726,4.87793,-146.206,1276
1569847986,372.256,108.496,-2.56729,176.726,4.87793,-146.206,1276
1569847986,372.256,108.496,-2.56729,176.726,4.87793,-146.206,1276
1569847986,372.256,108.496,-2.56729,176.726,4.87793,-146.206,1276
1569847986,372.256,108.496,-2.56729,176.726,4.87793,-146.206,1276
1569847986,372.256,108.496,-2.56729,176.726,4.87793,-146.184,1280
1569847986,372.256,108.496,-2.56729,176.726,4.8999,-146.184,1280
1569847986,372.256,108.384,-2.56729,176.726,4.8999,-146.184,1280
1569847986,372.256,108.384,-2.56729,176.726,4.87793,-146.184,1280
1569847986,372.256,108.496,-2.56729,176.726,4.87793,-146.184,1280
1569847986,372.256,108.384,-2.56729,176.726,4.87793,-146.184,1280
1569847986,372.256,108.384,-2.56729,176.726,4.87793,-146.184,1280
1569847986,372.256,108.384,-2.56729,176.726,4.87793,-146.184,1284
1569847986,372.256,108.384,-2.56729,176.704,4.87793,-146.184,1284
1569847986,372.256,108.384,-2.56729,176.704,4.87793,-146.184,1284
1569847986,372.256,108.384,-2.56729,176.704,4.87793,-146.184,1284
1569847986,372.256,108.384,-2.56729,176.704,4.87793,-146.184,1284
1569847986,372.256,108.384,-2.56729,176.704,4.87793,-146.184,1284
1569847986,372.256,108.384,-2.56729,176.704,4.87793,-146.184,1284
1569847986,372.256,108.384,-2.56729,176.704,4.87793,-146.184,1284
1569847986,372.256,108.384,-2.56729,176.704,4.87793,-146.184,1284
1569847986,372.256,108.384,-2.56729,176.704,4.87793,-146.184,1284
1569847986,372.256,108.384,-2.56729,176.704,4.87793,-146.184,1284
1569847986,372.256,108.384,-2.56729,176.704,4.87793,-146.184,1288
1569847986,372.256,108.384,-2.56729,176.704,4.87793,-146.184,1288
1569847986,372.256,108.384,-2.56729,176.704,4.87793,-146.206,1288
1569847986,372.256,108.384,-2.56729,176.704,4.87793,-146.206,1288
1569847986,372.256,108.384,-2.56729,176.704,4.87793,-146.206,1288
1569847986,372.256,108.384,-2.56729,176.704,4.87793,-146.206,1288
1569847986,372.256,108.384,-2.56729,176.726,4.87793,-146.206,1288
1569847986,372.256,108.384,-2.56729,176.726,4.8999,-146.206,1288
1569847986,372.256,108.384,-2.56729,176.726,4.8999,-146.206,1288
1569847986,372.256,108.384,-2.56729,176.726,4.8999,-146.206,1288
1569847986,372.256,108.496,-2.56729,176.726,4.8999,-146.206,1288
1569847986,372.256,108.496,-2.56729,176.726,4.8999,-146.206,1288
1569847986,372.256,108.496,-2.56729,176.726,4.8999,-146.206,1288
1569847986,372.256,108.496,-2.56729,176.726,4.8999,-146.206,1288
1569847986,372.256,108.384,-2.56729,176.726,4.8999,-146.184,1288
1569847986,372.256,108.384,-2.56729,176.726,4.8999,-146.184,1288
1569847986,372.256,108.384,-2.56729,176.704,4.8999,-146.184,1292
1569847986,372.256,108.384,-2.56729,176.704,4.8999,-146.184,1292
1569847987,372.256,108.384,-2.56729,176.704,4.8999,-146.184,1292
1569847987,372.368,108.384,-2.56729,176.704,4.8999,-146.206,1296
1569847987,372.368,108.384,-2.56729,176.704,4.8999,-146.206,1296
1569847987,372.368,108.384,-2.56729,176.704,4.8999,-146.206,1296
1569847987,372.368,108.384,-2.56729,176.704,4.8999,-146.206,1300
1569847987,372.368,108.384,-2.56729,176.704,4.8999,-146.206,1300
1569847987,372.368,108.384,-2.56729,176.704,4.8999,-146.206,1304
1569847987,372.368,108.384,-2.56729,176.704,4.8999,-146.206,1304
1569847987,372.368,108.384,-2.56729,176.704,4.8999,-146.206,1308
1569847987,372.368,108.384,-2.56729,176.704,4.87793,-146.206,1308
1569847987,372.368,108.384,-2.56729,176.704,4.87793,-146.206,1308
1569847987,372.368,108.384,-2.56729,176.704,4.87793,-146.206,1308
1569847987,372.368,108.384,-2.56729,176.704,4.87793,-146.206,1312
1569847987,372.368,108.384,-2.56729,176.704,4.87793,-146.206,1312
1569847987,372.368,108.496,-2.56729,176.704,4.87793,-146.206,1312
1569847987,372.368,108.496,-2.56729,176.704,4.87793,-146.206,1312
1569847987,372.368,108.496,-2.56729,176.704,4.87793,-146.206,1312
1569847987,372.368,108.496,-2.56729,176.704,4.87793,-146.206,1312
1569847987,372.368,108.384,-2.56729,176.704,4.87793,-146.206,1312
1569847987,372.368,108.384,-2.56729,176.704,4.87793,-146.206,1312
1569847987,372.368,108.384,-2.56729,176.704,4.87793,-146.206,1312
1569847987,372.368,108.384,-2.56729,176.704,4.87793,-146.206,1312
1569847987,372.368,108.384,-2.56729,176.704,4.87793,-146.206,1312
1569847987,372.368,108.384,-2.56729,176.704,4.87793,-146.206,1312
1569847987,372.368,108.384,-2.56729,176.704,4.87793,-146.206,1312
1569847987,372.368,108.384,-2.56729,176.704,4.87793,-146.206,1312
1569847987,372.368,108.384,-2.56729,176.704,4.87793,-146.206,1312
1569847987,372.368,108.384,-2.56729,176.704,4.87793,-146.206,1316
1569847987,372.368,108.384,-2.56729,176.704,4.87793,-146.206,1316
1569847987,372.368,108.384,-2.56729,176.704,4.87793,-146.206,1316
1569847987,372.368,108.384,-2.56729,176.704,4.87793,-146.206,1316
1569847987,372.368,108.384,-2.56729,176.704,4.87793,-146.206,1316
1569847987,372.368,108.384,-2.56729,176.704,4.87793,-146.206,1316
1569847987,372.368,108.384,-2.56729,176.704,4.87793,-146.206,1316
1569847987,372.368,108.384,-2.56729,176.704,4.87793,-146.206,1316
1569847987,372.368,108.384,-2.56729,176.704,4.87793,-146.206,1312
1569847987,372.368,108.384,-2.56729,176.704,4.87793,-146.206,1312
1569847987,372.368,108.384,-2.56729,176.682,4.87793,-146.206,1312
1569847987,372.368,108.384,-2.56729,176.682,4.87793,-146.184,1312
1569847987,372.368,108.384,-2.56729,176.682,4.87793,-146.184,1312
1569847987,372.368,108.384,-2.56729,176.682,4.87793,-146.184,1312
1569847987,372.368,108.384,-2.56729,176.682,4.87793,-146.184,1312
1569847987,372.368,108.384,-2.56729,176.682,4.87793,-146.184,1308
1569847987,372.368,108.384,-2.56729,176.682,4.87793,-146.184,1308
1569847987,372.368,108.384,-2.56729,176.682,4.87793,-146.184,1308
1569847987,372.256,108.384,-2.56729,176.682,4.87793,-146.184,1308
1569847987,372.256,108.384,-2.56729,176.682,4.8999,-146.184,1308
1569847987,372.256,108.384,-2.56729,176.682,4.8999,-146.206,1308
1569847987,372.256,108.384,-2.56729,176.682,4.8999,-146.206,1304
1569847987,372.256,108.384,-2.56729,176.682,4.8999,-146.206,1304
1569847987,372.256,108.384,-2.56729,176.682,4.8999,-146.206,1304
1569847987,372.256,108.384,-2.56729,176.682,4.8999,-146.206,1300
1569847987,372.256,108.384,-2.56729,176.682,4.8999,-146.206,1300
1569847987,372.256,108.384,-2.56729,176.682,4.8999,-146.206,1300
1569847987,372.256,108.384,-2.56729,176.682,4.8999,-146.206,1296
1569847987,372.256,108.384,-2.56729,176.682,4.87793,-146.206,1296
1569847987,372.256,108.384,-2.56729,176.682,4.87793,-146.206,1296
1569847987,372.256,108.384,-2.56729,176.682,4.87793,-146.206,1296
1569847987,372.256,108.384,-2.56729,176.682,4.87793,-146.206,1292
1569847987,372.256,108.384,-2.56729,176.682,4.87793,-146.206,1292
1569847987,372.256,108.384,-2.56729,176.682,4.87793,-146.206,1292
1569847987,372.256,108.384,-2.56729,176.682,4.87793,-146.206,1292
1569847987,372.256,108.384,-2.56729,176.682,4.87793,-146.206,1292
1569847987,372.256,108.384,-2.56729,176.682,4.8999,-146.206,1292
1569847987,372.256,108.384,-2.56729,176.682,4.8999,-146.206,1292
1569847987,372.256,108.384,-2.56729,176.682,4.8999,-146.206,1292
1569847987,372.256,108.384,-2.56729,176.682,4.8999,-146.206,1292
1569847987,372.256,108.384,-2.56729,176.682,4.8999,-146.206,1288
1569847987,372.256,108.384,-2.56729,176.704,4.8999,-146.184,1288
1569847987,372.256,108.384,-2.56729,176.704,4.8999,-146.184,1288
1569847987,372.256,108.384,-2.56729,176.704,4.8999,-146.184,1288
1569847987,372.256,108.384,-2.56729,176.704,4.8999,-146.184,1288
1569847987,372.256,108.384,-2.56729,176.704,4.8999,-146.184,1288
1569847987,372.256,108.384,-2.56729,176.704,4.8999,-146.184,1288
1569847987,372.256,108.384,-2.56729,176.704,4.8999,-146.184,1288
1569847987,372.256,108.384,-2.56729,176.704,4.8999,-146.184,1288
1569847987,372.256,108.496,-2.56729,176.704,4.8999,-146.184,1288
1569847987,372.256,108.496,-2.56729,176.704,4.87793,-146.184,1288
1569847987,372.256,108.496,-2.56729,176.704,4.87793,-146.184,1288
1569847987,372.256,108.496,-2.56729,176.704,4.87793,-146.184,1288
1569847987,372.256,108.496,-2.56729,176.704,4.87793,-146.184,1288
1569847987,372.256,108.496,-2.56729,176.704,4.87793,-146.184,1288
1569847987,372.256,108.496,-2.56729,176.704,4.87793,-146.184,1288
1569847987,372.256,108.384,-2.56729,176.704,4.87793,-146.184,1288
1569847987,372.256,108.384,-2.56729,176.704,4.87793,-146.184,1288
1569847987,372.256,108.384,-2.67891,176.704,4.87793,-146.184,1288
1569847987,372.256,108.384,-2.67891,176.704,4.87793,-146.184,1288
1569847987,372.256,108.384,-2.67891,176.704,4.87793,-146.184,1288
1569847987,372.256,108.384,-2.67891,176.704,4.87793,-146.184,1288
1569847987,372.256,108.384,-2.67891,176.704,4.87793,-146.184,1288
1569847987,372.256,108.384,-2.67891,176.682,4.87793,-146.184,1288
1569847987,372.256,108.384,-2.67891,176.682,4.87793,-146.184,1288
1569847987,372.256,108.384,-2.67891,176.682,4.87793,-146.184,1288
1569847987,372.256,108.384,-2.67891,176.704,4.87793,-146.184,1288
1569847987,372.256,108.384,-2.67891,176.704,4.87793,-146.184,1284
1569847987,372.256,108.384,-2.67891,176.704,4.87793,-146.184,1284
1569847987,372.256,108.384,-2.67891,176.704,4.87793,-146.184,1284
1569847987,372.256,108.384,-2.67891,176.704,4.87793,-146.184,1284
1569847987,372.256,108.384,-2.67891,176.704,4.85596,-146.184,1284
1569847987,372.256,108.384,-2.67891,176.704,4.85596,-146.184,1284
1569847988,372.256,108.384,-2.67891,176.704,4.85596,-146.184,1284
1569847988,372.256,108.384,-2.67891,176.704,4.85596,-146.184,1284
1569847988,372.256,108.384,-2.67891,176.704,4.85596,-146.184,1284
1569847988,372.256,108.384,-2.67891,176.704,4.87793,-146.184,1284
1569847988,372.256,108.384,-2.67891,176.704,4.87793,-146.184,1284
1569847988,372.256,108.384,-2.67891,176.704,4.87793,-146.184,1284
1569847988,372.256,108.384,-2.67891,176.704,4.87793,-146.184,1284
1569847988,372.256,108.384,-2.67891,176.704,4.87793,-146.184,1284
1569847988,372.256,108.384,-2.56729,176.704,4.87793,-146.184,1284
1569847988,372.256,108.384,-2.56729,176.704,4.87793,-146.184,1284
1569847988,372.256,108.384,-2.56729,176.704,4.8999,-146.184,1280
1569847988,372.256,108.384,-2.56729,176.704,4.8999,-146.206,1280
1569847988,372.256,108.384,-2.56729,176.704,4.8999,-146.206,1280
1569847988,372.256,108.384,-2.56729,176.704,4.8999,-146.206,1280
1569847988,372.256,108.384,-2.56729,176.704,4.8999,-146.206,1280
1569847988,372.256,108.384,-2.56729,176.704,4.8999,-146.206,1280
1569847988,372.256,108.384,-2.56729,176.704,4.8999,-146.206,1280
1569847988,372.256,108.384,-2.56729,176.704,4.8999,-146.206,1280
1569847988,372.256,108.384,-2.56729,176.704,4.8999,-146.206,1280
1569847988,372.256,108.384,-2.56729,176.704,4.8999,-146.206,1280
1569847988,372.256,108.384,-2.56729,176.704,4.8999,-146.206,1280
1569847988,372.256,108.384,-2.56729,176.704,4.8999,-146.206,1284
1569847988,372.256,108.384,-2.56729,176.704,4.8999,-146.206,1284
1569847988,372.256,108.384,-2.56729,176.704,4.8999,-146.206,1284
1569847988,372.256,108.384,-2.56729,176.704,4.8999,-146.206,1284
1569847988,372.256,108.384,-2.56729,176.704,4.8999,-146.184,1284
1569847988,372.256,108.384,-2.56729,176.704,4.8999,-146.184,1284
1569847988,372.256,108.384,-2.56729,176.704,4.8999,-146.184,1284
1569847988,372.256,108.384,-2.56729,176.704,4.8999,-146.184,1284
1569847988,372.256,108.384,-2.56729,176.726,4.8999,-146.184,1284
1569847988,372.256,108.384,-2.56729,176.726,4.8999,-146.184,1284
1569847988,372.256,108.496,-2.56729,176.726,4.8999,-146.184,1284
1569847988,372.256,108.496,-2.56729,176.726,4.8999,-146.184,1284
1569847988,372.145,108.496,-2.56729,176.726,4.8999,-146.184,1284
1569847988,372.145,108.496,-2.56729,176.726,4.8999,-146.184,1284
1569847988,372.145,108.496,-2.56729,176.726,4.87793,-146.184,1284
1569847988,372.145,108.496,-2.56729,176.726,4.87793,-146.184,1284
1569847988,372.145,108.496,-2.56729,176.726,4.87793,-146.184,1284
1569847988,372.145,108.496,-2.56729,176.726,4.87793,-146.184,1284
1569847988,372.145,108.384,-2.56729,176.726,4.87793,-146.184,1284
1569847988,372.145,108.384,-2.56729,176.726,4.87793,-146.184,1284
1569847988,372.145,108.384,-2.56729,176.726,4.87793,-146.184,1284
1569847988,372.145,108.384,-2.56729,176.704,4.87793,-146.184,1284
1569847988,372.145,108.384,-2.56729,176.704,4.87793,-146.206,1284
1569847988,372.145,108.384,-2.56729,176.704,4.87793,-146.206,1284
1569847988,372.145,108.384,-2.56729,176.704,4.87793,-146.206,1284
1569847988,372.145,108.384,-2.56729,176.704,4.87793,-146.206,1284
1569847988,372.145,108.384,-2.56729,176.704,4.87793,-146.206,1284
1569847988,372.145,108.384,-2.56729,176.704,4.87793,-146.206,1284
1569847988,372.145,108.384,-2.56729,176.704,4.87793,-146.206,1284
1569847988,372.256,108.384,-2.56729,176.704,4.87793,-146.206,1284
1569847988,372.256,108.384,-2.56729,176.704,4.87793,-146.206,1284
1569847988,372.256,108.384,-2.56729,176.704,4.87793,-146.206,1284
1569847988,372.256,108.384,-2.56729,176.704,4.87793,-146.206,1284
1569847988,372.256,108.384,-2.56729,176.704,4.87793,-146.206,1284
1569847988,372.256,108.384,-2.56729,176.704,4.87793,-146.206,1284
1569847988,372.256,108.384,-2.56729,176.704,4.87793,-146.206,1284
1569847988,372.256,108.384,-2.56729,176.682,4.87793,-146.206,1288
1569847988,372.256,108.384,-2.56729,176.682,4.87793,-146.206,1288
1569847988,372.256,108.384,-2.56729,176.682,4.87793,-146.206,1288
1569847988,372.256,108.384,-2.56729,176.704,4.87793,-146.206,1288
1569847988,372.256,108.384,-2.56729,176.704,4.87793,-146.206,1288
1569847988,372.256,108.384,-2.56729,176.704,4.87793,-146.206,1288
1569847988,372.256,108.384,-2.56729,176.704,4.87793,-146.206,1288
1569847988,372.256,108.384,-2.56729,176.704,4.87793,-146.206,1288
1569847988,372.256,108.384,-2.56729,176.704,4.87793,-146.206,1288
1569847988,372.256,108.384,-2.56729,176.704,4.87793,-146.206,1288
1569847988,372.256,108.384,-2.56729,176.704,4.87793,-146.206,1288
1569847988,372.256,108.384,-2.56729,176.704,4.87793,-146.206,1288
1569847988,372.256,108.384,-2.56729,176.704,4.87793,-146.206,1288
1569847988,372.145,108.384,-2.56729,176.704,4.87793,-146.206,1288
1569847988,372.145,108.384,-2.56729,176.704,4.87793,-146.206,1288
1569847988,372.145,108.384,-2.56729,176.704,4.87793,-146.206,1288
1569847988,372.145,108.384,-2.56729,176.704,4.87793,-146.206,1288
1569847988,372.145,108.384,-2.56729,176.704,4.87793,-146.206,1288
1569847988,372.145,108.384,-2.56729,176.704,4.87793,-146.206,1292
1569847988,372.145,108.384,-2.56729,176.704,4.87793,-146.206,1292
1569847988,372.145,108.384,-2.56729,176.704,4.87793,-146.206,1292
1569847988,372.256,108.384,-2.56729,176.704,4.87793,-146.206,1292
1569847988,372.256,108.384,-2.56729,176.704,4.87793,-146.206,1292
1569847988,372.256,108.384,-2.56729,176.704,4.87793,-146.206,1292
1569847988,372.256,108.384,-2.56729,176.704,4.87793,-146.206,1292
1569847988,372.256,108.384,-2.56729,176.704,4.87793,-146.206,1296
1569847988,372.256,108.384,-2.56729,176.704,4.87793,-146.206,1296
1569847988,372.256,108.384,-2.56729,176.704,4.87793,-146.206,1296
1569847988,372.256,108.384,-2.56729,176.682,4.87793,-146.206,1296
1569847988,372.256,108.384,-2.56729,176.682,4.87793,-146.206,1296
1569847988,372.256,108.384,-2.56729,176.682,4.87793,-146.206,1296
1569847988,372.256,108.384,-2.56729,176.682,4.87793,-146.206,1296
1569847988,372.256,108.384,-2.56729,176.682,4.87793,-146.206,1296
1569847988,372.256,108.384,-2.56729,176.682,4.87793,-146.206,1296
1569847988,372.256,108.384,-2.56729,176.682,4.87793,-146.206,1296
1569847988,372.256,108.384,-2.56729,176.682,4.87793,-146.206,1296
1569847988,372.256,108.384,-2.56729,176.682,4.87793,-146.206,1296
1569847988,372.256,108.384,-2.56729,176.682,4.87793,-146.206,1300
1569847988,372.256,108.384,-2.56729,176.682,4.87793,-146.206,1300
1569847988,372.256,108.384,-2.56729,176.682,4.87793,-146.206,1300
1569847988,372.256,108.384,-2.56729,176.682,4.87793,-146.206,1304
1569847988,372.256,108.384,-2.56729,176.682,4.87793,-146.206,1304
1569847988,372.256,108.384,-2.56729,176.704,4.87793,-146.206,1304
1569847989,372.256,108.384,-2.56729,176.704,4.87793,-146.206,1304
1569847989,372.256,108.384,-2.56729,176.704,4.87793,-146.206,1304
1569847989,372.256,108.384,-2.56729,176.704,4.8999,-146.206,1304
1569847989,372.256,108.384,-2.56729,176.704,4.8999,-146.206,1304
1569847989,372.256,108.384,-2.56729,176.704,4.8999,-146.206,1304
1569847989,372.256,108.384,-2.45566,176.704,4.8999,-146.206,1304
1569847989,372.256,108.384,-2.45566,176.704,4.8999,-146.206,1304
1569847989,372.256,108.384,-2.45566,176.704,4.8999,-146.206,1304
1569847989,372.256,108.384,-2.45566,176.704,4.8999,-146.206,1304
1569847989,372.256,108.384,-2.45566,176.704,4.8999,-146.206,1304
1569847989,372.256,108.384,-2.45566,176.704,4.8999,-146.206,1304
1569847989,372.256,108.384,-2.45566,176.704,4.8999,-146.206,1304
1569847989,372.256,108.384,-2.45566,176.704,4.8999,-146.206,1304
1569847989,372.256,108.384,-2.45566,176.704,4.8999,-146.206,1304
1569847989,372.256,108.384,-2.45566,176.704,4.8999,-146.206,1304
1569847989,372.256,108.384,-2.45566,176.704,4.8999,-146.206,1304
1569847989,372.256,108.384,-2.45566,176.704,4.8999,-146.206,1304
1569847989,372.256,108.496,-2.45566,176.704,4.8999,-146.206,1304
1569847989,372.256,108.496,-2.45566,176.704,4.8999,-146.206,1304
1569847989,372.256,108.496,-2.45566,176.704,4.8999,-146.206,1304
1569847989,372.256,108.496,-2.45566,176.704,4.8999,-146.206,1304
1569847989,372.256,108.496,-2.45566,176.704,4.8999,-146.206,1304
1569847989,372.256,108.496,-2.45566,176.704,4.8999,-146.206,1304
1569847989,372.256,108.496,-2.45566,176.704,4.8999,-146.206,1304
1569847989,372.256,108.496,-2.45566,176.704,4.8999,-146.206,1304
1569847989,372.256,108.496,-2.45566,176.704,4.92188,-146.206,1304
1569847989,372.256,108.496,-2.45566,176.704,4.92188,-146.206,1304
1569847989,372.256,108.496,-2.45566,176.704,4.92188,-146.206,1304
1569847989,372.256,108.496,-2.45566,176.704,4.8999,-146.206,1304
1569847989,372.256,108.496,-2.45566,176.704,4.8999,-146.206,1304
1569847989,372.256,108.496,-2.45566,176.704,4.8999,-146.206,1304
1569847989,372.256,108.496,-2.45566,176.704,4.92188,-146.206,1304
1569847989,372.256,108.384,-2.45566,176.704,4.92188,-146.206,1304
1569847989,372.256,108.384,-2.45566,176.704,4.92188,-146.206,1300
1569847989,372.256,108.384,-2.45566,176.704,4.92188,-146.206,1300
1569847989,372.256,108.384,-2.45566,176.704,4.92188,-146.206,1300
1569847989,372.256,108.384,-2.45566,176.704,4.92188,-146.206,1300
1569847989,372.256,108.384,-2.45566,176.704,4.92188,-146.206,1300
1569847989,372.256,108.384,-2.45566,176.704,4.8999,-146.206,1300
1569847989,372.256,108.384,-2.45566,176.704,4.8999,-146.206,1300
1569847989,372.256,108.384,-2.45566,176.704,4.8999,-146.206,1300
1569847989,372.256,108.384,-2.45566,176.704,4.8999,-146.206,1300
1569847989,372.256,108.384,-2.45566,176.704,4.8999,-146.206,1300
1569847989,372.256,108.384,-2.45566,176.704,4.8999,-146.206,1296
1569847989,372.256,108.384,-2.45566,176.704,4.8999,-146.206,1296
1569847989,372.256,108.384,-2.45566,176.704,4.8999,-146.206,1296
1569847989,372.256,108.384,-2.56729,176.704,4.8999,-146.206,1296
1569847989,372.256,108.384,-2.56729,176.704,4.8999,-146.206,1296
1569847989,372.256,108.384,-2.56729,176.704,4.8999,-146.206,1292
1569847989,372.256,108.384,-2.56729,176.704,4.8999,-146.206,1292
1569847989,372.256,108.384,-2.56729,176.704,4.8999,-146.206,1292
1569847989,372.256,108.384,-2.56729,176.682,4.8999,-146.206,1292
1569847989,372.256,108.384,-2.56729,176.682,4.8999,-146.206,1288
1569847989,372.256,108.384,-2.56729,176.682,4.8999,-146.206,1288
1569847989,372.256,108.384,-2.56729,176.682,4.8999,-146.206,1288
1569847989,372.256,108.384,-2.56729,176.682,4.8999,-146.206,1288
1569847989,372.256,108.384,-2.56729,176.682,4.8999,-146.206,1288
1569847989,372.256,108.384,-2.56729,176.682,4.8999,-146.206,1284
1569847989,372.256,108.384,-2.56729,176.682,4.8999,-146.206,1284
1569847989,372.256,108.384,-2.56729,176.682,4.8999,-146.206,1284
1569847989,372.256,108.384,-2.56729,176.682,4.8999,-146.206,1284
1569847989,372.256,108.384,-2.56729,176.682,4.8999,-146.206,1284
1569847989,372.256,108.384,-2.56729,176.682,4.8999,-146.206,1280
1569847989,372.256,108.384,-2.56729,176.682,4.8999,-146.206,1280
1569847989,372.256,108.384,-2.56729,176.682,4.87793,-146.184,1280
1569847989,372.256,108.384,-2.56729,176.682,4.87793,-146.184,1280
1569847989,372.256,108.384,-2.56729,176.682,4.87793,-146.184,1280
1569847989,372.256,108.384,-2.56729,176.682,4.87793,-146.184,1280
1569847989,372.256,108.384,-2.56729,176.682,4.87793,-146.184,1276
1569847989,372.256,108.384,-2.56729,176.704,4.87793,-146.184,1276
1569847989,372.256,108.384,-2.56729,176.704,4.87793,-146.184,1276
1569847989,372.256,108.384,-2.56729,176.704,4.87793,-146.184,1276
1569847989,372.256,108.384,-2.56729,176.704,4.87793,-146.184,1276
1569847989,372.256,108.384,-2.56729,176.704,4.87793,-146.184,1276
1569847989,372.256,108.384,-2.56729,176.704,4.87793,-146.184,1276
1569847989,372.256,108.384,-2.56729,176.704,4.87793,-146.184,1276
1569847989,372.256,108.384,-2.56729,176.704,4.87793,-146.184,1276
1569847989,372.256,108.384,-2.56729,176.704,4.8999,-146.184,1276
1569847989,372.256,108.384,-2.56729,176.704,4.8999,-146.184,1276
1569847989,372.256,108.384,-2.56729,176.704,4.8999,-146.184,1280
1569847989,372.256,108.384,-2.56729,176.704,4.8999,-146.184,1280
1569847989,372.256,108.384,-2.56729,176.704,4.8999,-146.184,1280
1569847989,372.256,108.496,-2.56729,176.726,4.8999,-146.184,1280
1569847989,372.256,108.496,-2.56729,176.726,4.8999,-146.184,1280
1569847989,372.256,108.496,-2.56729,176.726,4.8999,-146.184,1280
1569847989,372.256,108.496,-2.56729,176.726,4.8999,-146.184,1284
1569847989,372.256,108.496,-2.56729,176.726,4.8999,-146.184,1284
1569847989,372.256,108.496,-2.56729,176.726,4.8999,-146.184,1284
1569847989,372.256,108.496,-2.56729,176.726,4.8999,-146.184,1284
1569847989,372.145,108.496,-2.56729,176.726,4.8999,-146.184,1284
1569847989,372.145,108.496,-2.56729,176.726,4.8999,-146.184,1288
1569847989,372.145,108.496,-2.56729,176.726,4.8999,-146.184,1288
1569847989,372.145,108.496,-2.56729,176.726,4.8999,-146.184,1288
1569847989,372.145,108.496,-2.56729,176.726,4.8999,-146.184,1288
1569847989,372.145,108.496,-2.56729,176.726,4.8999,-146.184,1288
1569847989,372.145,108.496,-2.56729,176.726,4.8999,-146.184,1292
1569847989,372.256,108.496,-2.56729,176.726,4.8999,-146.184,1292
1569847989,372.256,108.496,-2.56729,176.726,4.8999,-146.184,1292
1569847989,372.256,108.496,-2.56729,176.726,4.8999,-146.184,1292
1569847989,372.256,108.496,-2.56729,176.726,4.8999,-146.184,1292
1569847989,372.256,108.496,-2.56729,176.726,4.87793,-146.184,1292
1569847990,372.256,108.496,-2.56729,176.726,4.87793,-146.184,1292
1569847990,372.256,108.496,-2.56729,176.726,4.87793,-146.184,1296
1569847990,372.256,108.496,-2.56729,176.726,4.87793,-146.184,1296
1569847990,372.256,108.496,-2.56729,176.726,4.87793,-146.184,1296
1569847990,372.256,108.496,-2.56729,176.726,4.87793,-146.184,1296
1569847990,372.256,108.496,-2.56729,176.726,4.87793,-146.184,1296
1569847990,372.256,108.496,-2.56729,176.726,4.87793,-146.184,1296
1569847990,372.256,108.496,-2.56729,176.726,4.87793,-146.206,1300
1569847990,372.256,108.496,-2.56729,176.726,4.87793,-146.206,1300
1569847990,372.256,108.496,-2.56729,176.726,4.87793,-146.206,1300
1569847990,372.256,108.496,-2.56729,176.726,4.87793,-146.206,1300
1569847990,372.256,108.496,-2.56729,176.726,4.87793,-146.206,1300
1569847990,372.256,108.496,-2.56729,176.726,4.87793,-146.206,1300
1569847990,372.256,108.496,-2.56729,176.726,4.87793,-146.206,1300
1569847990,372.256,108.496,-2.56729,176.704,4.87793,-146.206,1300
1569847990,372.256,108.496,-2.56729,176.704,4.87793,-146.206,1304
1569847990,372.256,108.496,-2.56729,176.704,4.87793,-146.206,1304
1569847990,372.256,108.496,-2.56729,176.704,4.87793,-146.206,1304
1569847990,372.256,108.496,-2.56729,176.704,4.87793,-146.206,1304
1569847990,372.256,108.496,-2.56729,176.704,4.87793,-146.206,1304
1569847994,411.212,68.5354,-2.90215,177.275,4.6582,-145.547,1620
1569847994,411.212,68.5354,-2.90215,177.275,4.6582,-145.547,1620
1569847994,411.212,68.5354,-2.90215,177.275,4.6582,-145.547,1620
1569847994,411.212,68.5354,-2.90215,177.275,4.6582,-145.547,1620
1569847994,411.212,68.5354,-2.90215,177.275,4.6582,-145.547,1620
1569847994,411.212,68.5354,-2.90215,177.275,4.6582,-145.547,1620
1569847994,411.324,68.5354,-2.90215,177.275,4.6582,-145.547,1620
1569847994,411.324,68.5354,-2.90215,177.275,4.6582,-145.547,1620
1569847994,411.324,68.5354,-2.90215,177.275,4.6582,-145.547,1620
1569847994,411.324,68.5354,-2.90215,177.275,4.68018,-145.547,1620
1569847994,411.324,68.5354,-2.90215,177.275,4.68018,-145.547,1620
1569847994,411.324,68.5354,-2.90215,177.275,4.68018,-145.547,1620
1569847994,411.324,68.5354,-2.90215,177.275,4.68018,-145.547,1620
1569847994,411.324,68.5354,-2.90215,177.275,4.68018,-145.547,1620
1569847994,411.324,68.5354,-2.90215,177.275,4.68018,-145.547,1620
1569847994,411.324,68.5354,-2.90215,177.275,4.68018,-145.547,1624
1569847994,411.324,68.5354,-2.90215,177.275,4.68018,-145.547,1624
1569847994,411.324,68.647,-2.90215,177.275,4.68018,-145.547,1624
1569847994,411.324,68.647,-2.90215,177.275,4.68018,-145.547,1624
1569847994,411.435,68.647,-2.90215,177.275,4.68018,-145.547,1624
1569847994,411.435,68.647,-2.90215,177.275,4.68018,-145.547,1624
1569847994,411.435,68.647,-2.90215,177.275,4.6582,-145.525,1624
1569847994,411.435,68.647,-2.90215,177.275,4.6582,-145.525,1624
1569847994,411.435,68.5354,-2.90215,177.275,4.6582,-145.525,1624
1569847994,411.435,68.5354,-2.90215,177.275,4.6582,-145.525,1624
1569847994,411.435,68.5354,-2.90215,177.275,4.6582,-145.525,1624
1569847994,411.435,68.5354,-2.90215,177.253,4.6582,-145.525,1624
1569847994,411.435,68.5354,-2.90215,177.253,4.6582,-145.525,1624
1569847994,411.324,68.5354,-2.90215,177.253,4.6582,-145.525,1624
1569847994,411.324,68.5354,-2.90215,177.253,4.63623,-145.525,1624
1569847994,411.324,68.5354,-2.90215,177.253,4.63623,-145.525,1620
1569847994,411.324,68.5354,-3.01377,177.253,4.63623,-145.525,1620
1569847994,411.324,68.5354,-3.01377,177.253,4.63623,-145.525,1620
1569847994,411.324,68.5354,-3.01377,177.275,4.63623,-145.525,1616
1569847994,411.324,68.5354,-3.01377,177.275,4.63623,-145.525,1616
1569847994,411.212,68.5354,-3.01377,177.275,4.63623,-145.525,1616
1569847994,411.212,68.5354,-3.01377,177.275,4.63623,-145.525,1616
1569847994,411.212,68.5354,-3.01377,177.275,4.63623,-145.525,1612
1569847994,411.212,68.5354,-3.01377,177.275,4.63623,-145.525,1612
1569847994,411.212,68.5354,-3.01377,177.275,4.63623,-145.525,1612
1569847994,411.212,68.5354,-3.01377,177.275,4.63623,-145.525,1608
1569847994,411.212,68.5354,-3.01377,177.275,4.63623,-145.525,1608
1569847994,411.212,68.5354,-3.01377,177.275,4.63623,-145.525,1608
1569847994,411.212,68.5354,-3.01377,177.275,4.63623,-145.525,1608
1569847994,411.212,68.5354,-3.01377,177.275,4.63623,-145.525,1604
1569847994,411.212,68.5354,-3.01377,177.275,4.63623,-145.525,1604
1569847994,411.212,68.5354,-3.01377,177.275,4.63623,-145.525,1604
1569847994,411.212,68.5354,-3.01377,177.275,4.63623,-145.525,1604
1569847994,411.212,68.5354,-3.01377,177.275,4.63623,-145.525,1604
1569847994,411.324,68.5354,-3.01377,177.275,4.63623,-145.525,1604
1569847994,411.324,68.5354,-3.01377,177.275,4.6582,-145.525,1604
1569847994,411.324,68.5354,-3.01377,177.275,4.6582,-145.525,1604
1569847994,411.324,68.5354,-3.01377,177.275,4.6582,-145.525,1608
1569847994,411.324,68.647,-3.01377,177.297,4.6582,-145.525,1608
1569847994,411.324,68.647,-3.01377,177.297,4.6582,-145.525,1608
1569847994,411.324,68.647,-3.01377,177.297,4.6582,-145.525,1608
1569847994,411.324,68.647,-2.90215,177.297,4.6582,-145.547,1612
1569847994,411.324,68.647,-2.90215,177.297,4.6582,-145.547,1612
1569847994,411.212,68.647,-2.90215,177.297,4.6582,-145.547,1612
1569847994,411.212,68.647,-2.90215,177.297,4.6582,-145.547,1612
1569847994,411.212,68.647,-2.90215,177.297,4.6582,-145.547,1612
1569847994,411.212,68.647,-2.90215,177.297,4.6582,-145.547,1616
1569847994,411.212,68.647,-2.90215,177.297,4.6582,-145.547,1616
1569847994,411.212,68.5354,-2.90215,177.297,4.6582,-145.547,1612
1569847994,411.212,68.5354,-2.90215,177.275,4.6582,-145.547,1612
1569847994,411.212,68.5354,-2.90215,177.275,4.6582,-145.547,1612
1569847994,411.212,68.5354,-2.90215,177.275,4.6582,-145.547,1612
1569847995,411.212,68.5354,-2.90215,177.275,4.6582,-145.547,1612
1569847995,411.212,68.5354,-2.90215,177.253,4.6582,-145.547,1612
1569847995,411.212,68.5354,-2.90215,177.253,4.6582,-145.547,1612
1569847995,411.212,68.5354,-2.90215,177.253,4.6582,-145.547,1612
1569847995,411.212,68.5354,-2.90215,177.253,4.6582,-145.547,1612
1569847995,411.212,68.5354,-2.90215,177.253,4.6582,-145.547,1612
1569847995,411.212,68.5354,-3.01377,177.253,4.6582,-145.547,1612
1569847995,411.212,68.5354,-3.01377,177.253,4.6582,-145.547,1612
1569847995,411.212,68.5354,-3.01377,177.275,4.6582,-145.547,1612
1569847995,411.212,68.5354,-3.01377,177.275,4.6582,-145.547,1612
1569847995,411.212,68.5354,-3.01377,177.275,4.6582,-145.547,1612
1569847995,411.212,68.5354,-3.01377,177.275,4.6582,-145.547,1612
1569847995,411.212,68.5354,-3.01377,177.275,4.6582,-145.547,1612
1569847995,411.212,68.5354,-3.01377,177.275,4.6582,-145.547,1612
1569847995,411.212,68.5354,-3.01377,177.275,4.6582,-145.547,1612
1569847995,411.1,68.5354,-3.01377,177.253,4.6582,-145.547,1612
1569847995,411.1,68.5354,-3.01377,177.253,4.6582,-145.547,1612
1569847995,411.1,68.5354,-3.01377,177.253,4.6582,-145.547,1612
1569847995,411.1,68.5354,-3.01377,177.253,4.6582,-145.547,1608
1569847995,411.1,68.5354,-3.01377,177.253,4.6582,-145.547,1608
1569847995,411.1,68.5354,-3.01377,177.253,4.6582,-145.525,1608
1569847995,411.1,68.5354,-3.01377,177.253,4.6582,-145.525,1608
1569847995,411.1,68.5354,-3.01377,177.253,4.63623,-145.525,1608
1569847995,411.1,68.5354,-3.01377,177.275,4.63623,-145.525,1604
1569847995,411.1,68.5354,-3.01377,177.253,4.63623,-145.525,1604
1569847995,411.1,68.5354,-3.01377,177.253,4.63623,-145.525,1604
1569847995,411.212,68.5354,-3.01377,177.275,4.63623,-145.525,1604
1569847995,411.212,68.5354,-3.01377,177.275,4.63623,-145.525,1604
1569847995,411.212,68.5354,-3.01377,177.275,4.63623,-145.525,1604
1569847995,411.212,68.5354,-3.12539,177.275,4.63623,-145.525,1604
1569847995,411.212,68.5354,-3.12539,177.275,4.63623,-145.525,1604
1569847995,411.212,68.5354,-3.01377,177.253,4.63623,-145.525,1608
1569847995,411.212,68.5354,-3.01377,177.253,4.63623,-145.525,1608
1569847995,411.212,68.5354,-3.01377,177.253,4.63623,-145.525,1608
1569847995,411.212,68.5354,-3.01377,177.275,4.63623,-145.525,1608
1569847995,411.212,68.5354,-3.01377,177.275,4.63623,-145.525,1608
1569847995,411.212,68.5354,-3.01377,177.275,4.63623,-145.525,1608
1569847995,411.212,68.5354,-3.01377,177.275,4.63623,-145.525,1608
1569847995,411.212,68.5354,-3.01377,177.275,4.63623,-145.525,1608
1569847995,411.212,68.5354,-3.01377,177.275,4.63623,-145.525,1608
1569847995,411.324,68.5354,-3.01377,177.275,4.63623,-145.525,1608
1569847995,411.324,68.5354,-3.01377,177.275,4.6582,-145.525,1608
1569847995,411.324,68.5354,-3.01377,177.275,4.6582,-145.525,1608
1569847995,411.324,68.5354,-3.01377,177.275,4.6582,-145.525,1608
1569847995,411.324,68.5354,-3.01377,177.275,4.6582,-145.525,1608
1569847995,411.324,68.5354,-3.01377,177.275,4.6582,-145.525,1612
1569847995,411.324,68.5354,-3.01377,177.275,4.6582,-145.525,1612
1569847995,411.324,68.5354,-3.01377,177.275,4.6582,-145.525,1612
1569847995,411.324,68.647,-3.01377,177.275,4.6582,-145.525,1612
1569847995,411.324,68.647,-3.01377,177.275,4.6582,-145.525,1612
1569847995,411.212,68.647,-3.01377,177.275,4.6582,-145.525,1612
1569847995,411.212,68.647,-3.01377,177.275,4.6582,-145.525,1612
1569847995,411.212,68.647,-2.90215,177.275,4.6582,-145.525,1612
1569847995,411.212,68.647,-2.90215,177.275,4.6582,-145.525,1612
1569847995,411.212,68.647,-2.90215,177.275,4.68018,-145.525,1612
1569847995,411.212,68.647,-2.90215,177.275,4.68018,-145.525,1612
1569847995,411.212,68.647,-2.90215,177.297,4.68018,-145.525,1612
1569847995,411.212,68.647,-2.90215,177.297,4.68018,-145.525,1612
1569847995,411.212,68.647,-2.90215,177.297,4.68018,-145.525,1612
1569847995,411.212,68.647,-2.90215,177.297,4.68018,-145.525,1612
1569847995,411.212,68.647,-2.90215,177.297,4.68018,-145.525,1612
1569847995,411.212,68.647,-2.90215,177.297,4.68018,-145.525,1616
1569847995,411.212,68.647,-2.90215,177.297,4.68018,-145.525,1616
1569847995,411.212,68.647,-2.90215,177.297,4.68018,-145.525,1616
1569847995,411.212,68.647,-2.90215,177.297,4.68018,-145.503,1616
1569847995,411.212,68.647,-2.90215,177.297,4.68018,-145.503,1620
1569847995,411.212,68.647,-2.90215,177.297,4.68018,-145.503,1620
1569847995,411.212,68.647,-2.90215,177.297,4.68018,-145.503,1620
1569847995,411.324,68.647,-2.90215,177.297,4.68018,-145.503,1620
1569847995,411.324,68.647,-2.90215,177.297,4.68018,-145.503,1624
1569847995,411.324,68.647,-2.90215,177.297,4.68018,-145.503,1624
1569847995,411.324,68.647,-2.90215,177.297,4.68018,-145.503,1624
1569847995,411.324,68.647,-2.90215,177.297,4.68018,-145.503,1624
1569847995,411.324,68.647,-2.90215,177.297,4.68018,-145.503,1624
1569847995,411.324,68.647,-2.90215,177.297,4.68018,-145.503,1624
1569847995,411.324,68.647,-2.90215,177.297,4.68018,-145.503,1624
1569847995,411.324,68.647,-2.90215,177.297,4.68018,-145.503,1628
1569847995,411.324,68.647,-2.90215,177.297,4.68018,-145.503,1628
1569847995,411.324,68.647,-2.90215,177.297,4.68018,-145.503,1628
1569847995,411.324,68.647,-2.90215,177.297,4.68018,-145.503,1628
1569847995,411.324,68.647,-2.90215,177.297,4.68018,-145.503,1628
1569847995,411.324,68.647,-2.90215,177.297,4.6582,-145.503,1624
1569847995,411.324,68.647,-2.90215,177.297,4.6582,-145.503,1624
1569847995,411.324,68.647,-3.01377,177.297,4.6582,-145.503,1624
1569847995,411.324,68.647,-3.01377,177.297,4.6582,-145.503,1624
1569847995,411.324,68.647,-3.01377,177.297,4.6582,-145.503,1624
1569847995,411.324,68.647,-3.01377,177.297,4.6582,-145.503,1624
1569847995,411.324,68.647,-3.01377,177.297,4.6582,-145.503,1624
1569847995,411.324,68.647,-3.01377,177.297,4.6582,-145.503,1624
1569847995,411.324,68.647,-3.01377,177.297,4.6582,-145.503,1624
1569847995,411.324,68.647,-3.01377,177.297,4.6582,-145.503,1624
1569847995,411.324,68.647,-3.01377,177.275,4.6582,-145.503,1624
1569847995,411.324,68.647,-3.01377,177.275,4.6582,-145.503,1624
1569847995,411.324,68.647,-3.01377,177.275,4.6582,-145.525,1624
1569847995,411.324,68.647,-3.01377,177.275,4.6582,-145.525,1624
1569847995,411.324,68.647,-3.01377,177.275,4.6582,-145.525,1624
1569847995,411.324,68.647,-2.90215,177.275,4.6582,-145.525,1624
1569847995,411.324,68.647,-2.90215,177.275,4.6582,-145.525,1624
1569847995,411.324,68.647,-2.90215,177.275,4.6582,-145.525,1624
1569847995,411.324,68.647,-2.90215,177.275,4.6582,-145.525,1620
1569847996,411.324,68.5354,-2.90215,177.275,4.68018,-145.503,1620
1569847996,411.324,68.5354,-2.90215,177.275,4.68018,-145.503,1620
1569847996,411.324,68.5354,-2.90215,177.275,4.68018,-145.503,1620
1569847996,411.324,68.5354,-2.90215,177.275,4.68018,-145.503,1620
1569847996,411.324,68.5354,-2.90215,177.275,4.68018,-145.503,1620
1569847996,411.324,68.5354,-2.90215,177.275,4.68018,-145.503,1620
1569847996,411.435,68.5354,-2.90215,177.253,4.68018,-145.503,1620
1569847996,411.435,68.5354,-2.90215,177.253,4.68018,-145.503,1620
1569847996,411.435,68.5354,-2.90215,177.253,4.68018,-145.503,1620
1569847996,411.435,68.5354,-2.90215,177.253,4.68018,-145.503,1624
1569847996,411.435,68.5354,-2.90215,177.253,4.68018,-145.503,1624
1569847996,411.435,68.5354,-2.90215,177.253,4.68018,-145.503,1624
1569847996,411.435,68.5354,-2.90215,177.253,4.68018,-145.503,1624
1569847996,411.435,68.5354,-2.90215,177.253,4.68018,-145.503,1624
1569847996,411.435,68.5354,-2.90215,177.253,4.68018,-145.503,1624
1569847996,411.435,68.5354,-2.90215,177.253,4.68018,-145.503,1624
1569847996,411.435,68.5354,-2.90215,177.253,4.68018,-145.503,1628
1569847996,411.435,68.5354,-2.90215,177.275,4.68018,-145.503,1628
1569847996,411.435,68.5354,-2.90215,177.275,4.68018,-145.503,1628
1569847996,411.435,68.5354,-2.90215,177.275,4.68018,-145.503,1628
1569847996,411.435,68.5354,-2.90215,177.275,4.68018,-145.503,1628
1569847996,411.435,68.647,-2.90215,177.275,4.68018,-145.481,1628
1569847996,411.435,68.647,-2.90215,177.275,4.68018,-145.481,1628
1569847996,411.435,68.647,-2.90215,177.297,4.68018,-145.481,1628
1569847996,411.435,68.647,-2.90215,177.297,4.68018,-145.481,1628
1569847996,411.435,68.647,-2.90215,177.297,4.68018,-145.503,1628
1569847996,411.435,68.647,-2.90215,177.297,4.68018,-145.503,1624
1569847996,411.435,68.647,-2.90215,177.297,4.68018,-145.503,1624
1569847996,411.324,68.647,-2.90215,177.319,4.6582,-145.503,1624
1569847996,411.324,68.647,-2.90215,177.319,4.6582,-145.503,1624
1569847996,411.324,68.7586,-2.90215,177.319,4.6582,-145.503,1624
1569847996,411.324,68.7586,-2.90215,177.319,4.6582,-145.503,1620
1569847996,411.324,68.7586,-2.90215,177.319,4.6582,-145.503,1620
1569847996,411.324,68.7586,-3.01377,177.319,4.6582,-145.503,1620
1569847996,411.324,68.7586,-3.01377,177.319,4.6582,-145.503,1616
1569847996,411.324,68.7586,-3.01377,177.319,4.6582,-145.503,1616
1569847996,411.324,68.7586,-3.01377,177.319,4.6582,-145.503,1616
1569847996,411.324,68.7586,-3.01377,177.319,4.6582,-145.503,1612
1569847996,411.324,68.7586,-3.01377,177.319,4.6582,-145.503,1612
1569847996,411.324,68.7586,-3.01377,177.319,4.6582,-145.503,1612
1569847996,411.324,68.7586,-3.01377,177.319,4.6582,-145.503,1608
1569847996,411.324,68.7586,-3.01377,177.319,4.6582,-145.503,1608
1569847996,411.324,68.7586,-3.01377,177.319,4.6582,-145.503,1608
1569847996,411.324,68.7586,-3.01377,177.319,4.6582,-145.481,1608
1569847996,411.324,68.647,-3.01377,177.319,4.6582,-145.481,1608
1569847996,411.324,68.647,-3.01377,177.319,4.6582,-145.481,1608
1569847996,411.324,68.647,-3.01377,177.319,4.6582,-145.481,1608
1569847996,411.324,68.647,-3.01377,177.319,4.6582,-145.481,1608
1569847996,411.324,68.647,-3.01377,177.319,4.6582,-145.481,1608
1569847996,411.324,68.647,-3.01377,177.319,4.6582,-145.481,1608
1569847996,411.324,68.647,-3.01377,177.319,4.6582,-145.481,1608
1569847996,411.324,68.647,-3.01377,177.297,4.6582,-145.481,1608
1569847996,411.324,68.647,-3.01377,177.297,4.6582,-145.481,1612
1569847996,411.324,68.647,-3.01377,177.297,4.6582,-145.481,1612
1569847996,411.324,68.647,-3.01377,177.297,4.63623,-145.481,1612
1569847996,411.324,68.647,-3.01377,177.297,4.63623,-145.481,1612
1569847996,411.324,68.647,-3.01377,177.297,4.63623,-145.481,1612
1569847996,411.324,68.647,-3.01377,177.297,4.63623,-145.481,1616
1569847996,411.324,68.647,-3.01377,177.297,4.63623,-145.481,1616
1569847996,411.324,68.647,-3.01377,177.297,4.63623,-145.481,1616
1569847996,411.324,68.647,-3.01377,177.297,4.63623,-145.503,1616
1569847996,411.324,68.647,-3.01377,177.297,4.63623,-145.503,1616
1569847996,411.324,68.647,-3.01377,177.297,4.63623,-145.503,1620
1569847996,411.324,68.647,-3.01377,177.297,4.63623,-145.503,1620
1569847996,411.324,68.647,-3.01377,177.297,4.63623,-145.503,1620
1569847996,411.324,68.647,-3.01377,177.297,4.63623,-145.503,1620
1569847996,411.324,68.647,-3.01377,177.297,4.63623,-145.503,1624
1569847996,411.324,68.647,-3.01377,177.297,4.63623,-145.481,1624
1569847996,411.324,68.647,-3.01377,177.297,4.63623,-145.481,1624
1569847996,411.324,68.647,-3.01377,177.297,4.63623,-145.481,1624
1569847996,411.324,68.647,-3.01377,177.297,4.63623,-145.481,1624
1569847996,411.324,68.647,-3.01377,177.297,4.63623,-145.481,1624
1569847996,411.324,68.647,-3.01377,177.297,4.63623,-145.481,1624
1569847996,411.324,68.647,-3.01377,177.297,4.63623,-145.481,1624
1569847996,411.324,68.647,-3.01377,177.297,4.63623,-145.481,1624
1569847996,411.324,68.647,-3.01377,177.297,4.63623,-145.481,1624
1569847996,411.324,68.647,-3.01377,177.297,4.6582,-145.481,1620
1569847996,411.324,68.647,-3.01377,177.297,4.6582,-145.481,1620
1569847996,411.324,68.647,-2.90215,177.297,4.6582,-145.481,1620
1569847996,411.324,68.647,-2.90215,177.297,4.6582,-145.481,1620
1569847996,411.324,68.647,-3.01377,177.297,4.6582,-145.481,1620
1569847996,411.324,68.647,-3.01377,177.297,4.6582,-145.481,1620
1569847996,411.324,68.647,-3.01377,177.297,4.6582,-145.481,1620
1569847996,411.324,68.647,-3.01377,177.297,4.6582,-145.481,1620
1569847996,411.324,68.647,-3.01377,177.297,4.6582,-145.481,1620
1569847996,411.324,68.647,-2.90215,177.297,4.6582,-145.481,1616
1569847996,411.324,68.647,-2.90215,177.297,4.6582,-145.481,1616
1569847996,411.324,68.647,-2.90215,177.297,4.6582,-145.503,1616
1569847996,411.324,68.647,-2.90215,177.297,4.6582,-145.503,1616
1569847996,411.324,68.647,-2.90215,177.297,4.6582,-145.503,1616
1569847996,411.212,68.647,-2.90215,177.297,4.6582,-145.503,1616
1569847996,411.212,68.647,-2.90215,177.297,4.6582,-145.503,1616
1569847996,411.212,68.647,-2.90215,177.297,4.6582,-145.503,1616
1569847996,411.212,68.647,-2.90215,177.297,4.6582,-145.503,1612
1569847996,411.212,68.647,-2.90215,177.275,4.6582,-145.503,1612
1569847996,411.212,68.647,-2.90215,177.275,4.6582,-145.525,1612
1569847996,411.212,68.647,-2.90215,177.275,4.6582,-145.525,1612
1569847996,411.212,68.647,-2.90215,177.275,4.6582,-145.525,1612
1569847996,411.212,68.5354,-2.90215,177.275,4.6582,-145.525,1612
1569847996,411.212,68.5354,-2.90215,177.275,4.6582,-145.525,1612
1569847997,411.212,68.5354,-2.90215,177.253,4.6582,-145.525,1612
1569847997,411.212,68.5354,-2.90215,177.253,4.6582,-145.525,1612
1569847997,411.212,68.5354,-2.90215,177.253,4.6582,-145.525,1608
1569847997,411.212,68.5354,-2.90215,177.253,4.68018,-145.525,1608
1569847997,411.212,68.5354,-2.90215,177.253,4.68018,-145.525,1608
1569847997,411.212,68.5354,-2.90215,177.253,4.68018,-145.525,1608
1569847997,411.212,68.5354,-2.90215,177.253,4.68018,-145.525,1608
1569847997,411.212,68.5354,-2.90215,177.253,4.68018,-145.525,1608
1569847997,411.324,68.5354,-2.90215,177.275,4.68018,-145.525,1608
1569847997,411.324,68.5354,-2.90215,177.275,4.68018,-145.525,1608
1569847997,411.324,68.5354,-2.90215,177.275,4.6582,-145.525,1604
1569847997,411.324,68.5354,-2.90215,177.275,4.6582,-145.525,1604
1569847997,411.324,68.5354,-2.90215,177.275,4.6582,-145.525,1604
1569847997,411.324,68.5354,-3.01377,177.275,4.6582,-145.525,1604
1569847997,411.324,68.5354,-3.01377,177.275,4.6582,-145.525,1604
1569847997,411.324,68.5354,-3.01377,177.275,4.6582,-145.525,1604
1569847997,411.324,68.5354,-3.01377,177.275,4.63623,-145.525,1604
1569847997,411.324,68.5354,-3.01377,177.275,4.63623,-145.525,1604
1569847997,411.324,68.5354,-3.01377,177.253,4.63623,-145.525,1604
1569847997,411.324,68.5354,-3.01377,177.253,4.63623,-145.525,1604
1569847997,411.324,68.5354,-3.01377,177.253,4.61426,-145.525,1604
1569847997,411.324,68.5354,-3.12539,177.253,4.61426,-145.525,1604
1569847997,411.324,68.5354,-3.12539,177.253,4.61426,-145.525,1604
1569847997,411.324,68.5354,-3.12539,177.253,4.61426,-145.525,1604
1569847997,411.324,68.5354,-3.12539,177.253,4.61426,-145.525,1604
1569847997,411.324,68.5354,-3.12539,177.253,4.61426,-145.525,1604
1569847997,411.324,68.5354,-3.12539,177.253,4.61426,-145.525,1604
1569847997,411.324,68.5354,-3.12539,177.253,4.61426,-145.525,1604
1569847997,411.324,68.5354,-3.12539,177.253,4.61426,-145.525,1604
1569847997,411.324,68.5354,-3.12539,177.253,4.61426,-145.525,1604
1569847997,411.324,68.5354,-3.12539,177.253,4.61426,-145.525,1604
1569847997,411.324,68.5354,-3.12539,177.275,4.61426,-145.525,1604
1569847997,411.324,68.5354,-3.01377,177.275,4.63623,-145.525,1604
1569847997,411.324,68.5354,-3.01377,177.275,4.63623,-145.525,1608
1569847997,411.324,68.5354,-3.01377,177.275,4.63623,-145.525,1608
1569847997,411.324,68.647,-3.01377,177.275,4.63623,-145.525,1608
1569847997,411.324,68.647,-3.01377,177.275,4.63623,-145.525,1612
1569847997,411.324,68.647,-3.01377,177.275,4.63623,-145.525,1612
1569847997,411.324,68.647,-3.01377,177.275,4.63623,-145.525,1616
1569847997,411.324,68.647,-3.01377,177.275,4.63623,-145.525,1616
1569847997,411.324,68.647,-3.01377,177.275,4.63623,-145.525,1616
1569847997,411.324,68.647,-3.01377,177.275,4.63623,-145.525,1616
1569847997,411.324,68.647,-3.01377,177.275,4.63623,-145.525,1620
1569847997,411.324,68.647,-3.01377,177.275,4.63623,-145.525,1620
1569847997,411.324,68.647,-3.01377,177.297,4.63623,-145.525,1620
1569847997,411.324,68.647,-3.01377,177.297,4.63623,-145.525,1620
1569847997,411.324,68.647,-3.01377,177.297,4.63623,-145.525,1620
1569847997,411.324,68.647,-3.01377,177.297,4.6582,-145.525,1620
