time,x,y,z,ax,ay,az,q
1569940855,396.701,-185.179,-12.6132,177.891,2.65869,-144.404,556
1569940855,396.701,-185.179,-12.6132,177.891,2.65869,-144.404,556
1569940855,396.701,-185.179,-12.6132,177.891,2.65869,-144.404,556
1569940855,396.701,-185.179,-12.6132,177.891,2.65869,-144.404,556
1569940855,396.701,-185.179,-12.6132,177.891,2.63672,-144.404,556
1569940855,396.701,-185.179,-12.6132,177.891,2.63672,-144.404,556
1569940855,396.701,-185.179,-12.6132,177.913,2.63672,-144.404,556
1569940855,396.701,-185.179,-12.6132,177.913,2.63672,-144.404,556
1569940855,396.701,-185.179,-12.6132,177.913,2.63672,-144.404,556
1569940855,396.701,-185.179,-12.6132,177.913,2.63672,-144.404,556
1569940855,396.701,-185.179,-12.6132,177.913,2.63672,-144.404,556
1569940855,396.701,-185.179,-12.6132,177.913,2.63672,-144.404,556
1569940855,396.701,-185.179,-12.6132,177.913,2.63672,-144.404,556
1569940855,396.701,-185.179,-12.6132,177.913,2.63672,-144.404,556
1569940855,396.701,-185.179,-12.6132,177.913,2.63672,-144.404,556
1569940855,396.701,-185.068,-12.6132,177.935,2.63672,-144.404,552
1569940855,396.701,-185.068,-12.6132,177.935,2.63672,-144.404,552
1569940855,396.701,-185.068,-12.6132,177.935,2.63672,-144.404,552
1569940855,396.701,-185.068,-12.6132,177.935,2.63672,-144.404,552
1569940855,396.701,-185.068,-12.6132,177.935,2.63672,-144.404,552
1569940855,396.701,-185.068,-12.6132,177.935,2.63672,-144.404,552
1569940855,396.701,-185.068,-12.6132,177.935,2.63672,-144.404,552
1569940855,396.701,-185.068,-12.6132,177.935,2.63672,-144.404,552
1569940855,396.701,-185.068,-12.6132,177.935,2.63672,-144.404,552
1569940855,396.701,-185.068,-12.6132,177.935,2.63672,-144.404,552
1569940855,396.701,-185.068,-12.6132,177.935,2.63672,-144.404,552
1569940855,396.701,-185.068,-12.6132,177.935,2.63672,-144.404,552
1569940855,396.701,-185.179,-12.6132,177.935,2.63672,-144.404,552
1569940855,396.701,-185.179,-12.6132,177.935,2.63672,-144.404,552
1569940855,396.701,-185.179,-12.6132,177.935,2.63672,-144.404,552
1569940855,396.701,-185.179,-12.6132,177.935,2.63672,-144.404,552
1569940855,396.701,-185.179,-12.6132,177.935,2.63672,-144.404,552
1569940855,396.701,-185.179,-12.6132,177.935,2.61475,-144.404,552
1569940855,396.701,-185.068,-12.6132,177.935,2.61475,-144.404,552
1569940855,396.701,-185.068,-12.6132,177.935,2.61475,-144.404,552
1569940855,396.701,-185.068,-12.6132,177.935,2.63672,-144.404,552
1569940855,396.701,-185.068,-12.6132,177.935,2.63672,-144.404,552
1569940855,396.701,-185.068,-12.6132,177.935,2.63672,-144.404,552
1569940855,396.701,-185.068,-12.6132,177.935,2.63672,-144.404,552
1569940855,396.701,-185.068,-12.6132,177.935,2.63672,-144.404,552
1569940855,396.701,-185.068,-12.6132,177.935,2.63672,-144.404,552
1569940855,396.701,-185.068,-12.6132,177.935,2.65869,-144.404,552
1569940855,396.701,-185.068,-12.6132,177.913,2.65869,-144.404,556
1569940855,396.701,-185.068,-12.6132,177.913,2.65869,-144.404,556
1569940855,396.701,-185.179,-12.6132,177.913,2.65869,-144.404,556
1569940855,396.701,-185.179,-12.5016,177.913,2.65869,-144.404,556
1569940855,396.701,-185.179,-12.5016,177.913,2.65869,-144.404,556
1569940856,396.701,-185.179,-12.6132,177.913,2.65869,-144.404,556
1569940856,396.701,-185.179,-12.6132,177.913,2.65869,-144.404,556
1569940856,396.701,-185.179,-12.6132,177.913,2.65869,-144.404,556
1569940856,396.701,-185.179,-12.6132,177.891,2.65869,-144.426,556
1569940856,396.701,-185.179,-12.6132,177.891,2.65869,-144.426,556
1569940856,396.701,-185.179,-12.6132,177.891,2.65869,-144.426,556
1569940856,396.701,-185.179,-12.6132,177.891,2.65869,-144.426,556
1569940856,396.701,-185.179,-12.6132,177.891,2.65869,-144.426,556
1569940856,396.701,-185.179,-12.6132,177.891,2.65869,-144.426,556
1569940856,396.701,-185.179,-12.6132,177.891,2.65869,-144.426,556
1569940856,396.701,-185.179,-12.6132,177.891,2.65869,-144.426,556
1569940856,396.701,-185.179,-12.6132,177.891,2.65869,-144.426,556
1569940856,396.701,-185.179,-12.6132,177.891,2.65869,-144.426,556
1569940856,396.701,-185.179,-12.6132,177.891,2.65869,-144.426,556
1569940856,396.701,-185.179,-12.6132,177.891,2.65869,-144.426,556
1569940856,396.701,-185.179,-12.6132,177.891,2.65869,-144.426,556
1569940856,396.701,-185.179,-12.6132,177.891,2.65869,-144.426,556
1569940856,396.701,-185.291,-12.6132,177.891,2.65869,-144.426,556
1569940856,396.701,-185.291,-12.6132,177.891,2.68066,-144.426,552
1569940856,396.701,-185.291,-12.6132,177.891,2.68066,-144.426,552
1569940856,396.701,-185.291,-12.6132,177.869,2.68066,-144.426,552
1569940856,396.701,-185.291,-12.6132,177.869,2.68066,-144.426,552
1569940856,396.701,-185.291,-12.6132,177.869,2.68066,-144.426,552
1569940856,396.701,-185.291,-12.6132,177.869,2.68066,-144.426,548
1569940856,396.59,-185.291,-12.6132,177.869,2.68066,-144.426,548
1569940856,396.59,-185.291,-12.6132,177.869,2.68066,-144.426,548
1569940856,396.59,-185.291,-12.6132,177.869,2.68066,-144.426,548
1569940856,396.59,-185.291,-12.6132,177.891,2.68066,-144.426,544
1569940856,396.59,-185.179,-12.6132,177.891,2.68066,-144.426,544
1569940856,396.59,-185.179,-12.6132,177.891,2.68066,-144.426,544
1569940856,396.59,-185.179,-12.6132,177.891,2.68066,-144.426,544
1569940856,396.59,-185.179,-12.6132,177.891,2.68066,-144.426,544
1569940856,396.59,-185.179,-12.6132,177.891,2.65869,-144.426,544
1569940856,396.59,-185.179,-12.6132,177.913,2.65869,-144.426,544
1569940856,396.59,-185.068,-12.6132,177.913,2.65869,-144.426,544
1569940856,396.59,-185.068,-12.6132,177.913,2.65869,-144.426,544
1569940856,396.59,-185.068,-12.6132,177.913,2.65869,-144.426,544
1569940856,396.59,-185.068,-12.6132,177.913,2.65869,-144.426,540
1569940856,396.59,-185.068,-12.6132,177.913,2.65869,-144.426,540
1569940856,396.59,-185.068,-12.6132,177.913,2.65869,-144.426,540
1569940856,396.59,-185.068,-12.6132,177.913,2.68066,-144.426,540
1569940856,396.59,-185.068,-12.6132,177.913,2.68066,-144.426,540
1569940856,396.59,-185.068,-12.6132,177.913,2.68066,-144.426,540
1569940856,396.59,-185.179,-12.6132,177.891,2.68066,-144.426,540
1569940856,396.59,-185.179,-12.6132,177.891,2.68066,-144.426,544
1569940856,396.59,-185.179,-12.5016,177.891,2.68066,-144.426,544
1569940856,396.59,-185.179,-12.5016,177.891,2.70264,-144.426,544
1569940856,396.59,-185.179,-12.5016,177.891,2.70264,-144.426,544
1569940856,396.59,-185.179,-12.5016,177.891,2.70264,-144.404,544
1569940856,396.59,-185.179,-12.5016,177.891,2.70264,-144.404,544
1569940856,396.59,-185.179,-12.5016,177.891,2.70264,-144.404,548
1569940856,396.59,-185.179,-12.5016,177.891,2.70264,-144.404,548
1569940856,396.59,-185.179,-12.5016,177.891,2.70264,-144.404,548
1569940856,396.59,-185.179,-12.5016,177.891,2.70264,-144.404,548
1569940856,396.59,-185.179,-12.5016,177.891,2.70264,-144.404,548
1569940856,396.59,-185.179,-12.5016,177.891,2.70264,-144.404,548
1569940856,396.59,-185.179,-12.5016,177.891,2.70264,-144.404,548
1569940856,396.59,-185.179,-12.5016,177.891,2.70264,-144.404,552
1569940856,396.59,-185.179,-12.5016,177.891,2.70264,-144.404,552
1569940856,396.59,-185.179,-12.5016,177.869,2.70264,-144.404,552
1569940856,396.59,-185.291,-12.5016,177.869,2.68066,-144.404,552
1569940856,396.59,-185.291,-12.5016,177.869,2.68066,-144.404,552
1569940856,396.59,-185.291,-12.5016,177.869,2.70264,-144.404,552
1569940856,396.59,-185.291,-12.5016,177.869,2.70264,-144.404,552
1569940856,396.59,-185.291,-12.5016,177.869,2.70264,-144.404,552
1569940856,396.59,-185.291,-12.5016,177.869,2.70264,-144.404,552
1569940856,396.59,-185.291,-12.5016,177.869,2.70264,-144.404,552
1569940856,396.59,-185.291,-12.3899,177.869,2.70264,-144.404,552
1569940856,396.59,-185.291,-12.3899,177.869,2.70264,-144.404,552
1569940856,396.59,-185.291,-12.3899,177.869,2.70264,-144.404,552
1569940856,396.59,-185.291,-12.3899,177.847,2.70264,-144.404,552
1569940856,396.59,-185.291,-12.3899,177.869,2.70264,-144.404,552
1569940856,396.59,-185.291,-12.3899,177.869,2.70264,-144.404,552
1569940856,396.59,-185.291,-12.3899,177.869,2.70264,-144.404,552
1569940856,396.59,-185.291,-12.3899,177.869,2.70264,-144.404,552
1569940856,396.59,-185.291,-12.5016,177.869,2.70264,-144.404,548
1569940856,396.59,-185.291,-12.5016,177.869,2.68066,-144.404,548
1569940856,396.59,-185.291,-12.5016,177.869,2.68066,-144.404,548
1569940856,396.59,-185.291,-12.5016,177.869,2.68066,-144.404,548
1569940856,396.59,-185.291,-12.5016,177.869,2.68066,-144.404,548
1569940856,396.59,-185.179,-12.5016,177.869,2.68066,-144.404,548
1569940856,396.59,-185.179,-12.5016,177.869,2.68066,-144.404,544
1569940856,396.59,-185.179,-12.5016,177.869,2.68066,-144.404,544
1569940856,396.59,-185.179,-12.5016,177.869,2.68066,-144.404,544
1569940856,396.59,-185.179,-12.5016,177.869,2.68066,-144.404,544
1569940856,396.59,-185.179,-12.5016,177.869,2.68066,-144.404,548
1569940856,396.59,-185.179,-12.5016,177.869,2.68066,-144.404,548
1569940856,396.59,-185.291,-12.5016,177.869,2.68066,-144.404,548
1569940856,396.59,-185.291,-12.5016,177.869,2.68066,-144.404,548
1569940856,396.59,-185.291,-12.5016,177.869,2.68066,-144.404,548
1569940856,396.59,-185.291,-12.5016,177.869,2.68066,-144.404,548
1569940856,396.701,-185.291,-12.5016,177.869,2.68066,-144.404,552
1569940856,396.701,-185.179,-12.5016,177.891,2.68066,-144.404,552
1569940856,396.701,-185.179,-12.5016,177.891,2.68066,-144.404,552
1569940856,396.701,-185.179,-12.5016,177.891,2.68066,-144.404,552
1569940856,396.701,-185.179,-12.5016,177.891,2.68066,-144.426,556
1569940856,396.701,-185.179,-12.5016,177.891,2.68066,-144.426,556
1569940856,396.701,-185.179,-12.6132,177.913,2.68066,-144.426,556
1569940856,396.701,-185.179,-12.6132,177.913,2.68066,-144.426,556
1569940856,396.701,-185.068,-12.6132,177.913,2.68066,-144.426,556
1569940857,396.701,-185.068,-12.5016,177.913,2.68066,-144.426,556
1569940857,396.701,-185.068,-12.5016,177.913,2.68066,-144.426,560
1569940857,396.701,-185.068,-12.5016,177.913,2.68066,-144.404,560
1569940857,396.701,-185.068,-12.5016,177.913,2.68066,-144.404,560
1569940857,396.701,-185.068,-12.5016,177.913,2.68066,-144.404,560
1569940857,396.701,-185.179,-12.5016,177.913,2.70264,-144.404,560
1569940857,396.701,-185.179,-12.5016,177.913,2.70264,-144.404,560
1569940857,396.701,-185.179,-12.5016,177.913,2.70264,-144.404,560
1569940857,396.701,-185.179,-12.5016,177.913,2.70264,-144.404,556
1569940857,396.701,-185.179,-12.5016,177.913,2.70264,-144.404,556
1569940857,396.701,-185.179,-12.5016,177.891,2.70264,-144.404,556
1569940857,396.701,-185.179,-12.5016,177.891,2.70264,-144.404,556
1569940857,396.701,-185.179,-12.5016,177.891,2.70264,-144.404,556
1569940857,396.701,-185.179,-12.5016,177.891,2.70264,-144.404,556
1569940857,396.701,-185.179,-12.5016,177.891,2.70264,-144.404,556
1569940857,396.701,-185.179,-12.5016,177.891,2.70264,-144.404,556
1569940857,396.59,-185.179,-12.5016,177.891,2.70264,-144.404,556
1569940857,396.59,-185.179,-12.5016,177.869,2.70264,-144.404,556
1569940857,396.59,-185.179,-12.5016,177.869,2.70264,-144.404,556
1569940857,396.59,-185.291,-12.5016,177.869,2.70264,-144.404,556
1569940857,396.59,-185.291,-12.5016,177.869,2.70264,-144.404,556
1569940857,396.59,-185.291,-12.5016,177.869,2.70264,-144.404,556
1569940857,396.701,-185.291,-12.5016,177.869,2.68066,-144.404,556
1569940857,396.701,-185.291,-12.5016,177.869,2.68066,-144.404,556
1569940857,396.701,-185.291,-12.5016,177.869,2.68066,-144.404,552
1569940857,396.701,-185.291,-12.5016,177.869,2.68066,-144.404,552
1569940857,396.701,-185.291,-12.5016,177.869,2.68066,-144.404,552
1569940857,396.701,-185.291,-12.6132,177.869,2.65869,-144.404,552
1569940857,396.701,-185.291,-12.6132,177.869,2.65869,-144.404,552
1569940857,396.701,-185.291,-12.6132,177.869,2.65869,-144.404,552
1569940857,396.59,-185.291,-12.6132,177.869,2.65869,-144.404,552
1569940857,396.59,-185.291,-12.6132,177.869,2.63672,-144.404,548
1569940857,396.59,-185.291,-12.6132,177.869,2.63672,-144.404,548
1569940857,396.59,-185.291,-12.6132,177.869,2.63672,-144.404,548
1569940857,396.59,-185.291,-12.6132,177.869,2.63672,-144.404,548
1569940857,396.59,-185.291,-12.6132,177.869,2.65869,-144.404,548
1569940857,396.59,-185.291,-12.6132,177.869,2.65869,-144.404,548
1569940857,396.59,-185.291,-12.6132,177.869,2.65869,-144.404,548
1569940857,396.59,-185.291,-12.5016,177.869,2.65869,-144.426,548
1569940857,396.59,-185.291,-12.5016,177.869,2.68066,-144.426,548
1569940857,396.59,-185.291,-12.5016,177.869,2.68066,-144.426,548
1569940857,396.59,-185.291,-12.5016,177.869,2.68066,-144.426,548
1569940857,396.59,-185.291,-12.5016,177.869,2.70264,-144.426,548
1569940857,396.59,-185.291,-12.5016,177.869,2.70264,-144.426,548
1569940857,396.59,-185.291,-12.5016,177.869,2.70264,-144.426,548
1569940857,396.59,-185.179,-12.5016,177.891,2.70264,-144.426,548
1569940857,396.59,-185.179,-12.5016,177.891,2.70264,-144.426,548
1569940857,396.59,-185.179,-12.5016,177.891,2.70264,-144.426,548
1569940857,396.59,-185.179,-12.5016,177.891,2.70264,-144.426,548
1569940857,396.59,-185.179,-12.5016,177.891,2.70264,-144.426,552
1569940857,396.59,-185.179,-12.5016,177.891,2.68066,-144.426,552
1569940857,396.59,-185.179,-12.5016,177.891,2.68066,-144.426,552
1569940857,396.59,-185.179,-12.5016,177.891,2.68066,-144.426,552
1569940857,396.59,-185.179,-12.5016,177.891,2.68066,-144.426,556
1569940857,396.59,-185.179,-12.5016,177.891,2.68066,-144.426,556
1569940857,396.59,-185.179,-12.5016,177.891,2.68066,-144.426,556
1569940857,396.59,-185.179,-12.5016,177.891,2.68066,-144.404,556
1569940857,396.59,-185.179,-12.5016,177.891,2.68066,-144.404,556
1569940857,396.59,-185.179,-12.5016,177.891,2.68066,-144.404,560
1569940857,396.59,-185.179,-12.5016,177.891,2.68066,-144.404,560
1569940857,396.59,-185.068,-12.5016,177.913,2.68066,-144.404,556
1569940857,396.59,-185.068,-12.5016,177.913,2.68066,-144.404,556
1569940857,396.59,-185.068,-12.5016,177.913,2.68066,-144.404,556
1569940857,396.59,-185.068,-12.5016,177.935,2.68066,-144.404,556
1569940857,396.59,-185.068,-12.6132,177.935,2.68066,-144.404,556
1569940857,396.59,-185.068,-12.6132,177.935,2.65869,-144.404,556
1569940857,396.59,-185.068,-12.6132,177.935,2.65869,-144.404,552
1569940857,396.59,-185.068,-12.6132,177.935,2.65869,-144.404,552
1569940857,396.59,-185.068,-12.6132,177.913,2.65869,-144.404,552
1569940857,396.59,-185.068,-12.6132,177.913,2.65869,-144.404,552
1569940857,396.59,-185.068,-12.6132,177.913,2.65869,-144.426,552
1569940857,396.59,-185.068,-12.6132,177.913,2.65869,-144.426,552
1569940857,396.59,-185.179,-12.6132,177.913,2.68066,-144.426,552
1569940857,396.59,-185.179,-12.6132,177.913,2.68066,-144.426,552
1569940857,396.59,-185.179,-12.5016,177.913,2.68066,-144.426,552
1569940857,396.59,-185.179,-12.5016,177.913,2.68066,-144.426,552
1569940857,396.59,-185.179,-12.5016,177.913,2.68066,-144.426,552
1569940857,396.59,-185.179,-12.5016,177.913,2.68066,-144.426,556
1569940857,396.59,-185.179,-12.5016,177.913,2.68066,-144.426,556
1569940857,396.59,-185.179,-12.5016,177.913,2.68066,-144.426,556
1569940857,396.59,-185.068,-12.5016,177.913,2.68066,-144.426,556
1569940857,396.59,-185.068,-12.5016,177.935,2.68066,-144.426,560
1569940857,396.59,-185.068,-12.5016,177.935,2.68066,-144.426,560
1569940857,396.59,-185.068,-12.5016,177.935,2.68066,-144.426,560
1569940857,396.59,-185.068,-12.5016,177.935,2.68066,-144.426,560
1569940857,396.59,-185.068,-12.5016,177.935,2.68066,-144.404,564
1569940857,396.59,-185.068,-12.5016,177.935,2.68066,-144.404,564
1569940857,396.59,-185.068,-12.5016,177.935,2.68066,-144.404,564
1569940857,396.59,-185.068,-12.5016,177.935,2.68066,-144.404,568
1569940857,396.59,-185.068,-12.5016,177.935,2.68066,-144.404,568
1569940857,396.59,-185.068,-12.5016,177.935,2.68066,-144.404,568
1569940857,396.59,-185.068,-12.5016,177.913,2.68066,-144.404,568
1569940857,396.59,-185.068,-12.5016,177.913,2.68066,-144.382,572
1569940857,396.59,-185.068,-12.5016,177.913,2.68066,-144.382,572
1569940857,396.59,-185.068,-12.5016,177.913,2.68066,-144.382,572
1569940857,396.59,-185.068,-12.5016,177.913,2.68066,-144.382,572
1569940857,396.59,-185.068,-12.3899,177.913,2.68066,-144.382,572
1569940857,396.59,-185.068,-12.3899,177.935,2.68066,-144.382,572
1569940857,396.59,-185.068,-12.3899,177.935,2.68066,-144.382,572
1569940857,396.59,-185.068,-12.3899,177.935,2.68066,-144.382,568
1569940858,396.59,-185.068,-12.3899,177.935,2.68066,-144.382,568
1569940858,396.59,-185.068,-12.3899,177.935,2.68066,-144.382,568
1569940858,396.59,-185.068,-12.3899,177.935,2.68066,-144.382,564
1569940858,396.59,-185.068,-12.3899,177.935,2.68066,-144.382,564
1569940858,396.59,-185.068,-12.3899,177.935,2.68066,-144.382,564
1569940858,396.59,-185.068,-12.5016,177.935,2.68066,-144.382,564
1569940858,396.59,-185.068,-12.5016,177.935,2.68066,-144.382,564
1569940858,396.59,-185.068,-12.5016,177.913,2.68066,-144.382,564
1569940858,396.59,-185.068,-12.5016,177.913,2.65869,-144.382,564
1569940858,396.59,-185.068,-12.5016,177.913,2.65869,-144.382,560
1569940858,396.59,-185.068,-12.5016,177.913,2.65869,-144.404,560
1569940858,396.59,-185.068,-12.5016,177.913,2.65869,-144.404,560
1569940858,396.59,-185.068,-12.5016,177.913,2.65869,-144.404,560
1569940858,396.478,-185.068,-12.5016,177.913,2.65869,-144.404,560
1569940858,396.478,-185.068,-12.5016,177.913,2.65869,-144.404,560
1569940858,396.478,-185.068,-12.5016,177.913,2.68066,-144.404,560
1569940858,396.478,-185.068,-12.5016,177.913,2.68066,-144.404,560
1569940858,396.478,-185.068,-12.5016,177.913,2.68066,-144.404,560
1569940858,396.478,-185.068,-12.3899,177.913,2.68066,-144.404,560
1569940858,396.478,-185.068,-12.3899,177.913,2.68066,-144.404,560
1569940858,396.478,-185.068,-12.3899,177.913,2.68066,-144.382,560
1569940858,396.478,-185.068,-12.3899,177.913,2.68066,-144.382,564
1569940858,396.59,-185.068,-12.3899,177.935,2.70264,-144.382,564
1569940858,396.59,-185.068,-12.3899,177.935,2.70264,-144.382,564
1569940858,396.59,-185.068,-12.3899,177.935,2.70264,-144.382,564
1569940858,396.59,-185.068,-12.2783,177.935,2.70264,-144.382,564
1569940858,396.59,-185.068,-12.2783,177.935,2.72461,-144.382,564
1569940858,396.59,-185.068,-12.2783,177.935,2.72461,-144.382,560
1569940858,396.59,-185.068,-12.2783,177.935,2.72461,-144.404,560
1569940858,396.59,-185.068,-12.2783,177.935,2.72461,-144.404,560
1569940858,396.59,-185.068,-12.3899,177.935,2.70264,-144.404,560
1569940858,396.59,-185.068,-12.3899,177.913,2.70264,-144.404,560
1569940858,396.59,-185.068,-12.3899,177.913,2.70264,-144.404,560
1569940858,396.59,-185.068,-12.3899,177.913,2.70264,-144.404,560
1569940858,396.478,-185.068,-12.3899,177.913,2.70264,-144.404,560
1569940858,396.478,-185.068,-12.3899,177.913,2.70264,-144.404,560
1569940858,396.478,-185.068,-12.3899,177.913,2.70264,-144.382,560
1569940858,396.478,-185.068,-12.3899,177.913,2.70264,-144.382,560
1569940858,396.478,-185.179,-12.3899,177.913,2.70264,-144.382,560
1569940858,396.478,-185.179,-12.3899,177.913,2.70264,-144.382,560
1569940858,396.478,-185.179,-12.3899,177.913,2.70264,-144.382,560
1569940858,396.478,-185.179,-12.3899,177.913,2.70264,-144.382,560
1569940858,396.478,-185.179,-12.3899,177.913,2.70264,-144.382,560
1569940858,396.478,-185.179,-12.3899,177.913,2.70264,-144.382,560
1569940858,396.478,-185.179,-12.3899,177.913,2.70264,-144.382,560
1569940858,396.478,-185.179,-12.3899,177.891,2.70264,-144.382,560
1569940858,396.478,-185.179,-12.3899,177.891,2.70264,-144.382,560
1569940858,396.478,-185.179,-12.3899,177.891,2.70264,-144.382,560
1569940858,396.478,-185.179,-12.3899,177.891,2.70264,-144.404,556
1569940858,396.478,-185.179,-12.3899,177.891,2.70264,-144.404,556
1569940858,396.478,-185.179,-12.3899,177.891,2.70264,-144.404,556
1569940858,396.478,-185.179,-12.3899,177.891,2.70264,-144.404,556
1569940858,396.478,-185.179,-12.3899,177.869,2.70264,-144.426,556
1569940858,396.478,-185.291,-12.3899,177.869,2.70264,-144.426,552
1569940858,396.478,-185.291,-12.3899,177.869,2.70264,-144.426,552
1569940858,396.478,-185.291,-12.3899,177.869,2.70264,-144.426,552
1569940858,396.478,-185.291,-12.3899,177.847,2.70264,-144.426,552
1569940858,396.478,-185.291,-12.3899,177.847,2.70264,-144.426,552
1569940858,396.478,-185.291,-12.5016,177.847,2.70264,-144.426,552
1569940858,396.478,-185.403,-12.5016,177.847,2.70264,-144.426,552
1569940858,396.478,-185.403,-12.5016,177.825,2.68066,-144.426,552
1569940858,396.478,-185.403,-12.5016,177.825,2.68066,-144.426,552
1569940858,396.478,-185.403,-12.5016,177.825,2.68066,-144.448,552
1569940858,396.478,-185.403,-12.5016,177.825,2.68066,-144.448,552
1569940858,396.478,-185.403,-12.5016,177.825,2.68066,-144.448,552
1569940858,396.478,-185.403,-12.5016,177.825,2.68066,-144.448,556
1569940858,396.478,-185.403,-12.5016,177.825,2.68066,-144.448,556
1569940858,396.478,-185.403,-12.5016,177.825,2.68066,-144.448,556
1569940858,396.478,-185.403,-12.5016,177.825,2.68066,-144.448,556
1569940858,396.59,-185.403,-12.5016,177.847,2.68066,-144.448,556
1569940858,396.59,-185.403,-12.5016,177.847,2.68066,-144.448,552
1569940858,396.59,-185.403,-12.5016,177.847,2.68066,-144.448,552
1569940858,396.59,-185.403,-12.5016,177.847,2.68066,-144.448,552
1569940858,396.59,-185.291,-12.5016,177.847,2.68066,-144.448,552
1569940858,396.59,-185.291,-12.5016,177.847,2.68066,-144.448,552
1569940858,396.59,-185.291,-12.5016,177.847,2.68066,-144.448,552
1569940858,396.59,-185.291,-12.5016,177.847,2.68066,-144.448,548
1569940858,396.59,-185.291,-12.5016,177.847,2.68066,-144.448,548
1569940858,396.59,-185.291,-12.5016,177.847,2.68066,-144.448,548
1569940858,396.59,-185.291,-12.5016,177.847,2.68066,-144.448,548
1569940858,396.478,-185.291,-12.5016,177.869,2.68066,-144.448,544
1569940858,396.478,-185.291,-12.5016,177.869,2.68066,-144.448,544
1569940858,396.478,-185.291,-12.5016,177.869,2.68066,-144.448,544
1569940858,396.478,-185.179,-12.5016,177.869,2.68066,-144.448,544
1569940858,396.478,-185.179,-12.5016,177.869,2.68066,-144.448,544
1569940858,396.478,-185.179,-12.5016,177.869,2.68066,-144.448,544
1569940858,396.478,-185.291,-12.5016,177.869,2.68066,-144.448,544
1569940858,396.478,-185.291,-12.5016,177.869,2.68066,-144.448,544
1569940858,396.478,-185.291,-12.5016,177.869,2.68066,-144.448,544
1569940858,396.478,-185.291,-12.5016,177.869,2.68066,-144.448,544
1569940858,396.478,-185.291,-12.6132,177.869,2.65869,-144.448,544
1569940858,396.478,-185.291,-12.6132,177.869,2.65869,-144.448,544
1569940858,396.478,-185.291,-12.6132,177.869,2.65869,-144.448,544
1569940858,396.478,-185.291,-12.6132,177.847,2.65869,-144.448,544
1569940858,396.59,-185.291,-12.6132,177.847,2.65869,-144.47,544
1569940858,396.59,-185.291,-12.6132,177.869,2.65869,-144.47,544
1569940858,396.59,-185.291,-12.6132,177.869,2.65869,-144.47,544
1569940858,396.59,-185.291,-12.6132,177.869,2.65869,-144.47,540
1569940858,396.59,-185.291,-12.6132,177.869,2.65869,-144.47,540
1569940858,396.59,-185.291,-12.6132,177.869,2.65869,-144.47,540
1569940859,396.59,-185.291,-12.6132,177.869,2.65869,-144.448,540
1569940859,396.59,-185.179,-12.6132,177.869,2.65869,-144.448,540
1569940859,396.59,-185.179,-12.6132,177.869,2.65869,-144.448,540
1569940859,396.59,-185.179,-12.6132,177.869,2.65869,-144.448,540
1569940859,396.59,-185.179,-12.5016,177.869,2.65869,-144.448,540
1569940859,396.59,-185.179,-12.5016,177.869,2.65869,-144.448,540
1569940859,396.478,-185.179,-12.5016,177.869,2.65869,-144.448,540
1569940859,396.478,-185.179,-12.5016,177.869,2.68066,-144.448,540
1569940859,396.478,-185.179,-12.5016,177.869,2.68066,-144.448,540
1569940859,396.478,-185.179,-12.5016,177.869,2.68066,-144.448,540
1569940859,396.478,-185.179,-12.5016,177.869,2.68066,-144.448,540
1569940859,396.478,-185.179,-12.5016,177.869,2.68066,-144.448,540
1569940859,396.478,-185.179,-12.5016,177.869,2.68066,-144.448,540
1569940859,396.478,-185.291,-12.5016,177.869,2.68066,-144.448,540
1569940859,396.478,-185.291,-12.5016,177.869,2.68066,-144.448,540
1569940859,396.478,-185.291,-12.5016,177.847,2.68066,-144.448,540
1569940859,396.478,-185.291,-12.5016,177.847,2.68066,-144.448,540
1569940859,396.478,-185.291,-12.5016,177.847,2.68066,-144.448,536
1569940859,396.478,-185.291,-12.5016,177.847,2.68066,-144.448,536
1569940859,396.478,-185.291,-12.5016,177.847,2.68066,-144.448,536
1569940859,396.478,-185.291,-12.5016,177.847,2.68066,-144.426,536
1569940859,396.478,-185.291,-12.3899,177.847,2.70264,-144.426,536
1569940859,396.478,-185.291,-12.3899,177.847,2.70264,-144.426,540
1569940859,396.478,-185.291,-12.3899,177.847,2.70264,-144.426,540
1569940859,396.478,-185.291,-12.3899,177.847,2.70264,-144.426,540
1569940859,396.478,-185.291,-12.3899,177.847,2.72461,-144.426,544
1569940859,396.478,-185.291,-12.3899,177.847,2.72461,-144.426,544
1569940859,396.478,-185.291,-12.3899,177.847,2.72461,-144.426,548
1569940859,396.478,-185.291,-12.2783,177.847,2.72461,-144.426,548
1569940859,396.478,-185.291,-12.3899,177.847,2.72461,-144.448,552
1569940859,396.478,-185.291,-12.3899,177.847,2.72461,-144.448,552
1569940859,396.478,-185.291,-12.3899,177.847,2.72461,-144.448,556
1569940859,396.478,-185.291,-12.3899,177.847,2.70264,-144.448,556
1569940859,396.478,-185.291,-12.3899,177.847,2.70264,-144.448,556
1569940859,396.478,-185.291,-12.3899,177.847,2.70264,-144.448,560
1569940859,396.478,-185.291,-12.3899,177.847,2.70264,-144.448,560
1569940859,396.478,-185.291,-12.3899,177.847,2.70264,-144.426,560
1569940859,396.478,-185.291,-12.3899,177.847,2.70264,-144.426,556
1569940859,396.478,-185.291,-12.3899,177.847,2.70264,-144.426,556
1569940859,396.478,-185.291,-12.3899,177.847,2.70264,-144.426,556
1569940859,396.478,-185.291,-12.3899,177.847,2.70264,-144.426,556
1569940859,396.478,-185.291,-12.3899,177.825,2.70264,-144.426,556
1569940859,396.478,-185.291,-12.3899,177.825,2.70264,-144.426,556
1569940859,396.478,-185.291,-12.3899,177.825,2.70264,-144.426,556
1569940859,396.478,-185.291,-12.3899,177.847,2.70264,-144.426,556
1569940859,396.478,-185.291,-12.3899,177.847,2.70264,-144.426,556
1569940859,396.478,-185.291,-12.5016,177.847,2.70264,-144.426,556
1569940859,396.478,-185.291,-12.5016,177.847,2.70264,-144.426,556
1569940859,396.478,-185.291,-12.5016,177.847,2.70264,-144.448,556
1569940859,396.478,-185.291,-12.5016,177.847,2.68066,-144.448,556
1569940859,396.478,-185.291,-12.5016,177.847,2.68066,-144.448,556
1569940859,396.478,-185.291,-12.5016,177.847,2.68066,-144.448,556
1569940859,396.478,-185.179,-12.5016,177.869,2.68066,-144.448,556
1569940859,396.478,-185.179,-12.5016,177.869,2.68066,-144.448,556
1569940859,396.478,-185.179,-12.5016,177.869,2.68066,-144.448,556
1569940859,396.59,-185.179,-12.5016,177.869,2.68066,-144.448,556
1569940859,396.59,-185.179,-12.5016,177.891,2.68066,-144.448,556
1569940859,396.59,-185.179,-12.5016,177.891,2.68066,-144.448,556
1569940859,396.59,-185.179,-12.5016,177.891,2.68066,-144.448,556
1569940859,396.59,-185.179,-12.5016,177.891,2.68066,-144.448,556
1569940859,396.59,-185.179,-12.5016,177.891,2.68066,-144.448,556
1569940859,396.59,-185.179,-12.5016,177.891,2.68066,-144.448,556
1569940859,396.59,-185.179,-12.5016,177.891,2.68066,-144.448,556
1569940859,396.59,-185.179,-12.5016,177.891,2.68066,-144.448,556
1569940859,396.59,-185.179,-12.3899,177.891,2.70264,-144.448,560
1569940859,396.59,-185.179,-12.3899,177.891,2.70264,-144.448,560
1569940859,396.59,-185.179,-12.3899,177.891,2.70264,-144.448,560
1569940859,396.59,-185.179,-12.3899,177.913,2.70264,-144.448,560
1569940859,396.59,-185.179,-12.3899,177.913,2.70264,-144.426,560
1569940859,396.59,-185.068,-12.3899,177.913,2.70264,-144.426,560
1569940859,396.59,-185.068,-12.3899,177.913,2.72461,-144.426,560
1569940859,396.59,-185.068,-12.3899,177.913,2.72461,-144.448,564
1569940859,396.59,-185.068,-12.3899,177.913,2.72461,-144.448,564
1569940859,396.59,-185.068,-12.3899,177.913,2.72461,-144.448,564
1569940859,396.478,-185.179,-12.3899,177.891,2.70264,-144.448,564
1569940859,396.478,-185.179,-12.3899,177.891,2.70264,-144.448,564
1569940859,396.478,-185.179,-12.3899,177.891,2.70264,-144.448,568
1569940859,396.478,-185.179,-12.3899,177.891,2.70264,-144.448,568
1569940859,396.478,-185.179,-12.3899,177.891,2.70264,-144.448,568
1569940859,396.478,-185.179,-12.3899,177.891,2.70264,-144.448,568
1569940859,396.478,-185.179,-12.3899,177.869,2.70264,-144.448,568
1569940859,396.478,-185.179,-12.3899,177.869,2.70264,-144.448,568
1569940859,396.478,-185.179,-12.3899,177.869,2.70264,-144.448,572
1569940859,396.478,-185.179,-12.3899,177.869,2.70264,-144.448,572
1569940859,396.478,-185.179,-12.3899,177.869,2.70264,-144.448,572
1569940859,396.478,-185.179,-12.3899,177.847,2.70264,-144.448,572
1569940859,396.478,-185.179,-12.3899,177.847,2.70264,-144.448,572
1569940859,396.478,-185.179,-12.3899,177.847,2.70264,-144.448,572
1569940859,396.478,-185.291,-12.3899,177.847,2.68066,-144.448,572
1569940859,396.478,-185.179,-12.5016,177.847,2.68066,-144.448,572
1569940859,396.478,-185.179,-12.5016,177.847,2.68066,-144.448,572
1569940859,396.478,-185.179,-12.5016,177.869,2.68066,-144.448,572
1569940859,396.478,-185.179,-12.5016,177.869,2.68066,-144.448,576
1569940859,396.478,-185.179,-12.5016,177.869,2.68066,-144.448,576
1569940859,396.478,-185.179,-12.5016,177.869,2.68066,-144.448,576
1569940859,396.478,-185.291,-12.5016,177.869,2.68066,-144.448,576
1569940859,396.478,-185.291,-12.5016,177.869,2.68066,-144.448,576
1569940859,396.478,-185.291,-12.5016,177.869,2.68066,-144.448,576
1569940859,396.59,-185.291,-12.5016,177.869,2.68066,-144.448,576
1569940859,396.59,-185.291,-12.5016,177.869,2.68066,-144.448,576
1569940860,396.59,-185.291,-12.5016,177.869,2.68066,-144.448,576
1569940860,396.59,-185.291,-12.3899,177.869,2.70264,-144.448,576
1569940860,396.59,-185.291,-12.3899,177.869,2.70264,-144.448,576
1569940860,396.59,-185.291,-12.3899,177.869,2.70264,-144.448,576
1569940860,396.59,-185.291,-12.3899,177.869,2.70264,-144.448,572
1569940860,396.59,-185.291,-12.3899,177.869,2.70264,-144.448,572
1569940860,396.59,-185.179,-12.3899,177.869,2.70264,-144.448,572
1569940860,396.59,-185.179,-12.3899,177.869,2.70264,-144.448,572
1569940860,396.59,-185.179,-12.3899,177.869,2.70264,-144.448,572
1569940860,396.59,-185.179,-12.3899,177.869,2.70264,-144.448,572
1569940860,396.59,-185.179,-12.3899,177.869,2.70264,-144.448,572
1569940860,396.59,-185.179,-12.3899,177.869,2.70264,-144.448,572
1569940860,396.59,-185.179,-12.3899,177.869,2.70264,-144.448,572
1569940860,396.59,-185.179,-12.3899,177.869,2.70264,-144.448,568
1569940860,396.59,-185.179,-12.5016,177.869,2.70264,-144.47,568
1569940860,396.59,-185.179,-12.5016,177.869,2.70264,-144.47,568
1569940860,396.59,-185.179,-12.5016,177.869,2.70264,-144.47,568
1569940860,396.59,-185.179,-12.5016,177.869,2.70264,-144.47,568
1569940860,396.59,-185.179,-12.5016,177.869,2.70264,-144.448,568
1569940860,396.59,-185.179,-12.5016,177.869,2.70264,-144.448,568
1569940860,396.59,-185.179,-12.5016,177.869,2.70264,-144.448,568
1569940860,396.59,-185.179,-12.5016,177.869,2.70264,-144.448,568
1569940860,396.59,-185.291,-12.5016,177.869,2.70264,-144.426,568
1569940860,396.59,-185.291,-12.5016,177.847,2.70264,-144.426,568
1569940860,396.59,-185.291,-12.5016,177.847,2.70264,-144.426,572
1569940860,396.59,-185.291,-12.5016,177.847,2.70264,-144.426,572
1569940860,396.59,-185.291,-12.5016,177.847,2.70264,-144.404,572
1569940860,396.59,-185.291,-12.5016,177.847,2.70264,-144.404,572
1569940860,396.59,-185.291,-12.3899,177.847,2.70264,-144.404,576
1569940860,396.59,-185.291,-12.3899,177.847,2.70264,-144.404,576
1569940860,396.59,-185.291,-12.3899,177.847,2.70264,-144.404,576
1569940860,396.59,-185.291,-12.3899,177.847,2.70264,-144.404,576
1569940860,396.59,-185.291,-12.5016,177.869,2.70264,-144.382,576
1569940860,396.59,-185.179,-12.5016,177.869,2.68066,-144.382,572
1569940860,396.59,-185.179,-12.5016,177.869,2.68066,-144.382,572
1569940860,396.59,-185.179,-12.5016,177.869,2.68066,-144.382,572
1569940860,396.59,-185.179,-12.5016,177.869,2.68066,-144.382,572
1569940860,396.59,-185.179,-12.5016,177.869,2.68066,-144.382,572
1569940860,396.59,-185.179,-12.5016,177.869,2.68066,-144.382,572
1569940860,396.59,-185.179,-12.5016,177.869,2.68066,-144.382,568
1569940860,396.59,-185.179,-12.5016,177.869,2.68066,-144.382,568
1569940860,396.478,-185.179,-12.3899,177.869,2.70264,-144.382,568
1569940860,396.478,-185.179,-12.3899,177.869,2.70264,-144.382,568
1569940860,396.478,-185.179,-12.3899,177.869,2.70264,-144.382,568
1569940860,396.478,-185.179,-12.3899,177.869,2.70264,-144.382,568
1569940860,396.478,-185.179,-12.3899,177.869,2.70264,-144.382,568
1569940860,396.478,-185.179,-12.3899,177.869,2.70264,-144.382,568
1569940860,396.478,-185.179,-12.3899,177.869,2.70264,-144.382,568
1569940860,396.478,-185.179,-12.3899,177.869,2.70264,-144.382,568
1569940860,396.478,-185.179,-12.3899,177.869,2.72461,-144.382,568
1569940860,396.478,-185.179,-12.3899,177.869,2.72461,-144.382,568
1569940860,396.478,-185.179,-12.3899,177.869,2.72461,-144.382,568
1569940860,396.59,-185.179,-12.3899,177.869,2.72461,-144.382,568
1569940863,381.409,-168.213,-12.1667,177.891,2.98828,-144.888,464
1569940863,381.298,-168.213,-12.1667,177.891,2.98828,-144.888,464
1569940863,381.298,-168.213,-12.1667,177.891,2.98828,-144.888,464
1569940863,381.298,-168.213,-12.1667,177.891,2.98828,-144.888,460
1569940863,381.298,-168.213,-12.1667,177.891,2.98828,-144.888,460
1569940863,381.298,-168.213,-12.1667,177.891,2.98828,-144.888,460
1569940863,381.298,-168.213,-12.1667,177.891,2.98828,-144.888,456
1569940863,381.298,-168.213,-12.1667,177.891,2.98828,-144.888,456
1569940863,381.298,-168.213,-12.1667,177.891,2.98828,-144.888,456
1569940863,381.298,-168.213,-12.1667,177.891,2.98828,-144.888,456
1569940863,381.298,-168.213,-12.1667,177.891,2.98828,-144.888,456
1569940863,381.298,-168.213,-12.1667,177.891,2.98828,-144.888,456
1569940863,381.298,-168.213,-12.1667,177.891,2.98828,-144.888,456
1569940863,381.298,-168.213,-12.1667,177.891,2.98828,-144.888,456
1569940863,381.298,-168.213,-12.1667,177.891,2.98828,-144.888,456
1569940863,381.298,-168.213,-12.1667,177.891,2.98828,-144.888,456
1569940863,381.298,-168.213,-12.1667,177.891,2.98828,-144.888,456
1569940863,381.298,-168.213,-12.1667,177.891,2.98828,-144.888,460
1569940863,381.298,-168.213,-12.1667,177.891,2.96631,-144.888,460
1569940863,381.298,-168.213,-12.2783,177.891,2.96631,-144.888,460
1569940863,381.298,-168.213,-12.2783,177.891,2.96631,-144.888,460
1569940863,381.298,-168.213,-12.2783,177.891,2.96631,-144.888,460
1569940863,381.298,-168.213,-12.2783,177.891,2.96631,-144.888,460
1569940863,381.186,-168.213,-12.2783,177.869,2.96631,-144.888,460
1569940863,381.186,-168.213,-12.2783,177.869,2.96631,-144.888,464
1569940863,381.186,-168.213,-12.1667,177.869,2.96631,-144.888,464
1569940863,381.186,-168.213,-12.1667,177.869,2.98828,-144.888,464
1569940864,381.186,-168.213,-12.1667,177.869,2.98828,-144.888,464
1569940864,381.186,-168.213,-12.1667,177.869,2.98828,-144.888,468
1569940864,381.186,-168.213,-12.1667,177.869,2.98828,-144.888,468
1569940864,381.186,-168.213,-12.1667,177.869,2.98828,-144.888,468
1569940864,381.186,-168.213,-12.1667,177.869,2.98828,-144.888,472
1569940864,381.186,-168.213,-12.0551,177.869,2.98828,-144.888,472
1569940864,381.186,-168.213,-12.0551,177.869,2.98828,-144.888,476
1569940864,381.186,-168.213,-12.0551,177.869,2.98828,-144.888,476
1569940864,381.186,-168.213,-12.0551,177.869,2.98828,-144.888,480
1569940864,381.186,-168.213,-12.0551,177.869,2.98828,-144.888,480
1569940864,381.186,-168.213,-12.0551,177.869,2.98828,-144.888,484
1569940864,381.186,-168.213,-12.0551,177.869,2.98828,-144.888,488
1569940864,381.186,-168.213,-12.0551,177.869,2.98828,-144.888,488
1569940864,381.186,-168.213,-12.0551,177.869,2.98828,-144.866,488
1569940864,381.186,-168.213,-12.0551,177.869,2.98828,-144.866,492
1569940864,381.186,-168.213,-12.0551,177.869,2.98828,-144.866,492
1569940864,381.186,-168.213,-12.0551,177.869,2.98828,-144.866,496
1569940864,381.186,-168.213,-12.0551,177.869,2.98828,-144.866,496
1569940864,381.186,-168.213,-12.0551,177.869,2.98828,-144.866,496
1569940864,381.186,-168.213,-12.0551,177.869,2.98828,-144.866,496
1569940864,381.186,-168.213,-12.0551,177.869,2.98828,-144.866,496
1569940864,381.298,-168.213,-12.0551,177.869,2.98828,-144.866,496
1569940864,381.298,-168.213,-12.0551,177.869,2.98828,-144.866,496
1569940864,381.298,-168.213,-12.0551,177.869,2.98828,-144.866,492
1569940864,381.298,-168.213,-12.0551,177.869,2.98828,-144.866,492
1569940864,381.298,-168.213,-12.0551,177.869,2.98828,-144.866,492
1569940864,381.298,-168.213,-12.0551,177.869,2.98828,-144.866,492
1569940864,381.298,-168.213,-12.0551,177.891,2.98828,-144.888,492
1569940864,381.298,-168.213,-12.0551,177.891,3.01025,-144.888,488
1569940864,381.298,-168.213,-12.0551,177.891,3.01025,-144.888,488
1569940864,381.298,-168.213,-12.0551,177.891,3.01025,-144.888,488
1569940864,381.298,-168.213,-12.0551,177.891,3.01025,-144.888,484
1569940864,381.298,-168.213,-12.0551,177.891,3.01025,-144.888,484
1569940864,381.298,-168.213,-12.0551,177.891,3.01025,-144.888,484
1569940864,381.409,-168.213,-12.0551,177.891,3.01025,-144.888,484
1569940864,381.409,-168.213,-12.0551,177.891,3.03223,-144.888,484
1569940864,381.409,-168.213,-12.0551,177.891,3.03223,-144.888,484
1569940864,381.409,-168.213,-12.0551,177.891,3.03223,-144.888,480
1569940864,381.409,-168.213,-12.0551,177.891,3.03223,-144.888,480
1569940864,381.409,-168.213,-12.0551,177.891,3.03223,-144.888,480
1569940864,381.409,-168.213,-12.0551,177.891,3.03223,-144.888,480
1569940864,381.409,-168.213,-12.0551,177.891,3.03223,-144.888,480
1569940864,381.409,-168.213,-12.0551,177.891,3.01025,-144.888,480
1569940864,381.409,-168.213,-12.0551,177.913,3.01025,-144.888,480
1569940864,381.409,-168.213,-12.0551,177.913,3.01025,-144.888,480
1569940864,381.409,-168.213,-12.0551,177.913,3.01025,-144.888,480
1569940864,381.409,-168.213,-12.0551,177.913,3.01025,-144.888,480
1569940864,381.409,-168.213,-12.0551,177.913,3.01025,-144.888,480
1569940864,381.409,-168.213,-12.0551,177.913,3.01025,-144.888,480
1569940864,381.409,-168.213,-12.0551,177.935,2.98828,-144.888,480
1569940864,381.409,-168.101,-12.0551,177.935,2.98828,-144.888,480
1569940864,381.409,-168.101,-12.0551,177.935,2.98828,-144.888,476
1569940864,381.409,-168.101,-12.0551,177.935,2.98828,-144.888,476
1569940864,381.409,-168.101,-12.0551,177.935,2.98828,-144.888,476
1569940864,381.521,-168.213,-12.0551,177.935,3.01025,-144.888,476
1569940864,381.521,-168.213,-12.0551,177.935,3.01025,-144.888,476
1569940864,381.521,-168.213,-12.0551,177.935,3.01025,-144.888,476
1569940864,381.521,-168.213,-11.9435,177.913,3.01025,-144.888,476
1569940864,381.521,-168.213,-11.9435,177.913,3.01025,-144.888,476
1569940864,381.521,-168.213,-11.9435,177.913,3.03223,-144.888,476
1569940864,381.521,-168.213,-11.9435,177.913,3.03223,-144.888,476
1569940864,381.521,-168.325,-11.9435,177.913,3.03223,-144.888,472
1569940864,381.521,-168.325,-11.9435,177.913,3.03223,-144.888,472
1569940864,381.521,-168.325,-11.9435,177.913,3.03223,-144.888,472
1569940864,381.521,-168.325,-11.9435,177.913,3.03223,-144.888,472
1569940864,381.521,-168.213,-11.9435,177.913,3.03223,-144.888,472
1569940864,381.521,-168.213,-11.9435,177.913,3.03223,-144.888,468
1569940864,381.521,-168.213,-11.9435,177.913,3.03223,-144.888,468
1569940864,381.521,-168.213,-11.9435,177.913,3.03223,-144.888,468
1569940864,381.521,-168.213,-11.9435,177.935,3.01025,-144.888,468
1569940864,381.521,-168.213,-12.0551,177.935,3.01025,-144.888,468
1569940864,381.521,-168.213,-12.0551,177.935,3.01025,-144.888,464
1569940864,381.521,-168.213,-12.0551,177.935,3.01025,-144.888,464
1569940864,381.521,-168.213,-12.0551,177.935,3.01025,-144.888,464
1569940864,381.521,-168.213,-12.0551,177.935,3.01025,-144.888,464
1569940864,381.521,-168.213,-12.0551,177.935,3.01025,-144.888,464
1569940864,381.521,-168.213,-12.0551,177.913,3.01025,-144.888,464
1569940864,381.521,-168.213,-12.0551,177.913,2.98828,-144.888,464
1569940864,381.521,-168.213,-12.0551,177.913,2.98828,-144.888,464
1569940864,381.521,-168.213,-12.0551,177.913,2.98828,-144.888,460
1569940864,381.521,-168.213,-12.0551,177.913,2.98828,-144.888,460
1569940864,381.521,-168.213,-12.0551,177.913,2.98828,-144.888,460
1569940864,381.521,-168.213,-12.0551,177.913,2.98828,-144.888,464
1569940864,381.521,-168.213,-12.0551,177.913,2.98828,-144.888,464
1569940864,381.409,-168.213,-12.0551,177.913,2.98828,-144.888,464
1569940864,381.409,-168.213,-12.0551,177.913,2.98828,-144.888,464
1569940864,381.409,-168.213,-12.0551,177.913,2.98828,-144.888,464
1569940864,381.409,-168.213,-12.0551,177.913,2.98828,-144.888,464
1569940864,381.409,-168.213,-12.0551,177.913,2.98828,-144.888,464
1569940864,381.409,-168.213,-12.0551,177.913,2.98828,-144.888,468
1569940864,381.409,-168.213,-12.0551,177.913,2.98828,-144.888,468
1569940864,381.409,-168.213,-12.0551,177.913,2.98828,-144.91,468
1569940864,381.409,-168.213,-12.0551,177.913,2.98828,-144.91,468
1569940864,381.409,-168.213,-12.0551,177.913,2.98828,-144.91,468
1569940864,381.409,-168.101,-12.0551,177.913,2.98828,-144.91,468
1569940864,381.409,-168.101,-12.0551,177.913,2.98828,-144.91,468
1569940864,381.409,-168.101,-12.0551,177.913,2.98828,-144.91,468
1569940864,381.409,-168.101,-12.0551,177.913,3.01025,-144.91,468
1569940864,381.409,-168.101,-12.0551,177.913,3.01025,-144.91,468
1569940864,381.409,-168.101,-12.0551,177.913,3.01025,-144.91,472
1569940865,381.409,-168.101,-12.0551,177.913,3.01025,-144.91,472
1569940865,381.409,-168.101,-12.0551,177.935,3.01025,-144.932,472
1569940865,381.409,-168.101,-12.0551,177.935,3.01025,-144.932,472
1569940865,381.409,-168.101,-12.0551,177.935,3.01025,-144.932,476
1569940865,381.409,-168.101,-12.0551,177.913,3.01025,-144.932,476
1569940865,381.409,-168.101,-12.0551,177.913,3.01025,-144.932,476
1569940865,381.409,-168.101,-12.0551,177.913,3.01025,-144.932,476
1569940865,381.409,-168.101,-12.0551,177.913,3.01025,-144.932,476
1569940865,381.298,-168.101,-12.0551,177.913,3.01025,-144.932,476
1569940865,381.298,-168.101,-12.0551,177.913,3.01025,-144.932,476
1569940865,381.298,-168.101,-12.0551,177.913,3.01025,-144.932,476
1569940865,381.298,-168.101,-12.0551,177.913,3.01025,-144.91,476
1569940865,381.409,-168.101,-12.0551,177.913,3.01025,-144.91,476
1569940865,381.409,-168.101,-12.0551,177.913,3.01025,-144.91,476
1569940865,381.409,-168.101,-12.0551,177.913,3.01025,-144.91,472
1569940865,381.409,-168.101,-12.0551,177.891,3.01025,-144.91,472
1569940865,381.409,-168.101,-12.0551,177.891,3.01025,-144.91,472
1569940865,381.409,-168.101,-12.0551,177.891,3.01025,-144.91,472
1569940865,381.409,-168.101,-12.0551,177.891,3.01025,-144.91,472
1569940865,381.409,-168.101,-12.0551,177.891,3.01025,-144.91,468
1569940865,381.409,-168.101,-12.0551,177.891,3.01025,-144.91,468
1569940865,381.409,-168.101,-12.0551,177.891,3.03223,-144.91,468
1569940865,381.409,-168.101,-11.9435,177.891,3.03223,-144.91,468
1569940865,381.409,-168.101,-11.9435,177.913,3.03223,-144.91,468
1569940865,381.409,-168.101,-11.9435,177.913,3.03223,-144.91,468
1569940865,381.409,-168.101,-11.9435,177.913,3.03223,-144.91,468
1569940865,381.409,-168.101,-11.9435,177.913,3.03223,-144.91,464
1569940865,381.521,-168.101,-11.9435,177.913,3.03223,-144.91,464
1569940865,381.521,-168.101,-11.9435,177.913,3.03223,-144.91,464
1569940865,381.521,-168.101,-11.9435,177.935,3.03223,-144.91,464
1569940865,381.521,-168.101,-11.9435,177.935,3.03223,-144.91,464
1569940865,381.521,-168.101,-11.9435,177.935,3.03223,-144.91,464
1569940865,381.521,-168.101,-12.0551,177.935,3.03223,-144.91,464
1569940865,381.521,-168.101,-12.0551,177.935,3.03223,-144.91,464
1569940865,381.521,-168.101,-12.0551,177.935,3.03223,-144.91,464
1569940865,381.521,-168.101,-12.0551,177.935,3.03223,-144.91,464
1569940865,381.521,-168.101,-12.0551,177.935,3.03223,-144.91,464
1569940865,381.521,-168.101,-12.0551,177.935,3.03223,-144.91,468
1569940865,381.521,-168.101,-12.0551,177.935,3.03223,-144.91,468
1569940865,381.521,-168.101,-12.0551,177.935,3.03223,-144.91,468
1569940865,381.521,-168.101,-12.0551,177.935,3.03223,-144.91,468
1569940865,381.521,-168.101,-12.0551,177.913,3.03223,-144.91,472
1569940865,381.521,-168.101,-12.0551,177.913,3.03223,-144.91,472
1569940865,381.521,-168.213,-12.0551,177.913,3.01025,-144.91,472
1569940865,381.521,-168.213,-12.0551,177.913,3.01025,-144.91,472
1569940865,381.521,-168.213,-12.0551,177.913,3.01025,-144.91,472
1569940865,381.521,-168.213,-12.0551,177.913,3.01025,-144.91,472
1569940865,381.521,-168.213,-12.0551,177.913,3.01025,-144.91,472
1569940865,381.521,-168.213,-12.0551,177.891,3.01025,-144.91,476
1569940865,381.521,-168.213,-12.0551,177.891,3.03223,-144.91,476
1569940865,381.521,-168.213,-12.0551,177.913,3.03223,-144.91,476
1569940865,381.521,-168.213,-12.0551,177.913,3.03223,-144.91,476
1569940865,381.521,-168.213,-12.0551,177.913,3.03223,-144.91,476
1569940865,381.521,-168.213,-12.0551,177.913,3.03223,-144.91,472
1569940865,381.521,-168.213,-12.0551,177.913,3.03223,-144.91,472
1569940865,381.521,-168.213,-12.0551,177.913,3.03223,-144.91,472
1569940865,381.521,-168.213,-12.0551,177.913,3.01025,-144.91,472
1569940865,381.521,-168.213,-12.0551,177.913,3.01025,-144.91,472
1569940865,381.521,-168.213,-12.0551,177.935,3.01025,-144.91,472
1569940865,381.521,-168.213,-12.0551,177.935,3.01025,-144.91,472
1569940865,381.521,-168.213,-12.0551,177.935,3.01025,-144.91,472
1569940865,381.521,-168.213,-12.0551,177.935,3.01025,-144.91,472
1569940865,381.521,-168.213,-12.0551,177.935,3.01025,-144.888,472
1569940865,381.521,-168.213,-12.0551,177.935,3.01025,-144.888,472
1569940865,381.521,-168.213,-12.0551,177.935,3.01025,-144.888,472
1569940865,381.521,-168.213,-12.0551,177.935,3.03223,-144.888,468
1569940865,381.521,-168.213,-11.9435,177.935,3.03223,-144.888,468
1569940865,381.521,-168.213,-11.9435,177.935,3.03223,-144.888,468
1569940865,381.521,-168.213,-11.9435,177.935,3.03223,-144.888,468
1569940865,381.521,-168.213,-11.9435,177.935,3.03223,-144.888,468
1569940865,381.521,-168.213,-11.9435,177.935,3.03223,-144.888,468
1569940865,381.521,-168.213,-11.9435,177.935,3.03223,-144.888,464
1569940865,381.521,-168.101,-11.9435,177.935,3.0542,-144.888,464
1569940865,381.521,-168.101,-11.9435,177.935,3.0542,-144.888,464
1569940865,381.521,-168.101,-11.9435,177.935,3.0542,-144.888,464
1569940865,381.521,-168.101,-11.9435,177.935,3.0542,-144.888,464
1569940865,381.521,-168.101,-11.9435,177.935,3.0542,-144.888,464
1569940865,381.521,-168.101,-11.9435,177.935,3.0542,-144.888,464
1569940865,381.521,-168.101,-11.9435,177.935,3.0542,-144.888,464
1569940865,381.521,-168.101,-11.9435,177.935,3.0542,-144.888,464
1569940865,381.409,-168.101,-11.9435,177.935,3.0542,-144.888,464
1569940865,381.409,-168.101,-11.9435,177.935,3.0542,-144.888,468
1569940865,381.409,-168.101,-11.9435,177.913,3.0542,-144.888,468
1569940865,381.409,-168.101,-11.8318,177.913,3.0542,-144.888,468
1569940865,381.409,-168.101,-11.8318,177.913,3.0542,-144.888,468
1569940865,381.409,-168.101,-11.8318,177.913,3.0542,-144.888,472
1569940865,381.409,-168.101,-11.8318,177.913,3.0542,-144.888,472
1569940865,381.409,-168.101,-11.8318,177.913,3.0542,-144.888,472
1569940865,381.409,-168.101,-11.8318,177.913,3.0542,-144.888,472
1569940865,381.409,-168.101,-11.8318,177.913,3.0542,-144.888,476
1569940865,381.409,-168.101,-11.8318,177.913,3.0542,-144.888,476
1569940865,381.409,-168.101,-11.8318,177.913,3.0542,-144.866,476
1569940865,381.409,-168.101,-11.8318,177.935,3.0542,-144.866,476
1569940865,381.409,-168.101,-11.8318,177.935,3.0542,-144.866,480
1569940865,381.409,-168.101,-11.8318,177.935,3.0542,-144.866,480
1569940865,381.409,-168.101,-11.9435,177.935,3.0542,-144.866,480
1569940865,381.409,-168.101,-11.9435,177.935,3.03223,-144.888,480
1569940865,381.409,-168.101,-11.9435,177.935,3.03223,-144.888,484
1569940865,381.409,-168.101,-11.9435,177.935,3.03223,-144.866,484
1569940865,381.409,-168.101,-11.9435,177.935,3.03223,-144.866,484
1569940866,381.409,-168.101,-11.9435,177.935,3.03223,-144.866,484
1569940866,381.409,-168.101,-11.9435,177.935,3.01025,-144.866,488
1569940866,381.409,-168.101,-11.9435,177.935,3.01025,-144.866,488
1569940866,381.409,-168.101,-12.0551,177.935,3.01025,-144.866,488
1569940866,381.409,-168.101,-12.0551,177.935,3.01025,-144.866,488
1569940866,381.409,-168.101,-12.0551,177.913,3.01025,-144.866,488
1569940866,381.409,-168.101,-12.0551,177.913,3.01025,-144.888,492
1569940866,381.409,-168.101,-12.0551,177.913,3.01025,-144.888,492
1569940866,381.409,-168.101,-12.0551,177.913,3.01025,-144.888,492
1569940866,381.409,-168.101,-12.0551,177.913,2.98828,-144.888,492
1569940866,381.409,-168.101,-12.0551,177.913,2.98828,-144.888,492
1569940866,381.409,-168.101,-12.0551,177.935,2.98828,-144.888,492
1569940866,381.409,-168.101,-12.0551,177.935,2.98828,-144.888,492
1569940866,381.409,-168.101,-12.0551,177.935,2.98828,-144.888,492
1569940866,381.409,-168.101,-12.0551,177.935,2.98828,-144.866,492
1569940866,381.409,-168.101,-12.0551,177.935,2.98828,-144.866,492
1569940866,381.521,-168.101,-12.0551,177.935,2.98828,-144.866,492
1569940866,381.521,-168.101,-12.0551,177.935,2.98828,-144.866,492
1569940866,381.521,-168.101,-12.0551,177.935,2.98828,-144.866,488
1569940866,381.521,-168.101,-12.0551,177.935,2.98828,-144.866,488
1569940866,381.521,-168.101,-12.1667,177.913,2.98828,-144.866,488
1569940866,381.521,-168.101,-12.1667,177.913,2.98828,-144.888,484
1569940866,381.521,-168.213,-12.1667,177.913,2.98828,-144.888,484
1569940866,381.521,-168.213,-12.1667,177.913,2.96631,-144.888,484
1569940866,381.521,-168.213,-12.1667,177.913,2.96631,-144.888,480
1569940866,381.521,-168.213,-12.1667,177.913,2.96631,-144.888,480
1569940866,381.521,-168.213,-12.1667,177.891,2.96631,-144.888,480
1569940866,381.521,-168.213,-12.1667,177.891,2.96631,-144.888,476
1569940866,381.521,-168.213,-12.1667,177.891,2.96631,-144.888,476
1569940866,381.521,-168.213,-12.1667,177.891,2.96631,-144.888,476
1569940866,381.521,-168.213,-12.1667,177.891,2.96631,-144.888,476
1569940866,381.521,-168.213,-12.1667,177.891,2.96631,-144.888,476
1569940866,381.521,-168.213,-12.1667,177.891,2.96631,-144.888,472
1569940866,381.521,-168.213,-12.1667,177.891,2.96631,-144.888,472
1569940866,381.521,-168.213,-12.1667,177.891,2.96631,-144.888,472
1569940866,381.521,-168.213,-12.1667,177.891,2.96631,-144.888,472
1569940866,381.521,-168.213,-12.1667,177.913,2.96631,-144.888,476
1569940866,381.521,-168.213,-12.1667,177.913,2.96631,-144.888,476
1569940866,381.521,-168.213,-12.1667,177.913,2.98828,-144.888,476
1569940866,381.521,-168.101,-12.1667,177.913,2.98828,-144.888,476
1569940866,381.521,-168.101,-12.1667,177.935,2.98828,-144.888,480
1569940866,381.521,-168.101,-12.1667,177.935,2.98828,-144.888,480
1569940866,381.521,-168.101,-12.1667,177.935,2.98828,-144.888,480
1569940866,381.521,-168.101,-12.1667,177.935,2.98828,-144.888,484
1569940866,381.521,-168.101,-12.0551,177.935,2.98828,-144.888,484
1569940866,381.521,-168.101,-12.1667,177.935,2.98828,-144.888,484
1569940866,381.521,-168.101,-12.1667,177.935,2.98828,-144.888,484
1569940866,381.521,-168.101,-12.1667,177.935,2.98828,-144.888,484
1569940866,381.521,-168.101,-12.1667,177.935,2.98828,-144.888,488
1569940866,381.521,-168.101,-12.1667,177.935,2.98828,-144.888,488
1569940866,381.521,-168.101,-12.1667,177.935,2.98828,-144.888,488
1569940866,381.521,-168.101,-12.1667,177.935,2.98828,-144.888,488
1569940866,381.409,-168.101,-12.1667,177.935,2.98828,-144.888,488
1569940866,381.409,-168.101,-12.1667,177.935,2.98828,-144.91,488
1569940866,381.521,-168.101,-12.1667,177.935,2.98828,-144.91,488
1569940866,381.521,-168.101,-12.0551,177.935,2.98828,-144.91,488
1569940866,381.521,-168.101,-12.0551,177.935,2.98828,-144.888,488
1569940866,381.521,-168.101,-12.0551,177.935,2.98828,-144.888,488
1569940866,381.521,-168.101,-12.0551,177.935,3.01025,-144.888,488
1569940866,381.521,-168.101,-12.0551,177.935,3.01025,-144.888,488
1569940866,381.521,-168.101,-12.0551,177.935,3.01025,-144.888,488
1569940866,381.521,-168.101,-12.0551,177.957,3.01025,-144.888,488
1569940866,381.521,-168.101,-12.0551,177.957,3.01025,-144.888,488
1569940866,381.521,-168.101,-12.0551,177.957,3.01025,-144.888,484
1569940866,381.521,-168.101,-12.0551,177.957,3.01025,-144.888,484
1569940866,381.521,-168.101,-12.0551,177.957,3.01025,-144.866,484
1569940866,381.521,-168.101,-12.0551,177.957,3.01025,-144.866,484
1569940866,381.521,-168.101,-11.9435,177.957,3.01025,-144.866,488
1569940866,381.521,-167.99,-11.9435,177.957,3.03223,-144.866,488
1569940866,381.521,-167.99,-11.9435,177.957,3.03223,-144.866,488
1569940866,381.521,-168.101,-11.9435,177.957,3.01025,-144.866,488
1569940866,381.521,-168.101,-11.9435,177.957,3.01025,-144.866,488
1569940866,381.521,-168.101,-11.9435,177.957,3.01025,-144.866,488
1569940866,381.521,-168.101,-11.9435,177.957,3.01025,-144.866,488
1569940866,381.521,-168.101,-11.9435,177.957,3.01025,-144.866,488
1569940866,381.521,-168.101,-11.9435,177.957,3.01025,-144.866,488
1569940866,381.521,-168.101,-11.9435,177.957,3.01025,-144.888,488
1569940866,381.521,-168.101,-11.9435,177.957,3.01025,-144.888,488
1569940866,381.521,-168.101,-11.9435,177.957,3.01025,-144.888,488
1569940866,381.521,-168.101,-11.9435,177.957,3.01025,-144.888,488
1569940866,381.521,-168.101,-11.9435,177.957,3.01025,-144.888,484
1569940866,381.521,-168.101,-11.9435,177.957,3.01025,-144.888,484
1569940866,381.521,-168.101,-11.9435,177.957,3.01025,-144.888,484
1569940866,381.521,-168.101,-11.9435,177.957,3.03223,-144.888,484
1569940866,381.521,-168.101,-11.9435,177.957,3.03223,-144.888,480
1569940866,381.521,-168.101,-11.9435,177.935,3.03223,-144.888,480
1569940866,381.521,-168.101,-11.9435,177.935,3.03223,-144.888,480
1569940866,381.521,-168.101,-11.9435,177.935,3.03223,-144.888,480
1569940866,381.521,-168.101,-11.9435,177.935,3.03223,-144.91,476
1569940866,381.521,-168.101,-11.9435,177.935,3.03223,-144.91,476
1569940866,381.521,-168.213,-11.9435,177.935,3.03223,-144.888,476
1569940866,381.521,-168.213,-11.9435,177.913,3.03223,-144.91,476
1569940866,381.521,-168.213,-12.0551,177.913,3.01025,-144.91,476
1569940866,381.521,-168.213,-12.0551,177.913,3.01025,-144.91,476
1569940866,381.521,-168.101,-12.0551,177.935,3.01025,-144.888,476
1569940866,381.521,-168.101,-12.0551,177.935,3.01025,-144.888,476
1569940866,381.521,-168.101,-12.0551,177.935,2.98828,-144.888,476
1569940866,381.521,-168.101,-12.0551,177.935,2.98828,-144.888,476
1569940866,381.521,-168.101,-12.1667,177.935,2.98828,-144.91,476
1569940866,381.521,-168.101,-12.1667,177.935,2.98828,-144.91,476
1569940867,381.409,-168.101,-12.1667,177.935,2.98828,-144.91,476
1569940867,381.409,-168.101,-12.1667,177.935,2.96631,-144.91,476
1569940867,381.409,-168.101,-12.1667,177.935,2.96631,-144.91,480
1569940867,381.409,-168.101,-12.1667,177.935,2.96631,-144.91,480
1569940867,381.409,-168.101,-12.1667,177.935,2.96631,-144.91,480
1569940867,381.409,-168.101,-12.1667,177.935,2.96631,-144.91,480
1569940867,381.409,-168.101,-12.1667,177.935,2.96631,-144.91,484
1569940867,381.409,-168.101,-12.1667,177.935,2.96631,-144.91,484
1569940867,381.409,-168.101,-12.1667,177.935,2.98828,-144.91,484
1569940867,381.409,-168.101,-12.1667,177.935,2.98828,-144.91,488
1569940867,381.409,-168.101,-12.1667,177.935,2.98828,-144.91,488
1569940867,381.409,-168.101,-12.1667,177.935,2.98828,-144.91,488
1569940867,381.409,-168.101,-12.1667,177.935,2.98828,-144.91,488
1569940867,381.409,-168.101,-12.1667,177.935,2.98828,-144.91,488
1569940867,381.409,-168.101,-12.1667,177.935,2.98828,-144.91,488
1569940867,381.409,-168.101,-12.1667,177.935,2.98828,-144.91,488
1569940867,381.409,-168.101,-12.1667,177.935,2.98828,-144.91,488
1569940867,381.409,-168.101,-12.1667,177.935,2.98828,-144.91,488
1569940867,381.409,-168.101,-12.0551,177.913,2.98828,-144.91,488
1569940867,381.409,-168.101,-12.0551,177.913,2.98828,-144.91,488
1569940867,381.409,-168.101,-12.0551,177.913,2.98828,-144.91,488
1569940867,381.409,-168.101,-12.0551,177.913,2.98828,-144.91,488
1569940867,381.409,-168.101,-12.0551,177.913,2.98828,-144.91,488
1569940867,381.409,-168.101,-12.0551,177.913,2.98828,-144.91,488
1569940867,381.409,-168.101,-12.0551,177.913,2.98828,-144.91,484
1569940867,381.409,-168.101,-12.1667,177.913,2.96631,-144.91,484
1569940867,381.409,-168.101,-12.1667,177.913,2.96631,-144.91,484
1569940867,381.409,-168.101,-12.1667,177.913,2.96631,-144.91,480
1569940867,381.409,-168.101,-12.1667,177.913,2.96631,-144.91,480
1569940867,381.409,-168.101,-12.1667,177.913,2.96631,-144.91,480
1569940867,381.409,-168.101,-12.1667,177.913,2.96631,-144.91,476
1569940867,381.409,-168.101,-12.1667,177.913,2.94434,-144.91,476
1569940867,381.409,-168.101,-12.1667,177.913,2.94434,-144.91,472
1569940867,381.409,-168.101,-12.1667,177.913,2.94434,-144.91,472
1569940867,381.409,-168.101,-12.1667,177.913,2.94434,-144.91,468
1569940867,381.409,-168.101,-12.1667,177.913,2.96631,-144.91,468
1569940867,381.409,-168.101,-12.1667,177.913,2.96631,-144.91,464
1569940867,381.409,-168.101,-12.1667,177.913,2.96631,-144.91,464
1569940867,381.409,-168.101,-12.1667,177.913,2.96631,-144.91,464
1569940867,381.409,-168.101,-12.1667,177.913,2.96631,-144.91,464
1569940867,381.409,-168.101,-12.1667,177.913,2.96631,-144.888,464
1569940867,381.409,-168.101,-12.1667,177.913,2.96631,-144.888,464
1569940867,381.409,-168.101,-12.0551,177.935,2.96631,-144.888,464
1569940867,381.409,-168.101,-12.0551,177.935,2.96631,-144.888,464
1569940867,381.409,-168.101,-12.0551,177.935,2.96631,-144.888,464
1569940867,381.409,-168.101,-12.0551,177.935,2.96631,-144.888,468
1569940867,381.409,-168.101,-12.0551,177.935,2.96631,-144.888,468
1569940867,381.409,-168.101,-12.1667,177.935,2.96631,-144.888,472
1569940867,381.409,-167.99,-12.1667,177.935,2.96631,-144.888,472
1569940867,381.409,-167.99,-12.1667,177.935,2.96631,-144.888,476
1569940867,381.409,-168.101,-12.1667,177.935,2.96631,-144.888,476
1569940867,381.409,-168.101,-12.1667,177.935,2.96631,-144.888,476
1569940867,381.409,-168.101,-12.1667,177.935,2.96631,-144.888,480
1569940867,381.409,-168.101,-12.1667,177.935,2.96631,-144.888,480
1569940867,381.409,-168.101,-12.1667,177.935,2.96631,-144.888,484
1569940867,381.409,-168.101,-12.1667,177.935,2.96631,-144.888,484
1569940867,381.409,-168.101,-12.1667,177.935,2.96631,-144.888,488
1569940867,381.409,-168.101,-12.1667,177.913,2.96631,-144.888,488
1569940867,381.409,-168.101,-12.1667,177.913,2.96631,-144.888,492
1569940867,381.409,-168.101,-12.1667,177.913,2.96631,-144.888,492
1569940867,381.409,-168.101,-12.1667,177.935,2.96631,-144.888,496
1569940867,381.409,-168.101,-12.1667,177.935,2.96631,-144.888,496
1569940867,381.409,-168.101,-12.1667,177.935,2.96631,-144.888,496
1569940867,381.409,-168.101,-12.1667,177.935,2.96631,-144.888,496
1569940867,381.409,-168.101,-12.1667,177.935,2.96631,-144.888,496
1569940867,381.409,-168.101,-12.1667,177.935,2.96631,-144.888,496
1569940867,381.409,-168.101,-12.1667,177.935,2.96631,-144.888,496
1569940867,381.409,-168.101,-12.1667,177.935,2.96631,-144.888,496
1569940867,381.409,-168.101,-12.1667,177.935,2.96631,-144.888,496
1569940867,381.409,-168.101,-12.1667,177.935,2.96631,-144.888,496
1569940867,381.409,-168.101,-12.1667,177.935,2.96631,-144.888,496
1569940867,381.409,-168.101,-12.1667,177.935,2.96631,-144.888,492
1569940867,381.409,-168.101,-12.1667,177.935,2.94434,-144.888,492
1569940867,381.409,-168.101,-12.1667,177.935,2.94434,-144.888,492
1569940867,381.409,-168.101,-12.1667,177.935,2.94434,-144.888,492
1569940867,381.409,-168.101,-12.2783,177.935,2.94434,-144.888,492
1569940867,381.409,-168.101,-12.2783,177.935,2.94434,-144.888,492
1569940867,381.409,-168.101,-12.2783,177.935,2.94434,-144.888,492
1569940867,381.409,-168.101,-12.2783,177.935,2.94434,-144.888,492
1569940867,381.409,-168.101,-12.2783,177.935,2.94434,-144.888,492
1569940867,381.409,-168.101,-12.1667,177.935,2.94434,-144.888,492
1569940867,381.409,-168.101,-12.1667,177.935,2.94434,-144.888,492
1569940867,381.409,-168.101,-12.1667,177.935,2.96631,-144.888,492
1569940867,381.521,-168.101,-12.1667,177.957,2.96631,-144.888,492
1569940867,381.521,-168.101,-12.1667,177.957,2.96631,-144.888,492
1569940867,381.521,-167.99,-12.1667,177.957,2.96631,-144.888,492
1569940867,381.521,-167.99,-12.1667,177.957,2.96631,-144.888,492
1569940867,381.521,-167.99,-12.1667,177.957,2.96631,-144.888,492
1569940867,381.521,-168.101,-12.1667,177.935,2.96631,-144.888,492
1569940867,381.521,-168.101,-12.1667,177.935,2.96631,-144.888,492
1569940867,381.521,-168.101,-12.1667,177.935,2.96631,-144.888,492
1569940867,381.521,-168.101,-12.1667,177.935,2.94434,-144.888,492
1569940867,381.521,-168.101,-12.1667,177.935,2.94434,-144.888,492
1569940867,381.409,-168.101,-12.1667,177.935,2.94434,-144.888,492
1569940867,381.409,-168.101,-12.2783,177.935,2.94434,-144.888,492
1569940867,381.409,-168.101,-12.2783,177.913,2.94434,-144.888,492
1569940867,381.409,-168.101,-12.2783,177.913,2.94434,-144.888,492
1569940867,381.409,-168.213,-12.2783,177.913,2.94434,-144.888,492
1569940867,381.409,-168.213,-12.2783,177.913,2.94434,-144.888,492
1569940867,381.409,-168.213,-12.2783,177.913,2.94434,-144.888,492
1569940868,381.409,-168.213,-12.2783,177.913,2.94434,-144.888,492
1569940868,381.409,-168.213,-12.1667,177.913,2.94434,-144.888,488
1569940868,381.409,-168.213,-12.1667,177.913,2.94434,-144.888,488
1569940868,381.409,-168.213,-12.1667,177.913,2.94434,-144.888,488
1569940868,381.409,-168.213,-12.1667,177.913,2.94434,-144.888,488
1569940868,381.409,-168.213,-12.1667,177.913,2.96631,-144.888,488
1569940868,381.409,-168.213,-12.1667,177.913,2.96631,-144.888,488
1569940868,381.409,-168.213,-12.1667,177.913,2.96631,-144.888,488
1569940868,381.409,-168.213,-12.1667,177.913,2.96631,-144.888,488
1569940868,381.409,-168.213,-12.1667,177.913,2.96631,-144.888,488
1569940868,381.521,-168.213,-12.1667,177.913,2.96631,-144.888,488
1569940868,381.521,-168.213,-12.1667,177.913,2.96631,-144.888,488
1569940868,381.521,-168.213,-12.1667,177.913,2.96631,-144.888,488
1569940868,381.521,-168.213,-12.1667,177.913,2.96631,-144.888,488
1569940868,381.521,-168.213,-12.1667,177.913,2.96631,-144.888,484
1569940868,381.521,-168.213,-12.1667,177.913,2.96631,-144.888,484
1569940868,381.521,-168.213,-12.1667,177.913,2.96631,-144.888,484
1569940868,381.521,-168.213,-12.1667,177.913,2.96631,-144.888,480
1569940868,381.521,-168.213,-12.1667,177.913,2.96631,-144.888,480
1569940868,381.409,-168.213,-12.0551,177.913,2.96631,-144.888,480
1569940868,381.409,-168.213,-12.0551,177.913,2.98828,-144.888,476
1569940868,381.409,-168.101,-12.0551,177.913,2.98828,-144.888,476
1569940868,381.409,-168.101,-12.0551,177.913,2.98828,-144.888,476
1569940868,381.409,-168.101,-12.0551,177.913,2.98828,-144.888,476
1569940868,381.409,-168.101,-12.0551,177.913,2.98828,-144.888,476
1569940868,381.409,-168.101,-12.0551,177.913,2.98828,-144.888,476
1569940868,381.409,-168.101,-12.0551,177.913,3.01025,-144.888,476
1569940868,381.409,-168.101,-12.0551,177.913,3.01025,-144.888,476
1569940868,381.409,-168.101,-11.9435,177.913,3.01025,-144.888,476
1569940868,381.409,-168.101,-11.9435,177.913,3.01025,-144.888,476
1569940868,381.409,-168.101,-11.9435,177.913,3.01025,-144.888,476
1569940868,381.409,-168.101,-11.9435,177.913,3.01025,-144.888,476
1569940868,381.409,-168.101,-12.0551,177.935,3.01025,-144.888,476
1569940868,381.409,-168.101,-12.0551,177.935,3.01025,-144.888,476
1569940868,381.409,-168.101,-12.0551,177.935,3.01025,-144.888,476
1569940868,381.409,-168.101,-12.0551,177.935,3.01025,-144.888,476
1569940868,381.409,-168.101,-12.0551,177.935,3.01025,-144.888,476
1569940868,381.409,-168.101,-12.0551,177.913,3.01025,-144.888,476
1569940868,381.409,-168.101,-12.0551,177.913,3.01025,-144.888,476
1569940868,381.409,-168.101,-12.0551,177.913,3.01025,-144.888,476
1569940868,381.409,-168.101,-12.0551,177.913,3.01025,-144.888,476
1569940868,381.409,-168.101,-11.9435,177.913,3.01025,-144.888,476
1569940868,381.409,-168.101,-11.9435,177.913,3.01025,-144.888,476
1569940868,381.409,-168.101,-11.9435,177.913,3.01025,-144.888,476
1569940868,381.409,-168.101,-11.9435,177.913,3.01025,-144.888,476
1569940868,381.409,-168.101,-11.9435,177.935,3.01025,-144.888,476
1569940868,381.409,-168.101,-11.9435,177.935,3.01025,-144.888,476
1569940868,381.409,-168.101,-11.9435,177.935,3.01025,-144.888,476
1569940868,381.409,-168.101,-11.9435,177.935,3.01025,-144.888,476
1569940868,381.409,-168.101,-11.9435,177.935,3.01025,-144.888,476
1569940868,381.409,-168.101,-11.9435,177.935,3.01025,-144.888,476
1569940868,381.409,-168.101,-11.9435,177.935,3.01025,-144.888,476
1569940868,381.409,-168.101,-11.9435,177.957,3.01025,-144.888,476
1569940868,381.409,-168.101,-11.9435,177.957,3.01025,-144.888,476
1569940868,381.521,-168.101,-11.9435,177.957,3.01025,-144.888,476
1569940868,381.521,-168.101,-11.9435,177.957,3.01025,-144.888,480
1569940868,381.521,-168.101,-12.0551,177.957,3.01025,-144.888,480
1569940868,381.521,-168.101,-12.0551,177.957,3.01025,-144.888,480
1569940868,381.521,-168.101,-12.0551,177.957,3.01025,-144.888,480
1569940868,381.521,-168.101,-12.0551,177.957,3.01025,-144.888,480
1569940868,381.521,-168.101,-12.0551,177.935,3.01025,-144.888,480
1569940868,381.521,-168.101,-11.9435,177.935,3.01025,-144.888,480
1569940868,381.521,-168.101,-11.9435,177.935,3.01025,-144.888,480
1569940868,381.521,-168.101,-11.9435,177.935,3.01025,-144.888,476
1569940868,381.521,-168.101,-11.9435,177.935,3.01025,-144.888,476
1569940868,381.521,-168.101,-11.9435,177.935,3.01025,-144.888,476
1569940868,381.521,-168.101,-11.9435,177.935,3.03223,-144.888,476
1569940868,381.521,-168.101,-11.9435,177.935,3.03223,-144.888,476
1569940868,381.521,-168.101,-11.8318,177.935,3.03223,-144.888,476
1569940868,381.521,-168.101,-11.8318,177.935,3.03223,-144.888,476
1569940868,381.521,-168.101,-11.8318,177.935,3.0542,-144.888,476
1569940868,381.521,-168.101,-11.8318,177.935,3.0542,-144.888,476
1569940868,381.521,-168.101,-11.8318,177.935,3.0542,-144.888,476
1569940871,358.415,-142.875,-12.5016,178.066,2.72461,-144.712,388
1569940871,358.415,-142.875,-12.5016,178.066,2.72461,-144.712,388
1569940871,358.415,-142.763,-12.5016,178.066,2.72461,-144.712,388
1569940871,358.415,-142.763,-12.5016,178.066,2.72461,-144.712,388
1569940871,358.415,-142.763,-12.5016,178.066,2.72461,-144.712,388
1569940871,358.415,-142.763,-12.5016,178.066,2.72461,-144.712,388
1569940871,358.415,-142.763,-12.5016,178.066,2.72461,-144.712,388
1569940871,358.415,-142.763,-12.5016,178.066,2.72461,-144.712,388
1569940871,358.415,-142.763,-12.5016,178.066,2.70264,-144.712,388
1569940871,358.415,-142.763,-12.5016,178.066,2.70264,-144.734,388
1569940871,358.415,-142.763,-12.5016,178.066,2.70264,-144.734,392
1569940871,358.415,-142.763,-12.5016,178.066,2.70264,-144.734,392
1569940871,358.415,-142.763,-12.5016,178.066,2.70264,-144.734,392
1569940871,358.415,-142.763,-12.5016,178.066,2.70264,-144.734,396
1569940871,358.415,-142.763,-12.5016,178.066,2.70264,-144.734,396
1569940871,358.415,-142.763,-12.5016,178.066,2.70264,-144.734,396
1569940871,358.415,-142.763,-12.5016,178.066,2.70264,-144.734,400
1569940871,358.415,-142.763,-12.5016,178.066,2.70264,-144.734,400
1569940871,358.415,-142.763,-12.5016,178.066,2.72461,-144.734,400
1569940872,358.415,-142.763,-12.5016,178.066,2.72461,-144.734,400
1569940872,358.415,-142.763,-12.5016,178.066,2.72461,-144.734,404
1569940872,358.415,-142.763,-12.5016,178.066,2.72461,-144.734,404
1569940872,358.415,-142.763,-12.5016,178.066,2.72461,-144.734,404
1569940872,358.415,-142.763,-12.5016,178.066,2.72461,-144.734,404
1569940872,358.415,-142.763,-12.5016,178.066,2.72461,-144.734,404
1569940872,358.415,-142.763,-12.5016,178.066,2.70264,-144.734,404
1569940872,358.415,-142.763,-12.5016,178.088,2.70264,-144.734,408
1569940872,358.415,-142.763,-12.5016,178.088,2.70264,-144.734,408
1569940872,358.415,-142.763,-12.5016,178.088,2.70264,-144.712,404
1569940872,358.415,-142.763,-12.5016,178.088,2.70264,-144.712,404
1569940872,358.415,-142.763,-12.5016,178.088,2.70264,-144.712,404
1569940872,358.415,-142.763,-12.5016,178.066,2.70264,-144.712,404
1569940872,358.415,-142.763,-12.5016,178.066,2.70264,-144.712,404
1569940872,358.415,-142.875,-12.5016,178.066,2.70264,-144.712,404
1569940872,358.415,-142.875,-12.5016,178.066,2.72461,-144.712,404
1569940872,358.415,-142.875,-12.5016,178.066,2.72461,-144.712,400
1569940872,358.415,-142.875,-12.3899,178.066,2.72461,-144.712,400
1569940872,358.415,-142.875,-12.3899,178.044,2.72461,-144.712,400
1569940872,358.415,-142.875,-12.3899,178.044,2.72461,-144.712,400
1569940872,358.415,-142.875,-12.3899,178.044,2.72461,-144.712,400
1569940872,358.415,-142.875,-12.3899,178.044,2.72461,-144.712,400
1569940872,358.415,-142.875,-12.3899,178.044,2.72461,-144.712,400
1569940872,358.415,-142.875,-12.3899,178.044,2.74658,-144.712,396
1569940872,358.415,-142.875,-12.3899,178.044,2.74658,-144.712,396
1569940872,358.415,-142.875,-12.3899,178.044,2.74658,-144.712,396
1569940872,358.415,-142.875,-12.3899,178.044,2.74658,-144.712,396
1569940872,358.415,-142.875,-12.3899,178.044,2.74658,-144.712,396
1569940872,358.415,-142.875,-12.3899,178.044,2.74658,-144.712,396
1569940872,358.415,-142.875,-12.3899,178.044,2.74658,-144.712,396
1569940872,358.415,-142.875,-12.3899,178.044,2.74658,-144.712,396
1569940872,358.415,-142.875,-12.3899,178.044,2.74658,-144.712,396
1569940872,358.415,-142.875,-12.3899,178.044,2.74658,-144.712,396
1569940872,358.415,-142.875,-12.3899,178.044,2.74658,-144.712,396
1569940872,358.415,-142.875,-12.3899,178.044,2.72461,-144.712,396
1569940872,358.415,-142.875,-12.3899,178.044,2.72461,-144.712,396
1569940872,358.415,-142.875,-12.3899,178.044,2.72461,-144.712,396
1569940872,358.415,-142.875,-12.3899,178.044,2.72461,-144.712,396
1569940872,358.415,-142.875,-12.3899,178.044,2.72461,-144.712,396
1569940872,358.415,-142.875,-12.3899,178.044,2.72461,-144.712,396
1569940872,358.415,-142.875,-12.3899,178.044,2.72461,-144.712,396
1569940872,358.415,-142.875,-12.3899,178.044,2.72461,-144.712,396
1569940872,358.415,-142.875,-12.3899,178.044,2.72461,-144.712,396
1569940872,358.415,-142.875,-12.3899,178.044,2.72461,-144.712,396
1569940872,358.415,-142.875,-12.3899,178.044,2.72461,-144.712,396
1569940872,358.415,-142.875,-12.3899,178.044,2.72461,-144.712,396
1569940872,358.415,-142.875,-12.3899,178.044,2.72461,-144.712,396
1569940872,358.415,-142.875,-12.3899,178.044,2.72461,-144.712,396
1569940872,358.415,-142.875,-12.3899,178.044,2.72461,-144.712,396
1569940872,358.415,-142.875,-12.3899,178.044,2.72461,-144.712,396
1569940872,358.415,-142.875,-12.3899,178.044,2.72461,-144.712,396
1569940872,358.415,-142.875,-12.3899,178.044,2.72461,-144.712,396
1569940872,358.415,-142.875,-12.3899,178.044,2.72461,-144.712,396
1569940872,358.415,-142.875,-12.3899,178.044,2.72461,-144.69,396
1569940872,358.415,-142.875,-12.3899,178.044,2.72461,-144.69,396
1569940872,358.415,-142.875,-12.3899,178.044,2.72461,-144.69,396
1569940872,358.415,-142.875,-12.3899,178.044,2.72461,-144.69,392
1569940872,358.415,-142.875,-12.3899,178.044,2.72461,-144.69,392
1569940872,358.415,-142.875,-12.3899,178.044,2.72461,-144.69,392
1569940872,358.415,-142.875,-12.3899,178.044,2.72461,-144.69,392
1569940872,358.415,-142.875,-12.3899,178.044,2.72461,-144.69,392
1569940872,358.415,-142.875,-12.3899,178.044,2.72461,-144.69,392
1569940872,358.415,-142.875,-12.3899,178.044,2.72461,-144.69,388
1569940872,358.415,-142.875,-12.3899,178.044,2.72461,-144.69,388
1569940872,358.415,-142.875,-12.3899,178.044,2.72461,-144.69,388
1569940872,358.415,-142.875,-12.3899,178.044,2.72461,-144.69,388
1569940872,358.415,-142.987,-12.3899,178.044,2.72461,-144.69,388
1569940872,358.415,-142.987,-12.3899,178.044,2.72461,-144.69,388
1569940872,358.415,-142.987,-12.3899,178.044,2.72461,-144.712,388
1569940872,358.415,-142.875,-12.5016,178.044,2.72461,-144.712,384
1569940872,358.415,-142.875,-12.5016,178.044,2.72461,-144.712,384
1569940872,358.415,-142.875,-12.5016,178.044,2.72461,-144.712,384
1569940872,358.415,-142.875,-12.5016,178.044,2.72461,-144.712,384
1569940872,358.415,-142.875,-12.5016,178.044,2.72461,-144.712,384
1569940872,358.415,-142.875,-12.5016,178.066,2.72461,-144.712,384
1569940872,358.415,-142.875,-12.5016,178.066,2.72461,-144.712,384
1569940872,358.415,-142.875,-12.5016,178.066,2.72461,-144.712,384
1569940872,358.415,-142.875,-12.5016,178.066,2.72461,-144.712,388
1569940872,358.415,-142.875,-12.5016,178.066,2.72461,-144.712,388
1569940872,358.415,-142.875,-12.5016,178.066,2.72461,-144.712,388
1569940872,358.415,-142.875,-12.5016,178.066,2.72461,-144.712,388
1569940872,358.415,-142.875,-12.5016,178.066,2.72461,-144.712,388
1569940872,358.415,-142.875,-12.5016,178.066,2.72461,-144.712,392
1569940872,358.415,-142.875,-12.5016,178.044,2.72461,-144.712,392
1569940872,358.415,-142.875,-12.5016,178.044,2.72461,-144.712,392
1569940872,358.415,-142.875,-12.5016,178.044,2.72461,-144.712,396
1569940872,358.415,-142.875,-12.5016,178.044,2.72461,-144.712,396
1569940872,358.415,-142.875,-12.5016,178.044,2.72461,-144.712,396
1569940872,358.415,-142.875,-12.5016,178.044,2.72461,-144.712,396
1569940872,358.415,-142.875,-12.5016,178.044,2.72461,-144.712,396
1569940872,358.415,-142.875,-12.5016,178.044,2.70264,-144.712,396
1569940872,358.415,-142.875,-12.5016,178.044,2.70264,-144.712,396
1569940872,358.415,-142.875,-12.5016,178.044,2.70264,-144.712,396
1569940872,358.415,-142.875,-12.5016,178.044,2.70264,-144.712,396
1569940872,358.415,-142.875,-12.5016,178.044,2.70264,-144.712,392
1569940872,358.415,-142.875,-12.5016,178.044,2.70264,-144.712,392
1569940872,358.415,-142.875,-12.5016,178.044,2.70264,-144.712,392
1569940872,358.415,-142.875,-12.5016,178.044,2.70264,-144.712,388
1569940872,358.415,-142.875,-12.5016,178.022,2.70264,-144.712,388
1569940872,358.415,-142.987,-12.5016,178.022,2.70264,-144.712,388
1569940873,358.415,-142.987,-12.5016,178.022,2.70264,-144.712,384
1569940873,358.415,-142.875,-12.5016,178.022,2.70264,-144.712,384
1569940873,358.415,-142.875,-12.5016,178.022,2.70264,-144.712,384
1569940873,358.415,-142.875,-12.5016,178.022,2.70264,-144.712,384
1569940873,358.415,-142.875,-12.5016,178.022,2.70264,-144.712,380
1569940873,358.415,-142.875,-12.5016,178.022,2.70264,-144.712,380
1569940873,358.415,-142.875,-12.5016,178.022,2.70264,-144.712,380
1569940873,358.415,-142.875,-12.5016,178.022,2.70264,-144.712,380
1569940873,358.415,-142.875,-12.5016,178.022,2.70264,-144.712,380
1569940873,358.415,-142.875,-12.5016,178.022,2.70264,-144.712,380
1569940873,358.415,-142.875,-12.5016,178.022,2.70264,-144.712,380
1569940873,358.415,-142.875,-12.5016,178.022,2.70264,-144.712,380
1569940873,358.415,-142.875,-12.5016,178.022,2.70264,-144.712,380
1569940873,358.415,-142.875,-12.5016,178.022,2.70264,-144.712,380
1569940873,358.415,-142.875,-12.5016,178.022,2.70264,-144.712,380
1569940873,358.415,-142.875,-12.5016,178.022,2.70264,-144.712,380
1569940873,358.415,-142.987,-12.5016,178.022,2.70264,-144.712,380
1569940873,358.415,-142.987,-12.5016,178.022,2.70264,-144.712,380
1569940873,358.415,-142.987,-12.5016,178,2.70264,-144.712,380
1569940873,358.415,-142.987,-12.5016,178,2.70264,-144.712,380
1569940873,358.415,-142.987,-12.5016,178,2.70264,-144.712,380
1569940873,358.415,-142.987,-12.5016,178,2.70264,-144.712,380
1569940873,358.415,-142.987,-12.5016,178,2.70264,-144.712,380
1569940873,358.415,-142.987,-12.5016,178,2.70264,-144.712,380
1569940873,358.415,-142.987,-12.5016,178,2.70264,-144.712,380
1569940873,358.415,-142.987,-12.5016,178,2.70264,-144.712,380
1569940873,358.415,-142.987,-12.5016,178,2.70264,-144.712,380
1569940873,358.415,-142.987,-12.5016,178,2.70264,-144.734,380
1569940873,358.415,-142.987,-12.5016,178,2.70264,-144.734,380
1569940873,358.415,-142.987,-12.5016,178,2.70264,-144.734,380
1569940873,358.415,-142.987,-12.5016,178,2.70264,-144.734,380
1569940873,358.415,-142.987,-12.5016,178,2.70264,-144.734,380
1569940873,358.415,-142.987,-12.5016,178.022,2.70264,-144.734,380
1569940873,358.304,-142.987,-12.5016,178.022,2.70264,-144.734,380
1569940873,358.304,-142.987,-12.5016,178.022,2.70264,-144.734,380
1569940873,358.304,-142.987,-12.5016,178.022,2.70264,-144.734,380
1569940873,358.304,-142.987,-12.5016,178.022,2.70264,-144.734,380
1569940873,358.304,-142.987,-12.5016,178.022,2.70264,-144.734,376
1569940873,358.304,-142.987,-12.5016,178.022,2.70264,-144.734,376
1569940873,358.304,-142.987,-12.5016,178.022,2.72461,-144.712,376
1569940873,358.304,-142.987,-12.5016,178.022,2.72461,-144.712,376
1569940873,358.304,-142.987,-12.3899,178.022,2.72461,-144.712,380
1569940873,358.304,-142.987,-12.3899,178.022,2.72461,-144.712,380
1569940873,358.304,-142.987,-12.3899,178.022,2.72461,-144.712,380
1569940873,358.304,-142.875,-12.3899,178.022,2.74658,-144.712,380
1569940873,358.304,-142.875,-12.3899,178.022,2.74658,-144.712,380
1569940873,358.304,-142.875,-12.3899,178.022,2.74658,-144.712,380
1569940873,358.415,-142.875,-12.3899,178.022,2.74658,-144.712,380
1569940873,358.415,-142.875,-12.3899,178.044,2.74658,-144.712,380
1569940873,358.415,-142.875,-12.3899,178.044,2.74658,-144.712,380
1569940873,358.415,-142.875,-12.3899,178.044,2.72461,-144.712,380
1569940873,358.415,-142.875,-12.3899,178.044,2.72461,-144.712,380
1569940873,358.415,-142.875,-12.3899,178.044,2.72461,-144.712,376
1569940873,358.415,-142.875,-12.3899,178.044,2.72461,-144.712,376
1569940873,358.415,-142.875,-12.3899,178.044,2.72461,-144.712,376
1569940873,358.415,-142.875,-12.3899,178.044,2.72461,-144.712,376
1569940873,358.415,-142.875,-12.3899,178.044,2.72461,-144.712,376
1569940873,358.415,-142.875,-12.3899,178.044,2.72461,-144.712,376
1569940873,358.415,-142.875,-12.3899,178.044,2.72461,-144.712,376
1569940873,358.415,-142.875,-12.3899,178.044,2.72461,-144.712,372
1569940873,358.415,-142.875,-12.3899,178.044,2.72461,-144.712,372
1569940873,358.415,-142.875,-12.3899,178.044,2.74658,-144.712,372
1569940873,358.415,-142.987,-12.3899,178.044,2.74658,-144.712,372
1569940873,358.415,-142.987,-12.3899,178.044,2.74658,-144.712,372
1569940873,358.415,-142.987,-12.3899,178.044,2.74658,-144.712,372
1569940873,358.415,-142.987,-12.3899,178.044,2.74658,-144.712,372
1569940873,358.415,-142.987,-12.3899,178.044,2.74658,-144.712,372
1569940873,358.415,-142.987,-12.3899,178.044,2.74658,-144.712,372
1569940873,358.415,-142.987,-12.3899,178.044,2.74658,-144.712,372
1569940873,358.415,-142.875,-12.3899,178.044,2.74658,-144.712,372
1569940873,358.415,-142.875,-12.3899,178.044,2.74658,-144.712,372
1569940873,358.415,-142.875,-12.3899,178.044,2.74658,-144.712,372
1569940873,358.415,-142.875,-12.3899,178.044,2.74658,-144.712,372
1569940873,358.415,-142.875,-12.3899,178.044,2.74658,-144.712,372
1569940873,358.415,-142.875,-12.3899,178.044,2.74658,-144.712,372
1569940873,358.415,-142.875,-12.3899,178.044,2.72461,-144.734,376
1569940873,358.415,-142.875,-12.5016,178.044,2.72461,-144.734,376
1569940873,358.415,-142.875,-12.5016,178.044,2.72461,-144.734,376
1569940873,358.415,-142.875,-12.5016,178.044,2.72461,-144.734,376
1569940873,358.527,-142.875,-12.5016,178.044,2.72461,-144.734,376
1569940873,358.527,-142.875,-12.5016,178.044,2.72461,-144.734,376
1569940873,358.527,-142.875,-12.5016,178.044,2.72461,-144.734,380
1569940873,358.527,-142.875,-12.5016,178.044,2.72461,-144.734,380
1569940873,358.527,-142.875,-12.5016,178.044,2.72461,-144.712,380
1569940873,358.527,-142.875,-12.5016,178.044,2.72461,-144.712,380
1569940873,358.527,-142.875,-12.5016,178.044,2.72461,-144.712,380
1569940873,358.527,-142.875,-12.5016,178.044,2.72461,-144.712,380
1569940873,358.527,-142.875,-12.5016,178.044,2.72461,-144.712,380
1569940873,358.527,-142.875,-12.5016,178.066,2.72461,-144.712,380
1569940873,358.527,-142.875,-12.5016,178.066,2.72461,-144.712,380
1569940873,358.527,-142.875,-12.5016,178.066,2.72461,-144.712,380
1569940873,358.527,-142.875,-12.5016,178.066,2.72461,-144.712,380
1569940873,358.527,-142.875,-12.5016,178.066,2.72461,-144.712,380
1569940873,358.527,-142.875,-12.5016,178.066,2.72461,-144.712,380
1569940873,358.527,-142.875,-12.5016,178.044,2.72461,-144.712,380
1569940873,358.527,-142.875,-12.5016,178.044,2.72461,-144.712,380
1569940873,358.527,-142.875,-12.5016,178.044,2.72461,-144.712,380
1569940873,358.527,-142.875,-12.5016,178.044,2.72461,-144.712,380
1569940873,358.527,-142.875,-12.5016,178.044,2.70264,-144.712,380
1569940873,358.527,-142.875,-12.5016,178.044,2.70264,-144.712,380
1569940874,358.527,-142.875,-12.5016,178.044,2.70264,-144.712,380
1569940874,358.527,-142.875,-12.5016,178.066,2.70264,-144.712,380
1569940874,358.527,-142.875,-12.5016,178.066,2.70264,-144.712,380
1569940874,358.527,-142.875,-12.5016,178.066,2.72461,-144.712,384
1569940874,358.527,-142.875,-12.5016,178.066,2.72461,-144.712,384
1569940874,358.527,-142.875,-12.5016,178.066,2.72461,-144.712,384
1569940874,358.527,-142.875,-12.5016,178.066,2.72461,-144.712,384
1569940874,358.527,-142.875,-12.5016,178.066,2.72461,-144.712,384
1569940874,358.527,-142.875,-12.5016,178.066,2.72461,-144.712,388
1569940874,358.415,-142.875,-12.5016,178.066,2.72461,-144.712,388
1569940874,358.415,-142.875,-12.5016,178.066,2.72461,-144.712,388
1569940874,358.415,-142.875,-12.5016,178.066,2.72461,-144.712,388
1569940874,358.415,-142.875,-12.5016,178.066,2.72461,-144.712,388
1569940874,358.415,-142.875,-12.5016,178.066,2.72461,-144.712,392
1569940874,358.415,-142.875,-12.5016,178.066,2.72461,-144.712,392
1569940874,358.415,-142.875,-12.5016,178.066,2.72461,-144.712,392
1569940874,358.415,-142.875,-12.5016,178.066,2.72461,-144.712,392
1569940874,358.415,-142.875,-12.5016,178.066,2.72461,-144.712,392
1569940874,358.415,-142.875,-12.5016,178.066,2.72461,-144.712,396
1569940874,358.415,-142.875,-12.3899,178.066,2.72461,-144.734,396
1569940874,358.415,-142.875,-12.3899,178.066,2.74658,-144.734,396
1569940874,358.415,-142.875,-12.3899,178.066,2.74658,-144.734,396
1569940874,358.415,-142.875,-12.3899,178.066,2.74658,-144.734,396
1569940874,358.415,-142.875,-12.3899,178.066,2.74658,-144.712,396
1569940874,358.415,-142.875,-12.3899,178.066,2.74658,-144.712,396
1569940874,358.415,-142.875,-12.3899,178.066,2.74658,-144.712,396
1569940874,358.415,-142.763,-12.3899,178.066,2.74658,-144.712,396
1569940874,358.415,-142.763,-12.3899,178.066,2.74658,-144.712,396
1569940874,358.415,-142.763,-12.3899,178.066,2.74658,-144.712,396
1569940874,358.304,-142.763,-12.3899,178.066,2.74658,-144.712,396
1569940874,358.304,-142.763,-12.3899,178.066,2.74658,-144.712,396
1569940874,358.304,-142.763,-12.3899,178.066,2.74658,-144.734,396
1569940874,358.304,-142.763,-12.3899,178.066,2.74658,-144.734,396
1569940874,358.304,-142.763,-12.3899,178.066,2.74658,-144.734,396
1569940874,358.304,-142.763,-12.3899,178.066,2.74658,-144.734,396
1569940874,358.304,-142.763,-12.3899,178.066,2.74658,-144.734,400
1569940874,358.304,-142.763,-12.3899,178.066,2.74658,-144.734,400
1569940874,358.415,-142.763,-12.3899,178.066,2.74658,-144.734,400
1569940874,358.415,-142.763,-12.3899,178.066,2.74658,-144.734,400
1569940874,358.415,-142.763,-12.3899,178.066,2.74658,-144.712,400
1569940874,358.415,-142.763,-12.5016,178.066,2.72461,-144.712,400
1569940874,358.415,-142.763,-12.5016,178.066,2.72461,-144.712,400
1569940874,358.415,-142.763,-12.5016,178.066,2.72461,-144.712,396
1569940874,358.415,-142.763,-12.5016,178.066,2.72461,-144.712,396
1569940874,358.415,-142.763,-12.5016,178.066,2.72461,-144.712,396
1569940874,358.415,-142.763,-12.5016,178.066,2.72461,-144.712,392
1569940874,358.415,-142.763,-12.5016,178.066,2.72461,-144.712,392
1569940874,358.415,-142.763,-12.5016,178.066,2.72461,-144.712,392
1569940874,358.415,-142.763,-12.5016,178.066,2.72461,-144.712,388
1569940874,358.415,-142.763,-12.5016,178.066,2.72461,-144.712,388
1569940874,358.415,-142.875,-12.5016,178.044,2.72461,-144.712,388
1569940874,358.415,-142.875,-12.5016,178.044,2.72461,-144.712,384
1569940874,358.415,-142.875,-12.5016,178.044,2.72461,-144.712,384
1569940874,358.415,-142.875,-12.5016,178.044,2.72461,-144.734,384
1569940874,358.415,-142.875,-12.5016,178.044,2.72461,-144.734,384
1569940874,358.415,-142.875,-12.5016,178.044,2.72461,-144.734,380
1569940874,358.415,-142.875,-12.5016,178.044,2.72461,-144.734,380
1569940874,358.415,-142.875,-12.5016,178.044,2.72461,-144.734,380
1569940874,358.415,-142.875,-12.5016,178.044,2.72461,-144.734,380
1569940874,358.415,-142.875,-12.5016,178.044,2.72461,-144.734,380
1569940874,358.415,-142.875,-12.5016,178.044,2.70264,-144.734,380
1569940874,358.415,-142.875,-12.5016,178.022,2.70264,-144.734,380
1569940874,358.415,-142.875,-12.5016,178.022,2.70264,-144.734,380
1569940874,358.415,-142.875,-12.5016,178.022,2.70264,-144.734,384
1569940874,358.415,-142.875,-12.5016,178.022,2.70264,-144.734,384
1569940874,358.415,-142.875,-12.5016,178.022,2.70264,-144.734,384
1569940874,358.415,-142.875,-12.5016,178.022,2.70264,-144.734,384
1569940874,358.415,-142.875,-12.5016,178.022,2.70264,-144.734,384
1569940874,358.415,-142.875,-12.5016,178.022,2.70264,-144.734,384
1569940874,358.415,-142.875,-12.5016,178.022,2.70264,-144.734,384
1569940874,358.415,-142.875,-12.5016,178.022,2.70264,-144.734,384
1569940874,358.415,-142.875,-12.5016,178.022,2.70264,-144.734,384
1569940874,358.415,-142.875,-12.5016,178.022,2.70264,-144.734,384
1569940874,358.415,-142.875,-12.5016,178.022,2.70264,-144.712,384
1569940874,358.415,-142.875,-12.5016,178.022,2.70264,-144.712,384
1569940874,358.415,-142.875,-12.5016,178.022,2.70264,-144.712,384
1569940874,358.415,-142.875,-12.5016,178.022,2.70264,-144.712,384
1569940874,358.527,-142.875,-12.5016,178.044,2.70264,-144.712,380
1569940874,358.527,-142.875,-12.5016,178.044,2.70264,-144.712,380
1569940874,358.527,-142.875,-12.5016,178.044,2.70264,-144.712,380
1569940874,358.527,-142.875,-12.5016,178.044,2.70264,-144.712,380
1569940874,358.527,-142.875,-12.5016,178.044,2.70264,-144.712,380
1569940874,358.415,-142.875,-12.5016,178.044,2.70264,-144.712,380
1569940874,358.415,-142.875,-12.5016,178.044,2.70264,-144.712,380
1569940874,358.415,-142.875,-12.5016,178.044,2.70264,-144.712,380
1569940874,358.415,-142.875,-12.5016,178.044,2.70264,-144.712,380
1569940874,358.415,-142.875,-12.5016,178.044,2.70264,-144.712,384
1569940874,358.415,-142.875,-12.5016,178.044,2.70264,-144.712,384
1569940874,358.415,-142.875,-12.5016,178.044,2.70264,-144.712,384
1569940874,358.415,-142.875,-12.5016,178.044,2.70264,-144.712,388
1569940874,358.415,-142.875,-12.5016,178.044,2.70264,-144.712,388
1569940874,358.415,-142.875,-12.5016,178.044,2.70264,-144.712,388
1569940874,358.415,-142.875,-12.5016,178.044,2.70264,-144.712,392
1569940874,358.415,-142.875,-12.5016,178.044,2.70264,-144.712,392
1569940874,358.415,-142.875,-12.5016,178.044,2.70264,-144.734,392
1569940874,358.415,-142.875,-12.5016,178.044,2.70264,-144.734,392
1569940874,358.415,-142.875,-12.5016,178.044,2.70264,-144.734,396
1569940874,358.415,-142.875,-12.5016,178.044,2.70264,-144.734,396
1569940874,358.415,-142.875,-12.5016,178.044,2.70264,-144.734,396
1569940874,358.415,-142.875,-12.5016,178.044,2.70264,-144.734,396
1569940875,358.415,-142.875,-12.5016,178.044,2.72461,-144.734,396
1569940875,358.415,-142.875,-12.5016,178.044,2.72461,-144.734,396
1569940875,358.415,-142.875,-12.5016,178.022,2.72461,-144.734,396
1569940875,358.415,-142.875,-12.5016,178.022,2.72461,-144.734,396
1569940875,358.304,-142.875,-12.5016,178.022,2.70264,-144.734,396
1569940875,358.304,-142.875,-12.5016,178.022,2.70264,-144.734,396
1569940875,358.304,-142.875,-12.5016,178.022,2.70264,-144.734,396
1569940875,358.304,-142.875,-12.5016,178.022,2.70264,-144.734,396
1569940875,358.304,-142.875,-12.5016,178.022,2.70264,-144.734,392
1569940875,358.304,-142.875,-12.5016,178.022,2.70264,-144.734,392
1569940875,358.304,-142.875,-12.5016,178.022,2.70264,-144.734,392
1569940875,358.304,-142.875,-12.5016,178.022,2.70264,-144.734,392
1569940875,358.304,-142.875,-12.5016,178.022,2.70264,-144.712,392
1569940875,358.304,-142.875,-12.5016,178.022,2.70264,-144.712,392
1569940875,358.304,-142.875,-12.5016,178.022,2.70264,-144.712,392
1569940875,358.304,-142.875,-12.5016,178.022,2.72461,-144.712,388
1569940875,358.304,-142.875,-12.5016,178.022,2.72461,-144.712,388
1569940875,358.304,-142.875,-12.5016,178.022,2.72461,-144.712,388
1569940875,358.304,-142.875,-12.5016,178.022,2.72461,-144.712,388
1569940875,358.304,-142.875,-12.5016,178.022,2.72461,-144.712,388
1569940875,358.304,-142.875,-12.5016,178.022,2.72461,-144.712,388
1569940875,358.304,-142.875,-12.5016,178.022,2.72461,-144.712,388
1569940875,358.304,-142.875,-12.5016,178.022,2.72461,-144.712,388
1569940875,358.304,-142.875,-12.5016,178.022,2.72461,-144.712,388
1569940875,358.304,-142.875,-12.5016,178.022,2.72461,-144.712,388
1569940875,358.304,-142.875,-12.5016,178.022,2.70264,-144.712,388
1569940875,358.304,-142.875,-12.5016,178.022,2.70264,-144.712,388
1569940875,358.304,-142.875,-12.5016,178.022,2.70264,-144.712,384
1569940875,358.304,-142.987,-12.5016,178.022,2.70264,-144.712,384
1569940875,358.304,-142.987,-12.5016,178.022,2.70264,-144.712,384
1569940875,358.415,-142.987,-12.5016,178.022,2.70264,-144.712,384
1569940875,358.415,-142.987,-12.5016,178.022,2.70264,-144.712,380
1569940875,358.415,-142.987,-12.5016,178.022,2.70264,-144.712,380
1569940875,358.415,-142.987,-12.5016,178.022,2.70264,-144.712,380
1569940875,358.415,-142.987,-12.5016,178.022,2.70264,-144.69,380
1569940875,358.415,-142.987,-12.5016,178.022,2.70264,-144.69,376
1569940875,358.415,-142.987,-12.5016,178.022,2.70264,-144.69,376
1569940875,358.415,-142.987,-12.5016,178.022,2.70264,-144.69,376
1569940875,358.415,-142.987,-12.5016,178.022,2.70264,-144.69,376
1569940875,358.415,-142.987,-12.5016,178.022,2.70264,-144.712,376
1569940875,358.415,-142.987,-12.5016,178.022,2.70264,-144.712,376
1569940875,358.415,-142.987,-12.5016,178.022,2.70264,-144.712,376
1569940875,358.415,-142.987,-12.5016,178.022,2.70264,-144.712,376
1569940875,358.415,-142.987,-12.5016,178.022,2.70264,-144.712,376
1569940875,358.415,-142.987,-12.5016,178.022,2.70264,-144.712,376
1569940875,358.415,-142.987,-12.5016,178.022,2.72461,-144.712,380
1569940875,358.415,-142.987,-12.5016,178.022,2.72461,-144.712,380
1569940875,358.415,-142.987,-12.5016,178.022,2.72461,-144.712,380
1569940875,358.415,-142.987,-12.5016,178.022,2.72461,-144.712,380
1569940875,358.415,-142.987,-12.5016,178.022,2.72461,-144.712,380
1569940875,358.415,-142.987,-12.5016,178.022,2.72461,-144.712,380
1569940875,358.415,-142.987,-12.5016,178.022,2.72461,-144.712,380
1569940875,358.415,-142.875,-12.5016,178.022,2.72461,-144.712,380
1569940875,358.415,-142.875,-12.5016,178.022,2.72461,-144.712,380
1569940875,358.415,-142.875,-12.5016,178.022,2.72461,-144.712,380
1569940875,358.415,-142.875,-12.5016,178.044,2.72461,-144.712,380
1569940875,358.415,-142.875,-12.5016,178.044,2.72461,-144.712,380
1569940875,358.415,-142.875,-12.5016,178.044,2.74658,-144.712,380
1569940875,358.415,-142.875,-12.5016,178.044,2.74658,-144.712,380
1569940875,358.415,-142.875,-12.3899,178.044,2.74658,-144.712,384
1569940875,358.415,-142.875,-12.3899,178.044,2.74658,-144.712,384
1569940875,358.415,-142.875,-12.5016,178.044,2.72461,-144.712,384
1569940875,358.304,-142.875,-12.5016,178.044,2.72461,-144.712,384
1569940875,358.304,-142.875,-12.5016,178.044,2.72461,-144.712,384
1569940875,358.304,-142.875,-12.5016,178.044,2.72461,-144.712,384
1569940875,358.415,-142.875,-12.5016,178.044,2.72461,-144.712,384
1569940875,358.415,-142.875,-12.5016,178.022,2.72461,-144.712,384
1569940875,358.415,-142.875,-12.5016,178.022,2.72461,-144.712,384
1569940875,358.304,-142.875,-12.5016,178.022,2.72461,-144.712,384
1569940875,358.304,-142.875,-12.5016,178.022,2.70264,-144.712,384
1569940875,358.304,-142.875,-12.5016,178.022,2.70264,-144.712,384
1569940875,358.415,-142.875,-12.5016,178.022,2.70264,-144.712,384
1569940875,358.415,-142.875,-12.5016,178.022,2.70264,-144.712,384
1569940875,358.415,-142.875,-12.5016,178.022,2.70264,-144.712,384
1569940875,358.415,-142.875,-12.5016,178.022,2.70264,-144.712,384
1569940875,358.415,-142.875,-12.5016,178.022,2.70264,-144.712,384
1569940875,358.415,-142.875,-12.5016,178.022,2.72461,-144.712,384
1569940875,358.415,-142.875,-12.5016,178.022,2.72461,-144.712,380
1569940875,358.415,-142.875,-12.5016,178.022,2.72461,-144.712,380
1569940875,358.415,-142.875,-12.5016,178.022,2.72461,-144.712,380
1569940875,358.415,-142.875,-12.5016,178.022,2.72461,-144.712,380
1569940875,358.415,-142.875,-12.5016,178.044,2.72461,-144.712,380
1569940875,358.415,-142.875,-12.5016,178.044,2.72461,-144.712,380
1569940875,358.415,-142.875,-12.5016,178.044,2.72461,-144.712,380
1569940875,358.415,-142.875,-12.3899,178.044,2.72461,-144.712,380
1569940875,358.415,-142.875,-12.3899,178.044,2.72461,-144.712,380
1569940875,358.415,-142.875,-12.3899,178.044,2.72461,-144.712,380
1569940875,358.415,-142.875,-12.3899,178.044,2.72461,-144.712,380
1569940875,358.415,-142.875,-12.3899,178.044,2.72461,-144.712,380
1569940875,358.415,-142.875,-12.3899,178.044,2.72461,-144.712,380
1569940875,358.415,-142.875,-12.5016,178.044,2.72461,-144.712,380
1569940875,358.415,-142.875,-12.5016,178.022,2.72461,-144.712,380
1569940875,358.304,-142.875,-12.5016,178.022,2.72461,-144.712,380
1569940875,358.304,-142.875,-12.5016,178.022,2.72461,-144.712,380
1569940875,358.304,-142.875,-12.5016,178.022,2.70264,-144.712,384
1569940875,358.304,-142.875,-12.5016,178.022,2.70264,-144.712,384
1569940875,358.304,-142.875,-12.5016,178.022,2.70264,-144.712,384
1569940875,358.304,-142.875,-12.5016,178.022,2.70264,-144.712,384
1569940875,358.304,-142.875,-12.5016,178.044,2.70264,-144.712,384
1569940875,358.304,-142.875,-12.5016,178.044,2.70264,-144.712,384
1569940876,358.304,-142.875,-12.5016,178.044,2.72461,-144.712,384
1569940876,358.304,-142.875,-12.5016,178.044,2.72461,-144.712,384
1569940876,358.304,-142.875,-12.5016,178.044,2.72461,-144.712,388
1569940876,358.304,-142.875,-12.5016,178.044,2.72461,-144.712,388
1569940876,358.304,-142.875,-12.5016,178.044,2.72461,-144.712,388
1569940876,358.304,-142.875,-12.5016,178.044,2.72461,-144.712,388
1569940876,358.304,-142.875,-12.5016,178.044,2.72461,-144.712,388
1569940876,358.304,-142.875,-12.3899,178.044,2.72461,-144.69,392
1569940876,358.304,-142.875,-12.3899,178.044,2.72461,-144.69,392
1569940876,358.304,-142.875,-12.3899,178.044,2.72461,-144.69,392
1569940876,358.304,-142.875,-12.3899,178.044,2.72461,-144.69,392
1569940876,358.304,-142.875,-12.3899,178.044,2.72461,-144.69,392
1569940876,358.304,-142.875,-12.3899,178.044,2.72461,-144.69,392
1569940876,358.304,-142.875,-12.3899,178.044,2.72461,-144.69,392
1569940876,358.304,-142.875,-12.3899,178.044,2.72461,-144.69,392
1569940876,358.304,-142.875,-12.3899,178.044,2.72461,-144.69,392
1569940876,358.304,-142.875,-12.3899,178.044,2.72461,-144.69,392
1569940876,358.304,-142.875,-12.5016,178.044,2.72461,-144.69,392
1569940876,358.304,-142.875,-12.5016,178.044,2.72461,-144.69,392
1569940876,358.304,-142.875,-12.5016,178.044,2.72461,-144.69,392
1569940876,358.304,-142.875,-12.5016,178.044,2.72461,-144.69,392
1569940876,358.304,-142.875,-12.5016,178.044,2.72461,-144.69,392
1569940876,358.304,-142.875,-12.5016,178.044,2.72461,-144.69,392
1569940876,358.304,-142.875,-12.5016,178.044,2.72461,-144.69,392
1569940876,358.304,-142.875,-12.5016,178.044,2.72461,-144.69,392
1569940876,358.304,-142.875,-12.3899,178.044,2.72461,-144.69,392
1569940876,358.304,-142.875,-12.5016,178.044,2.72461,-144.712,392
1569940876,358.304,-142.875,-12.5016,178.044,2.72461,-144.712,388
1569940876,358.304,-142.875,-12.5016,178.044,2.72461,-144.712,388
1569940876,358.304,-142.875,-12.3899,178.044,2.72461,-144.712,388
1569940876,358.304,-142.875,-12.3899,178.044,2.72461,-144.712,388
1569940876,358.304,-142.875,-12.5016,178.044,2.72461,-144.712,388
1569940876,358.415,-142.875,-12.5016,178.044,2.72461,-144.712,388
1569940876,358.415,-142.875,-12.5016,178.044,2.72461,-144.712,384
1569940876,358.415,-142.875,-12.5016,178.044,2.72461,-144.712,384
1569940876,358.415,-142.875,-12.5016,178.044,2.72461,-144.712,384
1569940876,358.415,-142.875,-12.5016,178.044,2.72461,-144.712,384
1569940876,358.415,-142.875,-12.5016,178.044,2.72461,-144.712,380
1569940876,358.415,-142.875,-12.5016,178.044,2.72461,-144.712,380
1569940876,358.415,-142.875,-12.5016,178.044,2.72461,-144.712,380
1569940876,358.415,-142.875,-12.5016,178.044,2.72461,-144.712,380
1569940876,358.415,-142.875,-12.5016,178.044,2.72461,-144.712,380
1569940876,358.415,-142.875,-12.5016,178.044,2.72461,-144.712,380
1569940876,358.415,-142.875,-12.5016,178.044,2.72461,-144.712,380
1569940876,358.415,-142.875,-12.5016,178.044,2.72461,-144.712,380
1569940876,358.415,-142.875,-12.5016,178.044,2.72461,-144.712,380
1569940876,358.415,-142.875,-12.5016,178.044,2.72461,-144.712,380
1569940876,358.415,-142.875,-12.5016,178.044,2.72461,-144.712,380
1569940876,358.415,-142.875,-12.5016,178.044,2.70264,-144.712,380
1569940876,358.415,-142.875,-12.5016,178.044,2.70264,-144.712,380
1569940876,358.415,-142.875,-12.5016,178.044,2.70264,-144.712,380
1569940876,358.415,-142.875,-12.5016,178.044,2.70264,-144.712,380
1569940876,358.415,-142.875,-12.5016,178.044,2.70264,-144.712,380
1569940876,358.415,-142.875,-12.5016,178.044,2.70264,-144.712,380
1569940876,358.415,-142.875,-12.5016,178.044,2.70264,-144.712,380
1569940876,358.415,-142.875,-12.5016,178.044,2.70264,-144.712,380
1569940876,358.415,-142.875,-12.5016,178.044,2.70264,-144.712,380
1569940876,358.415,-142.875,-12.5016,178.066,2.70264,-144.712,380
1569940876,358.415,-142.875,-12.5016,178.066,2.70264,-144.712,380
1569940876,358.415,-142.875,-12.5016,178.066,2.70264,-144.712,380
1569940876,358.415,-142.875,-12.5016,178.066,2.70264,-144.712,384
1569940876,358.415,-142.875,-12.5016,178.066,2.70264,-144.712,384
1569940876,358.415,-142.875,-12.5016,178.044,2.70264,-144.712,384
1569940876,358.415,-142.875,-12.5016,178.044,2.70264,-144.712,384
1569940876,358.415,-142.875,-12.5016,178.044,2.70264,-144.712,384
1569940876,358.304,-142.875,-12.3899,178.044,2.72461,-144.712,384
1569940876,358.304,-142.875,-12.3899,178.044,2.72461,-144.712,384
1569940876,358.304,-142.875,-12.3899,178.044,2.72461,-144.712,388
1569940876,358.304,-142.875,-12.3899,178.044,2.72461,-144.712,388
1569940876,358.304,-142.875,-12.3899,178.044,2.72461,-144.712,388
1569940876,358.304,-142.875,-12.3899,178.044,2.72461,-144.712,388
1569940876,358.304,-142.875,-12.3899,178.044,2.72461,-144.712,388
1569940876,358.304,-142.875,-12.3899,178.044,2.72461,-144.712,388
1569940876,358.304,-142.875,-12.3899,178.044,2.72461,-144.712,392
1569940876,358.304,-142.875,-12.3899,178.044,2.72461,-144.712,392
1569940876,358.304,-142.875,-12.3899,178.044,2.72461,-144.712,392
1569940876,358.304,-142.875,-12.3899,178.044,2.72461,-144.712,392
1569940876,358.304,-142.875,-12.3899,178.044,2.72461,-144.712,392
1569940876,358.304,-142.875,-12.3899,178.044,2.72461,-144.712,392
1569940876,358.304,-142.875,-12.3899,178.044,2.72461,-144.712,392
1569940876,358.304,-142.875,-12.3899,178.044,2.72461,-144.712,392
1569940880,320.241,-100.459,-13.6178,178.374,2.37305,-144.712,352
1569940880,320.241,-100.459,-13.6178,178.374,2.37305,-144.712,352
1569940880,320.241,-100.459,-13.6178,178.374,2.37305,-144.712,352
1569940880,320.241,-100.459,-13.6178,178.374,2.37305,-144.712,352
1569940880,320.241,-100.459,-13.6178,178.374,2.37305,-144.712,352
1569940880,320.241,-100.459,-13.6178,178.374,2.37305,-144.712,352
1569940880,320.241,-100.459,-13.6178,178.374,2.37305,-144.712,352
1569940880,320.241,-100.459,-13.6178,178.374,2.37305,-144.712,352
1569940880,320.241,-100.459,-13.6178,178.374,2.37305,-144.712,352
1569940880,320.241,-100.459,-13.7294,178.374,2.37305,-144.712,348
1569940880,320.241,-100.459,-13.7294,178.374,2.37305,-144.712,348
1569940880,320.241,-100.459,-13.7294,178.374,2.37305,-144.712,348
1569940880,320.241,-100.459,-13.7294,178.374,2.37305,-144.712,348
1569940880,320.241,-100.459,-13.7294,178.374,2.37305,-144.712,348
1569940880,320.241,-100.459,-13.7294,178.374,2.37305,-144.712,344
1569940880,320.241,-100.459,-13.7294,178.374,2.37305,-144.712,344
1569940880,320.241,-100.459,-13.7294,178.374,2.37305,-144.712,344
1569940880,320.241,-100.459,-13.7294,178.374,2.37305,-144.712,344
1569940880,320.241,-100.459,-13.7294,178.374,2.37305,-144.712,344
1569940880,320.241,-100.459,-13.6178,178.374,2.37305,-144.712,344
1569940880,320.241,-100.459,-13.6178,178.374,2.37305,-144.712,344
1569940880,320.241,-100.459,-13.6178,178.374,2.37305,-144.712,344
1569940880,320.241,-100.459,-13.6178,178.374,2.37305,-144.712,340
1569940880,320.241,-100.459,-13.6178,178.374,2.37305,-144.712,340
1569940880,320.241,-100.459,-13.6178,178.374,2.37305,-144.712,340
1569940880,320.241,-100.459,-13.6178,178.374,2.37305,-144.712,340
1569940880,320.241,-100.459,-13.7294,178.374,2.37305,-144.712,340
1569940880,320.241,-100.459,-13.7294,178.374,2.37305,-144.712,340
1569940880,320.241,-100.459,-13.7294,178.374,2.37305,-144.712,340
1569940880,320.241,-100.459,-13.7294,178.374,2.37305,-144.712,340
1569940880,320.241,-100.459,-13.7294,178.374,2.37305,-144.712,340
1569940880,320.241,-100.459,-13.7294,178.374,2.37305,-144.712,340
1569940880,320.241,-100.459,-13.7294,178.374,2.37305,-144.712,340
1569940880,320.241,-100.459,-13.7294,178.374,2.37305,-144.712,340
1569940880,320.241,-100.459,-13.7294,178.374,2.37305,-144.712,340
1569940880,320.241,-100.459,-13.7294,178.374,2.37305,-144.712,340
1569940880,320.241,-100.459,-13.7294,178.374,2.37305,-144.712,340
1569940880,320.241,-100.459,-13.7294,178.396,2.37305,-144.712,340
1569940880,320.241,-100.459,-13.7294,178.396,2.37305,-144.712,340
1569940880,320.241,-100.459,-13.7294,178.396,2.37305,-144.712,340
1569940880,320.241,-100.459,-13.7294,178.396,2.37305,-144.712,340
1569940880,320.241,-100.459,-13.7294,178.396,2.37305,-144.712,340
1569940880,320.241,-100.459,-13.7294,178.374,2.37305,-144.712,340
1569940880,320.241,-100.459,-13.7294,178.374,2.37305,-144.712,340
1569940880,320.241,-100.459,-13.7294,178.374,2.37305,-144.712,340
1569940880,320.241,-100.459,-13.7294,178.374,2.37305,-144.712,340
1569940880,320.241,-100.459,-13.7294,178.374,2.37305,-144.712,340
1569940880,320.241,-100.459,-13.7294,178.374,2.37305,-144.712,340
1569940880,320.241,-100.459,-13.7294,178.374,2.37305,-144.712,344
1569940880,320.241,-100.459,-13.7294,178.352,2.37305,-144.712,344
1569940880,320.241,-100.459,-13.7294,178.352,2.37305,-144.712,344
1569940880,320.241,-100.459,-13.7294,178.352,2.37305,-144.712,344
1569940880,320.241,-100.459,-13.6178,178.352,2.37305,-144.712,344
1569940880,320.241,-100.459,-13.6178,178.352,2.37305,-144.712,344
1569940880,320.241,-100.459,-13.6178,178.352,2.37305,-144.712,344
1569940880,320.241,-100.459,-13.6178,178.352,2.37305,-144.712,344
1569940880,320.241,-100.459,-13.6178,178.352,2.37305,-144.712,344
1569940880,320.241,-100.459,-13.6178,178.352,2.37305,-144.712,344
1569940880,320.241,-100.459,-13.6178,178.352,2.37305,-144.712,344
1569940880,320.241,-100.459,-13.6178,178.352,2.37305,-144.712,344
1569940880,320.241,-100.459,-13.6178,178.352,2.37305,-144.712,344
1569940880,320.241,-100.459,-13.6178,178.352,2.37305,-144.712,344
1569940880,320.241,-100.459,-13.6178,178.352,2.37305,-144.712,340
1569940880,320.241,-100.459,-13.6178,178.352,2.37305,-144.712,340
1569940880,320.241,-100.459,-13.6178,178.352,2.37305,-144.712,340
1569940880,320.241,-100.459,-13.6178,178.352,2.37305,-144.712,340
1569940880,320.241,-100.459,-13.6178,178.352,2.37305,-144.712,340
1569940880,320.241,-100.459,-13.6178,178.352,2.37305,-144.712,340
1569940880,320.241,-100.459,-13.6178,178.352,2.37305,-144.712,340
1569940880,320.129,-100.459,-13.6178,178.352,2.37305,-144.712,340
1569940880,320.129,-100.459,-13.6178,178.352,2.37305,-144.712,340
1569940880,320.129,-100.459,-13.6178,178.352,2.37305,-144.712,340
1569940880,320.129,-100.459,-13.6178,178.352,2.37305,-144.734,344
1569940880,320.129,-100.459,-13.6178,178.352,2.37305,-144.734,344
1569940880,320.129,-100.459,-13.6178,178.352,2.37305,-144.734,344
1569940880,320.129,-100.459,-13.6178,178.352,2.37305,-144.734,344
1569940880,320.129,-100.459,-13.6178,178.352,2.37305,-144.734,344
1569940880,320.129,-100.459,-13.6178,178.352,2.37305,-144.734,344
1569940880,320.129,-100.459,-13.6178,178.352,2.37305,-144.734,348
1569940880,320.129,-100.459,-13.6178,178.352,2.37305,-144.734,348
1569940880,320.129,-100.459,-13.6178,178.352,2.37305,-144.712,348
1569940880,320.129,-100.459,-13.6178,178.352,2.37305,-144.712,348
1569940880,320.129,-100.459,-13.6178,178.352,2.37305,-144.712,348
1569940880,320.129,-100.459,-13.6178,178.352,2.37305,-144.712,348
1569940880,320.129,-100.459,-13.6178,178.352,2.37305,-144.712,348
1569940880,320.129,-100.459,-13.6178,178.352,2.37305,-144.712,348
1569940880,320.129,-100.459,-13.6178,178.352,2.37305,-144.712,348
1569940880,320.129,-100.459,-13.6178,178.352,2.37305,-144.712,348
1569940880,320.241,-100.459,-13.6178,178.352,2.37305,-144.712,348
1569940880,320.241,-100.459,-13.6178,178.352,2.37305,-144.712,348
1569940880,320.241,-100.571,-13.6178,178.352,2.37305,-144.712,344
1569940880,320.241,-100.571,-13.6178,178.352,2.37305,-144.712,344
1569940880,320.241,-100.571,-13.6178,178.352,2.39502,-144.712,344
1569940880,320.241,-100.571,-13.6178,178.352,2.39502,-144.712,344
1569940880,320.241,-100.571,-13.6178,178.352,2.39502,-144.712,344
1569940880,320.241,-100.571,-13.6178,178.352,2.39502,-144.712,344
1569940880,320.241,-100.571,-13.6178,178.352,2.39502,-144.712,344
1569940880,320.241,-100.571,-13.6178,178.352,2.39502,-144.712,344
1569940881,320.241,-100.571,-13.6178,178.352,2.39502,-144.712,344
1569940881,320.241,-100.571,-13.6178,178.352,2.39502,-144.712,344
1569940881,320.241,-100.571,-13.6178,178.352,2.39502,-144.712,344
1569940881,320.241,-100.571,-13.6178,178.352,2.39502,-144.712,344
1569940881,320.241,-100.571,-13.6178,178.352,2.39502,-144.712,344
1569940881,320.241,-100.571,-13.6178,178.352,2.39502,-144.712,344
1569940881,320.241,-100.571,-13.6178,178.352,2.39502,-144.712,344
1569940881,320.241,-100.571,-13.6178,178.352,2.39502,-144.712,344
1569940881,320.241,-100.571,-13.6178,178.352,2.39502,-144.712,344
1569940881,320.241,-100.571,-13.6178,178.352,2.39502,-144.712,344
1569940881,320.241,-100.571,-13.6178,178.352,2.39502,-144.712,344
1569940881,320.241,-100.459,-13.6178,178.352,2.39502,-144.712,344
1569940881,320.241,-100.459,-13.6178,178.352,2.39502,-144.712,344
1569940881,320.241,-100.459,-13.6178,178.352,2.39502,-144.712,344
1569940881,320.241,-100.459,-13.6178,178.352,2.39502,-144.712,344
1569940881,320.241,-100.459,-13.6178,178.352,2.39502,-144.712,344
1569940881,320.241,-100.459,-13.6178,178.352,2.39502,-144.712,344
1569940881,320.241,-100.459,-13.6178,178.352,2.39502,-144.712,344
1569940881,320.241,-100.459,-13.6178,178.352,2.39502,-144.712,344
1569940881,320.241,-100.459,-13.6178,178.352,2.39502,-144.712,344
1569940881,320.241,-100.459,-13.6178,178.352,2.37305,-144.712,344
1569940881,320.241,-100.459,-13.6178,178.352,2.37305,-144.712,344
1569940881,320.241,-100.459,-13.6178,178.352,2.37305,-144.712,344
1569940881,320.241,-100.459,-13.6178,178.352,2.37305,-144.712,344
1569940881,320.241,-100.459,-13.6178,178.352,2.37305,-144.712,344
1569940881,320.241,-100.459,-13.6178,178.352,2.37305,-144.712,344
1569940881,320.241,-100.459,-13.6178,178.374,2.37305,-144.712,344
1569940881,320.241,-100.459,-13.7294,178.374,2.37305,-144.712,344
1569940881,320.241,-100.459,-13.7294,178.374,2.37305,-144.712,344
1569940881,320.241,-100.459,-13.7294,178.374,2.37305,-144.712,344
1569940881,320.241,-100.459,-13.7294,178.374,2.37305,-144.712,344
1569940881,320.241,-100.459,-13.7294,178.374,2.37305,-144.712,344
1569940881,320.241,-100.459,-13.7294,178.374,2.37305,-144.712,344
1569940881,320.241,-100.459,-13.7294,178.374,2.37305,-144.712,344
1569940881,320.241,-100.459,-13.7294,178.374,2.37305,-144.712,344
1569940881,320.241,-100.459,-13.7294,178.374,2.37305,-144.712,340
1569940881,320.241,-100.459,-13.7294,178.352,2.37305,-144.712,340
1569940881,320.241,-100.459,-13.7294,178.352,2.37305,-144.712,340
1569940881,320.241,-100.459,-13.7294,178.352,2.37305,-144.712,340
1569940881,320.241,-100.459,-13.7294,178.352,2.37305,-144.712,340
1569940881,320.241,-100.571,-13.6178,178.352,2.37305,-144.712,340
1569940881,320.241,-100.571,-13.6178,178.352,2.37305,-144.712,340
1569940881,320.241,-100.571,-13.6178,178.352,2.37305,-144.712,340
1569940881,320.241,-100.571,-13.6178,178.352,2.37305,-144.712,340
1569940881,320.241,-100.571,-13.6178,178.352,2.37305,-144.712,340
1569940881,320.241,-100.571,-13.6178,178.352,2.37305,-144.712,340
1569940881,320.241,-100.571,-13.6178,178.352,2.39502,-144.712,340
1569940881,320.241,-100.571,-13.6178,178.352,2.39502,-144.712,340
1569940881,320.241,-100.571,-13.6178,178.352,2.39502,-144.712,340
1569940881,320.241,-100.571,-13.6178,178.352,2.39502,-144.712,340
1569940881,320.241,-100.571,-13.6178,178.352,2.39502,-144.712,340
1569940881,320.241,-100.571,-13.6178,178.352,2.39502,-144.712,340
1569940881,320.241,-100.571,-13.6178,178.352,2.39502,-144.712,340
1569940881,320.241,-100.571,-13.6178,178.352,2.39502,-144.712,340
1569940881,320.241,-100.571,-13.6178,178.352,2.39502,-144.712,340
1569940881,320.241,-100.571,-13.6178,178.352,2.37305,-144.712,340
1569940881,320.241,-100.571,-13.6178,178.352,2.37305,-144.712,340
1569940881,320.241,-100.571,-13.6178,178.352,2.37305,-144.712,340
1569940881,320.241,-100.571,-13.6178,178.352,2.37305,-144.712,340
1569940881,320.241,-100.571,-13.6178,178.352,2.37305,-144.712,344
1569940881,320.241,-100.571,-13.6178,178.352,2.37305,-144.712,344
1569940881,320.241,-100.571,-13.6178,178.352,2.37305,-144.712,344
1569940881,320.241,-100.571,-13.6178,178.352,2.37305,-144.712,344
1569940881,320.241,-100.571,-13.6178,178.352,2.37305,-144.712,344
1569940881,320.241,-100.571,-13.6178,178.352,2.37305,-144.712,344
1569940881,320.241,-100.571,-13.6178,178.352,2.37305,-144.712,348
1569940881,320.241,-100.571,-13.6178,178.352,2.37305,-144.712,348
1569940881,320.241,-100.571,-13.6178,178.352,2.37305,-144.712,348
1569940881,320.241,-100.571,-13.6178,178.33,2.37305,-144.712,348
1569940881,320.241,-100.571,-13.6178,178.33,2.37305,-144.712,348
1569940881,320.241,-100.571,-13.6178,178.33,2.37305,-144.712,348
1569940881,320.241,-100.571,-13.6178,178.33,2.37305,-144.712,348
1569940881,320.241,-100.571,-13.6178,178.352,2.37305,-144.712,348
1569940881,320.241,-100.571,-13.6178,178.352,2.37305,-144.712,348
1569940881,320.241,-100.571,-13.6178,178.352,2.37305,-144.712,348
1569940881,320.241,-100.571,-13.6178,178.352,2.37305,-144.712,348
1569940881,320.241,-100.571,-13.6178,178.352,2.37305,-144.712,348
1569940881,320.241,-100.571,-13.6178,178.352,2.37305,-144.712,348
1569940881,320.241,-100.571,-13.6178,178.352,2.37305,-144.712,348
1569940881,320.241,-100.571,-13.6178,178.352,2.37305,-144.712,348
1569940881,320.241,-100.571,-13.6178,178.352,2.37305,-144.712,348
1569940881,320.241,-100.571,-13.6178,178.352,2.37305,-144.712,348
1569940881,320.241,-100.571,-13.6178,178.352,2.37305,-144.712,352
1569940881,320.241,-100.571,-13.7294,178.352,2.37305,-144.712,352
1569940881,320.241,-100.571,-13.7294,178.352,2.37305,-144.712,352
1569940881,320.241,-100.571,-13.7294,178.352,2.37305,-144.712,352
1569940881,320.241,-100.571,-13.7294,178.352,2.37305,-144.712,352
1569940881,320.129,-100.571,-13.7294,178.352,2.37305,-144.712,352
1569940881,320.129,-100.571,-13.7294,178.33,2.37305,-144.712,352
1569940881,320.129,-100.571,-13.7294,178.33,2.35107,-144.712,356
1569940881,320.129,-100.571,-13.7294,178.33,2.35107,-144.712,356
1569940881,320.129,-100.571,-13.7294,178.33,2.35107,-144.712,356
1569940881,320.129,-100.571,-13.7294,178.352,2.35107,-144.712,356
1569940881,320.129,-100.571,-13.7294,178.352,2.35107,-144.712,356
1569940881,320.129,-100.571,-13.7294,178.352,2.35107,-144.712,356
1569940881,320.129,-100.571,-13.7294,178.33,2.35107,-144.712,356
1569940881,320.129,-100.571,-13.7294,178.33,2.35107,-144.712,356
1569940881,320.129,-100.571,-13.7294,178.33,2.35107,-144.712,356
1569940881,320.129,-100.571,-13.7294,178.352,2.35107,-144.712,352
1569940881,320.241,-100.571,-13.7294,178.352,2.35107,-144.712,352
1569940882,320.241,-100.571,-13.7294,178.352,2.35107,-144.712,352
1569940882,320.241,-100.571,-13.7294,178.352,2.35107,-144.712,352
1569940882,320.241,-100.571,-13.7294,178.352,2.35107,-144.712,352
1569940882,320.241,-100.571,-13.7294,178.352,2.35107,-144.712,352
1569940882,320.241,-100.459,-13.7294,178.352,2.35107,-144.712,352
1569940882,320.241,-100.459,-13.7294,178.352,2.35107,-144.712,352
1569940882,320.241,-100.459,-13.7294,178.352,2.35107,-144.712,352
1569940882,320.241,-100.459,-13.7294,178.352,2.35107,-144.712,352
1569940882,320.241,-100.459,-13.7294,178.352,2.35107,-144.712,352
1569940882,320.241,-100.459,-13.7294,178.352,2.35107,-144.712,352
1569940882,320.241,-100.459,-13.7294,178.352,2.35107,-144.712,352
1569940882,320.241,-100.459,-13.7294,178.352,2.35107,-144.712,352
1569940882,320.241,-100.459,-13.7294,178.352,2.35107,-144.712,352
1569940882,320.241,-100.459,-13.7294,178.352,2.35107,-144.712,352
1569940882,320.241,-100.459,-13.7294,178.352,2.35107,-144.712,352
1569940882,320.241,-100.459,-13.7294,178.352,2.35107,-144.712,352
1569940882,320.241,-100.459,-13.7294,178.374,2.35107,-144.712,352
1569940882,320.241,-100.459,-13.7294,178.374,2.35107,-144.712,352
1569940882,320.241,-100.459,-13.7294,178.374,2.35107,-144.712,352
1569940882,320.241,-100.459,-13.7294,178.374,2.35107,-144.712,352
1569940882,320.241,-100.459,-13.7294,178.374,2.35107,-144.712,352
1569940882,320.241,-100.459,-13.7294,178.374,2.35107,-144.712,352
1569940882,320.241,-100.459,-13.7294,178.352,2.35107,-144.712,352
1569940882,320.241,-100.459,-13.7294,178.352,2.35107,-144.712,352
1569940882,320.241,-100.459,-13.7294,178.352,2.35107,-144.712,352
1569940882,320.241,-100.459,-13.7294,178.352,2.35107,-144.712,352
1569940882,320.241,-100.459,-13.7294,178.352,2.35107,-144.712,352
1569940882,320.241,-100.459,-13.7294,178.352,2.35107,-144.712,352
1569940882,320.241,-100.459,-13.7294,178.352,2.3291,-144.712,352
1569940882,320.241,-100.459,-13.841,178.352,2.3291,-144.712,352
1569940882,320.241,-100.459,-13.841,178.352,2.3291,-144.712,348
1569940882,320.241,-100.459,-13.841,178.374,2.3291,-144.712,348
1569940882,320.241,-100.459,-13.841,178.374,2.3291,-144.712,348
1569940882,320.241,-100.459,-13.841,178.374,2.3291,-144.712,348
1569940882,320.241,-100.459,-13.841,178.374,2.3291,-144.712,348
1569940882,320.241,-100.459,-13.841,178.374,2.3291,-144.712,348
1569940882,320.241,-100.459,-13.841,178.352,2.3291,-144.712,344
1569940882,320.241,-100.459,-13.841,178.352,2.3291,-144.712,344
1569940882,320.241,-100.459,-13.841,178.352,2.3291,-144.712,344
1569940882,320.241,-100.459,-13.841,178.352,2.3291,-144.712,344
1569940882,320.241,-100.459,-13.841,178.352,2.3291,-144.712,344
1569940882,320.241,-100.459,-13.841,178.352,2.3291,-144.712,344
1569940882,320.241,-100.459,-13.841,178.352,2.3291,-144.712,340
1569940882,320.241,-100.571,-13.841,178.352,2.3291,-144.712,340
1569940882,320.241,-100.571,-13.841,178.352,2.3291,-144.712,340
1569940882,320.241,-100.571,-13.841,178.352,2.3291,-144.712,340
1569940882,320.241,-100.571,-13.841,178.352,2.3291,-144.712,340
1569940882,320.241,-100.571,-13.841,178.352,2.3291,-144.712,340
1569940882,320.241,-100.571,-13.841,178.352,2.3291,-144.712,340
1569940882,320.241,-100.571,-13.841,178.352,2.3291,-144.712,340
1569940882,320.241,-100.571,-13.841,178.352,2.3291,-144.712,340
1569940882,320.241,-100.459,-13.841,178.352,2.3291,-144.712,340
1569940882,320.241,-100.459,-13.841,178.352,2.3291,-144.712,336
1569940882,320.241,-100.459,-13.841,178.352,2.3291,-144.712,336
1569940882,320.241,-100.459,-13.841,178.352,2.3291,-144.712,336
1569940882,320.241,-100.459,-13.841,178.352,2.3291,-144.712,336
1569940882,320.241,-100.459,-13.841,178.352,2.3291,-144.712,336
1569940882,320.241,-100.459,-13.841,178.352,2.3291,-144.712,336
1569940882,320.241,-100.459,-13.841,178.352,2.3291,-144.712,336
1569940882,320.241,-100.459,-13.841,178.352,2.3291,-144.712,336
1569940882,320.241,-100.459,-13.841,178.352,2.3291,-144.712,336
1569940882,320.241,-100.459,-13.841,178.352,2.3291,-144.712,336
1569940882,320.241,-100.459,-13.841,178.352,2.3291,-144.712,336
1569940882,320.241,-100.459,-13.841,178.352,2.3291,-144.712,336
1569940882,320.241,-100.459,-13.841,178.374,2.3291,-144.712,336
1569940882,320.241,-100.459,-13.841,178.374,2.3291,-144.712,336
1569940882,320.241,-100.459,-13.7294,178.374,2.3291,-144.712,340
1569940882,320.241,-100.459,-13.7294,178.374,2.3291,-144.712,340
1569940882,320.241,-100.459,-13.7294,178.374,2.3291,-144.712,340
1569940882,320.241,-100.459,-13.7294,178.374,2.35107,-144.712,340
1569940882,320.241,-100.459,-13.7294,178.374,2.35107,-144.712,340
1569940882,320.241,-100.459,-13.7294,178.374,2.35107,-144.712,340
1569940882,320.241,-100.459,-13.7294,178.374,2.35107,-144.712,340
1569940882,320.241,-100.459,-13.7294,178.374,2.35107,-144.712,340
1569940882,320.241,-100.459,-13.7294,178.374,2.35107,-144.712,340
1569940882,320.241,-100.459,-13.7294,178.374,2.35107,-144.712,340
1569940882,320.241,-100.459,-13.7294,178.374,2.35107,-144.712,340
1569940882,320.241,-100.459,-13.7294,178.374,2.35107,-144.712,340
1569940882,320.241,-100.459,-13.7294,178.374,2.35107,-144.712,340
1569940882,320.241,-100.459,-13.7294,178.374,2.35107,-144.712,340
1569940882,320.241,-100.459,-13.7294,178.352,2.35107,-144.712,340
1569940882,320.241,-100.459,-13.7294,178.352,2.35107,-144.712,340
1569940882,320.241,-100.459,-13.7294,178.352,2.35107,-144.712,340
1569940882,320.241,-100.459,-13.7294,178.352,2.35107,-144.712,340
1569940882,320.241,-100.459,-13.7294,178.352,2.35107,-144.712,340
1569940882,320.241,-100.459,-13.7294,178.352,2.35107,-144.712,340
1569940882,320.241,-100.459,-13.7294,178.352,2.35107,-144.712,340
1569940882,320.241,-100.459,-13.7294,178.352,2.35107,-144.712,340
1569940882,320.241,-100.459,-13.7294,178.352,2.35107,-144.712,340
1569940882,320.241,-100.459,-13.7294,178.352,2.35107,-144.712,340
1569940882,320.241,-100.459,-13.7294,178.352,2.35107,-144.712,340
1569940882,320.241,-100.459,-13.7294,178.374,2.35107,-144.712,340
1569940882,320.241,-100.459,-13.7294,178.374,2.35107,-144.712,340
1569940882,320.241,-100.459,-13.7294,178.374,2.37305,-144.712,340
1569940882,320.241,-100.459,-13.7294,178.374,2.37305,-144.712,340
1569940882,320.241,-100.459,-13.7294,178.352,2.37305,-144.712,340
1569940882,320.241,-100.459,-13.7294,178.352,2.37305,-144.712,344
1569940882,320.241,-100.459,-13.7294,178.352,2.37305,-144.712,344
1569940882,320.241,-100.459,-13.7294,178.352,2.37305,-144.712,344
1569940882,320.241,-100.459,-13.6178,178.352,2.37305,-144.712,344
1569940883,320.241,-100.459,-13.6178,178.352,2.37305,-144.712,344
