time,x,y,z,ax,ay,az,q
1567619595,329.059,156.493,-17.1896,178.813,1.29639,-155.171,240
1567619595,329.059,156.493,-17.1896,178.813,1.29639,-155.171,240
1567619595,329.059,156.493,-17.1896,178.813,1.29639,-155.171,240
1567619595,329.059,156.493,-17.1896,178.813,1.29639,-155.171,240
1567619595,329.059,156.493,-17.1896,178.813,1.29639,-155.171,240
1567619595,329.059,156.493,-17.1896,178.813,1.29639,-155.171,240
1567619595,329.059,156.493,-17.1896,178.813,1.29639,-155.171,236
1567619595,329.059,156.493,-17.1896,178.813,1.29639,-155.171,236
1567619595,329.059,156.493,-17.078,178.813,1.29639,-155.171,236
1567619595,329.059,156.493,-17.078,178.792,1.29639,-155.171,236
1567619595,329.059,156.493,-17.078,178.792,1.29639,-155.171,236
1567619595,329.059,156.493,-17.078,178.792,1.29639,-155.171,236
1567619595,329.059,156.493,-17.078,178.792,1.29639,-155.171,236
1567619595,329.059,156.493,-17.078,178.792,1.29639,-155.171,232
1567619595,329.059,156.493,-17.078,178.792,1.29639,-155.193,232
1567619595,329.059,156.493,-17.078,178.792,1.29639,-155.193,232
1567619595,329.059,156.493,-17.078,178.792,1.29639,-155.193,232
1567619595,329.059,156.493,-17.078,178.813,1.29639,-155.193,232
1567619595,329.059,156.493,-17.078,178.813,1.29639,-155.193,232
1567619595,329.059,156.493,-17.078,178.813,1.29639,-155.193,236
1567619595,329.059,156.493,-17.078,178.813,1.29639,-155.193,236
1567619595,329.059,156.493,-17.078,178.813,1.29639,-155.193,236
1567619595,329.059,156.493,-17.078,178.813,1.29639,-155.193,236
1567619595,329.059,156.493,-17.078,178.813,1.29639,-155.193,236
1567619595,329.059,156.493,-17.078,178.813,1.29639,-155.171,236
1567619595,329.059,156.493,-17.078,178.813,1.29639,-155.171,236
1567619595,329.059,156.493,-17.078,178.813,1.29639,-155.171,236
1567619595,329.059,156.493,-17.078,178.813,1.29639,-155.171,240
1567619595,329.059,156.493,-17.078,178.813,1.29639,-155.171,240
1567619595,329.059,156.493,-17.078,178.835,1.29639,-155.171,240
1567619595,329.059,156.493,-17.078,178.835,1.29639,-155.171,240
1567619595,329.059,156.493,-17.078,178.835,1.29639,-155.171,244
1567619595,329.059,156.493,-17.078,178.835,1.29639,-155.171,244
1567619595,329.059,156.493,-17.078,178.835,1.29639,-155.171,244
1567619595,329.059,156.493,-17.078,178.835,1.29639,-155.171,244
1567619595,329.059,156.493,-17.078,178.835,1.29639,-155.171,244
1567619595,329.059,156.493,-17.078,178.835,1.29639,-155.171,248
1567619595,329.059,156.493,-17.1896,178.835,1.29639,-155.171,248
1567619595,329.059,156.493,-17.1896,178.835,1.29639,-155.171,248
1567619595,329.059,156.493,-17.1896,178.835,1.29639,-155.171,248
1567619595,329.059,156.493,-17.1896,178.835,1.29639,-155.171,248
1567619595,329.059,156.493,-17.1896,178.835,1.29639,-155.171,248
1567619595,329.059,156.493,-17.1896,178.835,1.29639,-155.171,248
1567619595,329.059,156.493,-17.1896,178.813,1.29639,-155.171,248
1567619595,329.059,156.493,-17.1896,178.813,1.29639,-155.171,248
1567619595,329.059,156.493,-17.1896,178.813,1.29639,-155.171,248
1567619595,329.059,156.493,-17.1896,178.813,1.29639,-155.171,248
1567619595,329.059,156.493,-17.1896,178.813,1.29639,-155.171,244
1567619595,329.059,156.493,-17.1896,178.813,1.29639,-155.171,244
1567619595,329.059,156.493,-17.1896,178.813,1.29639,-155.171,244
1567619595,329.059,156.493,-17.1896,178.813,1.29639,-155.171,244
1567619595,329.059,156.493,-17.1896,178.813,1.29639,-155.171,240
1567619595,329.059,156.493,-17.1896,178.813,1.29639,-155.171,240
1567619595,329.059,156.493,-17.1896,178.813,1.29639,-155.171,240
1567619595,329.059,156.493,-17.1896,178.813,1.29639,-155.171,240
1567619595,329.059,156.493,-17.1896,178.813,1.29639,-155.171,236
1567619595,329.059,156.493,-17.1896,178.813,1.29639,-155.171,236
1567619595,329.059,156.493,-17.078,178.813,1.29639,-155.171,236
1567619595,329.059,156.493,-17.078,178.813,1.29639,-155.171,232
1567619595,329.059,156.493,-17.078,178.813,1.29639,-155.171,232
1567619595,329.059,156.493,-17.078,178.813,1.29639,-155.171,232
1567619595,329.059,156.493,-17.078,178.813,1.29639,-155.171,232
1567619595,329.059,156.493,-17.078,178.813,1.29639,-155.171,228
1567619595,329.059,156.381,-17.078,178.813,1.29639,-155.171,228
1567619595,329.059,156.381,-17.078,178.813,1.29639,-155.171,228
1567619595,329.059,156.381,-17.078,178.792,1.29639,-155.171,228
1567619595,329.059,156.381,-17.078,178.792,1.29639,-155.171,228
1567619595,329.059,156.381,-17.078,178.813,1.29639,-155.171,228
1567619595,329.059,156.381,-17.078,178.813,1.29639,-155.171,228
1567619595,329.059,156.381,-17.078,178.813,1.29639,-155.171,224
1567619595,329.059,156.381,-17.078,178.813,1.29639,-155.171,224
1567619595,329.059,156.381,-17.078,178.813,1.29639,-155.171,228
1567619595,329.059,156.381,-17.078,178.813,1.29639,-155.171,228
1567619595,329.059,156.381,-17.1896,178.813,1.29639,-155.171,228
1567619595,329.059,156.381,-17.1896,178.813,1.29639,-155.171,228
1567619595,329.059,156.381,-17.1896,178.813,1.27441,-155.171,228
1567619595,329.059,156.381,-17.1896,178.813,1.27441,-155.171,228
1567619596,329.059,156.381,-17.1896,178.813,1.27441,-155.171,228
1567619596,329.059,156.381,-17.1896,178.813,1.27441,-155.171,228
1567619596,329.059,156.381,-17.1896,178.813,1.27441,-155.171,228
1567619596,329.059,156.381,-17.1896,178.813,1.27441,-155.171,228
1567619596,329.059,156.381,-17.1896,178.813,1.27441,-155.171,228
1567619596,329.059,156.381,-17.1896,178.792,1.27441,-155.171,228
1567619596,329.059,156.381,-17.1896,178.792,1.27441,-155.171,228
1567619596,329.059,156.381,-17.1896,178.792,1.27441,-155.171,228
1567619596,329.059,156.381,-17.1896,178.792,1.27441,-155.171,228
1567619596,329.059,156.381,-17.1896,178.792,1.27441,-155.171,228
1567619596,329.059,156.381,-17.1896,178.792,1.27441,-155.171,228
1567619596,329.059,156.381,-17.1896,178.792,1.27441,-155.193,228
1567619596,329.059,156.381,-17.1896,178.792,1.27441,-155.193,228
1567619596,329.059,156.381,-17.1896,178.792,1.27441,-155.193,228
1567619596,329.059,156.381,-17.1896,178.792,1.27441,-155.193,228
1567619596,329.059,156.381,-17.1896,178.792,1.27441,-155.193,228
1567619596,329.059,156.381,-17.1896,178.792,1.27441,-155.193,228
1567619596,329.059,156.381,-17.1896,178.792,1.27441,-155.193,228
1567619596,329.059,156.381,-17.1896,178.792,1.29639,-155.193,228
1567619596,329.059,156.381,-17.1896,178.792,1.29639,-155.193,228
1567619596,329.059,156.381,-17.078,178.792,1.29639,-155.193,228
1567619596,329.059,156.381,-17.078,178.792,1.29639,-155.193,228
1567619596,329.171,156.381,-17.078,178.792,1.29639,-155.193,228
1567619596,329.171,156.381,-17.078,178.792,1.29639,-155.193,228
1567619596,329.171,156.381,-17.078,178.792,1.29639,-155.193,228
1567619596,329.171,156.381,-17.078,178.792,1.29639,-155.171,224
1567619596,329.171,156.381,-17.078,178.792,1.31836,-155.171,224
1567619596,329.171,156.381,-17.078,178.792,1.31836,-155.171,224
1567619596,329.171,156.381,-17.078,178.792,1.31836,-155.171,224
1567619596,329.171,156.381,-17.078,178.792,1.31836,-155.171,224
1567619596,329.171,156.381,-17.078,178.792,1.31836,-155.171,220
1567619596,329.171,156.381,-17.078,178.792,1.31836,-155.171,220
1567619596,329.171,156.381,-17.078,178.792,1.31836,-155.171,220
1567619596,329.171,156.381,-17.078,178.792,1.31836,-155.171,220
1567619596,329.171,156.381,-17.078,178.792,1.31836,-155.171,220
1567619596,329.171,156.381,-17.078,178.792,1.31836,-155.171,220
1567619596,329.171,156.381,-17.078,178.792,1.31836,-155.171,220
1567619596,329.171,156.381,-17.078,178.792,1.31836,-155.171,220
1567619596,329.171,156.381,-17.078,178.792,1.31836,-155.171,224
1567619596,329.171,156.381,-17.078,178.792,1.31836,-155.171,224
1567619596,329.171,156.381,-17.078,178.77,1.31836,-155.171,224
1567619596,329.171,156.381,-17.078,178.77,1.31836,-155.171,224
1567619596,329.171,156.381,-17.078,178.77,1.31836,-155.171,224
1567619596,329.171,156.381,-17.078,178.77,1.31836,-155.171,224
1567619596,329.171,156.381,-17.078,178.77,1.31836,-155.171,224
1567619596,329.171,156.381,-17.078,178.77,1.31836,-155.171,220
1567619596,329.171,156.381,-17.078,178.77,1.31836,-155.171,220
1567619596,329.171,156.381,-17.078,178.77,1.31836,-155.171,220
1567619596,329.171,156.381,-17.078,178.792,1.31836,-155.171,220
1567619596,329.171,156.381,-17.078,178.792,1.31836,-155.171,220
1567619596,329.171,156.381,-17.078,178.792,1.31836,-155.171,220
1567619596,329.171,156.381,-17.078,178.792,1.31836,-155.171,220
1567619596,329.171,156.381,-17.078,178.792,1.31836,-155.171,220
1567619596,329.171,156.381,-17.078,178.792,1.31836,-155.171,220
1567619596,329.171,156.381,-17.078,178.792,1.31836,-155.171,220
1567619596,329.171,156.381,-17.078,178.77,1.31836,-155.171,220
1567619596,329.171,156.381,-17.078,178.77,1.31836,-155.171,220
1567619596,329.171,156.381,-17.078,178.77,1.31836,-155.171,220
1567619596,329.171,156.381,-17.078,178.77,1.31836,-155.171,224
1567619596,329.171,156.381,-17.078,178.77,1.31836,-155.171,224
1567619596,329.171,156.381,-17.078,178.77,1.31836,-155.171,224
1567619596,329.171,156.381,-17.078,178.77,1.31836,-155.171,224
1567619596,329.171,156.381,-17.078,178.77,1.31836,-155.171,228
1567619596,329.171,156.381,-17.078,178.77,1.31836,-155.171,228
1567619596,329.171,156.381,-17.078,178.77,1.31836,-155.171,228
1567619596,329.059,156.381,-17.078,178.77,1.31836,-155.171,232
1567619596,329.059,156.381,-17.078,178.77,1.31836,-155.171,232
1567619596,329.059,156.381,-17.078,178.77,1.31836,-155.171,232
1567619596,329.059,156.381,-17.078,178.77,1.31836,-155.171,236
1567619596,329.059,156.381,-17.078,178.77,1.31836,-155.171,236
1567619596,329.059,156.381,-17.078,178.77,1.31836,-155.171,236
1567619596,329.059,156.381,-17.078,178.77,1.31836,-155.171,236
1567619596,329.059,156.381,-17.078,178.77,1.31836,-155.171,240
1567619596,329.059,156.381,-17.078,178.77,1.31836,-155.171,240
1567619596,329.059,156.381,-17.078,178.77,1.31836,-155.171,240
1567619596,329.059,156.381,-17.078,178.77,1.31836,-155.171,240
1567619596,329.059,156.381,-17.078,178.77,1.31836,-155.171,240
1567619596,329.059,156.381,-17.078,178.77,1.31836,-155.171,240
1567619596,329.059,156.381,-17.078,178.77,1.31836,-155.171,240
1567619596,329.059,156.381,-17.078,178.77,1.31836,-155.171,244
1567619596,329.059,156.381,-17.078,178.77,1.31836,-155.171,244
1567619596,329.059,156.381,-17.078,178.77,1.31836,-155.171,244
1567619596,329.059,156.27,-17.078,178.77,1.31836,-155.171,244
1567619596,329.059,156.27,-17.078,178.77,1.31836,-155.171,244
1567619596,329.059,156.27,-17.078,178.77,1.31836,-155.171,248
1567619596,329.059,156.27,-17.078,178.77,1.31836,-155.171,248
1567619596,329.059,156.381,-17.078,178.77,1.31836,-155.171,248
1567619596,329.059,156.381,-17.1896,178.77,1.29639,-155.171,248
1567619596,329.059,156.381,-17.1896,178.77,1.29639,-155.171,248
1567619596,329.059,156.381,-17.1896,178.77,1.29639,-155.171,252
1567619596,329.059,156.381,-17.1896,178.77,1.29639,-155.171,252
1567619596,329.059,156.381,-17.1896,178.77,1.29639,-155.171,252
1567619596,329.059,156.381,-17.1896,178.77,1.29639,-155.171,252
1567619596,329.059,156.381,-17.1896,178.77,1.29639,-155.171,252
1567619596,329.059,156.381,-17.1896,178.77,1.29639,-155.171,252
1567619596,329.059,156.381,-17.1896,178.77,1.29639,-155.171,252
1567619596,329.059,156.381,-17.1896,178.77,1.29639,-155.171,252
1567619596,329.059,156.381,-17.1896,178.77,1.29639,-155.171,252
1567619596,329.059,156.381,-17.1896,178.77,1.29639,-155.171,252
1567619597,329.059,156.381,-17.1896,178.77,1.29639,-155.171,252
1567619597,329.059,156.381,-17.1896,178.792,1.29639,-155.171,252
1567619597,329.059,156.381,-17.1896,178.792,1.29639,-155.171,252
1567619597,329.059,156.381,-17.1896,178.792,1.29639,-155.171,252
1567619597,329.059,156.381,-17.1896,178.792,1.29639,-155.171,252
1567619597,329.059,156.381,-17.1896,178.792,1.29639,-155.171,252
1567619597,329.059,156.381,-17.1896,178.792,1.29639,-155.171,252
1567619597,329.059,156.381,-17.1896,178.792,1.29639,-155.171,252
1567619597,329.059,156.381,-17.1896,178.792,1.29639,-155.149,252
1567619597,329.059,156.381,-17.1896,178.792,1.29639,-155.149,252
1567619597,329.059,156.381,-17.1896,178.792,1.29639,-155.149,252
1567619597,329.059,156.381,-17.1896,178.792,1.29639,-155.149,248
1567619597,329.059,156.381,-17.1896,178.792,1.29639,-155.149,248
1567619597,329.059,156.381,-17.1896,178.792,1.29639,-155.149,248
1567619597,329.059,156.381,-17.1896,178.792,1.29639,-155.149,248
1567619597,329.059,156.381,-17.1896,178.792,1.29639,-155.149,248
1567619597,329.059,156.381,-17.1896,178.792,1.29639,-155.149,248
1567619597,329.059,156.381,-17.1896,178.792,1.29639,-155.149,248
1567619597,329.059,156.381,-17.1896,178.792,1.29639,-155.149,248
1567619597,329.059,156.381,-17.1896,178.792,1.29639,-155.149,248
1567619597,329.059,156.381,-17.1896,178.813,1.29639,-155.149,248
1567619597,329.059,156.381,-17.1896,178.813,1.29639,-155.149,244
1567619597,329.059,156.381,-17.1896,178.813,1.29639,-155.149,244
1567619597,329.059,156.381,-17.1896,178.813,1.29639,-155.149,244
1567619597,329.059,156.381,-17.1896,178.813,1.29639,-155.149,244
1567619597,329.059,156.381,-17.1896,178.813,1.29639,-155.149,244
1567619597,329.059,156.381,-17.1896,178.792,1.29639,-155.149,244
1567619597,329.059,156.381,-17.1896,178.792,1.29639,-155.149,244
1567619597,329.059,156.381,-17.1896,178.792,1.29639,-155.149,244
1567619597,329.059,156.381,-17.1896,178.792,1.29639,-155.149,240
1567619597,329.059,156.381,-17.1896,178.792,1.27441,-155.149,240
1567619597,329.059,156.381,-17.1896,178.792,1.27441,-155.149,240
1567619597,329.059,156.381,-17.1896,178.792,1.27441,-155.149,240
1567619597,329.171,156.381,-17.1896,178.792,1.27441,-155.149,240
1567619597,329.171,156.381,-17.1896,178.792,1.27441,-155.149,240
1567619597,329.171,156.381,-17.1896,178.77,1.27441,-155.149,236
1567619597,329.171,156.381,-17.1896,178.77,1.27441,-155.149,236
1567619597,329.171,156.381,-17.1896,178.77,1.27441,-155.149,236
1567619597,329.171,156.381,-17.1896,178.77,1.27441,-155.149,236
1567619597,329.171,156.381,-17.1896,178.77,1.27441,-155.149,236
1567619597,329.171,156.381,-17.1896,178.77,1.27441,-155.149,232
1567619597,329.171,156.381,-17.1896,178.77,1.27441,-155.149,232
1567619597,329.171,156.381,-17.1896,178.77,1.27441,-155.149,232
1567619597,329.171,156.381,-17.1896,178.77,1.27441,-155.149,232
1567619597,329.171,156.381,-17.1896,178.792,1.27441,-155.149,228
1567619597,329.171,156.381,-17.1896,178.792,1.27441,-155.149,228
1567619597,329.171,156.381,-17.1896,178.792,1.27441,-155.149,228
1567619597,329.171,156.381,-17.1896,178.792,1.27441,-155.149,228
1567619597,329.171,156.381,-17.1896,178.792,1.27441,-155.149,228
1567619597,329.171,156.381,-17.1896,178.792,1.27441,-155.149,224
1567619597,329.171,156.381,-17.1896,178.792,1.27441,-155.149,224
1567619597,329.171,156.381,-17.1896,178.792,1.27441,-155.149,224
1567619597,329.171,156.381,-17.1896,178.792,1.27441,-155.149,224
1567619597,329.171,156.381,-17.1896,178.792,1.27441,-155.171,224
1567619597,329.059,156.381,-17.1896,178.792,1.27441,-155.171,224
1567619597,329.059,156.381,-17.1896,178.792,1.27441,-155.171,224
1567619597,329.059,156.381,-17.1896,178.792,1.27441,-155.171,224
1567619597,329.059,156.381,-17.1896,178.792,1.29639,-155.171,224
1567619597,329.059,156.381,-17.1896,178.792,1.29639,-155.171,224
1567619597,329.059,156.381,-17.1896,178.792,1.29639,-155.171,224
1567619597,329.059,156.381,-17.1896,178.792,1.29639,-155.171,224
1567619597,329.059,156.381,-17.1896,178.792,1.29639,-155.171,224
1567619597,329.059,156.381,-17.1896,178.77,1.29639,-155.171,224
1567619597,329.059,156.381,-17.1896,178.77,1.27441,-155.171,224
1567619597,329.059,156.381,-17.1896,178.77,1.27441,-155.171,224
1567619597,329.059,156.381,-17.1896,178.77,1.27441,-155.171,224
1567619597,329.059,156.381,-17.1896,178.77,1.27441,-155.171,224
1567619597,329.059,156.381,-17.1896,178.77,1.27441,-155.171,228
1567619597,329.059,156.381,-17.1896,178.792,1.27441,-155.171,228
1567619597,329.059,156.381,-17.1896,178.792,1.27441,-155.171,228
1567619597,329.059,156.381,-17.1896,178.792,1.27441,-155.171,228
1567619597,329.059,156.381,-17.1896,178.792,1.27441,-155.171,228
1567619597,329.059,156.381,-17.1896,178.792,1.27441,-155.171,228
1567619597,329.059,156.381,-17.1896,178.792,1.27441,-155.149,228
1567619597,329.059,156.381,-17.1896,178.792,1.27441,-155.149,228
1567619597,329.059,156.381,-17.1896,178.792,1.27441,-155.149,228
1567619597,329.059,156.381,-17.1896,178.792,1.27441,-155.149,228
1567619597,329.059,156.381,-17.1896,178.792,1.27441,-155.149,228
1567619597,329.059,156.381,-17.1896,178.792,1.27441,-155.149,228
1567619597,329.059,156.381,-17.1896,178.792,1.27441,-155.171,232
1567619597,329.059,156.381,-17.1896,178.77,1.27441,-155.171,232
1567619597,329.059,156.381,-17.1896,178.77,1.27441,-155.171,232
1567619597,329.059,156.381,-17.1896,178.77,1.27441,-155.171,232
1567619597,329.059,156.381,-17.1896,178.77,1.27441,-155.171,232
1567619597,329.059,156.381,-17.1896,178.77,1.27441,-155.171,236
1567619597,329.059,156.381,-17.1896,178.77,1.27441,-155.171,236
1567619597,329.059,156.27,-17.1896,178.77,1.27441,-155.171,236
1567619597,329.059,156.27,-17.1896,178.77,1.27441,-155.171,236
1567619597,329.059,156.27,-17.1896,178.77,1.27441,-155.171,236
1567619597,329.059,156.27,-17.1896,178.77,1.27441,-155.171,236
1567619597,329.171,156.27,-17.1896,178.77,1.27441,-155.171,236
1567619597,329.171,156.27,-17.1896,178.77,1.27441,-155.149,236
1567619597,329.171,156.27,-17.1896,178.77,1.27441,-155.149,236
1567619597,329.171,156.27,-17.1896,178.77,1.27441,-155.149,240
1567619597,329.171,156.27,-17.1896,178.77,1.27441,-155.149,240
1567619597,329.171,156.27,-17.1896,178.77,1.27441,-155.149,240
1567619597,329.171,156.27,-17.1896,178.77,1.27441,-155.149,240
1567619597,329.171,156.27,-17.1896,178.77,1.27441,-155.149,240
1567619597,329.171,156.27,-17.1896,178.77,1.27441,-155.149,240
1567619597,329.171,156.27,-17.1896,178.77,1.27441,-155.149,240
1567619597,329.171,156.27,-17.1896,178.77,1.27441,-155.149,240
1567619598,329.171,156.27,-17.1896,178.77,1.27441,-155.149,240
1567619598,329.171,156.27,-17.1896,178.77,1.27441,-155.149,240
1567619598,329.171,156.27,-17.1896,178.77,1.27441,-155.149,240
1567619598,329.171,156.381,-17.1896,178.77,1.27441,-155.149,240
1567619598,329.171,156.381,-17.1896,178.77,1.27441,-155.149,240
1567619598,329.171,156.381,-17.1896,178.77,1.27441,-155.149,240
1567619598,329.171,156.381,-17.1896,178.77,1.27441,-155.149,240
1567619598,329.171,156.381,-17.1896,178.77,1.27441,-155.149,240
1567619598,329.171,156.381,-17.1896,178.792,1.27441,-155.171,236
1567619598,329.171,156.381,-17.1896,178.792,1.27441,-155.171,236
1567619598,329.171,156.381,-17.1896,178.792,1.29639,-155.171,236
1567619598,329.171,156.381,-17.1896,178.792,1.29639,-155.171,236
1567619598,329.171,156.381,-17.1896,178.792,1.29639,-155.171,236
1567619598,329.171,156.27,-17.1896,178.792,1.29639,-155.171,236
1567619598,329.171,156.27,-17.1896,178.77,1.29639,-155.171,236
1567619598,329.171,156.27,-17.1896,178.77,1.29639,-155.171,236
1567619598,329.171,156.27,-17.1896,178.77,1.29639,-155.171,236
1567619598,329.171,156.27,-17.1896,178.77,1.29639,-155.171,236
1567619598,329.171,156.27,-17.1896,178.77,1.29639,-155.171,236
1567619598,329.171,156.27,-17.1896,178.77,1.29639,-155.171,236
1567619598,329.171,156.27,-17.1896,178.77,1.29639,-155.171,236
1567619598,329.171,156.27,-17.1896,178.77,1.29639,-155.171,236
1567619598,329.171,156.27,-17.1896,178.77,1.29639,-155.171,236
1567619598,329.171,156.27,-17.1896,178.77,1.29639,-155.171,236
1567619598,329.171,156.27,-17.1896,178.77,1.29639,-155.171,236
1567619598,329.171,156.27,-17.1896,178.77,1.29639,-155.171,236
1567619598,329.171,156.27,-17.1896,178.77,1.29639,-155.171,236
1567619598,329.171,156.27,-17.1896,178.792,1.29639,-155.171,236
1567619598,329.171,156.27,-17.1896,178.792,1.29639,-155.171,236
1567619598,329.171,156.381,-17.078,178.792,1.29639,-155.171,236
1567619598,329.059,156.381,-17.078,178.792,1.29639,-155.171,236
1567619598,329.059,156.381,-17.078,178.792,1.29639,-155.171,236
1567619598,329.059,156.381,-17.078,178.792,1.29639,-155.171,236
1567619598,329.059,156.381,-17.078,178.792,1.29639,-155.171,236
1567619598,329.059,156.381,-17.078,178.792,1.29639,-155.171,236
1567619598,329.059,156.381,-17.078,178.792,1.29639,-155.171,232
1567619598,329.059,156.381,-17.078,178.792,1.29639,-155.171,232
1567619598,329.059,156.381,-17.078,178.792,1.29639,-155.171,232
1567619598,329.059,156.381,-17.078,178.792,1.29639,-155.171,232
1567619598,329.171,156.381,-17.078,178.792,1.29639,-155.171,232
1567619598,329.171,156.381,-17.078,178.792,1.29639,-155.171,232
1567619598,329.171,156.381,-17.078,178.792,1.29639,-155.171,232
1567619598,329.171,156.381,-17.078,178.792,1.29639,-155.171,232
1567619598,329.171,156.381,-17.078,178.792,1.29639,-155.171,232
1567619598,329.171,156.381,-17.078,178.792,1.29639,-155.171,232
1567619598,329.171,156.381,-17.078,178.792,1.29639,-155.171,232
1567619598,329.171,156.381,-17.078,178.792,1.29639,-155.171,232
1567619598,329.171,156.381,-17.1896,178.792,1.29639,-155.171,232
1567619598,329.171,156.381,-17.1896,178.792,1.29639,-155.171,232
1567619598,329.171,156.381,-17.1896,178.792,1.29639,-155.171,232
1567619598,329.171,156.381,-17.1896,178.792,1.29639,-155.171,232
1567619598,329.171,156.381,-17.1896,178.792,1.29639,-155.171,232
1567619598,329.171,156.381,-17.1896,178.792,1.29639,-155.171,232
1567619598,329.171,156.381,-17.1896,178.792,1.27441,-155.171,232
1567619598,329.171,156.381,-17.1896,178.792,1.27441,-155.171,232
1567619598,329.171,156.381,-17.1896,178.792,1.27441,-155.171,232
1567619598,329.171,156.381,-17.1896,178.792,1.27441,-155.171,228
1567619598,329.171,156.381,-17.1896,178.792,1.27441,-155.171,228
1567619598,329.171,156.381,-17.1896,178.792,1.27441,-155.171,228
1567619598,329.171,156.381,-17.1896,178.792,1.27441,-155.171,228
1567619598,329.171,156.381,-17.1896,178.792,1.27441,-155.171,228
1567619598,329.171,156.381,-17.1896,178.792,1.27441,-155.171,228
1567619598,329.171,156.381,-17.1896,178.792,1.27441,-155.171,228
1567619598,329.171,156.381,-17.1896,178.792,1.27441,-155.171,228
1567619598,329.171,156.381,-17.1896,178.792,1.27441,-155.171,228
1567619598,329.171,156.381,-17.1896,178.792,1.27441,-155.171,228
1567619598,329.171,156.381,-17.1896,178.792,1.27441,-155.171,228
1567619598,329.171,156.381,-17.1896,178.792,1.27441,-155.193,228
1567619598,329.171,156.381,-17.1896,178.792,1.29639,-155.193,228
1567619598,329.171,156.381,-17.1896,178.77,1.29639,-155.193,232
1567619598,329.171,156.381,-17.1896,178.77,1.29639,-155.193,232
1567619598,329.171,156.381,-17.1896,178.792,1.27441,-155.193,232
1567619598,329.171,156.381,-17.1896,178.77,1.27441,-155.193,232
1567619598,329.171,156.381,-17.1896,178.77,1.27441,-155.193,232
1567619598,329.171,156.381,-17.1896,178.77,1.27441,-155.193,228
1567619598,329.171,156.381,-17.1896,178.77,1.27441,-155.193,228
1567619598,329.171,156.381,-17.1896,178.77,1.27441,-155.193,228
1567619598,329.171,156.381,-17.1896,178.77,1.27441,-155.193,228
1567619598,329.171,156.381,-17.1896,178.77,1.27441,-155.193,228
1567619598,329.171,156.381,-17.1896,178.77,1.27441,-155.193,228
1567619598,329.171,156.381,-17.1896,178.77,1.27441,-155.193,228
1567619598,329.171,156.381,-17.1896,178.77,1.27441,-155.193,228
1567619598,329.171,156.381,-17.1896,178.77,1.27441,-155.193,228
1567619598,329.171,156.381,-17.1896,178.77,1.27441,-155.171,228
1567619598,329.171,156.27,-17.1896,178.77,1.27441,-155.171,228
1567619598,329.171,156.27,-17.1896,178.77,1.27441,-155.171,228
1567619598,329.171,156.27,-17.1896,178.77,1.27441,-155.171,228
1567619598,329.171,156.27,-17.1896,178.77,1.27441,-155.171,228
1567619598,329.171,156.27,-17.1896,178.77,1.27441,-155.171,232
1567619598,329.171,156.27,-17.1896,178.77,1.27441,-155.171,232
1567619598,329.171,156.27,-17.1896,178.77,1.27441,-155.171,232
1567619598,329.171,156.381,-17.1896,178.77,1.27441,-155.171,232
1567619598,329.171,156.381,-17.1896,178.77,1.27441,-155.171,232
1567619598,329.171,156.381,-17.1896,178.792,1.27441,-155.171,232
1567619598,329.171,156.381,-17.1896,178.792,1.27441,-155.171,232
1567619598,329.171,156.381,-17.1896,178.792,1.27441,-155.171,232
1567619598,329.171,156.381,-17.1896,178.792,1.27441,-155.171,236
1567619598,329.171,156.381,-17.1896,178.792,1.27441,-155.171,236
1567619598,329.171,156.381,-17.1896,178.792,1.27441,-155.171,236
1567619598,329.171,156.381,-17.1896,178.792,1.27441,-155.171,236
1567619599,329.171,156.381,-17.1896,178.792,1.27441,-155.171,236
1567619599,329.171,156.381,-17.1896,178.792,1.27441,-155.193,236
1567619599,329.171,156.381,-17.1896,178.792,1.27441,-155.193,240
1567619599,329.171,156.381,-17.1896,178.792,1.25244,-155.193,240
1567619599,329.171,156.381,-17.1896,178.792,1.25244,-155.193,240
1567619599,329.171,156.381,-17.1896,178.792,1.25244,-155.193,240
1567619599,329.171,156.381,-17.1896,178.792,1.27441,-155.193,240
1567619599,329.171,156.381,-17.1896,178.792,1.27441,-155.193,240
1567619599,329.059,156.381,-17.1896,178.792,1.27441,-155.193,240
1567619599,329.059,156.381,-17.1896,178.792,1.27441,-155.193,244
1567619599,329.059,156.381,-17.1896,178.792,1.27441,-155.193,244
1567619599,329.059,156.381,-17.1896,178.792,1.27441,-155.193,244
1567619599,329.059,156.381,-17.1896,178.813,1.27441,-155.193,244
1567619599,329.059,156.381,-17.1896,178.813,1.27441,-155.193,244
1567619599,329.059,156.381,-17.1896,178.813,1.27441,-155.193,244
1567619599,329.059,156.381,-17.1896,178.813,1.27441,-155.171,244
1567619599,329.059,156.381,-17.1896,178.813,1.27441,-155.171,244
1567619599,329.059,156.493,-17.1896,178.813,1.27441,-155.171,244
1567619599,329.059,156.493,-17.1896,178.813,1.27441,-155.171,244
1567619599,329.059,156.493,-17.1896,178.813,1.27441,-155.193,244
1567619599,329.059,156.493,-17.1896,178.835,1.27441,-155.193,244
1567619599,329.059,156.493,-17.1896,178.835,1.27441,-155.193,244
1567619599,329.059,156.493,-17.1896,178.835,1.27441,-155.193,244
1567619599,329.059,156.493,-17.1896,178.835,1.27441,-155.193,244
1567619599,329.059,156.493,-17.1896,178.835,1.27441,-155.193,244
1567619599,329.059,156.493,-17.1896,178.835,1.27441,-155.193,244
1567619599,329.059,156.493,-17.1896,178.835,1.27441,-155.193,244
1567619599,329.059,156.493,-17.1896,178.835,1.27441,-155.193,244
1567619599,329.059,156.493,-17.1896,178.835,1.27441,-155.193,244
1567619599,329.059,156.493,-17.1896,178.835,1.27441,-155.193,244
1567619599,329.059,156.493,-17.1896,178.835,1.27441,-155.193,244
1567619599,328.947,156.493,-17.1896,178.835,1.27441,-155.193,248
1567619599,328.947,156.493,-17.1896,178.835,1.27441,-155.193,248
1567619599,328.947,156.493,-17.1896,178.835,1.27441,-155.193,248
1567619599,328.947,156.493,-17.1896,178.835,1.29639,-155.171,248
1567619599,328.947,156.493,-17.078,178.835,1.29639,-155.171,248
1567619599,328.947,156.493,-17.078,178.835,1.29639,-155.171,248
1567619599,328.947,156.493,-17.078,178.835,1.29639,-155.171,248
1567619599,329.059,156.493,-17.1896,178.835,1.29639,-155.171,248
1567619599,329.059,156.493,-17.1896,178.835,1.27441,-155.171,248
1567619599,329.059,156.493,-17.1896,178.835,1.27441,-155.171,248
1567619599,329.059,156.493,-17.1896,178.835,1.27441,-155.171,248
1567619599,329.059,156.493,-17.1896,178.835,1.27441,-155.171,244
1567619599,329.059,156.381,-17.1896,178.835,1.27441,-155.171,244
1567619599,329.059,156.381,-17.1896,178.835,1.27441,-155.171,244
1567619599,329.059,156.381,-17.1896,178.813,1.27441,-155.171,244
1567619599,329.059,156.381,-17.1896,178.813,1.27441,-155.171,244
1567619599,329.059,156.381,-17.1896,178.813,1.27441,-155.171,244
1567619599,329.059,156.381,-17.1896,178.813,1.27441,-155.171,244
1567619599,329.059,156.381,-17.1896,178.813,1.27441,-155.171,240
1567619599,329.059,156.381,-17.1896,178.813,1.27441,-155.171,240
1567619599,329.059,156.381,-17.1896,178.813,1.27441,-155.171,240
1567619599,329.059,156.381,-17.1896,178.813,1.29639,-155.171,240
1567619599,329.059,156.381,-17.1896,178.813,1.29639,-155.171,236
1567619599,329.059,156.381,-17.1896,178.813,1.29639,-155.171,236
1567619599,329.059,156.381,-17.1896,178.813,1.29639,-155.171,236
1567619599,329.059,156.381,-17.1896,178.813,1.29639,-155.171,236
1567619599,329.059,156.381,-17.1896,178.813,1.29639,-155.171,236
1567619599,329.059,156.381,-17.1896,178.813,1.29639,-155.171,236
1567619599,329.059,156.381,-17.1896,178.813,1.29639,-155.171,236
1567619599,329.059,156.381,-17.1896,178.813,1.27441,-155.171,236
1567619599,329.059,156.381,-17.1896,178.813,1.27441,-155.171,236
1567619599,329.059,156.381,-17.1896,178.813,1.27441,-155.171,236
1567619599,329.059,156.381,-17.1896,178.813,1.27441,-155.171,236
1567619599,329.059,156.381,-17.1896,178.813,1.27441,-155.171,236
1567619599,329.059,156.381,-17.1896,178.792,1.27441,-155.171,236
1567619599,329.059,156.381,-17.1896,178.792,1.27441,-155.171,236
1567619599,329.059,156.381,-17.1896,178.792,1.27441,-155.171,236
1567619599,329.059,156.381,-17.1896,178.792,1.27441,-155.193,236
1567619599,329.171,156.381,-17.1896,178.792,1.27441,-155.193,236
1567619599,329.171,156.381,-17.1896,178.792,1.27441,-155.193,232
1567619599,329.171,156.381,-17.1896,178.792,1.27441,-155.193,232
1567619599,329.171,156.381,-17.1896,178.792,1.27441,-155.193,232
1567619599,329.171,156.381,-17.1896,178.792,1.29639,-155.193,232
1567619599,329.171,156.381,-17.1896,178.792,1.29639,-155.193,232
1567619599,329.171,156.381,-17.1896,178.792,1.29639,-155.193,232
1567619599,329.171,156.381,-17.078,178.792,1.29639,-155.193,232
1567619599,329.171,156.381,-17.078,178.792,1.29639,-155.193,232
1567619599,329.171,156.381,-17.078,178.792,1.29639,-155.193,232
1567619599,329.171,156.381,-17.078,178.792,1.29639,-155.193,232
1567619599,329.059,156.381,-17.078,178.792,1.29639,-155.193,232
1567619599,329.059,156.381,-17.078,178.792,1.29639,-155.193,232
1567619599,329.059,156.381,-17.078,178.792,1.29639,-155.193,232
1567619599,329.059,156.381,-17.078,178.792,1.29639,-155.193,232
1567619599,329.059,156.381,-17.078,178.792,1.29639,-155.193,232
1567619599,329.059,156.381,-17.078,178.792,1.29639,-155.193,232
1567619599,329.059,156.381,-17.078,178.792,1.29639,-155.193,232
1567619599,329.059,156.381,-17.078,178.792,1.29639,-155.193,236
1567619599,329.059,156.381,-17.078,178.792,1.29639,-155.193,236
1567619599,329.059,156.381,-17.078,178.792,1.29639,-155.193,236
1567619599,329.059,156.381,-17.078,178.792,1.29639,-155.193,236
1567619599,329.059,156.381,-17.078,178.792,1.31836,-155.193,240
1567619599,329.059,156.381,-17.078,178.792,1.31836,-155.193,240
1567619599,329.059,156.381,-17.078,178.792,1.31836,-155.193,240
1567619599,329.059,156.381,-17.078,178.792,1.29639,-155.193,240
1567619599,329.059,156.381,-17.078,178.792,1.29639,-155.193,240
1567619599,329.059,156.381,-17.078,178.792,1.29639,-155.193,240
1567619599,329.059,156.381,-17.078,178.792,1.29639,-155.193,240
1567619599,329.059,156.381,-17.078,178.792,1.29639,-155.193,244
1567619599,329.059,156.381,-17.078,178.792,1.29639,-155.193,244
1567619600,329.059,156.381,-17.078,178.792,1.29639,-155.193,244
1567619600,329.059,156.381,-17.078,178.792,1.29639,-155.193,244
1567619600,329.059,156.381,-17.078,178.792,1.29639,-155.193,244
1567619600,329.059,156.381,-17.1896,178.792,1.29639,-155.193,240
1567619600,329.059,156.381,-17.1896,178.792,1.29639,-155.193,240
1567619600,329.059,156.381,-17.1896,178.792,1.29639,-155.193,240
1567619600,329.059,156.381,-17.1896,178.792,1.29639,-155.193,240
1567619600,329.059,156.381,-17.1896,178.792,1.29639,-155.193,240
1567619600,329.171,156.381,-17.1896,178.792,1.29639,-155.171,240
1567619600,329.171,156.381,-17.1896,178.792,1.29639,-155.171,240
1567619600,329.171,156.381,-17.1896,178.792,1.29639,-155.171,240
1567619600,329.171,156.381,-17.1896,178.792,1.29639,-155.171,240
1567619600,329.171,156.381,-17.1896,178.792,1.29639,-155.171,240
1567619600,329.171,156.381,-17.1896,178.792,1.29639,-155.171,240
1567619600,329.171,156.381,-17.1896,178.792,1.29639,-155.171,240
1567619600,329.171,156.381,-17.1896,178.792,1.29639,-155.171,240
1567619600,329.171,156.381,-17.1896,178.792,1.29639,-155.171,240
1567619600,329.171,156.381,-17.1896,178.792,1.29639,-155.171,240
1567619600,329.171,156.381,-17.1896,178.792,1.29639,-155.171,240
1567619600,329.059,156.381,-17.1896,178.792,1.29639,-155.171,240
1567619600,329.059,156.381,-17.1896,178.792,1.29639,-155.171,240
1567619600,329.059,156.381,-17.1896,178.792,1.29639,-155.171,240
1567619600,329.059,156.381,-17.1896,178.792,1.29639,-155.171,240
1567619606,344.351,139.861,-17.4129,178.901,0.966797,-154.819,260
1567619606,344.351,139.861,-17.4129,178.901,0.966797,-154.819,260
1567619606,344.351,139.861,-17.4129,178.901,0.966797,-154.819,256
1567619606,344.351,139.861,-17.4129,178.901,0.966797,-154.819,256
1567619606,344.351,139.861,-17.4129,178.901,0.966797,-154.819,256
1567619606,344.351,139.861,-17.4129,178.901,0.966797,-154.819,256
1567619606,344.351,139.861,-17.4129,178.901,0.966797,-154.819,256
1567619606,344.351,139.973,-17.4129,178.901,0.966797,-154.819,256
1567619606,344.351,139.973,-17.4129,178.901,0.966797,-154.819,256
1567619606,344.351,139.973,-17.4129,178.901,0.966797,-154.819,252
1567619606,344.351,139.973,-17.4129,178.901,0.966797,-154.819,252
1567619606,344.351,139.973,-17.4129,178.901,0.966797,-154.819,252
1567619606,344.351,139.973,-17.4129,178.901,0.966797,-154.841,252
1567619606,344.351,139.973,-17.4129,178.901,0.966797,-154.841,248
1567619606,344.351,139.973,-17.4129,178.901,0.966797,-154.841,248
1567619606,344.351,139.973,-17.4129,178.901,0.966797,-154.841,248
1567619606,344.351,139.973,-17.4129,178.901,0.966797,-154.841,248
1567619606,344.351,139.973,-17.4129,178.901,0.966797,-154.841,248
1567619606,344.351,139.973,-17.4129,178.901,0.966797,-154.841,248
1567619606,344.351,139.973,-17.4129,178.901,0.966797,-154.841,248
1567619606,344.351,139.973,-17.4129,178.901,0.966797,-154.841,248
1567619606,344.351,139.973,-17.4129,178.901,0.966797,-154.841,248
1567619606,344.351,139.973,-17.4129,178.901,0.966797,-154.841,244
1567619606,344.351,139.973,-17.4129,178.901,0.966797,-154.819,244
1567619606,344.351,139.973,-17.4129,178.901,0.966797,-154.819,244
1567619606,344.351,139.861,-17.4129,178.901,0.966797,-154.819,244
1567619606,344.351,139.861,-17.4129,178.901,0.966797,-154.819,244
1567619606,344.351,139.861,-17.4129,178.879,0.98877,-154.819,244
1567619606,344.351,139.861,-17.4129,178.879,0.98877,-154.819,244
1567619606,344.351,139.861,-17.4129,178.879,0.98877,-154.819,244
1567619606,344.351,139.861,-17.4129,178.879,0.98877,-154.819,244
1567619606,344.351,139.861,-17.3013,178.879,0.98877,-154.819,244
1567619606,344.351,139.861,-17.3013,178.879,0.98877,-154.819,244
1567619606,344.351,139.861,-17.3013,178.879,0.98877,-154.819,244
1567619606,344.351,139.861,-17.4129,178.879,0.98877,-154.819,244
1567619606,344.351,139.861,-17.4129,178.879,0.98877,-154.819,248
1567619606,344.351,139.861,-17.4129,178.879,0.98877,-154.819,248
1567619606,344.351,139.861,-17.4129,178.879,0.98877,-154.819,248
1567619606,344.351,139.861,-17.4129,178.879,0.98877,-154.819,248
1567619606,344.351,139.861,-17.4129,178.879,0.98877,-154.819,248
1567619606,344.351,139.861,-17.4129,178.879,0.98877,-154.819,248
1567619606,344.351,139.861,-17.4129,178.879,0.966797,-154.819,248
1567619606,344.351,139.861,-17.4129,178.879,0.966797,-154.819,248
1567619606,344.351,139.861,-17.4129,178.879,0.966797,-154.819,248
1567619606,344.351,139.861,-17.4129,178.879,0.966797,-154.819,248
1567619606,344.351,139.861,-17.4129,178.879,0.966797,-154.819,248
1567619606,344.351,139.861,-17.4129,178.879,0.966797,-154.819,248
1567619606,344.351,139.861,-17.4129,178.879,0.966797,-154.819,248
1567619606,344.351,139.861,-17.4129,178.879,0.944824,-154.819,248
1567619606,344.351,139.861,-17.4129,178.879,0.944824,-154.819,248
1567619606,344.351,139.861,-17.5245,178.879,0.944824,-154.819,248
1567619606,344.351,139.861,-17.5245,178.879,0.944824,-154.819,248
1567619606,344.351,139.861,-17.5245,178.879,0.944824,-154.819,248
1567619606,344.351,139.861,-17.5245,178.879,0.944824,-154.819,248
1567619606,344.351,139.861,-17.5245,178.879,0.944824,-154.819,248
1567619606,344.351,139.861,-17.5245,178.879,0.944824,-154.819,248
1567619606,344.351,139.861,-17.4129,178.879,0.944824,-154.819,248
1567619606,344.351,139.861,-17.4129,178.879,0.944824,-154.819,248
1567619606,344.351,139.861,-17.4129,178.879,0.966797,-154.819,248
1567619606,344.351,139.861,-17.4129,178.879,0.966797,-154.819,248
1567619606,344.351,139.861,-17.4129,178.879,0.966797,-154.819,248
1567619606,344.351,139.861,-17.4129,178.879,0.966797,-154.819,248
1567619606,344.351,139.861,-17.4129,178.879,0.966797,-154.841,248
1567619606,344.351,139.861,-17.4129,178.879,0.966797,-154.841,248
1567619606,344.351,139.861,-17.4129,178.879,0.966797,-154.841,252
1567619606,344.351,139.861,-17.4129,178.879,0.966797,-154.841,252
1567619606,344.351,139.861,-17.4129,178.879,0.966797,-154.841,252
1567619606,344.351,139.861,-17.4129,178.879,0.966797,-154.841,252
1567619606,344.351,139.861,-17.4129,178.879,0.966797,-154.819,252
1567619606,344.351,139.861,-17.4129,178.879,0.966797,-154.819,252
1567619606,344.351,139.861,-17.4129,178.879,0.966797,-154.819,252
1567619606,344.351,139.861,-17.4129,178.879,0.966797,-154.819,252
1567619606,344.351,139.861,-17.4129,178.879,0.966797,-154.819,252
1567619606,344.351,139.861,-17.4129,178.879,0.966797,-154.819,252
1567619606,344.351,139.861,-17.4129,178.879,0.966797,-154.819,252
1567619606,344.351,139.861,-17.4129,178.879,0.966797,-154.819,252
1567619606,344.351,139.861,-17.4129,178.879,0.966797,-154.819,252
1567619606,344.351,139.973,-17.4129,178.901,0.966797,-154.819,252
1567619606,344.351,139.973,-17.4129,178.901,0.966797,-154.819,252
1567619606,344.351,139.973,-17.4129,178.901,0.966797,-154.819,252
1567619606,344.351,139.973,-17.4129,178.901,0.944824,-154.819,252
1567619606,344.351,139.973,-17.4129,178.901,0.944824,-154.819,248
1567619606,344.351,139.973,-17.4129,178.901,0.944824,-154.819,248
1567619606,344.351,139.973,-17.4129,178.901,0.944824,-154.819,248
1567619606,344.351,139.973,-17.5245,178.901,0.944824,-154.819,248
1567619607,344.351,139.973,-17.5245,178.901,0.944824,-154.819,248
1567619607,344.351,139.973,-17.5245,178.901,0.944824,-154.819,248
1567619607,344.351,139.973,-17.4129,178.901,0.944824,-154.819,248
1567619607,344.351,139.861,-17.5245,178.901,0.944824,-154.819,248
1567619607,344.351,139.861,-17.4129,178.901,0.944824,-154.819,252
1567619607,344.239,139.861,-17.4129,178.901,0.944824,-154.819,252
1567619607,344.239,139.861,-17.4129,178.901,0.944824,-154.819,252
1567619607,344.239,139.861,-17.4129,178.901,0.944824,-154.819,252
1567619607,344.239,139.861,-17.5245,178.901,0.944824,-154.819,252
1567619607,344.239,139.861,-17.5245,178.901,0.944824,-154.819,252
1567619607,344.239,139.861,-17.5245,178.901,0.944824,-154.819,252
1567619607,344.239,139.861,-17.5245,178.901,0.944824,-154.819,252
1567619607,344.239,139.973,-17.5245,178.901,0.944824,-154.819,252
1567619607,344.239,139.973,-17.5245,178.901,0.944824,-154.819,252
1567619607,344.239,139.973,-17.5245,178.901,0.944824,-154.819,252
1567619607,344.239,139.973,-17.5245,178.901,0.922852,-154.819,252
1567619607,344.239,139.973,-17.5245,178.901,0.922852,-154.819,252
1567619607,344.351,139.861,-17.5245,178.901,0.922852,-154.819,252
1567619607,344.351,139.861,-17.5245,178.901,0.922852,-154.819,252
1567619607,344.351,139.861,-17.5245,178.901,0.922852,-154.819,252
1567619607,344.351,139.861,-17.5245,178.901,0.922852,-154.819,252
1567619607,344.351,139.861,-17.5245,178.901,0.922852,-154.819,252
1567619607,344.351,139.861,-17.5245,178.879,0.922852,-154.819,252
1567619607,344.351,139.861,-17.5245,178.879,0.922852,-154.819,252
1567619607,344.351,139.861,-17.5245,178.879,0.922852,-154.819,252
1567619607,344.351,139.861,-17.5245,178.879,0.922852,-154.819,252
1567619607,344.351,139.861,-17.5245,178.879,0.922852,-154.819,252
1567619607,344.351,139.861,-17.5245,178.879,0.944824,-154.819,252
1567619607,344.351,139.861,-17.5245,178.879,0.944824,-154.819,252
1567619607,344.351,139.861,-17.5245,178.879,0.944824,-154.841,256
1567619607,344.351,139.861,-17.5245,178.901,0.944824,-154.841,256
1567619607,344.351,139.861,-17.5245,178.901,0.944824,-154.841,256
1567619607,344.351,139.861,-17.5245,178.901,0.944824,-154.841,256
1567619607,344.351,139.861,-17.5245,178.901,0.944824,-154.841,256
1567619607,344.351,139.861,-17.5245,178.901,0.944824,-154.841,256
1567619607,344.351,139.861,-17.4129,178.901,0.944824,-154.841,260
1567619607,344.351,139.973,-17.4129,178.901,0.944824,-154.841,260
1567619607,344.351,139.973,-17.4129,178.901,0.944824,-154.841,260
1567619607,344.351,139.973,-17.4129,178.901,0.944824,-154.841,260
1567619607,344.351,139.973,-17.4129,178.901,0.944824,-154.841,260
1567619607,344.351,139.973,-17.4129,178.901,0.966797,-154.841,260
1567619607,344.351,139.973,-17.4129,178.901,0.966797,-154.841,260
1567619607,344.351,139.973,-17.4129,178.901,0.966797,-154.841,260
1567619607,344.351,139.973,-17.4129,178.901,0.966797,-154.841,256
1567619607,344.351,139.973,-17.4129,178.901,0.966797,-154.841,256
1567619607,344.351,139.973,-17.3013,178.901,0.98877,-154.841,256
1567619607,344.351,139.973,-17.3013,178.901,0.98877,-154.841,256
1567619607,344.351,139.973,-17.3013,178.901,0.98877,-154.841,256
1567619607,344.351,139.973,-17.3013,178.901,0.98877,-154.841,256
1567619607,344.351,139.973,-17.3013,178.901,1.01074,-154.841,256
1567619607,344.351,139.973,-17.3013,178.923,1.01074,-154.841,256
1567619607,344.351,139.973,-17.3013,178.923,1.01074,-154.863,256
1567619607,344.351,139.973,-17.3013,178.923,1.01074,-154.841,256
1567619607,344.351,139.973,-17.3013,178.923,1.01074,-154.841,252
1567619607,344.351,140.084,-17.3013,178.923,1.01074,-154.863,252
1567619607,344.351,140.084,-17.3013,178.923,1.01074,-154.863,252
1567619607,344.351,140.084,-17.3013,178.923,1.01074,-154.863,252
1567619607,344.351,140.084,-17.3013,178.923,1.01074,-154.841,252
1567619607,344.351,139.973,-17.3013,178.923,0.98877,-154.841,252
1567619607,344.351,139.973,-17.3013,178.923,0.98877,-154.841,252
1567619607,344.351,139.973,-17.3013,178.923,0.98877,-154.841,252
1567619607,344.351,139.973,-17.3013,178.923,0.98877,-154.841,252
1567619607,344.351,139.973,-17.3013,178.923,0.98877,-154.841,252
1567619607,344.351,139.973,-17.3013,178.923,0.98877,-154.841,252
1567619607,344.351,139.973,-17.3013,178.901,0.98877,-154.841,252
1567619607,344.351,139.973,-17.3013,178.901,0.98877,-154.841,252
1567619607,344.351,139.973,-17.3013,178.901,0.98877,-154.841,252
1567619607,344.351,139.973,-17.4129,178.901,0.98877,-154.841,252
1567619607,344.351,139.861,-17.4129,178.901,0.98877,-154.841,252
1567619607,344.351,139.861,-17.4129,178.901,0.98877,-154.841,252
1567619607,344.351,139.861,-17.4129,178.901,0.98877,-154.841,252
1567619607,344.351,139.861,-17.4129,178.901,0.98877,-154.841,252
1567619607,344.351,139.861,-17.4129,178.901,0.98877,-154.841,252
1567619607,344.351,139.861,-17.4129,178.901,0.98877,-154.841,252
1567619607,344.351,139.861,-17.4129,178.879,0.98877,-154.841,252
1567619607,344.351,139.861,-17.4129,178.879,0.98877,-154.819,252
1567619607,344.351,139.861,-17.4129,178.879,0.98877,-154.819,252
1567619607,344.351,139.861,-17.4129,178.879,0.98877,-154.841,252
1567619607,344.351,139.861,-17.4129,178.879,0.966797,-154.841,252
1567619607,344.351,139.861,-17.4129,178.879,0.966797,-154.819,252
1567619607,344.351,139.861,-17.4129,178.879,0.966797,-154.841,252
1567619607,344.351,139.861,-17.4129,178.879,0.966797,-154.841,252
1567619607,344.351,139.861,-17.4129,178.879,0.966797,-154.841,248
1567619607,344.351,139.861,-17.4129,178.879,0.966797,-154.841,248
1567619607,344.351,139.861,-17.4129,178.879,0.966797,-154.841,248
1567619607,344.351,139.861,-17.4129,178.879,0.966797,-154.841,248
1567619607,344.351,139.861,-17.4129,178.879,0.966797,-154.841,248
1567619607,344.351,139.861,-17.4129,178.879,0.966797,-154.841,252
1567619607,344.351,139.861,-17.4129,178.879,0.966797,-154.841,252
1567619607,344.351,139.861,-17.4129,178.879,0.966797,-154.841,252
1567619607,344.351,139.861,-17.4129,178.879,0.966797,-154.841,252
1567619607,344.351,139.861,-17.4129,178.879,0.966797,-154.841,252
1567619607,344.351,139.861,-17.4129,178.879,0.966797,-154.841,252
1567619607,344.351,139.861,-17.4129,178.879,0.966797,-154.841,252
1567619607,344.351,139.861,-17.4129,178.879,0.966797,-154.841,256
1567619607,344.351,139.861,-17.4129,178.879,0.966797,-154.841,256
1567619607,344.351,139.861,-17.4129,178.879,0.966797,-154.841,256
1567619607,344.351,139.861,-17.4129,178.879,0.966797,-154.841,256
1567619607,344.351,139.861,-17.4129,178.879,0.966797,-154.841,256
1567619607,344.351,139.861,-17.4129,178.879,0.966797,-154.841,256
1567619608,344.351,139.861,-17.4129,178.879,0.966797,-154.841,256
1567619608,344.351,139.861,-17.4129,178.879,0.966797,-154.841,256
1567619608,344.351,139.861,-17.4129,178.879,0.966797,-154.841,256
1567619608,344.351,139.861,-17.4129,178.879,0.966797,-154.841,256
1567619608,344.351,139.861,-17.4129,178.879,0.966797,-154.841,260
1567619608,344.351,139.861,-17.4129,178.879,0.966797,-154.841,260
1567619608,344.351,139.861,-17.4129,178.857,0.966797,-154.841,260
1567619608,344.351,139.861,-17.4129,178.857,0.966797,-154.841,260
1567619608,344.351,139.861,-17.4129,178.857,0.98877,-154.841,260
1567619608,344.351,139.861,-17.4129,178.857,0.98877,-154.841,260
1567619608,344.351,139.861,-17.4129,178.857,0.98877,-154.841,260
1567619608,344.351,139.861,-17.4129,178.857,0.98877,-154.841,260
1567619608,344.351,139.861,-17.4129,178.857,0.966797,-154.841,260
1567619608,344.351,139.861,-17.4129,178.857,0.966797,-154.863,260
1567619608,344.351,139.861,-17.4129,178.879,0.966797,-154.863,260
1567619608,344.351,139.861,-17.4129,178.879,0.966797,-154.863,260
1567619608,344.351,139.861,-17.4129,178.879,0.966797,-154.863,264
1567619608,344.351,139.861,-17.4129,178.879,0.966797,-154.863,264
1567619608,344.351,139.861,-17.4129,178.879,0.966797,-154.863,264
1567619608,344.351,139.861,-17.4129,178.879,0.966797,-154.863,260
1567619608,344.351,139.861,-17.4129,178.879,0.966797,-154.863,260
1567619608,344.351,139.861,-17.4129,178.879,0.966797,-154.863,260
1567619608,344.351,139.861,-17.4129,178.879,0.98877,-154.863,260
1567619608,344.351,139.861,-17.4129,178.879,0.98877,-154.863,260
1567619608,344.351,139.861,-17.4129,178.879,0.98877,-154.841,260
1567619608,344.351,139.861,-17.4129,178.857,0.98877,-154.841,260
1567619608,344.351,139.861,-17.4129,178.857,0.98877,-154.841,260
1567619608,344.351,139.861,-17.4129,178.857,0.98877,-154.841,260
1567619608,344.351,139.861,-17.4129,178.857,0.98877,-154.841,260
1567619608,344.351,139.861,-17.4129,178.857,0.98877,-154.841,260
1567619608,344.351,139.861,-17.4129,178.857,0.98877,-154.841,256
1567619608,344.351,139.861,-17.4129,178.857,0.98877,-154.841,256
1567619608,344.351,139.861,-17.4129,178.857,0.98877,-154.841,256
1567619608,344.351,139.861,-17.4129,178.857,0.98877,-154.841,256
1567619608,344.351,139.861,-17.4129,178.857,0.98877,-154.841,256
1567619608,344.351,139.861,-17.4129,178.857,0.98877,-154.841,256
1567619608,344.351,139.861,-17.4129,178.857,0.98877,-154.841,256
1567619608,344.351,139.861,-17.4129,178.879,0.98877,-154.841,256
1567619608,344.351,139.861,-17.4129,178.879,0.98877,-154.841,252
1567619608,344.351,139.861,-17.4129,178.879,0.98877,-154.841,252
1567619608,344.351,139.861,-17.4129,178.879,0.98877,-154.841,252
1567619608,344.351,139.861,-17.4129,178.879,0.98877,-154.841,252
1567619608,344.351,139.861,-17.4129,178.879,0.98877,-154.841,252
1567619608,344.351,139.861,-17.4129,178.879,0.98877,-154.841,252
1567619608,344.351,139.861,-17.4129,178.879,0.966797,-154.841,252
1567619608,344.351,139.861,-17.4129,178.879,0.966797,-154.819,252
1567619608,344.351,139.861,-17.4129,178.879,0.966797,-154.819,252
1567619608,344.351,139.861,-17.4129,178.879,0.966797,-154.819,252
1567619608,344.351,139.861,-17.4129,178.879,0.966797,-154.819,252
1567619608,344.351,139.861,-17.4129,178.879,0.966797,-154.819,252
1567619608,344.351,139.861,-17.4129,178.879,0.966797,-154.819,256
1567619608,344.351,139.861,-17.4129,178.879,0.966797,-154.841,256
1567619608,344.351,139.861,-17.4129,178.879,0.966797,-154.841,256
1567619608,344.351,139.861,-17.4129,178.879,0.966797,-154.841,256
1567619608,344.351,139.861,-17.4129,178.879,0.966797,-154.841,256
1567619608,344.351,139.861,-17.4129,178.879,0.966797,-154.841,260
1567619608,344.351,139.861,-17.4129,178.879,0.966797,-154.841,260
1567619608,344.351,139.861,-17.4129,178.879,0.966797,-154.841,260
1567619608,344.351,139.861,-17.4129,178.879,0.966797,-154.841,260
1567619608,344.351,139.861,-17.4129,178.879,0.966797,-154.841,260
1567619608,344.351,139.861,-17.4129,178.901,0.966797,-154.841,260
1567619608,344.351,139.861,-17.4129,178.901,0.966797,-154.841,260
1567619608,344.351,139.973,-17.4129,178.901,0.966797,-154.841,264
1567619608,344.351,139.973,-17.4129,178.901,0.966797,-154.841,264
1567619608,344.351,139.973,-17.4129,178.901,0.966797,-154.841,264
1567619608,344.351,139.973,-17.4129,178.901,0.98877,-154.841,264
1567619608,344.351,139.973,-17.4129,178.901,0.98877,-154.841,264
1567619608,344.351,139.973,-17.4129,178.901,0.98877,-154.841,264
1567619608,344.351,139.973,-17.4129,178.901,0.98877,-154.841,264
1567619608,344.351,139.973,-17.4129,178.901,0.98877,-154.841,264
1567619608,344.351,139.973,-17.4129,178.901,0.98877,-154.841,260
1567619608,344.351,139.973,-17.4129,178.901,0.98877,-154.841,260
1567619608,344.351,139.973,-17.4129,178.901,0.98877,-154.841,260
1567619608,344.351,139.973,-17.4129,178.901,0.966797,-154.841,260
1567619608,344.351,139.973,-17.4129,178.901,0.966797,-154.841,260
1567619608,344.351,139.973,-17.4129,178.901,0.966797,-154.841,256
1567619608,344.351,139.973,-17.4129,178.901,0.966797,-154.841,256
1567619608,344.351,139.973,-17.4129,178.901,0.966797,-154.841,256
1567619608,344.351,139.973,-17.4129,178.901,0.966797,-154.841,252
1567619608,344.351,139.973,-17.4129,178.901,0.966797,-154.841,252
1567619608,344.351,139.973,-17.4129,178.901,0.966797,-154.841,252
1567619608,344.351,139.973,-17.4129,178.901,0.966797,-154.841,252
1567619608,344.351,139.973,-17.4129,178.901,0.966797,-154.841,252
1567619608,344.351,139.973,-17.4129,178.923,0.966797,-154.841,252
1567619608,344.351,139.973,-17.4129,178.923,0.966797,-154.841,248
1567619608,344.351,139.973,-17.4129,178.923,0.966797,-154.841,248
1567619608,344.351,139.973,-17.4129,178.923,0.966797,-154.841,248
1567619608,344.239,139.973,-17.4129,178.923,0.966797,-154.841,248
1567619608,344.239,139.973,-17.4129,178.923,0.966797,-154.841,248
1567619608,344.239,139.973,-17.4129,178.923,0.966797,-154.841,248
1567619608,344.239,139.973,-17.4129,178.923,0.944824,-154.841,252
1567619608,344.239,139.973,-17.4129,178.923,0.944824,-154.841,252
1567619608,344.239,139.973,-17.4129,178.923,0.944824,-154.841,252
1567619608,344.239,139.973,-17.4129,178.923,0.944824,-154.841,252
1567619608,344.239,139.973,-17.4129,178.923,0.966797,-154.841,256
1567619608,344.239,139.973,-17.4129,178.923,0.966797,-154.841,256
1567619608,344.239,139.973,-17.4129,178.923,0.966797,-154.841,256
1567619608,344.239,139.973,-17.4129,178.923,0.966797,-154.841,256
1567619608,344.239,139.973,-17.4129,178.923,0.966797,-154.841,260
1567619608,344.239,139.973,-17.4129,178.923,0.966797,-154.841,260
1567619609,344.239,139.973,-17.4129,178.901,0.966797,-154.841,260
1567619609,344.239,139.973,-17.4129,178.901,0.966797,-154.841,260
1567619609,344.239,139.973,-17.4129,178.901,0.966797,-154.841,260
1567619609,344.239,139.973,-17.4129,178.901,0.966797,-154.819,256
1567619609,344.351,139.973,-17.4129,178.901,0.966797,-154.819,256
1567619609,344.351,139.973,-17.4129,178.901,0.966797,-154.819,256
1567619609,344.351,139.973,-17.4129,178.901,0.966797,-154.819,256
1567619609,344.351,139.973,-17.4129,178.901,0.966797,-154.819,256
1567619609,344.351,139.973,-17.4129,178.901,0.966797,-154.841,252
1567619609,344.351,139.973,-17.4129,178.901,0.966797,-154.841,252
1567619609,344.351,139.973,-17.4129,178.901,0.98877,-154.841,252
1567619609,344.351,139.973,-17.3013,178.901,0.98877,-154.841,252
1567619609,344.351,139.973,-17.3013,178.901,0.98877,-154.841,252
1567619609,344.351,139.973,-17.3013,178.901,0.98877,-154.841,252
1567619609,344.351,139.973,-17.3013,178.901,0.98877,-154.841,252
1567619609,344.351,139.973,-17.3013,178.901,0.98877,-154.841,248
1567619609,344.351,139.973,-17.3013,178.901,0.98877,-154.841,248
1567619609,344.351,139.973,-17.3013,178.901,0.98877,-154.841,248
1567619609,344.351,139.973,-17.3013,178.901,0.98877,-154.841,248
1567619609,344.351,139.973,-17.3013,178.901,0.98877,-154.819,248
1567619609,344.351,139.973,-17.3013,178.901,0.98877,-154.819,248
1567619609,344.351,139.973,-17.3013,178.901,0.98877,-154.819,248
1567619609,344.351,139.973,-17.4129,178.901,0.98877,-154.819,244
1567619609,344.351,139.973,-17.4129,178.901,0.98877,-154.819,244
1567619609,344.351,139.973,-17.4129,178.901,0.98877,-154.819,244
1567619609,344.351,139.973,-17.4129,178.901,0.98877,-154.819,244
1567619609,344.351,139.973,-17.4129,178.901,0.98877,-154.819,244
1567619609,344.351,139.973,-17.4129,178.901,0.966797,-154.797,244
1567619609,344.351,139.973,-17.4129,178.901,0.966797,-154.797,244
1567619609,344.351,139.973,-17.4129,178.901,0.966797,-154.797,244
1567619609,344.351,139.973,-17.4129,178.901,0.966797,-154.797,244
1567619609,344.351,139.973,-17.4129,178.901,0.966797,-154.797,244
1567619609,344.351,139.973,-17.4129,178.901,0.966797,-154.797,244
1567619609,344.351,139.973,-17.4129,178.901,0.966797,-154.797,244
1567619609,344.351,139.973,-17.4129,178.901,0.966797,-154.797,244
1567619609,344.351,139.973,-17.4129,178.901,0.966797,-154.797,244
1567619609,344.351,139.973,-17.4129,178.901,0.966797,-154.797,244
1567619609,344.351,139.973,-17.4129,178.901,0.966797,-154.797,244
1567619609,344.351,139.973,-17.4129,178.901,0.966797,-154.797,244
1567619609,344.351,139.973,-17.4129,178.901,0.966797,-154.797,244
1567619609,344.351,139.973,-17.4129,178.901,0.966797,-154.819,244
1567619609,344.351,139.973,-17.4129,178.901,0.966797,-154.819,244
1567619609,344.351,139.973,-17.4129,178.901,0.966797,-154.819,244
1567619609,344.351,139.973,-17.4129,178.901,0.966797,-154.819,244
1567619609,344.351,139.973,-17.4129,178.901,0.944824,-154.819,244
1567619609,344.351,139.973,-17.4129,178.901,0.944824,-154.819,244
1567619609,344.351,139.973,-17.4129,178.901,0.944824,-154.819,244
1567619609,344.351,139.973,-17.5245,178.901,0.944824,-154.819,244
1567619609,344.351,139.973,-17.5245,178.901,0.944824,-154.819,244
1567619609,344.351,139.973,-17.4129,178.901,0.944824,-154.819,244
1567619609,344.351,139.973,-17.4129,178.901,0.944824,-154.819,244
1567619609,344.351,139.973,-17.4129,178.901,0.944824,-154.819,244
1567619609,344.351,139.973,-17.4129,178.901,0.966797,-154.819,244
1567619609,344.351,139.973,-17.4129,178.901,0.966797,-154.819,244
1567619609,344.351,139.973,-17.4129,178.901,0.966797,-154.819,244
1567619609,344.351,139.973,-17.4129,178.901,0.966797,-154.819,244
1567619609,344.351,139.973,-17.4129,178.901,0.966797,-154.819,244
1567619609,344.351,139.973,-17.4129,178.901,0.966797,-154.819,244
1567619609,344.351,139.973,-17.4129,178.901,0.966797,-154.819,244
1567619609,344.351,139.973,-17.4129,178.901,0.966797,-154.819,244
1567619609,344.351,139.973,-17.4129,178.901,0.944824,-154.819,244
1567619609,344.351,139.973,-17.5245,178.901,0.944824,-154.819,244
1567619609,344.351,139.973,-17.5245,178.901,0.944824,-154.819,240
1567619609,344.351,139.973,-17.5245,178.901,0.944824,-154.819,240
1567619609,344.351,139.973,-17.5245,178.901,0.944824,-154.819,240
1567619609,344.351,139.973,-17.5245,178.901,0.944824,-154.819,240
1567619609,344.351,139.973,-17.5245,178.901,0.944824,-154.819,240
1567619609,344.351,139.973,-17.5245,178.901,0.944824,-154.819,240
1567619609,344.351,139.973,-17.5245,178.901,0.944824,-154.819,240
1567619609,344.351,139.973,-17.5245,178.901,0.944824,-154.819,244
1567619609,344.351,139.973,-17.5245,178.901,0.944824,-154.819,244
1567619609,344.351,139.973,-17.5245,178.901,0.944824,-154.819,244
1567619609,344.351,139.973,-17.5245,178.901,0.944824,-154.819,244
1567619609,344.351,139.973,-17.5245,178.901,0.944824,-154.819,244
1567619609,344.351,139.973,-17.5245,178.901,0.944824,-154.819,244
1567619609,344.351,139.973,-17.5245,178.901,0.944824,-154.819,244
1567619609,344.351,139.973,-17.4129,178.923,0.944824,-154.819,248
1567619609,344.351,139.973,-17.4129,178.923,0.966797,-154.819,248
1567619609,344.351,139.973,-17.4129,178.923,0.966797,-154.819,248
1567619609,344.351,139.973,-17.4129,178.923,0.966797,-154.819,248
1567619609,344.351,139.973,-17.4129,178.923,0.966797,-154.819,252
1567619609,344.351,139.973,-17.4129,178.923,0.966797,-154.819,252
1567619609,344.351,139.973,-17.4129,178.923,0.966797,-154.819,252
1567619609,344.351,139.973,-17.4129,178.923,0.966797,-154.819,252
1567619609,344.351,139.973,-17.4129,178.923,0.966797,-154.819,256
1567619609,344.239,139.973,-17.4129,178.923,0.966797,-154.819,256
1567619609,344.239,139.973,-17.4129,178.923,0.944824,-154.819,256
1567619609,344.239,139.861,-17.4129,178.923,0.944824,-154.819,260
1567619609,344.239,139.861,-17.4129,178.901,0.944824,-154.819,260
1567619609,344.239,139.861,-17.5245,178.901,0.944824,-154.819,264
1567619609,344.239,139.861,-17.5245,178.901,0.944824,-154.819,264
1567619609,344.239,139.861,-17.5245,178.901,0.944824,-154.819,268
1567619609,344.239,139.861,-17.4129,178.901,0.944824,-154.819,268
1567619609,344.351,139.861,-17.4129,178.901,0.944824,-154.819,268
1567619609,344.351,139.861,-17.4129,178.901,0.966797,-154.819,272
1567619609,344.351,139.861,-17.4129,178.901,0.966797,-154.819,272
1567619609,344.351,139.861,-17.4129,178.901,0.966797,-154.819,272
1567619609,344.351,139.861,-17.4129,178.901,0.966797,-154.819,272
1567619609,344.351,139.861,-17.4129,178.901,0.944824,-154.819,272
1567619609,344.351,139.973,-17.5245,178.901,0.944824,-154.819,272
1567619610,344.351,139.973,-17.5245,178.901,0.944824,-154.819,272
1567619610,344.351,139.973,-17.5245,178.901,0.944824,-154.819,268
1567619610,344.351,139.973,-17.5245,178.923,0.944824,-154.819,268
1567619610,344.351,139.973,-17.5245,178.923,0.944824,-154.819,268
1567619610,344.351,139.973,-17.5245,178.923,0.944824,-154.819,268
1567619610,344.351,139.973,-17.5245,178.923,0.944824,-154.819,264
1567619610,344.351,139.973,-17.5245,178.923,0.944824,-154.819,264
1567619610,344.351,139.973,-17.5245,178.923,0.944824,-154.819,264
1567619610,344.351,139.973,-17.5245,178.923,0.944824,-154.819,260
1567619610,344.351,139.973,-17.5245,178.923,0.944824,-154.819,260
1567619610,344.351,139.973,-17.4129,178.923,0.944824,-154.819,260
1567619610,344.351,139.973,-17.4129,178.923,0.944824,-154.819,260
1567619610,344.351,139.973,-17.4129,178.901,0.966797,-154.819,260
1567619610,344.351,139.973,-17.4129,178.901,0.966797,-154.819,256
1567619610,344.351,139.973,-17.4129,178.901,0.966797,-154.819,256
1567619610,344.351,139.973,-17.4129,178.901,0.966797,-154.819,256
1567619610,344.351,139.973,-17.4129,178.901,0.966797,-154.819,256
1567619610,344.351,139.973,-17.4129,178.901,0.966797,-154.819,256
1567619610,344.351,139.973,-17.4129,178.901,0.966797,-154.819,256
1567619610,344.351,139.973,-17.4129,178.901,0.966797,-154.819,256
1567619610,344.351,139.973,-17.4129,178.901,0.966797,-154.819,252
1567619610,344.351,139.973,-17.4129,178.901,0.966797,-154.819,252
1567619610,344.351,139.973,-17.4129,178.923,0.966797,-154.819,252
1567619610,344.351,139.973,-17.4129,178.923,0.966797,-154.819,252
1567619610,344.351,139.973,-17.4129,178.923,0.966797,-154.819,252
1567619610,344.351,139.973,-17.4129,178.923,0.966797,-154.819,252
1567619610,344.351,139.973,-17.4129,178.923,0.966797,-154.819,252
1567619610,344.351,139.973,-17.4129,178.923,0.966797,-154.819,252
1567619610,344.351,139.973,-17.4129,178.923,0.966797,-154.819,252
1567619610,344.351,139.973,-17.4129,178.923,0.966797,-154.819,256
1567619610,344.351,139.973,-17.4129,178.923,0.966797,-154.819,256
1567619610,344.351,139.973,-17.4129,178.923,0.966797,-154.819,256
1567619610,344.351,139.973,-17.4129,178.923,0.966797,-154.819,256
1567619610,344.351,139.973,-17.4129,178.923,0.966797,-154.819,256
1567619610,344.351,139.973,-17.4129,178.923,0.966797,-154.819,260
1567619610,344.351,139.973,-17.4129,178.923,0.966797,-154.819,260
1567619610,344.351,139.973,-17.4129,178.923,0.966797,-154.819,260
1567619610,344.351,139.973,-17.4129,178.923,0.966797,-154.819,260
1567619610,344.351,139.973,-17.4129,178.923,0.966797,-154.819,260
1567619610,344.351,139.973,-17.4129,178.901,0.966797,-154.819,264
1567619610,344.351,139.973,-17.4129,178.901,0.966797,-154.819,264
1567619610,344.351,139.973,-17.4129,178.901,0.966797,-154.819,264
1567619610,344.351,139.973,-17.4129,178.901,0.966797,-154.819,264
1567619610,344.351,139.973,-17.4129,178.901,0.944824,-154.819,264
1567619610,344.351,139.973,-17.4129,178.901,0.944824,-154.819,264
1567619610,344.351,139.973,-17.4129,178.901,0.944824,-154.819,260
1567619610,344.351,139.973,-17.4129,178.901,0.944824,-154.819,260
1567619610,344.351,139.973,-17.5245,178.901,0.944824,-154.819,260
1567619610,344.351,139.973,-17.5245,178.901,0.944824,-154.819,260
1567619610,344.351,139.861,-17.4129,178.901,0.944824,-154.819,256
1567619610,344.351,139.861,-17.4129,178.901,0.944824,-154.819,256
1567619610,344.351,139.861,-17.4129,178.901,0.944824,-154.819,256
1567619610,344.351,139.861,-17.4129,178.901,0.944824,-154.819,256
1567619610,344.351,139.861,-17.4129,178.901,0.966797,-154.819,256
1567619610,344.351,139.861,-17.4129,178.901,0.966797,-154.819,256
1567619610,344.351,139.861,-17.4129,178.901,0.966797,-154.819,256
1567619610,344.351,139.861,-17.4129,178.901,0.966797,-154.819,252
1567619610,344.351,139.861,-17.4129,178.901,0.966797,-154.819,252
1567619610,344.351,139.861,-17.4129,178.901,0.966797,-154.819,252
1567619610,344.351,139.861,-17.4129,178.901,0.966797,-154.819,252
1567619610,344.351,139.973,-17.4129,178.901,0.966797,-154.819,252
1567619610,344.351,139.973,-17.4129,178.901,0.966797,-154.819,252
1567619610,344.351,139.973,-17.4129,178.901,0.98877,-154.819,248
1567619610,344.463,139.973,-17.4129,178.901,0.98877,-154.819,248
1567619610,344.463,139.973,-17.4129,178.901,0.98877,-154.819,248
1567619610,344.463,139.973,-17.4129,178.901,0.98877,-154.819,244
1567619610,344.463,139.973,-17.4129,178.901,0.98877,-154.819,244
1567619610,344.463,139.973,-17.4129,178.901,0.98877,-154.819,244
1567619610,344.463,139.973,-17.4129,178.901,0.98877,-154.819,244
1567619610,344.463,139.973,-17.4129,178.901,0.98877,-154.819,244
1567619610,344.463,139.973,-17.4129,178.901,0.98877,-154.819,240
1567619610,344.351,139.973,-17.4129,178.901,0.98877,-154.819,240
1567619610,344.351,139.973,-17.4129,178.901,0.966797,-154.819,240
1567619610,344.351,139.973,-17.4129,178.923,0.966797,-154.819,240
1567619610,344.351,139.973,-17.4129,178.923,0.966797,-154.819,240
1567619610,344.351,139.973,-17.4129,178.923,0.966797,-154.819,240
1567619610,344.351,139.973,-17.4129,178.923,0.966797,-154.819,240
1567619610,344.351,139.973,-17.4129,178.923,0.966797,-154.819,240
1567619610,344.351,139.973,-17.4129,178.923,0.966797,-154.819,240
1567619610,344.351,139.973,-17.4129,178.923,0.966797,-154.819,244
1567619610,344.351,140.084,-17.4129,178.923,0.966797,-154.819,244
1567619610,344.351,140.084,-17.4129,178.923,0.966797,-154.819,244
1567619610,344.351,139.973,-17.4129,178.923,0.966797,-154.819,244
1567619610,344.351,139.973,-17.4129,178.923,0.966797,-154.819,244
1567619610,344.351,139.973,-17.4129,178.923,0.966797,-154.819,244
1567619610,344.351,139.973,-17.4129,178.923,0.966797,-154.819,244
1567619610,344.351,139.973,-17.4129,178.923,0.966797,-154.819,244
1567619610,344.351,139.973,-17.4129,178.923,0.966797,-154.819,244
1567619610,344.351,139.973,-17.4129,178.923,0.966797,-154.841,244
1567619610,344.351,139.973,-17.4129,178.923,0.966797,-154.841,244
1567619610,344.351,139.973,-17.4129,178.923,0.966797,-154.841,244
1567619610,344.351,139.973,-17.4129,178.923,0.966797,-154.841,244
1567619610,344.351,139.973,-17.4129,178.901,0.966797,-154.841,244
1567619610,344.351,139.973,-17.4129,178.901,0.966797,-154.841,244
1567619610,344.351,139.973,-17.4129,178.901,0.966797,-154.841,248
1567619610,344.351,139.973,-17.4129,178.901,0.966797,-154.841,248
1567619610,344.351,139.973,-17.4129,178.901,0.966797,-154.841,248
1567619610,344.351,139.973,-17.4129,178.901,0.966797,-154.819,248
1567619610,344.351,139.973,-17.4129,178.901,0.966797,-154.819,248
1567619610,344.351,139.973,-17.3013,178.901,0.966797,-154.819,248
1567619611,344.351,139.973,-17.3013,178.901,0.966797,-154.819,248
1567619611,344.351,139.973,-17.3013,178.901,0.966797,-154.819,248
1567619611,344.351,139.973,-17.4129,178.901,0.966797,-154.819,248
1567619611,344.351,139.973,-17.4129,178.901,0.966797,-154.819,248
1567619611,344.351,139.973,-17.4129,178.901,0.966797,-154.819,248
1567619611,344.351,139.973,-17.4129,178.923,0.966797,-154.819,248
1567619611,344.351,139.973,-17.4129,178.923,0.966797,-154.819,248
1567619611,344.351,139.973,-17.4129,178.923,0.966797,-154.819,248
1567619611,344.351,139.973,-17.4129,178.923,0.966797,-154.819,248
1567619611,344.351,139.973,-17.4129,178.923,0.966797,-154.819,248
1567619611,344.351,139.973,-17.4129,178.923,0.966797,-154.819,248
1567619611,344.351,139.973,-17.4129,178.923,0.966797,-154.819,248
1567619611,344.351,139.973,-17.4129,178.923,0.966797,-154.819,244
1567619611,344.351,139.973,-17.4129,178.923,0.966797,-154.819,244
1567619611,344.351,139.973,-17.4129,178.923,0.966797,-154.841,244
1567619618,367.345,115.639,-17.4129,179.055,1.07666,-155.061,300
1567619618,367.345,115.639,-17.4129,179.055,1.07666,-155.061,300
1567619618,367.345,115.639,-17.4129,179.055,1.07666,-155.061,300
1567619618,367.345,115.639,-17.4129,179.055,1.07666,-155.061,300
1567619618,367.345,115.639,-17.4129,179.055,1.09863,-155.061,300
1567619618,367.345,115.639,-17.3013,179.055,1.09863,-155.061,300
1567619618,367.345,115.639,-17.3013,179.055,1.09863,-155.061,300
1567619618,367.345,115.639,-17.3013,179.055,1.09863,-155.061,300
1567619618,367.345,115.639,-17.4129,179.055,1.09863,-155.061,304
1567619619,367.345,115.639,-17.4129,179.055,1.09863,-155.061,304
1567619619,367.345,115.639,-17.4129,179.055,1.09863,-155.061,304
1567619619,367.345,115.639,-17.4129,179.055,1.07666,-155.061,304
1567619619,367.345,115.639,-17.4129,179.055,1.07666,-155.061,304
1567619619,367.345,115.639,-17.4129,179.055,1.07666,-155.061,304
1567619619,367.457,115.639,-17.4129,179.055,1.07666,-155.061,304
1567619619,367.457,115.639,-17.4129,179.055,1.07666,-155.061,304
1567619619,367.457,115.639,-17.4129,179.055,1.07666,-155.061,304
1567619619,367.457,115.639,-17.4129,179.055,1.07666,-155.061,304
1567619619,367.457,115.639,-17.4129,179.055,1.07666,-155.061,304
1567619619,367.457,115.639,-17.4129,179.055,1.07666,-155.061,304
1567619619,367.457,115.639,-17.4129,179.055,1.09863,-155.061,304
1567619619,367.457,115.639,-17.4129,179.055,1.09863,-155.061,300
1567619619,367.457,115.639,-17.4129,179.055,1.09863,-155.039,300
1567619619,367.457,115.639,-17.3013,179.055,1.09863,-155.039,300
1567619619,367.457,115.639,-17.3013,179.055,1.09863,-155.039,296
1567619619,367.457,115.639,-17.3013,179.055,1.09863,-155.039,296
1567619619,367.457,115.639,-17.3013,179.055,1.09863,-155.039,296
1567619619,367.457,115.639,-17.3013,179.055,1.09863,-155.039,296
1567619619,367.457,115.639,-17.3013,179.055,1.09863,-155.039,292
1567619619,367.457,115.639,-17.3013,179.055,1.09863,-155.039,292
1567619619,367.457,115.639,-17.4129,179.055,1.09863,-155.039,292
1567619619,367.457,115.639,-17.4129,179.055,1.07666,-155.039,292
1567619619,367.457,115.639,-17.4129,179.055,1.07666,-155.061,292
1567619619,367.457,115.639,-17.4129,179.055,1.07666,-155.061,292
1567619619,367.457,115.639,-17.4129,179.055,1.07666,-155.061,292
1567619619,367.457,115.639,-17.4129,179.055,1.07666,-155.061,288
1567619619,367.457,115.639,-17.4129,179.055,1.07666,-155.061,288
1567619619,367.457,115.639,-17.4129,179.055,1.07666,-155.061,288
1567619619,367.457,115.639,-17.4129,179.055,1.07666,-155.061,288
1567619619,367.457,115.639,-17.4129,179.055,1.07666,-155.061,288
1567619619,367.457,115.639,-17.4129,179.055,1.07666,-155.061,288
1567619619,367.457,115.639,-17.4129,179.055,1.07666,-155.061,292
1567619619,367.457,115.639,-17.4129,179.055,1.07666,-155.061,292
1567619619,367.457,115.639,-17.4129,179.055,1.07666,-155.061,292
1567619619,367.457,115.639,-17.4129,179.055,1.07666,-155.061,292
1567619619,367.457,115.639,-17.4129,179.033,1.07666,-155.061,292
1567619619,367.457,115.639,-17.4129,179.055,1.07666,-155.061,296
1567619619,367.457,115.639,-17.4129,179.055,1.07666,-155.061,296
1567619619,367.457,115.639,-17.4129,179.055,1.07666,-155.061,296
1567619619,367.457,115.639,-17.4129,179.055,1.07666,-155.061,296
1567619619,367.457,115.639,-17.4129,179.055,1.07666,-155.061,300
1567619619,367.457,115.639,-17.4129,179.055,1.07666,-155.061,300
1567619619,367.457,115.639,-17.4129,179.055,1.07666,-155.061,300
1567619619,367.457,115.639,-17.4129,179.055,1.07666,-155.061,300
1567619619,367.457,115.639,-17.4129,179.055,1.07666,-155.061,300
1567619619,367.457,115.639,-17.4129,179.055,1.07666,-155.061,300
1567619619,367.457,115.639,-17.4129,179.055,1.07666,-155.061,300
1567619619,367.457,115.639,-17.4129,179.055,1.09863,-155.061,304
1567619619,367.457,115.639,-17.4129,179.055,1.09863,-155.061,304
1567619619,367.457,115.639,-17.3013,179.055,1.09863,-155.061,304
1567619619,367.457,115.639,-17.3013,179.055,1.09863,-155.061,304
1567619619,367.457,115.639,-17.3013,179.033,1.09863,-155.061,304
1567619619,367.457,115.639,-17.3013,179.033,1.09863,-155.061,304
1567619619,367.457,115.639,-17.3013,179.033,1.09863,-155.061,304
1567619619,367.568,115.528,-17.3013,179.033,1.09863,-155.061,304
1567619619,367.568,115.528,-17.3013,179.033,1.09863,-155.061,304
1567619619,367.568,115.528,-17.3013,179.011,1.09863,-155.061,304
1567619619,367.568,115.528,-17.3013,179.011,1.09863,-155.061,304
1567619619,367.568,115.528,-17.3013,179.011,1.09863,-155.061,304
1567619619,367.568,115.528,-17.3013,179.011,1.09863,-155.061,304
1567619619,367.457,115.528,-17.3013,179.011,1.09863,-155.061,304
1567619619,367.457,115.528,-17.3013,179.011,1.09863,-155.061,304
1567619619,367.457,115.528,-17.3013,179.011,1.09863,-155.061,304
1567619619,367.457,115.528,-17.3013,179.011,1.09863,-155.083,304
1567619619,367.457,115.528,-17.3013,179.011,1.09863,-155.083,304
1567619619,367.457,115.528,-17.3013,179.011,1.09863,-155.083,304
1567619619,367.457,115.528,-17.3013,179.011,1.09863,-155.083,304
1567619619,367.457,115.528,-17.3013,179.011,1.09863,-155.083,304
1567619619,367.457,115.528,-17.3013,179.011,1.09863,-155.083,304
1567619619,367.457,115.528,-17.3013,179.011,1.09863,-155.083,304
1567619619,367.457,115.528,-17.3013,179.011,1.09863,-155.083,304
1567619619,367.457,115.528,-17.3013,179.011,1.09863,-155.061,304
1567619619,367.457,115.528,-17.3013,179.011,1.09863,-155.061,304
1567619619,367.457,115.528,-17.3013,179.011,1.09863,-155.061,304
1567619619,367.457,115.528,-17.3013,179.011,1.09863,-155.061,304
1567619619,367.457,115.528,-17.3013,179.011,1.09863,-155.061,304
1567619619,367.457,115.528,-17.3013,179.011,1.09863,-155.061,300
1567619619,367.457,115.528,-17.3013,179.033,1.09863,-155.061,300
1567619619,367.457,115.528,-17.3013,179.033,1.09863,-155.061,300
1567619619,367.457,115.639,-17.3013,179.033,1.09863,-155.061,300
1567619619,367.457,115.639,-17.3013,179.033,1.09863,-155.061,300
1567619619,367.457,115.639,-17.3013,179.033,1.09863,-155.061,300
1567619619,367.457,115.639,-17.3013,179.033,1.09863,-155.061,304
1567619619,367.457,115.639,-17.3013,179.033,1.12061,-155.061,304
1567619619,367.457,115.639,-17.3013,179.033,1.12061,-155.061,304
1567619619,367.457,115.639,-17.3013,179.033,1.12061,-155.061,304
1567619619,367.457,115.639,-17.3013,179.055,1.12061,-155.061,304
1567619619,367.457,115.639,-17.3013,179.055,1.12061,-155.061,304
1567619619,367.457,115.639,-17.3013,179.055,1.12061,-155.061,300
1567619619,367.457,115.639,-17.3013,179.055,1.12061,-155.061,300
1567619619,367.457,115.639,-17.3013,179.055,1.12061,-155.061,300
1567619619,367.457,115.639,-17.3013,179.055,1.12061,-155.061,300
1567619619,367.457,115.639,-17.3013,179.055,1.12061,-155.061,300
1567619619,367.457,115.639,-17.3013,179.055,1.12061,-155.061,296
1567619619,367.457,115.639,-17.3013,179.055,1.12061,-155.061,296
1567619619,367.457,115.639,-17.3013,179.055,1.12061,-155.061,296
1567619619,367.457,115.639,-17.3013,179.055,1.12061,-155.061,296
1567619619,367.457,115.639,-17.3013,179.055,1.12061,-155.061,292
1567619619,367.457,115.639,-17.3013,179.055,1.12061,-155.061,292
1567619620,367.457,115.639,-17.3013,179.055,1.12061,-155.061,292
1567619620,367.457,115.639,-17.3013,179.055,1.12061,-155.061,292
1567619620,367.457,115.639,-17.3013,179.055,1.09863,-155.061,292
1567619620,367.457,115.639,-17.3013,179.055,1.09863,-155.061,292
1567619620,367.457,115.639,-17.3013,179.055,1.09863,-155.061,292
1567619620,367.457,115.751,-17.3013,179.055,1.09863,-155.061,292
1567619620,367.457,115.751,-17.3013,179.077,1.09863,-155.061,292
1567619620,367.457,115.751,-17.3013,179.077,1.09863,-155.061,292
1567619620,367.457,115.751,-17.3013,179.077,1.09863,-155.061,292
1567619620,367.457,115.751,-17.3013,179.077,1.09863,-155.061,292
1567619620,367.457,115.751,-17.3013,179.077,1.09863,-155.061,292
1567619620,367.457,115.751,-17.3013,179.077,1.09863,-155.061,292
1567619620,367.457,115.751,-17.3013,179.077,1.09863,-155.061,288
1567619620,367.457,115.751,-17.3013,179.077,1.09863,-155.061,288
1567619620,367.457,115.751,-17.3013,179.077,1.09863,-155.061,288
1567619620,367.457,115.751,-17.3013,179.077,1.09863,-155.061,288
1567619620,367.457,115.751,-17.3013,179.077,1.09863,-155.083,288
1567619620,367.457,115.751,-17.3013,179.077,1.09863,-155.083,288
1567619620,367.457,115.751,-17.3013,179.077,1.09863,-155.061,288
1567619620,367.457,115.639,-17.3013,179.077,1.09863,-155.061,288
1567619620,367.457,115.639,-17.3013,179.077,1.09863,-155.061,284
1567619620,367.457,115.639,-17.3013,179.055,1.09863,-155.061,284
1567619620,367.457,115.639,-17.3013,179.055,1.09863,-155.061,284
1567619620,367.457,115.639,-17.3013,179.055,1.09863,-155.061,284
1567619620,367.457,115.639,-17.4129,179.055,1.07666,-155.061,284
1567619620,367.457,115.639,-17.4129,179.055,1.07666,-155.061,284
1567619620,367.457,115.639,-17.4129,179.055,1.07666,-155.061,280
1567619620,367.568,115.639,-17.4129,179.055,1.07666,-155.061,280
1567619620,367.568,115.639,-17.4129,179.055,1.07666,-155.061,280
1567619620,367.568,115.639,-17.4129,179.055,1.07666,-155.061,280
1567619620,367.568,115.639,-17.4129,179.055,1.07666,-155.061,280
1567619620,367.568,115.639,-17.4129,179.033,1.07666,-155.061,276
1567619620,367.568,115.639,-17.4129,179.033,1.07666,-155.061,276
1567619620,367.568,115.639,-17.4129,179.033,1.07666,-155.061,276
1567619620,367.568,115.639,-17.4129,179.033,1.09863,-155.061,276
1567619620,367.568,115.639,-17.3013,179.033,1.09863,-155.061,276
1567619620,367.568,115.639,-17.3013,179.033,1.09863,-155.061,276
1567619620,367.568,115.639,-17.3013,179.033,1.09863,-155.061,276
1567619620,367.568,115.639,-17.3013,179.033,1.09863,-155.061,276
1567619620,367.568,115.639,-17.3013,179.033,1.09863,-155.061,276
1567619620,367.568,115.639,-17.3013,179.033,1.09863,-155.061,276
1567619620,367.568,115.639,-17.4129,179.033,1.09863,-155.061,276
1567619620,367.568,115.639,-17.4129,179.033,1.09863,-155.061,280
1567619620,367.568,115.639,-17.4129,179.033,1.09863,-155.061,280
1567619620,367.568,115.639,-17.4129,179.055,1.09863,-155.061,280
1567619620,367.457,115.639,-17.4129,179.055,1.09863,-155.061,280
1567619620,367.457,115.639,-17.4129,179.055,1.09863,-155.061,280
1567619620,367.457,115.639,-17.4129,179.055,1.09863,-155.061,284
1567619620,367.457,115.639,-17.4129,179.055,1.09863,-155.061,284
1567619620,367.457,115.639,-17.4129,179.055,1.09863,-155.061,284
1567619620,367.457,115.639,-17.4129,179.055,1.09863,-155.061,284
1567619620,367.457,115.639,-17.3013,179.055,1.09863,-155.061,284
1567619620,367.457,115.639,-17.3013,179.055,1.09863,-155.061,284
1567619620,367.457,115.639,-17.3013,179.055,1.09863,-155.061,284
1567619620,367.457,115.639,-17.3013,179.055,1.09863,-155.083,288
1567619620,367.457,115.639,-17.3013,179.055,1.09863,-155.083,288
1567619620,367.457,115.639,-17.3013,179.055,1.12061,-155.083,288
1567619620,367.457,115.639,-17.3013,179.033,1.12061,-155.083,288
1567619620,367.457,115.639,-17.3013,179.033,1.12061,-155.083,288
1567619620,367.457,115.528,-17.3013,179.033,1.12061,-155.083,288
1567619620,367.457,115.528,-17.3013,179.033,1.12061,-155.083,288
1567619620,367.457,115.528,-17.3013,179.033,1.12061,-155.083,288
1567619620,367.457,115.528,-17.3013,179.033,1.12061,-155.083,288
1567619620,367.457,115.528,-17.3013,179.033,1.12061,-155.083,288
1567619620,367.457,115.528,-17.3013,179.033,1.12061,-155.083,288
1567619620,367.457,115.528,-17.3013,179.033,1.12061,-155.083,288
1567619620,367.457,115.528,-17.3013,179.033,1.12061,-155.083,288
1567619620,367.457,115.528,-17.3013,179.033,1.12061,-155.083,288
1567619620,367.457,115.528,-17.3013,179.033,1.12061,-155.083,288
1567619620,367.457,115.528,-17.3013,179.033,1.12061,-155.083,288
1567619620,367.457,115.639,-17.3013,179.033,1.12061,-155.083,288
1567619620,367.457,115.639,-17.3013,179.033,1.12061,-155.083,288
1567619620,367.457,115.639,-17.3013,179.033,1.12061,-155.083,288
1567619620,367.457,115.639,-17.3013,179.033,1.12061,-155.083,288
1567619620,367.457,115.639,-17.3013,179.033,1.12061,-155.083,288
1567619620,367.457,115.639,-17.3013,179.033,1.12061,-155.083,288
1567619620,367.457,115.639,-17.3013,179.033,1.12061,-155.083,288
1567619620,367.457,115.639,-17.3013,179.055,1.12061,-155.083,288
1567619620,367.457,115.639,-17.3013,179.055,1.12061,-155.083,288
1567619620,367.457,115.639,-17.3013,179.055,1.09863,-155.083,288
1567619620,367.457,115.639,-17.3013,179.055,1.09863,-155.083,288
1567619620,367.457,115.639,-17.3013,179.055,1.09863,-155.083,288
1567619620,367.457,115.639,-17.3013,179.055,1.09863,-155.083,288
1567619620,367.457,115.639,-17.3013,179.055,1.09863,-155.061,288
1567619620,367.457,115.639,-17.3013,179.055,1.09863,-155.061,288
1567619620,367.457,115.639,-17.3013,179.033,1.09863,-155.061,288
1567619620,367.457,115.639,-17.4129,179.033,1.09863,-155.061,288
1567619620,367.457,115.639,-17.4129,179.033,1.09863,-155.061,288
1567619620,367.457,115.639,-17.4129,179.033,1.09863,-155.061,288
1567619620,367.457,115.528,-17.3013,179.033,1.09863,-155.061,292
1567619620,367.457,115.528,-17.3013,179.011,1.09863,-155.061,292
1567619620,367.457,115.528,-17.3013,179.011,1.09863,-155.061,292
1567619620,367.457,115.528,-17.3013,179.011,1.09863,-155.061,292
1567619620,367.457,115.528,-17.3013,179.011,1.09863,-155.039,292
1567619620,367.568,115.528,-17.3013,179.011,1.09863,-155.039,292
1567619620,367.568,115.528,-17.3013,179.011,1.09863,-155.039,292
1567619620,367.568,115.528,-17.3013,179.011,1.09863,-155.039,292
1567619620,367.568,115.639,-17.3013,179.033,1.09863,-155.039,292
1567619620,367.568,115.639,-17.3013,179.033,1.09863,-155.039,292
1567619620,367.568,115.639,-17.3013,179.033,1.09863,-155.039,288
1567619621,367.568,115.639,-17.3013,179.033,1.09863,-155.039,288
1567619621,367.568,115.639,-17.3013,179.033,1.09863,-155.039,288
1567619621,367.568,115.639,-17.3013,179.033,1.09863,-155.039,288
1567619621,367.568,115.639,-17.3013,179.033,1.09863,-155.039,288
1567619621,367.568,115.639,-17.3013,179.033,1.09863,-155.039,288
1567619621,367.568,115.639,-17.3013,179.055,1.09863,-155.039,288
1567619621,367.568,115.639,-17.3013,179.055,1.09863,-155.039,288
1567619621,367.568,115.639,-17.3013,179.055,1.09863,-155.039,288
1567619621,367.568,115.639,-17.3013,179.055,1.12061,-155.039,288
1567619621,367.568,115.639,-17.3013,179.055,1.12061,-155.039,288
1567619621,367.457,115.639,-17.3013,179.055,1.12061,-155.039,288
1567619621,367.457,115.751,-17.3013,179.055,1.12061,-155.039,284
1567619621,367.457,115.751,-17.3013,179.077,1.12061,-155.039,284
1567619621,367.457,115.751,-17.3013,179.077,1.12061,-155.039,284
1567619621,367.457,115.751,-17.3013,179.077,1.12061,-155.039,284
1567619621,367.457,115.751,-17.3013,179.077,1.12061,-155.039,280
1567619621,367.457,115.751,-17.3013,179.077,1.12061,-155.039,280
1567619621,367.457,115.751,-17.3013,179.077,1.12061,-155.039,280
1567619621,367.457,115.751,-17.3013,179.077,1.12061,-155.039,280
1567619621,367.457,115.751,-17.3013,179.055,1.12061,-155.039,280
1567619621,367.457,115.639,-17.3013,179.055,1.12061,-155.039,280
1567619621,367.457,115.639,-17.3013,179.055,1.09863,-155.039,280
1567619621,367.457,115.639,-17.3013,179.055,1.09863,-155.039,280
1567619621,367.457,115.639,-17.3013,179.055,1.09863,-155.039,280
1567619621,367.457,115.639,-17.3013,179.055,1.09863,-155.039,280
1567619621,367.457,115.639,-17.3013,179.033,1.09863,-155.039,280
1567619621,367.457,115.639,-17.4129,179.033,1.09863,-155.039,280
1567619621,367.457,115.639,-17.4129,179.033,1.09863,-155.039,284
1567619621,367.457,115.639,-17.4129,179.033,1.09863,-155.039,284
1567619621,367.457,115.639,-17.4129,179.033,1.09863,-155.039,284
1567619621,367.457,115.639,-17.4129,179.033,1.09863,-155.039,288
1567619621,367.457,115.639,-17.4129,179.033,1.09863,-155.039,288
1567619621,367.457,115.639,-17.4129,179.055,1.09863,-155.039,288
1567619621,367.457,115.639,-17.4129,179.055,1.09863,-155.039,292
1567619621,367.457,115.639,-17.4129,179.055,1.09863,-155.039,292
1567619621,367.457,115.639,-17.4129,179.055,1.09863,-155.039,292
1567619621,367.457,115.639,-17.4129,179.055,1.09863,-155.039,296
1567619621,367.457,115.639,-17.4129,179.055,1.09863,-155.039,296
1567619621,367.457,115.639,-17.4129,179.055,1.09863,-155.039,296
1567619621,367.457,115.639,-17.4129,179.055,1.12061,-155.061,296
1567619621,367.457,115.639,-17.3013,179.055,1.12061,-155.061,296
1567619621,367.457,115.639,-17.3013,179.055,1.12061,-155.061,296
1567619621,367.457,115.639,-17.3013,179.055,1.12061,-155.061,296
1567619621,367.457,115.639,-17.3013,179.055,1.12061,-155.061,296
1567619621,367.457,115.639,-17.3013,179.055,1.12061,-155.061,296
1567619621,367.457,115.639,-17.3013,179.055,1.12061,-155.061,296
1567619621,367.457,115.639,-17.3013,179.055,1.12061,-155.061,296
1567619621,367.457,115.639,-17.3013,179.055,1.12061,-155.061,296
1567619621,367.457,115.639,-17.3013,179.055,1.12061,-155.061,296
1567619621,367.457,115.639,-17.3013,179.055,1.09863,-155.061,296
1567619621,367.457,115.639,-17.3013,179.055,1.09863,-155.061,296
1567619621,367.457,115.639,-17.4129,179.033,1.09863,-155.061,292
1567619621,367.457,115.639,-17.4129,179.033,1.09863,-155.061,292
1567619621,367.457,115.639,-17.4129,179.033,1.09863,-155.061,292
1567619621,367.457,115.639,-17.4129,179.055,1.09863,-155.061,292
1567619621,367.457,115.639,-17.4129,179.055,1.09863,-155.061,292
1567619621,367.457,115.639,-17.4129,179.055,1.09863,-155.061,292
1567619621,367.457,115.639,-17.4129,179.055,1.09863,-155.061,292
1567619621,367.457,115.639,-17.4129,179.055,1.07666,-155.061,288
1567619621,367.457,115.639,-17.4129,179.055,1.07666,-155.039,288
1567619621,367.457,115.639,-17.4129,179.055,1.07666,-155.039,288
1567619621,367.457,115.639,-17.4129,179.055,1.09863,-155.039,288
1567619621,367.457,115.639,-17.4129,179.055,1.09863,-155.039,288
1567619621,367.457,115.639,-17.4129,179.055,1.09863,-155.039,288
1567619621,367.457,115.639,-17.4129,179.055,1.09863,-155.039,284
1567619621,367.457,115.639,-17.4129,179.055,1.09863,-155.039,284
1567619621,367.457,115.639,-17.4129,179.055,1.09863,-155.039,284
1567619621,367.457,115.639,-17.4129,179.055,1.09863,-155.039,284
1567619621,367.457,115.639,-17.4129,179.055,1.09863,-155.039,284
1567619621,367.457,115.639,-17.4129,179.055,1.09863,-155.039,284
1567619621,367.457,115.639,-17.4129,179.055,1.09863,-155.039,284
1567619621,367.457,115.639,-17.4129,179.033,1.09863,-155.039,284
1567619621,367.457,115.639,-17.4129,179.033,1.09863,-155.039,280
1567619621,367.457,115.639,-17.4129,179.033,1.09863,-155.039,280
1567619621,367.457,115.639,-17.4129,179.033,1.09863,-155.039,280
1567619621,367.457,115.639,-17.4129,179.033,1.09863,-155.039,284
1567619621,367.457,115.639,-17.4129,179.033,1.09863,-155.039,284
1567619621,367.457,115.639,-17.4129,179.033,1.09863,-155.039,284
1567619621,367.457,115.639,-17.4129,179.033,1.09863,-155.039,284
1567619621,367.457,115.639,-17.4129,179.033,1.09863,-155.039,284
1567619621,367.457,115.639,-17.4129,179.033,1.09863,-155.039,284
1567619621,367.457,115.639,-17.4129,179.055,1.09863,-155.039,284
1567619621,367.457,115.639,-17.4129,179.055,1.07666,-155.039,284
1567619621,367.457,115.639,-17.4129,179.055,1.07666,-155.039,284
1567619621,367.457,115.639,-17.4129,179.055,1.07666,-155.039,284
1567619621,367.457,115.639,-17.4129,179.055,1.07666,-155.039,284
1567619621,367.457,115.639,-17.4129,179.055,1.07666,-155.039,284
1567619621,367.568,115.639,-17.4129,179.055,1.09863,-155.039,284
1567619621,367.568,115.639,-17.4129,179.033,1.09863,-155.039,284
1567619621,367.568,115.639,-17.4129,179.033,1.09863,-155.039,284
1567619621,367.568,115.639,-17.4129,179.033,1.09863,-155.039,284
1567619621,367.568,115.639,-17.4129,179.033,1.09863,-155.039,284
1567619621,367.568,115.639,-17.4129,179.033,1.09863,-155.039,280
1567619621,367.568,115.639,-17.4129,179.033,1.09863,-155.039,280
1567619621,367.568,115.639,-17.4129,179.033,1.09863,-155.039,280
1567619621,367.568,115.639,-17.4129,179.033,1.09863,-155.039,280
1567619621,367.568,115.639,-17.4129,179.055,1.09863,-155.039,280
1567619621,367.568,115.639,-17.4129,179.055,1.09863,-155.039,276
1567619621,367.568,115.639,-17.4129,179.055,1.09863,-155.039,276
1567619621,367.568,115.639,-17.4129,179.055,1.09863,-155.039,276
1567619622,367.568,115.639,-17.4129,179.055,1.09863,-155.039,276
1567619622,367.568,115.639,-17.4129,179.055,1.09863,-155.039,276
1567619622,367.568,115.639,-17.4129,179.055,1.09863,-155.039,276
1567619622,367.568,115.639,-17.4129,179.055,1.09863,-155.039,276
1567619622,367.568,115.639,-17.4129,179.055,1.09863,-155.039,276
1567619622,367.568,115.639,-17.4129,179.055,1.09863,-155.039,276
1567619622,367.568,115.639,-17.4129,179.055,1.09863,-155.039,276
1567619622,367.568,115.639,-17.4129,179.055,1.09863,-155.039,276
1567619622,367.568,115.639,-17.4129,179.055,1.09863,-155.039,276
1567619622,367.568,115.639,-17.4129,179.055,1.09863,-155.039,276
1567619622,367.568,115.639,-17.4129,179.055,1.09863,-155.039,276
1567619622,367.568,115.639,-17.4129,179.055,1.09863,-155.039,276
1567619622,367.568,115.639,-17.4129,179.055,1.09863,-155.039,276
1567619622,367.568,115.639,-17.4129,179.055,1.09863,-155.039,276
1567619622,367.568,115.639,-17.4129,179.055,1.09863,-155.039,276
1567619622,367.568,115.639,-17.4129,179.055,1.07666,-155.039,276
1567619622,367.568,115.639,-17.4129,179.055,1.07666,-155.039,276
1567619622,367.568,115.639,-17.4129,179.055,1.07666,-155.039,276
1567619622,367.568,115.639,-17.4129,179.055,1.07666,-155.039,280
1567619622,367.568,115.639,-17.4129,179.055,1.07666,-155.039,280
1567619622,367.568,115.639,-17.4129,179.055,1.07666,-155.039,280
1567619622,367.568,115.639,-17.4129,179.055,1.07666,-155.061,280
1567619622,367.568,115.639,-17.4129,179.055,1.07666,-155.061,280
1567619622,367.568,115.639,-17.4129,179.055,1.07666,-155.061,280
1567619622,367.568,115.639,-17.4129,179.055,1.07666,-155.061,280
1567619622,367.568,115.639,-17.4129,179.055,1.07666,-155.061,280
1567619622,367.568,115.639,-17.4129,179.055,1.09863,-155.061,280
1567619622,367.568,115.639,-17.4129,179.055,1.09863,-155.061,280
1567619622,367.568,115.639,-17.4129,179.055,1.09863,-155.061,280
1567619622,367.568,115.639,-17.4129,179.055,1.09863,-155.061,280
1567619622,367.568,115.639,-17.4129,179.055,1.09863,-155.061,280
1567619622,367.568,115.639,-17.4129,179.055,1.09863,-155.039,280
1567619622,367.457,115.639,-17.4129,179.055,1.09863,-155.039,280
1567619622,367.457,115.639,-17.4129,179.055,1.09863,-155.039,280
1567619622,367.457,115.639,-17.4129,179.055,1.09863,-155.039,280
1567619622,367.457,115.639,-17.4129,179.055,1.09863,-155.039,280
1567619622,367.457,115.639,-17.4129,179.055,1.09863,-155.039,280
1567619622,367.457,115.639,-17.4129,179.055,1.07666,-155.039,280
1567619622,367.457,115.639,-17.4129,179.055,1.07666,-155.039,280
1567619622,367.457,115.639,-17.4129,179.055,1.07666,-155.039,284
1567619622,367.457,115.639,-17.4129,179.055,1.09863,-155.039,284
1567619622,367.457,115.639,-17.4129,179.055,1.09863,-155.039,284
1567619622,367.457,115.639,-17.4129,179.055,1.09863,-155.039,284
1567619622,367.457,115.639,-17.3013,179.055,1.09863,-155.039,284
1567619622,367.457,115.639,-17.3013,179.055,1.09863,-155.039,284
1567619622,367.457,115.639,-17.3013,179.055,1.09863,-155.039,284
1567619622,367.568,115.639,-17.3013,179.055,1.12061,-155.039,284
1567619622,367.568,115.639,-17.3013,179.055,1.12061,-155.039,284
1567619622,367.568,115.639,-17.3013,179.055,1.12061,-155.061,284
1567619622,367.568,115.639,-17.3013,179.055,1.12061,-155.061,284
1567619622,367.568,115.639,-17.3013,179.033,1.12061,-155.061,284
1567619622,367.568,115.639,-17.3013,179.033,1.12061,-155.061,284
1567619622,367.568,115.639,-17.3013,179.055,1.14258,-155.061,284
1567619622,367.568,115.639,-17.3013,179.055,1.14258,-155.061,280
1567619622,367.568,115.639,-17.3013,179.055,1.14258,-155.061,280
1567619622,367.568,115.639,-17.3013,179.055,1.14258,-155.061,280
1567619622,367.457,115.639,-17.3013,179.055,1.14258,-155.061,280
1567619622,367.457,115.639,-17.3013,179.055,1.12061,-155.061,280
1567619622,367.457,115.639,-17.3013,179.055,1.12061,-155.061,280
1567619622,367.457,115.639,-17.3013,179.055,1.12061,-155.061,280
1567619622,367.457,115.639,-17.3013,179.055,1.12061,-155.061,280
1567619622,367.457,115.639,-17.3013,179.055,1.12061,-155.061,280
1567619622,367.457,115.639,-17.3013,179.055,1.12061,-155.061,280
1567619622,367.457,115.639,-17.3013,179.055,1.12061,-155.061,280
1567619622,367.457,115.639,-17.3013,179.055,1.12061,-155.061,280
1567619622,367.457,115.639,-17.3013,179.055,1.12061,-155.061,280
1567619622,367.457,115.639,-17.3013,179.055,1.12061,-155.061,284
1567619622,367.457,115.639,-17.3013,179.055,1.12061,-155.061,284
1567619622,367.457,115.639,-17.3013,179.055,1.12061,-155.061,284
1567619622,367.457,115.639,-17.3013,179.033,1.12061,-155.061,284
1567619622,367.457,115.639,-17.3013,179.033,1.12061,-155.061,284
1567619622,367.457,115.639,-17.3013,179.033,1.12061,-155.061,288
1567619622,367.457,115.639,-17.3013,179.033,1.12061,-155.061,288
1567619622,367.457,115.639,-17.3013,179.033,1.12061,-155.061,288
1567619622,367.457,115.639,-17.3013,179.033,1.12061,-155.061,288
1567619622,367.568,115.639,-17.3013,179.033,1.12061,-155.061,288
1567619622,367.568,115.528,-17.3013,179.033,1.12061,-155.061,288
1567619622,367.568,115.528,-17.3013,179.033,1.12061,-155.061,288
1567619622,367.568,115.528,-17.3013,179.011,1.12061,-155.061,288
1567619622,367.568,115.528,-17.3013,179.011,1.12061,-155.061,288
1567619622,367.568,115.528,-17.3013,179.011,1.12061,-155.039,288
1567619622,367.568,115.528,-17.3013,179.011,1.12061,-155.039,288
1567619622,367.568,115.528,-17.3013,179.011,1.12061,-155.039,288
1567619622,367.568,115.528,-17.3013,179.011,1.12061,-155.039,288
1567619622,367.568,115.528,-17.3013,179.011,1.12061,-155.061,288
1567619622,367.568,115.528,-17.3013,179.011,1.12061,-155.061,292
1567619622,367.568,115.528,-17.3013,179.011,1.12061,-155.039,292
1567619622,367.568,115.528,-17.3013,179.011,1.12061,-155.039,292
1567619622,367.568,115.528,-17.3013,179.011,1.12061,-155.039,292
1567619622,367.568,115.528,-17.3013,179.011,1.12061,-155.039,292
1567619622,367.568,115.528,-17.3013,179.011,1.12061,-155.039,292
1567619622,367.568,115.528,-17.3013,179.011,1.12061,-155.039,292
1567619622,367.568,115.528,-17.3013,179.011,1.09863,-155.039,288
1567619622,367.568,115.528,-17.3013,179.011,1.09863,-155.039,288
1567619622,367.568,115.528,-17.3013,179.011,1.09863,-155.039,288
1567619622,367.568,115.528,-17.3013,179.011,1.09863,-155.039,288
1567619622,367.568,115.639,-17.3013,179.033,1.09863,-155.039,284
1567619622,367.568,115.639,-17.3013,179.033,1.09863,-155.039,284
1567619622,367.568,115.639,-17.4129,179.033,1.09863,-155.039,284
1567619622,367.568,115.639,-17.4129,179.033,1.09863,-155.039,284
1567619623,367.568,115.639,-17.4129,179.033,1.09863,-155.039,284
1567619623,367.568,115.639,-17.4129,179.033,1.09863,-155.039,280
1567619623,367.568,115.639,-17.4129,179.033,1.09863,-155.039,280
1567619623,367.568,115.639,-17.3013,179.033,1.09863,-155.039,280
1567619623,367.568,115.639,-17.3013,179.033,1.09863,-155.039,280
1567619623,367.568,115.639,-17.3013,179.033,1.09863,-155.039,280
1567619623,367.568,115.639,-17.3013,179.033,1.09863,-155.039,280
1567619623,367.568,115.639,-17.3013,179.033,1.09863,-155.039,280
1567619623,367.568,115.639,-17.3013,179.033,1.09863,-155.039,280
1567619623,367.568,115.639,-17.3013,179.033,1.09863,-155.039,280
1567619623,367.568,115.639,-17.3013,179.033,1.09863,-155.039,280
1567619623,367.568,115.639,-17.3013,179.033,1.09863,-155.039,284
1567619623,367.568,115.639,-17.4129,179.033,1.09863,-155.039,284
1567619623,367.568,115.639,-17.4129,179.033,1.09863,-155.039,284
1567619623,367.568,115.639,-17.4129,179.033,1.07666,-155.039,284
1567619623,367.568,115.639,-17.4129,179.033,1.07666,-155.039,284
1567619623,367.568,115.639,-17.4129,179.033,1.07666,-155.039,284
1567619623,367.568,115.639,-17.4129,179.033,1.07666,-155.039,284
1567619623,367.568,115.639,-17.4129,179.033,1.07666,-155.039,284
1567619623,367.568,115.639,-17.4129,179.033,1.07666,-155.039,284
1567619623,367.568,115.639,-17.4129,179.033,1.07666,-155.039,284
1567619623,367.568,115.639,-17.4129,179.033,1.07666,-155.039,284
1567619623,367.568,115.639,-17.4129,179.033,1.07666,-155.039,284
1567619623,367.568,115.639,-17.4129,179.033,1.07666,-155.039,284
1567619623,367.568,115.639,-17.4129,179.033,1.07666,-155.039,284
1567619623,367.568,115.639,-17.4129,179.033,1.07666,-155.039,284
1567619623,367.568,115.639,-17.4129,179.033,1.07666,-155.039,284
1567619623,367.457,115.639,-17.4129,179.033,1.07666,-155.039,284
1567619623,367.457,115.639,-17.4129,179.033,1.07666,-155.039,284
1567619623,367.457,115.639,-17.4129,179.033,1.07666,-155.039,288
1567619623,367.457,115.639,-17.4129,179.033,1.09863,-155.039,288
1567619623,367.457,115.639,-17.4129,179.033,1.09863,-155.039,288
1567619623,367.457,115.639,-17.4129,179.055,1.09863,-155.039,288
1567619623,367.457,115.639,-17.4129,179.055,1.09863,-155.039,288
1567619623,367.457,115.639,-17.4129,179.055,1.09863,-155.039,292
1567619623,367.457,115.639,-17.4129,179.055,1.09863,-155.061,292
1567619623,367.457,115.639,-17.4129,179.055,1.07666,-155.061,292
1567619623,367.457,115.639,-17.4129,179.055,1.07666,-155.061,292
1567619623,367.457,115.639,-17.4129,179.055,1.07666,-155.061,292
1567619623,367.457,115.639,-17.4129,179.055,1.07666,-155.061,292
1567619623,367.457,115.639,-17.4129,179.055,1.07666,-155.061,292
1567619623,367.457,115.639,-17.4129,179.055,1.07666,-155.061,292
1567619623,367.457,115.639,-17.4129,179.055,1.07666,-155.061,292
1567619623,367.457,115.639,-17.4129,179.055,1.07666,-155.061,292
1567619623,367.457,115.639,-17.4129,179.055,1.07666,-155.061,296
1567619623,367.457,115.639,-17.4129,179.055,1.07666,-155.061,296
1567619623,367.457,115.639,-17.4129,179.055,1.07666,-155.061,296
1567619623,367.457,115.639,-17.4129,179.055,1.07666,-155.061,296
1567619623,367.457,115.639,-17.4129,179.055,1.07666,-155.061,296
1567619623,367.457,115.639,-17.4129,179.055,1.07666,-155.061,296
1567619623,367.457,115.639,-17.4129,179.055,1.07666,-155.061,296
1567619623,367.457,115.639,-17.4129,179.055,1.07666,-155.061,296
1567619623,367.457,115.639,-17.4129,179.033,1.09863,-155.061,296
1567619623,367.457,115.639,-17.4129,179.033,1.09863,-155.061,296
1567619623,367.457,115.639,-17.4129,179.033,1.09863,-155.061,296
1567619623,367.457,115.639,-17.4129,179.033,1.09863,-155.061,296
1567619623,367.457,115.639,-17.3013,179.033,1.09863,-155.061,296
1567619623,367.457,115.639,-17.3013,179.033,1.09863,-155.061,296
1567619623,367.457,115.639,-17.3013,179.033,1.09863,-155.061,296
1567619623,367.457,115.639,-17.3013,179.033,1.09863,-155.061,292
1567619623,367.568,115.639,-17.3013,179.033,1.09863,-155.061,292
1567619623,367.568,115.639,-17.3013,179.033,1.09863,-155.061,288
1567619623,367.568,115.639,-17.3013,179.033,1.09863,-155.061,288
1567619623,367.568,115.639,-17.3013,179.033,1.09863,-155.061,284
1567619623,367.568,115.639,-17.3013,179.033,1.09863,-155.061,284
1567619623,367.457,115.639,-17.3013,179.033,1.09863,-155.061,284
1567619623,367.457,115.639,-17.3013,179.033,1.09863,-155.061,284
1567619623,367.457,115.639,-17.3013,179.033,1.09863,-155.061,280
1567619623,367.457,115.639,-17.3013,179.033,1.09863,-155.061,280
1567619623,367.457,115.639,-17.3013,179.033,1.09863,-155.061,280
1567619623,367.457,115.639,-17.4129,179.033,1.09863,-155.061,280
1567619623,367.457,115.639,-17.4129,179.033,1.09863,-155.061,280
1567619623,367.457,115.639,-17.4129,179.033,1.09863,-155.061,280
1567619623,367.457,115.639,-17.4129,179.033,1.09863,-155.061,280
1567619623,367.457,115.639,-17.4129,179.033,1.09863,-155.061,280
1567619623,367.457,115.639,-17.4129,179.033,1.09863,-155.061,280
1567619623,367.457,115.639,-17.4129,179.033,1.09863,-155.061,280
1567619623,367.457,115.639,-17.4129,179.033,1.09863,-155.061,280
1567619623,367.457,115.639,-17.4129,179.033,1.09863,-155.061,280
1567619623,367.457,115.639,-17.4129,179.033,1.09863,-155.061,280
1567619623,367.457,115.639,-17.4129,179.033,1.09863,-155.061,280
1567619623,367.457,115.639,-17.4129,179.033,1.09863,-155.061,280
1567619623,367.457,115.639,-17.4129,179.033,1.09863,-155.061,280
1567619623,367.457,115.639,-17.4129,179.033,1.09863,-155.061,280
1567619623,367.457,115.639,-17.4129,179.033,1.09863,-155.061,280
1567619623,367.457,115.639,-17.4129,179.033,1.09863,-155.061,280
1567619623,367.457,115.639,-17.4129,179.033,1.09863,-155.061,280
1567619623,367.457,115.639,-17.4129,179.033,1.09863,-155.061,280
1567619623,367.457,115.639,-17.3013,179.033,1.09863,-155.061,280
1567619623,367.457,115.639,-17.3013,179.033,1.09863,-155.061,280
1567619623,367.457,115.639,-17.3013,179.033,1.09863,-155.061,280
1567619631,406.412,75.2326,-16.4083,179.429,1.93359,-155.039,328
1567619631,406.412,75.2326,-16.4083,179.429,1.93359,-155.039,328
1567619631,406.412,75.121,-16.4083,179.429,1.93359,-155.039,328
1567619631,406.412,75.121,-16.4083,179.429,1.93359,-155.039,332
1567619631,406.412,75.121,-16.2967,179.429,1.93359,-155.039,332
1567619631,406.412,75.121,-16.2967,179.407,1.95557,-155.039,332
1567619631,406.412,75.121,-16.2967,179.407,1.95557,-155.039,332
1567619631,406.412,75.121,-16.2967,179.407,1.95557,-155.039,332
1567619631,406.412,75.121,-16.2967,179.407,1.95557,-155.039,332
1567619631,406.412,75.121,-16.2967,179.407,1.95557,-155.039,332
1567619631,406.524,75.121,-16.2967,179.407,1.95557,-155.039,332
1567619631,406.524,75.121,-16.2967,179.407,1.95557,-155.039,328
1567619631,406.524,75.121,-16.2967,179.407,1.95557,-155.039,328
1567619631,406.524,75.121,-16.2967,179.407,1.95557,-155.039,328
1567619631,406.524,75.121,-16.2967,179.407,1.95557,-155.039,328
1567619631,406.524,75.2326,-16.2967,179.429,1.95557,-155.039,328
1567619631,406.524,75.2326,-16.2967,179.429,1.95557,-155.039,328
1567619631,406.524,75.2326,-16.2967,179.429,1.95557,-155.039,328
1567619631,406.524,75.2326,-16.2967,179.429,1.95557,-155.039,324
1567619631,406.524,75.2326,-16.2967,179.429,1.95557,-155.039,324
1567619631,406.524,75.3442,-16.2967,179.451,1.95557,-155.039,324
1567619631,406.412,75.3442,-16.2967,179.451,1.95557,-155.039,324
1567619631,406.412,75.3442,-16.2967,179.451,1.95557,-155.039,328
1567619631,406.412,75.3442,-16.2967,179.451,1.95557,-155.039,328
1567619631,406.412,75.3442,-16.2967,179.451,1.95557,-155.039,328
1567619631,406.412,75.3442,-16.2967,179.451,1.93359,-155.039,328
1567619631,406.412,75.3442,-16.2967,179.451,1.93359,-155.039,328
1567619631,406.412,75.3442,-16.4083,179.451,1.93359,-155.039,328
1567619631,406.412,75.3442,-16.4083,179.451,1.93359,-155.039,332
1567619631,406.412,75.3442,-16.4083,179.473,1.93359,-155.039,332
1567619631,406.412,75.3442,-16.2967,179.473,1.93359,-155.039,332
1567619631,406.412,75.3442,-16.2967,179.473,1.93359,-155.039,332
1567619631,406.412,75.3442,-16.2967,179.473,1.93359,-155.039,332
1567619631,406.412,75.3442,-16.2967,179.473,1.93359,-155.039,332
1567619631,406.412,75.3442,-16.2967,179.451,1.93359,-155.039,332
1567619631,406.412,75.3442,-16.2967,179.451,1.93359,-155.039,332
1567619631,406.412,75.3442,-16.2967,179.451,1.93359,-155.039,332
1567619631,406.412,75.3442,-16.2967,179.451,1.93359,-155.039,328
1567619631,406.412,75.3442,-16.2967,179.451,1.93359,-155.039,328
1567619631,406.412,75.3442,-16.2967,179.451,1.93359,-155.039,328
1567619631,406.412,75.2326,-16.2967,179.451,1.93359,-155.039,328
1567619631,406.412,75.2326,-16.2967,179.451,1.93359,-155.039,328
1567619631,406.412,75.2326,-16.2967,179.429,1.93359,-155.061,328
1567619631,406.412,75.2326,-16.2967,179.429,1.93359,-155.061,328
1567619631,406.412,75.2326,-16.2967,179.429,1.93359,-155.061,328
1567619631,406.412,75.2326,-16.2967,179.429,1.93359,-155.061,328
1567619631,406.412,75.2326,-16.2967,179.429,1.93359,-155.061,328
1567619631,406.412,75.2326,-16.2967,179.429,1.93359,-155.061,328
1567619631,406.412,75.2326,-16.2967,179.429,1.93359,-155.061,328
1567619631,406.412,75.2326,-16.2967,179.429,1.93359,-155.061,328
1567619631,406.412,75.2326,-16.2967,179.429,1.93359,-155.061,328
1567619631,406.412,75.2326,-16.2967,179.429,1.93359,-155.061,328
1567619631,406.412,75.2326,-16.2967,179.429,1.93359,-155.061,328
1567619631,406.412,75.2326,-16.2967,179.429,1.93359,-155.061,328
1567619631,406.412,75.2326,-16.2967,179.429,1.93359,-155.061,332
1567619631,406.412,75.2326,-16.2967,179.429,1.93359,-155.061,332
1567619631,406.412,75.2326,-16.2967,179.429,1.93359,-155.061,332
1567619631,406.412,75.2326,-16.2967,179.429,1.93359,-155.061,332
1567619631,406.412,75.2326,-16.2967,179.429,1.93359,-155.061,332
1567619631,406.412,75.2326,-16.2967,179.429,1.93359,-155.061,332
1567619631,406.412,75.2326,-16.2967,179.429,1.93359,-155.061,332
1567619631,406.412,75.2326,-16.2967,179.429,1.93359,-155.061,332
1567619631,406.412,75.2326,-16.2967,179.429,1.91162,-155.061,332
1567619631,406.412,75.2326,-16.2967,179.429,1.91162,-155.061,336
1567619631,406.412,75.2326,-16.4083,179.429,1.91162,-155.061,336
1567619631,406.412,75.121,-16.4083,179.429,1.91162,-155.061,336
1567619631,406.412,75.121,-16.4083,179.407,1.91162,-155.061,336
1567619631,406.412,75.121,-16.4083,179.407,1.91162,-155.061,336
1567619631,406.412,75.121,-16.4083,179.407,1.91162,-155.061,336
1567619631,406.412,75.121,-16.4083,179.407,1.91162,-155.061,336
1567619631,406.412,75.121,-16.4083,179.407,1.91162,-155.061,336
1567619631,406.412,75.121,-16.4083,179.407,1.91162,-155.039,336
1567619631,406.412,75.121,-16.4083,179.407,1.91162,-155.039,336
1567619631,406.412,75.121,-16.4083,179.407,1.91162,-155.039,336
1567619631,406.412,75.121,-16.4083,179.407,1.91162,-155.039,336
1567619631,406.412,75.121,-16.4083,179.407,1.91162,-155.039,336
1567619631,406.412,75.121,-16.4083,179.407,1.91162,-155.061,336
1567619631,406.412,75.121,-16.4083,179.429,1.91162,-155.061,336
1567619631,406.412,75.121,-16.4083,179.429,1.91162,-155.061,336
1567619631,406.412,75.121,-16.4083,179.429,1.91162,-155.039,336
1567619631,406.412,75.121,-16.4083,179.429,1.91162,-155.039,336
1567619631,406.412,75.121,-16.4083,179.429,1.91162,-155.039,336
1567619631,406.412,75.121,-16.4083,179.429,1.91162,-155.039,336
1567619632,406.412,75.121,-16.4083,179.429,1.93359,-155.039,336
1567619632,406.412,75.121,-16.4083,179.407,1.93359,-155.039,336
1567619632,406.412,75.121,-16.4083,179.407,1.93359,-155.039,336
1567619632,406.412,75.121,-16.2967,179.407,1.93359,-155.039,336
1567619632,406.412,75.0094,-16.2967,179.407,1.93359,-155.039,336
1567619632,406.412,75.0094,-16.2967,179.385,1.93359,-155.039,336
1567619632,406.412,75.0094,-16.2967,179.385,1.93359,-155.039,336
1567619632,406.412,75.0094,-16.2967,179.385,1.95557,-155.039,332
1567619632,406.412,75.0094,-16.2967,179.385,1.95557,-155.039,332
1567619632,406.412,75.121,-16.2967,179.407,1.95557,-155.039,332
1567619632,406.412,75.121,-16.2967,179.407,1.95557,-155.039,332
1567619632,406.412,75.121,-16.2967,179.407,1.95557,-155.039,332
1567619632,406.412,75.121,-16.2967,179.407,1.95557,-155.039,332
1567619632,406.412,75.121,-16.2967,179.407,1.95557,-155.017,328
1567619632,406.412,75.121,-16.2967,179.429,1.95557,-155.017,328
1567619632,406.412,75.121,-16.2967,179.429,1.95557,-155.017,328
1567619632,406.412,75.121,-16.2967,179.429,1.95557,-155.017,328
1567619632,406.412,75.121,-16.2967,179.429,1.95557,-155.017,328
1567619632,406.412,75.121,-16.2967,179.429,1.93359,-155.017,328
1567619632,406.412,75.121,-16.2967,179.429,1.93359,-155.017,328
1567619632,406.412,75.121,-16.2967,179.429,1.93359,-155.017,328
1567619632,406.412,75.121,-16.2967,179.429,1.93359,-155.017,328
1567619632,406.412,75.2326,-16.2967,179.429,1.93359,-155.017,328
1567619632,406.412,75.2326,-16.2967,179.429,1.93359,-155.017,328
1567619632,406.412,75.2326,-16.2967,179.429,1.93359,-155.017,328
1567619632,406.412,75.2326,-16.2967,179.429,1.93359,-155.039,328
1567619632,406.412,75.2326,-16.2967,179.429,1.93359,-155.039,328
1567619632,406.412,75.2326,-16.2967,179.429,1.93359,-155.039,328
1567619632,406.412,75.2326,-16.2967,179.429,1.93359,-155.039,328
1567619632,406.412,75.2326,-16.2967,179.429,1.93359,-155.039,328
1567619632,406.412,75.2326,-16.2967,179.429,1.93359,-155.039,328
1567619632,406.412,75.2326,-16.2967,179.429,1.93359,-155.039,328
1567619632,406.412,75.2326,-16.2967,179.429,1.95557,-155.039,328
1567619632,406.412,75.2326,-16.2967,179.429,1.95557,-155.039,328
1567619632,406.412,75.2326,-16.2967,179.429,1.95557,-155.039,332
1567619632,406.412,75.2326,-16.2967,179.429,1.95557,-155.039,332
1567619632,406.412,75.2326,-16.2967,179.429,1.95557,-155.039,332
1567619632,406.412,75.2326,-16.2967,179.451,1.95557,-155.039,332
1567619632,406.412,75.2326,-16.2967,179.451,1.95557,-155.039,332
1567619632,406.412,75.2326,-16.2967,179.451,1.95557,-155.039,332
1567619632,406.412,75.2326,-16.2967,179.451,1.95557,-155.039,332
1567619632,406.412,75.2326,-16.2967,179.451,1.95557,-155.039,332
1567619632,406.412,75.2326,-16.2967,179.451,1.95557,-155.017,332
1567619632,406.412,75.2326,-16.2967,179.451,1.95557,-155.017,332
1567619632,406.412,75.2326,-16.2967,179.451,1.93359,-155.017,332
1567619632,406.412,75.2326,-16.2967,179.451,1.93359,-155.017,332
1567619632,406.412,75.2326,-16.2967,179.451,1.95557,-155.017,336
1567619632,406.412,75.2326,-16.2967,179.451,1.95557,-155.017,336
1567619632,406.412,75.2326,-16.2967,179.451,1.95557,-155.017,336
1567619632,406.412,75.2326,-16.2967,179.451,1.95557,-155.017,336
1567619632,406.412,75.2326,-16.2967,179.451,1.95557,-155.017,336
1567619632,406.412,75.2326,-16.2967,179.451,1.95557,-155.017,336
1567619632,406.412,75.2326,-16.2967,179.451,1.95557,-155.017,336
1567619632,406.412,75.2326,-16.2967,179.451,1.95557,-155.017,336
1567619632,406.412,75.2326,-16.2967,179.451,1.95557,-155.017,340
1567619632,406.412,75.2326,-16.2967,179.451,1.95557,-155.017,340
1567619632,406.412,75.2326,-16.2967,179.451,1.95557,-155.017,340
1567619632,406.412,75.2326,-16.2967,179.451,1.95557,-155.017,340
1567619632,406.412,75.2326,-16.2967,179.451,1.95557,-155.017,340
1567619632,406.412,75.2326,-16.2967,179.451,1.95557,-155.017,340
1567619632,406.412,75.2326,-16.2967,179.451,1.95557,-155.017,340
1567619632,406.412,75.2326,-16.2967,179.451,1.95557,-155.017,340
1567619632,406.412,75.2326,-16.2967,179.451,1.95557,-155.017,336
1567619632,406.412,75.2326,-16.2967,179.473,1.95557,-155.017,336
1567619632,406.412,75.2326,-16.2967,179.473,1.95557,-155.017,336
1567619632,406.412,75.2326,-16.2967,179.473,1.95557,-155.017,336
1567619632,406.412,75.2326,-16.2967,179.473,1.95557,-155.017,336
1567619632,406.412,75.2326,-16.2967,179.473,1.95557,-155.017,332
1567619632,406.412,75.3442,-16.2967,179.473,1.95557,-155.017,332
1567619632,406.412,75.3442,-16.2967,179.473,1.95557,-155.017,332
1567619632,406.412,75.3442,-16.2967,179.473,1.95557,-155.017,332
1567619632,406.412,75.3442,-16.2967,179.473,1.95557,-155.017,332
1567619632,406.412,75.3442,-16.2967,179.473,1.95557,-155.017,332
1567619632,406.412,75.3442,-16.2967,179.473,1.95557,-155.017,328
1567619632,406.412,75.2326,-16.2967,179.473,1.95557,-155.017,328
1567619632,406.412,75.2326,-16.2967,179.473,1.95557,-155.017,328
1567619632,406.412,75.2326,-16.2967,179.473,1.95557,-155.017,328
1567619632,406.412,75.3442,-16.2967,179.451,1.95557,-155.017,328
1567619632,406.412,75.3442,-16.2967,179.451,1.95557,-155.017,328
1567619632,406.412,75.3442,-16.1851,179.451,1.95557,-155.017,328
1567619632,406.412,75.3442,-16.1851,179.451,1.95557,-155.017,324
1567619632,406.412,75.3442,-16.1851,179.451,1.97754,-155.017,324
1567619632,406.412,75.3442,-16.1851,179.451,1.97754,-155.017,324
1567619632,406.412,75.3442,-16.1851,179.451,1.97754,-154.995,324
1567619632,406.412,75.3442,-16.1851,179.451,1.97754,-154.995,324
1567619632,406.412,75.3442,-16.1851,179.451,1.97754,-154.995,324
1567619632,406.412,75.3442,-16.1851,179.451,1.97754,-154.995,320
1567619632,406.412,75.3442,-16.1851,179.451,1.97754,-154.995,320
1567619632,406.412,75.2326,-16.1851,179.451,1.97754,-154.995,320
1567619632,406.412,75.2326,-16.1851,179.451,1.97754,-154.995,320
1567619632,406.412,75.2326,-16.1851,179.429,1.97754,-154.995,320
1567619632,406.524,75.2326,-16.1851,179.429,1.97754,-154.995,320
1567619632,406.524,75.2326,-16.1851,179.429,1.97754,-154.995,320
1567619632,406.524,75.2326,-16.1851,179.429,1.97754,-154.995,316
1567619632,406.524,75.2326,-16.1851,179.429,1.97754,-154.995,316
1567619632,406.524,75.2326,-16.1851,179.429,1.97754,-154.995,316
1567619632,406.524,75.2326,-16.1851,179.429,1.97754,-154.995,316
1567619632,406.524,75.2326,-16.1851,179.429,1.97754,-155.017,316
1567619632,406.412,75.2326,-16.1851,179.429,1.97754,-155.017,316
1567619632,406.412,75.2326,-16.1851,179.429,1.97754,-155.017,312
1567619633,406.412,75.2326,-16.1851,179.429,1.97754,-155.017,312
1567619633,406.412,75.2326,-16.1851,179.429,1.97754,-155.017,312
1567619633,406.412,75.2326,-16.1851,179.429,1.97754,-155.017,312
1567619633,406.412,75.2326,-16.1851,179.429,1.97754,-155.017,312
1567619633,406.412,75.2326,-16.1851,179.429,1.97754,-155.017,312
1567619633,406.412,75.2326,-16.1851,179.429,1.97754,-155.017,312
1567619633,406.412,75.2326,-16.1851,179.429,1.97754,-155.017,312
1567619633,406.412,75.2326,-16.1851,179.429,1.97754,-155.017,312
1567619633,406.412,75.2326,-16.1851,179.429,1.97754,-155.017,312
1567619633,406.412,75.2326,-16.1851,179.429,1.97754,-155.017,316
1567619633,406.412,75.2326,-16.1851,179.429,1.97754,-155.017,316
1567619633,406.412,75.2326,-16.1851,179.429,1.97754,-155.017,316
1567619633,406.412,75.121,-16.1851,179.429,1.97754,-155.017,316
1567619633,406.524,75.121,-16.1851,179.407,1.97754,-155.017,316
1567619633,406.524,75.121,-16.1851,179.407,1.97754,-155.017,316
1567619633,406.524,75.121,-16.1851,179.407,1.97754,-155.039,316
1567619633,406.524,75.121,-16.1851,179.407,1.95557,-155.039,316
1567619633,406.524,75.121,-16.1851,179.407,1.95557,-155.039,316
1567619633,406.524,75.121,-16.1851,179.407,1.95557,-155.039,312
1567619633,406.524,75.121,-16.1851,179.407,1.95557,-155.039,312
1567619633,406.524,75.121,-16.1851,179.407,1.95557,-155.039,312
1567619633,406.524,75.121,-16.1851,179.407,1.95557,-155.039,312
1567619633,406.524,75.121,-16.1851,179.407,1.95557,-155.039,312
1567619633,406.524,75.121,-16.1851,179.407,1.95557,-155.039,312
1567619633,406.524,75.121,-16.1851,179.407,1.95557,-155.039,312
1567619633,406.524,75.2326,-16.1851,179.407,1.95557,-155.039,312
1567619633,406.524,75.2326,-16.1851,179.429,1.95557,-155.039,312
1567619633,406.524,75.2326,-16.1851,179.429,1.95557,-155.039,312
1567619633,406.524,75.2326,-16.1851,179.429,1.95557,-155.039,312
1567619633,406.524,75.2326,-16.1851,179.429,1.95557,-155.039,312
1567619633,406.524,75.2326,-16.1851,179.429,1.97754,-155.039,312
1567619633,406.524,75.2326,-16.1851,179.429,1.97754,-155.039,316
1567619633,406.524,75.2326,-16.1851,179.429,1.97754,-155.039,316
1567619633,406.524,75.2326,-16.1851,179.407,1.97754,-155.039,316
1567619633,406.524,75.121,-16.1851,179.407,1.97754,-155.039,316
1567619633,406.524,75.121,-16.1851,179.407,1.97754,-155.039,316
1567619633,406.524,75.121,-16.1851,179.407,1.97754,-155.039,316
1567619633,406.524,75.121,-16.1851,179.407,1.97754,-155.039,316
1567619633,406.524,75.121,-16.1851,179.407,1.97754,-155.039,316
1567619633,406.524,75.121,-16.1851,179.407,1.95557,-155.039,320
1567619633,406.524,75.2326,-16.1851,179.407,1.95557,-155.039,320
1567619633,406.524,75.2326,-16.1851,179.407,1.95557,-155.039,320
1567619633,406.524,75.2326,-16.1851,179.429,1.95557,-155.039,320
1567619633,406.524,75.2326,-16.1851,179.429,1.95557,-155.039,320
1567619633,406.412,75.2326,-16.2967,179.429,1.95557,-155.039,320
1567619633,406.412,75.2326,-16.2967,179.429,1.95557,-155.039,320
1567619633,406.412,75.2326,-16.2967,179.429,1.95557,-155.039,320
1567619633,406.412,75.2326,-16.2967,179.429,1.95557,-155.039,320
1567619633,406.412,75.2326,-16.2967,179.429,1.95557,-155.039,320
1567619633,406.412,75.2326,-16.2967,179.429,1.95557,-155.039,320
1567619633,406.412,75.2326,-16.2967,179.429,1.95557,-155.039,324
1567619633,406.412,75.121,-16.2967,179.429,1.95557,-155.017,324
1567619633,406.412,75.121,-16.2967,179.429,1.93359,-155.017,324
1567619633,406.412,75.121,-16.2967,179.407,1.93359,-155.039,324
1567619633,406.412,75.121,-16.2967,179.407,1.93359,-155.039,324
1567619633,406.412,75.121,-16.2967,179.407,1.93359,-155.039,324
1567619633,406.412,75.121,-16.2967,179.407,1.93359,-155.039,328
1567619633,406.412,75.121,-16.2967,179.407,1.93359,-155.039,328
1567619633,406.412,75.121,-16.2967,179.407,1.93359,-155.039,328
1567619633,406.412,75.121,-16.2967,179.407,1.93359,-155.039,328
1567619633,406.412,75.121,-16.2967,179.407,1.93359,-155.039,328
1567619633,406.412,75.121,-16.2967,179.407,1.93359,-155.039,328
1567619633,406.412,75.121,-16.2967,179.407,1.93359,-155.039,328
1567619633,406.412,75.2326,-16.2967,179.429,1.93359,-155.017,328
1567619633,406.412,75.2326,-16.2967,179.429,1.93359,-155.017,328
1567619633,406.412,75.2326,-16.2967,179.429,1.93359,-155.017,328
1567619633,406.412,75.2326,-16.2967,179.429,1.93359,-155.017,328
1567619633,406.412,75.2326,-16.2967,179.429,1.93359,-155.017,328
1567619633,406.412,75.2326,-16.2967,179.429,1.93359,-155.017,328
1567619633,406.412,75.2326,-16.2967,179.429,1.93359,-155.039,328
1567619633,406.412,75.2326,-16.2967,179.429,1.93359,-155.039,328
1567619633,406.412,75.2326,-16.2967,179.429,1.93359,-155.039,328
1567619633,406.412,75.121,-16.2967,179.407,1.93359,-155.039,328
1567619633,406.412,75.121,-16.2967,179.407,1.93359,-155.039,328
1567619633,406.412,75.121,-16.2967,179.407,1.93359,-155.039,328
1567619633,406.412,75.121,-16.2967,179.407,1.93359,-155.039,328
1567619633,406.412,75.121,-16.2967,179.407,1.95557,-155.061,328
1567619633,406.412,75.121,-16.2967,179.407,1.95557,-155.061,328
1567619633,406.412,75.121,-16.1851,179.407,1.95557,-155.061,328
1567619633,406.412,75.121,-16.1851,179.407,1.95557,-155.061,328
1567619633,406.412,75.121,-16.1851,179.407,1.95557,-155.061,332
1567619633,406.412,75.2326,-16.2967,179.407,1.95557,-155.061,332
1567619633,406.412,75.2326,-16.2967,179.407,1.95557,-155.061,332
1567619633,406.412,75.2326,-16.2967,179.429,1.93359,-155.061,332
1567619633,406.412,75.2326,-16.2967,179.429,1.93359,-155.061,332
1567619633,406.412,75.2326,-16.2967,179.429,1.93359,-155.061,336
1567619633,406.412,75.2326,-16.2967,179.429,1.93359,-155.061,336
1567619633,406.412,75.2326,-16.2967,179.429,1.91162,-155.061,336
1567619633,406.301,75.2326,-16.4083,179.429,1.91162,-155.061,340
1567619633,406.301,75.2326,-16.4083,179.429,1.91162,-155.061,340
1567619633,406.301,75.2326,-16.4083,179.429,1.91162,-155.039,344
1567619633,406.301,75.2326,-16.4083,179.429,1.91162,-155.039,344
1567619633,406.301,75.2326,-16.4083,179.429,1.91162,-155.039,344
1567619633,406.301,75.2326,-16.4083,179.429,1.91162,-155.039,348
1567619633,406.301,75.2326,-16.4083,179.429,1.91162,-155.039,348
1567619633,406.301,75.2326,-16.4083,179.429,1.93359,-155.039,348
1567619633,406.301,75.121,-16.4083,179.429,1.93359,-155.039,348
1567619633,406.301,75.121,-16.2967,179.407,1.93359,-155.039,348
1567619633,406.412,75.121,-16.2967,179.407,1.93359,-155.039,348
1567619633,406.412,75.121,-16.2967,179.407,1.93359,-155.039,348
1567619634,406.412,75.121,-16.2967,179.407,1.93359,-155.039,348
1567619634,406.412,75.121,-16.2967,179.407,1.95557,-155.039,348
1567619634,406.412,75.121,-16.2967,179.407,1.95557,-155.039,348
1567619634,406.412,75.121,-16.2967,179.429,1.95557,-155.039,344
1567619634,406.412,75.121,-16.1851,179.429,1.95557,-155.039,344
1567619634,406.412,75.2326,-16.1851,179.429,1.95557,-155.039,344
1567619634,406.301,75.2326,-16.1851,179.429,1.95557,-155.039,344
1567619634,406.301,75.2326,-16.1851,179.429,1.95557,-155.039,344
1567619634,406.301,75.2326,-16.2967,179.429,1.95557,-155.039,344
1567619634,406.301,75.2326,-16.2967,179.429,1.95557,-155.039,344
1567619634,406.301,75.2326,-16.2967,179.451,1.95557,-155.039,344
1567619634,406.301,75.2326,-16.2967,179.451,1.95557,-155.039,344
1567619634,406.301,75.2326,-16.2967,179.451,1.95557,-155.039,344
1567619634,406.301,75.2326,-16.2967,179.451,1.95557,-155.017,344
1567619634,406.301,75.2326,-16.2967,179.429,1.95557,-155.017,344
1567619634,406.301,75.2326,-16.2967,179.429,1.95557,-155.017,344
1567619634,406.301,75.2326,-16.2967,179.429,1.95557,-155.017,348
1567619634,406.301,75.2326,-16.2967,179.429,1.95557,-155.017,348
1567619634,406.301,75.121,-16.2967,179.429,1.95557,-155.017,348
1567619634,406.301,75.121,-16.2967,179.429,1.95557,-155.017,348
1567619634,406.301,75.121,-16.2967,179.429,1.95557,-155.017,348
1567619634,406.301,75.121,-16.2967,179.429,1.95557,-155.017,348
1567619634,406.301,75.121,-16.2967,179.407,1.95557,-155.017,348
1567619634,406.301,75.121,-16.2967,179.407,1.95557,-155.017,348
1567619634,406.301,75.121,-16.2967,179.407,1.95557,-155.017,348
1567619634,406.412,75.121,-16.2967,179.407,1.95557,-155.017,348
1567619634,406.412,75.121,-16.2967,179.429,1.95557,-155.017,348
1567619634,406.412,75.121,-16.2967,179.429,1.95557,-155.017,344
1567619634,406.412,75.121,-16.2967,179.429,1.95557,-155.017,344
1567619634,406.412,75.121,-16.2967,179.429,1.95557,-155.017,344
1567619634,406.412,75.121,-16.2967,179.429,1.95557,-155.017,344
1567619634,406.412,75.121,-16.2967,179.429,1.97754,-155.017,344
1567619634,406.412,75.121,-16.2967,179.429,1.97754,-155.017,340
1567619634,406.412,75.121,-16.2967,179.429,1.95557,-155.017,340
1567619634,406.412,75.121,-16.2967,179.429,1.95557,-155.017,340
