time,x,y,z,ax,ay,az,q
1568024263,312.316,77.5767,-17.4129,-1.8457,1.53809,-157.214,244
1568024263,312.316,77.465,-17.4129,-1.8457,1.53809,-157.214,244
1568024263,312.316,77.465,-17.4129,-1.8457,1.53809,-157.214,244
1568024263,312.316,77.465,-17.4129,-1.8457,1.53809,-157.214,244
1568024263,312.316,77.465,-17.4129,-1.8457,1.53809,-157.214,244
1568024263,312.316,77.465,-17.4129,-1.8457,1.53809,-157.214,244
1568024263,312.316,77.465,-17.4129,-1.8457,1.51611,-157.214,244
1568024263,312.316,77.465,-17.4129,-1.8457,1.51611,-157.192,244
1568024263,312.316,77.465,-17.4129,-1.8457,1.51611,-157.192,244
1568024263,312.316,77.465,-17.4129,-1.8457,1.51611,-157.192,244
1568024263,312.316,77.465,-17.4129,-1.8457,1.51611,-157.214,244
1568024263,312.316,77.465,-17.4129,-1.8457,1.51611,-157.214,244
1568024263,312.316,77.465,-17.4129,-1.8457,1.51611,-157.214,244
1568024263,312.316,77.465,-17.4129,-1.8457,1.51611,-157.214,244
1568024263,312.316,77.465,-17.3013,-1.8457,1.51611,-157.214,244
1568024263,312.316,77.465,-17.3013,-1.8457,1.51611,-157.214,244
1568024263,312.316,77.465,-17.3013,-1.8457,1.51611,-157.214,244
1568024263,312.316,77.465,-17.3013,-1.8457,1.51611,-157.214,244
1568024263,312.316,77.465,-17.3013,-1.8457,1.51611,-157.214,244
1568024263,312.316,77.465,-17.3013,-1.8457,1.51611,-157.214,244
1568024263,312.316,77.465,-17.3013,-1.8457,1.51611,-157.214,244
1568024263,312.316,77.465,-17.4129,-1.8457,1.51611,-157.214,244
1568024264,312.427,77.465,-17.4129,-1.8457,1.51611,-157.214,244
1568024264,312.427,77.465,-17.4129,-1.8457,1.51611,-157.214,244
1568024264,312.427,77.465,-17.4129,-1.8457,1.51611,-157.214,244
1568024264,312.316,77.465,-17.4129,-1.8457,1.51611,-157.214,244
1568024264,312.316,77.465,-17.4129,-1.8457,1.51611,-157.214,244
1568024264,312.316,77.465,-17.4129,-1.8457,1.53809,-157.214,244
1568024264,312.316,77.465,-17.4129,-1.8457,1.53809,-157.214,244
1568024264,312.316,77.465,-17.4129,-1.8457,1.53809,-157.214,244
1568024264,312.316,77.465,-17.4129,-1.8457,1.53809,-157.214,244
1568024264,312.316,77.465,-17.4129,-1.8457,1.53809,-157.214,244
1568024264,312.316,77.465,-17.4129,-1.8457,1.53809,-157.214,244
1568024264,312.316,77.465,-17.4129,-1.8457,1.53809,-157.214,244
1568024264,312.316,77.465,-17.4129,-1.8457,1.53809,-157.214,244
1568024264,312.316,77.465,-17.4129,-1.8457,1.53809,-157.214,244
1568024264,312.316,77.465,-17.4129,-1.8457,1.53809,-157.214,244
1568024264,312.316,77.465,-17.4129,-1.8457,1.53809,-157.214,244
1568024264,312.316,77.465,-17.4129,-1.8457,1.53809,-157.214,244
1568024264,312.316,77.465,-17.4129,-1.8457,1.53809,-157.214,244
1568024264,312.316,77.465,-17.4129,-1.8457,1.53809,-157.214,244
1568024264,312.316,77.465,-17.4129,-1.8457,1.53809,-157.214,248
1568024264,312.316,77.465,-17.4129,-1.8457,1.53809,-157.214,248
1568024264,312.316,77.465,-17.4129,-1.8457,1.53809,-157.214,248
1568024264,312.316,77.465,-17.4129,-1.8457,1.53809,-157.214,248
1568024264,312.316,77.465,-17.4129,-1.8457,1.53809,-157.214,248
1568024264,312.316,77.465,-17.4129,-1.8457,1.56006,-157.214,248
1568024264,312.316,77.465,-17.4129,-1.8457,1.56006,-157.214,248
1568024264,312.316,77.465,-17.4129,-1.8457,1.56006,-157.214,248
1568024264,312.316,77.465,-17.4129,-1.8457,1.56006,-157.214,248
1568024264,312.316,77.5767,-17.4129,-1.82373,1.56006,-157.214,252
1568024264,312.316,77.5767,-17.4129,-1.82373,1.56006,-157.214,252
1568024264,312.316,77.5767,-17.5245,-1.82373,1.56006,-157.214,252
1568024264,312.316,77.5767,-17.5245,-1.82373,1.56006,-157.214,252
1568024264,312.316,77.5767,-17.5245,-1.82373,1.56006,-157.214,252
1568024264,312.316,77.5767,-17.5245,-1.82373,1.56006,-157.214,252
1568024264,312.316,77.5767,-17.5245,-1.82373,1.56006,-157.214,252
1568024264,312.316,77.5767,-17.5245,-1.82373,1.56006,-157.214,252
1568024264,312.316,77.5767,-17.5245,-1.8457,1.56006,-157.214,252
1568024264,312.316,77.5767,-17.5245,-1.8457,1.56006,-157.214,252
1568024264,312.316,77.465,-17.5245,-1.8457,1.56006,-157.214,252
1568024264,312.316,77.465,-17.5245,-1.8457,1.56006,-157.214,256
1568024264,312.316,77.465,-17.4129,-1.8457,1.56006,-157.214,256
1568024264,312.316,77.465,-17.4129,-1.8457,1.56006,-157.214,256
1568024264,312.316,77.465,-17.4129,-1.8457,1.56006,-157.214,256
1568024264,312.316,77.465,-17.4129,-1.8457,1.56006,-157.214,256
1568024264,312.316,77.465,-17.4129,-1.8457,1.56006,-157.214,256
1568024264,312.316,77.465,-17.4129,-1.8457,1.56006,-157.214,256
1568024264,312.316,77.465,-17.4129,-1.8457,1.56006,-157.214,256
1568024264,312.316,77.465,-17.4129,-1.8457,1.56006,-157.214,256
1568024264,312.316,77.465,-17.4129,-1.8457,1.56006,-157.214,256
1568024264,312.316,77.465,-17.4129,-1.8457,1.56006,-157.214,256
1568024264,312.316,77.465,-17.4129,-1.8457,1.56006,-157.214,256
1568024264,312.316,77.465,-17.4129,-1.8457,1.56006,-157.214,256
1568024264,312.316,77.465,-17.4129,-1.8457,1.56006,-157.214,256
1568024264,312.316,77.465,-17.4129,-1.8457,1.56006,-157.214,256
1568024264,312.316,77.465,-17.4129,-1.8457,1.56006,-157.214,256
1568024264,312.316,77.465,-17.4129,-1.8457,1.56006,-157.214,256
1568024264,312.316,77.465,-17.4129,-1.8457,1.53809,-157.214,256
1568024264,312.316,77.465,-17.4129,-1.8457,1.53809,-157.214,260
1568024264,312.316,77.465,-17.4129,-1.8457,1.53809,-157.214,260
1568024264,312.316,77.465,-17.4129,-1.8457,1.53809,-157.214,260
1568024264,312.316,77.465,-17.4129,-1.8457,1.53809,-157.214,260
1568024264,312.316,77.465,-17.4129,-1.8457,1.53809,-157.214,260
1568024264,312.316,77.465,-17.4129,-1.8457,1.53809,-157.214,260
1568024264,312.316,77.465,-17.4129,-1.8457,1.53809,-157.214,260
1568024264,312.316,77.465,-17.4129,-1.8457,1.53809,-157.214,260
1568024264,312.316,77.465,-17.4129,-1.8457,1.53809,-157.214,260
1568024264,312.316,77.465,-17.4129,-1.82373,1.53809,-157.214,260
1568024264,312.316,77.465,-17.4129,-1.82373,1.53809,-157.214,260
1568024264,312.316,77.465,-17.4129,-1.82373,1.56006,-157.214,260
1568024264,312.316,77.465,-17.4129,-1.82373,1.56006,-157.214,260
1568024264,312.316,77.465,-17.4129,-1.82373,1.56006,-157.214,260
1568024264,312.316,77.465,-17.4129,-1.82373,1.56006,-157.214,260
1568024264,312.316,77.465,-17.4129,-1.82373,1.56006,-157.214,260
1568024264,312.316,77.465,-17.4129,-1.82373,1.56006,-157.214,260
1568024264,312.316,77.465,-17.4129,-1.82373,1.56006,-157.214,260
1568024264,312.316,77.465,-17.4129,-1.82373,1.56006,-157.214,260
1568024264,312.316,77.465,-17.4129,-1.8457,1.56006,-157.214,260
1568024264,312.316,77.465,-17.4129,-1.8457,1.56006,-157.214,260
1568024264,312.316,77.465,-17.4129,-1.8457,1.53809,-157.214,260
1568024264,312.316,77.465,-17.4129,-1.8457,1.53809,-157.214,260
1568024264,312.316,77.465,-17.4129,-1.8457,1.53809,-157.214,260
1568024264,312.316,77.465,-17.4129,-1.8457,1.53809,-157.214,260
1568024264,312.316,77.465,-17.4129,-1.8457,1.53809,-157.214,256
1568024264,312.316,77.465,-17.4129,-1.8457,1.53809,-157.214,256
1568024264,312.316,77.465,-17.4129,-1.8457,1.53809,-157.214,256
1568024264,312.316,77.465,-17.4129,-1.8457,1.53809,-157.214,256
1568024264,312.316,77.465,-17.4129,-1.8457,1.53809,-157.214,256
1568024264,312.316,77.465,-17.4129,-1.8457,1.53809,-157.214,256
1568024264,312.316,77.465,-17.4129,-1.8457,1.53809,-157.214,256
1568024264,312.316,77.465,-17.4129,-1.8457,1.53809,-157.214,256
1568024264,312.316,77.465,-17.4129,-1.8457,1.53809,-157.214,260
1568024264,312.316,77.465,-17.4129,-1.8457,1.53809,-157.214,260
1568024264,312.316,77.465,-17.4129,-1.8457,1.53809,-157.214,260
1568024264,312.316,77.465,-17.4129,-1.8457,1.53809,-157.214,260
1568024264,312.316,77.465,-17.4129,-1.8457,1.53809,-157.214,260
1568024264,312.316,77.465,-17.4129,-1.8457,1.53809,-157.214,260
1568024264,312.316,77.465,-17.4129,-1.8457,1.53809,-157.214,260
1568024264,312.316,77.465,-17.4129,-1.8457,1.53809,-157.214,264
1568024264,312.316,77.465,-17.4129,-1.8457,1.53809,-157.214,264
1568024264,312.316,77.465,-17.4129,-1.8457,1.53809,-157.214,264
1568024265,312.316,77.465,-17.4129,-1.8457,1.53809,-157.214,264
1568024265,312.316,77.465,-17.4129,-1.8457,1.53809,-157.214,264
1568024265,312.316,77.465,-17.4129,-1.8457,1.53809,-157.214,264
1568024265,312.316,77.465,-17.4129,-1.8457,1.53809,-157.214,264
1568024265,312.316,77.465,-17.4129,-1.8457,1.53809,-157.214,264
1568024265,312.316,77.465,-17.4129,-1.82373,1.53809,-157.214,264
1568024265,312.316,77.465,-17.4129,-1.82373,1.53809,-157.214,264
1568024265,312.316,77.465,-17.4129,-1.8457,1.53809,-157.214,264
1568024265,312.316,77.465,-17.4129,-1.8457,1.53809,-157.214,264
1568024265,312.316,77.465,-17.4129,-1.8457,1.53809,-157.214,264
1568024265,312.316,77.465,-17.4129,-1.8457,1.53809,-157.214,264
1568024265,312.316,77.465,-17.4129,-1.8457,1.53809,-157.214,264
1568024265,312.316,77.465,-17.4129,-1.8457,1.53809,-157.214,264
1568024265,312.316,77.465,-17.4129,-1.8457,1.53809,-157.214,264
1568024265,312.316,77.465,-17.4129,-1.8457,1.53809,-157.214,264
1568024265,312.316,77.465,-17.4129,-1.8457,1.53809,-157.214,264
1568024265,312.316,77.465,-17.4129,-1.8457,1.53809,-157.214,264
1568024265,312.316,77.465,-17.4129,-1.8457,1.53809,-157.214,264
1568024265,312.316,77.465,-17.4129,-1.8457,1.53809,-157.214,264
1568024265,312.316,77.465,-17.4129,-1.8457,1.53809,-157.214,264
1568024265,312.316,77.465,-17.4129,-1.8457,1.53809,-157.214,264
1568024265,312.316,77.465,-17.4129,-1.8457,1.53809,-157.214,264
1568024265,312.316,77.465,-17.4129,-1.8457,1.53809,-157.214,264
1568024265,312.316,77.465,-17.4129,-1.8457,1.53809,-157.214,264
1568024265,312.316,77.465,-17.4129,-1.8457,1.53809,-157.214,264
1568024265,312.316,77.465,-17.4129,-1.8457,1.53809,-157.214,264
1568024265,312.316,77.465,-17.4129,-1.8457,1.53809,-157.214,264
1568024265,312.316,77.465,-17.4129,-1.8457,1.53809,-157.214,264
1568024265,312.316,77.465,-17.4129,-1.8457,1.53809,-157.214,264
1568024265,312.316,77.465,-17.4129,-1.8457,1.53809,-157.214,264
1568024265,312.316,77.465,-17.4129,-1.8457,1.53809,-157.214,260
1568024265,312.316,77.465,-17.4129,-1.8457,1.53809,-157.214,260
1568024265,312.316,77.465,-17.4129,-1.8457,1.53809,-157.214,260
1568024265,312.316,77.465,-17.4129,-1.8457,1.53809,-157.214,260
1568024265,312.316,77.465,-17.4129,-1.8457,1.53809,-157.214,260
1568024265,312.316,77.465,-17.4129,-1.8457,1.53809,-157.214,260
1568024265,312.316,77.465,-17.4129,-1.8457,1.53809,-157.214,260
1568024265,312.316,77.465,-17.4129,-1.8457,1.53809,-157.214,260
1568024265,312.316,77.465,-17.4129,-1.8457,1.53809,-157.214,260
1568024265,312.316,77.465,-17.4129,-1.8457,1.53809,-157.214,260
1568024265,312.316,77.465,-17.4129,-1.8457,1.53809,-157.214,260
1568024265,312.316,77.465,-17.4129,-1.8457,1.53809,-157.214,260
1568024265,312.316,77.465,-17.4129,-1.8457,1.53809,-157.214,260
1568024265,312.316,77.465,-17.4129,-1.8457,1.53809,-157.214,260
1568024265,312.316,77.465,-17.4129,-1.8457,1.53809,-157.214,260
1568024265,312.316,77.465,-17.4129,-1.8457,1.53809,-157.214,260
1568024265,312.316,77.465,-17.4129,-1.8457,1.53809,-157.214,260
1568024265,312.316,77.465,-17.4129,-1.8457,1.53809,-157.214,260
1568024265,312.316,77.465,-17.4129,-1.8457,1.53809,-157.214,260
1568024265,312.316,77.465,-17.4129,-1.8457,1.53809,-157.214,260
1568024265,312.316,77.465,-17.4129,-1.8457,1.53809,-157.214,260
1568024265,312.316,77.465,-17.4129,-1.8457,1.53809,-157.214,260
1568024265,312.316,77.465,-17.4129,-1.82373,1.53809,-157.214,260
1568024265,312.316,77.465,-17.4129,-1.82373,1.53809,-157.214,260
1568024265,312.316,77.5767,-17.4129,-1.82373,1.53809,-157.214,260
1568024265,312.316,77.5767,-17.4129,-1.82373,1.53809,-157.214,260
1568024265,312.316,77.5767,-17.4129,-1.82373,1.53809,-157.214,260
1568024265,312.316,77.5767,-17.4129,-1.82373,1.53809,-157.214,260
1568024265,312.316,77.5767,-17.4129,-1.82373,1.53809,-157.214,260
1568024265,312.316,77.5767,-17.4129,-1.82373,1.53809,-157.214,260
1568024265,312.316,77.5767,-17.4129,-1.82373,1.53809,-157.214,260
1568024265,312.316,77.5767,-17.4129,-1.82373,1.53809,-157.214,260
1568024265,312.316,77.5767,-17.4129,-1.82373,1.53809,-157.214,260
1568024265,312.316,77.465,-17.4129,-1.82373,1.53809,-157.214,260
1568024265,312.316,77.465,-17.4129,-1.82373,1.53809,-157.214,260
1568024265,312.316,77.465,-17.4129,-1.82373,1.53809,-157.214,260
1568024265,312.316,77.465,-17.4129,-1.8457,1.53809,-157.214,260
1568024265,312.316,77.465,-17.4129,-1.8457,1.53809,-157.214,260
1568024265,312.316,77.465,-17.4129,-1.8457,1.53809,-157.214,256
1568024265,312.316,77.465,-17.4129,-1.8457,1.53809,-157.214,256
1568024265,312.316,77.465,-17.4129,-1.8457,1.53809,-157.214,256
1568024265,312.316,77.465,-17.4129,-1.8457,1.53809,-157.214,256
1568024265,312.316,77.465,-17.4129,-1.8457,1.53809,-157.214,256
1568024265,312.316,77.465,-17.4129,-1.8457,1.53809,-157.214,256
1568024265,312.316,77.465,-17.4129,-1.8457,1.53809,-157.214,256
1568024265,312.316,77.465,-17.4129,-1.8457,1.53809,-157.192,256
1568024265,312.316,77.465,-17.4129,-1.8457,1.53809,-157.192,256
1568024265,312.316,77.465,-17.4129,-1.8457,1.53809,-157.192,256
1568024265,312.316,77.465,-17.4129,-1.8457,1.53809,-157.192,256
1568024265,312.316,77.465,-17.4129,-1.8457,1.53809,-157.192,256
1568024265,312.316,77.465,-17.4129,-1.8457,1.53809,-157.192,256
1568024265,312.316,77.465,-17.4129,-1.8457,1.53809,-157.192,256
1568024265,312.316,77.465,-17.4129,-1.8457,1.53809,-157.192,256
1568024265,312.316,77.465,-17.4129,-1.8457,1.53809,-157.192,256
1568024265,312.316,77.465,-17.4129,-1.8457,1.53809,-157.192,256
1568024265,312.316,77.465,-17.4129,-1.8457,1.53809,-157.192,256
1568024265,312.316,77.465,-17.4129,-1.8457,1.53809,-157.192,256
1568024265,312.316,77.465,-17.4129,-1.8457,1.53809,-157.192,256
1568024265,312.316,77.465,-17.4129,-1.8457,1.53809,-157.192,256
1568024265,312.316,77.465,-17.4129,-1.8457,1.53809,-157.192,256
1568024265,312.316,77.465,-17.4129,-1.8457,1.53809,-157.192,256
1568024265,312.316,77.465,-17.4129,-1.8457,1.53809,-157.192,260
1568024265,312.316,77.465,-17.4129,-1.8457,1.53809,-157.192,260
1568024265,312.316,77.465,-17.4129,-1.8457,1.53809,-157.192,260
1568024265,312.316,77.465,-17.4129,-1.8457,1.53809,-157.192,260
1568024265,312.316,77.465,-17.4129,-1.8457,1.53809,-157.192,260
1568024265,312.316,77.465,-17.4129,-1.8457,1.53809,-157.192,260
1568024265,312.316,77.465,-17.4129,-1.8457,1.53809,-157.192,260
1568024265,312.316,77.465,-17.4129,-1.8457,1.53809,-157.192,260
1568024265,312.316,77.465,-17.4129,-1.8457,1.53809,-157.192,256
1568024266,312.316,77.465,-17.4129,-1.8457,1.53809,-157.192,256
1568024266,312.316,77.465,-17.4129,-1.8457,1.53809,-157.192,256
1568024266,312.316,77.465,-17.4129,-1.8457,1.53809,-157.192,256
1568024266,312.316,77.465,-17.4129,-1.8457,1.53809,-157.192,256
1568024266,312.316,77.465,-17.4129,-1.8457,1.53809,-157.214,256
1568024266,312.316,77.465,-17.4129,-1.8457,1.53809,-157.214,256
1568024266,312.316,77.465,-17.4129,-1.8457,1.53809,-157.214,256
1568024266,312.316,77.465,-17.4129,-1.8457,1.53809,-157.214,256
1568024266,312.316,77.465,-17.4129,-1.8457,1.53809,-157.214,256
1568024266,312.316,77.465,-17.4129,-1.8457,1.53809,-157.214,256
1568024266,312.316,77.465,-17.4129,-1.8457,1.53809,-157.214,256
1568024266,312.316,77.5767,-17.4129,-1.8457,1.53809,-157.214,256
1568024266,312.316,77.5767,-17.4129,-1.8457,1.53809,-157.214,252
1568024266,312.316,77.5767,-17.4129,-1.8457,1.53809,-157.214,252
1568024266,312.316,77.5767,-17.4129,-1.8457,1.53809,-157.214,252
1568024266,312.316,77.5767,-17.4129,-1.8457,1.53809,-157.214,252
1568024266,312.316,77.5767,-17.4129,-1.8457,1.53809,-157.214,252
1568024266,312.316,77.5767,-17.4129,-1.8457,1.53809,-157.214,248
1568024266,312.316,77.5767,-17.4129,-1.8457,1.56006,-157.214,248
1568024266,312.316,77.5767,-17.4129,-1.8457,1.56006,-157.214,248
1568024266,312.316,77.5767,-17.4129,-1.8457,1.56006,-157.214,248
1568024266,312.316,77.5767,-17.4129,-1.8457,1.56006,-157.214,248
1568024266,312.316,77.5767,-17.4129,-1.8457,1.56006,-157.214,244
1568024266,312.316,77.5767,-17.4129,-1.8457,1.53809,-157.214,244
1568024266,312.316,77.5767,-17.4129,-1.8457,1.53809,-157.214,244
1568024266,312.316,77.5767,-17.4129,-1.8457,1.53809,-157.214,244
1568024266,312.316,77.5767,-17.4129,-1.8457,1.53809,-157.214,244
1568024266,312.316,77.5767,-17.4129,-1.8457,1.53809,-157.214,244
1568024266,312.316,77.5767,-17.4129,-1.8457,1.53809,-157.214,244
1568024266,312.316,77.465,-17.4129,-1.8457,1.53809,-157.214,244
1568024266,312.316,77.465,-17.4129,-1.82373,1.53809,-157.214,244
1568024266,312.316,77.465,-17.4129,-1.82373,1.53809,-157.214,248
1568024266,312.316,77.465,-17.4129,-1.82373,1.53809,-157.214,248
1568024266,312.316,77.5767,-17.4129,-1.82373,1.53809,-157.214,248
1568024266,312.316,77.5767,-17.4129,-1.82373,1.53809,-157.214,248
1568024266,312.316,77.5767,-17.4129,-1.82373,1.53809,-157.214,248
1568024266,312.316,77.5767,-17.4129,-1.82373,1.53809,-157.214,248
1568024266,312.316,77.5767,-17.4129,-1.82373,1.53809,-157.192,248
1568024266,312.316,77.5767,-17.4129,-1.82373,1.53809,-157.192,248
1568024266,312.316,77.5767,-17.4129,-1.82373,1.53809,-157.192,248
1568024266,312.316,77.5767,-17.4129,-1.82373,1.53809,-157.192,252
1568024266,312.316,77.465,-17.4129,-1.82373,1.53809,-157.192,252
1568024266,312.316,77.465,-17.4129,-1.82373,1.53809,-157.192,252
1568024266,312.316,77.465,-17.4129,-1.8457,1.53809,-157.192,252
1568024266,312.316,77.465,-17.4129,-1.8457,1.53809,-157.192,252
1568024266,312.316,77.465,-17.4129,-1.8457,1.53809,-157.192,252
1568024266,312.316,77.465,-17.4129,-1.8457,1.53809,-157.192,256
1568024266,312.316,77.465,-17.4129,-1.8457,1.53809,-157.192,256
1568024266,312.316,77.465,-17.4129,-1.8457,1.53809,-157.192,256
1568024266,312.316,77.465,-17.4129,-1.8457,1.53809,-157.192,256
1568024266,312.316,77.465,-17.4129,-1.8457,1.53809,-157.192,256
1568024266,312.316,77.465,-17.4129,-1.8457,1.53809,-157.192,256
1568024266,312.316,77.465,-17.4129,-1.8457,1.53809,-157.192,256
1568024266,312.316,77.465,-17.4129,-1.8457,1.53809,-157.192,256
1568024266,312.316,77.465,-17.4129,-1.8457,1.53809,-157.192,256
1568024266,312.316,77.465,-17.4129,-1.8457,1.53809,-157.192,256
1568024266,312.316,77.465,-17.4129,-1.8457,1.53809,-157.192,256
1568024266,312.316,77.465,-17.4129,-1.8457,1.53809,-157.192,256
1568024266,312.316,77.465,-17.4129,-1.8457,1.53809,-157.192,256
1568024266,312.316,77.465,-17.4129,-1.8457,1.53809,-157.192,256
1568024266,312.316,77.465,-17.4129,-1.8457,1.53809,-157.192,260
1568024266,312.316,77.465,-17.4129,-1.8457,1.53809,-157.192,260
1568024266,312.316,77.465,-17.4129,-1.8457,1.53809,-157.192,260
1568024266,312.316,77.465,-17.4129,-1.8457,1.53809,-157.192,260
1568024266,312.316,77.465,-17.4129,-1.8457,1.53809,-157.192,260
1568024266,312.316,77.465,-17.4129,-1.8457,1.53809,-157.192,260
1568024266,312.316,77.465,-17.4129,-1.8457,1.53809,-157.192,260
1568024266,312.316,77.465,-17.4129,-1.8457,1.53809,-157.192,260
1568024266,312.316,77.465,-17.4129,-1.8457,1.53809,-157.192,260
1568024266,312.316,77.465,-17.4129,-1.8457,1.53809,-157.192,260
1568024266,312.316,77.465,-17.4129,-1.8457,1.53809,-157.192,260
1568024266,312.316,77.465,-17.4129,-1.8457,1.53809,-157.192,260
1568024266,312.316,77.465,-17.4129,-1.8457,1.53809,-157.192,260
1568024266,312.316,77.465,-17.4129,-1.8457,1.53809,-157.214,256
1568024266,312.316,77.465,-17.4129,-1.8457,1.53809,-157.214,256
1568024266,312.316,77.465,-17.4129,-1.82373,1.53809,-157.214,256
1568024266,312.316,77.465,-17.4129,-1.82373,1.53809,-157.214,256
1568024266,312.316,77.465,-17.4129,-1.82373,1.53809,-157.214,256
1568024266,312.316,77.465,-17.4129,-1.82373,1.53809,-157.214,256
1568024266,312.316,77.465,-17.4129,-1.82373,1.53809,-157.214,256
1568024266,312.316,77.465,-17.4129,-1.82373,1.53809,-157.214,256
1568024266,312.316,77.465,-17.4129,-1.82373,1.53809,-157.214,256
1568024266,312.316,77.465,-17.4129,-1.82373,1.53809,-157.214,256
1568024266,312.316,77.465,-17.4129,-1.82373,1.53809,-157.214,256
1568024266,312.316,77.5767,-17.4129,-1.82373,1.53809,-157.214,256
1568024266,312.316,77.5767,-17.4129,-1.82373,1.53809,-157.214,260
1568024266,312.316,77.5767,-17.4129,-1.82373,1.53809,-157.214,260
1568024266,312.316,77.5767,-17.4129,-1.82373,1.53809,-157.214,260
1568024266,312.316,77.5767,-17.4129,-1.82373,1.53809,-157.214,260
1568024266,312.316,77.5767,-17.4129,-1.82373,1.53809,-157.214,260
1568024266,312.316,77.5767,-17.4129,-1.82373,1.53809,-157.214,260
1568024266,312.316,77.5767,-17.4129,-1.82373,1.53809,-157.214,260
1568024266,312.316,77.465,-17.4129,-1.82373,1.53809,-157.214,260
1568024266,312.316,77.465,-17.4129,-1.8457,1.53809,-157.214,260
1568024266,312.316,77.465,-17.4129,-1.8457,1.53809,-157.214,260
1568024266,312.316,77.465,-17.4129,-1.8457,1.53809,-157.214,260
1568024266,312.316,77.465,-17.4129,-1.8457,1.53809,-157.214,260
1568024266,312.316,77.465,-17.4129,-1.8457,1.53809,-157.214,260
1568024266,312.316,77.465,-17.4129,-1.8457,1.53809,-157.214,260
1568024266,312.316,77.465,-17.4129,-1.8457,1.53809,-157.214,260
1568024267,312.316,77.465,-17.4129,-1.8457,1.53809,-157.214,260
1568024267,312.316,77.465,-17.4129,-1.8457,1.53809,-157.214,260
1568024267,312.316,77.5767,-17.4129,-1.82373,1.53809,-157.214,260
1568024267,312.316,77.5767,-17.4129,-1.82373,1.53809,-157.214,260
1568024267,312.316,77.5767,-17.4129,-1.82373,1.53809,-157.214,256
1568024267,312.316,77.5767,-17.4129,-1.82373,1.53809,-157.214,256
1568024267,312.316,77.5767,-17.4129,-1.82373,1.53809,-157.214,256
1568024267,312.316,77.5767,-17.4129,-1.82373,1.53809,-157.214,256
1568024267,312.316,77.5767,-17.4129,-1.82373,1.53809,-157.214,256
1568024267,312.316,77.5767,-17.4129,-1.82373,1.53809,-157.214,256
1568024267,312.316,77.5767,-17.4129,-1.82373,1.53809,-157.214,256
1568024267,312.316,77.5767,-17.4129,-1.82373,1.53809,-157.214,256
1568024267,312.316,77.5767,-17.4129,-1.82373,1.53809,-157.214,256
1568024267,312.316,77.5767,-17.4129,-1.82373,1.53809,-157.214,256
1568024267,312.316,77.5767,-17.4129,-1.82373,1.53809,-157.214,256
1568024267,312.316,77.5767,-17.4129,-1.82373,1.53809,-157.214,256
1568024267,312.316,77.5767,-17.4129,-1.82373,1.53809,-157.214,256
1568024267,312.316,77.5767,-17.4129,-1.82373,1.53809,-157.214,256
1568024267,312.316,77.5767,-17.4129,-1.82373,1.53809,-157.214,256
1568024267,312.316,77.5767,-17.4129,-1.82373,1.53809,-157.214,256
1568024267,312.316,77.5767,-17.4129,-1.82373,1.53809,-157.214,256
1568024267,312.316,77.5767,-17.4129,-1.82373,1.53809,-157.214,256
1568024267,312.316,77.465,-17.4129,-1.82373,1.53809,-157.214,256
1568024267,312.316,77.465,-17.4129,-1.82373,1.53809,-157.214,256
1568024267,312.316,77.465,-17.4129,-1.82373,1.53809,-157.214,256
1568024267,312.316,77.465,-17.4129,-1.82373,1.53809,-157.214,256
1568024267,312.316,77.465,-17.4129,-1.82373,1.53809,-157.214,256
1568024267,312.316,77.5767,-17.4129,-1.82373,1.53809,-157.214,252
1568024267,312.316,77.5767,-17.4129,-1.82373,1.53809,-157.214,252
1568024267,312.316,77.5767,-17.4129,-1.82373,1.53809,-157.214,252
1568024267,312.316,77.5767,-17.4129,-1.82373,1.53809,-157.214,252
1568024267,312.316,77.5767,-17.4129,-1.82373,1.53809,-157.214,252
1568024267,312.316,77.5767,-17.4129,-1.82373,1.51611,-157.214,252
1568024267,312.316,77.5767,-17.4129,-1.82373,1.51611,-157.214,252
1568024267,312.316,77.5767,-17.4129,-1.82373,1.51611,-157.214,252
1568024267,312.316,77.5767,-17.3013,-1.82373,1.51611,-157.214,252
1568024267,312.316,77.5767,-17.3013,-1.82373,1.51611,-157.214,252
1568024267,312.316,77.5767,-17.3013,-1.82373,1.51611,-157.214,252
1568024267,312.316,77.5767,-17.3013,-1.82373,1.51611,-157.214,252
1568024267,312.316,77.5767,-17.3013,-1.82373,1.51611,-157.214,252
1568024267,312.316,77.5767,-17.3013,-1.82373,1.51611,-157.214,252
1568024267,312.316,77.5767,-17.3013,-1.82373,1.51611,-157.214,252
1568024267,312.316,77.5767,-17.3013,-1.82373,1.51611,-157.214,252
1568024267,312.316,77.5767,-17.3013,-1.82373,1.51611,-157.214,252
1568024267,312.316,77.5767,-17.3013,-1.82373,1.51611,-157.214,252
1568024267,312.316,77.5767,-17.3013,-1.82373,1.51611,-157.214,252
1568024267,312.316,77.5767,-17.4129,-1.82373,1.51611,-157.214,252
1568024267,312.316,77.5767,-17.4129,-1.82373,1.51611,-157.214,252
1568024267,312.316,77.5767,-17.4129,-1.82373,1.51611,-157.214,252
1568024267,312.316,77.5767,-17.4129,-1.82373,1.51611,-157.214,252
1568024267,312.316,77.5767,-17.4129,-1.82373,1.51611,-157.214,252
1568024267,312.316,77.5767,-17.4129,-1.82373,1.51611,-157.214,252
1568024267,312.316,77.5767,-17.4129,-1.82373,1.51611,-157.214,256
1568024267,312.316,77.5767,-17.4129,-1.82373,1.51611,-157.214,256
1568024267,312.316,77.5767,-17.4129,-1.82373,1.53809,-157.214,256
1568024267,312.316,77.5767,-17.4129,-1.82373,1.53809,-157.214,256
1568024267,312.316,77.5767,-17.4129,-1.82373,1.53809,-157.214,256
1568024267,312.316,77.5767,-17.4129,-1.82373,1.51611,-157.214,256
1568024267,312.316,77.5767,-17.4129,-1.82373,1.51611,-157.214,256
1568024267,312.316,77.5767,-17.4129,-1.82373,1.51611,-157.214,260
1568024267,312.316,77.5767,-17.4129,-1.82373,1.51611,-157.214,260
1568024267,312.316,77.5767,-17.4129,-1.82373,1.51611,-157.214,260
1568024267,312.316,77.5767,-17.4129,-1.82373,1.51611,-157.214,260
1568024267,312.316,77.5767,-17.4129,-1.82373,1.53809,-157.214,260
1568024267,312.316,77.5767,-17.4129,-1.82373,1.53809,-157.214,260
1568024267,312.316,77.5767,-17.4129,-1.82373,1.53809,-157.214,260
1568024267,312.316,77.5767,-17.4129,-1.82373,1.53809,-157.214,260
1568024267,312.316,77.465,-17.4129,-1.82373,1.53809,-157.214,256
1568024267,312.316,77.465,-17.4129,-1.8457,1.53809,-157.214,256
1568024267,312.316,77.465,-17.4129,-1.8457,1.53809,-157.214,256
1568024267,312.316,77.465,-17.4129,-1.8457,1.53809,-157.214,256
1568024267,312.316,77.465,-17.4129,-1.8457,1.53809,-157.214,256
1568024267,312.316,77.465,-17.4129,-1.8457,1.53809,-157.214,256
1568024267,312.316,77.465,-17.4129,-1.8457,1.53809,-157.214,256
1568024267,312.316,77.465,-17.4129,-1.8457,1.53809,-157.214,256
1568024267,312.316,77.465,-17.4129,-1.8457,1.53809,-157.214,256
1568024267,312.316,77.465,-17.4129,-1.8457,1.53809,-157.214,256
1568024267,312.316,77.465,-17.4129,-1.8457,1.53809,-157.214,252
1568024267,312.316,77.465,-17.4129,-1.8457,1.53809,-157.214,252
1568024267,312.316,77.465,-17.4129,-1.8457,1.53809,-157.214,252
1568024267,312.316,77.465,-17.4129,-1.8457,1.53809,-157.214,256
1568024267,312.316,77.465,-17.4129,-1.8457,1.53809,-157.214,256
1568024267,312.316,77.465,-17.4129,-1.8457,1.53809,-157.214,256
1568024267,312.316,77.465,-17.4129,-1.8457,1.53809,-157.214,256
1568024267,312.316,77.465,-17.4129,-1.8457,1.53809,-157.214,256
1568024267,312.316,77.465,-17.4129,-1.8457,1.53809,-157.214,256
1568024267,312.316,77.465,-17.4129,-1.8457,1.53809,-157.214,256
1568024267,312.316,77.465,-17.4129,-1.8457,1.53809,-157.214,256
1568024267,312.316,77.465,-17.4129,-1.8457,1.53809,-157.214,256
1568024267,312.316,77.465,-17.4129,-1.8457,1.53809,-157.214,256
1568024267,312.316,77.465,-17.4129,-1.8457,1.53809,-157.214,256
1568024267,312.316,77.465,-17.4129,-1.8457,1.53809,-157.214,256
1568024267,312.316,77.465,-17.4129,-1.8457,1.53809,-157.214,256
1568024267,312.316,77.465,-17.4129,-1.8457,1.53809,-157.214,256
1568024267,312.316,77.465,-17.4129,-1.8457,1.53809,-157.214,256
1568024267,312.316,77.465,-17.4129,-1.8457,1.53809,-157.214,256
1568024267,312.316,77.465,-17.4129,-1.8457,1.53809,-157.214,260
1568024267,312.316,77.465,-17.4129,-1.8457,1.53809,-157.214,260
1568024267,312.316,77.465,-17.4129,-1.8457,1.53809,-157.214,260
1568024267,312.316,77.465,-17.4129,-1.8457,1.53809,-157.214,260
1568024268,312.316,77.465,-17.4129,-1.8457,1.53809,-157.214,260
1568024268,312.316,77.465,-17.4129,-1.8457,1.53809,-157.214,260
1568024268,312.316,77.465,-17.4129,-1.8457,1.53809,-157.214,260
1568024268,312.316,77.465,-17.4129,-1.8457,1.53809,-157.214,260
1568024268,312.316,77.465,-17.4129,-1.8457,1.53809,-157.214,260
1568024268,312.316,77.465,-17.4129,-1.8457,1.53809,-157.214,260
1568024268,312.316,77.465,-17.4129,-1.8457,1.53809,-157.214,260
1568024268,312.316,77.465,-17.4129,-1.8457,1.53809,-157.214,264
1568024268,312.316,77.465,-17.4129,-1.8457,1.53809,-157.214,264
1568024268,312.316,77.465,-17.4129,-1.8457,1.53809,-157.214,264
1568024268,312.316,77.465,-17.4129,-1.8457,1.53809,-157.214,264
1568024268,312.316,77.465,-17.4129,-1.8457,1.56006,-157.214,264
1568024268,312.316,77.465,-17.4129,-1.8457,1.56006,-157.214,264
1568024268,312.316,77.465,-17.4129,-1.8457,1.56006,-157.214,264
1568024268,312.316,77.465,-17.4129,-1.8457,1.56006,-157.214,264
1568024268,312.316,77.465,-17.4129,-1.8457,1.56006,-157.192,264
1568024268,312.316,77.465,-17.4129,-1.8457,1.56006,-157.192,264
1568024268,312.316,77.465,-17.5245,-1.8457,1.56006,-157.192,264
1568024268,312.316,77.465,-17.5245,-1.8457,1.56006,-157.192,264
1568024268,312.316,77.465,-17.5245,-1.8457,1.56006,-157.214,264
1568024268,312.316,77.465,-17.5245,-1.8457,1.56006,-157.214,264
1568024268,312.316,77.465,-17.5245,-1.8457,1.56006,-157.214,264
1568024268,312.316,77.465,-17.5245,-1.8457,1.56006,-157.214,264
1568024268,312.316,77.465,-17.5245,-1.8457,1.56006,-157.214,264
1568024268,312.316,77.465,-17.5245,-1.8457,1.56006,-157.214,264
1568024268,312.316,77.465,-17.4129,-1.8457,1.56006,-157.214,264
1568024268,312.316,77.465,-17.4129,-1.8457,1.56006,-157.214,264
1568024268,312.316,77.465,-17.4129,-1.8457,1.53809,-157.214,264
1568024268,312.316,77.465,-17.4129,-1.8457,1.53809,-157.214,264
1568024268,312.316,77.465,-17.4129,-1.8457,1.53809,-157.214,264
1568024268,312.316,77.465,-17.4129,-1.8457,1.53809,-157.214,264
1568024268,312.316,77.465,-17.4129,-1.8457,1.53809,-157.214,264
1568024268,312.316,77.465,-17.4129,-1.8457,1.53809,-157.214,264
1568024268,312.316,77.465,-17.4129,-1.8457,1.53809,-157.214,264
1568024268,312.316,77.465,-17.4129,-1.8457,1.53809,-157.214,264
1568024268,312.316,77.465,-17.4129,-1.8457,1.53809,-157.214,264
1568024268,312.316,77.465,-17.4129,-1.8457,1.56006,-157.214,264
1568024268,312.316,77.465,-17.4129,-1.8457,1.56006,-157.214,264
1568024268,312.316,77.465,-17.4129,-1.8457,1.56006,-157.214,264
1568024268,312.316,77.465,-17.4129,-1.8457,1.56006,-157.214,260
1568024268,312.316,77.465,-17.5245,-1.8457,1.56006,-157.214,260
1568024268,312.316,77.465,-17.5245,-1.8457,1.56006,-157.214,260
1568024268,312.316,77.465,-17.5245,-1.8457,1.56006,-157.214,260
1568024268,312.316,77.465,-17.5245,-1.8457,1.56006,-157.214,260
1568024268,312.316,77.465,-17.5245,-1.8457,1.56006,-157.214,256
1568024268,312.316,77.465,-17.5245,-1.8457,1.56006,-157.214,256
1568024268,312.316,77.465,-17.5245,-1.8457,1.56006,-157.214,256
1568024268,312.316,77.465,-17.5245,-1.8457,1.56006,-157.214,256
1568024268,312.316,77.465,-17.5245,-1.8457,1.56006,-157.214,256
1568024268,312.316,77.465,-17.5245,-1.8457,1.56006,-157.214,256
1568024268,312.316,77.465,-17.5245,-1.8457,1.56006,-157.214,256
1568024268,312.316,77.465,-17.5245,-1.8457,1.56006,-157.214,256
1568024268,312.316,77.465,-17.5245,-1.8457,1.56006,-157.214,256
1568024268,312.316,77.465,-17.5245,-1.8457,1.56006,-157.214,256
1568024268,312.316,77.465,-17.5245,-1.8457,1.56006,-157.214,256
1568024268,312.316,77.465,-17.5245,-1.8457,1.56006,-157.214,256
1568024268,312.316,77.465,-17.5245,-1.8457,1.56006,-157.214,256
1568024268,312.316,77.465,-17.5245,-1.8457,1.56006,-157.214,256
1568024268,312.316,77.465,-17.5245,-1.8457,1.56006,-157.214,256
1568024268,312.316,77.465,-17.5245,-1.8457,1.56006,-157.214,256
1568024268,312.316,77.465,-17.5245,-1.8457,1.56006,-157.214,256
1568024268,312.316,77.465,-17.5245,-1.8457,1.56006,-157.214,256
1568024268,312.316,77.465,-17.5245,-1.8457,1.56006,-157.214,256
1568024268,312.316,77.465,-17.4129,-1.8457,1.56006,-157.214,256
1568024268,312.316,77.465,-17.4129,-1.8457,1.56006,-157.214,256
1568024268,312.316,77.465,-17.4129,-1.8457,1.56006,-157.214,256
1568024268,312.316,77.465,-17.4129,-1.8457,1.56006,-157.214,256
1568024268,312.316,77.465,-17.4129,-1.8457,1.56006,-157.192,256
1568024268,312.316,77.465,-17.4129,-1.8457,1.56006,-157.192,256
1568024268,312.316,77.465,-17.4129,-1.8457,1.56006,-157.192,256
1568024268,312.316,77.465,-17.4129,-1.8457,1.56006,-157.192,256
1568024268,312.316,77.465,-17.4129,-1.8457,1.56006,-157.192,256
1568024268,312.316,77.465,-17.4129,-1.82373,1.56006,-157.192,256
1568024268,312.316,77.465,-17.4129,-1.82373,1.53809,-157.192,256
1568024268,312.316,77.5767,-17.4129,-1.82373,1.53809,-157.192,256
1568024268,312.316,77.5767,-17.4129,-1.82373,1.53809,-157.192,256
1568024268,312.316,77.5767,-17.4129,-1.82373,1.53809,-157.192,256
1568024268,312.316,77.5767,-17.4129,-1.82373,1.53809,-157.192,256
1568024276,297.024,93.8733,-17.5245,-1.93359,1.34033,-156.599,256
1568024276,297.024,93.8733,-17.5245,-1.93359,1.34033,-156.599,256
1568024276,297.024,93.8733,-17.5245,-1.93359,1.34033,-156.599,256
1568024276,297.024,93.8733,-17.5245,-1.93359,1.34033,-156.599,256
1568024276,297.024,93.8733,-17.5245,-1.91162,1.34033,-156.599,256
1568024276,297.024,93.8733,-17.5245,-1.91162,1.34033,-156.599,256
1568024276,297.024,93.8733,-17.5245,-1.91162,1.31836,-156.599,252
1568024276,297.024,93.8733,-17.5245,-1.91162,1.31836,-156.599,252
1568024276,297.024,93.8733,-17.5245,-1.91162,1.31836,-156.599,252
1568024276,297.024,93.985,-17.5245,-1.91162,1.31836,-156.599,252
1568024276,297.024,93.985,-17.5245,-1.91162,1.31836,-156.599,252
1568024276,297.024,93.985,-17.5245,-1.91162,1.31836,-156.599,252
1568024276,297.024,93.985,-17.5245,-1.91162,1.31836,-156.599,252
1568024276,297.024,93.985,-17.5245,-1.91162,1.31836,-156.599,252
1568024277,297.024,93.985,-17.5245,-1.91162,1.31836,-156.599,252
1568024277,297.024,93.985,-17.5245,-1.91162,1.31836,-156.599,252
1568024277,297.024,93.985,-17.5245,-1.91162,1.31836,-156.599,252
1568024277,297.024,93.985,-17.5245,-1.91162,1.31836,-156.599,252
1568024277,297.024,93.985,-17.5245,-1.91162,1.31836,-156.599,252
1568024277,297.024,93.985,-17.5245,-1.91162,1.31836,-156.599,252
1568024277,297.024,93.985,-17.5245,-1.91162,1.31836,-156.599,252
1568024277,297.024,93.985,-17.5245,-1.91162,1.31836,-156.599,252
1568024277,297.024,93.985,-17.5245,-1.91162,1.31836,-156.599,252
1568024277,297.024,93.985,-17.5245,-1.91162,1.31836,-156.599,252
1568024277,297.024,93.985,-17.5245,-1.91162,1.31836,-156.599,252
1568024277,297.024,93.985,-17.5245,-1.91162,1.31836,-156.599,252
1568024277,297.024,93.985,-17.5245,-1.91162,1.31836,-156.599,252
1568024277,297.024,93.985,-17.5245,-1.91162,1.31836,-156.599,252
1568024277,297.024,93.985,-17.5245,-1.91162,1.31836,-156.599,252
1568024277,297.024,93.985,-17.5245,-1.91162,1.31836,-156.599,252
1568024277,297.024,93.985,-17.5245,-1.91162,1.31836,-156.599,252
1568024277,297.024,93.985,-17.5245,-1.91162,1.31836,-156.599,252
1568024277,297.024,93.985,-17.5245,-1.88965,1.31836,-156.599,252
1568024277,296.912,93.985,-17.5245,-1.88965,1.31836,-156.599,252
1568024277,296.912,93.985,-17.5245,-1.88965,1.31836,-156.599,252
1568024277,296.912,93.985,-17.5245,-1.88965,1.31836,-156.599,252
1568024277,296.912,93.985,-17.5245,-1.88965,1.31836,-156.599,252
1568024277,296.912,93.985,-17.5245,-1.88965,1.31836,-156.599,252
1568024277,296.912,93.985,-17.5245,-1.88965,1.31836,-156.599,252
1568024277,296.912,93.985,-17.5245,-1.88965,1.31836,-156.599,252
1568024277,296.912,93.985,-17.5245,-1.88965,1.31836,-156.599,252
1568024277,296.912,93.985,-17.6361,-1.88965,1.34033,-156.599,252
1568024277,296.912,93.985,-17.6361,-1.88965,1.34033,-156.621,252
1568024277,296.912,93.985,-17.6361,-1.88965,1.34033,-156.621,252
1568024277,296.912,93.985,-17.6361,-1.88965,1.34033,-156.621,252
1568024277,296.912,93.985,-17.6361,-1.88965,1.34033,-156.621,252
1568024277,296.912,93.985,-17.5245,-1.88965,1.31836,-156.621,252
1568024277,296.912,93.985,-17.5245,-1.88965,1.31836,-156.621,252
1568024277,296.912,93.985,-17.5245,-1.88965,1.31836,-156.621,252
1568024277,296.912,93.985,-17.5245,-1.88965,1.31836,-156.621,252
1568024277,296.912,93.985,-17.5245,-1.91162,1.31836,-156.621,252
1568024277,296.912,93.985,-17.5245,-1.91162,1.34033,-156.621,252
1568024277,296.912,93.985,-17.5245,-1.91162,1.34033,-156.599,252
1568024277,296.912,93.985,-17.5245,-1.91162,1.34033,-156.599,252
1568024277,296.912,93.985,-17.5245,-1.91162,1.34033,-156.599,252
1568024277,296.912,93.985,-17.5245,-1.91162,1.34033,-156.599,252
1568024277,296.912,93.985,-17.5245,-1.91162,1.34033,-156.599,252
1568024277,296.912,93.985,-17.6361,-1.91162,1.34033,-156.599,252
1568024277,296.912,93.985,-17.6361,-1.91162,1.34033,-156.621,252
1568024277,296.912,93.985,-17.6361,-1.91162,1.34033,-156.621,252
1568024277,296.912,93.985,-17.6361,-1.91162,1.34033,-156.621,256
1568024277,296.912,93.985,-17.6361,-1.91162,1.34033,-156.621,256
1568024277,296.912,93.985,-17.6361,-1.91162,1.34033,-156.621,256
1568024277,297.024,93.985,-17.6361,-1.91162,1.34033,-156.621,256
1568024277,297.024,93.985,-17.6361,-1.91162,1.34033,-156.621,256
1568024277,297.024,93.985,-17.6361,-1.91162,1.34033,-156.621,256
1568024277,297.024,93.985,-17.6361,-1.91162,1.34033,-156.621,256
1568024277,297.024,93.985,-17.6361,-1.91162,1.34033,-156.621,256
1568024277,297.024,93.985,-17.6361,-1.91162,1.34033,-156.621,256
1568024277,297.024,93.985,-17.6361,-1.91162,1.34033,-156.621,256
1568024277,297.024,93.985,-17.6361,-1.91162,1.34033,-156.621,256
1568024277,297.024,93.985,-17.6361,-1.91162,1.34033,-156.621,256
1568024277,297.024,93.985,-17.6361,-1.91162,1.34033,-156.621,256
1568024277,297.024,93.985,-17.5245,-1.91162,1.34033,-156.599,256
1568024277,297.024,93.985,-17.5245,-1.88965,1.34033,-156.599,256
1568024277,297.024,93.985,-17.5245,-1.88965,1.34033,-156.599,256
1568024277,296.912,93.985,-17.5245,-1.88965,1.34033,-156.599,256
1568024277,296.912,93.985,-17.5245,-1.88965,1.34033,-156.599,252
1568024277,296.912,93.985,-17.5245,-1.88965,1.34033,-156.599,252
1568024277,296.912,93.985,-17.6361,-1.88965,1.34033,-156.599,256
1568024277,296.912,93.985,-17.6361,-1.88965,1.34033,-156.599,256
1568024277,296.912,93.985,-17.6361,-1.88965,1.34033,-156.599,256
1568024277,296.912,93.985,-17.6361,-1.88965,1.34033,-156.599,256
1568024277,296.912,93.985,-17.6361,-1.88965,1.34033,-156.599,256
1568024277,296.912,93.985,-17.6361,-1.88965,1.34033,-156.599,256
1568024277,296.912,93.985,-17.6361,-1.88965,1.34033,-156.599,256
1568024277,296.912,93.985,-17.6361,-1.88965,1.34033,-156.599,256
1568024277,296.912,93.985,-17.6361,-1.88965,1.34033,-156.599,256
1568024277,296.912,93.985,-17.6361,-1.88965,1.34033,-156.599,256
1568024277,296.912,93.985,-17.6361,-1.88965,1.34033,-156.599,256
1568024277,296.912,93.985,-17.6361,-1.88965,1.34033,-156.599,256
1568024277,296.912,93.985,-17.6361,-1.88965,1.34033,-156.599,256
1568024277,296.912,93.985,-17.6361,-1.88965,1.34033,-156.599,256
1568024277,296.912,93.985,-17.6361,-1.88965,1.34033,-156.599,256
1568024277,296.912,93.985,-17.6361,-1.88965,1.34033,-156.599,252
1568024277,296.912,93.985,-17.6361,-1.88965,1.34033,-156.599,252
1568024277,296.912,93.985,-17.6361,-1.88965,1.34033,-156.599,252
1568024277,296.912,93.985,-17.6361,-1.88965,1.34033,-156.599,252
1568024277,296.912,93.985,-17.6361,-1.88965,1.34033,-156.599,252
1568024277,296.912,93.985,-17.6361,-1.88965,1.34033,-156.599,252
1568024277,296.912,93.985,-17.6361,-1.88965,1.34033,-156.599,252
1568024277,296.912,93.985,-17.6361,-1.88965,1.34033,-156.599,252
1568024277,296.912,93.985,-17.6361,-1.88965,1.34033,-156.599,252
1568024277,297.024,93.985,-17.5245,-1.88965,1.34033,-156.599,252
1568024277,297.024,93.985,-17.5245,-1.88965,1.34033,-156.599,252
1568024277,297.024,93.985,-17.5245,-1.88965,1.34033,-156.599,252
1568024277,297.024,93.985,-17.5245,-1.88965,1.31836,-156.599,248
1568024277,297.024,93.985,-17.5245,-1.88965,1.31836,-156.599,248
1568024277,297.024,93.985,-17.5245,-1.88965,1.31836,-156.599,248
1568024277,297.024,93.985,-17.5245,-1.88965,1.31836,-156.599,248
1568024277,297.024,93.985,-17.5245,-1.88965,1.31836,-156.599,248
1568024277,297.024,93.985,-17.5245,-1.91162,1.31836,-156.599,248
1568024277,297.024,93.985,-17.5245,-1.91162,1.31836,-156.599,248
1568024277,297.024,93.985,-17.5245,-1.91162,1.31836,-156.599,248
1568024278,297.024,93.985,-17.5245,-1.91162,1.31836,-156.599,252
1568024278,297.024,93.985,-17.5245,-1.91162,1.31836,-156.599,252
1568024278,297.024,93.985,-17.5245,-1.91162,1.31836,-156.599,252
1568024278,297.024,93.985,-17.5245,-1.91162,1.31836,-156.599,252
1568024278,297.024,93.985,-17.5245,-1.91162,1.31836,-156.599,252
1568024278,297.024,93.985,-17.5245,-1.91162,1.31836,-156.599,252
1568024278,297.024,93.985,-17.5245,-1.91162,1.31836,-156.599,252
1568024278,297.024,93.985,-17.5245,-1.91162,1.31836,-156.599,252
1568024278,297.024,93.985,-17.5245,-1.91162,1.31836,-156.599,252
1568024278,297.024,93.985,-17.5245,-1.91162,1.31836,-156.599,252
1568024278,297.024,93.985,-17.5245,-1.91162,1.31836,-156.599,252
1568024278,297.024,93.985,-17.5245,-1.88965,1.31836,-156.599,252
1568024278,297.024,93.985,-17.5245,-1.88965,1.31836,-156.599,252
1568024278,297.024,93.985,-17.5245,-1.88965,1.31836,-156.599,252
1568024278,297.024,93.985,-17.5245,-1.88965,1.31836,-156.599,252
1568024278,297.024,93.985,-17.5245,-1.88965,1.31836,-156.599,252
1568024278,297.024,93.985,-17.5245,-1.91162,1.34033,-156.599,252
1568024278,297.024,93.985,-17.5245,-1.91162,1.34033,-156.599,252
1568024278,297.024,93.985,-17.5245,-1.91162,1.34033,-156.599,252
1568024278,297.024,93.985,-17.5245,-1.91162,1.34033,-156.599,252
1568024278,297.024,93.985,-17.5245,-1.91162,1.34033,-156.599,252
1568024278,297.024,93.985,-17.5245,-1.91162,1.34033,-156.599,252
1568024278,297.024,93.985,-17.5245,-1.91162,1.34033,-156.599,252
1568024278,296.912,93.985,-17.5245,-1.91162,1.34033,-156.599,252
1568024278,296.912,93.985,-17.5245,-1.91162,1.34033,-156.599,252
1568024278,296.912,93.985,-17.5245,-1.91162,1.31836,-156.599,252
1568024278,296.912,93.985,-17.5245,-1.91162,1.31836,-156.599,252
1568024278,296.912,93.985,-17.5245,-1.91162,1.31836,-156.599,252
1568024278,296.912,93.985,-17.5245,-1.91162,1.31836,-156.599,252
1568024278,296.912,93.985,-17.5245,-1.91162,1.31836,-156.599,252
1568024278,296.912,93.985,-17.5245,-1.91162,1.31836,-156.599,252
1568024278,296.912,93.985,-17.5245,-1.91162,1.31836,-156.599,252
1568024278,296.912,93.985,-17.5245,-1.91162,1.31836,-156.599,252
1568024278,296.912,93.985,-17.5245,-1.91162,1.31836,-156.599,256
1568024278,296.912,93.985,-17.5245,-1.91162,1.31836,-156.599,256
1568024278,296.912,93.985,-17.5245,-1.91162,1.31836,-156.599,256
1568024278,296.912,93.985,-17.5245,-1.91162,1.31836,-156.599,256
1568024278,297.024,93.985,-17.5245,-1.91162,1.31836,-156.599,256
1568024278,297.024,93.985,-17.5245,-1.91162,1.31836,-156.599,256
1568024278,297.024,93.985,-17.5245,-1.91162,1.31836,-156.599,256
1568024278,297.024,93.985,-17.5245,-1.91162,1.31836,-156.599,256
1568024278,297.024,93.985,-17.5245,-1.91162,1.31836,-156.599,252
1568024278,297.024,93.985,-17.5245,-1.91162,1.31836,-156.599,252
1568024278,297.024,93.985,-17.5245,-1.91162,1.31836,-156.599,252
1568024278,297.024,93.985,-17.5245,-1.91162,1.31836,-156.599,252
1568024278,297.024,93.985,-17.5245,-1.91162,1.31836,-156.599,252
1568024278,297.024,93.8733,-17.5245,-1.93359,1.31836,-156.599,252
1568024278,297.024,93.8733,-17.5245,-1.93359,1.31836,-156.599,252
1568024278,297.024,93.8733,-17.5245,-1.93359,1.31836,-156.599,252
1568024278,297.024,93.8733,-17.5245,-1.93359,1.31836,-156.599,252
1568024278,297.024,93.8733,-17.5245,-1.93359,1.31836,-156.599,252
1568024278,297.024,93.8733,-17.5245,-1.93359,1.31836,-156.599,252
1568024278,297.024,93.8733,-17.5245,-1.93359,1.31836,-156.599,248
1568024278,297.024,93.8733,-17.5245,-1.93359,1.31836,-156.599,248
1568024278,297.024,93.8733,-17.5245,-1.93359,1.31836,-156.599,248
1568024278,297.024,93.8733,-17.5245,-1.93359,1.31836,-156.599,248
1568024278,297.024,93.8733,-17.5245,-1.93359,1.31836,-156.599,248
1568024278,297.024,93.8733,-17.5245,-1.93359,1.31836,-156.599,248
1568024278,297.024,93.8733,-17.5245,-1.93359,1.31836,-156.599,248
1568024278,297.024,93.8733,-17.5245,-1.95557,1.31836,-156.599,248
1568024278,297.024,93.8733,-17.5245,-1.95557,1.31836,-156.599,248
1568024278,297.024,93.8733,-17.5245,-1.95557,1.31836,-156.599,244
1568024278,297.024,93.8733,-17.5245,-1.93359,1.31836,-156.599,244
1568024278,297.024,93.8733,-17.5245,-1.93359,1.34033,-156.599,244
1568024278,297.024,93.8733,-17.5245,-1.93359,1.34033,-156.599,244
1568024278,297.024,93.8733,-17.5245,-1.93359,1.34033,-156.599,244
1568024278,297.024,93.8733,-17.5245,-1.93359,1.34033,-156.599,244
1568024278,297.024,93.8733,-17.5245,-1.93359,1.34033,-156.599,244
1568024278,297.024,93.8733,-17.5245,-1.93359,1.34033,-156.599,244
1568024278,297.024,93.8733,-17.5245,-1.93359,1.34033,-156.599,244
1568024278,297.024,93.8733,-17.5245,-1.93359,1.34033,-156.599,244
1568024278,297.024,93.8733,-17.5245,-1.93359,1.34033,-156.599,244
1568024278,297.024,93.8733,-17.5245,-1.93359,1.34033,-156.599,244
1568024278,297.024,93.8733,-17.5245,-1.93359,1.34033,-156.599,244
1568024278,297.024,93.8733,-17.5245,-1.93359,1.34033,-156.599,244
1568024278,297.024,93.8733,-17.5245,-1.93359,1.31836,-156.599,244
1568024278,297.024,93.8733,-17.5245,-1.93359,1.31836,-156.599,244
1568024278,297.024,93.8733,-17.5245,-1.93359,1.34033,-156.599,244
1568024278,297.024,93.8733,-17.5245,-1.93359,1.34033,-156.599,244
1568024278,297.024,93.8733,-17.5245,-1.93359,1.34033,-156.599,244
1568024278,297.024,93.8733,-17.5245,-1.93359,1.34033,-156.599,244
1568024278,297.024,93.8733,-17.5245,-1.93359,1.31836,-156.599,244
1568024278,297.024,93.8733,-17.5245,-1.93359,1.31836,-156.599,244
1568024278,297.024,93.8733,-17.5245,-1.93359,1.31836,-156.599,244
1568024278,297.024,93.8733,-17.5245,-1.93359,1.31836,-156.599,244
1568024278,297.024,93.8733,-17.5245,-1.93359,1.31836,-156.599,244
1568024278,297.024,93.8733,-17.5245,-1.93359,1.31836,-156.599,244
1568024278,297.024,93.8733,-17.5245,-1.93359,1.31836,-156.599,244
1568024278,297.024,93.8733,-17.5245,-1.93359,1.31836,-156.599,244
1568024278,297.024,93.8733,-17.5245,-1.93359,1.31836,-156.599,244
1568024278,297.024,93.8733,-17.5245,-1.93359,1.34033,-156.599,244
1568024278,297.024,93.8733,-17.5245,-1.93359,1.34033,-156.599,244
1568024278,297.024,93.8733,-17.5245,-1.93359,1.34033,-156.599,244
1568024278,297.024,93.8733,-17.5245,-1.93359,1.34033,-156.599,244
1568024278,297.024,93.8733,-17.5245,-1.93359,1.34033,-156.599,244
1568024278,297.024,93.8733,-17.5245,-1.93359,1.34033,-156.599,244
1568024278,297.024,93.8733,-17.5245,-1.93359,1.34033,-156.599,244
1568024278,297.024,93.8733,-17.5245,-1.93359,1.34033,-156.599,244
1568024278,297.024,93.8733,-17.5245,-1.93359,1.34033,-156.599,244
1568024278,297.024,93.8733,-17.5245,-1.91162,1.34033,-156.599,244
1568024279,297.024,93.8733,-17.5245,-1.91162,1.34033,-156.599,244
1568024279,297.024,93.8733,-17.5245,-1.91162,1.34033,-156.599,244
1568024279,297.024,93.8733,-17.5245,-1.91162,1.34033,-156.599,240
1568024279,297.024,93.8733,-17.5245,-1.91162,1.34033,-156.599,240
1568024279,297.024,93.8733,-17.5245,-1.93359,1.34033,-156.599,240
1568024279,297.024,93.8733,-17.5245,-1.93359,1.34033,-156.599,240
1568024279,297.024,93.8733,-17.5245,-1.93359,1.31836,-156.599,240
1568024279,297.024,93.8733,-17.5245,-1.93359,1.31836,-156.599,240
1568024279,297.024,93.8733,-17.5245,-1.93359,1.31836,-156.599,240
1568024279,297.024,93.8733,-17.5245,-1.93359,1.31836,-156.599,244
1568024279,297.024,93.8733,-17.5245,-1.93359,1.31836,-156.599,244
1568024279,297.024,93.8733,-17.5245,-1.93359,1.31836,-156.599,244
1568024279,297.024,93.8733,-17.5245,-1.93359,1.31836,-156.599,244
1568024279,297.024,93.8733,-17.5245,-1.93359,1.31836,-156.599,244
1568024279,297.024,93.8733,-17.5245,-1.93359,1.31836,-156.599,244
1568024279,297.024,93.8733,-17.5245,-1.93359,1.31836,-156.599,244
1568024279,297.024,93.8733,-17.5245,-1.93359,1.31836,-156.599,244
1568024279,297.024,93.8733,-17.5245,-1.93359,1.31836,-156.599,244
1568024279,297.024,93.8733,-17.5245,-1.93359,1.31836,-156.599,244
1568024279,297.024,93.8733,-17.5245,-1.91162,1.31836,-156.599,244
1568024279,297.024,93.8733,-17.5245,-1.91162,1.31836,-156.599,244
1568024279,297.024,93.8733,-17.5245,-1.91162,1.31836,-156.599,244
1568024279,297.024,93.8733,-17.5245,-1.91162,1.31836,-156.599,244
1568024279,297.024,93.8733,-17.5245,-1.91162,1.31836,-156.599,244
1568024279,297.024,93.8733,-17.5245,-1.91162,1.31836,-156.599,244
1568024279,296.912,93.8733,-17.5245,-1.91162,1.31836,-156.599,244
1568024279,296.912,93.8733,-17.5245,-1.91162,1.31836,-156.599,244
1568024279,296.912,93.8733,-17.5245,-1.91162,1.31836,-156.599,244
1568024279,296.912,93.8733,-17.5245,-1.91162,1.31836,-156.599,244
1568024279,296.912,93.985,-17.5245,-1.91162,1.31836,-156.599,244
1568024279,296.912,93.985,-17.5245,-1.91162,1.31836,-156.599,244
1568024279,296.912,93.985,-17.5245,-1.91162,1.31836,-156.599,244
1568024279,296.912,93.985,-17.5245,-1.91162,1.31836,-156.599,244
1568024279,296.912,93.985,-17.5245,-1.91162,1.31836,-156.599,244
1568024279,296.912,93.985,-17.5245,-1.88965,1.31836,-156.599,244
1568024279,296.912,93.985,-17.5245,-1.88965,1.31836,-156.599,244
1568024279,296.912,93.985,-17.5245,-1.88965,1.31836,-156.599,244
1568024279,296.912,93.985,-17.5245,-1.88965,1.31836,-156.599,244
1568024279,296.912,93.985,-17.5245,-1.88965,1.31836,-156.599,244
1568024279,296.912,93.985,-17.5245,-1.88965,1.31836,-156.599,244
1568024279,296.912,93.985,-17.5245,-1.88965,1.31836,-156.599,244
1568024279,296.912,93.985,-17.5245,-1.88965,1.31836,-156.599,244
1568024279,296.912,93.985,-17.5245,-1.88965,1.31836,-156.599,244
1568024279,296.912,93.985,-17.5245,-1.88965,1.31836,-156.599,244
1568024279,296.912,93.985,-17.5245,-1.88965,1.31836,-156.599,244
1568024279,296.912,93.985,-17.5245,-1.88965,1.31836,-156.599,240
1568024279,296.912,93.985,-17.5245,-1.88965,1.31836,-156.599,240
1568024279,296.912,93.985,-17.5245,-1.88965,1.31836,-156.599,240
1568024279,296.912,93.985,-17.5245,-1.88965,1.31836,-156.599,240
1568024279,296.912,93.985,-17.5245,-1.88965,1.31836,-156.599,240
1568024279,296.912,93.985,-17.5245,-1.88965,1.31836,-156.599,240
1568024279,296.912,93.985,-17.5245,-1.88965,1.31836,-156.599,240
1568024279,296.912,93.985,-17.5245,-1.88965,1.29639,-156.599,240
1568024279,296.912,93.985,-17.5245,-1.88965,1.29639,-156.599,240
1568024279,296.912,93.985,-17.5245,-1.88965,1.29639,-156.599,240
1568024279,296.912,93.985,-17.5245,-1.88965,1.29639,-156.599,240
1568024279,296.912,93.985,-17.5245,-1.88965,1.29639,-156.599,240
1568024279,297.024,93.985,-17.5245,-1.88965,1.29639,-156.599,240
1568024279,297.024,93.985,-17.5245,-1.88965,1.29639,-156.599,240
1568024279,297.024,93.985,-17.5245,-1.88965,1.29639,-156.599,240
1568024279,297.024,93.985,-17.5245,-1.88965,1.29639,-156.599,240
1568024279,297.024,93.985,-17.5245,-1.91162,1.29639,-156.599,240
1568024279,297.024,93.985,-17.5245,-1.91162,1.29639,-156.599,240
1568024279,297.024,93.985,-17.5245,-1.91162,1.29639,-156.599,240
1568024279,297.024,93.985,-17.5245,-1.91162,1.29639,-156.599,240
1568024279,297.024,93.985,-17.5245,-1.91162,1.29639,-156.599,240
1568024279,297.024,93.985,-17.5245,-1.91162,1.29639,-156.599,240
1568024279,297.024,93.985,-17.5245,-1.91162,1.29639,-156.599,240
1568024279,297.024,93.985,-17.5245,-1.91162,1.29639,-156.599,240
1568024279,297.024,93.985,-17.5245,-1.91162,1.29639,-156.599,240
1568024279,297.024,93.985,-17.5245,-1.91162,1.29639,-156.599,240
1568024279,297.024,93.985,-17.5245,-1.91162,1.29639,-156.599,240
1568024279,297.024,93.985,-17.5245,-1.91162,1.29639,-156.599,240
1568024279,297.024,93.985,-17.5245,-1.91162,1.29639,-156.599,240
1568024279,297.024,93.985,-17.5245,-1.91162,1.29639,-156.599,240
1568024279,297.024,93.985,-17.5245,-1.91162,1.29639,-156.599,240
1568024279,297.024,93.985,-17.5245,-1.91162,1.29639,-156.599,240
1568024279,297.024,93.985,-17.5245,-1.91162,1.29639,-156.599,240
1568024279,297.024,93.985,-17.5245,-1.91162,1.29639,-156.599,240
1568024279,297.024,93.985,-17.5245,-1.91162,1.29639,-156.599,240
1568024279,297.024,93.985,-17.5245,-1.91162,1.29639,-156.599,240
1568024279,297.024,93.985,-17.5245,-1.91162,1.29639,-156.599,240
1568024279,297.024,93.985,-17.5245,-1.91162,1.29639,-156.599,240
1568024279,297.024,93.985,-17.5245,-1.91162,1.29639,-156.599,240
1568024279,297.024,93.985,-17.5245,-1.91162,1.29639,-156.599,240
1568024279,297.024,93.985,-17.5245,-1.91162,1.29639,-156.599,240
1568024279,297.024,93.985,-17.5245,-1.91162,1.29639,-156.599,240
1568024279,297.024,93.8733,-17.5245,-1.91162,1.29639,-156.599,244
1568024279,297.024,93.8733,-17.5245,-1.91162,1.29639,-156.599,244
1568024279,297.024,93.8733,-17.5245,-1.91162,1.29639,-156.599,244
1568024279,297.024,93.8733,-17.5245,-1.91162,1.29639,-156.599,244
1568024279,297.024,93.8733,-17.5245,-1.93359,1.29639,-156.599,244
1568024279,297.024,93.8733,-17.5245,-1.93359,1.31836,-156.599,244
1568024279,297.024,93.8733,-17.5245,-1.93359,1.31836,-156.599,244
1568024279,297.024,93.8733,-17.5245,-1.93359,1.31836,-156.599,244
1568024279,297.024,93.8733,-17.5245,-1.93359,1.31836,-156.599,244
1568024279,297.024,93.8733,-17.5245,-1.93359,1.31836,-156.599,244
1568024279,297.024,93.8733,-17.5245,-1.93359,1.31836,-156.599,244
1568024279,297.024,93.8733,-17.5245,-1.93359,1.31836,-156.599,244
1568024279,297.024,93.8733,-17.5245,-1.93359,1.31836,-156.599,244
1568024280,297.024,93.8733,-17.5245,-1.93359,1.31836,-156.599,244
1568024280,297.024,93.8733,-17.5245,-1.93359,1.31836,-156.599,244
1568024280,297.024,93.8733,-17.5245,-1.93359,1.31836,-156.599,244
1568024280,297.024,93.8733,-17.5245,-1.93359,1.31836,-156.599,244
1568024280,297.024,93.8733,-17.5245,-1.93359,1.31836,-156.599,248
1568024280,297.024,93.8733,-17.5245,-1.93359,1.31836,-156.599,248
1568024280,297.024,93.8733,-17.5245,-1.93359,1.31836,-156.599,248
1568024280,297.024,93.8733,-17.5245,-1.93359,1.31836,-156.599,248
1568024280,297.024,93.8733,-17.5245,-1.93359,1.31836,-156.599,248
1568024280,297.024,93.8733,-17.5245,-1.93359,1.31836,-156.599,248
1568024280,297.024,93.8733,-17.5245,-1.93359,1.31836,-156.599,248
1568024280,297.024,93.8733,-17.5245,-1.93359,1.31836,-156.599,248
1568024280,297.024,93.8733,-17.5245,-1.93359,1.31836,-156.599,248
1568024280,297.024,93.8733,-17.5245,-1.93359,1.31836,-156.599,248
1568024280,297.024,93.8733,-17.5245,-1.93359,1.31836,-156.599,248
1568024280,297.024,93.8733,-17.5245,-1.93359,1.31836,-156.599,248
1568024280,297.024,93.8733,-17.5245,-1.93359,1.31836,-156.599,248
1568024280,297.024,93.8733,-17.5245,-1.93359,1.31836,-156.599,248
1568024280,297.024,93.8733,-17.5245,-1.93359,1.31836,-156.599,248
1568024280,297.024,93.8733,-17.5245,-1.93359,1.31836,-156.599,248
1568024280,297.024,93.8733,-17.5245,-1.93359,1.31836,-156.599,248
1568024280,297.024,93.8733,-17.5245,-1.93359,1.31836,-156.599,248
1568024280,297.024,93.8733,-17.5245,-1.93359,1.31836,-156.599,248
1568024280,297.024,93.8733,-17.5245,-1.93359,1.31836,-156.599,252
1568024280,297.024,93.8733,-17.5245,-1.93359,1.31836,-156.599,252
1568024280,297.024,93.8733,-17.5245,-1.93359,1.31836,-156.599,252
1568024280,297.024,93.8733,-17.5245,-1.93359,1.31836,-156.599,252
1568024280,297.024,93.8733,-17.5245,-1.93359,1.31836,-156.599,252
1568024280,297.024,93.8733,-17.5245,-1.93359,1.31836,-156.599,252
1568024280,297.024,93.8733,-17.5245,-1.93359,1.31836,-156.599,252
1568024280,297.024,93.8733,-17.5245,-1.93359,1.31836,-156.599,252
1568024280,297.024,93.8733,-17.5245,-1.93359,1.31836,-156.599,252
1568024280,297.024,93.8733,-17.5245,-1.93359,1.31836,-156.599,252
1568024280,297.024,93.8733,-17.5245,-1.93359,1.31836,-156.599,252
1568024280,297.024,93.8733,-17.5245,-1.93359,1.31836,-156.599,252
1568024280,297.024,93.8733,-17.5245,-1.93359,1.31836,-156.599,252
1568024280,297.024,93.8733,-17.5245,-1.93359,1.31836,-156.599,252
1568024280,297.024,93.8733,-17.5245,-1.93359,1.31836,-156.599,252
1568024280,297.024,93.8733,-17.5245,-1.93359,1.31836,-156.599,252
1568024280,297.024,93.8733,-17.5245,-1.93359,1.31836,-156.599,248
1568024280,297.024,93.8733,-17.5245,-1.93359,1.31836,-156.599,248
1568024280,297.024,93.8733,-17.5245,-1.93359,1.31836,-156.599,248
1568024280,297.024,93.8733,-17.5245,-1.93359,1.31836,-156.599,248
1568024280,297.024,93.8733,-17.5245,-1.93359,1.34033,-156.599,248
1568024280,297.024,93.8733,-17.5245,-1.91162,1.34033,-156.599,248
1568024280,297.024,93.985,-17.5245,-1.91162,1.34033,-156.599,248
1568024280,297.024,93.985,-17.5245,-1.91162,1.34033,-156.599,248
1568024280,297.024,93.985,-17.5245,-1.91162,1.34033,-156.599,248
1568024280,297.024,93.985,-17.5245,-1.91162,1.34033,-156.599,248
1568024280,297.024,93.985,-17.5245,-1.91162,1.34033,-156.599,244
1568024280,297.024,93.985,-17.5245,-1.91162,1.34033,-156.599,244
1568024280,297.024,93.985,-17.5245,-1.91162,1.34033,-156.599,244
1568024280,297.024,93.985,-17.5245,-1.91162,1.34033,-156.599,244
1568024280,297.024,93.985,-17.5245,-1.91162,1.34033,-156.599,244
1568024280,297.024,93.985,-17.5245,-1.91162,1.34033,-156.599,244
1568024280,297.024,93.985,-17.6361,-1.91162,1.34033,-156.599,244
1568024280,297.024,93.985,-17.6361,-1.91162,1.34033,-156.599,244
1568024280,297.024,93.985,-17.6361,-1.91162,1.34033,-156.599,244
1568024280,297.024,93.985,-17.6361,-1.91162,1.34033,-156.599,244
1568024280,297.024,93.985,-17.6361,-1.91162,1.34033,-156.599,244
1568024280,297.024,93.985,-17.5245,-1.91162,1.34033,-156.599,244
1568024280,297.024,93.985,-17.5245,-1.91162,1.34033,-156.599,244
1568024280,297.024,93.985,-17.5245,-1.91162,1.34033,-156.599,244
1568024280,297.024,93.985,-17.5245,-1.91162,1.34033,-156.599,244
1568024280,297.024,93.985,-17.5245,-1.91162,1.34033,-156.599,244
1568024280,297.024,93.985,-17.5245,-1.91162,1.34033,-156.599,244
1568024280,297.024,93.985,-17.5245,-1.91162,1.34033,-156.599,244
1568024280,297.024,93.985,-17.5245,-1.91162,1.34033,-156.599,248
1568024280,297.024,93.985,-17.5245,-1.91162,1.34033,-156.599,248
1568024280,297.024,93.985,-17.5245,-1.91162,1.34033,-156.599,248
1568024280,297.024,93.985,-17.5245,-1.91162,1.34033,-156.599,248
1568024280,297.024,93.985,-17.5245,-1.91162,1.34033,-156.599,248
1568024280,297.024,93.985,-17.5245,-1.91162,1.34033,-156.599,248
1568024280,297.024,93.985,-17.5245,-1.91162,1.34033,-156.599,248
1568024280,297.024,93.985,-17.6361,-1.91162,1.34033,-156.599,248
1568024280,297.024,93.985,-17.6361,-1.91162,1.34033,-156.599,248
1568024280,297.024,93.985,-17.6361,-1.91162,1.34033,-156.599,248
1568024280,297.024,93.985,-17.6361,-1.91162,1.34033,-156.599,248
1568024280,297.024,93.985,-17.6361,-1.91162,1.34033,-156.599,248
1568024280,297.024,93.985,-17.6361,-1.91162,1.34033,-156.599,248
1568024280,297.024,93.985,-17.6361,-1.91162,1.34033,-156.599,248
1568024280,296.912,93.985,-17.6361,-1.91162,1.34033,-156.599,248
1568024280,296.912,93.985,-17.6361,-1.91162,1.34033,-156.599,248
1568024280,296.912,93.985,-17.6361,-1.88965,1.34033,-156.599,248
1568024280,296.912,93.985,-17.6361,-1.88965,1.34033,-156.599,248
1568024280,296.912,93.985,-17.6361,-1.88965,1.34033,-156.599,248
1568024280,296.912,93.985,-17.6361,-1.88965,1.34033,-156.599,248
1568024280,296.912,93.985,-17.6361,-1.88965,1.34033,-156.599,248
1568024280,296.912,93.985,-17.6361,-1.88965,1.34033,-156.599,248
1568024280,296.912,93.985,-17.6361,-1.88965,1.34033,-156.599,248
1568024280,296.912,93.985,-17.6361,-1.88965,1.34033,-156.599,252
1568024280,296.912,93.985,-17.6361,-1.91162,1.34033,-156.599,252
1568024280,296.912,93.985,-17.5245,-1.91162,1.34033,-156.599,252
1568024280,296.912,93.985,-17.5245,-1.91162,1.34033,-156.599,252
1568024280,296.912,93.985,-17.5245,-1.91162,1.34033,-156.599,252
1568024280,296.912,93.985,-17.5245,-1.91162,1.34033,-156.599,252
1568024280,296.912,93.985,-17.5245,-1.91162,1.34033,-156.599,252
1568024280,296.912,93.985,-17.5245,-1.91162,1.34033,-156.599,252
1568024280,296.912,93.985,-17.5245,-1.91162,1.34033,-156.599,252
1568024280,296.912,93.985,-17.5245,-1.91162,1.34033,-156.599,252
1568024281,296.912,93.985,-17.5245,-1.91162,1.34033,-156.599,248
1568024281,296.912,93.985,-17.5245,-1.91162,1.34033,-156.599,248
1568024281,296.912,93.985,-17.5245,-1.91162,1.34033,-156.599,248
1568024281,296.912,93.985,-17.5245,-1.91162,1.34033,-156.599,248
1568024281,296.912,93.985,-17.5245,-1.91162,1.34033,-156.599,248
1568024281,296.912,93.985,-17.5245,-1.91162,1.34033,-156.599,248
1568024281,296.912,93.985,-17.5245,-1.91162,1.34033,-156.599,248
1568024281,296.912,93.985,-17.5245,-1.91162,1.34033,-156.599,248
1568024281,296.912,93.985,-17.5245,-1.91162,1.34033,-156.599,248
1568024281,296.912,93.985,-17.5245,-1.91162,1.34033,-156.599,248
1568024281,296.912,93.985,-17.5245,-1.91162,1.34033,-156.599,248
1568024281,296.912,93.985,-17.5245,-1.91162,1.34033,-156.599,248
1568024281,297.024,93.985,-17.5245,-1.91162,1.31836,-156.599,248
1568024281,297.024,93.985,-17.5245,-1.91162,1.31836,-156.599,248
1568024281,297.024,93.985,-17.5245,-1.91162,1.31836,-156.599,248
1568024281,297.024,93.985,-17.5245,-1.91162,1.31836,-156.599,248
1568024281,297.024,93.985,-17.5245,-1.91162,1.31836,-156.599,244
1568024281,297.024,93.985,-17.5245,-1.88965,1.31836,-156.599,244
1568024281,297.024,93.985,-17.5245,-1.88965,1.31836,-156.599,244
1568024281,297.024,93.985,-17.5245,-1.88965,1.31836,-156.599,244
1568024281,297.024,93.985,-17.5245,-1.88965,1.31836,-156.599,244
1568024281,297.024,93.985,-17.5245,-1.88965,1.31836,-156.599,244
1568024281,296.912,93.985,-17.5245,-1.88965,1.31836,-156.599,244
1568024281,296.912,93.985,-17.5245,-1.88965,1.31836,-156.599,244
1568024281,296.912,93.985,-17.5245,-1.88965,1.31836,-156.599,244
1568024281,296.912,93.985,-17.5245,-1.88965,1.31836,-156.599,244
1568024281,296.912,93.985,-17.5245,-1.88965,1.31836,-156.599,240
1568024281,296.912,93.985,-17.5245,-1.88965,1.31836,-156.599,240
1568024281,296.912,93.985,-17.5245,-1.88965,1.31836,-156.599,240
1568024281,296.912,93.985,-17.5245,-1.88965,1.31836,-156.599,240
1568024281,296.912,93.985,-17.5245,-1.88965,1.31836,-156.599,240
1568024281,296.912,93.985,-17.5245,-1.88965,1.31836,-156.599,240
1568024281,296.912,93.985,-17.5245,-1.88965,1.31836,-156.599,240
1568024281,296.912,93.985,-17.5245,-1.88965,1.31836,-156.599,244
1568024281,297.024,93.985,-17.5245,-1.91162,1.31836,-156.599,244
1568024281,297.024,93.985,-17.5245,-1.91162,1.31836,-156.599,244
1568024281,297.024,93.985,-17.5245,-1.91162,1.31836,-156.599,244
1568024281,297.024,93.985,-17.5245,-1.91162,1.31836,-156.599,244
1568024281,297.024,93.985,-17.5245,-1.91162,1.31836,-156.599,244
1568024281,297.024,93.985,-17.5245,-1.91162,1.31836,-156.599,244
1568024281,297.024,93.985,-17.5245,-1.91162,1.31836,-156.599,244
1568024281,297.024,93.985,-17.5245,-1.91162,1.31836,-156.599,244
1568024281,297.024,93.985,-17.5245,-1.91162,1.31836,-156.599,248
1568024281,297.024,93.985,-17.5245,-1.91162,1.31836,-156.599,248
1568024281,297.024,93.985,-17.5245,-1.91162,1.29639,-156.599,248
1568024281,297.024,93.985,-17.5245,-1.91162,1.29639,-156.599,248
1568024281,297.024,93.985,-17.5245,-1.91162,1.29639,-156.599,248
1568024281,297.024,93.985,-17.5245,-1.91162,1.29639,-156.599,248
1568024281,296.912,93.985,-17.5245,-1.91162,1.29639,-156.599,248
1568024281,296.912,93.985,-17.5245,-1.91162,1.29639,-156.599,248
1568024281,296.912,93.985,-17.5245,-1.91162,1.29639,-156.599,248
1568024281,296.912,93.985,-17.5245,-1.91162,1.29639,-156.599,248
1568024281,296.912,93.985,-17.5245,-1.91162,1.29639,-156.599,248
1568024281,296.912,93.985,-17.5245,-1.91162,1.29639,-156.599,248
1568024281,296.912,93.985,-17.5245,-1.91162,1.29639,-156.599,248
1568024281,296.912,93.985,-17.5245,-1.91162,1.29639,-156.599,248
1568024281,296.912,93.985,-17.5245,-1.91162,1.29639,-156.599,248
1568024281,296.912,93.985,-17.5245,-1.91162,1.29639,-156.599,248
1568024281,297.024,93.985,-17.5245,-1.91162,1.29639,-156.599,244
1568024281,297.024,93.985,-17.5245,-1.91162,1.29639,-156.599,244
1568024281,297.024,93.985,-17.5245,-1.91162,1.29639,-156.599,244
1568024281,297.024,93.985,-17.5245,-1.91162,1.29639,-156.599,244
1568024281,297.024,93.985,-17.5245,-1.91162,1.29639,-156.599,244
1568024281,297.024,93.985,-17.5245,-1.91162,1.29639,-156.599,244
1568024281,297.024,93.985,-17.5245,-1.91162,1.29639,-156.599,244
1568024281,297.024,93.985,-17.5245,-1.91162,1.29639,-156.599,244
1568024281,297.024,93.985,-17.5245,-1.91162,1.29639,-156.599,244
1568024281,297.024,93.985,-17.5245,-1.91162,1.29639,-156.599,244
1568024281,297.024,93.985,-17.5245,-1.91162,1.29639,-156.599,244
1568024281,297.024,93.985,-17.5245,-1.91162,1.31836,-156.599,244
1568024281,297.024,93.985,-17.5245,-1.91162,1.31836,-156.599,244
1568024281,297.024,93.985,-17.5245,-1.91162,1.31836,-156.599,244
1568024281,297.024,93.985,-17.5245,-1.91162,1.31836,-156.599,244
1568024281,297.024,93.985,-17.5245,-1.91162,1.31836,-156.599,244
1568024281,297.024,93.985,-17.5245,-1.91162,1.29639,-156.599,244
1568024281,297.024,93.985,-17.5245,-1.91162,1.29639,-156.599,244
1568024281,297.024,93.985,-17.5245,-1.91162,1.29639,-156.599,244
1568024281,297.024,93.985,-17.5245,-1.91162,1.29639,-156.599,244
1568024281,297.024,93.985,-17.5245,-1.91162,1.29639,-156.599,244
1568024281,297.024,93.985,-17.5245,-1.91162,1.29639,-156.599,244
1568024281,297.024,93.985,-17.5245,-1.91162,1.29639,-156.599,244
1568024281,297.024,93.985,-17.5245,-1.88965,1.29639,-156.599,244
1568024281,297.024,93.985,-17.5245,-1.88965,1.29639,-156.599,244
1568024281,297.024,93.985,-17.5245,-1.88965,1.29639,-156.599,244
1568024281,297.024,93.985,-17.5245,-1.88965,1.29639,-156.599,244
1568024281,297.024,93.985,-17.5245,-1.88965,1.29639,-156.599,244
1568024288,273.807,118.207,-17.4129,-2.10938,1.42822,-156.555,224
1568024288,273.807,118.207,-17.4129,-2.10938,1.42822,-156.555,224
1568024288,273.807,118.207,-17.4129,-2.10938,1.42822,-156.555,224
1568024288,273.807,118.207,-17.4129,-2.10938,1.42822,-156.555,224
1568024288,273.807,118.207,-17.4129,-2.10938,1.42822,-156.555,224
1568024288,273.807,118.207,-17.4129,-2.10938,1.42822,-156.555,224
1568024288,273.807,118.207,-17.4129,-2.10938,1.42822,-156.555,224
1568024288,273.807,118.207,-17.4129,-2.10938,1.42822,-156.555,224
1568024288,273.807,118.207,-17.4129,-2.10938,1.42822,-156.555,224
1568024288,273.807,118.207,-17.4129,-2.10938,1.42822,-156.555,224
1568024288,273.807,118.207,-17.4129,-2.10938,1.42822,-156.555,224
1568024288,273.807,118.207,-17.4129,-2.10938,1.42822,-156.555,224
1568024288,273.807,118.207,-17.4129,-2.10938,1.42822,-156.555,224
1568024288,273.807,118.207,-17.4129,-2.10938,1.42822,-156.555,224
1568024288,273.807,118.207,-17.4129,-2.10938,1.42822,-156.555,224
1568024288,273.807,118.207,-17.4129,-2.10938,1.42822,-156.555,224
1568024288,273.807,118.207,-17.4129,-2.10938,1.42822,-156.555,224
1568024288,273.807,118.207,-17.4129,-2.10938,1.42822,-156.577,228
1568024288,273.807,118.207,-17.4129,-2.10938,1.42822,-156.577,228
1568024288,273.807,118.207,-17.4129,-2.10938,1.42822,-156.577,228
1568024288,273.807,118.207,-17.4129,-2.10938,1.42822,-156.577,228
1568024288,273.807,118.207,-17.4129,-2.10938,1.42822,-156.577,228
1568024288,273.807,118.207,-17.4129,-2.10938,1.42822,-156.577,228
1568024288,273.807,118.207,-17.4129,-2.10938,1.42822,-156.577,228
1568024288,273.807,118.207,-17.4129,-2.10938,1.42822,-156.577,228
1568024288,273.807,118.207,-17.4129,-2.10938,1.42822,-156.577,228
1568024288,273.807,118.207,-17.4129,-2.10938,1.42822,-156.577,228
1568024288,273.807,118.207,-17.4129,-2.10938,1.42822,-156.577,228
1568024288,273.807,118.207,-17.4129,-2.10938,1.42822,-156.577,228
1568024288,273.807,118.207,-17.4129,-2.10938,1.42822,-156.577,228
1568024288,273.807,118.207,-17.4129,-2.10938,1.42822,-156.577,228
1568024288,273.807,118.207,-17.4129,-2.10938,1.42822,-156.577,228
1568024288,273.807,118.207,-17.4129,-2.10938,1.42822,-156.577,228
1568024288,273.807,118.207,-17.4129,-2.10938,1.42822,-156.577,228
1568024288,273.807,118.207,-17.4129,-2.10938,1.42822,-156.577,228
1568024288,273.807,118.207,-17.4129,-2.10938,1.42822,-156.577,228
1568024289,273.807,118.207,-17.4129,-2.10938,1.42822,-156.577,228
1568024289,273.807,118.207,-17.4129,-2.10938,1.42822,-156.577,228
1568024289,273.807,118.207,-17.4129,-2.10938,1.42822,-156.577,228
1568024289,273.807,118.207,-17.4129,-2.10938,1.42822,-156.577,228
1568024289,273.807,118.207,-17.4129,-2.10938,1.42822,-156.577,228
1568024289,273.807,118.207,-17.4129,-2.10938,1.42822,-156.577,228
1568024289,273.807,118.207,-17.4129,-2.10938,1.42822,-156.577,228
1568024289,273.807,118.207,-17.4129,-2.10938,1.42822,-156.577,228
1568024289,273.807,118.207,-17.4129,-2.10938,1.42822,-156.577,228
1568024289,273.807,118.207,-17.4129,-2.10938,1.42822,-156.577,228
1568024289,273.807,118.207,-17.4129,-2.10938,1.42822,-156.577,224
1568024289,273.807,118.207,-17.4129,-2.10938,1.42822,-156.577,224
1568024289,273.807,118.207,-17.4129,-2.10938,1.42822,-156.577,224
1568024289,273.807,118.207,-17.4129,-2.10938,1.42822,-156.577,224
1568024289,273.807,118.207,-17.4129,-2.10938,1.42822,-156.577,224
1568024289,273.807,118.207,-17.4129,-2.10938,1.42822,-156.577,224
1568024289,273.807,118.207,-17.4129,-2.10938,1.42822,-156.577,224
1568024289,273.807,118.207,-17.4129,-2.0874,1.42822,-156.577,224
1568024289,273.807,118.207,-17.4129,-2.0874,1.42822,-156.577,224
1568024289,273.807,118.207,-17.4129,-2.0874,1.42822,-156.577,224
1568024289,273.807,118.207,-17.4129,-2.0874,1.42822,-156.577,224
1568024289,273.807,118.207,-17.4129,-2.0874,1.42822,-156.577,224
1568024289,273.807,118.207,-17.4129,-2.0874,1.42822,-156.577,224
1568024289,273.807,118.207,-17.4129,-2.0874,1.42822,-156.577,224
1568024289,273.807,118.207,-17.4129,-2.0874,1.42822,-156.577,224
1568024289,273.807,118.207,-17.4129,-2.0874,1.42822,-156.577,224
1568024289,273.807,118.207,-17.4129,-2.0874,1.42822,-156.577,224
1568024289,273.807,118.207,-17.4129,-2.10938,1.42822,-156.577,224
1568024289,273.807,118.207,-17.4129,-2.10938,1.42822,-156.577,224
1568024289,273.807,118.207,-17.4129,-2.10938,1.42822,-156.577,224
1568024289,273.807,118.207,-17.4129,-2.10938,1.42822,-156.577,224
1568024289,273.807,118.207,-17.4129,-2.10938,1.42822,-156.577,224
1568024289,273.807,118.207,-17.4129,-2.10938,1.42822,-156.577,224
1568024289,273.807,118.207,-17.4129,-2.10938,1.42822,-156.577,224
1568024289,273.807,118.207,-17.4129,-2.0874,1.42822,-156.577,224
1568024289,273.807,118.207,-17.4129,-2.0874,1.42822,-156.577,224
1568024289,273.807,118.318,-17.4129,-2.0874,1.42822,-156.577,224
1568024289,273.807,118.318,-17.4129,-2.0874,1.42822,-156.577,224
1568024289,273.807,118.318,-17.4129,-2.0874,1.42822,-156.577,224
1568024289,273.807,118.318,-17.4129,-2.0874,1.42822,-156.577,224
1568024289,273.807,118.318,-17.4129,-2.0874,1.42822,-156.577,224
1568024289,273.807,118.318,-17.4129,-2.0874,1.42822,-156.577,224
1568024289,273.807,118.318,-17.4129,-2.0874,1.42822,-156.577,224
1568024289,273.807,118.318,-17.4129,-2.0874,1.42822,-156.577,224
1568024289,273.807,118.207,-17.4129,-2.0874,1.42822,-156.577,224
1568024289,273.807,118.207,-17.4129,-2.0874,1.42822,-156.577,224
1568024289,273.807,118.207,-17.4129,-2.0874,1.42822,-156.577,224
1568024289,273.807,118.207,-17.4129,-2.10938,1.42822,-156.577,224
1568024289,273.807,118.207,-17.4129,-2.10938,1.42822,-156.577,224
1568024289,273.807,118.207,-17.4129,-2.10938,1.42822,-156.577,224
1568024289,273.807,118.207,-17.4129,-2.10938,1.42822,-156.577,224
1568024289,273.807,118.318,-17.4129,-2.10938,1.42822,-156.577,224
1568024289,273.807,118.318,-17.4129,-2.10938,1.42822,-156.577,224
1568024289,273.807,118.318,-17.4129,-2.0874,1.42822,-156.577,224
1568024289,273.807,118.318,-17.4129,-2.0874,1.42822,-156.577,224
1568024289,273.807,118.318,-17.4129,-2.0874,1.42822,-156.577,224
1568024289,273.807,118.318,-17.4129,-2.0874,1.42822,-156.577,224
1568024289,273.807,118.318,-17.4129,-2.0874,1.42822,-156.577,224
1568024289,273.807,118.318,-17.4129,-2.0874,1.42822,-156.577,224
1568024289,273.807,118.318,-17.4129,-2.0874,1.42822,-156.577,224
1568024289,273.807,118.318,-17.4129,-2.0874,1.42822,-156.577,224
1568024289,273.807,118.318,-17.4129,-2.0874,1.42822,-156.577,224
1568024289,273.807,118.318,-17.4129,-2.10938,1.42822,-156.577,224
1568024289,273.807,118.207,-17.4129,-2.10938,1.42822,-156.577,224
1568024289,273.807,118.207,-17.4129,-2.10938,1.42822,-156.577,224
1568024289,273.807,118.207,-17.4129,-2.10938,1.42822,-156.577,224
1568024289,273.807,118.207,-17.4129,-2.10938,1.42822,-156.577,224
1568024289,273.807,118.207,-17.4129,-2.10938,1.42822,-156.577,224
1568024289,273.807,118.207,-17.4129,-2.10938,1.42822,-156.577,224
1568024289,273.807,118.207,-17.4129,-2.10938,1.42822,-156.577,224
1568024289,273.807,118.207,-17.4129,-2.10938,1.42822,-156.577,224
1568024289,273.807,118.207,-17.4129,-2.10938,1.42822,-156.577,224
1568024289,273.807,118.207,-17.4129,-2.10938,1.42822,-156.577,224
1568024289,273.807,118.207,-17.4129,-2.10938,1.42822,-156.577,224
1568024289,273.807,118.207,-17.4129,-2.10938,1.42822,-156.555,224
1568024289,273.807,118.207,-17.4129,-2.10938,1.42822,-156.555,228
1568024289,273.807,118.207,-17.4129,-2.10938,1.42822,-156.555,228
1568024289,273.807,118.207,-17.4129,-2.10938,1.40625,-156.555,228
1568024289,273.807,118.207,-17.4129,-2.10938,1.40625,-156.555,228
1568024289,273.807,118.207,-17.4129,-2.10938,1.40625,-156.555,228
1568024289,273.807,118.207,-17.4129,-2.10938,1.40625,-156.555,228
1568024289,273.807,118.207,-17.4129,-2.10938,1.40625,-156.555,228
1568024289,273.807,118.207,-17.4129,-2.10938,1.40625,-156.555,228
1568024289,273.807,118.207,-17.4129,-2.10938,1.40625,-156.555,228
1568024289,273.807,118.207,-17.4129,-2.10938,1.40625,-156.555,228
1568024289,273.807,118.207,-17.4129,-2.10938,1.40625,-156.555,228
1568024289,273.807,118.207,-17.4129,-2.10938,1.40625,-156.555,228
1568024289,273.807,118.207,-17.4129,-2.10938,1.40625,-156.555,228
1568024289,273.807,118.207,-17.4129,-2.10938,1.40625,-156.555,228
1568024289,273.807,118.207,-17.4129,-2.10938,1.40625,-156.555,228
1568024289,273.807,118.207,-17.4129,-2.10938,1.40625,-156.555,228
1568024289,273.807,118.207,-17.4129,-2.10938,1.40625,-156.555,228
1568024289,273.807,118.207,-17.4129,-2.10938,1.40625,-156.555,228
1568024289,273.807,118.207,-17.4129,-2.10938,1.40625,-156.555,228
1568024289,273.807,118.207,-17.4129,-2.10938,1.40625,-156.555,228
1568024289,273.807,118.207,-17.4129,-2.10938,1.40625,-156.555,228
1568024289,273.807,118.207,-17.4129,-2.10938,1.40625,-156.555,228
1568024289,273.807,118.207,-17.4129,-2.10938,1.42822,-156.555,228
1568024289,273.807,118.207,-17.4129,-2.10938,1.42822,-156.555,228
1568024289,273.807,118.207,-17.4129,-2.10938,1.42822,-156.555,228
1568024290,273.807,118.207,-17.4129,-2.10938,1.42822,-156.555,228
1568024290,273.807,118.207,-17.4129,-2.10938,1.42822,-156.555,228
1568024290,273.807,118.207,-17.4129,-2.10938,1.42822,-156.555,228
1568024290,273.807,118.318,-17.4129,-2.0874,1.42822,-156.555,228
1568024290,273.807,118.318,-17.4129,-2.0874,1.42822,-156.555,228
1568024290,273.807,118.318,-17.4129,-2.0874,1.42822,-156.555,228
1568024290,273.807,118.318,-17.4129,-2.0874,1.42822,-156.555,228
1568024290,273.807,118.318,-17.4129,-2.10938,1.42822,-156.555,228
1568024290,273.807,118.318,-17.4129,-2.10938,1.42822,-156.555,228
1568024290,273.807,118.318,-17.4129,-2.10938,1.42822,-156.555,228
1568024290,273.807,118.318,-17.4129,-2.10938,1.42822,-156.555,228
1568024290,273.807,118.318,-17.4129,-2.10938,1.42822,-156.555,224
1568024290,273.807,118.318,-17.4129,-2.10938,1.42822,-156.555,224
1568024290,273.807,118.207,-17.4129,-2.10938,1.42822,-156.555,224
1568024290,273.807,118.207,-17.4129,-2.10938,1.42822,-156.555,224
1568024290,273.807,118.207,-17.4129,-2.10938,1.42822,-156.555,224
1568024290,273.807,118.207,-17.4129,-2.10938,1.42822,-156.555,224
1568024290,273.807,118.207,-17.4129,-2.10938,1.42822,-156.555,224
1568024290,273.807,118.207,-17.4129,-2.10938,1.42822,-156.555,224
1568024290,273.807,118.207,-17.4129,-2.10938,1.42822,-156.555,224
1568024290,273.807,118.207,-17.4129,-2.10938,1.42822,-156.555,220
1568024290,273.807,118.207,-17.4129,-2.10938,1.42822,-156.555,220
1568024290,273.807,118.207,-17.4129,-2.10938,1.42822,-156.555,220
1568024290,273.807,118.207,-17.4129,-2.10938,1.42822,-156.555,220
1568024290,273.807,118.207,-17.4129,-2.10938,1.42822,-156.555,220
1568024290,273.807,118.207,-17.4129,-2.10938,1.42822,-156.555,220
1568024290,273.807,118.207,-17.4129,-2.10938,1.42822,-156.555,224
1568024290,273.807,118.207,-17.4129,-2.10938,1.42822,-156.555,224
1568024290,273.807,118.207,-17.4129,-2.10938,1.42822,-156.555,224
1568024290,273.807,118.207,-17.4129,-2.10938,1.42822,-156.555,224
1568024290,273.807,118.207,-17.4129,-2.10938,1.42822,-156.555,224
1568024290,273.807,118.207,-17.4129,-2.10938,1.42822,-156.555,224
1568024290,273.807,118.207,-17.4129,-2.10938,1.42822,-156.555,224
1568024290,273.807,118.207,-17.4129,-2.10938,1.42822,-156.555,224
1568024290,273.807,118.207,-17.4129,-2.10938,1.42822,-156.555,224
1568024290,273.807,118.207,-17.4129,-2.10938,1.42822,-156.555,224
1568024290,273.807,118.207,-17.4129,-2.10938,1.42822,-156.555,224
1568024290,273.807,118.207,-17.4129,-2.10938,1.42822,-156.555,224
1568024290,273.807,118.207,-17.4129,-2.10938,1.42822,-156.555,224
1568024290,273.807,118.207,-17.4129,-2.10938,1.42822,-156.555,224
1568024290,273.807,118.207,-17.4129,-2.10938,1.42822,-156.555,224
1568024290,273.807,118.207,-17.4129,-2.10938,1.42822,-156.555,224
1568024290,273.807,118.207,-17.4129,-2.10938,1.42822,-156.577,224
1568024290,273.807,118.207,-17.4129,-2.10938,1.42822,-156.577,224
1568024290,273.807,118.207,-17.4129,-2.10938,1.42822,-156.577,224
1568024290,273.807,118.207,-17.4129,-2.10938,1.42822,-156.577,224
1568024290,273.807,118.207,-17.4129,-2.10938,1.42822,-156.577,224
1568024290,273.807,118.207,-17.4129,-2.10938,1.42822,-156.577,224
1568024290,273.807,118.207,-17.4129,-2.10938,1.42822,-156.555,224
1568024290,273.807,118.318,-17.4129,-2.10938,1.42822,-156.555,224
1568024290,273.807,118.318,-17.4129,-2.10938,1.42822,-156.555,224
1568024290,273.807,118.318,-17.4129,-2.10938,1.42822,-156.555,224
1568024290,273.807,118.318,-17.4129,-2.10938,1.42822,-156.555,224
1568024290,273.807,118.318,-17.4129,-2.10938,1.42822,-156.555,224
1568024290,273.807,118.318,-17.4129,-2.10938,1.42822,-156.555,224
1568024290,273.807,118.318,-17.4129,-2.10938,1.42822,-156.555,224
1568024290,273.807,118.318,-17.4129,-2.10938,1.42822,-156.555,224
1568024290,273.807,118.318,-17.4129,-2.10938,1.42822,-156.555,224
1568024290,273.807,118.318,-17.4129,-2.10938,1.42822,-156.555,224
1568024290,273.807,118.318,-17.4129,-2.10938,1.42822,-156.555,224
1568024290,273.807,118.318,-17.4129,-2.10938,1.42822,-156.555,224
1568024290,273.807,118.318,-17.4129,-2.10938,1.42822,-156.555,224
1568024290,273.807,118.318,-17.4129,-2.10938,1.42822,-156.555,224
1568024290,273.807,118.207,-17.4129,-2.10938,1.42822,-156.555,224
1568024290,273.807,118.207,-17.4129,-2.10938,1.42822,-156.555,224
1568024290,273.807,118.207,-17.4129,-2.10938,1.42822,-156.555,224
1568024290,273.807,118.207,-17.4129,-2.10938,1.40625,-156.555,224
1568024290,273.807,118.207,-17.4129,-2.10938,1.40625,-156.555,224
1568024290,273.807,118.207,-17.4129,-2.10938,1.40625,-156.555,224
1568024290,273.807,118.207,-17.4129,-2.10938,1.40625,-156.555,224
1568024290,273.807,118.207,-17.4129,-2.10938,1.42822,-156.555,224
1568024290,273.807,118.207,-17.4129,-2.10938,1.42822,-156.555,224
1568024290,273.807,118.207,-17.4129,-2.10938,1.42822,-156.555,224
1568024290,273.807,118.207,-17.4129,-2.10938,1.42822,-156.555,224
1568024290,273.807,118.207,-17.4129,-2.10938,1.42822,-156.555,224
1568024290,273.807,118.207,-17.4129,-2.10938,1.42822,-156.555,224
1568024290,273.807,118.207,-17.4129,-2.10938,1.42822,-156.555,224
1568024290,273.807,118.207,-17.4129,-2.10938,1.42822,-156.555,224
1568024290,273.807,118.207,-17.4129,-2.10938,1.42822,-156.555,224
1568024290,273.807,118.207,-17.4129,-2.10938,1.42822,-156.555,224
1568024290,273.807,118.318,-17.4129,-2.10938,1.42822,-156.555,224
1568024290,273.807,118.318,-17.4129,-2.10938,1.42822,-156.555,220
1568024290,273.807,118.318,-17.4129,-2.0874,1.42822,-156.555,220
1568024290,273.807,118.318,-17.4129,-2.0874,1.42822,-156.555,220
1568024290,273.807,118.318,-17.4129,-2.0874,1.42822,-156.555,220
1568024290,273.807,118.318,-17.4129,-2.0874,1.42822,-156.577,220
1568024290,273.807,118.318,-17.4129,-2.0874,1.42822,-156.577,220
1568024290,273.807,118.318,-17.4129,-2.10938,1.42822,-156.577,220
1568024290,273.807,118.318,-17.4129,-2.10938,1.42822,-156.577,220
1568024290,273.807,118.318,-17.4129,-2.10938,1.42822,-156.577,220
1568024290,273.807,118.318,-17.4129,-2.10938,1.42822,-156.577,220
1568024290,273.807,118.318,-17.4129,-2.10938,1.42822,-156.555,220
1568024290,273.807,118.318,-17.4129,-2.10938,1.42822,-156.555,220
1568024290,273.807,118.318,-17.4129,-2.10938,1.42822,-156.555,220
1568024290,273.807,118.318,-17.4129,-2.10938,1.42822,-156.555,220
1568024290,273.807,118.318,-17.4129,-2.10938,1.42822,-156.555,220
1568024290,273.807,118.318,-17.4129,-2.10938,1.42822,-156.577,220
1568024290,273.807,118.318,-17.4129,-2.10938,1.42822,-156.577,220
1568024290,273.807,118.318,-17.4129,-2.10938,1.42822,-156.577,220
1568024290,273.807,118.318,-17.4129,-2.10938,1.42822,-156.577,220
1568024291,273.807,118.318,-17.4129,-2.0874,1.42822,-156.577,220
1568024291,273.807,118.318,-17.4129,-2.0874,1.42822,-156.577,220
1568024291,273.807,118.318,-17.4129,-2.0874,1.42822,-156.577,220
1568024291,273.807,118.318,-17.4129,-2.0874,1.42822,-156.577,220
1568024291,273.807,118.318,-17.4129,-2.0874,1.42822,-156.577,220
1568024291,273.807,118.318,-17.4129,-2.0874,1.42822,-156.577,220
1568024291,273.807,118.318,-17.4129,-2.0874,1.42822,-156.577,220
1568024291,273.807,118.318,-17.4129,-2.0874,1.42822,-156.577,220
1568024291,273.807,118.318,-17.4129,-2.0874,1.42822,-156.577,220
1568024291,273.807,118.318,-17.4129,-2.0874,1.42822,-156.577,220
1568024291,273.807,118.318,-17.4129,-2.0874,1.42822,-156.577,220
1568024291,273.807,118.318,-17.4129,-2.0874,1.42822,-156.577,220
1568024291,273.807,118.318,-17.4129,-2.0874,1.42822,-156.577,220
1568024291,273.807,118.318,-17.4129,-2.0874,1.42822,-156.577,220
1568024291,273.807,118.318,-17.4129,-2.0874,1.42822,-156.577,220
1568024291,273.807,118.318,-17.4129,-2.0874,1.42822,-156.577,220
1568024291,273.807,118.318,-17.4129,-2.0874,1.42822,-156.555,220
1568024291,273.807,118.318,-17.4129,-2.0874,1.42822,-156.555,220
1568024291,273.807,118.318,-17.4129,-2.0874,1.42822,-156.555,220
1568024291,273.807,118.318,-17.4129,-2.0874,1.42822,-156.555,220
1568024291,273.807,118.318,-17.4129,-2.0874,1.42822,-156.555,220
1568024291,273.807,118.318,-17.4129,-2.0874,1.42822,-156.555,220
1568024291,273.807,118.318,-17.4129,-2.0874,1.42822,-156.555,224
1568024291,273.807,118.318,-17.4129,-2.0874,1.42822,-156.555,224
1568024291,273.807,118.318,-17.4129,-2.0874,1.42822,-156.555,224
1568024291,273.807,118.318,-17.4129,-2.0874,1.42822,-156.555,224
1568024291,273.807,118.318,-17.4129,-2.10938,1.42822,-156.555,224
1568024291,273.807,118.207,-17.4129,-2.10938,1.42822,-156.577,224
1568024291,273.807,118.207,-17.4129,-2.10938,1.42822,-156.577,224
1568024291,273.807,118.207,-17.4129,-2.10938,1.42822,-156.577,224
1568024291,273.807,118.207,-17.4129,-2.10938,1.42822,-156.577,228
1568024291,273.807,118.207,-17.4129,-2.10938,1.42822,-156.577,228
1568024291,273.807,118.207,-17.4129,-2.10938,1.42822,-156.577,228
1568024291,273.807,118.207,-17.4129,-2.10938,1.42822,-156.577,228
1568024291,273.807,118.207,-17.4129,-2.10938,1.42822,-156.577,228
1568024291,273.807,118.207,-17.4129,-2.10938,1.42822,-156.577,228
1568024291,273.807,118.207,-17.4129,-2.10938,1.42822,-156.577,228
1568024291,273.807,118.207,-17.4129,-2.10938,1.42822,-156.577,228
1568024291,273.807,118.207,-17.4129,-2.10938,1.42822,-156.555,228
1568024291,273.807,118.207,-17.4129,-2.10938,1.42822,-156.555,228
1568024291,273.807,118.207,-17.4129,-2.10938,1.42822,-156.555,224
1568024291,273.807,118.207,-17.4129,-2.10938,1.42822,-156.555,224
1568024291,273.807,118.207,-17.4129,-2.10938,1.42822,-156.555,224
1568024291,273.807,118.207,-17.4129,-2.10938,1.42822,-156.555,224
1568024291,273.807,118.207,-17.4129,-2.10938,1.42822,-156.555,224
1568024291,273.807,118.207,-17.4129,-2.10938,1.42822,-156.555,224
1568024291,273.807,118.207,-17.4129,-2.10938,1.42822,-156.555,224
1568024291,273.807,118.207,-17.4129,-2.10938,1.42822,-156.555,224
1568024291,273.807,118.207,-17.4129,-2.10938,1.42822,-156.555,224
1568024291,273.807,118.207,-17.4129,-2.10938,1.42822,-156.555,224
1568024291,273.807,118.207,-17.4129,-2.10938,1.42822,-156.577,224
1568024291,273.807,118.207,-17.4129,-2.10938,1.42822,-156.577,224
1568024291,273.807,118.207,-17.4129,-2.10938,1.42822,-156.577,224
1568024291,273.807,118.207,-17.4129,-2.10938,1.42822,-156.555,224
1568024291,273.807,118.207,-17.4129,-2.10938,1.42822,-156.555,224
1568024291,273.807,118.207,-17.4129,-2.10938,1.42822,-156.555,224
1568024291,273.807,118.207,-17.4129,-2.10938,1.42822,-156.555,224
1568024291,273.807,118.207,-17.4129,-2.10938,1.42822,-156.555,224
1568024291,273.807,118.207,-17.4129,-2.10938,1.40625,-156.555,224
1568024291,273.807,118.207,-17.4129,-2.10938,1.40625,-156.555,224
1568024291,273.807,118.207,-17.4129,-2.10938,1.40625,-156.555,224
1568024291,273.807,118.207,-17.4129,-2.10938,1.40625,-156.555,224
1568024291,273.807,118.207,-17.4129,-2.10938,1.40625,-156.555,224
1568024291,273.807,118.207,-17.4129,-2.10938,1.40625,-156.555,224
1568024291,273.807,118.207,-17.4129,-2.10938,1.42822,-156.555,228
1568024291,273.807,118.207,-17.4129,-2.10938,1.42822,-156.555,228
1568024291,273.807,118.318,-17.4129,-2.0874,1.42822,-156.555,228
1568024291,273.807,118.318,-17.4129,-2.0874,1.42822,-156.555,228
1568024291,273.807,118.318,-17.4129,-2.0874,1.42822,-156.555,228
1568024291,273.807,118.318,-17.4129,-2.0874,1.42822,-156.555,228
1568024291,273.807,118.318,-17.4129,-2.0874,1.42822,-156.555,224
1568024291,273.807,118.318,-17.4129,-2.0874,1.42822,-156.555,224
1568024291,273.807,118.318,-17.4129,-2.0874,1.42822,-156.555,224
1568024291,273.807,118.318,-17.5245,-2.0874,1.42822,-156.555,224
1568024291,273.807,118.318,-17.5245,-2.0874,1.42822,-156.555,224
1568024291,273.807,118.318,-17.5245,-2.10938,1.42822,-156.555,224
1568024291,273.807,118.318,-17.5245,-2.10938,1.4502,-156.555,224
1568024291,273.807,118.207,-17.5245,-2.10938,1.4502,-156.555,224
1568024291,273.807,118.207,-17.5245,-2.10938,1.4502,-156.555,224
1568024291,273.807,118.207,-17.5245,-2.10938,1.4502,-156.555,228
1568024291,273.807,118.207,-17.5245,-2.10938,1.4502,-156.555,228
1568024291,273.807,118.207,-17.5245,-2.10938,1.4502,-156.555,228
1568024291,273.807,118.207,-17.5245,-2.10938,1.4502,-156.555,228
1568024291,273.807,118.207,-17.5245,-2.10938,1.4502,-156.555,228
1568024291,273.807,118.207,-17.5245,-2.10938,1.4502,-156.555,228
1568024291,273.807,118.207,-17.5245,-2.10938,1.42822,-156.555,228
1568024291,273.807,118.207,-17.5245,-2.10938,1.42822,-156.555,228
1568024291,273.807,118.207,-17.5245,-2.10938,1.42822,-156.577,228
1568024291,273.807,118.207,-17.5245,-2.10938,1.42822,-156.577,228
1568024291,273.807,118.207,-17.5245,-2.10938,1.42822,-156.577,228
1568024291,273.807,118.207,-17.5245,-2.10938,1.42822,-156.577,228
1568024291,273.807,118.207,-17.5245,-2.10938,1.42822,-156.577,228
1568024291,273.807,118.207,-17.5245,-2.10938,1.42822,-156.577,228
1568024291,273.807,118.207,-17.5245,-2.10938,1.4502,-156.577,228
1568024291,273.807,118.207,-17.5245,-2.10938,1.4502,-156.577,228
1568024291,273.807,118.318,-17.5245,-2.10938,1.4502,-156.577,228
1568024291,273.807,118.318,-17.5245,-2.10938,1.4502,-156.577,228
1568024291,273.807,118.318,-17.5245,-2.10938,1.4502,-156.577,228
1568024291,273.807,118.318,-17.5245,-2.10938,1.4502,-156.577,228
1568024291,273.807,118.318,-17.5245,-2.10938,1.4502,-156.577,228
1568024291,273.807,118.318,-17.5245,-2.10938,1.4502,-156.577,228
1568024292,273.807,118.318,-17.5245,-2.10938,1.4502,-156.577,228
1568024292,273.807,118.318,-17.4129,-2.10938,1.4502,-156.577,224
1568024292,273.807,118.318,-17.4129,-2.10938,1.4502,-156.577,224
1568024292,273.807,118.318,-17.4129,-2.10938,1.42822,-156.577,224
1568024292,273.807,118.318,-17.4129,-2.10938,1.42822,-156.577,224
1568024292,273.807,118.318,-17.4129,-2.10938,1.42822,-156.577,224
1568024292,273.807,118.318,-17.4129,-2.10938,1.42822,-156.577,224
1568024292,273.807,118.318,-17.4129,-2.10938,1.42822,-156.577,224
1568024292,273.807,118.318,-17.4129,-2.10938,1.42822,-156.577,224
1568024292,273.807,118.318,-17.4129,-2.10938,1.42822,-156.577,224
1568024292,273.807,118.318,-17.4129,-2.10938,1.42822,-156.577,224
1568024292,273.807,118.318,-17.4129,-2.10938,1.42822,-156.577,224
1568024292,273.807,118.318,-17.4129,-2.0874,1.42822,-156.577,224
1568024292,273.807,118.318,-17.4129,-2.0874,1.42822,-156.577,224
1568024292,273.807,118.318,-17.4129,-2.0874,1.42822,-156.577,224
1568024292,273.807,118.318,-17.4129,-2.10938,1.42822,-156.577,224
1568024292,273.807,118.318,-17.4129,-2.10938,1.42822,-156.577,224
1568024292,273.807,118.318,-17.4129,-2.10938,1.42822,-156.577,224
1568024292,273.807,118.318,-17.4129,-2.10938,1.42822,-156.577,224
1568024292,273.807,118.318,-17.4129,-2.10938,1.42822,-156.577,224
1568024292,273.807,118.318,-17.4129,-2.10938,1.42822,-156.577,224
1568024292,273.807,118.318,-17.4129,-2.10938,1.42822,-156.577,224
1568024292,273.807,118.318,-17.4129,-2.10938,1.42822,-156.577,224
1568024292,273.807,118.318,-17.4129,-2.10938,1.42822,-156.577,224
1568024292,273.807,118.318,-17.4129,-2.0874,1.42822,-156.577,224
1568024292,273.807,118.318,-17.4129,-2.0874,1.42822,-156.577,224
1568024292,273.807,118.318,-17.4129,-2.0874,1.42822,-156.577,224
1568024292,273.807,118.318,-17.4129,-2.0874,1.42822,-156.577,224
1568024292,273.807,118.318,-17.4129,-2.0874,1.42822,-156.577,224
1568024292,273.807,118.318,-17.4129,-2.0874,1.42822,-156.577,224
1568024292,273.807,118.318,-17.4129,-2.10938,1.42822,-156.577,224
1568024292,273.807,118.318,-17.4129,-2.10938,1.42822,-156.577,224
1568024292,273.807,118.318,-17.4129,-2.10938,1.42822,-156.577,224
1568024292,273.807,118.318,-17.4129,-2.10938,1.42822,-156.577,224
1568024292,273.807,118.318,-17.4129,-2.10938,1.42822,-156.577,224
1568024292,273.807,118.318,-17.4129,-2.10938,1.42822,-156.577,224
1568024292,273.807,118.318,-17.4129,-2.10938,1.42822,-156.577,224
1568024292,273.807,118.207,-17.4129,-2.10938,1.42822,-156.577,224
1568024292,273.807,118.207,-17.4129,-2.10938,1.42822,-156.577,224
1568024292,273.807,118.207,-17.4129,-2.10938,1.42822,-156.577,224
1568024292,273.807,118.207,-17.4129,-2.10938,1.42822,-156.577,224
1568024292,273.807,118.207,-17.4129,-2.10938,1.42822,-156.577,224
1568024292,273.807,118.207,-17.4129,-2.10938,1.42822,-156.577,224
1568024292,273.807,118.207,-17.4129,-2.10938,1.42822,-156.577,224
1568024292,273.807,118.207,-17.4129,-2.10938,1.42822,-156.577,224
1568024292,273.807,118.318,-17.4129,-2.10938,1.42822,-156.577,224
1568024292,273.807,118.318,-17.4129,-2.10938,1.42822,-156.577,224
1568024292,273.807,118.318,-17.4129,-2.10938,1.42822,-156.577,224
1568024292,273.807,118.318,-17.4129,-2.10938,1.42822,-156.577,224
1568024292,273.807,118.318,-17.4129,-2.0874,1.42822,-156.577,224
1568024292,273.807,118.318,-17.4129,-2.0874,1.42822,-156.577,220
1568024292,273.807,118.318,-17.4129,-2.0874,1.42822,-156.577,220
1568024292,273.807,118.318,-17.4129,-2.0874,1.42822,-156.577,220
1568024292,273.807,118.318,-17.4129,-2.0874,1.42822,-156.577,220
1568024292,273.807,118.318,-17.4129,-2.0874,1.42822,-156.577,220
1568024292,273.807,118.318,-17.4129,-2.0874,1.42822,-156.555,220
1568024292,273.807,118.318,-17.4129,-2.0874,1.42822,-156.555,220
1568024292,273.807,118.318,-17.4129,-2.0874,1.42822,-156.555,220
1568024292,273.807,118.318,-17.4129,-2.0874,1.42822,-156.555,220
1568024292,273.807,118.318,-17.4129,-2.0874,1.42822,-156.555,220
1568024292,273.807,118.318,-17.4129,-2.0874,1.42822,-156.555,224
1568024292,273.807,118.318,-17.4129,-2.0874,1.42822,-156.555,224
1568024292,273.807,118.318,-17.4129,-2.0874,1.42822,-156.555,224
1568024292,273.807,118.318,-17.4129,-2.0874,1.42822,-156.555,220
1568024292,273.807,118.318,-17.4129,-2.0874,1.42822,-156.555,220
1568024292,273.807,118.318,-17.4129,-2.0874,1.42822,-156.555,220
1568024292,273.807,118.318,-17.4129,-2.0874,1.42822,-156.555,220
1568024292,273.807,118.318,-17.4129,-2.0874,1.42822,-156.555,220
1568024292,273.807,118.318,-17.4129,-2.0874,1.42822,-156.555,220
1568024292,273.807,118.318,-17.4129,-2.0874,1.42822,-156.555,220
1568024292,273.807,118.318,-17.4129,-2.0874,1.42822,-156.555,220
1568024292,273.807,118.318,-17.4129,-2.0874,1.42822,-156.555,224
1568024292,273.807,118.318,-17.4129,-2.0874,1.42822,-156.555,224
1568024292,273.807,118.318,-17.4129,-2.0874,1.42822,-156.555,224
1568024292,273.807,118.318,-17.4129,-2.0874,1.42822,-156.555,224
1568024292,273.807,118.318,-17.4129,-2.0874,1.42822,-156.555,224
1568024292,273.807,118.318,-17.4129,-2.0874,1.42822,-156.555,224
1568024292,273.807,118.318,-17.4129,-2.0874,1.42822,-156.555,224
1568024292,273.807,118.318,-17.4129,-2.0874,1.40625,-156.555,224
1568024292,273.807,118.318,-17.4129,-2.0874,1.40625,-156.555,224
1568024292,273.807,118.318,-17.4129,-2.0874,1.40625,-156.555,224
1568024292,273.807,118.318,-17.4129,-2.0874,1.40625,-156.555,224
1568024292,273.807,118.318,-17.4129,-2.0874,1.40625,-156.555,224
1568024292,273.807,118.318,-17.4129,-2.0874,1.40625,-156.555,224
1568024292,273.807,118.318,-17.4129,-2.0874,1.40625,-156.555,224
1568024292,273.807,118.318,-17.4129,-2.0874,1.42822,-156.555,224
1568024292,273.807,118.318,-17.4129,-2.0874,1.42822,-156.555,224
1568024292,273.807,118.318,-17.4129,-2.0874,1.42822,-156.555,224
1568024292,273.807,118.318,-17.4129,-2.0874,1.42822,-156.555,224
1568024292,273.807,118.318,-17.4129,-2.0874,1.42822,-156.555,224
1568024292,273.807,118.318,-17.4129,-2.0874,1.42822,-156.555,224
1568024292,273.807,118.318,-17.4129,-2.0874,1.42822,-156.555,224
1568024292,273.807,118.318,-17.4129,-2.0874,1.42822,-156.555,224
1568024292,273.807,118.318,-17.4129,-2.0874,1.42822,-156.555,220
1568024292,273.807,118.318,-17.4129,-2.0874,1.42822,-156.555,220
1568024292,273.807,118.318,-17.4129,-2.0874,1.42822,-156.555,220
1568024292,273.807,118.318,-17.4129,-2.0874,1.42822,-156.555,220
1568024292,273.807,118.318,-17.4129,-2.0874,1.42822,-156.555,220
1568024292,273.807,118.318,-17.4129,-2.0874,1.42822,-156.555,220
1568024292,273.807,118.318,-17.4129,-2.0874,1.42822,-156.555,220
1568024293,273.807,118.318,-17.4129,-2.0874,1.42822,-156.555,220
1568024293,273.807,118.318,-17.4129,-2.0874,1.42822,-156.555,220
1568024293,273.807,118.318,-17.4129,-2.0874,1.42822,-156.555,220
1568024293,273.807,118.318,-17.4129,-2.0874,1.42822,-156.555,224
1568024293,273.807,118.318,-17.4129,-2.0874,1.42822,-156.555,224
1568024293,273.807,118.318,-17.4129,-2.0874,1.40625,-156.555,224
1568024293,273.807,118.318,-17.4129,-2.0874,1.40625,-156.555,224
1568024293,273.807,118.318,-17.4129,-2.0874,1.40625,-156.555,224
1568024293,273.807,118.318,-17.4129,-2.0874,1.40625,-156.555,224
1568024293,273.807,118.318,-17.4129,-2.0874,1.40625,-156.555,224
1568024293,273.807,118.318,-17.4129,-2.0874,1.40625,-156.555,224
1568024293,273.807,118.318,-17.4129,-2.0874,1.40625,-156.555,224
1568024293,273.807,118.318,-17.4129,-2.0874,1.40625,-156.555,228
1568024293,273.807,118.318,-17.4129,-2.0874,1.40625,-156.555,228
1568024293,273.807,118.318,-17.4129,-2.0874,1.40625,-156.555,228
1568024293,273.807,118.207,-17.4129,-2.0874,1.40625,-156.555,228
1568024293,273.807,118.207,-17.4129,-2.0874,1.40625,-156.555,228
1568024293,273.807,118.207,-17.4129,-2.10938,1.40625,-156.577,228
1568024293,273.807,118.207,-17.4129,-2.10938,1.42822,-156.577,228
1568024293,273.807,118.207,-17.4129,-2.10938,1.42822,-156.577,228
1568024293,273.807,118.207,-17.4129,-2.10938,1.42822,-156.577,228
1568024293,273.807,118.207,-17.4129,-2.10938,1.42822,-156.577,228
1568024293,273.807,118.207,-17.4129,-2.10938,1.42822,-156.577,228
1568024293,273.807,118.207,-17.4129,-2.10938,1.42822,-156.577,228
1568024293,273.807,118.207,-17.4129,-2.10938,1.42822,-156.577,228
1568024293,273.807,118.207,-17.4129,-2.10938,1.42822,-156.577,228
1568024293,273.807,118.207,-17.4129,-2.10938,1.42822,-156.577,228
1568024293,273.807,118.207,-17.4129,-2.10938,1.42822,-156.577,228
1568024293,273.807,118.207,-17.4129,-2.10938,1.42822,-156.577,228
1568024293,273.807,118.207,-17.4129,-2.10938,1.42822,-156.577,228
1568024293,273.807,118.207,-17.4129,-2.10938,1.42822,-156.577,228
1568024293,273.807,118.207,-17.4129,-2.10938,1.42822,-156.577,228
1568024293,273.807,118.207,-17.4129,-2.10938,1.42822,-156.577,228
1568024293,273.807,118.207,-17.4129,-2.10938,1.42822,-156.577,228
1568024293,273.807,118.207,-17.4129,-2.10938,1.42822,-156.577,228
1568024293,273.807,118.207,-17.4129,-2.10938,1.42822,-156.577,228
1568024293,273.807,118.207,-17.4129,-2.10938,1.42822,-156.577,228
1568024293,273.807,118.207,-17.4129,-2.10938,1.42822,-156.577,228
1568024293,273.807,118.207,-17.4129,-2.10938,1.42822,-156.577,228
1568024293,273.807,118.207,-17.4129,-2.10938,1.42822,-156.577,228
1568024293,273.807,118.207,-17.4129,-2.10938,1.42822,-156.577,228
1568024293,273.807,118.207,-17.4129,-2.10938,1.42822,-156.577,228
1568024293,273.807,118.207,-17.4129,-2.10938,1.42822,-156.577,228
1568024293,273.807,118.207,-17.4129,-2.10938,1.42822,-156.577,228
1568024293,273.807,118.207,-17.4129,-2.10938,1.42822,-156.577,228
1568024293,273.807,118.207,-17.4129,-2.10938,1.42822,-156.577,228
1568024293,273.807,118.207,-17.4129,-2.10938,1.42822,-156.577,228
1568024293,273.807,118.207,-17.4129,-2.10938,1.42822,-156.555,228
1568024293,273.807,118.207,-17.4129,-2.10938,1.42822,-156.555,228
1568024293,273.807,118.207,-17.4129,-2.10938,1.42822,-156.555,228
1568024293,273.807,118.207,-17.4129,-2.10938,1.42822,-156.555,228
1568024293,273.807,118.207,-17.4129,-2.10938,1.42822,-156.555,228
1568024293,273.807,118.207,-17.4129,-2.10938,1.42822,-156.555,228
1568024293,273.807,118.207,-17.4129,-2.10938,1.42822,-156.555,228
1568024293,273.807,118.207,-17.4129,-2.10938,1.42822,-156.555,228
1568024293,273.807,118.207,-17.4129,-2.10938,1.42822,-156.555,228
1568024293,273.807,118.207,-17.4129,-2.10938,1.42822,-156.555,228
1568024293,273.807,118.207,-17.4129,-2.10938,1.42822,-156.555,228
1568024293,273.807,118.207,-17.4129,-2.10938,1.42822,-156.555,228
1568024293,273.807,118.207,-17.4129,-2.10938,1.42822,-156.555,228
1568024293,273.807,118.207,-17.4129,-2.10938,1.42822,-156.555,228
1568024293,273.807,118.207,-17.4129,-2.10938,1.42822,-156.555,228
1568024293,273.807,118.207,-17.4129,-2.10938,1.42822,-156.555,228
1568024300,235.186,158.837,-17.1896,-2.3291,1.77979,-157.039,176
1568024300,235.186,158.837,-17.1896,-2.3291,1.77979,-157.039,176
1568024300,235.186,158.837,-17.1896,-2.3291,1.77979,-157.039,172
1568024300,235.186,158.837,-17.1896,-2.3291,1.77979,-157.039,172
1568024300,235.186,158.837,-17.1896,-2.3291,1.77979,-157.039,172
1568024300,235.186,158.837,-17.1896,-2.3291,1.77979,-157.039,172
1568024300,235.186,158.837,-17.1896,-2.3291,1.77979,-157.039,172
1568024300,235.186,158.837,-17.1896,-2.3291,1.77979,-157.039,172
1568024300,235.186,158.837,-17.1896,-2.3291,1.77979,-157.039,172
1568024300,235.186,158.837,-17.1896,-2.3291,1.77979,-157.039,172
1568024300,235.186,158.837,-17.1896,-2.3291,1.77979,-157.039,172
1568024300,235.186,158.837,-17.1896,-2.3291,1.77979,-157.039,168
1568024300,235.186,158.837,-17.1896,-2.3291,1.77979,-157.039,168
1568024300,235.186,158.837,-17.1896,-2.3291,1.77979,-157.061,168
1568024300,235.186,158.837,-17.1896,-2.3291,1.77979,-157.061,168
1568024300,235.186,158.837,-17.1896,-2.3291,1.77979,-157.061,168
1568024300,235.186,158.837,-17.1896,-2.3291,1.80176,-157.061,168
1568024300,235.186,158.837,-17.1896,-2.3291,1.80176,-157.061,168
1568024300,235.186,158.837,-17.1896,-2.3291,1.80176,-157.061,168
1568024300,235.186,158.837,-17.1896,-2.3291,1.80176,-157.061,168
1568024301,235.186,158.837,-17.1896,-2.3291,1.80176,-157.061,168
1568024301,235.186,158.837,-17.1896,-2.3291,1.80176,-157.061,168
1568024301,235.186,158.837,-17.1896,-2.3291,1.80176,-157.061,168
1568024301,235.186,158.837,-17.1896,-2.3291,1.80176,-157.061,168
1568024301,235.186,158.837,-17.1896,-2.3291,1.80176,-157.061,168
1568024301,235.186,158.837,-17.1896,-2.3291,1.80176,-157.061,168
1568024301,235.186,158.837,-17.1896,-2.3291,1.80176,-157.061,168
1568024301,235.186,158.837,-17.1896,-2.3291,1.80176,-157.039,168
1568024301,235.186,158.837,-17.1896,-2.3291,1.80176,-157.039,168
1568024301,235.186,158.837,-17.1896,-2.3291,1.80176,-157.039,168
1568024301,235.186,158.837,-17.1896,-2.3291,1.80176,-157.039,168
1568024301,235.186,158.837,-17.1896,-2.3291,1.80176,-157.039,164
1568024301,235.186,158.837,-17.1896,-2.3291,1.80176,-157.061,164
1568024301,235.186,158.837,-17.1896,-2.3291,1.77979,-157.061,164
1568024301,235.186,158.837,-17.1896,-2.3291,1.77979,-157.061,164
1568024301,235.186,158.837,-17.1896,-2.3291,1.77979,-157.061,164
1568024301,235.186,158.837,-17.1896,-2.3291,1.77979,-157.061,164
1568024301,235.186,158.837,-17.1896,-2.3291,1.77979,-157.061,164
1568024301,235.186,158.837,-17.1896,-2.3291,1.77979,-157.061,164
1568024301,235.186,158.837,-17.1896,-2.3291,1.77979,-157.061,164
1568024301,235.186,158.837,-17.1896,-2.3291,1.77979,-157.061,164
1568024301,235.186,158.837,-17.1896,-2.3291,1.77979,-157.061,164
1568024301,235.186,158.837,-17.1896,-2.3291,1.77979,-157.061,164
1568024301,235.186,158.837,-17.1896,-2.3291,1.77979,-157.061,164
1568024301,235.186,158.837,-17.1896,-2.3291,1.77979,-157.061,164
1568024301,235.186,158.837,-17.1896,-2.3291,1.77979,-157.061,164
1568024301,235.186,158.837,-17.1896,-2.3291,1.80176,-157.061,164
1568024301,235.186,158.837,-17.1896,-2.3291,1.80176,-157.061,164
1568024301,235.186,158.837,-17.1896,-2.3291,1.80176,-157.061,164
1568024301,235.186,158.837,-17.1896,-2.3291,1.80176,-157.061,164
1568024301,235.186,158.837,-17.1896,-2.3291,1.80176,-157.061,164
1568024301,235.186,158.837,-17.1896,-2.3291,1.80176,-157.061,164
1568024301,235.186,158.837,-17.1896,-2.3291,1.80176,-157.061,164
1568024301,235.186,158.837,-17.1896,-2.3291,1.80176,-157.061,164
1568024301,235.186,158.837,-17.1896,-2.3291,1.77979,-157.061,164
1568024301,235.186,158.837,-17.1896,-2.3291,1.77979,-157.061,164
1568024301,235.186,158.837,-17.1896,-2.3291,1.77979,-157.061,164
1568024301,235.186,158.837,-17.1896,-2.3291,1.77979,-157.061,164
1568024301,235.186,158.837,-17.1896,-2.3291,1.77979,-157.061,164
1568024301,235.186,158.837,-17.1896,-2.3291,1.77979,-157.061,164
1568024301,235.186,158.837,-17.1896,-2.3291,1.77979,-157.061,164
1568024301,235.186,158.837,-17.1896,-2.3291,1.77979,-157.061,164
1568024301,235.186,158.837,-17.1896,-2.3291,1.77979,-157.061,164
1568024301,235.186,158.837,-17.1896,-2.3291,1.80176,-157.061,164
1568024301,235.186,158.837,-17.1896,-2.3291,1.80176,-157.061,168
1568024301,235.186,158.837,-17.1896,-2.3291,1.80176,-157.061,168
1568024301,235.186,158.837,-17.1896,-2.3291,1.80176,-157.061,168
1568024301,235.186,158.837,-17.1896,-2.3291,1.80176,-157.061,168
1568024301,235.186,158.837,-17.1896,-2.35107,1.80176,-157.061,168
1568024301,235.186,158.837,-17.1896,-2.35107,1.80176,-157.061,168
1568024301,235.186,158.837,-17.1896,-2.35107,1.80176,-157.061,168
1568024301,235.186,158.837,-17.1896,-2.35107,1.80176,-157.061,168
1568024301,235.186,158.837,-17.1896,-2.35107,1.80176,-157.061,168
1568024301,235.186,158.837,-17.1896,-2.35107,1.80176,-157.061,168
1568024301,235.186,158.837,-17.1896,-2.35107,1.80176,-157.061,168
1568024301,235.186,158.837,-17.1896,-2.35107,1.80176,-157.061,168
1568024301,235.186,158.837,-17.1896,-2.35107,1.80176,-157.061,168
1568024301,235.186,158.837,-17.1896,-2.35107,1.80176,-157.061,168
1568024301,235.186,158.837,-17.1896,-2.35107,1.80176,-157.061,168
1568024301,235.186,158.837,-17.1896,-2.35107,1.80176,-157.061,168
1568024301,235.186,158.837,-17.1896,-2.35107,1.80176,-157.061,168
1568024301,235.186,158.837,-17.1896,-2.35107,1.80176,-157.061,168
1568024301,235.186,158.837,-17.1896,-2.35107,1.80176,-157.061,168
1568024301,235.186,158.837,-17.1896,-2.35107,1.80176,-157.061,168
1568024301,235.186,158.837,-17.1896,-2.35107,1.80176,-157.061,168
1568024301,235.186,158.837,-17.1896,-2.35107,1.80176,-157.061,168
1568024301,235.186,158.837,-17.1896,-2.35107,1.80176,-157.061,168
1568024301,235.186,158.837,-17.1896,-2.35107,1.80176,-157.061,168
1568024301,235.186,158.837,-17.1896,-2.35107,1.80176,-157.061,168
1568024301,235.186,158.837,-17.1896,-2.35107,1.80176,-157.061,168
1568024301,235.186,158.837,-17.1896,-2.35107,1.80176,-157.061,168
1568024301,235.186,158.837,-17.1896,-2.35107,1.80176,-157.061,168
1568024301,235.186,158.837,-17.1896,-2.35107,1.80176,-157.061,168
1568024301,235.186,158.837,-17.1896,-2.35107,1.80176,-157.061,168
1568024301,235.297,158.837,-17.1896,-2.35107,1.77979,-157.061,168
1568024301,235.297,158.837,-17.1896,-2.35107,1.77979,-157.061,168
1568024301,235.297,158.837,-17.1896,-2.35107,1.77979,-157.061,168
1568024301,235.186,158.837,-17.1896,-2.35107,1.77979,-157.061,168
1568024301,235.186,158.837,-17.1896,-2.35107,1.77979,-157.061,168
1568024301,235.186,158.837,-17.1896,-2.35107,1.77979,-157.061,164
1568024301,235.186,158.837,-17.1896,-2.35107,1.77979,-157.061,164
1568024301,235.186,158.837,-17.1896,-2.35107,1.77979,-157.061,164
1568024301,235.186,158.837,-17.1896,-2.35107,1.77979,-157.061,164
1568024301,235.186,158.837,-17.1896,-2.35107,1.77979,-157.061,164
1568024301,235.186,158.837,-17.1896,-2.35107,1.77979,-157.061,164
1568024301,235.186,158.837,-17.1896,-2.35107,1.77979,-157.061,164
1568024301,235.186,158.837,-17.1896,-2.35107,1.77979,-157.061,164
1568024301,235.186,158.837,-17.1896,-2.35107,1.77979,-157.061,164
1568024301,235.186,158.837,-17.1896,-2.35107,1.77979,-157.061,164
1568024301,235.186,158.837,-17.1896,-2.35107,1.77979,-157.061,164
1568024301,235.186,158.837,-17.1896,-2.35107,1.77979,-157.061,164
1568024301,235.186,158.837,-17.1896,-2.35107,1.77979,-157.061,164
1568024301,235.186,158.837,-17.1896,-2.35107,1.77979,-157.061,164
1568024301,235.186,158.837,-17.1896,-2.35107,1.77979,-157.061,164
1568024301,235.186,158.837,-17.1896,-2.35107,1.77979,-157.061,164
1568024301,235.186,158.837,-17.1896,-2.35107,1.77979,-157.061,164
1568024301,235.186,158.837,-17.1896,-2.35107,1.77979,-157.061,164
1568024301,235.186,158.837,-17.1896,-2.35107,1.77979,-157.061,164
1568024301,235.186,158.837,-17.1896,-2.35107,1.77979,-157.061,164
1568024301,235.186,158.837,-17.1896,-2.35107,1.77979,-157.061,168
1568024302,235.186,158.837,-17.1896,-2.35107,1.77979,-157.061,168
1568024302,235.186,158.837,-17.1896,-2.35107,1.77979,-157.061,168
1568024302,235.186,158.837,-17.1896,-2.35107,1.77979,-157.061,168
1568024302,235.186,158.837,-17.1896,-2.35107,1.77979,-157.061,168
1568024302,235.186,158.837,-17.1896,-2.35107,1.77979,-157.061,168
1568024302,235.186,158.837,-17.1896,-2.35107,1.77979,-157.061,168
1568024302,235.186,158.837,-17.1896,-2.35107,1.77979,-157.061,168
1568024302,235.186,158.837,-17.1896,-2.35107,1.77979,-157.061,168
1568024302,235.186,158.837,-17.1896,-2.35107,1.77979,-157.061,168
1568024302,235.186,158.837,-17.1896,-2.3291,1.77979,-157.061,168
1568024302,235.186,158.837,-17.1896,-2.3291,1.77979,-157.061,168
1568024302,235.186,158.837,-17.1896,-2.3291,1.77979,-157.061,168
1568024302,235.186,158.837,-17.1896,-2.3291,1.77979,-157.061,168
1568024302,235.186,158.837,-17.1896,-2.3291,1.77979,-157.061,168
1568024302,235.186,158.837,-17.1896,-2.3291,1.77979,-157.061,168
1568024302,235.186,158.837,-17.1896,-2.3291,1.77979,-157.061,168
1568024302,235.186,158.837,-17.1896,-2.3291,1.77979,-157.039,168
1568024302,235.186,158.837,-17.1896,-2.3291,1.77979,-157.039,168
1568024302,235.186,158.837,-17.1896,-2.3291,1.77979,-157.039,168
1568024302,235.186,158.837,-17.1896,-2.3291,1.77979,-157.039,168
1568024302,235.186,158.837,-17.1896,-2.3291,1.77979,-157.039,168
1568024302,235.186,158.837,-17.1896,-2.3291,1.77979,-157.039,168
1568024302,235.186,158.837,-17.1896,-2.3291,1.77979,-157.039,168
1568024302,235.186,158.837,-17.1896,-2.3291,1.77979,-157.039,168
1568024302,235.186,158.837,-17.1896,-2.3291,1.77979,-157.039,168
1568024302,235.186,158.837,-17.1896,-2.3291,1.77979,-157.039,168
1568024302,235.186,158.837,-17.1896,-2.3291,1.77979,-157.039,168
1568024302,235.186,158.837,-17.1896,-2.3291,1.77979,-157.039,168
1568024302,235.186,158.837,-17.1896,-2.3291,1.77979,-157.039,168
1568024302,235.186,158.837,-17.1896,-2.3291,1.77979,-157.039,168
1568024302,235.186,158.837,-17.1896,-2.3291,1.77979,-157.039,168
1568024302,235.186,158.948,-17.1896,-2.3291,1.77979,-157.039,168
1568024302,235.186,158.948,-17.1896,-2.3291,1.77979,-157.039,168
1568024302,235.186,158.837,-17.1896,-2.3291,1.77979,-157.039,168
1568024302,235.186,158.837,-17.1896,-2.3291,1.77979,-157.039,168
1568024302,235.186,158.837,-17.1896,-2.3291,1.77979,-157.039,168
1568024302,235.186,158.837,-17.1896,-2.3291,1.77979,-157.039,168
1568024302,235.186,158.837,-17.1896,-2.3291,1.77979,-157.039,168
1568024302,235.186,158.837,-17.1896,-2.3291,1.77979,-157.039,168
1568024302,235.186,158.948,-17.1896,-2.3291,1.77979,-157.039,168
1568024302,235.186,158.948,-17.1896,-2.3291,1.77979,-157.039,168
1568024302,235.186,158.837,-17.1896,-2.3291,1.77979,-157.039,168
1568024302,235.186,158.948,-17.1896,-2.3291,1.77979,-157.039,168
1568024302,235.186,158.948,-17.1896,-2.3291,1.77979,-157.039,168
1568024302,235.186,158.948,-17.1896,-2.3291,1.77979,-157.039,168
1568024302,235.186,158.948,-17.1896,-2.3291,1.77979,-157.039,168
1568024302,235.186,158.948,-17.1896,-2.3291,1.77979,-157.039,168
1568024302,235.186,158.948,-17.1896,-2.3291,1.77979,-157.039,168
1568024302,235.186,158.948,-17.1896,-2.3291,1.80176,-157.039,168
1568024302,235.186,158.948,-17.1896,-2.3291,1.80176,-157.061,168
1568024302,235.186,158.948,-17.1896,-2.3291,1.80176,-157.061,168
1568024302,235.186,158.948,-17.1896,-2.3291,1.80176,-157.061,168
1568024302,235.186,158.948,-17.1896,-2.3291,1.80176,-157.061,168
1568024302,235.186,158.948,-17.1896,-2.3291,1.80176,-157.061,168
1568024302,235.186,158.948,-17.1896,-2.3291,1.80176,-157.061,168
1568024302,235.186,158.948,-17.1896,-2.3291,1.80176,-157.061,168
1568024302,235.186,158.948,-17.3013,-2.3291,1.80176,-157.061,168
1568024302,235.186,158.948,-17.3013,-2.3291,1.80176,-157.061,168
1568024302,235.186,158.948,-17.3013,-2.3291,1.80176,-157.061,168
1568024302,235.186,158.948,-17.3013,-2.3291,1.80176,-157.061,164
1568024302,235.186,158.948,-17.3013,-2.3291,1.80176,-157.061,164
1568024302,235.186,158.948,-17.3013,-2.3291,1.80176,-157.061,164
1568024302,235.186,158.948,-17.3013,-2.3291,1.80176,-157.061,164
1568024302,235.186,158.948,-17.3013,-2.3291,1.80176,-157.061,164
1568024302,235.186,158.948,-17.3013,-2.3291,1.80176,-157.039,164
1568024302,235.186,158.948,-17.3013,-2.3291,1.80176,-157.039,164
1568024302,235.186,158.948,-17.1896,-2.3291,1.80176,-157.039,164
1568024302,235.186,158.948,-17.1896,-2.3291,1.80176,-157.039,164
1568024302,235.186,158.948,-17.1896,-2.3291,1.80176,-157.039,164
1568024302,235.186,158.948,-17.1896,-2.3291,1.80176,-157.039,164
1568024302,235.186,158.948,-17.1896,-2.3291,1.80176,-157.039,164
1568024302,235.186,158.948,-17.1896,-2.3291,1.80176,-157.039,164
1568024302,235.186,158.948,-17.1896,-2.3291,1.80176,-157.039,164
1568024302,235.186,158.948,-17.1896,-2.3291,1.80176,-157.039,164
1568024302,235.186,158.948,-17.1896,-2.3291,1.80176,-157.039,164
1568024302,235.186,158.948,-17.1896,-2.3291,1.80176,-157.061,164
1568024302,235.186,158.948,-17.1896,-2.3291,1.80176,-157.061,164
1568024302,235.186,158.948,-17.1896,-2.3291,1.80176,-157.061,164
1568024302,235.186,158.948,-17.1896,-2.3291,1.80176,-157.061,164
1568024302,235.186,158.948,-17.1896,-2.3291,1.80176,-157.061,164
1568024302,235.186,158.948,-17.1896,-2.3291,1.80176,-157.061,164
1568024302,235.186,158.948,-17.1896,-2.3291,1.80176,-157.061,164
1568024302,235.186,158.948,-17.1896,-2.3291,1.80176,-157.061,164
1568024302,235.186,158.948,-17.1896,-2.3291,1.80176,-157.061,164
1568024302,235.186,158.948,-17.1896,-2.3291,1.80176,-157.061,164
1568024302,235.186,158.948,-17.1896,-2.3291,1.77979,-157.061,164
1568024302,235.186,158.948,-17.1896,-2.3291,1.77979,-157.061,164
1568024302,235.186,158.948,-17.1896,-2.3291,1.77979,-157.061,164
1568024302,235.186,158.948,-17.1896,-2.3291,1.77979,-157.061,164
1568024302,235.186,158.948,-17.1896,-2.3291,1.77979,-157.061,164
1568024302,235.186,158.948,-17.1896,-2.3291,1.77979,-157.061,164
1568024302,235.186,158.948,-17.1896,-2.3291,1.77979,-157.061,164
1568024302,235.186,158.948,-17.1896,-2.3291,1.77979,-157.061,164
1568024302,235.186,158.948,-17.1896,-2.3291,1.77979,-157.061,164
1568024302,235.186,158.948,-17.1896,-2.3291,1.77979,-157.061,164
1568024302,235.186,158.948,-17.1896,-2.3291,1.77979,-157.061,164
1568024302,235.186,158.948,-17.1896,-2.3291,1.77979,-157.061,164
1568024302,235.186,158.948,-17.1896,-2.3291,1.77979,-157.061,168
1568024302,235.186,158.948,-17.1896,-2.3291,1.77979,-157.061,168
1568024302,235.186,158.948,-17.1896,-2.3291,1.77979,-157.061,168
1568024303,235.186,158.948,-17.1896,-2.3291,1.77979,-157.061,168
1568024303,235.186,158.948,-17.1896,-2.3291,1.77979,-157.061,168
1568024303,235.186,158.948,-17.1896,-2.3291,1.77979,-157.061,168
1568024303,235.186,158.948,-17.1896,-2.3291,1.80176,-157.061,168
1568024303,235.186,158.948,-17.1896,-2.3291,1.80176,-157.061,168
1568024303,235.186,158.948,-17.1896,-2.3291,1.80176,-157.061,168
1568024303,235.186,158.948,-17.1896,-2.3291,1.80176,-157.061,168
1568024303,235.186,158.948,-17.1896,-2.3291,1.80176,-157.039,168
1568024303,235.186,158.948,-17.1896,-2.3291,1.80176,-157.039,168
1568024303,235.186,158.837,-17.1896,-2.3291,1.80176,-157.039,168
1568024303,235.186,158.837,-17.1896,-2.3291,1.80176,-157.039,168
1568024303,235.186,158.837,-17.1896,-2.3291,1.80176,-157.039,168
1568024303,235.186,158.837,-17.1896,-2.3291,1.80176,-157.039,168
1568024303,235.186,158.837,-17.1896,-2.3291,1.80176,-157.039,168
1568024303,235.186,158.837,-17.1896,-2.3291,1.80176,-157.039,168
1568024303,235.186,158.837,-17.1896,-2.3291,1.80176,-157.039,168
1568024303,235.186,158.837,-17.1896,-2.3291,1.80176,-157.061,168
1568024303,235.186,158.837,-17.1896,-2.3291,1.80176,-157.061,168
1568024303,235.186,158.837,-17.1896,-2.3291,1.80176,-157.061,168
1568024303,235.186,158.837,-17.1896,-2.3291,1.80176,-157.061,168
1568024303,235.186,158.837,-17.1896,-2.3291,1.80176,-157.061,168
1568024303,235.186,158.837,-17.1896,-2.3291,1.80176,-157.061,168
1568024303,235.186,158.837,-17.1896,-2.3291,1.80176,-157.061,168
1568024303,235.186,158.837,-17.1896,-2.3291,1.80176,-157.061,168
1568024303,235.186,158.837,-17.1896,-2.3291,1.80176,-157.061,168
1568024303,235.186,158.837,-17.1896,-2.3291,1.80176,-157.061,168
1568024303,235.186,158.837,-17.1896,-2.3291,1.80176,-157.061,172
1568024303,235.186,158.837,-17.1896,-2.3291,1.80176,-157.061,172
1568024303,235.186,158.837,-17.1896,-2.3291,1.80176,-157.061,172
1568024303,235.186,158.837,-17.1896,-2.3291,1.80176,-157.061,172
1568024303,235.186,158.837,-17.1896,-2.3291,1.80176,-157.061,172
1568024303,235.186,158.837,-17.1896,-2.3291,1.80176,-157.061,172
1568024303,235.186,158.837,-17.1896,-2.3291,1.80176,-157.061,172
1568024303,235.186,158.837,-17.1896,-2.3291,1.80176,-157.061,172
1568024303,235.186,158.837,-17.1896,-2.3291,1.80176,-157.061,172
1568024303,235.186,158.837,-17.1896,-2.3291,1.80176,-157.061,176
1568024303,235.186,158.837,-17.1896,-2.3291,1.80176,-157.061,176
1568024303,235.186,158.837,-17.1896,-2.3291,1.80176,-157.061,176
1568024303,235.186,158.837,-17.1896,-2.3291,1.80176,-157.061,176
1568024303,235.186,158.837,-17.1896,-2.3291,1.80176,-157.061,176
1568024303,235.186,158.837,-17.1896,-2.3291,1.80176,-157.061,176
1568024303,235.186,158.837,-17.1896,-2.3291,1.80176,-157.061,176
1568024303,235.186,158.837,-17.1896,-2.3291,1.80176,-157.061,176
1568024303,235.186,158.837,-17.1896,-2.3291,1.80176,-157.039,176
1568024303,235.186,158.837,-17.1896,-2.3291,1.77979,-157.039,176
1568024303,235.186,158.837,-17.1896,-2.3291,1.77979,-157.039,176
1568024303,235.186,158.837,-17.1896,-2.3291,1.77979,-157.039,176
1568024303,235.186,158.837,-17.1896,-2.3291,1.77979,-157.039,172
1568024303,235.186,158.837,-17.1896,-2.3291,1.77979,-157.039,172
1568024303,235.186,158.837,-17.1896,-2.3291,1.77979,-157.039,172
1568024303,235.186,158.837,-17.1896,-2.3291,1.77979,-157.039,172
1568024303,235.186,158.837,-17.1896,-2.3291,1.77979,-157.039,172
1568024303,235.186,158.837,-17.1896,-2.3291,1.77979,-157.039,172
1568024303,235.186,158.837,-17.1896,-2.3291,1.77979,-157.039,172
1568024303,235.186,158.837,-17.1896,-2.3291,1.77979,-157.039,172
1568024303,235.186,158.837,-17.1896,-2.3291,1.77979,-157.039,172
1568024303,235.186,158.837,-17.1896,-2.3291,1.77979,-157.039,172
1568024303,235.186,158.837,-17.1896,-2.3291,1.77979,-157.039,172
1568024303,235.186,158.837,-17.1896,-2.3291,1.80176,-157.039,168
1568024303,235.186,158.837,-17.1896,-2.3291,1.80176,-157.039,168
1568024303,235.186,158.837,-17.1896,-2.3291,1.80176,-157.039,168
1568024303,235.186,158.837,-17.1896,-2.3291,1.80176,-157.039,168
1568024303,235.186,158.837,-17.1896,-2.3291,1.80176,-157.039,168
1568024303,235.186,158.837,-17.1896,-2.3291,1.77979,-157.039,168
1568024303,235.186,158.837,-17.1896,-2.3291,1.77979,-157.039,168
1568024303,235.186,158.837,-17.1896,-2.3291,1.77979,-157.039,168
1568024303,235.186,158.837,-17.1896,-2.3291,1.77979,-157.039,168
1568024303,235.186,158.837,-17.1896,-2.35107,1.77979,-157.039,168
1568024303,235.186,158.837,-17.1896,-2.35107,1.77979,-157.039,168
1568024303,235.186,158.837,-17.1896,-2.35107,1.77979,-157.039,168
1568024303,235.186,158.837,-17.1896,-2.35107,1.77979,-157.039,168
1568024303,235.186,158.837,-17.1896,-2.35107,1.77979,-157.039,168
1568024303,235.186,158.837,-17.1896,-2.35107,1.77979,-157.039,168
1568024303,235.186,158.837,-17.1896,-2.35107,1.77979,-157.039,168
1568024303,235.186,158.837,-17.1896,-2.35107,1.77979,-157.039,168
1568024303,235.186,158.837,-17.1896,-2.35107,1.77979,-157.039,168
1568024303,235.186,158.837,-17.1896,-2.35107,1.77979,-157.039,168
1568024303,235.186,158.837,-17.1896,-2.35107,1.77979,-157.039,168
1568024303,235.186,158.837,-17.1896,-2.35107,1.77979,-157.039,168
1568024303,235.186,158.837,-17.1896,-2.35107,1.77979,-157.039,168
1568024303,235.186,158.837,-17.1896,-2.35107,1.77979,-157.039,168
1568024303,235.186,158.837,-17.1896,-2.3291,1.77979,-157.039,168
1568024303,235.186,158.837,-17.1896,-2.3291,1.77979,-157.039,168
1568024303,235.186,158.837,-17.1896,-2.3291,1.77979,-157.039,168
1568024303,235.186,158.837,-17.1896,-2.3291,1.77979,-157.039,168
1568024303,235.186,158.837,-17.1896,-2.3291,1.77979,-157.039,168
1568024303,235.186,158.948,-17.1896,-2.3291,1.77979,-157.039,168
1568024303,235.186,158.948,-17.1896,-2.3291,1.77979,-157.039,168
1568024303,235.186,158.948,-17.1896,-2.3291,1.77979,-157.039,168
1568024303,235.186,158.948,-17.1896,-2.3291,1.77979,-157.039,168
1568024303,235.186,158.948,-17.1896,-2.3291,1.77979,-157.039,168
1568024303,235.186,158.948,-17.1896,-2.3291,1.77979,-157.039,168
1568024303,235.186,158.948,-17.1896,-2.3291,1.77979,-157.039,168
