time,x,y,z,ax,ay,az,q
1567619322,370.582,115.416,24.2218,178.792,-0.285645,88.5938,112
1567619322,370.582,115.416,24.2218,178.792,-0.285645,88.5938,112
1567619322,370.582,115.416,24.2218,178.792,-0.285645,88.5938,112
1567619322,370.582,115.416,24.2218,178.792,-0.285645,88.5938,112
1567619322,370.582,115.416,24.2218,178.792,-0.285645,88.5938,112
1567619322,370.582,115.416,24.2218,178.792,-0.285645,88.5938,112
1567619322,370.582,115.416,24.2218,178.792,-0.285645,88.5938,112
1567619322,370.582,115.416,24.2218,178.792,-0.285645,88.5938,112
1567619322,370.582,115.416,24.2218,178.792,-0.285645,88.5938,112
1567619322,370.582,115.416,24.2218,178.792,-0.285645,88.5938,112
1567619322,370.582,115.416,24.2218,178.792,-0.285645,88.5938,112
1567619322,370.582,115.416,24.2218,178.792,-0.307617,88.5938,112
1567619322,370.582,115.416,24.2218,178.792,-0.307617,88.5938,112
1567619322,370.582,115.416,24.2218,178.792,-0.307617,88.5938,112
1567619322,370.582,115.416,24.2218,178.792,-0.307617,88.5938,112
1567619322,370.582,115.416,24.2218,178.792,-0.307617,88.5938,112
1567619322,370.582,115.416,24.2218,178.792,-0.307617,88.5938,112
1567619322,370.582,115.416,24.1102,178.792,-0.307617,88.5938,112
1567619322,370.582,115.416,24.2218,178.792,-0.307617,88.5938,112
1567619322,370.582,115.416,24.2218,178.792,-0.307617,88.5938,112
1567619322,370.582,115.416,24.2218,178.792,-0.307617,88.5938,112
1567619322,370.582,115.416,24.2218,178.792,-0.307617,88.5938,112
1567619322,370.582,115.416,24.2218,178.792,-0.307617,88.5938,112
1567619322,370.582,115.416,24.2218,178.792,-0.307617,88.5938,112
1567619322,370.582,115.416,24.2218,178.792,-0.285645,88.5938,112
1567619322,370.582,115.416,24.2218,178.792,-0.285645,88.5938,112
1567619322,370.582,115.416,24.2218,178.792,-0.285645,88.5938,112
1567619322,370.582,115.416,24.2218,178.792,-0.285645,88.5938,112
1567619322,370.582,115.416,24.2218,178.792,-0.285645,88.5938,112
1567619322,370.582,115.416,24.2218,178.792,-0.285645,88.5938,112
1567619322,370.582,115.416,24.2218,178.792,-0.285645,88.5938,112
1567619322,370.582,115.416,24.2218,178.792,-0.285645,88.5938,112
1567619322,370.582,115.416,24.2218,178.792,-0.285645,88.5938,112
1567619322,370.582,115.416,24.2218,178.792,-0.285645,88.5938,112
1567619322,370.582,115.416,24.2218,178.792,-0.307617,88.5938,112
1567619322,370.582,115.416,24.1102,178.792,-0.307617,88.5938,112
1567619322,370.582,115.416,24.1102,178.792,-0.307617,88.5938,112
1567619322,370.582,115.416,24.1102,178.792,-0.307617,88.5938,112
1567619322,370.582,115.416,24.1102,178.792,-0.307617,88.5938,112
1567619322,370.582,115.416,24.1102,178.792,-0.307617,88.5938,112
1567619322,370.582,115.416,24.1102,178.792,-0.307617,88.5938,112
1567619322,370.582,115.416,24.1102,178.792,-0.307617,88.5938,112
1567619322,370.582,115.416,24.1102,178.792,-0.307617,88.5938,112
1567619322,370.582,115.416,24.1102,178.792,-0.307617,88.5938,112
1567619322,370.582,115.416,24.1102,178.792,-0.307617,88.5938,112
1567619322,370.582,115.416,24.1102,178.792,-0.307617,88.5938,112
1567619322,370.582,115.416,24.1102,178.792,-0.307617,88.5938,112
1567619322,370.582,115.416,24.2218,178.792,-0.307617,88.5938,112
1567619322,370.582,115.416,24.2218,178.792,-0.307617,88.5938,112
1567619322,370.582,115.416,24.2218,178.792,-0.285645,88.5938,112
1567619322,370.582,115.416,24.2218,178.792,-0.285645,88.5938,112
1567619322,370.582,115.416,24.2218,178.792,-0.285645,88.5938,112
1567619322,370.582,115.416,24.2218,178.792,-0.285645,88.5938,112
1567619322,370.582,115.416,24.2218,178.792,-0.285645,88.5938,112
1567619322,370.582,115.416,24.2218,178.792,-0.285645,88.5938,112
1567619322,370.582,115.416,24.2218,178.792,-0.285645,88.5938,112
1567619322,370.582,115.416,24.2218,178.792,-0.285645,88.5938,112
1567619322,370.582,115.416,24.2218,178.792,-0.285645,88.5938,112
1567619322,370.582,115.416,24.2218,178.792,-0.285645,88.5938,112
1567619322,370.582,115.416,24.2218,178.792,-0.285645,88.5938,112
1567619322,370.582,115.416,24.2218,178.792,-0.285645,88.5938,112
1567619322,370.582,115.416,24.2218,178.792,-0.285645,88.5938,112
1567619322,370.582,115.416,24.2218,178.792,-0.285645,88.5938,112
1567619322,370.582,115.416,24.2218,178.792,-0.285645,88.5938,112
1567619322,370.582,115.416,24.2218,178.792,-0.285645,88.5938,112
1567619322,370.582,115.416,24.2218,178.792,-0.285645,88.5938,112
1567619322,370.582,115.416,24.2218,178.792,-0.285645,88.5938,112
1567619322,370.582,115.416,24.2218,178.792,-0.285645,88.5938,112
1567619322,370.582,115.416,24.2218,178.792,-0.285645,88.5938,112
1567619322,370.582,115.416,24.2218,178.792,-0.285645,88.5938,112
1567619322,370.582,115.416,24.2218,178.792,-0.285645,88.5938,112
1567619322,370.582,115.416,24.2218,178.792,-0.285645,88.5938,112
1567619322,370.582,115.416,24.2218,178.792,-0.285645,88.5938,112
1567619322,370.582,115.416,24.2218,178.792,-0.285645,88.5938,112
1567619322,370.582,115.416,24.2218,178.792,-0.285645,88.5938,112
1567619322,370.582,115.416,24.2218,178.792,-0.285645,88.5938,112
1567619322,370.582,115.416,24.2218,178.792,-0.285645,88.5938,112
1567619322,370.582,115.416,24.2218,178.792,-0.285645,88.5938,112
1567619322,370.582,115.416,24.2218,178.792,-0.285645,88.5938,112
1567619322,370.582,115.416,24.2218,178.792,-0.285645,88.5938,112
1567619322,370.582,115.416,24.2218,178.792,-0.285645,88.5938,112
1567619322,370.582,115.416,24.2218,178.792,-0.285645,88.5938,112
1567619322,370.582,115.416,24.2218,178.792,-0.285645,88.5938,112
1567619322,370.582,115.416,24.2218,178.792,-0.285645,88.5938,112
1567619322,370.582,115.416,24.2218,178.792,-0.285645,88.5938,112
1567619322,370.582,115.416,24.2218,178.792,-0.285645,88.5938,112
1567619322,370.582,115.416,24.2218,178.792,-0.285645,88.5938,112
1567619322,370.582,115.416,24.2218,178.792,-0.285645,88.5938,112
1567619322,370.582,115.416,24.2218,178.792,-0.285645,88.5938,112
1567619322,370.582,115.416,24.2218,178.792,-0.285645,88.5938,112
1567619322,370.582,115.416,24.2218,178.792,-0.285645,88.5938,112
1567619322,370.582,115.416,24.2218,178.792,-0.285645,88.5938,112
1567619322,370.582,115.416,24.2218,178.792,-0.285645,88.5938,112
1567619322,370.582,115.416,24.2218,178.792,-0.285645,88.5938,112
1567619322,370.582,115.416,24.2218,178.792,-0.285645,88.5938,112
1567619322,370.582,115.416,24.2218,178.792,-0.285645,88.5938,112
1567619322,370.582,115.416,24.2218,178.792,-0.285645,88.5938,112
1567619323,370.582,115.416,24.2218,178.792,-0.285645,88.5938,112
1567619323,370.582,115.416,24.2218,178.792,-0.285645,88.5938,112
1567619323,370.582,115.416,24.2218,178.792,-0.285645,88.5938,112
1567619323,370.582,115.416,24.2218,178.792,-0.285645,88.5938,112
1567619323,370.582,115.416,24.2218,178.792,-0.285645,88.5938,112
1567619323,370.582,115.416,24.2218,178.792,-0.285645,88.5938,112
1567619323,370.582,115.416,24.2218,178.792,-0.285645,88.5938,112
1567619323,370.582,115.416,24.2218,178.792,-0.285645,88.5938,112
1567619323,370.582,115.416,24.2218,178.792,-0.285645,88.5938,112
1567619323,370.582,115.416,24.2218,178.792,-0.285645,88.5938,112
1567619323,370.582,115.416,24.2218,178.792,-0.285645,88.5938,112
1567619323,370.582,115.416,24.2218,178.792,-0.285645,88.5938,112
1567619323,370.582,115.416,24.2218,178.792,-0.285645,88.5938,112
1567619323,370.582,115.416,24.2218,178.792,-0.285645,88.5938,112
1567619323,370.582,115.416,24.2218,178.792,-0.285645,88.5938,112
1567619323,370.582,115.416,24.2218,178.792,-0.285645,88.5938,112
1567619323,370.582,115.416,24.2218,178.792,-0.307617,88.5938,112
1567619323,370.582,115.416,24.2218,178.792,-0.307617,88.5938,112
1567619323,370.582,115.416,24.2218,178.792,-0.307617,88.5938,112
1567619323,370.582,115.416,24.2218,178.792,-0.307617,88.5938,112
1567619323,370.582,115.416,24.2218,178.792,-0.307617,88.5938,112
1567619323,370.582,115.416,24.2218,178.792,-0.307617,88.5938,112
1567619323,370.582,115.416,24.1102,178.792,-0.307617,88.5938,112
1567619323,370.582,115.416,24.1102,178.792,-0.307617,88.5938,112
1567619323,370.582,115.416,24.1102,178.792,-0.307617,88.5938,112
1567619323,370.582,115.416,24.2218,178.792,-0.307617,88.5938,112
1567619323,370.582,115.416,24.2218,178.792,-0.307617,88.5938,112
1567619323,370.582,115.416,24.2218,178.792,-0.307617,88.5938,112
1567619323,370.582,115.416,24.2218,178.792,-0.307617,88.5938,112
1567619323,370.582,115.416,24.2218,178.792,-0.307617,88.5938,112
1567619323,370.582,115.416,24.2218,178.792,-0.307617,88.5938,112
1567619323,370.582,115.416,24.2218,178.792,-0.307617,88.5938,112
1567619323,370.582,115.416,24.2218,178.792,-0.307617,88.5938,112
1567619323,370.582,115.416,24.2218,178.792,-0.285645,88.5938,112
1567619323,370.582,115.416,24.2218,178.792,-0.285645,88.5938,112
1567619323,370.582,115.416,24.2218,178.792,-0.285645,88.5938,112
1567619323,370.582,115.416,24.2218,178.792,-0.285645,88.5938,112
1567619323,370.582,115.416,24.2218,178.792,-0.285645,88.5938,112
1567619323,370.582,115.416,24.2218,178.792,-0.285645,88.5938,112
1567619323,370.582,115.416,24.2218,178.792,-0.285645,88.5938,112
1567619323,370.582,115.416,24.2218,178.792,-0.285645,88.5938,112
1567619323,370.582,115.416,24.2218,178.792,-0.285645,88.5938,112
1567619323,370.582,115.416,24.2218,178.792,-0.285645,88.5938,112
1567619323,370.582,115.416,24.2218,178.792,-0.285645,88.5938,112
1567619323,370.582,115.416,24.2218,178.792,-0.285645,88.5938,112
1567619323,370.582,115.416,24.2218,178.792,-0.285645,88.5938,112
1567619323,370.582,115.416,24.2218,178.792,-0.285645,88.5938,112
1567619323,370.582,115.416,24.2218,178.792,-0.285645,88.5938,112
1567619323,370.582,115.416,24.2218,178.792,-0.285645,88.5938,112
1567619323,370.582,115.416,24.2218,178.792,-0.285645,88.5938,112
1567619323,370.582,115.416,24.2218,178.792,-0.285645,88.5938,112
1567619323,370.582,115.416,24.2218,178.792,-0.307617,88.5938,112
1567619323,370.582,115.416,24.2218,178.792,-0.307617,88.5938,112
1567619323,370.582,115.416,24.2218,178.792,-0.307617,88.5938,112
1567619323,370.582,115.416,24.2218,178.792,-0.307617,88.5938,112
1567619323,370.582,115.416,24.2218,178.792,-0.307617,88.5938,112
1567619323,370.582,115.416,24.2218,178.792,-0.307617,88.5938,112
1567619323,370.582,115.416,24.1102,178.792,-0.307617,88.5938,112
1567619323,370.582,115.416,24.1102,178.792,-0.307617,88.5938,112
1567619323,370.582,115.416,24.1102,178.792,-0.307617,88.5938,112
1567619323,370.582,115.416,24.1102,178.792,-0.307617,88.5938,112
1567619323,370.582,115.416,24.1102,178.792,-0.307617,88.5938,112
1567619323,370.582,115.416,24.1102,178.792,-0.307617,88.5938,112
1567619323,370.582,115.416,24.1102,178.792,-0.307617,88.5938,112
1567619323,370.582,115.416,24.1102,178.792,-0.307617,88.5938,112
1567619323,370.582,115.416,24.1102,178.792,-0.307617,88.5938,112
1567619323,370.582,115.416,24.1102,178.792,-0.307617,88.5938,112
1567619323,370.582,115.416,24.1102,178.792,-0.307617,88.5938,112
1567619323,370.582,115.416,24.1102,178.792,-0.307617,88.5938,112
1567619323,370.582,115.416,24.1102,178.792,-0.307617,88.5938,112
1567619323,370.582,115.416,24.1102,178.792,-0.307617,88.5938,112
1567619323,370.582,115.416,24.1102,178.792,-0.307617,88.5938,112
1567619323,370.582,115.416,24.2218,178.792,-0.307617,88.5938,112
1567619323,370.582,115.416,24.2218,178.792,-0.307617,88.5938,112
1567619323,370.582,115.416,24.2218,178.792,-0.307617,88.5938,112
1567619323,370.582,115.416,24.2218,178.792,-0.307617,88.5938,112
1567619323,370.582,115.416,24.2218,178.792,-0.307617,88.5938,112
1567619323,370.582,115.416,24.1102,178.792,-0.307617,88.5938,112
1567619323,370.582,115.416,24.1102,178.792,-0.307617,88.5938,112
1567619323,370.582,115.416,24.1102,178.792,-0.307617,88.5938,112
1567619323,370.582,115.416,24.1102,178.792,-0.307617,88.5938,112
1567619323,370.582,115.416,24.1102,178.792,-0.307617,88.5938,112
1567619323,370.582,115.416,24.1102,178.792,-0.307617,88.5938,112
1567619323,370.582,115.416,24.1102,178.792,-0.285645,88.5938,112
1567619323,370.582,115.416,24.2218,178.792,-0.285645,88.5938,112
1567619323,370.582,115.416,24.2218,178.792,-0.285645,88.5938,112
1567619323,370.582,115.416,24.2218,178.792,-0.285645,88.5938,112
1567619323,370.582,115.416,24.2218,178.792,-0.285645,88.5938,112
1567619323,370.582,115.416,24.2218,178.792,-0.285645,88.5938,112
1567619323,370.582,115.416,24.2218,178.792,-0.285645,88.5938,112
1567619323,370.582,115.416,24.2218,178.792,-0.285645,88.5938,112
1567619323,370.582,115.416,24.2218,178.792,-0.285645,88.5938,112
1567619323,370.582,115.416,24.2218,178.792,-0.285645,88.5938,112
1567619323,370.582,115.416,24.2218,178.792,-0.285645,88.5938,112
1567619323,370.582,115.416,24.2218,178.792,-0.285645,88.5938,112
1567619323,370.582,115.416,24.2218,178.792,-0.285645,88.5938,112
1567619323,370.582,115.416,24.2218,178.792,-0.285645,88.5938,112
1567619323,370.582,115.416,24.2218,178.792,-0.285645,88.5938,112
1567619323,370.582,115.416,24.2218,178.792,-0.285645,88.5938,112
1567619323,370.582,115.416,24.2218,178.792,-0.285645,88.5938,112
1567619324,370.582,115.416,24.2218,178.792,-0.285645,88.5938,112
1567619324,370.582,115.416,24.2218,178.792,-0.285645,88.5938,112
1567619324,370.582,115.416,24.2218,178.792,-0.285645,88.5938,112
1567619324,370.582,115.416,24.2218,178.792,-0.285645,88.5938,112
1567619324,370.582,115.416,24.2218,178.792,-0.285645,88.5938,116
1567619324,370.582,115.416,24.2218,178.792,-0.285645,88.5938,116
1567619324,370.582,115.416,24.2218,178.792,-0.285645,88.5938,116
1567619324,370.582,115.416,24.2218,178.792,-0.285645,88.5938,116
1567619324,370.582,115.416,24.2218,178.792,-0.285645,88.5938,116
1567619324,370.582,115.416,24.2218,178.792,-0.307617,88.5938,116
1567619324,370.582,115.416,24.2218,178.792,-0.307617,88.5938,116
1567619324,370.582,115.416,24.2218,178.792,-0.307617,88.5938,116
1567619324,370.582,115.416,24.1102,178.792,-0.307617,88.5938,116
1567619324,370.582,115.416,24.1102,178.792,-0.307617,88.5938,116
1567619324,370.582,115.416,24.1102,178.792,-0.307617,88.5938,116
1567619324,370.582,115.416,24.1102,178.792,-0.307617,88.5938,116
1567619324,370.582,115.416,24.1102,178.792,-0.307617,88.5938,116
1567619324,370.582,115.416,24.1102,178.792,-0.307617,88.5938,116
1567619324,370.582,115.416,24.1102,178.792,-0.307617,88.5938,116
1567619324,370.582,115.416,24.1102,178.792,-0.307617,88.5938,116
1567619324,370.582,115.416,24.1102,178.792,-0.307617,88.5938,116
1567619324,370.582,115.416,24.1102,178.792,-0.307617,88.5938,116
1567619324,370.582,115.416,24.1102,178.792,-0.307617,88.5938,116
1567619324,370.582,115.416,24.1102,178.792,-0.307617,88.5938,116
1567619324,370.582,115.416,24.1102,178.792,-0.307617,88.5938,116
1567619324,370.582,115.416,24.1102,178.792,-0.307617,88.5938,116
1567619324,370.582,115.416,24.1102,178.792,-0.307617,88.5938,116
1567619324,370.582,115.416,24.1102,178.792,-0.307617,88.5938,116
1567619324,370.582,115.416,24.1102,178.792,-0.307617,88.5938,116
1567619324,370.582,115.416,24.1102,178.792,-0.307617,88.5938,116
1567619324,370.582,115.416,24.1102,178.792,-0.307617,88.5938,116
1567619324,370.582,115.416,24.1102,178.792,-0.307617,88.5938,116
1567619324,370.582,115.416,24.1102,178.792,-0.307617,88.5938,116
1567619324,370.582,115.416,24.2218,178.792,-0.307617,88.5938,116
1567619324,370.582,115.416,24.2218,178.792,-0.307617,88.5938,116
1567619324,370.582,115.416,24.2218,178.792,-0.307617,88.5938,116
1567619324,370.582,115.416,24.2218,178.792,-0.307617,88.5938,116
1567619324,370.582,115.416,24.2218,178.792,-0.307617,88.5938,116
1567619324,370.582,115.416,24.2218,178.792,-0.307617,88.5938,116
1567619324,370.582,115.416,24.2218,178.792,-0.307617,88.5938,116
1567619324,370.582,115.416,24.2218,178.792,-0.307617,88.5938,116
1567619324,370.582,115.416,24.2218,178.792,-0.307617,88.5938,116
1567619324,370.582,115.416,24.2218,178.792,-0.307617,88.5938,116
1567619324,370.582,115.416,24.2218,178.792,-0.307617,88.5938,116
1567619324,370.582,115.416,24.2218,178.792,-0.307617,88.5938,116
1567619324,370.582,115.416,24.2218,178.792,-0.307617,88.5938,116
1567619324,370.582,115.416,24.2218,178.792,-0.307617,88.5938,116
1567619324,370.582,115.416,24.2218,178.792,-0.307617,88.5938,116
1567619324,370.582,115.416,24.2218,178.792,-0.307617,88.5938,116
1567619324,370.582,115.416,24.2218,178.792,-0.307617,88.5938,116
1567619324,370.582,115.416,24.2218,178.792,-0.307617,88.5938,116
1567619324,370.582,115.416,24.2218,178.792,-0.307617,88.5938,116
1567619324,370.582,115.416,24.2218,178.792,-0.307617,88.5938,116
1567619324,370.582,115.416,24.2218,178.792,-0.307617,88.5938,116
1567619324,370.582,115.416,24.1102,178.792,-0.307617,88.5938,116
1567619324,370.582,115.416,24.1102,178.792,-0.307617,88.5938,116
1567619324,370.582,115.416,24.1102,178.792,-0.307617,88.5938,112
1567619324,370.582,115.416,24.2218,178.792,-0.307617,88.5938,112
1567619324,370.582,115.416,24.2218,178.792,-0.307617,88.5938,112
1567619324,370.582,115.416,24.2218,178.792,-0.307617,88.5938,112
1567619324,370.582,115.416,24.2218,178.792,-0.307617,88.5938,112
1567619324,370.582,115.416,24.2218,178.792,-0.285645,88.5938,112
1567619324,370.582,115.416,24.2218,178.792,-0.285645,88.5938,112
1567619324,370.582,115.416,24.2218,178.792,-0.285645,88.5938,112
1567619324,370.582,115.416,24.2218,178.792,-0.285645,88.5938,112
1567619324,370.582,115.416,24.2218,178.792,-0.285645,88.5938,112
1567619324,370.582,115.416,24.2218,178.792,-0.285645,88.5938,112
1567619324,370.582,115.416,24.2218,178.792,-0.285645,88.5938,112
1567619324,370.582,115.416,24.2218,178.792,-0.285645,88.5938,112
1567619324,370.582,115.416,24.2218,178.792,-0.285645,88.5938,112
1567619324,370.582,115.416,24.2218,178.792,-0.285645,88.5938,112
1567619324,370.582,115.416,24.2218,178.792,-0.285645,88.5938,112
1567619324,370.582,115.416,24.2218,178.792,-0.285645,88.5938,112
1567619324,370.582,115.416,24.2218,178.792,-0.285645,88.5938,112
1567619324,370.582,115.416,24.2218,178.792,-0.285645,88.5938,112
1567619324,370.582,115.416,24.2218,178.792,-0.285645,88.5938,112
1567619324,370.582,115.416,24.2218,178.792,-0.285645,88.5938,112
1567619324,370.582,115.416,24.2218,178.792,-0.285645,88.5938,112
1567619324,370.582,115.416,24.2218,178.792,-0.285645,88.5938,112
1567619324,370.582,115.416,24.2218,178.792,-0.285645,88.5938,112
1567619324,370.582,115.416,24.2218,178.792,-0.285645,88.5938,112
1567619324,370.582,115.416,24.2218,178.792,-0.285645,88.5938,112
1567619324,370.582,115.416,24.2218,178.792,-0.285645,88.5938,112
1567619324,370.582,115.416,24.2218,178.792,-0.285645,88.5938,112
1567619324,370.582,115.416,24.2218,178.792,-0.285645,88.5938,112
1567619324,370.582,115.416,24.2218,178.792,-0.285645,88.5938,112
1567619324,370.582,115.416,24.2218,178.792,-0.285645,88.5938,112
1567619324,370.582,115.416,24.2218,178.792,-0.285645,88.5938,112
1567619324,370.582,115.416,24.2218,178.792,-0.285645,88.5938,112
1567619324,370.582,115.416,24.2218,178.792,-0.285645,88.5938,116
1567619324,370.582,115.416,24.2218,178.792,-0.285645,88.5938,116
1567619324,370.582,115.416,24.2218,178.792,-0.285645,88.5938,116
1567619324,370.582,115.416,24.2218,178.792,-0.285645,88.5938,116
1567619324,370.582,115.416,24.2218,178.792,-0.285645,88.5938,116
1567619324,370.582,115.416,24.2218,178.792,-0.285645,88.5938,116
1567619324,370.582,115.416,24.2218,178.792,-0.285645,88.5938,116
1567619324,370.582,115.416,24.2218,178.792,-0.285645,88.5938,116
1567619324,370.582,115.416,24.2218,178.792,-0.285645,88.5938,116
1567619324,370.582,115.416,24.2218,178.792,-0.285645,88.5938,116
1567619324,370.582,115.416,24.2218,178.792,-0.285645,88.5938,116
1567619325,370.582,115.416,24.2218,178.792,-0.285645,88.5938,116
1567619325,370.582,115.416,24.2218,178.792,-0.285645,88.5938,116
1567619325,370.582,115.416,24.2218,178.792,-0.285645,88.5938,116
1567619325,370.582,115.416,24.2218,178.792,-0.285645,88.5938,116
1567619325,370.582,115.416,24.2218,178.792,-0.285645,88.5938,116
1567619325,370.582,115.416,24.2218,178.792,-0.285645,88.5938,116
1567619325,370.582,115.416,24.2218,178.792,-0.285645,88.5938,116
1567619325,370.582,115.416,24.2218,178.792,-0.285645,88.5938,116
1567619325,370.582,115.416,24.2218,178.792,-0.285645,88.5938,116
1567619325,370.582,115.416,24.2218,178.792,-0.285645,88.5938,116
1567619325,370.582,115.416,24.2218,178.792,-0.285645,88.5938,116
1567619325,370.582,115.416,24.2218,178.792,-0.285645,88.5938,116
1567619325,370.582,115.416,24.2218,178.792,-0.285645,88.5938,116
1567619325,370.582,115.416,24.2218,178.792,-0.285645,88.5938,116
1567619325,370.582,115.416,24.2218,178.792,-0.285645,88.5938,116
1567619325,370.582,115.416,24.2218,178.792,-0.285645,88.5938,116
1567619325,370.582,115.416,24.2218,178.792,-0.285645,88.5938,116
1567619325,370.582,115.416,24.2218,178.792,-0.285645,88.5938,116
1567619325,370.582,115.416,24.2218,178.792,-0.285645,88.5938,116
1567619325,370.582,115.416,24.2218,178.792,-0.285645,88.5938,116
1567619325,370.582,115.416,24.2218,178.792,-0.285645,88.5938,116
1567619325,370.582,115.416,24.2218,178.792,-0.285645,88.5938,116
1567619325,370.582,115.416,24.2218,178.792,-0.285645,88.5938,116
1567619325,370.582,115.416,24.2218,178.792,-0.285645,88.5938,116
1567619325,370.582,115.416,24.2218,178.792,-0.285645,88.5938,116
1567619325,370.582,115.416,24.2218,178.792,-0.285645,88.5938,116
1567619325,370.582,115.416,24.2218,178.792,-0.285645,88.5938,116
1567619325,370.582,115.416,24.2218,178.792,-0.285645,88.5938,116
1567619325,370.582,115.416,24.2218,178.792,-0.285645,88.5938,116
1567619325,370.582,115.416,24.2218,178.792,-0.285645,88.5938,116
1567619325,370.582,115.416,24.2218,178.792,-0.285645,88.5938,116
1567619325,370.582,115.416,24.2218,178.792,-0.285645,88.5938,116
1567619325,370.582,115.416,24.2218,178.792,-0.285645,88.5938,116
1567619325,370.582,115.416,24.2218,178.792,-0.285645,88.5938,116
1567619325,370.582,115.416,24.2218,178.792,-0.307617,88.5938,116
1567619325,370.582,115.416,24.2218,178.792,-0.307617,88.5938,112
1567619325,370.582,115.416,24.2218,178.792,-0.307617,88.5938,112
1567619325,370.582,115.416,24.2218,178.792,-0.285645,88.5938,112
1567619325,370.582,115.416,24.2218,178.792,-0.285645,88.5938,112
1567619325,370.582,115.416,24.2218,178.792,-0.285645,88.5938,112
1567619325,370.582,115.416,24.2218,178.792,-0.285645,88.5938,112
1567619325,370.582,115.416,24.2218,178.792,-0.285645,88.5938,112
1567619325,370.582,115.416,24.2218,178.792,-0.285645,88.5938,112
1567619325,370.582,115.416,24.2218,178.792,-0.285645,88.5938,112
1567619325,370.582,115.416,24.2218,178.792,-0.285645,88.5938,112
1567619325,370.582,115.416,24.2218,178.792,-0.285645,88.5938,116
1567619325,370.582,115.416,24.2218,178.792,-0.285645,88.5938,116
1567619325,370.582,115.416,24.2218,178.792,-0.285645,88.5938,116
1567619325,370.582,115.416,24.2218,178.792,-0.307617,88.5938,116
1567619325,370.582,115.416,24.1102,178.792,-0.307617,88.5938,116
1567619325,370.582,115.416,24.1102,178.792,-0.307617,88.5938,116
1567619325,370.582,115.416,24.1102,178.792,-0.307617,88.5938,116
1567619325,370.582,115.416,24.1102,178.792,-0.307617,88.5938,116
1567619325,370.582,115.416,24.1102,178.792,-0.307617,88.5938,116
1567619325,370.582,115.416,24.1102,178.792,-0.307617,88.5938,116
1567619325,370.582,115.416,24.1102,178.792,-0.307617,88.5938,116
1567619325,370.582,115.416,24.1102,178.792,-0.307617,88.5938,116
1567619325,370.582,115.416,24.1102,178.792,-0.307617,88.5938,116
1567619325,370.582,115.416,24.1102,178.792,-0.307617,88.5938,116
1567619325,370.582,115.416,24.1102,178.792,-0.307617,88.5938,116
1567619325,370.582,115.416,24.1102,178.792,-0.307617,88.5938,116
1567619325,370.582,115.416,24.1102,178.792,-0.307617,88.5938,116
1567619325,370.582,115.416,24.1102,178.792,-0.307617,88.5938,116
1567619325,370.582,115.416,24.1102,178.792,-0.307617,88.5938,116
1567619325,370.582,115.416,24.1102,178.792,-0.307617,88.5938,116
1567619325,370.582,115.416,24.2218,178.792,-0.307617,88.5938,116
1567619325,370.582,115.416,24.2218,178.792,-0.307617,88.5938,116
1567619325,370.582,115.416,24.2218,178.792,-0.285645,88.5938,116
1567619325,370.582,115.416,24.2218,178.792,-0.285645,88.5938,116
1567619325,370.582,115.416,24.2218,178.792,-0.307617,88.5938,116
1567619325,370.582,115.416,24.2218,178.792,-0.307617,88.5938,116
1567619325,370.582,115.416,24.2218,178.792,-0.307617,88.5938,116
1567619325,370.582,115.416,24.1102,178.792,-0.307617,88.5938,116
1567619325,370.582,115.416,24.1102,178.792,-0.307617,88.5938,116
1567619325,370.582,115.416,24.1102,178.792,-0.307617,88.5938,116
1567619325,370.582,115.416,24.1102,178.792,-0.307617,88.5938,116
1567619325,370.582,115.416,24.1102,178.792,-0.307617,88.5938,116
1567619325,370.582,115.416,24.1102,178.792,-0.307617,88.5938,116
1567619325,370.582,115.416,24.1102,178.792,-0.307617,88.5938,112
1567619325,370.582,115.416,24.1102,178.792,-0.307617,88.5938,112
1567619325,370.582,115.416,24.1102,178.792,-0.307617,88.5938,112
1567619325,370.582,115.416,24.1102,178.792,-0.307617,88.5938,112
1567619325,370.582,115.416,24.1102,178.792,-0.307617,88.5938,112
1567619325,370.582,115.416,24.1102,178.792,-0.307617,88.5938,112
1567619325,370.582,115.416,24.1102,178.792,-0.307617,88.5938,112
1567619325,370.582,115.416,24.1102,178.792,-0.307617,88.5938,112
1567619325,370.582,115.416,24.1102,178.792,-0.307617,88.5938,112
1567619325,370.582,115.416,24.1102,178.792,-0.307617,88.5938,112
1567619325,370.582,115.416,24.2218,178.792,-0.307617,88.5938,112
1567619325,370.582,115.416,24.2218,178.792,-0.307617,88.5938,112
1567619325,370.582,115.416,24.2218,178.792,-0.307617,88.5938,112
1567619325,370.582,115.416,24.2218,178.792,-0.285645,88.5938,112
1567619325,370.582,115.416,24.2218,178.792,-0.285645,88.5938,112
1567619325,370.582,115.416,24.2218,178.792,-0.285645,88.5938,112
1567619325,370.582,115.416,24.2218,178.792,-0.285645,88.5938,112
1567619325,370.582,115.416,24.2218,178.792,-0.285645,88.5938,112
1567619325,370.582,115.416,24.2218,178.792,-0.285645,88.5938,112
1567619325,370.582,115.416,24.2218,178.792,-0.285645,88.5938,112
1567619325,370.582,115.416,24.2218,178.792,-0.285645,88.5938,112
1567619325,370.582,115.416,24.2218,178.792,-0.285645,88.5938,112
1567619326,370.582,115.416,24.2218,178.792,-0.285645,88.5938,112
1567619326,370.582,115.416,24.2218,178.792,-0.285645,88.5938,112
1567619326,370.582,115.416,24.2218,178.792,-0.285645,88.5938,112
1567619326,370.582,115.416,24.2218,178.792,-0.285645,88.5938,112
1567619326,370.582,115.416,24.2218,178.792,-0.285645,88.5938,112
1567619326,370.582,115.416,24.2218,178.792,-0.285645,88.5938,112
1567619326,370.582,115.416,24.2218,178.792,-0.285645,88.5938,112
1567619326,370.582,115.416,24.2218,178.792,-0.285645,88.5938,112
1567619326,370.582,115.416,24.2218,178.792,-0.285645,88.5938,112
1567619326,370.582,115.416,24.2218,178.792,-0.285645,88.5938,112
1567619326,370.582,115.416,24.2218,178.792,-0.285645,88.5938,112
1567619326,370.582,115.416,24.2218,178.792,-0.285645,88.5938,112
1567619326,370.582,115.416,24.2218,178.792,-0.285645,88.5938,112
1567619326,370.582,115.416,24.2218,178.792,-0.285645,88.5938,112
1567619326,370.582,115.416,24.2218,178.792,-0.285645,88.5938,112
1567619326,370.582,115.416,24.2218,178.792,-0.285645,88.5938,112
1567619326,370.582,115.416,24.2218,178.792,-0.307617,88.5938,112
1567619326,370.582,115.416,24.2218,178.792,-0.307617,88.5938,112
1567619326,370.582,115.416,24.2218,178.792,-0.307617,88.5938,112
1567619326,370.582,115.416,24.1102,178.792,-0.307617,88.5938,112
1567619326,370.582,115.416,24.1102,178.792,-0.307617,88.5938,112
1567619326,370.582,115.416,24.1102,178.792,-0.307617,88.5938,112
1567619326,370.582,115.416,24.1102,178.792,-0.307617,88.5938,112
1567619326,370.582,115.416,24.1102,178.792,-0.307617,88.5938,112
1567619326,370.582,115.416,24.1102,178.792,-0.307617,88.5938,112
1567619326,370.582,115.416,24.1102,178.792,-0.307617,88.5938,112
1567619326,370.582,115.416,24.1102,178.792,-0.307617,88.5938,112
1567619326,370.582,115.416,24.1102,178.792,-0.307617,88.5938,112
1567619326,370.582,115.416,24.1102,178.792,-0.307617,88.5938,112
1567619326,370.582,115.416,24.1102,178.792,-0.307617,88.5938,112
1567619326,370.582,115.416,24.1102,178.792,-0.307617,88.5938,112
1567619326,370.582,115.416,24.1102,178.792,-0.307617,88.5938,112
1567619326,370.582,115.416,24.1102,178.792,-0.307617,88.5938,112
1567619326,370.582,115.416,24.1102,178.792,-0.307617,88.5938,112
1567619326,370.582,115.416,24.1102,178.792,-0.307617,88.5938,112
1567619326,370.582,115.416,24.1102,178.792,-0.307617,88.5938,112
1567619326,370.582,115.416,24.1102,178.792,-0.307617,88.5938,112
1567619326,370.582,115.416,24.1102,178.792,-0.307617,88.5938,112
1567619326,370.582,115.416,24.1102,178.792,-0.307617,88.5938,112
1567619326,370.582,115.416,24.1102,178.792,-0.307617,88.5938,112
1567619326,370.582,115.416,24.1102,178.792,-0.307617,88.5938,112
1567619326,370.582,115.416,24.1102,178.792,-0.307617,88.5938,112
1567619326,370.582,115.416,24.1102,178.792,-0.307617,88.5938,112
1567619326,370.582,115.416,24.1102,178.792,-0.307617,88.5938,112
1567619326,370.582,115.416,24.1102,178.792,-0.307617,88.5938,112
1567619326,370.582,115.416,24.1102,178.792,-0.307617,88.5938,112
1567619326,370.582,115.416,24.1102,178.792,-0.307617,88.5938,112
1567619326,370.582,115.416,24.1102,178.792,-0.307617,88.5938,112
1567619326,370.582,115.416,24.1102,178.792,-0.307617,88.5938,112
1567619326,370.582,115.416,24.1102,178.792,-0.307617,88.5938,112
1567619326,370.582,115.416,24.1102,178.792,-0.307617,88.5938,112
1567619326,370.582,115.416,24.1102,178.792,-0.307617,88.5938,112
1567619326,370.582,115.416,24.1102,178.792,-0.307617,88.5938,112
1567619326,370.582,115.416,24.1102,178.792,-0.307617,88.5938,112
1567619326,370.582,115.416,24.1102,178.792,-0.307617,88.5938,112
1567619326,370.582,115.416,24.1102,178.792,-0.307617,88.5938,112
1567619326,370.582,115.416,24.1102,178.792,-0.307617,88.5938,112
1567619326,370.582,115.416,24.1102,178.792,-0.307617,88.5938,112
1567619326,370.582,115.416,24.1102,178.792,-0.307617,88.5938,112
1567619326,370.582,115.416,24.1102,178.792,-0.307617,88.5938,112
1567619326,370.582,115.416,24.1102,178.792,-0.307617,88.5938,112
1567619326,370.582,115.416,24.1102,178.792,-0.307617,88.5938,112
1567619326,370.582,115.416,24.1102,178.792,-0.307617,88.5938,112
1567619326,370.582,115.416,24.1102,178.792,-0.307617,88.5938,112
1567619326,370.582,115.416,24.1102,178.792,-0.307617,88.5938,112
1567619326,370.582,115.416,24.1102,178.792,-0.307617,88.5938,112
1567619326,370.582,115.416,24.1102,178.792,-0.307617,88.5938,112
1567619326,370.582,115.416,24.1102,178.792,-0.307617,88.5938,112
1567619326,370.582,115.416,24.1102,178.792,-0.307617,88.5938,112
1567619326,370.582,115.416,24.1102,178.792,-0.307617,88.5938,112
1567619326,370.582,115.416,24.1102,178.792,-0.307617,88.5938,112
1567619326,370.582,115.416,24.1102,178.792,-0.307617,88.5938,112
1567619326,370.582,115.416,24.1102,178.792,-0.307617,88.5938,112
1567619326,370.582,115.416,24.1102,178.792,-0.307617,88.5938,112
1567619326,370.582,115.416,24.1102,178.792,-0.307617,88.5938,112
1567619326,370.582,115.416,24.1102,178.792,-0.307617,88.5938,112
1567619326,370.582,115.416,24.1102,178.792,-0.307617,88.5938,112
1567619326,370.582,115.416,24.1102,178.792,-0.307617,88.5938,116
1567619326,370.582,115.416,24.1102,178.792,-0.307617,88.5938,116
1567619326,370.582,115.416,24.1102,178.792,-0.307617,88.5938,116
1567619326,370.582,115.416,24.1102,178.792,-0.307617,88.5938,116
1567619326,370.582,115.416,24.1102,178.792,-0.307617,88.5938,116
1567619326,370.582,115.416,24.1102,178.792,-0.307617,88.5938,116
1567619326,370.582,115.416,24.1102,178.792,-0.307617,88.5938,116
1567619326,370.582,115.416,24.2218,178.792,-0.307617,88.5938,116
1567619326,370.582,115.416,24.2218,178.792,-0.307617,88.5938,116
1567619326,370.582,115.416,24.2218,178.792,-0.307617,88.5938,116
1567619326,370.582,115.416,24.2218,178.792,-0.307617,88.5938,116
1567619326,370.582,115.416,24.2218,178.792,-0.285645,88.5938,116
1567619326,370.582,115.416,24.2218,178.792,-0.285645,88.5938,116
1567619326,370.582,115.416,24.2218,178.792,-0.285645,88.5938,116
1567619326,370.582,115.416,24.2218,178.792,-0.285645,88.5938,112
1567619326,370.582,115.416,24.2218,178.792,-0.285645,88.5938,112
1567619326,370.582,115.416,24.2218,178.792,-0.285645,88.5938,112
1567619326,370.582,115.416,24.2218,178.792,-0.307617,88.5938,112
1567619326,370.582,115.416,24.2218,178.792,-0.307617,88.5938,112
1567619326,370.582,115.416,24.2218,178.792,-0.307617,88.5938,112
1567619326,370.582,115.416,24.2218,178.792,-0.307617,88.5938,112
1567619326,370.582,115.416,24.2218,178.792,-0.307617,88.5938,112
1567619326,370.582,115.416,24.2218,178.792,-0.307617,88.5938,112
1567619327,370.582,115.416,24.2218,178.792,-0.307617,88.5938,112
1567619327,370.582,115.416,24.2218,178.792,-0.307617,88.5938,112
1567619327,370.582,115.416,24.2218,178.792,-0.307617,88.5938,112
1567619334,370.582,115.416,24.1102,178.792,-0.307617,88.5938,112
1567619334,370.582,115.416,24.1102,178.792,-0.307617,88.5938,112
1567619334,370.582,115.416,24.1102,178.792,-0.307617,88.5938,112
1567619334,370.582,115.416,24.1102,178.792,-0.307617,88.5938,112
1567619334,370.582,115.416,24.1102,178.792,-0.307617,88.5938,112
1567619334,370.582,115.416,24.1102,178.792,-0.307617,88.5938,112
1567619334,370.582,115.416,24.1102,178.792,-0.307617,88.5938,112
1567619334,370.582,115.416,24.1102,178.792,-0.307617,88.5938,112
1567619334,370.582,115.416,24.1102,178.792,-0.307617,88.5938,112
1567619334,370.582,115.416,24.1102,178.792,-0.307617,88.5938,112
1567619334,370.582,115.416,24.1102,178.792,-0.307617,88.5938,112
1567619334,370.582,115.416,24.1102,178.792,-0.307617,88.5938,112
1567619334,370.582,115.416,24.1102,178.792,-0.307617,88.5938,112
1567619334,370.582,115.416,24.1102,178.792,-0.307617,88.5938,112
1567619334,370.582,115.416,24.1102,178.792,-0.307617,88.5938,112
1567619334,370.582,115.416,24.1102,178.792,-0.307617,88.5938,112
1567619334,370.582,115.416,24.1102,178.792,-0.307617,88.5938,112
1567619334,370.582,115.416,24.1102,178.792,-0.307617,88.5938,112
1567619334,370.582,115.416,24.1102,178.792,-0.307617,88.5938,112
1567619334,370.582,115.416,24.1102,178.792,-0.307617,88.5938,112
1567619334,370.582,115.416,24.1102,178.792,-0.307617,88.5938,112
1567619334,370.582,115.416,24.1102,178.792,-0.307617,88.5938,112
1567619334,370.582,115.416,24.1102,178.792,-0.307617,88.5938,112
1567619334,370.582,115.416,24.1102,178.792,-0.307617,88.5938,112
1567619334,370.582,115.416,24.1102,178.792,-0.307617,88.5938,112
1567619334,370.582,115.416,24.1102,178.792,-0.307617,88.5938,112
1567619334,370.582,115.416,24.1102,178.792,-0.307617,88.5938,112
1567619334,370.582,115.416,24.1102,178.792,-0.307617,88.5938,112
1567619334,370.582,115.416,24.1102,178.792,-0.307617,88.5938,112
1567619334,370.582,115.416,24.1102,178.792,-0.307617,88.5938,112
1567619334,370.582,115.416,24.1102,178.792,-0.307617,88.5938,112
1567619334,370.582,115.416,24.1102,178.792,-0.307617,88.5938,112
1567619334,370.582,115.416,24.1102,178.792,-0.307617,88.5938,112
1567619334,370.582,115.416,24.1102,178.792,-0.307617,88.5938,112
1567619334,370.582,115.416,24.1102,178.792,-0.307617,88.5938,112
1567619334,370.582,115.416,24.1102,178.792,-0.307617,88.5938,112
1567619334,370.582,115.416,24.1102,178.792,-0.307617,88.5938,112
1567619334,370.582,115.416,24.1102,178.792,-0.307617,88.5938,112
1567619334,370.582,115.416,24.1102,178.792,-0.307617,88.5938,112
1567619334,370.582,115.416,24.1102,178.792,-0.307617,88.5938,112
1567619334,370.582,115.416,24.1102,178.792,-0.307617,88.5938,112
1567619334,370.582,115.416,24.1102,178.792,-0.307617,88.5938,116
1567619334,370.582,115.416,24.1102,178.792,-0.307617,88.5938,116
1567619334,370.582,115.416,24.1102,178.792,-0.307617,88.5938,116
1567619334,370.582,115.416,24.1102,178.792,-0.307617,88.5938,116
1567619334,370.582,115.416,24.1102,178.792,-0.307617,88.5938,116
1567619334,370.582,115.416,24.1102,178.792,-0.307617,88.5938,116
1567619334,370.582,115.416,24.1102,178.792,-0.307617,88.5938,116
1567619334,370.582,115.416,24.1102,178.792,-0.307617,88.5938,116
1567619334,370.582,115.416,24.1102,178.792,-0.307617,88.5938,116
1567619334,370.582,115.416,24.1102,178.792,-0.307617,88.5938,116
1567619334,370.582,115.416,24.1102,178.792,-0.307617,88.5938,116
1567619334,370.582,115.416,24.1102,178.792,-0.307617,88.5938,116
1567619334,370.582,115.416,24.1102,178.792,-0.307617,88.5938,116
1567619334,370.582,115.416,24.1102,178.792,-0.307617,88.5938,116
1567619334,370.582,115.416,24.1102,178.792,-0.307617,88.5938,116
1567619334,370.582,115.416,24.1102,178.792,-0.307617,88.5938,112
1567619334,370.582,115.416,24.1102,178.792,-0.307617,88.5938,112
1567619334,370.582,115.416,24.1102,178.792,-0.307617,88.5938,112
1567619334,370.582,115.416,24.1102,178.792,-0.307617,88.5938,112
1567619334,370.582,115.416,24.1102,178.792,-0.307617,88.5938,112
1567619335,370.582,115.416,24.1102,178.792,-0.307617,88.5938,112
1567619335,370.582,115.416,24.1102,178.792,-0.307617,88.5938,112
1567619335,370.582,115.416,24.1102,178.792,-0.307617,88.5938,112
1567619335,370.582,115.416,24.1102,178.792,-0.307617,88.5938,112
1567619335,370.582,115.416,24.1102,178.792,-0.307617,88.5938,112
1567619335,370.582,115.416,24.1102,178.792,-0.307617,88.5938,112
1567619335,370.582,115.416,24.1102,178.792,-0.307617,88.5938,112
1567619335,370.582,115.416,24.1102,178.792,-0.307617,88.5938,112
1567619335,370.582,115.416,24.1102,178.792,-0.307617,88.5938,112
1567619335,370.582,115.416,24.1102,178.792,-0.307617,88.5938,112
1567619335,370.582,115.416,24.1102,178.792,-0.307617,88.5938,112
1567619335,370.582,115.416,24.1102,178.792,-0.307617,88.5938,112
1567619335,370.582,115.416,24.1102,178.792,-0.307617,88.5938,112
1567619335,370.582,115.416,24.1102,178.792,-0.307617,88.5938,112
1567619335,370.582,115.416,24.1102,178.792,-0.307617,88.5938,112
1567619335,370.582,115.416,24.1102,178.792,-0.307617,88.5938,112
1567619335,370.582,115.416,24.1102,178.792,-0.307617,88.5938,112
1567619335,370.582,115.416,24.1102,178.792,-0.307617,88.5938,112
1567619335,370.582,115.416,24.1102,178.792,-0.307617,88.5938,112
1567619335,370.582,115.416,24.1102,178.792,-0.307617,88.5938,112
1567619335,370.582,115.416,24.1102,178.792,-0.307617,88.5938,112
1567619335,370.582,115.416,24.1102,178.792,-0.307617,88.5938,112
1567619335,370.582,115.416,24.1102,178.792,-0.307617,88.5938,112
1567619335,370.582,115.416,24.1102,178.792,-0.307617,88.5938,112
1567619335,370.582,115.416,24.1102,178.792,-0.307617,88.5938,112
1567619335,370.582,115.416,24.1102,178.792,-0.307617,88.5938,112
1567619335,370.582,115.416,24.1102,178.792,-0.307617,88.5938,112
1567619335,370.582,115.416,24.1102,178.792,-0.307617,88.5938,112
1567619335,370.582,115.416,24.1102,178.792,-0.307617,88.5938,112
1567619335,370.582,115.416,24.1102,178.792,-0.307617,88.5938,112
1567619335,370.582,115.416,24.1102,178.792,-0.307617,88.5938,112
1567619335,370.582,115.416,24.1102,178.792,-0.307617,88.5938,112
1567619335,370.582,115.416,24.1102,178.792,-0.307617,88.5938,112
1567619335,370.582,115.416,24.1102,178.792,-0.307617,88.5938,112
1567619335,370.582,115.416,24.1102,178.792,-0.307617,88.5938,112
1567619335,370.582,115.416,24.1102,178.792,-0.307617,88.5938,112
1567619335,370.582,115.416,24.1102,178.792,-0.307617,88.5938,112
1567619335,370.582,115.416,24.1102,178.792,-0.307617,88.5938,112
1567619335,370.582,115.416,24.1102,178.792,-0.307617,88.5938,112
1567619335,370.582,115.416,24.1102,178.792,-0.307617,88.5938,112
1567619335,370.582,115.416,24.1102,178.792,-0.307617,88.5938,112
1567619335,370.582,115.416,24.1102,178.792,-0.307617,88.5938,112
1567619335,370.582,115.416,24.1102,178.792,-0.307617,88.5938,112
1567619335,370.582,115.416,24.1102,178.792,-0.307617,88.5938,112
1567619335,370.582,115.416,24.1102,178.792,-0.307617,88.5938,112
1567619335,370.582,115.416,24.1102,178.792,-0.307617,88.5938,116
1567619335,370.582,115.416,24.1102,178.792,-0.307617,88.5938,116
1567619335,370.582,115.416,24.1102,178.792,-0.307617,88.5938,116
1567619335,370.582,115.416,24.1102,178.792,-0.307617,88.5938,116
1567619335,370.582,115.416,24.1102,178.792,-0.307617,88.5938,116
1567619335,370.582,115.416,24.1102,178.792,-0.307617,88.5938,116
1567619335,370.582,115.416,24.1102,178.792,-0.307617,88.5938,116
1567619335,370.582,115.416,24.1102,178.792,-0.307617,88.5938,116
1567619335,370.582,115.416,24.1102,178.792,-0.307617,88.5938,116
1567619335,370.582,115.416,24.1102,178.792,-0.307617,88.5938,116
1567619335,370.582,115.416,24.1102,178.792,-0.307617,88.5938,116
1567619335,370.582,115.416,24.1102,178.792,-0.307617,88.5938,116
1567619335,370.582,115.416,24.1102,178.792,-0.307617,88.5938,116
1567619335,370.582,115.416,24.1102,178.792,-0.307617,88.5938,116
1567619335,370.582,115.416,24.1102,178.792,-0.307617,88.5938,116
1567619335,370.582,115.416,24.1102,178.792,-0.307617,88.5938,116
1567619335,370.582,115.416,24.1102,178.792,-0.307617,88.5938,116
1567619335,370.582,115.416,24.2218,178.792,-0.307617,88.5938,112
1567619335,370.582,115.416,24.2218,178.792,-0.307617,88.5938,112
1567619335,370.582,115.416,24.2218,178.792,-0.307617,88.5938,112
1567619335,370.582,115.416,24.2218,178.792,-0.307617,88.5938,112
1567619335,370.582,115.416,24.2218,178.792,-0.307617,88.5938,112
1567619335,370.582,115.416,24.2218,178.792,-0.307617,88.5938,112
1567619335,370.582,115.416,24.1102,178.792,-0.307617,88.5938,112
1567619335,370.582,115.416,24.1102,178.792,-0.307617,88.5938,112
1567619335,370.582,115.416,24.1102,178.792,-0.307617,88.5938,112
1567619335,370.582,115.416,24.1102,178.792,-0.307617,88.5938,112
1567619335,370.582,115.416,24.1102,178.792,-0.307617,88.5938,112
1567619335,370.582,115.416,24.1102,178.792,-0.307617,88.5938,112
1567619335,370.582,115.416,24.1102,178.792,-0.307617,88.5938,112
1567619335,370.582,115.416,24.1102,178.792,-0.307617,88.5938,112
1567619335,370.582,115.416,24.1102,178.792,-0.307617,88.5938,112
1567619335,370.582,115.416,24.1102,178.792,-0.307617,88.5938,112
1567619335,370.582,115.416,24.1102,178.792,-0.307617,88.5938,112
1567619335,370.582,115.416,24.1102,178.792,-0.307617,88.5938,112
1567619335,370.582,115.416,24.1102,178.792,-0.307617,88.5938,112
1567619335,370.582,115.416,24.1102,178.792,-0.307617,88.5938,112
1567619335,370.582,115.416,24.1102,178.792,-0.307617,88.5938,112
1567619335,370.582,115.416,24.1102,178.792,-0.307617,88.5938,112
1567619335,370.582,115.416,24.1102,178.792,-0.307617,88.5938,112
1567619335,370.582,115.416,24.1102,178.792,-0.307617,88.5938,112
1567619335,370.582,115.416,24.1102,178.792,-0.307617,88.5938,112
1567619335,370.582,115.416,24.1102,178.792,-0.307617,88.5938,112
1567619335,370.582,115.416,24.2218,178.792,-0.307617,88.5938,112
1567619335,370.582,115.416,24.2218,178.792,-0.307617,88.5938,112
1567619335,370.582,115.416,24.2218,178.792,-0.307617,88.5938,112
1567619335,370.582,115.416,24.2218,178.792,-0.307617,88.5938,112
1567619335,370.582,115.416,24.2218,178.792,-0.307617,88.5938,112
1567619335,370.582,115.416,24.2218,178.792,-0.307617,88.5938,112
1567619335,370.582,115.416,24.2218,178.792,-0.307617,88.5938,112
1567619335,370.582,115.416,24.2218,178.792,-0.307617,88.5938,112
1567619335,370.582,115.416,24.2218,178.792,-0.307617,88.5938,112
1567619335,370.582,115.416,24.2218,178.792,-0.307617,88.5938,112
1567619335,370.582,115.416,24.2218,178.792,-0.307617,88.5938,112
1567619335,370.582,115.416,24.2218,178.792,-0.307617,88.5938,112
1567619336,370.582,115.416,24.2218,178.792,-0.307617,88.5938,112
1567619336,370.582,115.416,24.2218,178.792,-0.307617,88.5938,112
1567619336,370.582,115.416,24.2218,178.792,-0.307617,88.5938,112
1567619336,370.582,115.416,24.1102,178.792,-0.307617,88.5938,112
1567619336,370.582,115.416,24.1102,178.792,-0.307617,88.5938,112
1567619336,370.582,115.416,24.1102,178.792,-0.307617,88.5938,112
1567619336,370.582,115.416,24.1102,178.792,-0.307617,88.5938,112
1567619336,370.582,115.416,24.1102,178.792,-0.307617,88.5938,112
1567619336,370.582,115.416,24.1102,178.792,-0.307617,88.5938,112
1567619336,370.582,115.416,24.1102,178.792,-0.307617,88.5938,112
1567619336,370.582,115.416,24.1102,178.792,-0.307617,88.5938,112
1567619336,370.582,115.416,24.1102,178.792,-0.307617,88.5938,112
1567619336,370.582,115.416,24.1102,178.792,-0.307617,88.5938,112
1567619336,370.582,115.416,24.1102,178.792,-0.307617,88.5938,112
1567619336,370.582,115.416,24.1102,178.792,-0.307617,88.5938,112
1567619336,370.582,115.416,24.1102,178.792,-0.307617,88.5938,112
1567619336,370.582,115.416,24.1102,178.792,-0.307617,88.5938,112
1567619336,370.582,115.416,24.1102,178.792,-0.307617,88.5938,112
1567619336,370.582,115.416,24.1102,178.792,-0.307617,88.5938,112
1567619336,370.582,115.416,24.1102,178.792,-0.307617,88.5938,112
1567619336,370.582,115.416,24.1102,178.792,-0.307617,88.5938,112
1567619336,370.582,115.416,24.1102,178.792,-0.307617,88.5938,112
1567619336,370.582,115.416,24.1102,178.792,-0.307617,88.5938,112
1567619336,370.582,115.416,24.1102,178.792,-0.307617,88.5938,112
1567619336,370.582,115.416,24.1102,178.792,-0.307617,88.5938,112
1567619336,370.582,115.416,24.1102,178.792,-0.307617,88.5938,112
1567619336,370.582,115.416,24.1102,178.792,-0.307617,88.5938,112
1567619336,370.582,115.416,24.1102,178.792,-0.307617,88.5938,112
1567619336,370.582,115.416,24.1102,178.792,-0.307617,88.5938,112
1567619336,370.582,115.416,24.1102,178.792,-0.307617,88.5938,112
1567619336,370.582,115.416,24.1102,178.792,-0.307617,88.5938,112
1567619336,370.582,115.416,24.1102,178.792,-0.307617,88.5938,112
1567619336,370.582,115.416,24.1102,178.792,-0.307617,88.5938,112
1567619336,370.582,115.416,24.1102,178.792,-0.307617,88.5938,112
1567619336,370.582,115.416,24.1102,178.792,-0.307617,88.5938,112
1567619336,370.582,115.416,24.2218,178.792,-0.307617,88.5938,112
1567619336,370.582,115.416,24.2218,178.792,-0.307617,88.5938,112
1567619336,370.582,115.416,24.2218,178.792,-0.307617,88.5938,112
1567619336,370.582,115.416,24.1102,178.792,-0.307617,88.5938,112
1567619336,370.582,115.416,24.1102,178.792,-0.307617,88.5938,112
1567619336,370.582,115.416,24.1102,178.792,-0.307617,88.5938,112
1567619336,370.582,115.416,24.1102,178.792,-0.307617,88.5938,112
1567619336,370.582,115.416,24.1102,178.792,-0.307617,88.5938,112
1567619336,370.582,115.416,24.1102,178.792,-0.307617,88.5938,112
1567619336,370.582,115.416,24.1102,178.792,-0.307617,88.5938,112
1567619336,370.582,115.416,24.1102,178.792,-0.307617,88.5938,112
1567619336,370.582,115.416,24.1102,178.792,-0.307617,88.5938,112
1567619336,370.582,115.416,24.1102,178.792,-0.307617,88.5938,116
1567619336,370.582,115.416,24.1102,178.792,-0.307617,88.5938,116
1567619336,370.582,115.416,24.1102,178.792,-0.307617,88.5938,116
1567619336,370.582,115.416,24.1102,178.792,-0.307617,88.5938,116
1567619336,370.582,115.416,24.1102,178.792,-0.307617,88.5938,116
1567619336,370.582,115.416,24.1102,178.792,-0.307617,88.5938,116
1567619336,370.582,115.416,24.1102,178.792,-0.307617,88.5938,116
1567619336,370.582,115.416,24.1102,178.792,-0.307617,88.5938,116
1567619336,370.582,115.416,24.1102,178.792,-0.307617,88.5938,116
1567619336,370.582,115.416,24.1102,178.792,-0.307617,88.5938,116
1567619336,370.582,115.416,24.1102,178.792,-0.307617,88.5938,116
1567619336,370.582,115.416,24.1102,178.792,-0.307617,88.5938,116
1567619336,370.582,115.416,24.1102,178.792,-0.307617,88.5938,116
1567619336,370.582,115.416,24.1102,178.792,-0.307617,88.5938,116
1567619336,370.582,115.416,24.1102,178.792,-0.307617,88.5938,116
1567619336,370.582,115.416,24.1102,178.792,-0.307617,88.5938,112
1567619336,370.582,115.416,24.1102,178.792,-0.307617,88.5938,112
1567619336,370.582,115.416,24.1102,178.792,-0.307617,88.5938,112
1567619336,370.582,115.416,24.1102,178.792,-0.307617,88.5938,112
1567619336,370.582,115.416,24.1102,178.792,-0.307617,88.5938,112
1567619336,370.582,115.416,24.1102,178.792,-0.307617,88.5938,112
1567619336,370.582,115.416,24.1102,178.792,-0.307617,88.5938,112
1567619336,370.582,115.416,24.1102,178.792,-0.307617,88.5938,112
1567619336,370.582,115.416,24.1102,178.792,-0.307617,88.5938,112
1567619336,370.582,115.416,24.1102,178.792,-0.307617,88.5938,112
1567619336,370.582,115.416,24.1102,178.792,-0.307617,88.5938,112
1567619336,370.582,115.416,24.1102,178.792,-0.307617,88.5938,112
1567619336,370.582,115.416,24.1102,178.792,-0.307617,88.5938,112
1567619336,370.582,115.416,24.1102,178.792,-0.307617,88.5938,112
1567619336,370.582,115.416,24.1102,178.792,-0.307617,88.5938,112
1567619336,370.582,115.416,24.1102,178.792,-0.307617,88.5938,112
1567619336,370.582,115.416,24.1102,178.792,-0.307617,88.5938,112
1567619336,370.582,115.416,24.1102,178.792,-0.307617,88.5938,112
1567619336,370.582,115.416,24.1102,178.792,-0.307617,88.5938,112
1567619336,370.582,115.416,24.1102,178.792,-0.307617,88.5938,112
1567619336,370.582,115.416,24.1102,178.792,-0.307617,88.5938,112
1567619336,370.582,115.416,24.1102,178.792,-0.307617,88.5938,112
1567619336,370.582,115.416,24.1102,178.792,-0.307617,88.5938,112
1567619336,370.582,115.416,24.1102,178.792,-0.307617,88.5938,112
1567619336,370.582,115.416,24.1102,178.792,-0.307617,88.5938,112
1567619336,370.582,115.416,24.1102,178.792,-0.307617,88.5938,112
1567619336,370.582,115.416,24.1102,178.792,-0.307617,88.5938,112
1567619336,370.582,115.416,24.1102,178.792,-0.307617,88.5938,112
1567619336,370.582,115.416,24.1102,178.792,-0.307617,88.5938,112
1567619336,370.582,115.416,24.1102,178.792,-0.307617,88.5938,112
1567619336,370.582,115.416,24.1102,178.792,-0.307617,88.5938,112
1567619336,370.582,115.416,24.1102,178.792,-0.307617,88.5938,112
1567619336,370.582,115.416,24.1102,178.792,-0.307617,88.5938,112
1567619336,370.582,115.416,24.1102,178.792,-0.307617,88.5938,112
1567619336,370.582,115.416,24.1102,178.792,-0.307617,88.5938,112
1567619336,370.582,115.416,24.1102,178.792,-0.307617,88.5938,112
1567619336,370.582,115.416,24.1102,178.792,-0.307617,88.5938,112
1567619336,370.582,115.416,24.1102,178.792,-0.307617,88.5938,112
1567619337,370.582,115.416,24.1102,178.792,-0.307617,88.5938,112
1567619337,370.582,115.416,24.1102,178.792,-0.307617,88.5938,112
1567619337,370.582,115.416,24.1102,178.792,-0.307617,88.5938,112
1567619337,370.582,115.416,24.1102,178.792,-0.307617,88.5938,112
1567619337,370.582,115.416,24.1102,178.792,-0.307617,88.5938,112
1567619337,370.582,115.416,24.1102,178.792,-0.307617,88.5938,112
1567619337,370.582,115.416,24.1102,178.792,-0.307617,88.5938,112
1567619337,370.582,115.416,24.1102,178.792,-0.307617,88.5938,112
1567619337,370.582,115.416,24.1102,178.792,-0.307617,88.5938,112
1567619337,370.582,115.416,24.1102,178.792,-0.307617,88.5938,112
1567619337,370.582,115.416,24.1102,178.792,-0.307617,88.5938,112
1567619337,370.582,115.416,24.1102,178.792,-0.307617,88.5938,112
1567619337,370.582,115.416,24.1102,178.792,-0.307617,88.5938,112
1567619337,370.582,115.416,24.1102,178.792,-0.307617,88.5938,112
1567619337,370.582,115.416,24.1102,178.792,-0.307617,88.5938,112
1567619337,370.582,115.416,24.1102,178.792,-0.307617,88.5938,112
1567619337,370.582,115.416,24.1102,178.792,-0.307617,88.5938,112
1567619337,370.582,115.416,24.1102,178.792,-0.307617,88.5938,112
1567619337,370.582,115.416,24.1102,178.792,-0.307617,88.5938,112
1567619337,370.582,115.416,24.1102,178.792,-0.307617,88.5938,112
1567619337,370.582,115.416,24.1102,178.792,-0.307617,88.5938,112
1567619337,370.582,115.416,24.1102,178.792,-0.307617,88.5938,112
1567619337,370.582,115.416,24.1102,178.792,-0.307617,88.5938,112
1567619337,370.582,115.416,24.1102,178.792,-0.307617,88.5938,112
1567619337,370.582,115.416,24.1102,178.792,-0.307617,88.5938,112
1567619337,370.582,115.416,24.1102,178.792,-0.307617,88.5938,112
1567619337,370.582,115.416,24.1102,178.792,-0.307617,88.5938,112
1567619337,370.582,115.416,24.1102,178.792,-0.307617,88.5938,112
1567619337,370.582,115.416,24.1102,178.792,-0.307617,88.5938,112
1567619337,370.582,115.416,24.1102,178.792,-0.307617,88.5938,112
1567619337,370.582,115.416,24.1102,178.792,-0.307617,88.5938,112
1567619337,370.582,115.416,24.1102,178.792,-0.307617,88.5938,112
1567619337,370.582,115.416,24.1102,178.792,-0.307617,88.5938,112
1567619337,370.582,115.416,24.1102,178.792,-0.307617,88.5938,112
1567619337,370.582,115.416,24.1102,178.792,-0.307617,88.5938,112
1567619337,370.582,115.416,24.1102,178.792,-0.307617,88.5938,112
1567619337,370.582,115.416,24.1102,178.792,-0.307617,88.5938,112
1567619337,370.582,115.416,24.1102,178.792,-0.307617,88.5938,112
1567619337,370.582,115.416,24.1102,178.792,-0.307617,88.5938,112
1567619337,370.582,115.416,24.1102,178.792,-0.307617,88.5938,112
1567619337,370.582,115.416,24.1102,178.792,-0.307617,88.5938,112
1567619337,370.582,115.416,24.1102,178.792,-0.307617,88.5938,112
1567619337,370.582,115.416,24.1102,178.792,-0.307617,88.5938,112
1567619337,370.582,115.416,24.1102,178.792,-0.307617,88.5938,112
1567619337,370.582,115.416,24.1102,178.792,-0.307617,88.5938,112
1567619337,370.582,115.416,24.1102,178.792,-0.307617,88.5938,112
1567619337,370.582,115.416,24.1102,178.792,-0.307617,88.5938,112
1567619337,370.582,115.416,24.1102,178.792,-0.307617,88.5938,112
1567619337,370.582,115.416,24.1102,178.792,-0.307617,88.5938,112
1567619337,370.582,115.416,24.1102,178.792,-0.307617,88.5938,112
1567619337,370.582,115.416,24.1102,178.792,-0.307617,88.5938,112
1567619337,370.582,115.416,24.1102,178.792,-0.307617,88.5938,112
1567619337,370.582,115.416,24.1102,178.792,-0.307617,88.5938,112
1567619337,370.582,115.416,24.1102,178.792,-0.307617,88.5938,112
1567619337,370.582,115.416,24.1102,178.792,-0.307617,88.5938,112
1567619337,370.582,115.416,24.1102,178.792,-0.307617,88.5938,112
1567619337,370.582,115.416,24.1102,178.792,-0.307617,88.5938,112
1567619337,370.582,115.416,24.1102,178.792,-0.307617,88.5938,112
1567619337,370.582,115.416,24.1102,178.792,-0.307617,88.5938,112
1567619337,370.582,115.416,24.1102,178.792,-0.307617,88.5938,112
1567619337,370.582,115.416,24.1102,178.792,-0.307617,88.5938,112
1567619337,370.582,115.416,24.1102,178.792,-0.307617,88.5938,112
1567619337,370.582,115.416,24.1102,178.792,-0.307617,88.5938,112
1567619337,370.582,115.416,24.1102,178.792,-0.307617,88.5938,112
1567619337,370.582,115.416,24.1102,178.792,-0.307617,88.5938,112
1567619337,370.582,115.416,24.1102,178.792,-0.307617,88.5938,116
1567619337,370.582,115.416,24.1102,178.792,-0.307617,88.5938,116
1567619337,370.582,115.416,24.1102,178.792,-0.307617,88.5938,116
1567619337,370.582,115.416,24.1102,178.792,-0.307617,88.5938,116
1567619337,370.582,115.416,24.1102,178.792,-0.307617,88.5938,116
1567619337,370.582,115.416,24.1102,178.792,-0.307617,88.5938,116
1567619337,370.582,115.416,24.1102,178.792,-0.307617,88.5938,116
1567619337,370.582,115.416,24.1102,178.792,-0.307617,88.5938,116
1567619337,370.582,115.416,24.1102,178.792,-0.307617,88.5938,116
1567619337,370.582,115.416,24.1102,178.792,-0.307617,88.5938,116
1567619337,370.582,115.416,24.1102,178.792,-0.307617,88.5938,116
1567619337,370.582,115.416,24.1102,178.792,-0.307617,88.5938,116
1567619337,370.582,115.416,24.1102,178.792,-0.307617,88.5938,116
1567619337,370.582,115.416,24.1102,178.792,-0.307617,88.5938,116
1567619337,370.582,115.416,24.1102,178.792,-0.307617,88.5938,116
1567619337,370.582,115.416,24.1102,178.792,-0.307617,88.5938,116
1567619337,370.582,115.416,24.1102,178.792,-0.307617,88.5938,116
1567619337,370.582,115.416,24.1102,178.792,-0.307617,88.5938,116
1567619337,370.582,115.416,24.1102,178.792,-0.307617,88.5938,116
1567619337,370.582,115.416,24.1102,178.792,-0.307617,88.5938,116
1567619337,370.582,115.416,24.1102,178.792,-0.307617,88.5938,116
1567619337,370.582,115.416,24.1102,178.792,-0.307617,88.5938,116
1567619337,370.582,115.416,24.1102,178.792,-0.307617,88.5938,116
1567619337,370.582,115.416,24.1102,178.792,-0.307617,88.5938,116
1567619337,370.582,115.416,24.1102,178.792,-0.307617,88.5938,116
1567619337,370.582,115.416,24.1102,178.792,-0.307617,88.5938,116
1567619337,370.582,115.416,24.1102,178.792,-0.307617,88.5938,116
1567619337,370.582,115.416,24.1102,178.792,-0.307617,88.5938,116
1567619337,370.582,115.416,24.1102,178.792,-0.307617,88.5938,116
1567619337,370.582,115.416,24.1102,178.792,-0.307617,88.5938,116
1567619337,370.582,115.416,24.1102,178.792,-0.307617,88.5938,116
1567619337,370.582,115.416,24.1102,178.792,-0.307617,88.5938,116
1567619337,370.582,115.416,24.1102,178.792,-0.307617,88.5938,116
1567619337,370.582,115.416,24.1102,178.792,-0.307617,88.5938,116
1567619337,370.582,115.416,24.1102,178.792,-0.307617,88.5938,116
1567619338,370.582,115.416,24.1102,178.792,-0.307617,88.5938,116
1567619338,370.582,115.416,24.1102,178.792,-0.307617,88.5938,116
1567619338,370.582,115.416,24.1102,178.792,-0.307617,88.5938,116
1567619338,370.582,115.416,24.1102,178.792,-0.307617,88.5938,116
1567619338,370.582,115.416,24.1102,178.792,-0.307617,88.5938,116
1567619338,370.582,115.416,24.1102,178.792,-0.307617,88.5938,116
1567619338,370.582,115.416,24.1102,178.792,-0.307617,88.5938,116
1567619338,370.582,115.416,24.1102,178.792,-0.307617,88.5938,116
1567619338,370.582,115.416,24.1102,178.792,-0.307617,88.5938,116
1567619338,370.582,115.416,24.1102,178.792,-0.307617,88.5938,116
1567619338,370.582,115.416,24.1102,178.792,-0.307617,88.5938,116
1567619338,370.582,115.416,24.1102,178.792,-0.307617,88.5938,116
1567619338,370.582,115.416,24.1102,178.792,-0.307617,88.5938,116
1567619338,370.582,115.416,24.1102,178.792,-0.307617,88.5938,116
1567619338,370.582,115.416,24.1102,178.792,-0.307617,88.5938,116
1567619338,370.582,115.416,24.1102,178.792,-0.307617,88.5938,116
1567619338,370.582,115.416,24.1102,178.792,-0.307617,88.5938,116
1567619338,370.582,115.416,24.1102,178.792,-0.307617,88.5938,116
1567619338,370.582,115.416,24.1102,178.792,-0.307617,88.5938,116
1567619338,370.582,115.416,24.1102,178.792,-0.307617,88.5938,116
1567619338,370.582,115.416,24.1102,178.792,-0.307617,88.5938,116
1567619338,370.582,115.416,24.1102,178.792,-0.307617,88.5938,112
1567619338,370.582,115.416,24.1102,178.792,-0.307617,88.5938,112
1567619338,370.582,115.416,24.1102,178.792,-0.307617,88.5938,112
1567619338,370.582,115.416,24.1102,178.792,-0.307617,88.5938,112
1567619338,370.582,115.416,24.1102,178.792,-0.307617,88.5938,112
1567619338,370.582,115.416,24.1102,178.792,-0.307617,88.5938,112
1567619338,370.582,115.416,24.1102,178.792,-0.307617,88.5938,112
1567619338,370.582,115.416,24.1102,178.792,-0.307617,88.5938,112
1567619338,370.582,115.416,24.1102,178.792,-0.307617,88.5938,112
1567619338,370.582,115.416,24.1102,178.792,-0.307617,88.5938,112
1567619338,370.582,115.416,24.1102,178.792,-0.307617,88.5938,112
1567619338,370.582,115.416,24.1102,178.792,-0.307617,88.5938,112
1567619338,370.582,115.416,24.1102,178.792,-0.307617,88.5938,112
1567619338,370.582,115.416,24.1102,178.792,-0.307617,88.5938,112
1567619338,370.582,115.416,24.1102,178.792,-0.307617,88.5938,112
1567619338,370.582,115.416,24.1102,178.792,-0.307617,88.5938,112
1567619338,370.582,115.416,24.1102,178.792,-0.307617,88.5938,112
1567619338,370.582,115.416,24.1102,178.792,-0.307617,88.5938,112
1567619338,370.582,115.416,24.1102,178.792,-0.307617,88.5938,112
1567619338,370.582,115.416,24.1102,178.792,-0.307617,88.5938,112
1567619338,370.582,115.416,24.1102,178.792,-0.307617,88.5938,112
1567619338,370.582,115.416,24.1102,178.792,-0.307617,88.5938,112
1567619338,370.582,115.416,24.1102,178.792,-0.307617,88.5938,112
1567619338,370.582,115.416,24.1102,178.792,-0.307617,88.5938,112
1567619338,370.582,115.416,24.1102,178.792,-0.307617,88.5938,112
1567619338,370.582,115.416,24.1102,178.792,-0.307617,88.5938,112
1567619338,370.582,115.416,24.1102,178.792,-0.307617,88.5938,112
1567619338,370.582,115.416,24.1102,178.792,-0.307617,88.5938,112
1567619338,370.582,115.416,24.1102,178.792,-0.307617,88.5938,112
1567619338,370.582,115.416,24.1102,178.792,-0.307617,88.5938,112
1567619338,370.582,115.416,24.1102,178.792,-0.307617,88.5938,112
1567619338,370.582,115.416,24.1102,178.792,-0.307617,88.5938,112
1567619338,370.582,115.416,24.1102,178.792,-0.307617,88.5938,112
1567619338,370.582,115.416,24.1102,178.792,-0.307617,88.5938,112
1567619338,370.582,115.416,24.1102,178.792,-0.307617,88.5938,112
1567619338,370.582,115.416,24.1102,178.792,-0.307617,88.5938,112
1567619338,370.582,115.416,24.1102,178.792,-0.307617,88.5938,112
1567619338,370.582,115.416,24.1102,178.792,-0.307617,88.5938,112
1567619338,370.582,115.416,24.1102,178.792,-0.307617,88.5938,112
1567619338,370.582,115.416,24.1102,178.792,-0.307617,88.5938,112
1567619338,370.582,115.416,24.1102,178.792,-0.307617,88.5938,112
1567619338,370.582,115.416,24.1102,178.792,-0.307617,88.5938,112
1567619338,370.582,115.416,24.1102,178.792,-0.307617,88.5938,112
1567619338,370.582,115.416,24.1102,178.792,-0.307617,88.5938,112
1567619338,370.582,115.416,24.1102,178.792,-0.307617,88.5938,112
1567619338,370.582,115.416,24.1102,178.792,-0.307617,88.5938,112
1567619338,370.582,115.416,24.1102,178.792,-0.307617,88.5938,112
1567619338,370.582,115.416,24.1102,178.792,-0.307617,88.5938,116
1567619338,370.582,115.416,24.1102,178.792,-0.307617,88.5938,116
1567619338,370.582,115.416,24.1102,178.792,-0.307617,88.5938,116
1567619338,370.582,115.416,24.1102,178.792,-0.307617,88.5938,116
1567619338,370.582,115.416,24.1102,178.792,-0.307617,88.5938,116
1567619338,370.582,115.416,24.1102,178.792,-0.307617,88.5938,116
1567619338,370.582,115.416,24.1102,178.792,-0.307617,88.5938,116
1567619338,370.582,115.416,24.1102,178.792,-0.307617,88.5938,116
1567619338,370.582,115.416,24.1102,178.792,-0.307617,88.5938,116
1567619338,370.582,115.416,24.1102,178.792,-0.307617,88.5938,116
1567619338,370.582,115.416,24.1102,178.792,-0.307617,88.5938,116
1567619338,370.582,115.416,24.1102,178.792,-0.307617,88.5938,116
1567619338,370.582,115.416,24.1102,178.792,-0.307617,88.5938,116
1567619338,370.582,115.416,24.1102,178.792,-0.307617,88.5938,116
1567619338,370.582,115.416,24.1102,178.792,-0.307617,88.5938,116
1567619338,370.582,115.416,24.1102,178.792,-0.307617,88.5938,116
1567619338,370.582,115.416,24.1102,178.792,-0.307617,88.5938,116
1567619338,370.582,115.416,24.1102,178.792,-0.307617,88.5938,116
1567619338,370.582,115.416,24.1102,178.792,-0.307617,88.5938,116
1567619338,370.582,115.416,24.1102,178.792,-0.307617,88.5938,116
1567619338,370.582,115.416,24.1102,178.792,-0.307617,88.5938,116
1567619338,370.582,115.416,24.1102,178.792,-0.307617,88.5938,116
1567619338,370.582,115.416,24.1102,178.792,-0.307617,88.5938,116
1567619338,370.582,115.416,24.1102,178.792,-0.307617,88.5938,116
1567619338,370.582,115.416,24.1102,178.792,-0.307617,88.5938,116
1567619338,370.582,115.416,24.1102,178.792,-0.307617,88.5938,116
1567619338,370.582,115.416,24.1102,178.792,-0.307617,88.5938,116
1567619338,370.582,115.416,24.1102,178.792,-0.307617,88.5938,116
1567619338,370.582,115.416,24.1102,178.792,-0.307617,88.5938,116
1567619338,370.582,115.416,24.1102,178.792,-0.307617,88.5938,116
1567619338,370.582,115.416,24.1102,178.792,-0.307617,88.5938,112
1567619338,370.582,115.416,24.1102,178.792,-0.307617,88.5938,112
1567619339,370.582,115.416,24.1102,178.792,-0.307617,88.5938,112
1567619339,370.582,115.416,24.1102,178.792,-0.307617,88.5938,112
1567619339,370.582,115.416,24.1102,178.792,-0.307617,88.5938,112
1567619339,370.582,115.416,24.1102,178.792,-0.307617,88.5938,112
1567619339,370.582,115.416,24.1102,178.792,-0.307617,88.5938,112
1567619339,370.582,115.416,24.1102,178.792,-0.307617,88.5938,112
1567619339,370.582,115.416,24.1102,178.792,-0.307617,88.5938,112
1567619339,370.582,115.416,24.1102,178.792,-0.307617,88.5938,112
1567619339,370.582,115.416,24.1102,178.792,-0.307617,88.5938,112
1567619339,370.582,115.416,24.1102,178.792,-0.307617,88.5938,112
1567619339,370.582,115.416,24.1102,178.792,-0.307617,88.5938,112
1567619339,370.582,115.416,24.1102,178.792,-0.307617,88.5938,112
1567619339,370.582,115.416,24.1102,178.792,-0.307617,88.5938,112
1567619339,370.582,115.416,24.1102,178.792,-0.307617,88.5938,112
1567619339,370.582,115.416,24.1102,178.792,-0.307617,88.5938,112
1567619339,370.582,115.416,24.1102,178.792,-0.307617,88.5938,112
1567619339,370.582,115.416,24.1102,178.792,-0.307617,88.5938,112
1567619339,370.582,115.416,24.1102,178.792,-0.307617,88.5938,112
1567619339,370.582,115.416,24.1102,178.792,-0.307617,88.5938,112
1567619339,370.582,115.416,24.1102,178.792,-0.307617,88.5938,112
1567619339,370.582,115.416,24.1102,178.792,-0.307617,88.5938,112
1567619339,370.582,115.416,24.1102,178.792,-0.307617,88.5938,112
1567619339,370.582,115.416,24.1102,178.792,-0.307617,88.5938,112
1567619339,370.582,115.416,24.1102,178.792,-0.307617,88.5938,112
1567619339,370.582,115.416,24.1102,178.792,-0.307617,88.5938,112
1567619339,370.582,115.416,24.1102,178.792,-0.307617,88.5938,112
1567619339,370.582,115.416,24.1102,178.792,-0.307617,88.5938,112
1567619339,370.582,115.416,24.1102,178.792,-0.307617,88.5938,112
1567619339,370.582,115.416,24.1102,178.792,-0.307617,88.5938,112
1567619339,370.582,115.416,24.1102,178.792,-0.307617,88.5938,112
1567619339,370.582,115.416,24.1102,178.792,-0.307617,88.5938,112
1567619339,370.582,115.416,24.1102,178.792,-0.307617,88.5938,112
1567619339,370.582,115.416,24.1102,178.792,-0.307617,88.5938,112
1567619339,370.582,115.416,24.1102,178.792,-0.307617,88.5938,112
1567619339,370.582,115.416,24.1102,178.792,-0.307617,88.5938,112
1567619339,370.582,115.416,24.1102,178.792,-0.307617,88.5938,112
1567619339,370.582,115.416,24.1102,178.792,-0.307617,88.5938,112
1567619339,370.582,115.416,24.1102,178.792,-0.307617,88.5938,112
1567619339,370.582,115.416,24.1102,178.792,-0.307617,88.5938,112
1567619346,370.582,115.416,24.2218,178.792,-0.285645,88.5938,116
1567619347,370.582,115.416,24.2218,178.792,-0.285645,88.5938,116
1567619347,370.582,115.416,24.2218,178.792,-0.285645,88.5938,116
1567619347,370.582,115.416,24.2218,178.792,-0.285645,88.5938,116
1567619347,370.582,115.416,24.2218,178.792,-0.285645,88.5938,116
1567619347,370.582,115.416,24.2218,178.792,-0.285645,88.5938,116
1567619347,370.582,115.416,24.2218,178.792,-0.285645,88.5938,116
1567619347,370.582,115.416,24.2218,178.792,-0.285645,88.5938,116
1567619347,370.582,115.416,24.2218,178.792,-0.285645,88.5938,116
1567619347,370.582,115.416,24.2218,178.792,-0.285645,88.5938,116
1567619347,370.582,115.416,24.2218,178.792,-0.285645,88.5938,116
1567619347,370.582,115.416,24.2218,178.792,-0.285645,88.5938,116
1567619347,370.582,115.416,24.2218,178.792,-0.285645,88.5938,116
1567619347,370.582,115.416,24.2218,178.792,-0.285645,88.5938,116
1567619347,370.582,115.416,24.2218,178.792,-0.285645,88.5938,116
1567619347,370.582,115.416,24.2218,178.792,-0.285645,88.5938,116
1567619347,370.582,115.416,24.2218,178.792,-0.285645,88.5938,116
1567619347,370.582,115.416,24.2218,178.792,-0.285645,88.5938,116
1567619347,370.582,115.416,24.2218,178.792,-0.285645,88.5938,116
1567619347,370.582,115.416,24.2218,178.792,-0.285645,88.5938,116
1567619347,370.582,115.416,24.2218,178.792,-0.285645,88.5938,116
1567619347,370.582,115.416,24.2218,178.792,-0.285645,88.5938,116
1567619347,370.582,115.416,24.2218,178.792,-0.307617,88.5938,116
1567619347,370.582,115.416,24.2218,178.792,-0.307617,88.5938,116
1567619347,370.582,115.416,24.2218,178.792,-0.307617,88.5938,116
1567619347,370.582,115.416,24.2218,178.792,-0.307617,88.5938,116
1567619347,370.582,115.416,24.2218,178.792,-0.307617,88.5938,116
1567619347,370.582,115.416,24.2218,178.792,-0.307617,88.5938,116
1567619347,370.582,115.416,24.2218,178.792,-0.307617,88.5938,116
1567619347,370.582,115.416,24.2218,178.792,-0.307617,88.5938,116
1567619347,370.582,115.416,24.2218,178.792,-0.307617,88.5938,116
1567619347,370.582,115.416,24.2218,178.792,-0.307617,88.5938,116
1567619347,370.582,115.416,24.2218,178.792,-0.307617,88.5938,116
1567619347,370.582,115.416,24.2218,178.792,-0.307617,88.5938,116
1567619347,370.582,115.416,24.2218,178.792,-0.307617,88.5938,116
1567619347,370.582,115.416,24.2218,178.792,-0.307617,88.5938,116
1567619347,370.582,115.416,24.2218,178.792,-0.307617,88.5938,116
1567619347,370.582,115.416,24.2218,178.792,-0.307617,88.5938,116
1567619347,370.582,115.416,24.2218,178.792,-0.307617,88.5938,116
1567619347,370.582,115.416,24.2218,178.792,-0.307617,88.5938,116
1567619347,370.582,115.416,24.2218,178.792,-0.307617,88.5938,116
1567619347,370.582,115.416,24.2218,178.792,-0.307617,88.5938,116
1567619347,370.582,115.416,24.2218,178.792,-0.307617,88.5938,116
1567619347,370.582,115.416,24.2218,178.792,-0.307617,88.5938,116
1567619347,370.582,115.416,24.2218,178.792,-0.307617,88.5938,116
1567619347,370.582,115.416,24.2218,178.792,-0.307617,88.5938,116
1567619347,370.582,115.416,24.1102,178.792,-0.307617,88.5938,116
1567619347,370.582,115.416,24.1102,178.792,-0.307617,88.5938,116
1567619347,370.582,115.416,24.1102,178.792,-0.307617,88.5938,116
1567619347,370.582,115.416,24.1102,178.792,-0.307617,88.5938,116
1567619347,370.582,115.416,24.1102,178.792,-0.307617,88.5938,116
1567619347,370.582,115.416,24.1102,178.792,-0.307617,88.5938,116
1567619347,370.582,115.416,24.1102,178.792,-0.307617,88.5938,116
1567619347,370.582,115.416,24.1102,178.792,-0.307617,88.5938,116
1567619347,370.582,115.416,24.1102,178.792,-0.307617,88.5938,116
1567619347,370.582,115.416,24.1102,178.792,-0.307617,88.5938,116
1567619347,370.582,115.416,24.1102,178.792,-0.307617,88.5938,116
1567619347,370.582,115.416,24.1102,178.792,-0.307617,88.5938,116
1567619347,370.582,115.416,24.1102,178.792,-0.307617,88.5938,116
1567619347,370.582,115.416,24.1102,178.792,-0.307617,88.5938,116
1567619347,370.582,115.416,24.1102,178.792,-0.307617,88.5938,116
1567619347,370.582,115.416,24.1102,178.792,-0.307617,88.5938,116
1567619347,370.582,115.416,24.1102,178.792,-0.307617,88.5938,116
1567619347,370.582,115.416,24.1102,178.792,-0.307617,88.5938,116
1567619347,370.582,115.416,24.1102,178.792,-0.307617,88.5938,116
1567619347,370.582,115.416,24.1102,178.792,-0.307617,88.5938,116
1567619347,370.582,115.416,24.1102,178.792,-0.307617,88.5718,116
1567619347,370.582,115.416,24.1102,178.792,-0.307617,88.5718,116
1567619347,370.582,115.416,24.1102,178.792,-0.307617,88.5718,116
1567619347,370.582,115.416,24.1102,178.792,-0.307617,88.5718,116
1567619347,370.582,115.416,24.1102,178.792,-0.307617,88.5718,116
1567619347,370.582,115.416,24.1102,178.792,-0.307617,88.5718,116
1567619347,370.582,115.416,24.1102,178.792,-0.307617,88.5718,116
1567619347,370.582,115.416,24.1102,178.792,-0.307617,88.5718,116
1567619347,370.582,115.416,24.1102,178.792,-0.307617,88.5718,116
1567619347,370.582,115.416,24.2218,178.792,-0.307617,88.5718,116
1567619347,370.582,115.416,24.2218,178.792,-0.307617,88.5718,116
1567619347,370.582,115.416,24.2218,178.792,-0.307617,88.5718,116
1567619347,370.582,115.416,24.2218,178.792,-0.307617,88.5718,116
1567619347,370.582,115.416,24.2218,178.792,-0.307617,88.5718,116
1567619347,370.582,115.416,24.2218,178.792,-0.307617,88.5718,116
1567619347,370.582,115.416,24.2218,178.792,-0.307617,88.5718,116
1567619347,370.582,115.416,24.2218,178.792,-0.307617,88.5718,116
1567619347,370.582,115.416,24.2218,178.792,-0.307617,88.5718,116
1567619347,370.582,115.416,24.2218,178.792,-0.307617,88.5718,116
1567619347,370.582,115.416,24.2218,178.792,-0.307617,88.5718,116
1567619347,370.582,115.416,24.2218,178.792,-0.307617,88.5718,116
1567619347,370.582,115.416,24.2218,178.792,-0.307617,88.5718,116
1567619347,370.582,115.416,24.2218,178.792,-0.307617,88.5718,116
1567619347,370.582,115.416,24.2218,178.792,-0.307617,88.5718,116
1567619347,370.582,115.416,24.2218,178.792,-0.307617,88.5938,116
1567619347,370.582,115.416,24.2218,178.792,-0.307617,88.5938,116
1567619347,370.582,115.416,24.2218,178.792,-0.307617,88.5938,116
1567619347,370.582,115.416,24.2218,178.792,-0.307617,88.5938,116
1567619347,370.582,115.416,24.2218,178.792,-0.307617,88.5938,116
1567619347,370.582,115.416,24.2218,178.792,-0.307617,88.5938,116
1567619347,370.582,115.416,24.2218,178.792,-0.307617,88.5938,116
1567619347,370.582,115.416,24.2218,178.792,-0.307617,88.5938,116
1567619347,370.582,115.416,24.2218,178.792,-0.307617,88.5938,116
1567619347,370.582,115.416,24.2218,178.792,-0.307617,88.5938,116
1567619347,370.582,115.416,24.2218,178.792,-0.307617,88.5938,116
1567619348,370.582,115.416,24.2218,178.792,-0.307617,88.5938,116
1567619348,370.582,115.416,24.2218,178.792,-0.307617,88.5938,116
1567619348,370.582,115.416,24.2218,178.792,-0.307617,88.5718,116
1567619348,370.582,115.416,24.2218,178.792,-0.307617,88.5718,116
1567619348,370.582,115.416,24.2218,178.792,-0.307617,88.5718,116
1567619348,370.582,115.416,24.2218,178.792,-0.307617,88.5718,116
1567619348,370.582,115.416,24.2218,178.792,-0.307617,88.5718,116
1567619348,370.582,115.416,24.2218,178.792,-0.307617,88.5938,116
1567619348,370.582,115.416,24.2218,178.792,-0.307617,88.5938,116
1567619348,370.582,115.416,24.2218,178.792,-0.307617,88.5938,116
1567619348,370.582,115.416,24.2218,178.792,-0.307617,88.5938,116
1567619348,370.582,115.416,24.2218,178.792,-0.307617,88.5938,116
1567619348,370.582,115.416,24.2218,178.792,-0.307617,88.5938,116
1567619348,370.582,115.416,24.2218,178.792,-0.307617,88.5938,116
1567619348,370.582,115.416,24.2218,178.792,-0.307617,88.5938,116
1567619348,370.582,115.416,24.2218,178.792,-0.307617,88.5938,116
1567619348,370.582,115.416,24.2218,178.792,-0.307617,88.5938,116
1567619348,370.582,115.416,24.2218,178.792,-0.307617,88.5938,116
1567619348,370.582,115.416,24.2218,178.792,-0.307617,88.5938,116
1567619348,370.582,115.416,24.2218,178.792,-0.307617,88.5938,116
1567619348,370.582,115.416,24.2218,178.792,-0.307617,88.5938,116
1567619348,370.582,115.416,24.2218,178.792,-0.307617,88.5938,116
1567619348,370.582,115.416,24.2218,178.792,-0.307617,88.5938,116
1567619348,370.582,115.416,24.2218,178.792,-0.307617,88.5938,116
1567619348,370.582,115.416,24.2218,178.792,-0.307617,88.5938,116
1567619348,370.582,115.416,24.2218,178.792,-0.307617,88.5938,116
1567619348,370.582,115.416,24.2218,178.792,-0.307617,88.5938,116
1567619348,370.582,115.416,24.2218,178.792,-0.307617,88.5938,116
1567619348,370.582,115.416,24.2218,178.792,-0.307617,88.5938,116
1567619348,370.582,115.416,24.2218,178.792,-0.307617,88.5938,116
1567619348,370.582,115.416,24.2218,178.792,-0.307617,88.5938,116
1567619348,370.582,115.416,24.2218,178.792,-0.307617,88.5938,116
1567619348,370.582,115.416,24.2218,178.792,-0.285645,88.5938,116
1567619348,370.582,115.416,24.2218,178.792,-0.285645,88.5938,116
1567619348,370.582,115.416,24.2218,178.792,-0.285645,88.5938,116
1567619348,370.582,115.416,24.2218,178.792,-0.285645,88.5938,116
1567619348,370.582,115.416,24.2218,178.792,-0.285645,88.5938,116
1567619348,370.582,115.416,24.2218,178.792,-0.285645,88.5938,116
1567619348,370.582,115.416,24.2218,178.792,-0.307617,88.5938,116
1567619348,370.582,115.416,24.2218,178.792,-0.307617,88.5938,116
1567619348,370.582,115.416,24.2218,178.792,-0.307617,88.5938,116
1567619348,370.582,115.416,24.2218,178.792,-0.307617,88.5938,116
1567619348,370.582,115.416,24.2218,178.792,-0.307617,88.5938,116
1567619348,370.582,115.416,24.2218,178.792,-0.307617,88.5938,116
1567619348,370.582,115.416,24.2218,178.792,-0.307617,88.5938,116
1567619348,370.582,115.416,24.2218,178.792,-0.307617,88.5938,116
1567619348,370.582,115.416,24.2218,178.792,-0.307617,88.5938,116
1567619348,370.582,115.416,24.2218,178.792,-0.307617,88.5938,116
1567619348,370.582,115.416,24.2218,178.792,-0.307617,88.5938,116
1567619348,370.582,115.416,24.2218,178.792,-0.307617,88.5938,116
1567619348,370.582,115.416,24.2218,178.792,-0.307617,88.5938,116
1567619348,370.582,115.416,24.2218,178.792,-0.307617,88.5938,116
1567619348,370.582,115.416,24.2218,178.792,-0.307617,88.5938,116
1567619348,370.582,115.416,24.2218,178.792,-0.307617,88.5718,116
1567619348,370.582,115.416,24.2218,178.792,-0.307617,88.5718,116
1567619348,370.582,115.416,24.2218,178.792,-0.307617,88.5718,116
1567619348,370.582,115.416,24.2218,178.792,-0.307617,88.5718,116
1567619348,370.582,115.416,24.2218,178.792,-0.307617,88.5718,116
1567619348,370.582,115.416,24.2218,178.792,-0.307617,88.5718,116
1567619348,370.582,115.416,24.2218,178.792,-0.307617,88.5718,116
1567619348,370.582,115.416,24.2218,178.792,-0.307617,88.5718,116
1567619348,370.582,115.416,24.2218,178.792,-0.307617,88.5718,116
1567619348,370.582,115.416,24.2218,178.792,-0.307617,88.5718,116
1567619348,370.582,115.416,24.2218,178.792,-0.307617,88.5718,116
1567619348,370.582,115.416,24.2218,178.792,-0.307617,88.5938,116
1567619348,370.582,115.416,24.2218,178.792,-0.307617,88.5938,116
1567619348,370.582,115.416,24.2218,178.792,-0.307617,88.5938,116
1567619348,370.582,115.416,24.2218,178.792,-0.307617,88.5938,116
1567619348,370.582,115.416,24.2218,178.792,-0.307617,88.5938,116
1567619348,370.582,115.416,24.2218,178.792,-0.307617,88.5938,116
1567619348,370.582,115.416,24.2218,178.792,-0.307617,88.5938,116
1567619348,370.582,115.416,24.2218,178.792,-0.307617,88.5938,116
1567619348,370.582,115.416,24.2218,178.792,-0.307617,88.5938,116
1567619348,370.582,115.416,24.2218,178.792,-0.307617,88.5938,116
1567619348,370.582,115.416,24.2218,178.792,-0.307617,88.5938,116
1567619348,370.582,115.416,24.2218,178.792,-0.307617,88.5938,116
1567619348,370.582,115.416,24.2218,178.792,-0.307617,88.5938,116
1567619348,370.582,115.416,24.2218,178.792,-0.307617,88.5938,116
1567619348,370.582,115.416,24.2218,178.792,-0.307617,88.5938,116
1567619348,370.582,115.416,24.2218,178.792,-0.307617,88.5938,116
1567619348,370.582,115.416,24.2218,178.792,-0.307617,88.5938,116
1567619348,370.582,115.416,24.2218,178.792,-0.307617,88.5938,116
1567619348,370.582,115.416,24.2218,178.792,-0.307617,88.5938,116
1567619348,370.582,115.416,24.2218,178.792,-0.307617,88.5938,116
1567619348,370.582,115.416,24.2218,178.792,-0.307617,88.5938,116
1567619348,370.582,115.416,24.2218,178.792,-0.307617,88.5938,116
1567619348,370.582,115.416,24.2218,178.792,-0.307617,88.5938,112
1567619348,370.582,115.416,24.2218,178.792,-0.307617,88.5938,116
1567619348,370.582,115.416,24.2218,178.792,-0.307617,88.5938,116
1567619348,370.582,115.416,24.2218,178.792,-0.307617,88.5938,116
1567619348,370.582,115.416,24.2218,178.792,-0.307617,88.5938,116
1567619348,370.582,115.416,24.2218,178.792,-0.307617,88.5938,116
1567619348,370.582,115.416,24.2218,178.792,-0.307617,88.5938,116
1567619348,370.582,115.416,24.2218,178.792,-0.307617,88.5938,116
1567619348,370.582,115.416,24.2218,178.792,-0.307617,88.5938,116
1567619348,370.582,115.416,24.2218,178.792,-0.307617,88.5938,116
1567619348,370.582,115.416,24.2218,178.792,-0.307617,88.5938,116
1567619348,370.582,115.416,24.2218,178.792,-0.307617,88.5938,116
1567619348,370.582,115.416,24.2218,178.792,-0.307617,88.5938,116
1567619348,370.582,115.416,24.2218,178.792,-0.307617,88.5938,116
1567619349,370.582,115.416,24.2218,178.792,-0.307617,88.5938,116
1567619349,370.582,115.416,24.2218,178.792,-0.307617,88.5938,116
1567619349,370.582,115.416,24.2218,178.792,-0.307617,88.5938,116
1567619349,370.582,115.416,24.2218,178.792,-0.307617,88.5938,116
1567619349,370.582,115.416,24.2218,178.792,-0.307617,88.5938,116
1567619349,370.582,115.416,24.2218,178.792,-0.307617,88.5938,116
1567619349,370.582,115.416,24.2218,178.792,-0.307617,88.5938,116
1567619349,370.582,115.416,24.2218,178.792,-0.307617,88.5938,116
1567619349,370.582,115.416,24.2218,178.792,-0.307617,88.5938,116
1567619349,370.582,115.416,24.1102,178.792,-0.307617,88.5938,116
1567619349,370.582,115.416,24.1102,178.792,-0.307617,88.5938,116
1567619349,370.582,115.416,24.1102,178.792,-0.307617,88.5938,116
1567619349,370.582,115.416,24.1102,178.792,-0.307617,88.5938,116
1567619349,370.582,115.416,24.1102,178.792,-0.307617,88.5938,116
1567619349,370.582,115.416,24.1102,178.792,-0.307617,88.5938,116
1567619349,370.582,115.416,24.1102,178.792,-0.307617,88.5938,116
1567619349,370.582,115.416,24.1102,178.792,-0.307617,88.5938,116
1567619349,370.582,115.416,24.1102,178.792,-0.307617,88.5938,116
1567619349,370.582,115.416,24.1102,178.792,-0.307617,88.5938,116
1567619349,370.582,115.416,24.1102,178.792,-0.307617,88.5938,116
1567619349,370.582,115.416,24.1102,178.792,-0.307617,88.5938,116
1567619349,370.582,115.416,24.1102,178.792,-0.307617,88.5938,116
1567619349,370.582,115.416,24.1102,178.792,-0.307617,88.5938,116
1567619349,370.582,115.416,24.1102,178.792,-0.307617,88.5938,116
1567619349,370.582,115.416,24.1102,178.792,-0.307617,88.5938,116
1567619349,370.582,115.416,24.1102,178.792,-0.307617,88.5938,116
1567619349,370.582,115.416,24.1102,178.792,-0.307617,88.5938,116
1567619349,370.582,115.416,24.1102,178.792,-0.307617,88.5938,116
1567619349,370.582,115.416,24.2218,178.792,-0.307617,88.5938,116
1567619349,370.582,115.416,24.2218,178.792,-0.307617,88.5938,116
1567619349,370.582,115.416,24.2218,178.792,-0.307617,88.5938,116
1567619349,370.582,115.416,24.2218,178.792,-0.307617,88.5938,116
1567619349,370.582,115.416,24.2218,178.792,-0.307617,88.5938,116
1567619349,370.582,115.416,24.2218,178.792,-0.307617,88.5938,116
1567619349,370.582,115.416,24.2218,178.792,-0.307617,88.5938,116
1567619349,370.582,115.416,24.2218,178.792,-0.307617,88.5938,116
1567619349,370.582,115.416,24.2218,178.792,-0.307617,88.5938,116
1567619349,370.582,115.416,24.2218,178.792,-0.307617,88.5938,116
1567619349,370.582,115.416,24.2218,178.792,-0.307617,88.5938,116
1567619349,370.582,115.416,24.2218,178.792,-0.307617,88.5938,116
1567619349,370.582,115.416,24.2218,178.792,-0.307617,88.5938,116
1567619349,370.582,115.416,24.2218,178.792,-0.307617,88.5938,116
1567619349,370.582,115.416,24.2218,178.792,-0.307617,88.5938,116
1567619349,370.582,115.416,24.2218,178.792,-0.307617,88.5938,116
1567619349,370.582,115.416,24.2218,178.792,-0.307617,88.5938,116
1567619349,370.582,115.416,24.2218,178.792,-0.307617,88.5938,116
1567619349,370.582,115.416,24.2218,178.792,-0.307617,88.5938,116
1567619349,370.582,115.416,24.2218,178.792,-0.285645,88.5938,116
1567619349,370.582,115.416,24.2218,178.792,-0.285645,88.5938,116
1567619349,370.582,115.416,24.2218,178.792,-0.285645,88.5938,116
1567619349,370.582,115.416,24.2218,178.792,-0.285645,88.5938,116
1567619349,370.582,115.416,24.2218,178.792,-0.285645,88.5938,116
1567619349,370.582,115.416,24.2218,178.792,-0.285645,88.5938,116
1567619349,370.582,115.416,24.2218,178.792,-0.285645,88.5938,116
1567619349,370.582,115.416,24.2218,178.792,-0.307617,88.5938,116
1567619349,370.582,115.416,24.2218,178.792,-0.307617,88.5938,116
1567619349,370.582,115.416,24.2218,178.792,-0.307617,88.5938,116
1567619349,370.582,115.416,24.2218,178.792,-0.307617,88.5938,116
1567619349,370.582,115.416,24.2218,178.792,-0.307617,88.5938,116
1567619349,370.582,115.416,24.2218,178.792,-0.307617,88.5938,116
1567619349,370.582,115.416,24.2218,178.792,-0.307617,88.5938,116
1567619349,370.582,115.416,24.2218,178.792,-0.307617,88.5938,116
1567619349,370.582,115.416,24.2218,178.792,-0.285645,88.5938,116
1567619349,370.582,115.416,24.2218,178.792,-0.285645,88.5938,116
1567619349,370.582,115.416,24.2218,178.792,-0.285645,88.5938,116
1567619349,370.582,115.416,24.2218,178.792,-0.285645,88.5938,116
1567619349,370.582,115.416,24.2218,178.792,-0.285645,88.5938,116
1567619349,370.582,115.416,24.2218,178.792,-0.285645,88.5938,116
1567619349,370.582,115.416,24.2218,178.792,-0.285645,88.5938,116
1567619349,370.582,115.416,24.2218,178.792,-0.285645,88.5938,116
1567619349,370.582,115.416,24.2218,178.792,-0.285645,88.5938,116
1567619349,370.582,115.416,24.2218,178.792,-0.285645,88.5938,116
1567619349,370.582,115.416,24.2218,178.792,-0.285645,88.5938,116
1567619349,370.582,115.416,24.2218,178.792,-0.285645,88.5938,116
1567619349,370.582,115.416,24.2218,178.792,-0.285645,88.5938,116
1567619349,370.582,115.416,24.2218,178.792,-0.285645,88.5938,116
1567619349,370.582,115.416,24.2218,178.792,-0.285645,88.5938,116
1567619349,370.582,115.416,24.2218,178.792,-0.285645,88.5938,116
1567619349,370.582,115.416,24.2218,178.792,-0.285645,88.5938,116
1567619349,370.582,115.416,24.2218,178.792,-0.285645,88.5938,116
1567619349,370.582,115.416,24.2218,178.792,-0.285645,88.5938,116
1567619349,370.582,115.416,24.2218,178.792,-0.285645,88.5938,116
1567619349,370.582,115.416,24.2218,178.792,-0.307617,88.5938,116
1567619349,370.582,115.416,24.2218,178.792,-0.307617,88.5938,116
1567619349,370.582,115.416,24.2218,178.792,-0.307617,88.5938,116
1567619349,370.582,115.416,24.2218,178.792,-0.307617,88.5938,116
1567619349,370.582,115.416,24.2218,178.792,-0.307617,88.5938,116
1567619349,370.582,115.416,24.2218,178.792,-0.307617,88.5938,116
1567619349,370.582,115.416,24.2218,178.792,-0.307617,88.5938,116
1567619349,370.582,115.416,24.2218,178.792,-0.307617,88.5938,116
1567619349,370.582,115.416,24.2218,178.792,-0.307617,88.5938,116
1567619349,370.582,115.416,24.2218,178.792,-0.307617,88.5938,116
1567619349,370.582,115.416,24.2218,178.792,-0.307617,88.5938,116
1567619349,370.582,115.416,24.2218,178.792,-0.307617,88.5938,116
1567619349,370.582,115.416,24.2218,178.792,-0.307617,88.5938,116
1567619349,370.582,115.416,24.2218,178.792,-0.307617,88.5938,116
1567619349,370.582,115.416,24.2218,178.792,-0.307617,88.5938,116
1567619349,370.582,115.416,24.2218,178.792,-0.307617,88.5938,116
1567619349,370.582,115.416,24.2218,178.792,-0.307617,88.5938,116
1567619349,370.582,115.416,24.2218,178.792,-0.307617,88.5938,116
1567619350,370.582,115.416,24.2218,178.792,-0.307617,88.5938,116
1567619350,370.582,115.416,24.2218,178.792,-0.307617,88.5938,116
1567619350,370.582,115.416,24.2218,178.792,-0.307617,88.5938,116
1567619350,370.582,115.416,24.2218,178.792,-0.307617,88.5938,116
1567619350,370.582,115.416,24.2218,178.792,-0.307617,88.5938,116
1567619350,370.582,115.416,24.2218,178.792,-0.307617,88.5938,116
1567619350,370.582,115.416,24.2218,178.792,-0.307617,88.5938,116
1567619350,370.582,115.416,24.2218,178.792,-0.307617,88.5938,116
1567619350,370.582,115.416,24.2218,178.792,-0.307617,88.5938,116
1567619350,370.582,115.416,24.2218,178.792,-0.307617,88.5938,116
1567619350,370.582,115.416,24.2218,178.792,-0.307617,88.5938,116
1567619350,370.582,115.416,24.2218,178.792,-0.307617,88.5938,116
1567619350,370.582,115.416,24.2218,178.792,-0.307617,88.5938,116
1567619350,370.582,115.416,24.2218,178.792,-0.307617,88.5938,116
1567619350,370.582,115.416,24.1102,178.792,-0.307617,88.5938,116
1567619350,370.582,115.416,24.1102,178.792,-0.307617,88.5938,116
1567619350,370.582,115.416,24.1102,178.792,-0.307617,88.5938,116
1567619350,370.582,115.416,24.1102,178.792,-0.307617,88.5938,116
1567619350,370.582,115.416,24.1102,178.792,-0.307617,88.5938,116
1567619350,370.582,115.416,24.1102,178.792,-0.307617,88.5938,116
1567619350,370.582,115.416,24.1102,178.792,-0.307617,88.5938,116
1567619350,370.582,115.416,24.1102,178.792,-0.307617,88.5938,116
1567619350,370.582,115.416,24.1102,178.792,-0.307617,88.5938,116
1567619350,370.582,115.416,24.1102,178.792,-0.307617,88.5938,116
1567619350,370.582,115.416,24.1102,178.792,-0.307617,88.5938,116
1567619350,370.582,115.416,24.1102,178.792,-0.307617,88.5938,116
1567619350,370.582,115.416,24.1102,178.792,-0.307617,88.5938,116
1567619350,370.582,115.416,24.1102,178.792,-0.307617,88.5938,116
1567619350,370.582,115.416,24.1102,178.792,-0.307617,88.5938,116
1567619350,370.582,115.416,24.1102,178.792,-0.307617,88.5938,116
1567619350,370.582,115.416,24.1102,178.792,-0.307617,88.5938,116
1567619350,370.582,115.416,24.1102,178.792,-0.307617,88.5938,116
1567619350,370.582,115.416,24.1102,178.792,-0.307617,88.5938,116
1567619350,370.582,115.416,24.1102,178.792,-0.307617,88.5938,116
1567619350,370.582,115.416,24.1102,178.792,-0.307617,88.5938,116
1567619350,370.582,115.416,24.1102,178.792,-0.307617,88.5938,116
1567619350,370.582,115.416,24.1102,178.792,-0.307617,88.5938,116
1567619350,370.582,115.416,24.1102,178.792,-0.307617,88.5938,116
1567619350,370.582,115.416,24.1102,178.792,-0.307617,88.5938,116
1567619350,370.582,115.416,24.2218,178.792,-0.307617,88.5938,116
1567619350,370.582,115.416,24.2218,178.792,-0.307617,88.5938,116
1567619350,370.582,115.416,24.2218,178.792,-0.307617,88.5938,116
1567619350,370.582,115.416,24.2218,178.792,-0.307617,88.5938,116
1567619350,370.582,115.416,24.2218,178.792,-0.307617,88.5938,116
1567619350,370.582,115.416,24.2218,178.792,-0.307617,88.5938,116
1567619350,370.582,115.416,24.2218,178.792,-0.307617,88.5938,116
1567619350,370.582,115.416,24.2218,178.792,-0.307617,88.5938,116
1567619350,370.582,115.416,24.2218,178.792,-0.307617,88.5938,116
1567619350,370.582,115.416,24.2218,178.792,-0.307617,88.5938,116
1567619350,370.582,115.416,24.2218,178.792,-0.307617,88.5938,116
1567619350,370.582,115.416,24.2218,178.792,-0.307617,88.5938,116
1567619350,370.582,115.416,24.2218,178.792,-0.307617,88.5938,116
1567619350,370.582,115.416,24.2218,178.792,-0.307617,88.5938,116
1567619350,370.582,115.416,24.2218,178.792,-0.307617,88.5938,116
1567619350,370.582,115.416,24.1102,178.792,-0.307617,88.5938,116
1567619350,370.582,115.416,24.1102,178.792,-0.307617,88.5938,116
1567619350,370.582,115.416,24.1102,178.792,-0.307617,88.5938,116
1567619350,370.582,115.416,24.1102,178.792,-0.307617,88.5938,116
1567619350,370.582,115.416,24.1102,178.792,-0.307617,88.5938,116
1567619350,370.582,115.416,24.1102,178.792,-0.307617,88.5938,116
1567619350,370.582,115.416,24.1102,178.792,-0.307617,88.5938,116
1567619350,370.582,115.416,24.1102,178.792,-0.307617,88.5938,116
1567619350,370.582,115.416,24.1102,178.792,-0.307617,88.5938,116
1567619350,370.582,115.416,24.1102,178.792,-0.307617,88.5938,116
1567619350,370.582,115.416,24.1102,178.792,-0.307617,88.5938,116
1567619350,370.582,115.416,24.1102,178.792,-0.307617,88.5938,116
1567619350,370.582,115.416,24.1102,178.792,-0.307617,88.5938,116
1567619350,370.582,115.416,24.1102,178.792,-0.307617,88.5938,116
1567619350,370.582,115.416,24.1102,178.792,-0.307617,88.5938,116
1567619350,370.582,115.416,24.1102,178.792,-0.307617,88.5938,116
1567619350,370.582,115.416,24.1102,178.792,-0.307617,88.5938,116
1567619350,370.582,115.416,24.1102,178.792,-0.307617,88.5938,116
1567619350,370.582,115.416,24.1102,178.792,-0.307617,88.5938,116
1567619350,370.582,115.416,24.1102,178.792,-0.307617,88.5938,116
1567619350,370.582,115.416,24.1102,178.792,-0.307617,88.5938,116
1567619350,370.582,115.416,24.1102,178.792,-0.307617,88.5938,116
1567619350,370.582,115.416,24.1102,178.792,-0.307617,88.5938,116
1567619350,370.582,115.416,24.1102,178.792,-0.307617,88.5938,116
1567619350,370.582,115.416,24.1102,178.792,-0.307617,88.5938,116
1567619350,370.582,115.416,24.2218,178.792,-0.307617,88.5938,116
1567619350,370.582,115.416,24.2218,178.792,-0.307617,88.5938,116
1567619350,370.582,115.416,24.2218,178.792,-0.307617,88.5938,116
1567619350,370.582,115.416,24.2218,178.792,-0.307617,88.5938,116
1567619350,370.582,115.416,24.2218,178.792,-0.307617,88.5938,116
1567619350,370.582,115.416,24.2218,178.792,-0.307617,88.5938,116
1567619350,370.582,115.416,24.2218,178.792,-0.307617,88.5938,116
1567619350,370.582,115.416,24.2218,178.792,-0.307617,88.5938,116
1567619350,370.582,115.416,24.2218,178.792,-0.307617,88.5938,116
1567619350,370.582,115.416,24.2218,178.792,-0.307617,88.5938,116
1567619350,370.582,115.416,24.2218,178.792,-0.307617,88.5938,116
1567619350,370.582,115.416,24.2218,178.792,-0.307617,88.5938,116
1567619350,370.582,115.416,24.2218,178.792,-0.307617,88.5938,116
1567619350,370.582,115.416,24.2218,178.792,-0.307617,88.5938,116
1567619350,370.582,115.416,24.2218,178.792,-0.307617,88.5938,116
1567619350,370.582,115.416,24.2218,178.792,-0.307617,88.5938,116
1567619350,370.582,115.416,24.2218,178.792,-0.307617,88.5938,116
1567619350,370.582,115.416,24.2218,178.792,-0.307617,88.5938,116
1567619350,370.582,115.416,24.2218,178.792,-0.307617,88.5938,116
1567619350,370.582,115.416,24.2218,178.792,-0.307617,88.5938,116
1567619350,370.582,115.416,24.2218,178.792,-0.307617,88.5938,116
1567619351,370.582,115.416,24.2218,178.792,-0.307617,88.5938,116
1567619351,370.582,115.416,24.2218,178.792,-0.307617,88.5938,116
1567619351,370.582,115.416,24.2218,178.792,-0.307617,88.5938,116
1567619351,370.582,115.416,24.2218,178.792,-0.307617,88.5938,116
1567619351,370.582,115.416,24.1102,178.792,-0.307617,88.5938,116
1567619351,370.582,115.416,24.1102,178.792,-0.307617,88.5938,116
1567619351,370.582,115.416,24.1102,178.792,-0.307617,88.5938,116
1567619351,370.582,115.416,24.1102,178.792,-0.307617,88.5938,116
1567619351,370.582,115.416,24.1102,178.792,-0.307617,88.5938,116
1567619351,370.582,115.416,24.1102,178.792,-0.307617,88.5938,116
1567619351,370.582,115.416,24.1102,178.792,-0.307617,88.5938,116
1567619351,370.582,115.416,24.1102,178.792,-0.307617,88.5938,116
1567619351,370.582,115.416,24.2218,178.792,-0.307617,88.5938,116
1567619351,370.582,115.416,24.2218,178.792,-0.307617,88.5938,116
1567619351,370.582,115.416,24.2218,178.792,-0.307617,88.5938,116
1567619351,370.582,115.416,24.2218,178.792,-0.307617,88.5938,116
1567619351,370.582,115.416,24.2218,178.792,-0.307617,88.5938,116
1567619351,370.582,115.416,24.2218,178.792,-0.307617,88.5938,116
1567619351,370.582,115.416,24.2218,178.792,-0.307617,88.5938,116
1567619351,370.582,115.416,24.2218,178.792,-0.307617,88.5938,116
1567619351,370.582,115.416,24.2218,178.792,-0.307617,88.5938,116
1567619351,370.582,115.416,24.2218,178.792,-0.307617,88.5938,116
1567619351,370.582,115.416,24.2218,178.792,-0.307617,88.5938,116
1567619351,370.582,115.416,24.2218,178.792,-0.307617,88.5938,116
1567619351,370.582,115.416,24.2218,178.792,-0.307617,88.5938,116
1567619351,370.582,115.416,24.2218,178.792,-0.307617,88.5938,116
1567619351,370.582,115.416,24.2218,178.792,-0.307617,88.5938,116
1567619351,370.582,115.416,24.2218,178.792,-0.307617,88.5938,112
1567619351,370.582,115.416,24.2218,178.792,-0.307617,88.5938,112
1567619351,370.582,115.416,24.2218,178.792,-0.307617,88.5938,116
1567619351,370.582,115.416,24.2218,178.792,-0.307617,88.5938,116
1567619351,370.582,115.416,24.2218,178.792,-0.307617,88.5938,116
1567619351,370.582,115.416,24.2218,178.792,-0.307617,88.5938,116
1567619351,370.582,115.416,24.2218,178.792,-0.307617,88.5938,116
1567619351,370.582,115.416,24.2218,178.792,-0.307617,88.5938,116
1567619351,370.582,115.416,24.2218,178.792,-0.307617,88.5938,116
1567619351,370.582,115.416,24.2218,178.792,-0.307617,88.5938,116
1567619351,370.582,115.416,24.2218,178.792,-0.307617,88.5938,116
1567619351,370.582,115.416,24.2218,178.792,-0.307617,88.5938,116
1567619351,370.582,115.416,24.2218,178.792,-0.307617,88.5938,116
1567619351,370.582,115.416,24.2218,178.792,-0.307617,88.5938,116
1567619351,370.582,115.416,24.2218,178.792,-0.307617,88.5938,116
1567619351,370.582,115.416,24.2218,178.792,-0.307617,88.5938,116
1567619351,370.582,115.416,24.2218,178.792,-0.307617,88.5938,116
1567619351,370.582,115.416,24.2218,178.792,-0.307617,88.5938,116
1567619351,370.582,115.416,24.2218,178.792,-0.307617,88.5938,116
1567619351,370.582,115.416,24.2218,178.792,-0.307617,88.5938,116
1567619351,370.582,115.416,24.2218,178.792,-0.307617,88.5938,116
1567619351,370.582,115.416,24.2218,178.792,-0.307617,88.5938,116
1567619351,370.582,115.416,24.2218,178.792,-0.307617,88.5938,116
1567619351,370.582,115.416,24.2218,178.792,-0.307617,88.5938,116
1567619351,370.582,115.416,24.2218,178.792,-0.307617,88.5938,116
1567619351,370.582,115.416,24.2218,178.792,-0.307617,88.5938,116
1567619351,370.582,115.416,24.2218,178.792,-0.307617,88.5938,116
1567619351,370.582,115.416,24.2218,178.792,-0.307617,88.5938,116
1567619351,370.582,115.416,24.2218,178.792,-0.307617,88.5938,116
1567619351,370.582,115.416,24.2218,178.792,-0.307617,88.5938,116
1567619351,370.582,115.416,24.2218,178.792,-0.307617,88.5718,116
1567619351,370.582,115.416,24.2218,178.792,-0.285645,88.5718,116
1567619351,370.582,115.416,24.2218,178.792,-0.285645,88.5718,116
1567619351,370.582,115.416,24.2218,178.792,-0.285645,88.5718,116
1567619351,370.582,115.416,24.2218,178.792,-0.285645,88.5718,116
1567619351,370.582,115.416,24.2218,178.792,-0.285645,88.5718,116
1567619351,370.582,115.416,24.2218,178.792,-0.285645,88.5718,116
1567619351,370.582,115.416,24.2218,178.792,-0.285645,88.5718,116
1567619351,370.582,115.416,24.2218,178.792,-0.285645,88.5718,116
1567619351,370.582,115.416,24.2218,178.792,-0.285645,88.5718,116
1567619351,370.582,115.416,24.2218,178.792,-0.285645,88.5718,116
1567619351,370.582,115.416,24.2218,178.792,-0.285645,88.5718,116
1567619351,370.582,115.416,24.2218,178.792,-0.285645,88.5718,116
1567619351,370.582,115.416,24.2218,178.792,-0.285645,88.5718,116
1567619351,370.582,115.416,24.2218,178.792,-0.285645,88.5718,116
1567619351,370.582,115.416,24.2218,178.792,-0.307617,88.5718,116
1567619351,370.582,115.416,24.2218,178.792,-0.307617,88.5718,116
1567619351,370.582,115.416,24.2218,178.792,-0.307617,88.5938,116
1567619351,370.582,115.416,24.2218,178.792,-0.307617,88.5938,116
1567619351,370.582,115.416,24.2218,178.792,-0.307617,88.5938,116
1567619351,370.582,115.416,24.2218,178.792,-0.307617,88.5938,116
1567619351,370.582,115.416,24.2218,178.792,-0.307617,88.5938,116
1567619351,370.582,115.416,24.2218,178.792,-0.307617,88.5938,116
1567619351,370.582,115.416,24.2218,178.792,-0.307617,88.5938,116
1567619351,370.582,115.416,24.2218,178.792,-0.307617,88.5938,116
1567619351,370.582,115.416,24.2218,178.792,-0.307617,88.5938,116
1567619351,370.582,115.416,24.2218,178.792,-0.307617,88.5938,116
1567619351,370.582,115.416,24.2218,178.792,-0.307617,88.5938,116
1567619351,370.582,115.416,24.2218,178.792,-0.307617,88.5938,116
1567619351,370.582,115.416,24.2218,178.792,-0.307617,88.5938,116
1567619351,370.582,115.416,24.2218,178.792,-0.307617,88.5938,116
1567619351,370.582,115.416,24.2218,178.792,-0.307617,88.5938,116
1567619351,370.582,115.416,24.2218,178.792,-0.307617,88.5938,116
1567619351,370.582,115.416,24.2218,178.792,-0.307617,88.5938,116
1567619351,370.582,115.416,24.2218,178.792,-0.307617,88.5938,116
1567619351,370.582,115.416,24.2218,178.792,-0.285645,88.5938,116
1567619351,370.582,115.416,24.2218,178.792,-0.285645,88.5718,116
1567619351,370.582,115.416,24.2218,178.792,-0.285645,88.5718,116
1567619351,370.582,115.416,24.2218,178.792,-0.285645,88.5718,116
1567619351,370.582,115.416,24.2218,178.792,-0.285645,88.5718,116
1567619351,370.582,115.416,24.2218,178.792,-0.285645,88.5718,116
1567619351,370.582,115.416,24.2218,178.792,-0.285645,88.5718,116
1567619359,370.582,115.416,24.2218,178.792,-0.263672,88.5938,112
1567619359,370.582,115.416,24.2218,178.792,-0.263672,88.5938,112
1567619359,370.582,115.416,24.2218,178.792,-0.263672,88.5938,112
1567619359,370.582,115.416,24.2218,178.792,-0.263672,88.5938,112
1567619359,370.582,115.416,24.2218,178.792,-0.263672,88.5938,112
1567619359,370.582,115.416,24.2218,178.792,-0.263672,88.5938,112
1567619359,370.582,115.416,24.2218,178.792,-0.263672,88.5938,112
1567619359,370.582,115.416,24.2218,178.792,-0.263672,88.5938,112
1567619359,370.582,115.416,24.2218,178.792,-0.263672,88.5938,112
1567619359,370.582,115.416,24.2218,178.792,-0.263672,88.5938,112
1567619359,370.582,115.416,24.2218,178.792,-0.263672,88.5938,112
1567619359,370.582,115.416,24.2218,178.792,-0.263672,88.5938,116
1567619359,370.582,115.416,24.2218,178.792,-0.263672,88.5938,116
1567619359,370.582,115.416,24.2218,178.792,-0.263672,88.5938,116
1567619359,370.582,115.416,24.2218,178.792,-0.263672,88.5938,116
1567619359,370.582,115.416,24.2218,178.792,-0.263672,88.5938,116
1567619359,370.582,115.416,24.2218,178.792,-0.263672,88.5938,116
1567619359,370.582,115.416,24.2218,178.792,-0.263672,88.5938,116
1567619359,370.582,115.416,24.2218,178.792,-0.263672,88.5938,116
1567619359,370.582,115.416,24.2218,178.792,-0.263672,88.5938,116
1567619359,370.582,115.416,24.2218,178.792,-0.263672,88.5938,116
1567619359,370.582,115.416,24.2218,178.792,-0.263672,88.5938,116
1567619359,370.582,115.416,24.2218,178.792,-0.263672,88.5938,116
1567619359,370.582,115.416,24.2218,178.792,-0.263672,88.5938,116
1567619359,370.582,115.416,24.2218,178.792,-0.263672,88.5938,116
1567619359,370.582,115.416,24.2218,178.792,-0.263672,88.5938,116
1567619359,370.582,115.416,24.2218,178.792,-0.263672,88.5938,116
1567619359,370.582,115.416,24.2218,178.792,-0.263672,88.5938,116
1567619359,370.582,115.416,24.2218,178.792,-0.263672,88.5938,116
1567619359,370.582,115.416,24.2218,178.792,-0.263672,88.5938,116
1567619359,370.582,115.416,24.2218,178.792,-0.263672,88.5938,116
1567619359,370.582,115.416,24.2218,178.792,-0.263672,88.5938,116
1567619359,370.582,115.416,24.2218,178.792,-0.263672,88.5938,116
1567619359,370.582,115.416,24.2218,178.792,-0.263672,88.5938,116
1567619359,370.582,115.416,24.2218,178.792,-0.263672,88.5938,116
1567619359,370.582,115.416,24.2218,178.792,-0.263672,88.5718,112
1567619359,370.582,115.416,24.2218,178.792,-0.263672,88.5718,112
1567619359,370.582,115.416,24.2218,178.792,-0.263672,88.5718,112
1567619359,370.582,115.416,24.2218,178.792,-0.263672,88.5718,112
1567619359,370.582,115.416,24.2218,178.792,-0.263672,88.5718,112
1567619359,370.582,115.416,24.2218,178.792,-0.263672,88.5718,112
1567619359,370.582,115.416,24.2218,178.792,-0.263672,88.5718,112
1567619359,370.582,115.416,24.2218,178.792,-0.263672,88.5718,112
1567619359,370.582,115.416,24.2218,178.792,-0.263672,88.5718,112
1567619359,370.582,115.416,24.2218,178.792,-0.263672,88.5718,112
1567619359,370.582,115.416,24.2218,178.792,-0.263672,88.5718,112
1567619359,370.582,115.416,24.2218,178.792,-0.263672,88.5718,112
1567619359,370.582,115.416,24.2218,178.792,-0.263672,88.5718,112
1567619359,370.582,115.416,24.2218,178.792,-0.263672,88.5718,112
1567619359,370.582,115.416,24.2218,178.792,-0.263672,88.5718,112
1567619359,370.582,115.416,24.2218,178.792,-0.263672,88.5718,112
1567619359,370.582,115.416,24.2218,178.792,-0.263672,88.5718,112
1567619359,370.582,115.416,24.2218,178.792,-0.263672,88.5718,112
1567619359,370.582,115.416,24.2218,178.792,-0.263672,88.5718,112
1567619359,370.582,115.416,24.2218,178.792,-0.263672,88.5718,112
1567619359,370.582,115.416,24.2218,178.792,-0.263672,88.5718,112
1567619359,370.582,115.416,24.2218,178.792,-0.263672,88.5718,112
1567619359,370.582,115.416,24.2218,178.792,-0.263672,88.5718,112
1567619359,370.582,115.416,24.2218,178.792,-0.263672,88.5718,112
1567619359,370.582,115.416,24.2218,178.792,-0.263672,88.5718,112
1567619359,370.582,115.416,24.2218,178.792,-0.263672,88.5718,112
1567619359,370.582,115.416,24.2218,178.792,-0.263672,88.5718,112
1567619359,370.582,115.416,24.2218,178.792,-0.263672,88.5718,112
1567619359,370.582,115.416,24.2218,178.792,-0.263672,88.5718,112
1567619359,370.582,115.416,24.2218,178.792,-0.263672,88.5718,112
1567619359,370.582,115.416,24.2218,178.792,-0.263672,88.5718,112
1567619359,370.582,115.416,24.2218,178.792,-0.263672,88.5718,112
1567619359,370.582,115.416,24.1102,178.792,-0.263672,88.5718,112
1567619359,370.582,115.416,24.1102,178.792,-0.263672,88.5718,112
1567619359,370.582,115.416,24.1102,178.792,-0.263672,88.5718,112
1567619359,370.582,115.416,24.1102,178.792,-0.263672,88.5718,112
1567619359,370.582,115.416,24.1102,178.792,-0.263672,88.5718,112
1567619359,370.582,115.416,24.1102,178.792,-0.263672,88.5718,112
1567619359,370.582,115.416,24.1102,178.792,-0.263672,88.5718,112
1567619360,370.582,115.416,24.1102,178.792,-0.263672,88.5718,112
1567619360,370.582,115.416,24.2218,178.792,-0.263672,88.5718,112
1567619360,370.582,115.416,24.2218,178.792,-0.263672,88.5718,112
1567619360,370.582,115.416,24.2218,178.792,-0.263672,88.5718,112
1567619360,370.582,115.416,24.2218,178.792,-0.263672,88.5718,112
1567619360,370.582,115.416,24.2218,178.792,-0.263672,88.5718,112
1567619360,370.582,115.416,24.2218,178.792,-0.263672,88.5718,112
1567619360,370.582,115.416,24.2218,178.792,-0.263672,88.5718,112
1567619360,370.582,115.416,24.2218,178.792,-0.263672,88.5718,112
1567619360,370.582,115.416,24.2218,178.792,-0.263672,88.5718,112
1567619360,370.582,115.416,24.2218,178.792,-0.263672,88.5718,116
1567619360,370.582,115.416,24.2218,178.792,-0.263672,88.5718,116
1567619360,370.582,115.416,24.2218,178.792,-0.263672,88.5718,116
1567619360,370.582,115.416,24.2218,178.792,-0.263672,88.5718,116
1567619360,370.582,115.416,24.2218,178.792,-0.263672,88.5718,116
1567619360,370.582,115.416,24.2218,178.792,-0.263672,88.5718,116
1567619360,370.582,115.416,24.2218,178.792,-0.263672,88.5718,116
1567619360,370.582,115.416,24.2218,178.792,-0.263672,88.5718,116
1567619360,370.582,115.416,24.2218,178.792,-0.263672,88.5718,116
1567619360,370.582,115.416,24.2218,178.792,-0.263672,88.5718,116
1567619360,370.582,115.416,24.2218,178.792,-0.263672,88.5718,116
1567619360,370.582,115.416,24.2218,178.792,-0.263672,88.5718,116
1567619360,370.582,115.416,24.2218,178.792,-0.263672,88.5718,116
1567619360,370.582,115.416,24.2218,178.792,-0.263672,88.5718,116
1567619360,370.582,115.416,24.2218,178.792,-0.263672,88.5718,116
1567619360,370.582,115.416,24.2218,178.792,-0.263672,88.5718,116
1567619360,370.582,115.416,24.2218,178.792,-0.263672,88.5718,116
1567619360,370.582,115.416,24.2218,178.792,-0.263672,88.5718,116
1567619360,370.582,115.416,24.2218,178.792,-0.263672,88.5718,116
1567619360,370.582,115.416,24.2218,178.792,-0.263672,88.5718,116
1567619360,370.582,115.416,24.2218,178.792,-0.263672,88.5718,116
1567619360,370.582,115.416,24.2218,178.792,-0.263672,88.5718,116
1567619360,370.582,115.416,24.2218,178.792,-0.263672,88.5718,116
1567619360,370.582,115.416,24.2218,178.792,-0.263672,88.5718,116
1567619360,370.582,115.416,24.2218,178.792,-0.263672,88.5718,116
1567619360,370.582,115.416,24.2218,178.792,-0.263672,88.5718,116
1567619360,370.582,115.416,24.2218,178.792,-0.263672,88.5718,116
1567619360,370.582,115.416,24.2218,178.792,-0.263672,88.5718,116
1567619360,370.582,115.416,24.2218,178.792,-0.263672,88.5718,116
1567619360,370.582,115.416,24.2218,178.792,-0.263672,88.5718,116
1567619360,370.582,115.416,24.2218,178.792,-0.263672,88.5718,116
1567619360,370.582,115.416,24.2218,178.792,-0.263672,88.5718,116
1567619360,370.582,115.416,24.2218,178.792,-0.263672,88.5718,116
1567619360,370.582,115.416,24.2218,178.792,-0.263672,88.5718,116
1567619360,370.582,115.416,24.2218,178.792,-0.263672,88.5718,116
1567619360,370.582,115.416,24.2218,178.792,-0.263672,88.5718,116
1567619360,370.582,115.416,24.2218,178.792,-0.263672,88.5718,116
1567619360,370.582,115.416,24.2218,178.792,-0.263672,88.5718,116
1567619360,370.582,115.416,24.2218,178.792,-0.263672,88.5718,116
1567619360,370.582,115.416,24.2218,178.792,-0.263672,88.5718,116
1567619360,370.582,115.416,24.2218,178.792,-0.263672,88.5718,116
1567619360,370.582,115.416,24.2218,178.792,-0.263672,88.5718,116
1567619360,370.582,115.416,24.2218,178.792,-0.263672,88.5718,116
1567619360,370.582,115.416,24.2218,178.792,-0.263672,88.5718,116
1567619360,370.582,115.416,24.2218,178.792,-0.263672,88.5718,116
1567619360,370.582,115.416,24.2218,178.792,-0.263672,88.5718,116
1567619360,370.582,115.416,24.2218,178.792,-0.263672,88.5718,116
1567619360,370.582,115.416,24.2218,178.792,-0.263672,88.5718,116
1567619360,370.582,115.416,24.2218,178.792,-0.263672,88.5718,116
1567619360,370.582,115.416,24.2218,178.792,-0.263672,88.5718,116
1567619360,370.582,115.416,24.2218,178.792,-0.263672,88.5718,116
1567619360,370.582,115.416,24.2218,178.792,-0.263672,88.5718,116
1567619360,370.582,115.416,24.2218,178.792,-0.263672,88.5718,116
1567619360,370.582,115.416,24.2218,178.792,-0.263672,88.5718,116
1567619360,370.582,115.416,24.2218,178.792,-0.263672,88.5718,116
1567619360,370.582,115.416,24.2218,178.792,-0.263672,88.5718,116
1567619360,370.582,115.416,24.2218,178.792,-0.263672,88.5718,116
1567619360,370.582,115.416,24.2218,178.792,-0.263672,88.5718,116
1567619360,370.582,115.416,24.2218,178.792,-0.263672,88.5718,116
1567619360,370.582,115.416,24.2218,178.792,-0.263672,88.5718,116
1567619360,370.582,115.416,24.2218,178.792,-0.263672,88.5718,116
1567619360,370.582,115.416,24.2218,178.792,-0.263672,88.5718,116
1567619360,370.582,115.416,24.2218,178.792,-0.263672,88.5718,116
1567619360,370.582,115.416,24.2218,178.792,-0.263672,88.5718,116
1567619360,370.582,115.416,24.2218,178.792,-0.263672,88.5718,116
1567619360,370.582,115.416,24.2218,178.792,-0.263672,88.5718,116
1567619360,370.582,115.416,24.2218,178.792,-0.263672,88.5718,116
1567619360,370.582,115.416,24.2218,178.792,-0.263672,88.5718,116
1567619360,370.582,115.416,24.2218,178.792,-0.263672,88.5718,116
1567619360,370.582,115.416,24.2218,178.792,-0.263672,88.5718,116
1567619360,370.582,115.416,24.2218,178.792,-0.263672,88.5718,116
1567619360,370.582,115.416,24.2218,178.792,-0.263672,88.5718,116
1567619360,370.582,115.416,24.2218,178.792,-0.263672,88.5718,116
1567619360,370.582,115.416,24.2218,178.792,-0.263672,88.5718,116
1567619360,370.582,115.416,24.2218,178.792,-0.263672,88.5718,116
1567619360,370.582,115.416,24.2218,178.792,-0.263672,88.5718,116
1567619360,370.582,115.416,24.2218,178.792,-0.263672,88.5718,116
1567619360,370.582,115.416,24.2218,178.792,-0.263672,88.5718,116
1567619360,370.582,115.416,24.2218,178.792,-0.263672,88.5718,116
1567619360,370.582,115.416,24.2218,178.792,-0.263672,88.5718,116
1567619360,370.582,115.416,24.2218,178.792,-0.263672,88.5718,116
1567619360,370.582,115.416,24.2218,178.792,-0.263672,88.5718,116
1567619360,370.582,115.416,24.2218,178.792,-0.263672,88.5718,116
1567619360,370.582,115.416,24.2218,178.792,-0.263672,88.5718,116
1567619360,370.582,115.416,24.2218,178.792,-0.263672,88.5718,116
1567619360,370.582,115.416,24.2218,178.792,-0.263672,88.5718,116
1567619360,370.582,115.416,24.2218,178.792,-0.263672,88.5718,116
1567619360,370.582,115.416,24.2218,178.792,-0.263672,88.5718,116
1567619360,370.582,115.416,24.2218,178.792,-0.263672,88.5718,116
1567619360,370.582,115.416,24.2218,178.792,-0.263672,88.5718,116
1567619361,370.582,115.416,24.2218,178.792,-0.263672,88.5718,116
1567619361,370.582,115.416,24.2218,178.792,-0.263672,88.5718,116
1567619361,370.582,115.416,24.2218,178.792,-0.263672,88.5718,116
1567619361,370.582,115.416,24.2218,178.792,-0.263672,88.5718,116
1567619361,370.582,115.416,24.2218,178.792,-0.263672,88.5718,116
1567619361,370.582,115.416,24.2218,178.792,-0.263672,88.5718,116
1567619361,370.582,115.416,24.2218,178.792,-0.263672,88.5718,116
1567619361,370.582,115.416,24.2218,178.792,-0.263672,88.5718,116
1567619361,370.582,115.416,24.2218,178.792,-0.263672,88.5718,116
1567619361,370.582,115.416,24.2218,178.792,-0.263672,88.5718,116
1567619361,370.582,115.416,24.2218,178.792,-0.263672,88.5718,116
1567619361,370.582,115.416,24.2218,178.792,-0.263672,88.5718,116
1567619361,370.582,115.416,24.2218,178.792,-0.263672,88.5718,116
1567619361,370.582,115.416,24.2218,178.792,-0.263672,88.5718,116
1567619361,370.582,115.416,24.2218,178.792,-0.263672,88.5718,116
1567619361,370.582,115.416,24.2218,178.792,-0.263672,88.5718,116
1567619361,370.582,115.416,24.2218,178.792,-0.263672,88.5718,116
1567619361,370.582,115.416,24.2218,178.792,-0.263672,88.5718,116
1567619361,370.582,115.416,24.2218,178.792,-0.263672,88.5718,116
1567619361,370.582,115.416,24.2218,178.792,-0.263672,88.5718,116
1567619361,370.582,115.416,24.2218,178.792,-0.263672,88.5718,116
1567619361,370.582,115.416,24.2218,178.792,-0.263672,88.5718,116
1567619361,370.582,115.416,24.2218,178.792,-0.263672,88.5718,116
1567619361,370.582,115.416,24.2218,178.792,-0.263672,88.5718,116
1567619361,370.582,115.416,24.2218,178.792,-0.263672,88.5718,116
1567619361,370.582,115.416,24.2218,178.792,-0.263672,88.5718,116
1567619361,370.582,115.416,24.2218,178.792,-0.263672,88.5718,116
1567619361,370.582,115.416,24.2218,178.792,-0.263672,88.5718,116
1567619361,370.582,115.416,24.2218,178.792,-0.263672,88.5718,116
1567619361,370.582,115.416,24.2218,178.792,-0.263672,88.5718,116
1567619361,370.582,115.416,24.2218,178.792,-0.263672,88.5718,116
1567619361,370.582,115.416,24.2218,178.792,-0.263672,88.5718,116
1567619361,370.582,115.416,24.2218,178.792,-0.263672,88.5718,116
1567619361,370.582,115.416,24.2218,178.792,-0.263672,88.5718,116
1567619361,370.582,115.416,24.2218,178.792,-0.263672,88.5718,116
1567619361,370.582,115.416,24.2218,178.792,-0.263672,88.5718,116
1567619361,370.582,115.416,24.2218,178.792,-0.263672,88.5718,116
1567619361,370.582,115.416,24.2218,178.792,-0.263672,88.5718,116
1567619361,370.582,115.416,24.2218,178.792,-0.263672,88.5718,116
1567619361,370.582,115.416,24.2218,178.792,-0.263672,88.5718,116
1567619361,370.582,115.416,24.2218,178.792,-0.263672,88.5718,116
1567619361,370.582,115.416,24.2218,178.792,-0.263672,88.5718,116
1567619361,370.582,115.416,24.2218,178.792,-0.263672,88.5718,116
1567619361,370.582,115.416,24.2218,178.792,-0.263672,88.5718,116
1567619361,370.582,115.416,24.2218,178.792,-0.263672,88.5718,116
1567619361,370.582,115.416,24.2218,178.792,-0.263672,88.5718,116
1567619361,370.582,115.416,24.2218,178.792,-0.263672,88.5718,116
1567619361,370.582,115.416,24.2218,178.792,-0.263672,88.5718,116
1567619361,370.582,115.416,24.2218,178.792,-0.263672,88.5718,116
1567619361,370.582,115.416,24.2218,178.792,-0.263672,88.5718,112
1567619361,370.582,115.416,24.2218,178.792,-0.263672,88.5718,112
1567619361,370.582,115.416,24.2218,178.792,-0.263672,88.5718,112
1567619361,370.582,115.416,24.2218,178.792,-0.263672,88.5718,112
1567619361,370.582,115.416,24.2218,178.792,-0.263672,88.5718,116
1567619361,370.582,115.416,24.2218,178.792,-0.263672,88.5718,116
1567619361,370.582,115.416,24.2218,178.792,-0.263672,88.5718,116
1567619361,370.582,115.416,24.2218,178.792,-0.263672,88.5718,116
1567619361,370.582,115.416,24.2218,178.792,-0.263672,88.5718,116
1567619361,370.582,115.416,24.2218,178.792,-0.263672,88.5718,116
1567619361,370.582,115.416,24.2218,178.792,-0.263672,88.5718,116
1567619361,370.582,115.416,24.2218,178.792,-0.263672,88.5718,116
1567619361,370.582,115.416,24.2218,178.792,-0.263672,88.5718,116
1567619361,370.582,115.416,24.2218,178.792,-0.263672,88.5718,116
1567619361,370.582,115.416,24.2218,178.792,-0.263672,88.5718,116
1567619361,370.582,115.416,24.2218,178.792,-0.263672,88.5718,116
1567619361,370.582,115.416,24.2218,178.792,-0.263672,88.5718,116
1567619361,370.582,115.416,24.2218,178.792,-0.263672,88.5718,116
1567619361,370.582,115.416,24.2218,178.792,-0.263672,88.5718,116
1567619361,370.582,115.416,24.2218,178.792,-0.263672,88.5718,116
1567619361,370.582,115.416,24.2218,178.792,-0.263672,88.5718,116
1567619361,370.582,115.416,24.2218,178.792,-0.263672,88.5718,116
1567619361,370.582,115.416,24.2218,178.792,-0.263672,88.5718,116
1567619361,370.582,115.416,24.2218,178.792,-0.263672,88.5718,116
1567619361,370.582,115.416,24.2218,178.792,-0.263672,88.5718,116
1567619361,370.582,115.416,24.2218,178.792,-0.263672,88.5718,116
1567619361,370.582,115.416,24.2218,178.792,-0.263672,88.5718,116
1567619361,370.582,115.416,24.2218,178.792,-0.263672,88.5718,116
1567619361,370.582,115.416,24.2218,178.792,-0.263672,88.5718,116
1567619361,370.582,115.416,24.2218,178.792,-0.263672,88.5718,116
1567619361,370.582,115.416,24.2218,178.792,-0.263672,88.5718,116
1567619361,370.582,115.416,24.2218,178.792,-0.263672,88.5718,116
1567619361,370.582,115.416,24.2218,178.792,-0.263672,88.5938,116
1567619361,370.582,115.416,24.2218,178.792,-0.263672,88.5938,116
1567619361,370.582,115.416,24.2218,178.792,-0.263672,88.5938,116
1567619361,370.582,115.416,24.2218,178.792,-0.263672,88.5938,116
1567619361,370.582,115.416,24.2218,178.792,-0.263672,88.5938,116
1567619361,370.582,115.416,24.2218,178.792,-0.263672,88.5938,116
1567619361,370.582,115.416,24.2218,178.792,-0.263672,88.5938,116
1567619361,370.582,115.416,24.2218,178.792,-0.263672,88.5938,116
1567619361,370.582,115.416,24.2218,178.792,-0.263672,88.5938,116
1567619361,370.582,115.416,24.2218,178.792,-0.263672,88.5938,116
1567619361,370.582,115.416,24.2218,178.792,-0.263672,88.5938,116
1567619361,370.582,115.416,24.2218,178.792,-0.263672,88.5718,116
1567619361,370.582,115.416,24.2218,178.792,-0.263672,88.5718,116
1567619361,370.582,115.416,24.2218,178.792,-0.263672,88.5718,116
1567619361,370.582,115.416,24.2218,178.792,-0.263672,88.5718,116
1567619361,370.582,115.416,24.2218,178.792,-0.263672,88.5718,116
1567619361,370.582,115.416,24.2218,178.792,-0.263672,88.5718,116
1567619361,370.582,115.416,24.2218,178.792,-0.263672,88.5718,116
1567619361,370.582,115.416,24.2218,178.792,-0.263672,88.5718,116
1567619362,370.582,115.416,24.2218,178.792,-0.263672,88.5718,116
1567619362,370.582,115.416,24.2218,178.792,-0.263672,88.5718,112
1567619362,370.582,115.416,24.2218,178.792,-0.263672,88.5718,112
1567619362,370.582,115.416,24.2218,178.792,-0.263672,88.5718,112
1567619362,370.582,115.416,24.2218,178.792,-0.263672,88.5718,112
1567619362,370.582,115.416,24.2218,178.792,-0.263672,88.5718,112
1567619362,370.582,115.416,24.2218,178.792,-0.263672,88.5718,112
1567619362,370.582,115.416,24.2218,178.792,-0.263672,88.5718,112
1567619362,370.582,115.416,24.2218,178.792,-0.263672,88.5718,112
1567619362,370.582,115.416,24.2218,178.792,-0.263672,88.5718,112
1567619362,370.582,115.416,24.2218,178.792,-0.263672,88.5718,112
1567619362,370.582,115.416,24.2218,178.792,-0.263672,88.5718,112
1567619362,370.582,115.416,24.2218,178.792,-0.263672,88.5718,112
1567619362,370.582,115.416,24.2218,178.792,-0.263672,88.5718,112
1567619362,370.582,115.416,24.2218,178.792,-0.263672,88.5718,112
1567619362,370.582,115.416,24.2218,178.792,-0.263672,88.5718,112
1567619362,370.582,115.416,24.2218,178.792,-0.263672,88.5718,112
1567619362,370.582,115.416,24.2218,178.792,-0.263672,88.5718,112
1567619362,370.582,115.416,24.2218,178.792,-0.263672,88.5718,112
1567619362,370.582,115.416,24.2218,178.792,-0.263672,88.5718,112
1567619362,370.582,115.416,24.2218,178.792,-0.263672,88.5718,112
1567619362,370.582,115.416,24.2218,178.792,-0.263672,88.5718,112
1567619362,370.582,115.416,24.2218,178.792,-0.263672,88.5718,112
1567619362,370.582,115.416,24.2218,178.792,-0.263672,88.5718,116
1567619362,370.582,115.416,24.2218,178.792,-0.263672,88.5718,116
1567619362,370.582,115.416,24.2218,178.792,-0.263672,88.5718,116
1567619362,370.582,115.416,24.2218,178.792,-0.263672,88.5718,116
1567619362,370.582,115.416,24.2218,178.792,-0.263672,88.5718,116
1567619362,370.582,115.416,24.2218,178.792,-0.263672,88.5718,116
1567619362,370.582,115.416,24.2218,178.792,-0.263672,88.5718,116
1567619362,370.582,115.416,24.2218,178.792,-0.263672,88.5718,116
1567619362,370.582,115.416,24.2218,178.792,-0.263672,88.5718,116
1567619362,370.582,115.416,24.2218,178.792,-0.263672,88.5718,116
1567619362,370.582,115.416,24.2218,178.792,-0.263672,88.5718,116
1567619362,370.582,115.416,24.2218,178.792,-0.263672,88.5718,116
1567619362,370.582,115.416,24.2218,178.792,-0.263672,88.5718,116
1567619362,370.582,115.416,24.2218,178.792,-0.263672,88.5718,116
1567619362,370.582,115.416,24.2218,178.792,-0.263672,88.5718,116
1567619362,370.582,115.416,24.2218,178.792,-0.263672,88.5718,116
1567619362,370.582,115.416,24.2218,178.792,-0.263672,88.5718,116
1567619362,370.582,115.416,24.2218,178.792,-0.263672,88.5718,116
1567619362,370.582,115.416,24.2218,178.792,-0.263672,88.5718,116
1567619362,370.582,115.416,24.2218,178.792,-0.263672,88.5718,116
