time,x,y,z,ax,ay,az,q
1569838514,327.161,25.0031,-2.23242,177.671,6.39404,-145.393,1000
1569838514,327.161,25.0031,-2.23242,177.671,6.39404,-145.393,1000
1569838514,327.161,25.0031,-2.23242,177.671,6.39404,-145.393,1000
1569838514,327.161,25.0031,-2.23242,177.671,6.39404,-145.393,996
1569838514,327.161,25.0031,-2.23242,177.671,6.39404,-145.393,996
1569838514,327.161,25.0031,-2.23242,177.671,6.39404,-145.393,996
1569838514,327.161,25.0031,-2.23242,177.671,6.39404,-145.393,996
1569838514,327.161,25.0031,-2.23242,177.671,6.39404,-145.393,996
1569838514,327.161,25.0031,-2.23242,177.671,6.39404,-145.393,996
1569838514,327.161,25.0031,-2.23242,177.671,6.39404,-145.393,996
1569838514,327.161,25.0031,-2.23242,177.671,6.39404,-145.393,996
1569838514,327.161,25.0031,-2.23242,177.671,6.39404,-145.393,996
1569838514,327.161,25.0031,-2.23242,177.671,6.39404,-145.393,996
1569838514,327.161,25.0031,-2.23242,177.671,6.39404,-145.393,992
1569838514,327.161,25.0031,-2.23242,177.671,6.39404,-145.393,992
1569838514,327.161,25.0031,-2.23242,177.671,6.39404,-145.393,992
1569838514,327.161,25.0031,-2.23242,177.671,6.39404,-145.393,992
1569838514,327.161,25.0031,-2.23242,177.671,6.39404,-145.393,992
1569838514,327.161,25.0031,-2.23242,177.671,6.39404,-145.393,992
1569838514,327.161,25.0031,-2.23242,177.671,6.39404,-145.393,992
1569838514,327.161,25.0031,-2.23242,177.671,6.39404,-145.393,992
1569838514,327.161,25.0031,-2.23242,177.693,6.39404,-145.393,992
1569838514,327.161,25.0031,-2.23242,177.693,6.39404,-145.393,992
1569838514,327.161,25.0031,-2.23242,177.693,6.39404,-145.393,992
1569838514,327.161,25.0031,-2.23242,177.693,6.39404,-145.393,992
1569838514,327.161,25.0031,-2.23242,177.693,6.39404,-145.393,992
1569838515,327.161,25.0031,-2.23242,177.693,6.39404,-145.393,992
1569838515,327.161,25.0031,-2.23242,177.693,6.39404,-145.393,992
1569838515,327.161,25.1147,-2.23242,177.693,6.39404,-145.393,992
1569838515,327.161,25.1147,-2.23242,177.693,6.39404,-145.393,996
1569838515,327.161,25.1147,-2.23242,177.693,6.39404,-145.393,996
1569838515,327.161,25.1147,-2.23242,177.693,6.39404,-145.393,996
1569838515,327.161,25.1147,-2.23242,177.693,6.39404,-145.393,996
1569838515,327.161,25.1147,-2.23242,177.693,6.39404,-145.393,996
1569838515,327.161,25.0031,-2.23242,177.693,6.39404,-145.393,996
1569838515,327.161,25.0031,-2.23242,177.693,6.39404,-145.393,996
1569838515,327.161,25.0031,-2.23242,177.693,6.39404,-145.393,996
1569838515,327.161,25.0031,-2.23242,177.693,6.39404,-145.393,996
1569838515,327.161,25.0031,-2.23242,177.693,6.39404,-145.393,996
1569838515,327.161,25.0031,-2.23242,177.693,6.39404,-145.393,996
1569838515,327.161,25.0031,-2.23242,177.693,6.39404,-145.393,992
1569838515,327.161,25.0031,-2.23242,177.671,6.39404,-145.393,992
1569838515,327.161,25.0031,-2.23242,177.671,6.39404,-145.393,992
1569838515,327.161,25.0031,-2.23242,177.693,6.39404,-145.371,992
1569838515,327.161,25.0031,-2.23242,177.693,6.39404,-145.371,992
1569838515,327.161,25.0031,-2.23242,177.693,6.39404,-145.371,992
1569838515,327.161,25.0031,-2.23242,177.693,6.39404,-145.371,992
1569838515,327.161,25.0031,-2.23242,177.693,6.39404,-145.371,992
1569838515,327.161,25.0031,-2.23242,177.693,6.39404,-145.371,992
1569838515,327.161,25.0031,-2.23242,177.693,6.39404,-145.371,992
1569838515,327.161,25.1147,-2.23242,177.693,6.39404,-145.371,992
1569838515,327.161,25.1147,-2.23242,177.693,6.39404,-145.371,992
1569838515,327.161,25.1147,-2.23242,177.693,6.37207,-145.371,992
1569838515,327.161,25.1147,-2.23242,177.693,6.37207,-145.371,992
1569838515,327.161,25.1147,-2.23242,177.693,6.37207,-145.371,992
1569838515,327.161,25.1147,-2.23242,177.693,6.37207,-145.371,996
1569838515,327.161,25.1147,-2.23242,177.693,6.37207,-145.371,996
1569838515,327.161,25.1147,-2.23242,177.693,6.37207,-145.371,996
1569838515,327.161,25.1147,-2.23242,177.693,6.37207,-145.371,996
1569838515,327.161,25.1147,-2.23242,177.693,6.37207,-145.371,996
1569838515,327.161,25.1147,-2.23242,177.693,6.37207,-145.371,996
1569838515,327.161,25.1147,-2.23242,177.693,6.37207,-145.371,1000
1569838515,327.161,25.1147,-2.23242,177.693,6.37207,-145.371,1000
1569838515,327.161,25.1147,-2.23242,177.693,6.37207,-145.371,1000
1569838515,327.161,25.1147,-2.23242,177.693,6.37207,-145.371,1000
1569838515,327.161,25.1147,-2.23242,177.693,6.37207,-145.371,1000
1569838515,327.161,25.1147,-2.23242,177.693,6.37207,-145.371,1000
1569838515,327.161,25.1147,-2.23242,177.693,6.37207,-145.371,1000
1569838515,327.161,25.1147,-2.23242,177.693,6.37207,-145.371,1000
1569838515,327.161,25.1147,-2.23242,177.693,6.37207,-145.371,1000
1569838515,327.161,25.1147,-2.23242,177.693,6.37207,-145.371,1000
1569838515,327.161,25.1147,-2.23242,177.693,6.37207,-145.371,1000
1569838515,327.161,25.1147,-2.23242,177.693,6.37207,-145.371,1000
1569838515,327.161,25.1147,-2.23242,177.693,6.37207,-145.371,1000
1569838515,327.161,25.1147,-2.23242,177.693,6.37207,-145.371,1004
1569838515,327.161,25.1147,-2.23242,177.693,6.37207,-145.371,1004
1569838515,327.161,25.1147,-2.23242,177.693,6.37207,-145.371,1004
1569838515,327.273,25.1147,-2.23242,177.693,6.37207,-145.371,1004
1569838515,327.273,25.1147,-2.23242,177.693,6.37207,-145.371,1004
1569838515,327.273,25.1147,-2.23242,177.693,6.37207,-145.349,1004
1569838515,327.273,25.1147,-2.23242,177.693,6.37207,-145.349,1004
1569838515,327.273,25.1147,-2.23242,177.693,6.37207,-145.349,1004
1569838515,327.273,25.1147,-2.23242,177.693,6.37207,-145.349,1004
1569838515,327.273,25.1147,-2.23242,177.693,6.37207,-145.349,1004
1569838515,327.161,25.1147,-2.23242,177.693,6.37207,-145.349,1004
1569838515,327.161,25.1147,-2.23242,177.693,6.37207,-145.349,1004
1569838515,327.161,25.1147,-2.23242,177.693,6.37207,-145.349,1004
1569838515,327.161,25.0031,-2.23242,177.693,6.37207,-145.349,1004
1569838515,327.161,25.0031,-2.23242,177.693,6.37207,-145.349,1004
1569838515,327.161,25.0031,-2.23242,177.693,6.37207,-145.349,1000
1569838515,327.161,25.0031,-2.23242,177.693,6.37207,-145.349,1000
1569838515,327.161,25.1147,-2.23242,177.693,6.37207,-145.349,1000
1569838515,327.161,25.1147,-2.23242,177.693,6.37207,-145.349,1000
1569838515,327.161,25.1147,-2.23242,177.693,6.37207,-145.349,1000
1569838515,327.161,25.1147,-2.23242,177.693,6.37207,-145.349,1000
1569838515,327.161,25.1147,-2.23242,177.693,6.37207,-145.349,1000
1569838515,327.161,25.1147,-2.23242,177.693,6.37207,-145.349,996
1569838515,327.161,25.1147,-2.34404,177.693,6.37207,-145.349,996
1569838515,327.161,25.1147,-2.34404,177.693,6.37207,-145.349,996
1569838515,327.161,25.1147,-2.34404,177.693,6.37207,-145.349,996
1569838515,327.161,25.1147,-2.34404,177.693,6.37207,-145.371,996
1569838515,327.161,25.1147,-2.34404,177.693,6.37207,-145.371,996
1569838515,327.161,25.1147,-2.34404,177.693,6.37207,-145.371,996
1569838515,327.161,25.1147,-2.34404,177.693,6.37207,-145.371,996
1569838515,327.161,25.1147,-2.34404,177.693,6.37207,-145.371,996
1569838515,327.161,25.1147,-2.34404,177.693,6.37207,-145.371,996
1569838515,327.161,25.1147,-2.34404,177.693,6.37207,-145.371,996
1569838515,327.161,25.1147,-2.34404,177.693,6.37207,-145.371,996
1569838515,327.161,25.0031,-2.34404,177.693,6.37207,-145.371,996
1569838515,327.161,25.0031,-2.34404,177.693,6.37207,-145.371,996
1569838515,327.161,25.0031,-2.34404,177.693,6.37207,-145.371,992
1569838515,327.161,25.0031,-2.34404,177.693,6.37207,-145.371,992
1569838515,327.161,25.0031,-2.34404,177.693,6.37207,-145.371,992
1569838515,327.161,25.0031,-2.34404,177.693,6.37207,-145.371,992
1569838515,327.161,25.0031,-2.34404,177.693,6.37207,-145.371,992
1569838515,327.161,25.0031,-2.34404,177.693,6.37207,-145.371,992
1569838515,327.161,25.1147,-2.34404,177.693,6.37207,-145.371,988
1569838515,327.161,25.1147,-2.34404,177.693,6.37207,-145.371,988
1569838515,327.161,25.0031,-2.34404,177.693,6.37207,-145.371,988
1569838515,327.161,25.0031,-2.34404,177.693,6.37207,-145.371,988
1569838515,327.161,25.0031,-2.34404,177.693,6.37207,-145.371,988
1569838515,327.161,25.0031,-2.34404,177.693,6.37207,-145.371,988
1569838515,327.161,25.0031,-2.34404,177.693,6.37207,-145.371,988
1569838515,327.161,25.0031,-2.34404,177.671,6.37207,-145.371,988
1569838515,327.161,25.0031,-2.34404,177.671,6.37207,-145.371,988
1569838515,327.161,25.0031,-2.34404,177.671,6.37207,-145.371,988
1569838516,327.161,25.0031,-2.34404,177.671,6.37207,-145.371,988
1569838516,327.161,25.0031,-2.34404,177.671,6.37207,-145.371,988
1569838516,327.161,25.0031,-2.34404,177.671,6.37207,-145.371,988
1569838516,327.161,25.0031,-2.34404,177.671,6.37207,-145.371,988
1569838516,327.161,25.0031,-2.34404,177.671,6.37207,-145.371,988
1569838516,327.161,25.0031,-2.34404,177.671,6.37207,-145.371,988
1569838516,327.161,25.0031,-2.34404,177.671,6.37207,-145.371,988
1569838516,327.161,25.0031,-2.34404,177.671,6.37207,-145.371,992
1569838516,327.161,25.0031,-2.34404,177.671,6.37207,-145.371,992
1569838516,327.161,25.0031,-2.34404,177.671,6.37207,-145.371,992
1569838516,327.161,25.0031,-2.34404,177.671,6.37207,-145.371,992
1569838516,327.161,25.0031,-2.34404,177.671,6.37207,-145.371,992
1569838516,327.161,25.0031,-2.34404,177.671,6.37207,-145.371,996
1569838516,327.161,25.0031,-2.34404,177.671,6.37207,-145.371,996
1569838516,327.161,25.0031,-2.23242,177.671,6.37207,-145.371,996
1569838516,327.161,25.0031,-2.23242,177.671,6.37207,-145.371,996
1569838516,327.161,25.0031,-2.23242,177.671,6.37207,-145.371,996
1569838516,327.161,25.0031,-2.23242,177.671,6.37207,-145.371,1000
1569838516,327.161,25.0031,-2.23242,177.671,6.37207,-145.371,1000
1569838516,327.161,25.0031,-2.23242,177.671,6.37207,-145.371,1000
1569838516,327.161,25.0031,-2.23242,177.671,6.37207,-145.371,1000
1569838516,327.161,25.0031,-2.23242,177.671,6.37207,-145.371,1000
1569838516,327.161,25.0031,-2.23242,177.671,6.37207,-145.393,1004
1569838516,327.161,25.0031,-2.23242,177.671,6.37207,-145.393,1004
1569838516,327.161,25.0031,-2.23242,177.671,6.37207,-145.393,1004
1569838516,327.273,25.0031,-2.23242,177.671,6.37207,-145.393,1004
1569838516,327.273,25.0031,-2.23242,177.671,6.37207,-145.393,1004
1569838516,327.273,25.0031,-2.23242,177.671,6.37207,-145.393,1004
1569838516,327.273,25.0031,-2.23242,177.671,6.37207,-145.393,1008
1569838516,327.161,25.0031,-2.23242,177.671,6.37207,-145.393,1008
1569838516,327.161,25.0031,-2.23242,177.671,6.37207,-145.393,1008
1569838516,327.161,25.0031,-2.23242,177.671,6.37207,-145.393,1008
1569838516,327.161,25.0031,-2.23242,177.671,6.37207,-145.393,1008
1569838516,327.161,25.0031,-2.23242,177.671,6.37207,-145.393,1008
1569838516,327.161,25.0031,-2.23242,177.671,6.37207,-145.393,1008
1569838516,327.161,25.0031,-2.23242,177.671,6.37207,-145.393,1008
1569838516,327.161,25.0031,-2.23242,177.671,6.37207,-145.393,1008
1569838516,327.161,25.0031,-2.23242,177.671,6.39404,-145.393,1008
1569838516,327.161,25.0031,-2.23242,177.671,6.39404,-145.393,1008
1569838516,327.161,25.0031,-2.23242,177.671,6.39404,-145.393,1008
1569838516,327.161,25.0031,-2.23242,177.671,6.39404,-145.393,1008
1569838516,327.161,25.0031,-2.23242,177.671,6.39404,-145.393,1008
1569838516,327.161,25.0031,-2.23242,177.671,6.39404,-145.393,1008
1569838516,327.161,25.0031,-2.23242,177.671,6.39404,-145.393,1008
1569838516,327.161,25.0031,-2.23242,177.671,6.39404,-145.393,1008
1569838516,327.273,25.0031,-2.23242,177.671,6.39404,-145.393,1008
1569838516,327.273,25.0031,-2.23242,177.671,6.39404,-145.393,1008
1569838516,327.273,25.0031,-2.23242,177.671,6.39404,-145.393,1008
1569838516,327.273,25.0031,-2.23242,177.671,6.39404,-145.393,1008
1569838516,327.273,25.0031,-2.23242,177.671,6.39404,-145.393,1008
1569838516,327.273,25.0031,-2.23242,177.671,6.39404,-145.371,1008
1569838516,327.273,25.0031,-2.23242,177.671,6.39404,-145.371,1008
1569838516,327.273,25.0031,-2.23242,177.671,6.39404,-145.371,1008
1569838516,327.273,25.0031,-2.23242,177.671,6.39404,-145.371,1008
1569838516,327.273,25.0031,-2.23242,177.671,6.39404,-145.371,1008
1569838516,327.273,25.0031,-2.23242,177.671,6.39404,-145.371,1008
1569838516,327.273,25.0031,-2.23242,177.671,6.39404,-145.371,1008
1569838516,327.273,25.0031,-2.23242,177.671,6.39404,-145.371,1008
1569838516,327.161,25.0031,-2.23242,177.671,6.39404,-145.371,1008
1569838516,327.161,25.0031,-2.23242,177.671,6.39404,-145.371,1008
1569838516,327.161,25.0031,-2.23242,177.671,6.39404,-145.371,1008
1569838516,327.161,25.0031,-2.23242,177.671,6.39404,-145.371,1008
1569838516,327.161,25.0031,-2.23242,177.671,6.39404,-145.371,1008
1569838516,327.161,25.0031,-2.23242,177.671,6.39404,-145.371,1008
1569838516,327.161,25.0031,-2.23242,177.671,6.39404,-145.371,1008
1569838516,327.161,25.0031,-2.23242,177.671,6.41602,-145.371,1008
1569838516,327.161,25.0031,-2.23242,177.671,6.39404,-145.371,1008
1569838516,327.161,25.0031,-2.23242,177.671,6.39404,-145.371,1008
1569838516,327.161,25.0031,-2.23242,177.671,6.39404,-145.371,1008
1569838516,327.161,25.0031,-2.23242,177.671,6.39404,-145.371,1008
1569838516,327.161,25.0031,-2.23242,177.671,6.39404,-145.371,1008
1569838516,327.161,25.0031,-2.23242,177.671,6.39404,-145.371,1008
1569838516,327.161,25.0031,-2.23242,177.671,6.39404,-145.371,1008
1569838516,327.161,25.0031,-2.23242,177.671,6.39404,-145.371,1008
1569838516,327.161,25.0031,-2.23242,177.671,6.39404,-145.371,1008
1569838516,327.161,25.0031,-2.23242,177.671,6.39404,-145.371,1008
1569838516,327.161,25.0031,-2.23242,177.671,6.39404,-145.371,1012
1569838516,327.161,25.0031,-2.23242,177.671,6.39404,-145.371,1012
1569838516,327.161,25.0031,-2.23242,177.671,6.39404,-145.371,1012
1569838516,327.161,25.0031,-2.23242,177.693,6.39404,-145.371,1012
1569838516,327.161,25.0031,-2.23242,177.693,6.39404,-145.371,1012
1569838516,327.161,25.0031,-2.23242,177.693,6.39404,-145.371,1012
1569838516,327.161,25.0031,-2.23242,177.693,6.39404,-145.371,1012
1569838516,327.161,25.0031,-2.23242,177.693,6.39404,-145.371,1012
1569838516,327.161,25.0031,-2.23242,177.693,6.39404,-145.371,1012
1569838516,327.161,25.0031,-2.23242,177.693,6.39404,-145.371,1012
1569838516,327.161,25.0031,-2.23242,177.693,6.39404,-145.371,1012
1569838516,327.161,25.0031,-2.23242,177.693,6.39404,-145.371,1012
1569838516,327.161,25.1147,-2.23242,177.693,6.39404,-145.371,1012
1569838516,327.161,25.1147,-2.23242,177.693,6.39404,-145.371,1016
1569838516,327.161,25.1147,-2.23242,177.693,6.39404,-145.371,1016
1569838516,327.161,25.1147,-2.23242,177.693,6.39404,-145.371,1016
1569838516,327.161,25.1147,-2.23242,177.693,6.39404,-145.371,1016
1569838516,327.161,25.1147,-2.23242,177.693,6.39404,-145.371,1016
1569838516,327.161,25.1147,-2.23242,177.693,6.39404,-145.371,1016
1569838516,327.161,25.1147,-2.23242,177.693,6.39404,-145.371,1016
1569838516,327.161,25.1147,-2.23242,177.693,6.39404,-145.371,1016
1569838516,327.161,25.1147,-2.23242,177.693,6.39404,-145.371,1016
1569838516,327.161,25.1147,-2.23242,177.693,6.39404,-145.371,1016
1569838516,327.161,25.0031,-2.23242,177.693,6.39404,-145.371,1016
1569838517,327.161,25.0031,-2.23242,177.693,6.39404,-145.371,1016
1569838517,327.161,25.0031,-2.23242,177.693,6.39404,-145.371,1016
1569838517,327.161,25.0031,-2.23242,177.693,6.39404,-145.371,1016
1569838517,327.161,25.0031,-2.23242,177.671,6.39404,-145.371,1016
1569838517,327.161,25.0031,-2.23242,177.671,6.39404,-145.371,1016
1569838517,327.161,25.0031,-2.23242,177.671,6.39404,-145.371,1016
1569838517,327.161,25.0031,-2.23242,177.671,6.39404,-145.371,1016
1569838517,327.161,25.0031,-2.23242,177.671,6.39404,-145.371,1016
1569838517,327.161,25.0031,-2.23242,177.671,6.39404,-145.371,1016
1569838517,327.161,25.0031,-2.23242,177.671,6.39404,-145.371,1016
1569838517,327.161,25.0031,-2.23242,177.671,6.39404,-145.371,1016
1569838517,327.161,25.0031,-2.23242,177.671,6.39404,-145.371,1012
1569838517,327.161,25.0031,-2.23242,177.671,6.39404,-145.371,1012
1569838517,327.161,25.0031,-2.23242,177.671,6.39404,-145.371,1012
1569838517,327.161,25.0031,-2.23242,177.671,6.39404,-145.371,1012
1569838517,327.161,25.0031,-2.23242,177.671,6.39404,-145.371,1012
1569838517,327.161,25.0031,-2.23242,177.671,6.39404,-145.371,1008
1569838517,327.161,25.0031,-2.23242,177.671,6.39404,-145.371,1008
1569838517,327.161,25.0031,-2.23242,177.671,6.37207,-145.371,1008
1569838517,327.161,25.0031,-2.23242,177.671,6.37207,-145.371,1008
1569838517,327.161,25.0031,-2.23242,177.671,6.37207,-145.371,1008
1569838517,327.161,25.0031,-2.23242,177.671,6.37207,-145.371,1008
1569838517,327.161,25.0031,-2.23242,177.671,6.37207,-145.371,1008
1569838517,327.161,25.0031,-2.23242,177.671,6.37207,-145.371,1008
1569838517,327.161,25.0031,-2.23242,177.671,6.37207,-145.371,1008
1569838517,327.161,25.0031,-2.23242,177.671,6.37207,-145.371,1008
1569838517,327.161,25.0031,-2.23242,177.671,6.39404,-145.371,1004
1569838517,327.161,25.0031,-2.23242,177.671,6.39404,-145.371,1004
1569838517,327.161,25.0031,-2.23242,177.671,6.39404,-145.371,1004
1569838517,327.161,25.0031,-2.23242,177.671,6.39404,-145.371,1004
1569838517,327.161,25.0031,-2.23242,177.671,6.39404,-145.371,1004
1569838517,327.161,25.0031,-2.23242,177.671,6.39404,-145.371,1004
1569838517,327.161,25.0031,-2.23242,177.693,6.39404,-145.393,1004
1569838517,327.161,25.0031,-2.23242,177.693,6.39404,-145.393,1004
1569838517,327.161,25.0031,-2.23242,177.693,6.39404,-145.393,1004
1569838517,327.161,25.0031,-2.23242,177.693,6.39404,-145.393,1004
1569838517,327.161,25.0031,-2.23242,177.693,6.39404,-145.393,1004
1569838517,327.161,25.0031,-2.23242,177.693,6.37207,-145.393,1004
1569838517,327.161,25.0031,-2.23242,177.693,6.37207,-145.393,1004
1569838517,327.161,25.0031,-2.23242,177.693,6.37207,-145.393,1004
1569838517,327.161,25.0031,-2.23242,177.693,6.37207,-145.393,1000
1569838517,327.161,25.0031,-2.23242,177.693,6.37207,-145.393,1000
1569838517,327.161,25.0031,-2.23242,177.693,6.37207,-145.371,1000
1569838517,327.161,25.0031,-2.23242,177.693,6.37207,-145.371,1000
1569838517,327.161,25.0031,-2.23242,177.671,6.37207,-145.371,1000
1569838517,327.161,25.0031,-2.23242,177.671,6.37207,-145.371,1000
1569838517,327.161,25.0031,-2.23242,177.671,6.37207,-145.371,1000
1569838517,327.161,25.0031,-2.23242,177.671,6.37207,-145.371,1000
1569838517,327.161,25.0031,-2.23242,177.671,6.37207,-145.371,1000
1569838517,327.161,25.0031,-2.23242,177.671,6.37207,-145.371,1000
1569838517,327.161,25.0031,-2.23242,177.671,6.37207,-145.371,1000
1569838517,327.161,25.0031,-2.23242,177.693,6.37207,-145.371,1000
1569838517,327.161,25.0031,-2.23242,177.693,6.37207,-145.371,1004
1569838517,327.161,25.0031,-2.23242,177.693,6.37207,-145.371,1004
1569838517,327.161,25.0031,-2.23242,177.693,6.37207,-145.393,1004
1569838517,327.161,25.0031,-2.23242,177.693,6.37207,-145.393,1004
1569838517,327.161,25.0031,-2.23242,177.693,6.37207,-145.393,1004
1569838517,327.161,25.0031,-2.23242,177.693,6.37207,-145.393,1004
1569838517,327.161,25.0031,-2.23242,177.693,6.37207,-145.393,1004
1569838517,327.161,25.0031,-2.23242,177.693,6.37207,-145.393,1004
1569838517,327.161,25.0031,-2.23242,177.693,6.37207,-145.393,1004
1569838517,327.161,25.0031,-2.23242,177.693,6.37207,-145.393,1004
1569838517,327.161,25.0031,-2.23242,177.693,6.37207,-145.393,1008
1569838517,327.161,25.0031,-2.23242,177.693,6.37207,-145.393,1008
1569838517,327.161,25.0031,-2.23242,177.693,6.37207,-145.393,1008
1569838517,327.161,25.0031,-2.23242,177.693,6.37207,-145.393,1008
1569838517,327.161,25.0031,-2.23242,177.693,6.37207,-145.393,1008
1569838517,327.161,25.0031,-2.23242,177.693,6.37207,-145.393,1008
1569838517,327.161,25.0031,-2.23242,177.693,6.37207,-145.393,1008
1569838517,327.161,25.0031,-2.23242,177.693,6.37207,-145.393,1012
1569838517,327.161,25.0031,-2.23242,177.693,6.37207,-145.393,1012
1569838517,327.161,25.0031,-2.23242,177.693,6.37207,-145.393,1012
1569838517,327.161,25.0031,-2.23242,177.693,6.37207,-145.393,1012
1569838517,327.161,25.0031,-2.23242,177.693,6.37207,-145.393,1012
1569838517,327.161,25.0031,-2.34404,177.693,6.37207,-145.393,1012
1569838517,327.161,25.0031,-2.34404,177.693,6.37207,-145.393,1012
1569838517,327.161,25.0031,-2.34404,177.693,6.37207,-145.393,1012
1569838517,327.161,25.0031,-2.34404,177.693,6.37207,-145.393,1012
1569838517,327.161,25.0031,-2.34404,177.693,6.37207,-145.393,1012
1569838517,327.161,25.0031,-2.34404,177.693,6.37207,-145.393,1012
1569838517,327.161,25.0031,-2.34404,177.693,6.37207,-145.393,1012
1569838517,327.161,25.0031,-2.34404,177.693,6.37207,-145.393,1012
1569838517,327.161,25.0031,-2.34404,177.693,6.37207,-145.393,1012
1569838517,327.161,25.0031,-2.34404,177.693,6.37207,-145.393,1012
1569838517,327.161,25.0031,-2.34404,177.693,6.37207,-145.393,1012
1569838517,327.161,25.0031,-2.34404,177.693,6.37207,-145.393,1012
1569838517,327.161,25.0031,-2.34404,177.693,6.37207,-145.393,1012
1569838517,327.161,25.0031,-2.34404,177.693,6.37207,-145.393,1012
1569838517,327.161,25.0031,-2.34404,177.671,6.37207,-145.393,1008
1569838517,327.161,25.0031,-2.34404,177.671,6.37207,-145.393,1008
1569838517,327.161,25.0031,-2.34404,177.671,6.37207,-145.393,1008
1569838517,327.161,25.0031,-2.34404,177.671,6.37207,-145.371,1008
1569838517,327.161,25.0031,-2.34404,177.671,6.37207,-145.393,1008
1569838517,327.161,25.0031,-2.34404,177.671,6.37207,-145.371,1008
1569838517,327.161,25.0031,-2.34404,177.671,6.37207,-145.371,1008
1569838517,327.161,25.0031,-2.34404,177.693,6.37207,-145.371,1004
1569838517,327.161,25.0031,-2.34404,177.693,6.37207,-145.371,1004
1569838517,327.161,25.0031,-2.23242,177.693,6.37207,-145.371,1004
1569838517,327.161,25.0031,-2.23242,177.693,6.37207,-145.393,1004
1569838517,327.161,25.0031,-2.23242,177.693,6.37207,-145.393,1004
1569838518,327.161,25.0031,-2.23242,177.693,6.37207,-145.393,1004
1569838518,327.161,25.0031,-2.23242,177.693,6.37207,-145.393,1000
1569838518,327.161,25.0031,-2.23242,177.693,6.37207,-145.393,1000
1569838518,327.161,25.0031,-2.23242,177.693,6.37207,-145.393,1000
1569838518,327.161,25.0031,-2.23242,177.671,6.37207,-145.393,1000
1569838518,327.161,25.0031,-2.23242,177.671,6.37207,-145.393,1000
1569838518,327.161,25.0031,-2.23242,177.671,6.37207,-145.393,1000
1569838518,327.161,25.0031,-2.23242,177.671,6.37207,-145.393,996
1569838518,327.161,25.0031,-2.23242,177.671,6.37207,-145.393,996
1569838518,327.161,25.0031,-2.23242,177.671,6.37207,-145.393,996
1569838518,327.161,25.0031,-2.23242,177.671,6.37207,-145.393,996
1569838518,327.161,25.0031,-2.23242,177.671,6.37207,-145.371,996
1569838518,327.161,25.0031,-2.23242,177.671,6.37207,-145.371,992
1569838518,327.161,25.0031,-2.34404,177.671,6.37207,-145.371,992
1569838518,327.161,25.0031,-2.34404,177.671,6.37207,-145.371,992
1569838518,327.161,25.0031,-2.34404,177.671,6.37207,-145.371,992
1569838518,327.161,25.0031,-2.34404,177.671,6.37207,-145.371,992
1569838518,327.161,25.0031,-2.34404,177.671,6.37207,-145.371,992
1569838518,327.161,25.0031,-2.34404,177.671,6.37207,-145.371,992
1569838518,327.161,25.0031,-2.34404,177.671,6.37207,-145.371,992
1569838518,327.161,25.0031,-2.34404,177.671,6.37207,-145.371,992
1569838518,327.161,25.0031,-2.34404,177.671,6.37207,-145.371,992
1569838518,327.161,25.0031,-2.34404,177.671,6.37207,-145.371,992
1569838518,327.161,25.0031,-2.34404,177.671,6.37207,-145.371,996
1569838518,327.161,25.0031,-2.34404,177.671,6.37207,-145.371,996
1569838518,327.161,25.0031,-2.34404,177.649,6.37207,-145.371,996
1569838518,327.161,25.0031,-2.34404,177.649,6.37207,-145.371,996
1569838518,327.161,25.0031,-2.34404,177.649,6.37207,-145.371,996
1569838518,327.161,25.0031,-2.34404,177.649,6.37207,-145.371,996
1569838518,327.161,25.0031,-2.23242,177.671,6.37207,-145.371,996
1569838518,327.161,25.0031,-2.23242,177.671,6.37207,-145.371,996
1569838518,327.161,25.0031,-2.23242,177.671,6.37207,-145.371,996
1569838518,327.161,25.0031,-2.23242,177.671,6.37207,-145.371,996
1569838518,327.161,25.0031,-2.23242,177.671,6.37207,-145.371,996
1569838518,327.161,25.0031,-2.23242,177.671,6.37207,-145.371,996
1569838518,327.161,25.0031,-2.23242,177.671,6.37207,-145.371,996
1569838518,327.161,25.0031,-2.23242,177.671,6.37207,-145.371,996
1569838518,327.161,25.0031,-2.23242,177.671,6.37207,-145.371,996
1569838518,327.161,25.0031,-2.23242,177.671,6.37207,-145.371,996
1569838518,327.161,25.0031,-2.23242,177.671,6.37207,-145.371,996
1569838518,327.161,25.0031,-2.23242,177.671,6.37207,-145.371,996
1569838518,327.161,25.0031,-2.23242,177.671,6.37207,-145.371,996
1569838518,327.161,25.0031,-2.23242,177.671,6.37207,-145.371,996
1569838518,327.161,25.0031,-2.23242,177.671,6.37207,-145.371,996
1569838518,327.161,25.0031,-2.23242,177.671,6.39404,-145.371,996
1569838518,327.161,25.0031,-2.23242,177.671,6.39404,-145.371,996
1569838518,327.161,25.0031,-2.23242,177.671,6.39404,-145.371,996
1569838518,327.161,25.0031,-2.23242,177.671,6.39404,-145.371,996
1569838518,327.161,25.0031,-2.23242,177.671,6.39404,-145.371,996
1569838518,327.161,25.0031,-2.23242,177.671,6.39404,-145.371,1000
1569838518,327.161,25.1147,-2.23242,177.671,6.39404,-145.371,1000
1569838518,327.161,25.1147,-2.23242,177.671,6.39404,-145.371,1000
1569838518,327.161,25.1147,-2.23242,177.671,6.39404,-145.371,1000
1569838518,327.161,25.1147,-2.23242,177.671,6.39404,-145.371,1000
1569838518,327.161,25.1147,-2.23242,177.671,6.39404,-145.371,1000
1569838518,327.161,25.1147,-2.23242,177.671,6.39404,-145.371,1000
1569838518,327.161,25.1147,-2.23242,177.671,6.39404,-145.371,1000
1569838518,327.161,25.0031,-2.23242,177.671,6.39404,-145.371,1000
1569838518,327.161,25.0031,-2.23242,177.671,6.39404,-145.371,1000
1569838518,327.161,25.0031,-2.23242,177.671,6.39404,-145.371,1000
1569838518,327.161,25.0031,-2.23242,177.671,6.39404,-145.371,1000
1569838518,327.161,25.0031,-2.23242,177.671,6.39404,-145.371,1000
1569838518,327.161,25.0031,-2.23242,177.671,6.39404,-145.371,1000
1569838518,327.161,25.0031,-2.23242,177.671,6.39404,-145.371,1000
1569838518,327.161,25.0031,-2.23242,177.671,6.39404,-145.371,1000
1569838518,327.161,25.0031,-2.23242,177.671,6.37207,-145.371,1000
1569838518,327.161,25.0031,-2.23242,177.671,6.37207,-145.371,1000
1569838518,327.161,25.0031,-2.23242,177.671,6.37207,-145.371,1000
1569838518,327.161,25.0031,-2.23242,177.671,6.37207,-145.371,1000
1569838518,327.161,25.0031,-2.23242,177.671,6.37207,-145.371,1000
1569838518,327.161,25.0031,-2.23242,177.671,6.37207,-145.393,1000
1569838518,327.161,25.0031,-2.23242,177.671,6.37207,-145.393,1000
1569838518,327.161,25.0031,-2.23242,177.671,6.37207,-145.393,1000
1569838518,327.161,25.0031,-2.23242,177.671,6.37207,-145.393,1000
1569838518,327.161,25.0031,-2.23242,177.693,6.37207,-145.393,1000
1569838518,327.161,25.0031,-2.23242,177.693,6.37207,-145.393,1000
1569838518,327.161,25.0031,-2.23242,177.693,6.37207,-145.393,1000
1569838518,327.161,25.0031,-2.23242,177.693,6.37207,-145.393,1000
1569838518,327.161,25.0031,-2.23242,177.693,6.39404,-145.393,1000
1569838518,327.161,25.1147,-2.23242,177.693,6.39404,-145.393,1000
1569838518,327.161,25.0031,-2.23242,177.693,6.39404,-145.393,1000
1569838518,327.161,25.0031,-2.23242,177.693,6.39404,-145.393,1000
1569838518,327.161,25.0031,-2.23242,177.693,6.39404,-145.393,1000
1569838518,327.161,25.0031,-2.23242,177.671,6.39404,-145.371,1000
1569838518,327.161,25.0031,-2.23242,177.671,6.39404,-145.371,1000
1569838518,327.161,25.0031,-2.23242,177.671,6.39404,-145.371,1000
1569838518,327.161,25.0031,-2.23242,177.671,6.39404,-145.371,1000
1569838518,327.161,25.0031,-2.23242,177.671,6.39404,-145.371,1000
1569838518,327.161,25.0031,-2.23242,177.671,6.39404,-145.371,996
1569838518,327.161,25.0031,-2.23242,177.671,6.39404,-145.371,996
1569838518,327.161,25.0031,-2.23242,177.671,6.39404,-145.371,996
1569838518,327.161,25.0031,-2.23242,177.671,6.39404,-145.371,996
1569838518,327.161,25.0031,-2.23242,177.671,6.39404,-145.371,996
1569838518,327.161,25.0031,-2.23242,177.671,6.39404,-145.371,996
1569838518,327.161,25.0031,-2.23242,177.671,6.39404,-145.371,992
1569838518,327.161,25.0031,-2.23242,177.671,6.39404,-145.371,992
1569838518,327.161,25.0031,-2.23242,177.671,6.39404,-145.371,992
1569838518,327.161,25.0031,-2.23242,177.671,6.39404,-145.371,992
1569838518,327.161,25.0031,-2.23242,177.671,6.39404,-145.393,992
1569838518,327.161,25.0031,-2.23242,177.671,6.39404,-145.393,992
1569838519,327.161,25.0031,-2.23242,177.693,6.39404,-145.393,992
1569838519,327.161,25.0031,-2.23242,177.693,6.39404,-145.393,992
1569838519,327.161,25.0031,-2.23242,177.693,6.39404,-145.393,992
1569838519,327.161,25.1147,-2.23242,177.693,6.39404,-145.393,992
1569838519,327.161,25.1147,-2.23242,177.693,6.39404,-145.393,992
1569838519,327.161,25.1147,-2.23242,177.693,6.39404,-145.393,992
1569838519,327.161,25.1147,-2.23242,177.693,6.39404,-145.393,992
1569838519,327.161,25.1147,-2.23242,177.693,6.39404,-145.393,992
1569838519,327.161,25.1147,-2.23242,177.693,6.39404,-145.393,992
1569838519,327.161,25.0031,-2.23242,177.693,6.39404,-145.393,992
1569838519,327.161,25.1147,-2.23242,177.693,6.39404,-145.393,992
1569838519,327.161,25.1147,-2.23242,177.693,6.39404,-145.393,992
1569838519,327.161,25.1147,-2.23242,177.693,6.39404,-145.371,992
1569838519,327.161,25.1147,-2.23242,177.693,6.39404,-145.371,992
1569838519,327.161,25.1147,-2.23242,177.693,6.39404,-145.371,992
1569838519,327.161,25.1147,-2.23242,177.693,6.39404,-145.371,992
1569838519,327.161,25.1147,-2.23242,177.693,6.39404,-145.371,992
1569838519,327.161,25.1147,-2.23242,177.693,6.39404,-145.371,992
1569838519,327.161,25.1147,-2.23242,177.693,6.39404,-145.371,992
1569838519,327.161,25.1147,-2.23242,177.693,6.39404,-145.393,992
1569838519,327.161,25.1147,-2.23242,177.693,6.39404,-145.393,992
1569838519,327.161,25.1147,-2.23242,177.693,6.39404,-145.393,992
1569838519,327.161,25.1147,-2.23242,177.693,6.39404,-145.393,992
1569838519,327.161,25.1147,-2.23242,177.693,6.39404,-145.393,992
1569838519,327.161,25.1147,-2.23242,177.693,6.39404,-145.393,992
1569838519,327.161,25.1147,-2.23242,177.693,6.39404,-145.393,992
1569838519,327.161,25.1147,-2.23242,177.693,6.39404,-145.393,992
1569838519,327.161,25.1147,-2.23242,177.693,6.39404,-145.393,992
1569838519,327.161,25.1147,-2.23242,177.693,6.39404,-145.393,992
1569838519,327.161,25.1147,-2.23242,177.693,6.39404,-145.393,992
1569838519,327.161,25.1147,-2.23242,177.693,6.39404,-145.393,992
1569838519,327.161,25.1147,-2.23242,177.693,6.39404,-145.393,996
1569838519,327.161,25.1147,-2.23242,177.693,6.39404,-145.393,996
1569838519,327.161,25.1147,-2.23242,177.693,6.39404,-145.393,996
1569838519,327.161,25.1147,-2.23242,177.693,6.39404,-145.393,996
1569838519,327.161,25.1147,-2.23242,177.693,6.39404,-145.415,996
1569838519,327.161,25.1147,-2.23242,177.693,6.39404,-145.415,996
1569838519,327.161,25.0031,-2.23242,177.693,6.39404,-145.415,996
1569838519,327.161,25.0031,-2.23242,177.693,6.39404,-145.415,996
1569838519,327.161,25.0031,-2.23242,177.693,6.39404,-145.415,1000
1569838519,327.161,25.0031,-2.23242,177.671,6.39404,-145.415,1000
1569838519,327.161,25.0031,-2.23242,177.671,6.39404,-145.415,1000
1569838519,327.161,25.0031,-2.23242,177.693,6.39404,-145.415,1000
1569838519,327.161,25.0031,-2.23242,177.693,6.39404,-145.415,1004
1569838519,327.161,25.0031,-2.23242,177.693,6.39404,-145.415,1004
1569838519,327.161,25.0031,-2.23242,177.693,6.39404,-145.415,1004
1569838519,327.161,25.0031,-2.23242,177.693,6.39404,-145.415,1004
1569838519,327.161,25.0031,-2.23242,177.671,6.39404,-145.393,1004
1569838519,327.161,25.0031,-2.23242,177.693,6.39404,-145.393,1004
1569838519,327.161,25.0031,-2.23242,177.693,6.39404,-145.393,1004
1569838519,327.161,25.0031,-2.23242,177.693,6.39404,-145.393,1004
1569838519,327.161,25.0031,-2.23242,177.693,6.39404,-145.393,1004
1569838519,327.161,25.0031,-2.23242,177.693,6.39404,-145.393,1004
1569838519,327.161,25.0031,-2.23242,177.693,6.39404,-145.393,1004
1569838519,327.161,25.0031,-2.23242,177.693,6.39404,-145.393,1004
1569838519,327.161,25.0031,-2.23242,177.693,6.39404,-145.393,1004
1569838519,327.161,25.0031,-2.23242,177.693,6.39404,-145.393,1004
1569838519,327.161,25.0031,-2.23242,177.693,6.39404,-145.393,1004
1569838519,327.161,25.0031,-2.23242,177.693,6.39404,-145.393,1004
1569838519,327.161,25.0031,-2.23242,177.693,6.39404,-145.393,1004
1569838519,327.161,25.0031,-2.23242,177.693,6.39404,-145.393,1004
1569838519,327.161,25.0031,-2.23242,177.693,6.39404,-145.393,1004
1569838519,327.161,25.1147,-2.23242,177.693,6.39404,-145.393,1004
1569838519,327.161,25.0031,-2.23242,177.693,6.39404,-145.393,1004
1569838519,327.161,25.0031,-2.23242,177.693,6.39404,-145.393,1004
1569838519,327.161,25.0031,-2.23242,177.693,6.39404,-145.393,1004
1569838519,327.161,25.0031,-2.23242,177.693,6.39404,-145.393,1004
1569838519,327.161,25.0031,-2.23242,177.693,6.39404,-145.393,1004
1569838519,327.161,25.0031,-2.23242,177.693,6.39404,-145.393,1004
1569838519,327.161,25.0031,-2.23242,177.693,6.39404,-145.393,1000
1569838519,327.161,25.0031,-2.23242,177.693,6.39404,-145.393,1000
1569838519,327.161,25.0031,-2.23242,177.693,6.39404,-145.393,1000
1569838519,327.161,25.0031,-2.23242,177.693,6.39404,-145.393,996
1569838519,327.161,25.0031,-2.23242,177.693,6.39404,-145.393,996
1569838525,343.123,9.04131,-1.89756,177.957,6.02051,-144.822,1188
1569838525,343.123,9.04131,-1.89756,177.979,6.02051,-144.822,1188
1569838525,343.123,9.04131,-1.89756,177.979,6.02051,-144.822,1188
1569838525,343.123,9.04131,-1.89756,177.979,6.02051,-144.822,1188
1569838525,343.123,9.04131,-2.00918,177.979,6.02051,-144.822,1188
1569838525,343.123,9.04131,-2.00918,177.979,6.02051,-144.822,1188
1569838525,343.123,9.04131,-2.00918,177.979,6.02051,-144.822,1188
1569838525,343.123,9.04131,-2.00918,177.979,6.02051,-144.822,1184
1569838525,343.123,9.04131,-2.00918,177.979,6.02051,-144.822,1184
1569838525,343.123,9.04131,-2.00918,177.979,6.02051,-144.822,1184
1569838525,343.123,9.04131,-2.00918,177.979,6.02051,-144.822,1184
1569838525,343.123,9.04131,-2.00918,177.979,6.02051,-144.822,1184
1569838525,343.123,9.04131,-2.00918,177.979,6.02051,-144.822,1184
1569838525,343.123,9.04131,-2.00918,177.957,6.02051,-144.844,1184
1569838525,343.123,9.04131,-2.00918,177.957,6.02051,-144.844,1184
1569838525,343.123,9.04131,-2.00918,177.957,6.02051,-144.844,1184
1569838525,343.123,9.04131,-2.00918,177.957,6.02051,-144.844,1184
1569838525,343.123,9.04131,-2.00918,177.957,6.02051,-144.844,1188
1569838525,343.123,9.04131,-2.00918,177.957,6.02051,-144.844,1188
1569838525,343.123,9.04131,-2.00918,177.957,6.02051,-144.844,1188
1569838525,343.123,9.04131,-2.00918,177.957,6.02051,-144.844,1184
1569838525,343.123,9.04131,-2.00918,177.957,6.02051,-144.844,1184
1569838525,343.123,9.04131,-2.00918,177.957,6.02051,-144.844,1184
1569838525,343.123,9.04131,-2.00918,177.957,6.02051,-144.844,1184
1569838525,343.123,9.04131,-2.00918,177.957,6.02051,-144.844,1184
1569838525,343.123,9.04131,-2.00918,177.957,6.02051,-144.844,1184
1569838525,343.123,9.04131,-2.00918,177.957,6.02051,-144.844,1184
1569838525,343.123,9.04131,-2.00918,177.957,6.02051,-144.844,1184
1569838525,343.123,9.04131,-2.00918,177.957,6.02051,-144.844,1184
1569838525,343.123,9.04131,-2.00918,177.957,6.02051,-144.844,1180
1569838525,343.123,9.04131,-2.00918,177.957,6.02051,-144.844,1180
1569838525,343.123,9.04131,-2.00918,177.957,6.02051,-144.844,1180
1569838525,343.123,9.04131,-2.00918,177.957,6.02051,-144.844,1180
1569838525,343.123,9.04131,-1.89756,177.957,6.02051,-144.844,1180
1569838525,343.012,9.04131,-1.89756,177.957,6.02051,-144.844,1180
1569838525,343.012,9.04131,-1.89756,177.957,6.02051,-144.844,1180
1569838525,343.012,9.04131,-1.89756,177.957,6.02051,-144.822,1180
1569838525,343.012,9.04131,-1.89756,177.957,6.02051,-144.822,1180
1569838525,343.012,9.04131,-1.89756,177.957,6.02051,-144.822,1180
1569838525,343.012,9.04131,-1.89756,177.957,6.02051,-144.822,1180
1569838525,343.012,9.04131,-1.89756,177.957,6.02051,-144.822,1180
1569838525,343.012,9.04131,-1.89756,177.957,6.02051,-144.822,1180
1569838525,343.012,9.04131,-1.89756,177.957,6.02051,-144.822,1180
1569838525,343.012,9.04131,-1.89756,177.979,6.02051,-144.822,1180
1569838525,343.012,9.04131,-1.89756,177.979,6.02051,-144.822,1180
1569838525,343.012,9.04131,-1.89756,177.979,6.02051,-144.822,1180
1569838525,343.012,9.04131,-1.89756,177.979,6.02051,-144.822,1180
1569838525,343.012,9.04131,-1.89756,177.979,6.02051,-144.822,1180
1569838525,343.012,9.04131,-1.89756,177.979,6.02051,-144.822,1184
1569838525,343.012,9.04131,-1.89756,177.979,6.02051,-144.822,1184
1569838525,343.012,9.04131,-1.89756,177.979,6.02051,-144.822,1184
1569838525,343.012,9.04131,-1.89756,177.979,6.02051,-144.844,1184
1569838525,343.012,9.04131,-1.89756,177.979,6.02051,-144.844,1184
1569838525,343.012,9.04131,-1.89756,177.979,6.02051,-144.844,1184
1569838525,343.012,9.04131,-1.89756,177.979,6.02051,-144.844,1184
1569838525,343.012,9.04131,-1.89756,177.979,6.02051,-144.844,1184
1569838525,343.012,9.04131,-1.89756,177.979,6.02051,-144.844,1184
1569838525,343.012,9.04131,-1.89756,177.957,6.02051,-144.844,1184
1569838525,343.012,9.04131,-1.89756,177.957,6.02051,-144.844,1184
1569838525,343.012,8.92969,-1.89756,177.957,6.02051,-144.844,1184
1569838526,343.012,8.92969,-1.89756,177.957,6.02051,-144.844,1184
1569838526,343.012,8.92969,-1.89756,177.957,6.02051,-144.844,1184
1569838526,343.012,8.92969,-1.89756,177.957,6.02051,-144.844,1184
1569838526,343.012,8.92969,-1.89756,177.957,6.02051,-144.844,1184
1569838526,343.012,8.92969,-1.89756,177.957,6.02051,-144.844,1184
1569838526,343.012,8.92969,-1.89756,177.957,6.02051,-144.844,1184
1569838526,343.012,8.92969,-1.89756,177.957,6.02051,-144.844,1184
1569838526,343.012,8.92969,-1.89756,177.957,6.02051,-144.844,1184
1569838526,343.012,8.92969,-1.89756,177.957,6.04248,-144.844,1184
1569838526,343.012,9.04131,-1.89756,177.957,6.04248,-144.844,1184
1569838526,343.012,9.04131,-1.89756,177.957,6.04248,-144.844,1184
1569838526,343.123,9.04131,-1.89756,177.957,6.04248,-144.844,1184
1569838526,343.123,9.04131,-1.89756,177.957,6.04248,-144.844,1184
1569838526,343.123,9.04131,-1.89756,177.957,6.04248,-144.844,1188
1569838526,343.123,9.04131,-1.89756,177.957,6.04248,-144.822,1188
1569838526,343.123,9.04131,-1.89756,177.957,6.04248,-144.822,1188
1569838526,343.123,9.04131,-1.89756,177.957,6.04248,-144.822,1188
1569838526,343.123,9.04131,-1.89756,177.957,6.04248,-144.822,1188
1569838526,343.123,9.04131,-1.89756,177.957,6.04248,-144.822,1192
1569838526,343.123,9.04131,-1.89756,177.957,6.04248,-144.822,1192
1569838526,343.123,9.04131,-1.89756,177.957,6.04248,-144.822,1192
1569838526,343.123,9.04131,-1.89756,177.957,6.04248,-144.822,1192
1569838526,343.123,9.04131,-1.89756,177.957,6.04248,-144.822,1192
1569838526,343.123,9.04131,-1.89756,177.957,6.04248,-144.822,1192
1569838526,343.123,9.04131,-1.89756,177.957,6.04248,-144.822,1192
1569838526,343.123,9.04131,-1.89756,177.957,6.04248,-144.822,1192
1569838526,343.123,9.04131,-1.89756,177.957,6.04248,-144.822,1192
1569838526,343.123,9.04131,-1.89756,177.957,6.04248,-144.822,1192
1569838526,343.123,9.04131,-1.89756,177.957,6.04248,-144.822,1192
1569838526,343.123,9.04131,-1.89756,177.957,6.02051,-144.822,1192
1569838526,343.123,9.04131,-1.89756,177.957,6.02051,-144.844,1192
1569838526,343.123,9.04131,-1.89756,177.957,6.02051,-144.844,1192
1569838526,343.123,9.04131,-1.89756,177.957,6.02051,-144.844,1192
1569838526,343.123,9.04131,-1.89756,177.957,6.02051,-144.844,1196
1569838526,343.123,9.04131,-1.89756,177.957,6.02051,-144.844,1196
1569838526,343.123,9.04131,-1.89756,177.957,6.02051,-144.844,1196
1569838526,343.123,8.92969,-1.89756,177.957,6.02051,-144.844,1196
1569838526,343.123,8.92969,-1.89756,177.957,6.02051,-144.844,1196
1569838526,343.123,8.92969,-1.89756,177.957,6.02051,-144.844,1196
1569838526,343.123,8.92969,-1.89756,177.957,6.02051,-144.844,1196
1569838526,343.123,8.92969,-1.89756,177.957,6.02051,-144.844,1200
1569838526,343.123,8.92969,-1.89756,177.957,6.02051,-144.844,1200
1569838526,343.123,8.92969,-1.89756,177.957,6.02051,-144.822,1200
1569838526,343.123,8.92969,-2.00918,177.957,6.02051,-144.822,1200
1569838526,343.123,8.92969,-2.00918,177.957,6.02051,-144.822,1200
1569838526,343.123,8.92969,-2.00918,177.957,6.02051,-144.822,1200
1569838526,343.123,8.92969,-2.00918,177.957,6.02051,-144.822,1196
1569838526,343.123,8.92969,-2.00918,177.957,6.02051,-144.822,1196
1569838526,343.123,8.92969,-2.00918,177.957,6.02051,-144.822,1196
1569838526,343.123,8.92969,-2.00918,177.957,6.02051,-144.822,1196
1569838526,343.123,8.92969,-2.00918,177.957,6.02051,-144.822,1196
1569838526,343.123,8.92969,-2.00918,177.957,6.02051,-144.822,1196
1569838526,343.123,8.92969,-2.00918,177.957,6.02051,-144.822,1196
1569838526,343.123,8.92969,-2.00918,177.957,6.02051,-144.822,1196
1569838526,343.123,8.92969,-2.00918,177.957,6.02051,-144.822,1196
1569838526,343.123,8.92969,-2.00918,177.957,6.02051,-144.822,1196
1569838526,343.123,8.92969,-2.00918,177.957,6.02051,-144.822,1196
1569838526,343.123,8.92969,-2.00918,177.957,6.02051,-144.822,1196
1569838526,343.123,8.92969,-2.00918,177.957,6.02051,-144.822,1196
1569838526,343.123,8.92969,-2.00918,177.957,6.02051,-144.822,1192
1569838526,343.123,9.04131,-2.00918,177.957,6.02051,-144.822,1192
1569838526,343.123,9.04131,-2.00918,177.957,6.02051,-144.822,1192
1569838526,343.123,9.04131,-2.00918,177.957,6.02051,-144.822,1192
1569838526,343.123,9.04131,-2.00918,177.957,6.02051,-144.822,1188
1569838526,343.123,9.04131,-2.00918,177.957,6.02051,-144.822,1188
1569838526,343.123,9.04131,-2.00918,177.957,6.02051,-144.822,1188
1569838526,343.123,9.04131,-2.00918,177.957,6.02051,-144.822,1188
1569838526,343.123,9.04131,-1.89756,177.957,6.02051,-144.822,1188
1569838526,343.123,9.04131,-1.89756,177.957,6.02051,-144.822,1188
1569838526,343.123,9.04131,-1.89756,177.957,6.02051,-144.822,1188
1569838526,343.123,9.04131,-2.00918,177.957,6.02051,-144.822,1188
1569838526,343.123,9.04131,-2.00918,177.957,6.02051,-144.822,1184
1569838526,343.012,9.04131,-1.89756,177.957,6.02051,-144.822,1184
1569838526,343.012,9.04131,-1.89756,177.957,6.02051,-144.822,1184
1569838526,343.012,9.04131,-1.89756,177.957,6.02051,-144.822,1184
1569838526,343.012,9.04131,-1.89756,177.957,6.02051,-144.822,1184
1569838526,343.012,9.04131,-2.00918,177.957,6.02051,-144.822,1184
1569838526,343.012,9.04131,-1.89756,177.957,6.02051,-144.822,1184
1569838526,343.012,9.04131,-1.89756,177.957,6.02051,-144.822,1184
1569838526,343.012,9.04131,-1.89756,177.979,6.02051,-144.822,1184
1569838526,343.012,9.04131,-1.89756,177.979,6.02051,-144.822,1184
1569838526,343.012,9.04131,-1.89756,177.979,6.02051,-144.822,1180
1569838526,343.012,9.04131,-1.89756,177.979,6.02051,-144.822,1180
1569838526,343.012,9.04131,-1.89756,177.979,6.02051,-144.822,1180
1569838526,343.012,9.04131,-1.89756,177.979,6.02051,-144.822,1180
1569838526,343.012,9.04131,-1.89756,177.979,6.02051,-144.822,1180
1569838526,343.012,9.04131,-1.89756,177.979,6.02051,-144.822,1176
1569838526,343.012,9.04131,-1.89756,177.979,6.02051,-144.822,1176
1569838526,343.012,9.04131,-1.89756,177.979,6.02051,-144.822,1176
1569838526,343.012,9.04131,-1.89756,177.979,6.02051,-144.822,1176
1569838526,343.012,9.04131,-1.89756,177.979,6.02051,-144.822,1176
1569838526,343.012,9.04131,-1.89756,177.979,6.02051,-144.822,1176
1569838526,343.012,9.04131,-1.89756,177.979,6.02051,-144.822,1176
1569838526,343.012,9.04131,-1.89756,177.979,6.02051,-144.822,1176
1569838526,343.012,9.04131,-1.89756,177.979,6.02051,-144.822,1176
1569838526,343.012,9.04131,-1.89756,177.979,6.02051,-144.822,1176
1569838526,343.012,9.04131,-1.89756,177.979,6.02051,-144.822,1180
1569838526,343.012,9.04131,-1.89756,177.979,6.02051,-144.822,1180
1569838526,343.012,9.04131,-1.89756,177.979,6.02051,-144.822,1180
1569838526,343.012,9.04131,-1.89756,177.979,6.02051,-144.822,1180
1569838527,343.012,9.04131,-1.89756,177.979,6.02051,-144.822,1180
1569838527,343.012,9.04131,-1.89756,177.979,6.02051,-144.822,1180
1569838527,343.012,9.04131,-1.89756,177.979,6.02051,-144.822,1180
1569838527,343.012,9.04131,-1.89756,177.979,6.02051,-144.822,1180
1569838527,343.012,9.04131,-1.89756,177.979,6.02051,-144.822,1180
1569838527,343.012,9.04131,-1.89756,178,6.02051,-144.822,1180
1569838527,343.012,9.04131,-1.89756,178,6.02051,-144.822,1180
1569838527,343.012,9.04131,-1.89756,178,6.02051,-144.822,1180
1569838527,343.123,9.04131,-1.89756,178,6.02051,-144.822,1180
1569838527,343.123,9.04131,-1.89756,178,6.02051,-144.822,1180
1569838527,343.123,9.04131,-1.89756,177.979,6.02051,-144.822,1180
1569838527,343.123,9.04131,-1.89756,177.979,6.02051,-144.822,1180
1569838527,343.123,9.04131,-1.89756,177.979,6.02051,-144.822,1180
1569838527,343.123,9.04131,-1.89756,177.979,6.02051,-144.822,1180
1569838527,343.123,9.04131,-1.89756,177.979,6.02051,-144.822,1180
1569838527,343.123,9.04131,-1.89756,177.979,6.02051,-144.822,1180
1569838527,343.123,9.04131,-1.89756,177.979,6.02051,-144.822,1180
1569838527,343.123,9.04131,-1.89756,177.979,6.02051,-144.822,1180
1569838527,343.123,9.04131,-1.89756,177.979,6.02051,-144.822,1184
1569838527,343.123,9.04131,-1.89756,177.979,6.02051,-144.822,1184
1569838527,343.123,9.04131,-1.89756,177.979,6.02051,-144.822,1184
1569838527,343.123,9.04131,-1.89756,177.979,6.02051,-144.822,1184
1569838527,343.123,9.04131,-1.89756,177.979,6.02051,-144.822,1184
1569838527,343.123,9.04131,-1.89756,177.979,6.02051,-144.822,1184
1569838527,343.123,9.04131,-1.89756,177.979,6.04248,-144.822,1184
1569838527,343.123,9.04131,-1.89756,177.979,6.04248,-144.822,1184
1569838527,343.123,9.04131,-1.89756,177.979,6.04248,-144.822,1184
1569838527,343.123,9.04131,-1.89756,177.979,6.04248,-144.822,1184
1569838527,343.123,9.04131,-1.89756,177.979,6.04248,-144.822,1180
1569838527,343.123,9.04131,-1.89756,177.979,6.04248,-144.822,1180
1569838527,343.123,9.04131,-1.89756,177.979,6.04248,-144.822,1180
1569838527,343.123,9.04131,-1.89756,177.979,6.04248,-144.822,1180
1569838527,343.123,9.04131,-1.89756,177.979,6.04248,-144.822,1180
1569838527,343.123,9.04131,-1.89756,177.979,6.04248,-144.822,1180
1569838527,343.123,9.04131,-1.89756,177.979,6.04248,-144.822,1180
1569838527,343.123,9.04131,-1.89756,177.979,6.04248,-144.822,1180
1569838527,343.123,9.04131,-1.89756,177.979,6.04248,-144.822,1180
1569838527,343.123,9.04131,-1.89756,177.979,6.02051,-144.822,1180
1569838527,343.123,9.04131,-1.89756,177.979,6.02051,-144.822,1180
1569838527,343.123,9.04131,-1.89756,177.979,6.02051,-144.822,1180
1569838527,343.123,9.04131,-1.89756,177.979,6.02051,-144.822,1180
1569838527,343.123,9.04131,-1.89756,177.957,6.02051,-144.822,1180
1569838527,343.123,9.04131,-2.00918,177.957,6.02051,-144.822,1180
1569838527,343.012,9.04131,-2.00918,177.957,6.02051,-144.822,1180
1569838527,343.012,8.92969,-2.00918,177.957,6.02051,-144.822,1180
1569838527,343.012,8.92969,-2.00918,177.957,6.02051,-144.822,1180
1569838527,343.012,8.92969,-2.00918,177.957,6.02051,-144.822,1180
1569838527,343.012,8.92969,-2.00918,177.957,6.02051,-144.822,1180
1569838527,343.012,8.92969,-2.00918,177.957,6.02051,-144.822,1180
1569838527,343.012,8.92969,-2.00918,177.957,6.02051,-144.822,1180
1569838527,343.012,8.92969,-2.00918,177.957,6.02051,-144.822,1180
1569838527,343.012,8.92969,-2.00918,177.957,6.02051,-144.822,1180
1569838527,343.012,8.92969,-2.00918,177.957,6.02051,-144.822,1180
1569838527,343.012,8.92969,-2.00918,177.957,6.02051,-144.822,1184
1569838527,343.123,8.92969,-2.00918,177.957,6.02051,-144.822,1184
1569838527,343.123,8.92969,-2.00918,177.957,6.02051,-144.822,1184
1569838527,343.123,8.92969,-2.00918,177.957,6.02051,-144.822,1184
1569838527,343.123,8.92969,-2.00918,177.957,5.99854,-144.822,1184
1569838527,343.123,8.92969,-2.00918,177.957,5.99854,-144.822,1184
1569838527,343.123,8.92969,-2.00918,177.935,5.99854,-144.822,1184
1569838527,343.123,8.92969,-2.00918,177.935,5.99854,-144.822,1184
1569838527,343.123,8.92969,-2.00918,177.935,6.02051,-144.822,1184
1569838527,343.123,8.92969,-2.00918,177.935,6.02051,-144.822,1184
1569838527,343.012,8.92969,-2.00918,177.935,6.02051,-144.822,1184
1569838527,343.012,8.92969,-2.00918,177.935,6.02051,-144.822,1184
1569838527,343.012,8.92969,-2.00918,177.935,6.02051,-144.822,1184
1569838527,343.012,8.92969,-2.00918,177.935,6.02051,-144.822,1184
1569838527,343.012,8.92969,-2.00918,177.935,6.02051,-144.822,1180
1569838527,343.012,8.92969,-2.00918,177.935,6.02051,-144.822,1180
1569838527,343.012,8.92969,-2.00918,177.957,6.02051,-144.822,1180
1569838527,343.012,8.92969,-2.00918,177.957,6.02051,-144.822,1180
1569838527,343.012,8.92969,-2.00918,177.957,6.02051,-144.822,1180
1569838527,343.012,8.92969,-2.00918,177.957,6.02051,-144.822,1180
1569838527,343.012,8.92969,-2.00918,177.957,6.02051,-144.822,1180
1569838527,343.012,8.92969,-2.00918,177.957,6.02051,-144.844,1180
1569838527,343.012,8.92969,-2.00918,177.957,6.02051,-144.844,1180
1569838527,343.012,9.04131,-2.00918,177.957,6.02051,-144.844,1180
1569838527,343.012,9.04131,-2.00918,177.957,6.02051,-144.844,1180
1569838527,343.012,9.04131,-1.89756,177.957,6.02051,-144.844,1180
1569838527,343.012,9.04131,-1.89756,177.957,6.02051,-144.844,1180
1569838527,343.012,9.04131,-1.89756,177.957,6.02051,-144.844,1180
1569838527,343.012,9.04131,-1.89756,177.979,6.02051,-144.822,1180
1569838527,343.012,9.04131,-1.89756,177.979,6.02051,-144.822,1180
1569838527,343.012,9.04131,-1.89756,177.979,6.02051,-144.822,1184
1569838527,343.012,9.04131,-1.89756,177.979,6.02051,-144.822,1184
1569838527,343.012,9.04131,-1.89756,177.979,6.02051,-144.822,1180
1569838527,343.012,9.04131,-1.89756,177.979,6.02051,-144.822,1180
1569838527,343.012,9.04131,-1.89756,177.979,6.02051,-144.822,1180
1569838527,343.012,9.04131,-1.89756,177.979,6.02051,-144.822,1180
1569838527,343.123,9.04131,-2.00918,177.979,6.02051,-144.822,1180
1569838527,343.123,9.04131,-2.00918,177.979,6.02051,-144.822,1180
1569838527,343.123,9.04131,-2.00918,177.979,6.02051,-144.822,1180
1569838527,343.123,9.04131,-2.00918,177.979,6.02051,-144.822,1180
1569838527,343.123,9.04131,-2.00918,177.979,6.02051,-144.822,1180
1569838527,343.123,9.04131,-2.00918,177.979,6.02051,-144.822,1176
1569838527,343.123,9.04131,-2.00918,177.979,6.02051,-144.822,1176
1569838527,343.123,9.04131,-2.00918,177.979,6.02051,-144.822,1176
1569838527,343.123,9.04131,-2.00918,177.979,6.02051,-144.822,1176
1569838527,343.123,9.04131,-2.00918,177.979,6.02051,-144.822,1176
1569838527,343.123,9.04131,-2.00918,177.979,6.02051,-144.822,1176
1569838528,343.123,9.04131,-2.00918,177.979,6.02051,-144.822,1176
1569838528,343.123,9.04131,-2.00918,177.979,6.02051,-144.822,1176
1569838528,343.123,9.04131,-2.00918,177.979,6.02051,-144.822,1176
1569838528,343.123,9.04131,-2.00918,177.979,6.02051,-144.822,1176
1569838528,343.123,9.04131,-2.00918,177.979,6.02051,-144.822,1176
1569838528,343.123,9.04131,-2.00918,177.979,6.02051,-144.822,1176
1569838528,343.123,9.04131,-2.00918,177.979,6.02051,-144.822,1176
1569838528,343.123,9.04131,-2.00918,177.957,6.02051,-144.822,1180
1569838528,343.123,9.04131,-2.00918,177.957,6.02051,-144.822,1180
1569838528,343.123,9.04131,-2.00918,177.957,6.02051,-144.822,1180
1569838528,343.123,9.04131,-2.00918,177.957,6.02051,-144.822,1180
1569838528,343.123,9.04131,-2.00918,177.957,6.02051,-144.822,1180
1569838528,343.123,9.04131,-1.89756,177.957,6.02051,-144.822,1184
1569838528,343.123,9.04131,-1.89756,177.957,6.02051,-144.822,1184
1569838528,343.123,8.92969,-1.89756,177.957,6.02051,-144.822,1184
1569838528,343.123,8.92969,-1.89756,177.957,6.02051,-144.822,1184
1569838528,343.123,9.04131,-1.89756,177.957,6.02051,-144.822,1184
1569838528,343.123,9.04131,-1.89756,177.957,6.02051,-144.822,1184
1569838528,343.123,9.04131,-1.89756,177.957,6.02051,-144.822,1184
1569838528,343.123,9.04131,-1.89756,177.957,6.02051,-144.822,1188
1569838528,343.123,9.04131,-1.89756,177.957,6.02051,-144.822,1188
1569838528,343.123,9.04131,-1.89756,177.957,6.04248,-144.822,1188
1569838528,343.123,9.04131,-1.89756,177.957,6.04248,-144.822,1188
1569838528,343.123,9.04131,-1.89756,177.957,6.04248,-144.822,1188
1569838528,343.123,9.04131,-1.89756,177.957,6.04248,-144.822,1188
1569838528,343.123,9.04131,-1.89756,177.957,6.04248,-144.822,1188
1569838528,343.123,9.04131,-1.89756,177.957,6.04248,-144.822,1188
1569838528,343.123,9.04131,-1.89756,177.957,6.04248,-144.822,1188
1569838528,343.123,9.04131,-1.89756,177.957,6.04248,-144.822,1188
1569838528,343.123,9.04131,-1.89756,177.957,6.04248,-144.822,1188
1569838528,343.123,9.04131,-1.89756,177.957,6.04248,-144.822,1188
1569838528,343.123,9.04131,-1.89756,177.957,6.04248,-144.822,1188
1569838528,343.123,9.04131,-1.89756,177.957,6.04248,-144.822,1188
1569838528,343.123,9.04131,-1.89756,177.957,6.04248,-144.822,1188
1569838528,343.012,9.04131,-1.89756,177.957,6.04248,-144.822,1188
1569838528,343.012,9.04131,-1.89756,177.957,6.04248,-144.822,1188
1569838528,343.012,9.04131,-1.89756,177.957,6.04248,-144.822,1188
1569838528,343.012,9.04131,-1.89756,177.957,6.04248,-144.822,1188
1569838528,343.012,9.04131,-1.89756,177.957,6.04248,-144.822,1188
1569838528,343.012,9.04131,-1.89756,177.957,6.04248,-144.822,1188
1569838528,343.012,9.04131,-1.89756,177.957,6.04248,-144.822,1188
1569838528,343.012,9.04131,-1.89756,177.979,6.04248,-144.822,1184
1569838528,343.012,9.04131,-1.89756,177.979,6.04248,-144.822,1184
1569838528,343.012,9.04131,-1.89756,177.979,6.04248,-144.822,1184
1569838528,343.012,9.04131,-1.89756,177.979,6.04248,-144.822,1184
1569838528,343.012,9.04131,-1.89756,177.979,6.04248,-144.822,1184
1569838528,343.012,9.04131,-1.89756,177.979,6.04248,-144.822,1184
1569838528,343.012,9.04131,-1.89756,177.957,6.04248,-144.822,1184
1569838528,343.012,9.04131,-1.89756,177.957,6.02051,-144.822,1184
1569838528,343.123,9.04131,-1.89756,177.957,6.02051,-144.822,1188
1569838528,343.123,9.04131,-1.89756,177.957,6.02051,-144.822,1188
1569838528,343.123,9.04131,-1.89756,177.957,6.02051,-144.822,1188
1569838528,343.123,9.04131,-1.89756,177.957,6.02051,-144.822,1188
1569838528,343.123,9.04131,-1.89756,177.957,6.02051,-144.822,1188
1569838528,343.123,9.04131,-1.89756,177.957,6.02051,-144.822,1188
1569838528,343.123,9.04131,-1.89756,177.957,6.02051,-144.822,1188
1569838528,343.123,9.04131,-1.89756,177.957,6.02051,-144.822,1192
1569838528,343.123,9.04131,-1.89756,177.957,6.02051,-144.822,1192
1569838528,343.012,8.92969,-1.89756,177.957,6.02051,-144.822,1192
1569838528,343.012,9.04131,-1.89756,177.957,6.02051,-144.822,1192
1569838528,343.012,9.04131,-1.89756,177.957,6.02051,-144.822,1192
1569838528,343.012,9.04131,-1.89756,177.957,6.02051,-144.822,1192
1569838528,343.012,9.04131,-1.89756,177.957,6.02051,-144.822,1192
1569838528,343.012,9.04131,-1.89756,177.957,6.02051,-144.822,1192
1569838528,343.012,9.04131,-1.89756,177.957,6.02051,-144.822,1192
1569838528,343.012,9.04131,-1.89756,177.957,6.02051,-144.844,1192
1569838528,343.012,9.04131,-1.89756,177.979,6.02051,-144.844,1192
1569838528,343.123,9.04131,-1.89756,177.979,6.02051,-144.844,1192
1569838528,343.123,9.04131,-1.89756,177.979,6.02051,-144.844,1192
1569838528,343.123,9.04131,-1.89756,177.979,6.02051,-144.844,1192
1569838528,343.123,9.04131,-1.89756,177.979,6.02051,-144.844,1192
1569838528,343.123,9.04131,-1.89756,177.957,6.02051,-144.844,1192
1569838528,343.123,9.04131,-1.89756,177.957,6.02051,-144.844,1192
1569838528,343.123,9.04131,-1.89756,177.957,6.02051,-144.844,1192
1569838528,343.123,9.04131,-1.89756,177.957,6.04248,-144.844,1192
1569838528,343.123,9.04131,-1.89756,177.957,6.04248,-144.822,1192
1569838528,343.123,8.92969,-1.89756,177.957,6.04248,-144.822,1192
1569838528,343.123,8.92969,-1.89756,177.957,6.04248,-144.822,1192
1569838528,343.123,8.92969,-1.89756,177.957,6.04248,-144.822,1192
1569838528,343.123,9.04131,-1.89756,177.957,6.04248,-144.822,1192
1569838528,343.123,9.04131,-1.89756,177.957,6.04248,-144.822,1192
1569838528,343.123,9.04131,-1.89756,177.957,6.04248,-144.822,1192
1569838528,343.123,9.04131,-1.89756,177.957,6.04248,-144.822,1192
1569838528,343.123,9.04131,-1.89756,177.957,6.04248,-144.822,1192
1569838528,343.123,9.04131,-1.89756,177.957,6.04248,-144.822,1192
1569838528,343.123,9.04131,-1.89756,177.957,6.04248,-144.822,1196
1569838528,343.123,9.04131,-1.89756,177.957,6.02051,-144.822,1196
1569838528,343.123,9.04131,-1.89756,177.957,6.02051,-144.822,1196
1569838528,343.123,9.04131,-1.89756,177.957,6.02051,-144.822,1196
1569838528,343.123,9.04131,-1.89756,177.957,6.02051,-144.822,1196
1569838528,343.123,9.04131,-2.00918,177.957,6.02051,-144.822,1196
1569838528,343.123,8.92969,-2.00918,177.957,6.02051,-144.822,1196
1569838528,343.123,8.92969,-2.00918,177.957,6.02051,-144.822,1196
1569838528,343.123,8.92969,-2.00918,177.957,6.02051,-144.822,1196
1569838528,343.123,8.92969,-2.00918,177.957,6.02051,-144.822,1196
1569838528,343.123,8.92969,-1.89756,177.957,6.02051,-144.822,1196
1569838528,343.123,8.92969,-1.89756,177.957,6.02051,-144.822,1196
1569838528,343.123,8.92969,-1.89756,177.957,6.02051,-144.822,1196
1569838528,343.123,8.92969,-1.89756,177.957,6.02051,-144.822,1196
1569838528,343.123,8.92969,-1.89756,177.957,6.02051,-144.822,1192
1569838529,343.123,9.04131,-1.89756,177.957,6.02051,-144.822,1192
1569838529,343.123,9.04131,-1.89756,177.957,6.02051,-144.822,1192
1569838529,343.123,9.04131,-1.89756,177.957,6.02051,-144.822,1192
1569838529,343.123,9.04131,-1.89756,177.979,6.02051,-144.822,1192
1569838529,343.123,9.04131,-1.89756,177.979,6.02051,-144.822,1192
1569838529,343.123,9.04131,-1.89756,177.979,6.02051,-144.822,1192
1569838529,343.123,9.04131,-2.00918,177.979,6.02051,-144.822,1192
1569838529,343.123,9.04131,-2.00918,177.979,6.02051,-144.822,1192
1569838529,343.123,9.04131,-2.00918,177.979,6.02051,-144.822,1192
1569838529,343.123,9.04131,-2.00918,177.979,6.02051,-144.822,1192
1569838529,343.123,9.04131,-2.00918,177.979,6.02051,-144.822,1192
1569838529,343.123,9.04131,-2.00918,177.979,6.02051,-144.844,1192
1569838529,343.123,9.04131,-2.00918,177.979,6.02051,-144.844,1196
1569838529,343.123,9.04131,-2.00918,177.979,6.02051,-144.844,1196
1569838529,343.123,9.04131,-2.00918,177.979,6.02051,-144.844,1196
1569838529,343.123,9.04131,-2.00918,177.979,6.02051,-144.844,1196
1569838529,343.123,9.04131,-2.00918,177.957,6.02051,-144.844,1196
1569838529,343.123,9.04131,-2.00918,177.957,6.02051,-144.844,1196
1569838529,343.123,9.04131,-2.00918,177.957,6.02051,-144.844,1192
1569838529,343.123,9.04131,-2.00918,177.957,5.99854,-144.844,1192
1569838529,343.123,9.04131,-2.00918,177.957,5.99854,-144.844,1192
1569838529,343.123,9.04131,-2.00918,177.957,5.99854,-144.844,1192
1569838529,343.123,9.04131,-2.00918,177.957,5.99854,-144.844,1192
1569838529,343.123,9.04131,-2.00918,177.957,5.99854,-144.844,1192
1569838529,343.123,9.04131,-2.00918,177.957,5.99854,-144.844,1192
1569838529,343.123,9.04131,-2.00918,177.957,5.99854,-144.844,1188
1569838529,343.123,9.04131,-2.00918,177.957,5.99854,-144.844,1188
1569838529,343.123,9.04131,-2.00918,177.957,5.99854,-144.844,1188
1569838529,343.123,9.04131,-2.00918,177.979,5.99854,-144.844,1188
1569838529,343.123,9.04131,-2.00918,177.979,5.99854,-144.844,1188
1569838529,343.123,9.04131,-2.00918,177.979,5.99854,-144.844,1188
1569838529,343.123,9.04131,-2.00918,177.979,5.99854,-144.844,1188
1569838529,343.123,9.04131,-2.00918,177.979,5.99854,-144.844,1188
1569838529,343.123,9.04131,-2.00918,177.979,5.99854,-144.822,1184
1569838529,343.123,9.04131,-2.00918,177.979,5.99854,-144.822,1184
1569838529,343.123,9.04131,-2.00918,177.979,5.99854,-144.822,1184
1569838529,343.123,9.04131,-2.00918,177.979,5.99854,-144.822,1184
1569838529,343.123,9.04131,-2.00918,177.979,5.99854,-144.822,1184
1569838529,343.123,9.04131,-2.1208,177.979,5.97656,-144.822,1184
1569838529,343.123,9.04131,-2.1208,177.979,5.97656,-144.822,1184
1569838529,343.123,9.04131,-2.1208,177.979,5.97656,-144.822,1184
1569838529,343.123,9.04131,-2.1208,177.979,5.97656,-144.822,1184
1569838529,343.123,9.04131,-2.1208,177.979,5.97656,-144.822,1184
1569838529,343.123,9.04131,-2.1208,177.979,5.97656,-144.822,1184
1569838529,343.123,9.04131,-2.1208,177.979,5.97656,-144.822,1184
1569838529,343.123,9.04131,-2.1208,177.979,5.97656,-144.822,1184
1569838529,343.123,9.04131,-2.1208,177.979,5.97656,-144.822,1184
1569838529,343.123,9.04131,-2.1208,177.979,5.97656,-144.822,1184
1569838529,343.123,9.04131,-2.1208,177.979,5.97656,-144.822,1184
1569838529,343.123,9.04131,-2.1208,177.979,5.97656,-144.822,1184
1569838529,343.123,9.04131,-2.1208,177.979,5.97656,-144.822,1184
1569838529,343.123,9.04131,-2.1208,177.979,5.97656,-144.822,1184
1569838529,343.123,9.04131,-2.1208,177.979,5.97656,-144.822,1184
1569838529,343.123,9.04131,-2.1208,177.979,5.97656,-144.822,1184
1569838529,343.123,9.04131,-2.1208,177.979,5.97656,-144.822,1184
1569838529,343.123,9.04131,-2.1208,177.979,5.97656,-144.822,1180
1569838529,343.123,9.04131,-2.00918,177.979,5.99854,-144.822,1180
1569838529,343.123,9.04131,-2.00918,177.979,5.99854,-144.822,1180
1569838529,343.123,9.04131,-2.00918,177.979,5.99854,-144.822,1180
1569838529,343.123,9.04131,-2.00918,177.979,5.99854,-144.822,1180
1569838529,343.123,9.04131,-2.00918,177.979,5.99854,-144.822,1180
1569838529,343.123,9.04131,-2.00918,177.979,5.99854,-144.822,1180
1569838529,343.123,9.04131,-2.00918,177.979,5.99854,-144.822,1180
1569838529,343.123,9.04131,-2.00918,177.979,5.99854,-144.822,1180
1569838529,343.123,9.04131,-2.00918,177.979,5.99854,-144.822,1180
1569838529,343.123,9.04131,-2.00918,177.979,5.99854,-144.822,1180
1569838529,343.123,9.04131,-2.00918,177.979,5.99854,-144.822,1180
1569838529,343.123,9.04131,-2.00918,177.979,5.99854,-144.822,1184
1569838529,343.123,9.04131,-2.00918,177.979,5.99854,-144.822,1184
1569838529,343.123,9.04131,-2.00918,177.979,5.99854,-144.822,1184
1569838529,343.123,9.04131,-2.00918,177.979,5.99854,-144.822,1184
1569838529,343.123,9.04131,-2.00918,177.979,5.99854,-144.822,1184
1569838529,343.123,9.04131,-2.00918,177.979,5.99854,-144.822,1184
1569838529,343.123,9.04131,-2.00918,177.979,5.99854,-144.822,1184
1569838529,343.123,9.04131,-2.00918,177.979,5.99854,-144.822,1184
1569838529,343.123,9.04131,-2.00918,177.957,6.02051,-144.822,1188
1569838529,343.123,9.04131,-2.00918,177.957,6.02051,-144.822,1188
1569838529,343.123,9.04131,-2.00918,177.957,6.02051,-144.822,1188
1569838529,343.123,9.04131,-2.00918,177.957,6.02051,-144.822,1188
1569838529,343.123,9.04131,-2.00918,177.957,6.02051,-144.822,1188
1569838529,343.123,9.04131,-2.00918,177.957,6.02051,-144.822,1188
1569838529,343.123,9.04131,-2.00918,177.957,6.02051,-144.822,1188
1569838529,343.123,9.04131,-2.00918,177.957,6.02051,-144.844,1188
1569838529,343.123,9.04131,-2.00918,177.957,6.02051,-144.822,1188
1569838529,343.123,9.04131,-2.00918,177.957,5.99854,-144.822,1188
1569838529,343.123,9.04131,-2.00918,177.957,5.99854,-144.822,1188
1569838529,343.123,9.04131,-2.00918,177.957,5.99854,-144.822,1188
1569838529,343.123,9.04131,-2.00918,177.957,5.99854,-144.822,1188
1569838529,343.123,9.04131,-2.00918,177.957,5.99854,-144.822,1188
1569838529,343.123,9.04131,-2.00918,177.957,5.99854,-144.822,1188
1569838529,343.123,9.04131,-2.00918,177.957,5.99854,-144.822,1188
1569838529,343.123,9.04131,-2.00918,177.957,5.99854,-144.822,1188
1569838529,343.123,9.04131,-2.00918,177.957,5.99854,-144.822,1188
1569838529,343.123,9.04131,-2.00918,177.957,5.99854,-144.822,1188
1569838529,343.123,9.04131,-2.00918,177.957,5.99854,-144.822,1188
1569838529,343.123,9.04131,-2.00918,177.957,5.99854,-144.822,1188
1569838529,343.123,9.04131,-2.00918,177.957,6.02051,-144.822,1188
1569838529,343.123,9.04131,-2.00918,177.957,6.02051,-144.822,1188
1569838529,343.123,9.04131,-2.00918,177.957,6.02051,-144.822,1188
1569838529,343.123,9.04131,-2.00918,177.957,6.02051,-144.822,1188
1569838530,343.123,9.04131,-2.00918,177.957,6.02051,-144.822,1188
1569838530,343.123,9.04131,-2.00918,177.957,6.02051,-144.822,1188
1569838530,343.123,9.04131,-2.00918,177.957,6.02051,-144.822,1188
1569838530,343.123,9.04131,-2.00918,177.957,6.02051,-144.822,1188
1569838530,343.123,9.04131,-2.00918,177.957,6.02051,-144.822,1188
1569838530,343.123,9.04131,-2.00918,177.957,6.02051,-144.844,1188
1569838530,343.123,9.04131,-2.00918,177.979,6.02051,-144.844,1188
1569838530,343.123,9.04131,-2.00918,177.979,6.02051,-144.844,1188
1569838530,343.123,9.04131,-2.00918,177.979,6.02051,-144.844,1192
1569838530,343.123,9.04131,-2.00918,177.979,6.02051,-144.844,1192
1569838530,343.123,9.04131,-2.00918,177.979,6.02051,-144.844,1192
1569838530,343.123,9.04131,-2.00918,177.979,6.02051,-144.844,1192
1569838530,343.123,9.04131,-2.00918,177.979,6.02051,-144.844,1192
1569838530,343.123,9.04131,-2.00918,177.979,6.02051,-144.844,1192
1569838530,343.123,9.04131,-2.00918,177.979,6.02051,-144.844,1192
1569838530,343.123,9.04131,-2.00918,177.979,6.02051,-144.844,1192
1569838530,343.123,9.04131,-2.00918,177.979,6.02051,-144.844,1192
1569838530,343.123,9.04131,-2.00918,177.979,6.02051,-144.844,1192
1569838530,343.123,9.04131,-2.00918,177.979,6.02051,-144.844,1192
1569838530,343.123,9.04131,-2.00918,177.979,6.02051,-144.844,1192
1569838530,343.123,9.04131,-2.00918,177.957,6.02051,-144.866,1192
1569838530,343.123,9.04131,-2.00918,177.957,6.02051,-144.866,1192
1569838530,343.123,8.92969,-2.00918,177.957,6.02051,-144.866,1192
1569838530,343.123,8.92969,-2.00918,177.957,6.02051,-144.866,1192
1569838530,343.123,8.92969,-2.00918,177.957,6.02051,-144.866,1192
1569838530,343.123,8.92969,-2.00918,177.957,6.02051,-144.866,1192
1569838530,343.123,8.92969,-2.00918,177.957,6.02051,-144.844,1192
1569838530,343.123,8.92969,-2.00918,177.957,5.99854,-144.844,1192
1569838530,343.123,8.92969,-2.00918,177.957,5.99854,-144.844,1192
1569838530,343.123,8.92969,-2.00918,177.957,5.99854,-144.844,1192
1569838530,343.123,8.92969,-2.00918,177.957,5.99854,-144.844,1188
1569838530,343.123,8.92969,-2.00918,177.957,5.99854,-144.844,1188
1569838530,343.123,8.92969,-2.00918,177.957,5.99854,-144.844,1188
1569838530,343.123,8.92969,-2.00918,177.957,5.99854,-144.844,1188
1569838530,343.123,8.92969,-2.00918,177.957,6.02051,-144.844,1184
1569838530,343.123,8.92969,-2.00918,177.957,6.02051,-144.844,1184
1569838530,343.123,8.92969,-2.00918,177.957,6.02051,-144.844,1184
1569838530,343.123,8.92969,-2.00918,177.957,6.02051,-144.844,1184
1569838530,343.123,8.92969,-2.00918,177.957,6.02051,-144.844,1184
1569838530,343.123,8.92969,-2.00918,177.957,6.02051,-144.844,1184
1569838534,367.345,-14.8456,-1.67432,178.374,5.73486,-144.778,1420
1569838534,367.345,-14.8456,-1.67432,178.374,5.73486,-144.778,1420
1569838534,367.345,-14.8456,-1.67432,178.374,5.71289,-144.778,1420
1569838534,367.345,-14.8456,-1.67432,178.374,5.71289,-144.778,1420
1569838534,367.345,-14.8456,-1.78594,178.374,5.71289,-144.778,1420
1569838534,367.345,-14.8456,-1.78594,178.374,5.71289,-144.778,1420
1569838534,367.345,-14.8456,-1.78594,178.374,5.71289,-144.778,1420
1569838534,367.345,-14.8456,-1.78594,178.352,5.71289,-144.778,1416
1569838534,367.345,-14.8456,-1.78594,178.352,5.71289,-144.778,1416
1569838534,367.345,-14.8456,-1.78594,178.352,5.71289,-144.778,1416
1569838534,367.345,-14.8456,-1.78594,178.352,5.71289,-144.778,1416
1569838534,367.345,-14.8456,-1.78594,178.352,5.71289,-144.778,1416
1569838534,367.345,-14.8456,-1.78594,178.352,5.71289,-144.778,1416
1569838534,367.345,-14.8456,-1.78594,178.352,5.71289,-144.778,1416
1569838534,367.345,-14.8456,-1.78594,178.352,5.71289,-144.778,1416
1569838534,367.345,-14.8456,-1.78594,178.352,5.71289,-144.778,1416
1569838534,367.345,-14.8456,-1.78594,178.352,5.71289,-144.778,1416
1569838534,367.345,-14.8456,-1.78594,178.352,5.71289,-144.778,1416
1569838534,367.345,-14.8456,-1.78594,178.352,5.71289,-144.778,1416
1569838534,367.345,-14.8456,-1.78594,178.352,5.71289,-144.778,1416
1569838534,367.345,-14.8456,-1.78594,178.352,5.71289,-144.778,1416
1569838534,367.345,-14.8456,-1.78594,178.352,5.71289,-144.778,1416
1569838534,367.345,-14.8456,-1.78594,178.352,5.71289,-144.778,1416
1569838534,367.345,-14.8456,-1.78594,178.352,5.71289,-144.778,1416
1569838534,367.345,-14.8456,-1.78594,178.352,5.71289,-144.778,1416
1569838534,367.345,-14.8456,-1.78594,178.352,5.71289,-144.778,1416
1569838534,367.345,-14.8456,-1.78594,178.352,5.71289,-144.778,1416
1569838534,367.345,-14.8456,-1.78594,178.352,5.71289,-144.778,1416
1569838534,367.345,-14.8456,-1.67432,178.352,5.71289,-144.778,1416
1569838534,367.345,-14.8456,-1.67432,178.352,5.71289,-144.8,1416
1569838534,367.345,-14.8456,-1.67432,178.352,5.71289,-144.8,1416
1569838534,367.345,-14.8456,-1.67432,178.352,5.73486,-144.8,1416
1569838534,367.345,-14.8456,-1.67432,178.352,5.73486,-144.8,1416
1569838534,367.345,-14.8456,-1.67432,178.352,5.73486,-144.778,1420
1569838534,367.345,-14.8456,-1.67432,178.352,5.73486,-144.778,1420
1569838534,367.345,-14.8456,-1.67432,178.374,5.73486,-144.778,1420
1569838534,367.345,-14.734,-1.67432,178.374,5.73486,-144.778,1420
1569838534,367.345,-14.734,-1.67432,178.374,5.73486,-144.778,1420
1569838534,367.345,-14.734,-1.67432,178.374,5.73486,-144.778,1424
1569838534,367.345,-14.734,-1.67432,178.374,5.73486,-144.778,1424
1569838534,367.345,-14.734,-1.67432,178.374,5.73486,-144.778,1424
1569838534,367.345,-14.734,-1.67432,178.396,5.73486,-144.778,1424
1569838534,367.345,-14.734,-1.67432,178.396,5.73486,-144.778,1428
1569838534,367.345,-14.734,-1.67432,178.396,5.73486,-144.778,1428
1569838534,367.345,-14.734,-1.67432,178.396,5.73486,-144.778,1428
1569838534,367.345,-14.734,-1.67432,178.396,5.73486,-144.778,1428
1569838534,367.345,-14.734,-1.67432,178.396,5.73486,-144.778,1428
1569838534,367.345,-14.734,-1.67432,178.396,5.73486,-144.778,1432
1569838534,367.345,-14.734,-1.67432,178.396,5.73486,-144.778,1432
1569838534,367.345,-14.734,-1.67432,178.396,5.73486,-144.778,1432
1569838534,367.345,-14.734,-1.67432,178.396,5.73486,-144.778,1432
1569838534,367.345,-14.734,-1.67432,178.396,5.73486,-144.778,1432
1569838534,367.345,-14.734,-1.67432,178.374,5.73486,-144.778,1432
1569838535,367.345,-14.734,-1.67432,178.374,5.73486,-144.778,1432
1569838535,367.345,-14.734,-1.67432,178.374,5.73486,-144.778,1432
1569838535,367.345,-14.734,-1.67432,178.374,5.73486,-144.778,1432
1569838535,367.345,-14.734,-1.67432,178.374,5.73486,-144.778,1432
1569838535,367.345,-14.734,-1.67432,178.374,5.73486,-144.778,1432
1569838535,367.345,-14.8456,-1.67432,178.374,5.73486,-144.778,1432
1569838535,367.345,-14.8456,-1.67432,178.374,5.73486,-144.778,1432
1569838535,367.345,-14.8456,-1.67432,178.374,5.73486,-144.778,1432
1569838535,367.345,-14.8456,-1.67432,178.374,5.73486,-144.778,1432
1569838535,367.345,-14.8456,-1.67432,178.374,5.73486,-144.778,1432
1569838535,367.345,-14.8456,-1.67432,178.374,5.73486,-144.778,1432
1569838535,367.345,-14.8456,-1.67432,178.374,5.73486,-144.778,1432
1569838535,367.345,-14.8456,-1.67432,178.374,5.73486,-144.778,1432
1569838535,367.345,-14.8456,-1.67432,178.374,5.73486,-144.778,1432
1569838535,367.345,-14.8456,-1.67432,178.374,5.73486,-144.778,1432
1569838535,367.345,-14.8456,-1.67432,178.352,5.73486,-144.778,1432
1569838535,367.345,-14.8456,-1.67432,178.374,5.73486,-144.778,1432
1569838535,367.345,-14.8456,-1.67432,178.374,5.73486,-144.778,1432
1569838535,367.345,-14.8456,-1.67432,178.374,5.73486,-144.778,1432
1569838535,367.345,-14.8456,-1.67432,178.374,5.73486,-144.778,1432
1569838535,367.345,-14.8456,-1.67432,178.374,5.73486,-144.778,1432
1569838535,367.345,-14.8456,-1.67432,178.374,5.73486,-144.778,1432
1569838535,367.345,-14.8456,-1.67432,178.374,5.73486,-144.778,1432
1569838535,367.345,-14.8456,-1.67432,178.374,5.73486,-144.778,1432
1569838535,367.345,-14.8456,-1.67432,178.374,5.73486,-144.778,1432
1569838535,367.345,-14.734,-1.67432,178.374,5.73486,-144.778,1432
1569838535,367.345,-14.734,-1.67432,178.374,5.73486,-144.778,1432
1569838535,367.345,-14.734,-1.67432,178.374,5.71289,-144.778,1432
1569838535,367.345,-14.734,-1.67432,178.374,5.71289,-144.778,1428
1569838535,367.345,-14.734,-1.67432,178.374,5.71289,-144.778,1428
1569838535,367.345,-14.734,-1.67432,178.374,5.71289,-144.778,1428
1569838535,367.345,-14.734,-1.67432,178.374,5.71289,-144.778,1428
1569838535,367.345,-14.734,-1.67432,178.374,5.71289,-144.778,1428
1569838535,367.345,-14.734,-1.67432,178.374,5.71289,-144.778,1428
1569838535,367.345,-14.734,-1.67432,178.374,5.71289,-144.778,1428
1569838535,367.345,-14.734,-1.67432,178.374,5.71289,-144.778,1428
1569838535,367.345,-14.734,-1.67432,178.374,5.71289,-144.778,1428
1569838535,367.345,-14.734,-1.78594,178.374,5.71289,-144.778,1428
1569838535,367.345,-14.734,-1.78594,178.374,5.71289,-144.778,1428
1569838535,367.345,-14.734,-1.78594,178.374,5.71289,-144.778,1428
1569838535,367.345,-14.734,-1.78594,178.374,5.71289,-144.778,1428
1569838535,367.345,-14.734,-1.78594,178.374,5.71289,-144.778,1428
1569838535,367.345,-14.734,-1.78594,178.396,5.71289,-144.778,1428
1569838535,367.345,-14.734,-1.78594,178.396,5.69092,-144.778,1428
1569838535,367.345,-14.734,-1.78594,178.396,5.69092,-144.778,1428
1569838535,367.345,-14.734,-1.78594,178.396,5.69092,-144.778,1428
1569838535,367.345,-14.734,-1.78594,178.396,5.69092,-144.778,1428
1569838535,367.345,-14.734,-1.78594,178.396,5.69092,-144.778,1428
1569838535,367.345,-14.734,-1.78594,178.396,5.69092,-144.778,1428
1569838535,367.345,-14.734,-1.78594,178.396,5.69092,-144.778,1428
1569838535,367.345,-14.734,-1.78594,178.396,5.69092,-144.778,1428
1569838535,367.345,-14.734,-1.78594,178.396,5.69092,-144.778,1428
1569838535,367.345,-14.734,-1.78594,178.396,5.69092,-144.778,1428
1569838535,367.345,-14.734,-1.78594,178.396,5.69092,-144.778,1428
1569838535,367.345,-14.734,-1.78594,178.396,5.69092,-144.778,1428
1569838535,367.345,-14.734,-1.78594,178.396,5.71289,-144.778,1424
1569838535,367.345,-14.734,-1.78594,178.396,5.71289,-144.778,1424
1569838535,367.345,-14.734,-1.78594,178.396,5.71289,-144.778,1424
1569838535,367.345,-14.734,-1.78594,178.396,5.71289,-144.778,1424
1569838535,367.345,-14.734,-1.78594,178.396,5.71289,-144.778,1424
1569838535,367.345,-14.734,-1.78594,178.396,5.71289,-144.778,1424
1569838535,367.345,-14.734,-1.78594,178.396,5.71289,-144.778,1420
1569838535,367.345,-14.734,-1.67432,178.396,5.71289,-144.778,1420
1569838535,367.345,-14.734,-1.67432,178.396,5.71289,-144.778,1420
1569838535,367.345,-14.734,-1.67432,178.396,5.71289,-144.778,1420
1569838535,367.345,-14.734,-1.67432,178.396,5.71289,-144.778,1420
1569838535,367.345,-14.734,-1.67432,178.396,5.71289,-144.778,1420
1569838535,367.345,-14.734,-1.67432,178.396,5.71289,-144.778,1420
1569838535,367.345,-14.734,-1.67432,178.396,5.71289,-144.778,1420
1569838535,367.345,-14.734,-1.67432,178.396,5.71289,-144.778,1424
1569838535,367.345,-14.734,-1.67432,178.396,5.71289,-144.778,1424
1569838535,367.345,-14.734,-1.67432,178.396,5.71289,-144.778,1424
1569838535,367.345,-14.734,-1.67432,178.396,5.71289,-144.778,1424
1569838535,367.345,-14.734,-1.67432,178.396,5.73486,-144.778,1424
1569838535,367.345,-14.734,-1.67432,178.374,5.73486,-144.778,1428
1569838535,367.345,-14.734,-1.67432,178.374,5.73486,-144.778,1428
1569838535,367.345,-14.734,-1.67432,178.374,5.73486,-144.778,1428
1569838535,367.345,-14.734,-1.67432,178.374,5.73486,-144.778,1428
1569838535,367.345,-14.734,-1.67432,178.374,5.73486,-144.778,1428
1569838535,367.345,-14.734,-1.67432,178.374,5.73486,-144.778,1432
1569838535,367.345,-14.734,-1.67432,178.374,5.73486,-144.778,1432
1569838535,367.345,-14.734,-1.67432,178.374,5.73486,-144.778,1432
1569838535,367.345,-14.734,-1.67432,178.374,5.73486,-144.778,1432
1569838535,367.345,-14.734,-1.67432,178.374,5.73486,-144.778,1432
1569838535,367.345,-14.734,-1.67432,178.374,5.73486,-144.778,1432
1569838535,367.345,-14.734,-1.67432,178.374,5.73486,-144.778,1432
1569838535,367.345,-14.734,-1.67432,178.374,5.73486,-144.778,1432
1569838535,367.345,-14.734,-1.67432,178.374,5.73486,-144.778,1432
1569838535,367.345,-14.734,-1.67432,178.374,5.73486,-144.778,1428
1569838535,367.345,-14.734,-1.67432,178.374,5.73486,-144.778,1428
1569838535,367.345,-14.734,-1.67432,178.374,5.73486,-144.8,1428
1569838535,367.345,-14.734,-1.67432,178.374,5.73486,-144.8,1428
1569838535,367.345,-14.734,-1.67432,178.374,5.73486,-144.8,1428
1569838535,367.345,-14.734,-1.67432,178.374,5.73486,-144.8,1428
1569838535,367.345,-14.734,-1.67432,178.374,5.73486,-144.8,1428
1569838535,367.345,-14.734,-1.67432,178.374,5.73486,-144.8,1428
1569838535,367.345,-14.734,-1.67432,178.374,5.73486,-144.8,1424
1569838535,367.345,-14.734,-1.67432,178.374,5.73486,-144.778,1424
1569838535,367.345,-14.734,-1.67432,178.374,5.73486,-144.778,1424
1569838535,367.345,-14.734,-1.67432,178.374,5.73486,-144.778,1424
1569838536,367.345,-14.734,-1.67432,178.374,5.73486,-144.778,1424
1569838536,367.345,-14.734,-1.67432,178.374,5.73486,-144.778,1424
1569838536,367.345,-14.734,-1.67432,178.374,5.73486,-144.778,1428
1569838536,367.345,-14.734,-1.67432,178.374,5.73486,-144.778,1428
1569838536,367.345,-14.734,-1.67432,178.374,5.73486,-144.778,1428
1569838536,367.345,-14.734,-1.67432,178.374,5.73486,-144.778,1428
1569838536,367.345,-14.734,-1.67432,178.374,5.73486,-144.778,1428
1569838536,367.345,-14.734,-1.67432,178.374,5.73486,-144.778,1428
1569838536,367.345,-14.734,-1.67432,178.374,5.71289,-144.778,1428
1569838536,367.345,-14.734,-1.67432,178.374,5.71289,-144.778,1428
1569838536,367.345,-14.734,-1.67432,178.374,5.71289,-144.778,1428
1569838536,367.345,-14.734,-1.67432,178.374,5.71289,-144.778,1428
1569838536,367.345,-14.734,-1.78594,178.374,5.71289,-144.778,1428
1569838536,367.233,-14.734,-1.78594,178.374,5.71289,-144.778,1428
1569838536,367.233,-14.734,-1.78594,178.374,5.71289,-144.778,1428
1569838536,367.233,-14.734,-1.78594,178.374,5.71289,-144.778,1424
1569838536,367.233,-14.734,-1.78594,178.374,5.71289,-144.778,1424
1569838536,367.233,-14.734,-1.78594,178.374,5.71289,-144.778,1424
1569838536,367.233,-14.734,-1.78594,178.374,5.71289,-144.778,1424
1569838536,367.233,-14.734,-1.78594,178.374,5.71289,-144.778,1424
1569838536,367.233,-14.734,-1.67432,178.374,5.71289,-144.778,1424
1569838536,367.233,-14.734,-1.67432,178.374,5.71289,-144.8,1424
1569838536,367.233,-14.734,-1.67432,178.352,5.71289,-144.8,1424
1569838536,367.233,-14.734,-1.67432,178.352,5.71289,-144.8,1424
1569838536,367.233,-14.8456,-1.67432,178.352,5.71289,-144.8,1424
1569838536,367.233,-14.8456,-1.67432,178.352,5.71289,-144.8,1424
1569838536,367.233,-14.8456,-1.67432,178.352,5.73486,-144.8,1424
1569838536,367.233,-14.8456,-1.67432,178.352,5.73486,-144.8,1424
1569838536,367.233,-14.8456,-1.67432,178.352,5.73486,-144.8,1424
1569838536,367.233,-14.8456,-1.67432,178.352,5.73486,-144.8,1424
1569838536,367.233,-14.8456,-1.67432,178.352,5.73486,-144.8,1424
1569838536,367.233,-14.8456,-1.67432,178.352,5.73486,-144.8,1424
1569838536,367.233,-14.8456,-1.67432,178.352,5.73486,-144.8,1424
1569838536,367.345,-14.8456,-1.67432,178.352,5.73486,-144.8,1424
1569838536,367.345,-14.8456,-1.67432,178.352,5.73486,-144.8,1424
1569838536,367.345,-14.8456,-1.67432,178.352,5.73486,-144.8,1424
1569838536,367.345,-14.8456,-1.67432,178.352,5.73486,-144.8,1424
1569838536,367.345,-14.8456,-1.67432,178.352,5.73486,-144.8,1428
1569838536,367.345,-14.8456,-1.67432,178.352,5.73486,-144.8,1428
1569838536,367.345,-14.8456,-1.67432,178.352,5.73486,-144.8,1428
1569838536,367.345,-14.8456,-1.67432,178.352,5.73486,-144.8,1428
1569838536,367.345,-14.8456,-1.67432,178.352,5.73486,-144.8,1428
1569838536,367.345,-14.8456,-1.67432,178.352,5.75684,-144.8,1428
1569838536,367.345,-14.8456,-1.67432,178.352,5.75684,-144.8,1428
1569838536,367.345,-14.8456,-1.67432,178.352,5.75684,-144.8,1428
1569838536,367.345,-14.8456,-1.67432,178.352,5.75684,-144.8,1432
1569838536,367.345,-14.8456,-1.67432,178.352,5.75684,-144.8,1432
1569838536,367.345,-14.8456,-1.67432,178.352,5.75684,-144.8,1432
1569838536,367.345,-14.8456,-1.67432,178.352,5.75684,-144.8,1428
1569838536,367.345,-14.8456,-1.67432,178.352,5.75684,-144.8,1428
1569838536,367.345,-14.8456,-1.67432,178.352,5.75684,-144.778,1428
1569838536,367.345,-14.8456,-1.67432,178.352,5.75684,-144.778,1428
1569838536,367.345,-14.8456,-1.67432,178.352,5.75684,-144.778,1428
1569838536,367.345,-14.8456,-1.67432,178.352,5.75684,-144.778,1428
1569838536,367.345,-14.8456,-1.67432,178.352,5.75684,-144.778,1428
1569838536,367.345,-14.8456,-1.67432,178.374,5.73486,-144.778,1428
1569838536,367.345,-14.8456,-1.67432,178.352,5.73486,-144.778,1428
1569838536,367.345,-14.8456,-1.67432,178.352,5.73486,-144.778,1428
1569838536,367.345,-14.8456,-1.67432,178.352,5.73486,-144.778,1428
1569838536,367.345,-14.8456,-1.67432,178.352,5.73486,-144.778,1428
1569838536,367.345,-14.8456,-1.67432,178.352,5.73486,-144.778,1428
1569838536,367.345,-14.8456,-1.67432,178.352,5.73486,-144.778,1428
1569838536,367.345,-14.8456,-1.67432,178.352,5.73486,-144.778,1428
1569838536,367.345,-14.8456,-1.67432,178.352,5.73486,-144.778,1428
1569838536,367.345,-14.8456,-1.67432,178.352,5.73486,-144.778,1428
1569838536,367.345,-14.8456,-1.67432,178.352,5.73486,-144.778,1432
1569838536,367.345,-14.8456,-1.67432,178.352,5.73486,-144.778,1432
1569838536,367.345,-14.8456,-1.67432,178.352,5.73486,-144.778,1432
1569838536,367.345,-14.8456,-1.67432,178.352,5.73486,-144.778,1432
1569838536,367.345,-14.8456,-1.67432,178.352,5.73486,-144.778,1432
1569838536,367.345,-14.8456,-1.67432,178.352,5.73486,-144.756,1432
1569838536,367.345,-14.8456,-1.67432,178.352,5.73486,-144.756,1432
1569838536,367.345,-14.8456,-1.67432,178.352,5.73486,-144.756,1432
1569838536,367.345,-14.8456,-1.67432,178.352,5.73486,-144.756,1432
1569838536,367.345,-14.8456,-1.67432,178.374,5.73486,-144.756,1436
1569838536,367.345,-14.8456,-1.67432,178.374,5.73486,-144.756,1432
1569838536,367.345,-14.8456,-1.67432,178.374,5.73486,-144.756,1432
1569838536,367.345,-14.8456,-1.67432,178.352,5.73486,-144.756,1432
1569838536,367.345,-14.8456,-1.67432,178.352,5.73486,-144.756,1432
1569838536,367.345,-14.8456,-1.67432,178.352,5.73486,-144.756,1432
1569838536,367.345,-14.8456,-1.67432,178.352,5.73486,-144.756,1432
1569838536,367.345,-14.8456,-1.67432,178.352,5.73486,-144.756,1428
1569838536,367.345,-14.8456,-1.67432,178.352,5.73486,-144.756,1428
1569838536,367.345,-14.8456,-1.67432,178.352,5.73486,-144.756,1428
1569838536,367.345,-14.8456,-1.67432,178.352,5.73486,-144.778,1428
1569838536,367.345,-14.8456,-1.67432,178.352,5.73486,-144.778,1428
1569838536,367.345,-14.8456,-1.67432,178.352,5.73486,-144.778,1424
1569838536,367.345,-14.8456,-1.67432,178.352,5.73486,-144.778,1424
1569838536,367.345,-14.8456,-1.67432,178.352,5.73486,-144.778,1424
1569838536,367.345,-14.8456,-1.67432,178.352,5.73486,-144.778,1424
1569838536,367.345,-14.8456,-1.67432,178.352,5.73486,-144.778,1424
1569838536,367.345,-14.8456,-1.67432,178.352,5.73486,-144.778,1424
1569838536,367.345,-14.8456,-1.67432,178.352,5.73486,-144.778,1420
1569838536,367.345,-14.8456,-1.67432,178.352,5.73486,-144.778,1420
1569838536,367.345,-14.8456,-1.67432,178.352,5.71289,-144.778,1420
1569838536,367.345,-14.8456,-1.67432,178.352,5.71289,-144.778,1420
1569838536,367.345,-14.8456,-1.67432,178.352,5.71289,-144.778,1420
1569838536,367.345,-14.8456,-1.67432,178.352,5.71289,-144.778,1420
1569838536,367.345,-14.8456,-1.67432,178.352,5.71289,-144.778,1420
1569838536,367.233,-14.8456,-1.67432,178.352,5.71289,-144.778,1420
1569838537,367.233,-14.8456,-1.78594,178.352,5.71289,-144.778,1420
1569838537,367.233,-14.8456,-1.78594,178.352,5.71289,-144.778,1416
1569838537,367.233,-14.8456,-1.78594,178.352,5.71289,-144.778,1416
1569838537,367.233,-14.8456,-1.78594,178.352,5.71289,-144.778,1416
1569838537,367.233,-14.8456,-1.78594,178.352,5.71289,-144.778,1416
1569838537,367.233,-14.8456,-1.78594,178.352,5.71289,-144.778,1416
1569838537,367.233,-14.8456,-1.78594,178.352,5.71289,-144.778,1416
1569838537,367.345,-14.8456,-1.78594,178.352,5.71289,-144.756,1416
1569838537,367.345,-14.8456,-1.78594,178.352,5.71289,-144.756,1416
1569838537,367.345,-14.8456,-1.78594,178.352,5.71289,-144.756,1412
1569838537,367.345,-14.8456,-1.67432,178.352,5.71289,-144.756,1412
1569838537,367.345,-14.8456,-1.67432,178.352,5.71289,-144.756,1412
1569838537,367.345,-14.8456,-1.67432,178.374,5.71289,-144.756,1412
1569838537,367.345,-14.8456,-1.67432,178.374,5.71289,-144.756,1412
1569838537,367.345,-14.8456,-1.67432,178.374,5.71289,-144.756,1412
1569838537,367.345,-14.734,-1.67432,178.374,5.71289,-144.756,1412
1569838537,367.345,-14.734,-1.78594,178.374,5.71289,-144.756,1412
1569838537,367.345,-14.734,-1.78594,178.374,5.71289,-144.734,1412
1569838537,367.345,-14.734,-1.78594,178.374,5.71289,-144.734,1412
1569838537,367.345,-14.734,-1.78594,178.374,5.71289,-144.734,1412
1569838537,367.345,-14.734,-1.78594,178.374,5.71289,-144.734,1412
1569838537,367.345,-14.734,-1.78594,178.374,5.71289,-144.734,1412
1569838537,367.345,-14.734,-1.78594,178.374,5.71289,-144.734,1412
1569838537,367.345,-14.734,-1.78594,178.374,5.71289,-144.734,1412
1569838537,367.345,-14.734,-1.78594,178.374,5.71289,-144.734,1412
1569838537,367.345,-14.734,-1.78594,178.374,5.71289,-144.734,1412
1569838537,367.345,-14.734,-1.78594,178.374,5.71289,-144.734,1412
1569838537,367.345,-14.734,-1.67432,178.374,5.71289,-144.756,1412
1569838537,367.345,-14.734,-1.67432,178.374,5.71289,-144.756,1416
1569838537,367.345,-14.734,-1.67432,178.374,5.71289,-144.756,1416
1569838537,367.345,-14.734,-1.67432,178.374,5.71289,-144.756,1416
1569838537,367.345,-14.734,-1.67432,178.374,5.71289,-144.756,1416
1569838537,367.345,-14.734,-1.67432,178.374,5.71289,-144.756,1416
1569838537,367.345,-14.734,-1.67432,178.374,5.71289,-144.756,1416
1569838537,367.345,-14.734,-1.67432,178.374,5.71289,-144.756,1416
1569838537,367.345,-14.734,-1.67432,178.374,5.71289,-144.756,1416
1569838537,367.345,-14.734,-1.67432,178.374,5.71289,-144.756,1416
1569838537,367.345,-14.734,-1.67432,178.396,5.71289,-144.756,1416
1569838537,367.345,-14.734,-1.67432,178.396,5.71289,-144.756,1412
1569838537,367.345,-14.734,-1.67432,178.396,5.71289,-144.756,1412
1569838537,367.345,-14.734,-1.67432,178.396,5.71289,-144.756,1412
1569838537,367.345,-14.734,-1.67432,178.396,5.71289,-144.756,1412
1569838537,367.345,-14.734,-1.67432,178.396,5.71289,-144.756,1412
1569838537,367.345,-14.734,-1.67432,178.396,5.71289,-144.756,1412
1569838537,367.233,-14.734,-1.67432,178.396,5.71289,-144.756,1412
1569838537,367.233,-14.734,-1.67432,178.396,5.71289,-144.756,1412
1569838537,367.233,-14.734,-1.67432,178.396,5.71289,-144.756,1412
1569838537,367.233,-14.734,-1.67432,178.396,5.71289,-144.756,1412
1569838537,367.233,-14.734,-1.67432,178.374,5.71289,-144.756,1412
1569838537,367.233,-14.734,-1.67432,178.374,5.71289,-144.756,1412
1569838537,367.233,-14.734,-1.67432,178.374,5.71289,-144.756,1412
1569838537,367.233,-14.734,-1.67432,178.374,5.71289,-144.756,1412
1569838537,367.233,-14.734,-1.67432,178.374,5.73486,-144.756,1416
1569838537,367.233,-14.734,-1.67432,178.374,5.73486,-144.756,1416
1569838537,367.233,-14.734,-1.67432,178.374,5.73486,-144.756,1416
1569838537,367.233,-14.734,-1.67432,178.374,5.73486,-144.756,1416
1569838537,367.233,-14.734,-1.67432,178.374,5.73486,-144.756,1416
1569838537,367.233,-14.734,-1.67432,178.374,5.73486,-144.756,1416
1569838537,367.233,-14.734,-1.67432,178.374,5.73486,-144.756,1416
1569838537,367.233,-14.734,-1.67432,178.374,5.73486,-144.756,1416
1569838537,367.345,-14.734,-1.67432,178.374,5.73486,-144.756,1416
1569838537,367.345,-14.734,-1.67432,178.374,5.73486,-144.756,1420
1569838537,367.345,-14.734,-1.67432,178.374,5.71289,-144.756,1420
1569838537,367.345,-14.734,-1.67432,178.374,5.71289,-144.756,1420
1569838537,367.345,-14.734,-1.67432,178.374,5.71289,-144.756,1420
1569838537,367.345,-14.734,-1.67432,178.374,5.71289,-144.756,1420
1569838537,367.345,-14.734,-1.67432,178.374,5.71289,-144.756,1420
1569838537,367.345,-14.734,-1.67432,178.374,5.71289,-144.756,1424
1569838537,367.345,-14.734,-1.67432,178.374,5.71289,-144.756,1424
1569838537,367.345,-14.734,-1.67432,178.374,5.71289,-144.756,1424
1569838537,367.345,-14.734,-1.67432,178.374,5.71289,-144.756,1424
1569838537,367.345,-14.734,-1.67432,178.374,5.71289,-144.756,1428
1569838537,367.345,-14.734,-1.67432,178.374,5.71289,-144.756,1428
1569838537,367.345,-14.734,-1.67432,178.374,5.71289,-144.756,1428
1569838537,367.345,-14.734,-1.67432,178.374,5.71289,-144.756,1428
1569838537,367.345,-14.734,-1.67432,178.374,5.71289,-144.756,1432
1569838537,367.345,-14.734,-1.67432,178.374,5.71289,-144.756,1432
1569838537,367.345,-14.734,-1.67432,178.374,5.71289,-144.756,1432
1569838537,367.345,-14.734,-1.67432,178.374,5.71289,-144.756,1436
1569838537,367.345,-14.734,-1.67432,178.374,5.71289,-144.756,1436
1569838537,367.345,-14.734,-1.67432,178.374,5.71289,-144.756,1436
1569838537,367.345,-14.734,-1.67432,178.374,5.71289,-144.778,1436
1569838537,367.345,-14.734,-1.67432,178.374,5.71289,-144.778,1440
1569838537,367.345,-14.734,-1.67432,178.374,5.71289,-144.778,1440
1569838537,367.345,-14.734,-1.67432,178.374,5.71289,-144.778,1440
1569838537,367.457,-14.734,-1.67432,178.374,5.71289,-144.778,1444
1569838537,367.457,-14.734,-1.67432,178.374,5.71289,-144.778,1444
1569838537,367.457,-14.734,-1.67432,178.374,5.71289,-144.778,1444
1569838537,367.457,-14.734,-1.67432,178.374,5.71289,-144.778,1444
1569838537,367.457,-14.734,-1.67432,178.374,5.71289,-144.778,1448
1569838537,367.457,-14.734,-1.67432,178.374,5.71289,-144.756,1448
1569838537,367.457,-14.734,-1.67432,178.374,5.71289,-144.756,1448
1569838537,367.457,-14.734,-1.67432,178.374,5.71289,-144.756,1448
1569838537,367.457,-14.734,-1.67432,178.374,5.71289,-144.756,1448
1569838537,367.457,-14.734,-1.67432,178.374,5.71289,-144.756,1448
1569838537,367.457,-14.734,-1.67432,178.374,5.71289,-144.778,1448
1569838537,367.457,-14.734,-1.67432,178.374,5.71289,-144.778,1448
1569838537,367.457,-14.734,-1.67432,178.374,5.71289,-144.778,1452
1569838537,367.457,-14.734,-1.67432,178.374,5.71289,-144.778,1452
1569838537,367.457,-14.734,-1.67432,178.374,5.71289,-144.778,1452
1569838538,367.457,-14.734,-1.67432,178.374,5.71289,-144.778,1452
1569838538,367.457,-14.734,-1.67432,178.374,5.71289,-144.778,1452
1569838538,367.457,-14.734,-1.67432,178.374,5.71289,-144.778,1452
1569838538,367.457,-14.734,-1.67432,178.374,5.71289,-144.778,1452
1569838538,367.457,-14.734,-1.67432,178.374,5.71289,-144.778,1452
1569838538,367.457,-14.734,-1.67432,178.374,5.71289,-144.756,1452
1569838538,367.457,-14.734,-1.67432,178.396,5.71289,-144.756,1452
1569838538,367.457,-14.734,-1.67432,178.396,5.71289,-144.756,1452
1569838538,367.457,-14.734,-1.67432,178.396,5.71289,-144.756,1452
1569838538,367.457,-14.734,-1.67432,178.396,5.71289,-144.756,1452
1569838538,367.457,-14.734,-1.67432,178.396,5.71289,-144.756,1452
1569838538,367.457,-14.734,-1.67432,178.396,5.71289,-144.756,1452
1569838538,367.457,-14.734,-1.67432,178.396,5.71289,-144.756,1452
1569838538,367.457,-14.734,-1.67432,178.396,5.71289,-144.756,1452
1569838538,367.457,-14.734,-1.67432,178.396,5.71289,-144.778,1452
1569838538,367.457,-14.734,-1.67432,178.396,5.71289,-144.778,1452
1569838538,367.457,-14.734,-1.67432,178.374,5.71289,-144.778,1452
1569838538,367.457,-14.734,-1.67432,178.374,5.71289,-144.778,1452
1569838538,367.457,-14.734,-1.67432,178.396,5.71289,-144.778,1452
1569838538,367.457,-14.734,-1.67432,178.396,5.71289,-144.778,1456
1569838538,367.457,-14.734,-1.67432,178.374,5.71289,-144.778,1456
1569838538,367.457,-14.734,-1.67432,178.374,5.71289,-144.778,1456
1569838538,367.457,-14.734,-1.67432,178.374,5.71289,-144.778,1456
1569838538,367.457,-14.734,-1.67432,178.374,5.71289,-144.778,1456
1569838538,367.457,-14.734,-1.67432,178.374,5.71289,-144.778,1456
1569838538,367.457,-14.734,-1.67432,178.374,5.71289,-144.778,1456
1569838538,367.457,-14.734,-1.78594,178.374,5.71289,-144.778,1456
1569838538,367.457,-14.734,-1.78594,178.374,5.71289,-144.778,1456
1569838538,367.457,-14.734,-1.78594,178.374,5.71289,-144.778,1456
1569838538,367.457,-14.734,-1.78594,178.374,5.71289,-144.778,1456
1569838538,367.457,-14.734,-1.78594,178.374,5.71289,-144.778,1452
1569838538,367.457,-14.734,-1.78594,178.374,5.71289,-144.778,1452
1569838538,367.457,-14.734,-1.78594,178.374,5.71289,-144.778,1452
1569838538,367.457,-14.734,-1.78594,178.374,5.71289,-144.778,1452
1569838538,367.457,-14.734,-1.78594,178.374,5.71289,-144.778,1452
1569838538,367.457,-14.734,-1.78594,178.374,5.71289,-144.778,1452
1569838538,367.457,-14.734,-1.78594,178.396,5.71289,-144.778,1452
1569838538,367.457,-14.734,-1.67432,178.396,5.71289,-144.778,1452
1569838538,367.457,-14.734,-1.67432,178.396,5.71289,-144.778,1452
1569838538,367.457,-14.734,-1.67432,178.396,5.71289,-144.778,1448
1569838538,367.457,-14.734,-1.67432,178.396,5.71289,-144.778,1448
1569838538,367.457,-14.734,-1.67432,178.396,5.71289,-144.778,1448
1569838538,367.457,-14.734,-1.67432,178.396,5.71289,-144.778,1448
1569838538,367.457,-14.734,-1.67432,178.396,5.71289,-144.778,1448
1569838538,367.457,-14.734,-1.78594,178.374,5.71289,-144.778,1444
1569838538,367.345,-14.734,-1.78594,178.374,5.71289,-144.778,1444
1569838538,367.345,-14.734,-1.78594,178.374,5.71289,-144.778,1444
1569838538,367.345,-14.734,-1.78594,178.374,5.71289,-144.778,1444
1569838538,367.345,-14.734,-1.78594,178.374,5.71289,-144.778,1444
1569838538,367.345,-14.734,-1.78594,178.374,5.71289,-144.8,1440
1569838538,367.345,-14.734,-1.78594,178.374,5.69092,-144.8,1440
1569838538,367.345,-14.734,-1.78594,178.374,5.69092,-144.8,1440
1569838538,367.345,-14.734,-1.78594,178.374,5.69092,-144.8,1440
1569838538,367.345,-14.734,-1.78594,178.374,5.69092,-144.8,1436
1569838538,367.345,-14.734,-1.78594,178.374,5.69092,-144.8,1436
1569838538,367.345,-14.734,-1.78594,178.374,5.69092,-144.8,1436
1569838538,367.345,-14.734,-1.78594,178.374,5.69092,-144.8,1436
1569838538,367.345,-14.734,-1.78594,178.374,5.71289,-144.778,1432
1569838538,367.345,-14.734,-1.78594,178.374,5.71289,-144.778,1432
1569838538,367.345,-14.734,-1.78594,178.352,5.71289,-144.778,1432
1569838538,367.345,-14.734,-1.67432,178.352,5.71289,-144.778,1432
1569838538,367.345,-14.734,-1.67432,178.352,5.71289,-144.778,1432
1569838538,367.345,-14.734,-1.67432,178.352,5.71289,-144.778,1432
1569838538,367.345,-14.734,-1.67432,178.352,5.71289,-144.778,1432
1569838538,367.345,-14.734,-1.67432,178.352,5.71289,-144.778,1432
1569838538,367.345,-14.734,-1.67432,178.352,5.71289,-144.778,1432
1569838538,367.345,-14.734,-1.67432,178.352,5.71289,-144.778,1432
1569838538,367.345,-14.734,-1.67432,178.352,5.71289,-144.778,1428
1569838538,367.345,-14.734,-1.67432,178.374,5.71289,-144.8,1428
1569838538,367.345,-14.734,-1.67432,178.374,5.71289,-144.8,1428
1569838538,367.345,-14.734,-1.67432,178.374,5.71289,-144.8,1428
1569838538,367.345,-14.734,-1.67432,178.374,5.71289,-144.8,1428
1569838538,367.345,-14.734,-1.67432,178.352,5.71289,-144.8,1428
1569838538,367.345,-14.734,-1.67432,178.352,5.71289,-144.8,1428
1569838538,367.345,-14.734,-1.67432,178.352,5.71289,-144.8,1428
1569838538,367.345,-14.8456,-1.67432,178.352,5.71289,-144.8,1428
1569838538,367.345,-14.8456,-1.67432,178.352,5.71289,-144.8,1428
1569838538,367.345,-14.8456,-1.67432,178.352,5.71289,-144.8,1428
1569838538,367.345,-14.8456,-1.67432,178.352,5.71289,-144.8,1428
1569838538,367.345,-14.8456,-1.67432,178.352,5.71289,-144.778,1428
1569838538,367.345,-14.8456,-1.67432,178.352,5.71289,-144.778,1428
1569838538,367.345,-14.8456,-1.67432,178.352,5.71289,-144.778,1428
1569838538,367.345,-14.734,-1.67432,178.352,5.71289,-144.778,1428
1569838538,367.345,-14.734,-1.67432,178.352,5.71289,-144.778,1428
1569838538,367.345,-14.734,-1.67432,178.374,5.71289,-144.8,1428
1569838538,367.345,-14.734,-1.67432,178.374,5.73486,-144.8,1428
1569838538,367.345,-14.734,-1.67432,178.374,5.73486,-144.8,1428
1569838538,367.345,-14.734,-1.67432,178.374,5.73486,-144.8,1428
1569838538,367.345,-14.734,-1.67432,178.374,5.73486,-144.8,1428
1569838538,367.345,-14.734,-1.67432,178.374,5.73486,-144.8,1432
1569838538,367.345,-14.734,-1.67432,178.374,5.73486,-144.8,1432
1569838538,367.345,-14.734,-1.67432,178.396,5.73486,-144.778,1432
1569838538,367.345,-14.734,-1.67432,178.396,5.73486,-144.778,1432
1569838538,367.345,-14.734,-1.67432,178.396,5.73486,-144.778,1432
1569838538,367.345,-14.734,-1.67432,178.396,5.73486,-144.778,1436
1569838538,367.345,-14.734,-1.67432,178.396,5.73486,-144.778,1436
1569838538,367.345,-14.734,-1.67432,178.374,5.73486,-144.778,1436
1569838538,367.345,-14.734,-1.67432,178.374,5.73486,-144.778,1436
1569838538,367.345,-14.734,-1.67432,178.374,5.73486,-144.778,1436
1569838539,367.345,-14.734,-1.67432,178.374,5.73486,-144.778,1436
1569838539,367.345,-14.734,-1.67432,178.374,5.73486,-144.778,1436
1569838539,367.345,-14.734,-1.67432,178.374,5.73486,-144.778,1436
1569838539,367.345,-14.734,-1.67432,178.374,5.73486,-144.778,1436
1569838539,367.345,-14.734,-1.67432,178.374,5.73486,-144.778,1436
1569838539,367.345,-14.734,-1.67432,178.374,5.73486,-144.778,1436
1569838539,367.345,-14.734,-1.67432,178.374,5.73486,-144.778,1436
1569838539,367.345,-14.734,-1.67432,178.374,5.73486,-144.778,1436
1569838539,367.345,-14.734,-1.67432,178.374,5.73486,-144.778,1436
1569838539,367.345,-14.734,-1.67432,178.374,5.73486,-144.778,1436
1569838539,367.345,-14.734,-1.67432,178.374,5.73486,-144.778,1436
1569838539,367.345,-14.734,-1.67432,178.374,5.73486,-144.778,1436
1569838539,367.345,-14.734,-1.67432,178.374,5.73486,-144.778,1436
1569838539,367.345,-14.734,-1.67432,178.374,5.73486,-144.778,1436
1569838539,367.345,-14.734,-1.67432,178.374,5.73486,-144.778,1436
1569838539,367.345,-14.734,-1.67432,178.374,5.73486,-144.778,1436
1569838539,367.345,-14.734,-1.67432,178.374,5.73486,-144.778,1436
1569838539,367.345,-14.734,-1.67432,178.374,5.73486,-144.778,1436
1569838539,367.345,-14.734,-1.67432,178.374,5.73486,-144.778,1436
1569838539,367.345,-14.734,-1.67432,178.374,5.73486,-144.778,1436
1569838539,367.345,-14.734,-1.67432,178.374,5.73486,-144.778,1436
1569838539,367.345,-14.734,-1.67432,178.374,5.73486,-144.778,1436
1569838539,367.345,-14.734,-1.67432,178.374,5.73486,-144.778,1436
1569838539,367.345,-14.734,-1.67432,178.374,5.73486,-144.778,1436
1569838539,367.345,-14.734,-1.67432,178.374,5.73486,-144.778,1436
1569838539,367.345,-14.734,-1.67432,178.374,5.73486,-144.778,1436
1569838539,367.345,-14.734,-1.67432,178.374,5.73486,-144.778,1436
1569838539,367.345,-14.734,-1.67432,178.374,5.73486,-144.778,1432
1569838539,367.345,-14.734,-1.67432,178.374,5.73486,-144.778,1432
1569838539,367.345,-14.734,-1.67432,178.374,5.73486,-144.778,1432
1569838539,367.345,-14.8456,-1.67432,178.352,5.73486,-144.778,1432
1569838539,367.345,-14.8456,-1.67432,178.352,5.73486,-144.778,1432
1569838539,367.345,-14.8456,-1.67432,178.352,5.73486,-144.778,1432
1569838539,367.345,-14.8456,-1.67432,178.352,5.73486,-144.778,1432
1569838539,367.345,-14.8456,-1.67432,178.352,5.73486,-144.778,1432
1569838539,367.345,-14.8456,-1.67432,178.352,5.73486,-144.778,1432
1569838539,367.345,-14.8456,-1.67432,178.352,5.73486,-144.778,1432
1569838539,367.345,-14.8456,-1.67432,178.352,5.73486,-144.778,1432
1569838539,367.345,-14.8456,-1.67432,178.352,5.73486,-144.778,1432
1569838539,367.345,-14.8456,-1.67432,178.352,5.73486,-144.778,1432
1569838539,367.345,-14.8456,-1.67432,178.352,5.73486,-144.778,1428
1569838539,367.345,-14.8456,-1.67432,178.352,5.73486,-144.778,1428
1569838539,367.345,-14.8456,-1.67432,178.352,5.73486,-144.778,1428
1569838539,367.345,-14.8456,-1.67432,178.352,5.73486,-144.778,1428
1569838539,367.345,-14.8456,-1.67432,178.352,5.73486,-144.778,1428
1569838539,367.345,-14.8456,-1.67432,178.352,5.73486,-144.778,1428
1569838539,367.345,-14.8456,-1.67432,178.352,5.73486,-144.778,1428
1569838539,367.345,-14.8456,-1.67432,178.352,5.73486,-144.778,1428
1569838544,408.087,-54.2479,-2.56729,179.209,4.8999,-144.36,1756
1569838544,408.087,-54.2479,-2.56729,179.209,4.8999,-144.338,1756
1569838544,408.087,-54.2479,-2.56729,179.209,4.8999,-144.338,1756
1569838544,408.087,-54.2479,-2.56729,179.209,4.87793,-144.338,1752
1569838544,408.087,-54.2479,-2.56729,179.209,4.87793,-144.338,1752
1569838544,408.087,-54.2479,-2.56729,179.209,4.87793,-144.338,1752
1569838544,408.087,-54.2479,-2.56729,179.209,4.87793,-144.36,1752
1569838544,408.087,-54.2479,-2.56729,179.187,4.87793,-144.36,1752
1569838544,408.087,-54.2479,-2.56729,179.187,4.87793,-144.36,1752
1569838544,408.087,-54.3595,-2.56729,179.187,4.87793,-144.36,1748
1569838544,408.087,-54.3595,-2.56729,179.187,4.87793,-144.36,1748
1569838544,408.087,-54.3595,-2.56729,179.187,4.87793,-144.36,1748
1569838544,408.087,-54.3595,-2.56729,179.187,4.87793,-144.36,1748
1569838544,408.087,-54.3595,-2.56729,179.187,4.87793,-144.36,1748
1569838544,408.087,-54.3595,-2.56729,179.187,4.87793,-144.36,1748
1569838544,408.087,-54.3595,-2.56729,179.187,4.87793,-144.36,1748
1569838544,408.087,-54.3595,-2.56729,179.187,4.87793,-144.36,1748
1569838544,408.087,-54.3595,-2.56729,179.187,4.8999,-144.36,1748
1569838544,408.087,-54.3595,-2.56729,179.187,4.8999,-144.36,1748
1569838544,408.087,-54.2479,-2.56729,179.187,4.8999,-144.36,1748
1569838544,408.087,-54.2479,-2.56729,179.187,4.87793,-144.36,1748
1569838544,408.087,-54.2479,-2.56729,179.187,4.87793,-144.36,1748
1569838544,408.087,-54.2479,-2.56729,179.209,4.87793,-144.36,1748
1569838544,408.087,-54.2479,-2.67891,179.209,4.87793,-144.36,1748
1569838544,408.087,-54.2479,-2.67891,179.209,4.87793,-144.36,1748
1569838544,408.087,-54.2479,-2.67891,179.209,4.87793,-144.36,1752
1569838544,408.087,-54.2479,-2.67891,179.209,4.87793,-144.36,1752
1569838544,408.087,-54.2479,-2.67891,179.209,4.87793,-144.36,1752
1569838544,408.087,-54.2479,-2.67891,179.209,4.87793,-144.36,1752
1569838544,408.087,-54.2479,-2.67891,179.209,4.87793,-144.36,1752
1569838544,408.087,-54.2479,-2.67891,179.209,4.85596,-144.36,1752
1569838544,408.087,-54.2479,-2.67891,179.209,4.85596,-144.36,1752
1569838544,408.087,-54.2479,-2.67891,179.209,4.85596,-144.36,1752
1569838544,408.087,-54.2479,-2.67891,179.209,4.85596,-144.36,1748
1569838544,408.087,-54.2479,-2.67891,179.209,4.85596,-144.338,1748
1569838544,408.087,-54.2479,-2.67891,179.209,4.85596,-144.338,1748
1569838544,408.087,-54.2479,-2.67891,179.209,4.85596,-144.338,1748
1569838544,408.087,-54.2479,-2.67891,179.209,4.85596,-144.338,1744
1569838544,408.087,-54.2479,-2.67891,179.209,4.85596,-144.338,1744
1569838544,408.087,-54.2479,-2.67891,179.209,4.85596,-144.338,1744
1569838544,408.087,-54.2479,-2.67891,179.209,4.85596,-144.338,1744
1569838544,408.087,-54.2479,-2.67891,179.209,4.85596,-144.316,1740
1569838544,408.087,-54.2479,-2.67891,179.209,4.85596,-144.316,1740
1569838544,408.087,-54.2479,-2.67891,179.209,4.85596,-144.316,1740
1569838545,408.087,-54.2479,-2.67891,179.209,4.85596,-144.316,1740
1569838545,408.087,-54.2479,-2.67891,179.187,4.85596,-144.316,1740
1569838545,408.087,-54.2479,-2.67891,179.187,4.85596,-144.316,1740
1569838545,408.087,-54.2479,-2.67891,179.187,4.85596,-144.316,1740
1569838545,408.087,-54.3595,-2.67891,179.187,4.85596,-144.316,1740
1569838545,408.087,-54.3595,-2.67891,179.187,4.85596,-144.316,1740
1569838545,408.087,-54.3595,-2.67891,179.187,4.85596,-144.316,1740
1569838545,408.087,-54.3595,-2.67891,179.187,4.85596,-144.316,1740
1569838545,408.087,-54.2479,-2.79053,179.187,4.83398,-144.316,1740
1569838545,408.087,-54.2479,-2.79053,179.187,4.83398,-144.316,1740
1569838545,408.087,-54.2479,-2.79053,179.209,4.83398,-144.316,1740
1569838545,408.087,-54.2479,-2.79053,179.209,4.83398,-144.316,1740
1569838545,408.087,-54.2479,-2.79053,179.209,4.83398,-144.316,1740
1569838545,408.087,-54.2479,-2.79053,179.209,4.83398,-144.338,1740
1569838545,408.087,-54.2479,-2.79053,179.209,4.83398,-144.338,1740
1569838545,408.087,-54.2479,-2.79053,179.209,4.83398,-144.338,1740
1569838545,408.087,-54.2479,-2.79053,179.209,4.83398,-144.338,1740
1569838545,408.087,-54.2479,-2.79053,179.209,4.83398,-144.338,1740
1569838545,408.087,-54.2479,-2.79053,179.231,4.83398,-144.338,1740
1569838545,408.087,-54.2479,-2.79053,179.231,4.83398,-144.338,1740
1569838545,408.087,-54.2479,-2.79053,179.231,4.83398,-144.338,1740
1569838545,408.087,-54.2479,-2.79053,179.231,4.83398,-144.338,1740
1569838545,408.087,-54.2479,-2.79053,179.209,4.85596,-144.338,1744
1569838545,408.087,-54.2479,-2.67891,179.209,4.85596,-144.338,1744
1569838545,408.087,-54.2479,-2.67891,179.209,4.85596,-144.338,1744
1569838545,408.087,-54.2479,-2.67891,179.209,4.85596,-144.338,1744
1569838545,408.087,-54.2479,-2.67891,179.209,4.85596,-144.338,1744
1569838545,408.087,-54.2479,-2.67891,179.209,4.85596,-144.36,1744
1569838545,408.087,-54.2479,-2.67891,179.209,4.87793,-144.36,1744
1569838545,408.087,-54.2479,-2.67891,179.209,4.87793,-144.338,1744
1569838545,408.087,-54.2479,-2.67891,179.209,4.87793,-144.338,1744
1569838545,408.087,-54.2479,-2.67891,179.187,4.87793,-144.338,1744
1569838545,408.087,-54.2479,-2.67891,179.187,4.87793,-144.338,1744
1569838545,408.087,-54.3595,-2.67891,179.187,4.8999,-144.338,1744
1569838545,408.087,-54.3595,-2.56729,179.187,4.8999,-144.338,1744
1569838545,408.087,-54.3595,-2.56729,179.187,4.8999,-144.338,1744
1569838545,408.087,-54.3595,-2.56729,179.187,4.8999,-144.338,1748
1569838545,408.087,-54.3595,-2.56729,179.187,4.8999,-144.338,1748
1569838545,408.087,-54.3595,-2.56729,179.187,4.8999,-144.338,1748
1569838545,408.087,-54.3595,-2.56729,179.187,4.8999,-144.338,1748
1569838545,408.087,-54.3595,-2.56729,179.187,4.8999,-144.338,1748
1569838545,408.087,-54.2479,-2.56729,179.187,4.8999,-144.338,1744
1569838545,408.087,-54.2479,-2.67891,179.187,4.8999,-144.338,1744
1569838545,408.087,-54.2479,-2.67891,179.187,4.87793,-144.338,1744
1569838545,408.087,-54.2479,-2.67891,179.187,4.87793,-144.338,1744
1569838545,408.087,-54.2479,-2.67891,179.187,4.87793,-144.338,1744
1569838545,408.087,-54.2479,-2.67891,179.209,4.87793,-144.338,1740
1569838545,408.087,-54.2479,-2.67891,179.209,4.87793,-144.338,1740
1569838545,408.087,-54.2479,-2.67891,179.209,4.87793,-144.338,1740
1569838545,408.087,-54.2479,-2.67891,179.209,4.87793,-144.338,1740
1569838545,408.087,-54.2479,-2.67891,179.187,4.87793,-144.338,1736
1569838545,408.087,-54.3595,-2.67891,179.187,4.87793,-144.338,1736
1569838545,408.087,-54.3595,-2.67891,179.187,4.87793,-144.338,1736
1569838545,408.087,-54.3595,-2.67891,179.187,4.87793,-144.36,1736
1569838545,408.087,-54.3595,-2.67891,179.187,4.87793,-144.36,1736
1569838545,408.087,-54.3595,-2.67891,179.187,4.87793,-144.36,1736
1569838545,408.198,-54.3595,-2.67891,179.187,4.87793,-144.36,1736
1569838545,408.198,-54.3595,-2.67891,179.187,4.87793,-144.36,1736
1569838545,408.198,-54.3595,-2.67891,179.187,4.87793,-144.36,1736
1569838545,408.198,-54.3595,-2.67891,179.187,4.87793,-144.36,1736
1569838545,408.198,-54.3595,-2.67891,179.187,4.87793,-144.36,1736
1569838545,408.198,-54.3595,-2.67891,179.187,4.87793,-144.36,1736
1569838545,408.198,-54.3595,-2.67891,179.187,4.87793,-144.36,1736
1569838545,408.198,-54.3595,-2.67891,179.187,4.87793,-144.36,1736
1569838545,408.198,-54.3595,-2.67891,179.187,4.87793,-144.36,1736
1569838545,408.198,-54.2479,-2.67891,179.209,4.87793,-144.36,1736
1569838545,408.198,-54.2479,-2.56729,179.209,4.87793,-144.382,1736
1569838545,408.087,-54.2479,-2.56729,179.209,4.87793,-144.382,1736
1569838545,408.087,-54.2479,-2.56729,179.209,4.87793,-144.382,1740
1569838545,408.087,-54.2479,-2.56729,179.209,4.87793,-144.382,1740
1569838545,408.087,-54.2479,-2.56729,179.209,4.87793,-144.382,1740
1569838545,408.087,-54.2479,-2.56729,179.209,4.87793,-144.382,1740
1569838545,408.087,-54.2479,-2.67891,179.209,4.87793,-144.382,1740
1569838545,408.087,-54.2479,-2.67891,179.209,4.87793,-144.382,1740
1569838545,408.087,-54.2479,-2.67891,179.209,4.87793,-144.382,1740
1569838545,408.087,-54.2479,-2.67891,179.209,4.87793,-144.382,1740
1569838545,408.087,-54.2479,-2.67891,179.209,4.87793,-144.382,1744
1569838545,408.087,-54.2479,-2.67891,179.209,4.87793,-144.382,1744
1569838545,408.087,-54.2479,-2.67891,179.209,4.87793,-144.382,1744
1569838545,408.087,-54.2479,-2.67891,179.209,4.87793,-144.382,1744
1569838545,408.087,-54.2479,-2.67891,179.209,4.87793,-144.382,1744
1569838545,408.087,-54.2479,-2.67891,179.209,4.87793,-144.382,1748
1569838545,408.087,-54.2479,-2.67891,179.209,4.85596,-144.382,1748
1569838545,408.198,-54.2479,-2.67891,179.209,4.85596,-144.36,1748
1569838545,408.198,-54.2479,-2.67891,179.209,4.85596,-144.36,1752
1569838545,408.198,-54.2479,-2.67891,179.209,4.85596,-144.36,1752
1569838545,408.198,-54.2479,-2.67891,179.209,4.85596,-144.36,1752
1569838545,408.198,-54.2479,-2.67891,179.209,4.85596,-144.36,1752
1569838545,408.198,-54.2479,-2.67891,179.209,4.85596,-144.36,1756
1569838545,408.198,-54.2479,-2.67891,179.209,4.85596,-144.338,1756
1569838545,408.198,-54.2479,-2.67891,179.209,4.85596,-144.338,1756
1569838545,408.198,-54.2479,-2.67891,179.209,4.85596,-144.338,1756
1569838545,408.198,-54.2479,-2.67891,179.209,4.85596,-144.338,1756
1569838545,408.087,-54.2479,-2.67891,179.209,4.85596,-144.338,1756
1569838545,408.087,-54.2479,-2.67891,179.209,4.85596,-144.338,1756
1569838545,408.087,-54.2479,-2.67891,179.209,4.85596,-144.338,1752
1569838545,408.087,-54.2479,-2.67891,179.209,4.85596,-144.338,1752
1569838545,408.087,-54.2479,-2.67891,179.209,4.87793,-144.338,1752
1569838545,408.087,-54.2479,-2.67891,179.209,4.87793,-144.338,1752
1569838545,408.087,-54.2479,-2.56729,179.209,4.87793,-144.338,1752
1569838546,408.087,-54.2479,-2.56729,179.209,4.87793,-144.338,1748
1569838546,408.087,-54.2479,-2.56729,179.209,4.87793,-144.338,1748
1569838546,408.087,-54.2479,-2.56729,179.209,4.87793,-144.338,1748
1569838546,408.087,-54.2479,-2.56729,179.209,4.87793,-144.338,1748
1569838546,408.087,-54.2479,-2.56729,179.209,4.87793,-144.338,1748
1569838546,408.087,-54.2479,-2.56729,179.209,4.87793,-144.338,1748
1569838546,408.087,-54.2479,-2.56729,179.209,4.87793,-144.338,1744
1569838546,408.087,-54.2479,-2.56729,179.209,4.87793,-144.338,1744
1569838546,408.087,-54.2479,-2.56729,179.209,4.87793,-144.338,1744
1569838546,408.087,-54.2479,-2.56729,179.231,4.87793,-144.338,1740
1569838546,408.087,-54.2479,-2.56729,179.231,4.87793,-144.338,1740
1569838546,408.087,-54.1362,-2.67891,179.231,4.87793,-144.338,1740
1569838546,408.087,-54.1362,-2.67891,179.231,4.87793,-144.338,1740
1569838546,408.087,-54.1362,-2.67891,179.231,4.87793,-144.338,1736
1569838546,408.087,-54.1362,-2.67891,179.231,4.87793,-144.338,1736
1569838546,408.087,-54.1362,-2.67891,179.231,4.87793,-144.338,1736
1569838546,408.087,-54.1362,-2.67891,179.231,4.87793,-144.338,1736
1569838546,408.087,-54.1362,-2.67891,179.231,4.87793,-144.338,1736
1569838546,408.198,-54.1362,-2.67891,179.253,4.87793,-144.338,1736
1569838546,408.198,-54.1362,-2.67891,179.253,4.87793,-144.36,1736
1569838546,408.198,-54.0246,-2.67891,179.253,4.87793,-144.36,1736
1569838546,408.198,-54.0246,-2.67891,179.253,4.87793,-144.36,1736
1569838546,408.198,-54.0246,-2.67891,179.253,4.87793,-144.36,1736
1569838546,408.198,-54.0246,-2.56729,179.253,4.87793,-144.36,1736
1569838546,408.198,-54.0246,-2.56729,179.253,4.87793,-144.36,1736
1569838546,408.198,-54.0246,-2.56729,179.253,4.87793,-144.36,1736
1569838546,408.198,-54.0246,-2.56729,179.253,4.87793,-144.36,1740
1569838546,408.198,-54.0246,-2.56729,179.253,4.87793,-144.36,1740
1569838546,408.198,-54.1362,-2.56729,179.253,4.87793,-144.36,1740
1569838546,408.198,-54.1362,-2.56729,179.253,4.87793,-144.36,1740
1569838546,408.198,-54.1362,-2.56729,179.253,4.87793,-144.36,1744
1569838546,408.198,-54.1362,-2.56729,179.253,4.87793,-144.36,1744
1569838546,408.198,-54.1362,-2.56729,179.253,4.87793,-144.36,1744
1569838546,408.198,-54.1362,-2.56729,179.253,4.87793,-144.36,1744
1569838546,408.198,-54.1362,-2.56729,179.253,4.87793,-144.36,1744
1569838546,408.198,-54.1362,-2.56729,179.231,4.87793,-144.36,1744
1569838546,408.198,-54.1362,-2.56729,179.231,4.87793,-144.36,1744
1569838546,408.198,-54.1362,-2.56729,179.231,4.87793,-144.36,1744
1569838546,408.087,-54.1362,-2.56729,179.231,4.87793,-144.36,1744
1569838546,408.087,-54.1362,-2.56729,179.231,4.87793,-144.36,1744
1569838546,408.087,-54.1362,-2.56729,179.231,4.87793,-144.36,1744
1569838546,408.087,-54.1362,-2.56729,179.231,4.87793,-144.36,1744
1569838546,408.087,-54.2479,-2.56729,179.231,4.87793,-144.36,1744
1569838546,408.087,-54.2479,-2.56729,179.231,4.87793,-144.36,1744
1569838546,408.087,-54.2479,-2.56729,179.209,4.87793,-144.36,1744
1569838546,408.087,-54.2479,-2.56729,179.209,4.87793,-144.36,1740
1569838546,408.087,-54.2479,-2.67891,179.209,4.87793,-144.36,1740
1569838546,408.087,-54.2479,-2.67891,179.209,4.87793,-144.36,1740
1569838546,408.087,-54.2479,-2.67891,179.209,4.87793,-144.36,1740
1569838546,408.087,-54.2479,-2.67891,179.209,4.87793,-144.36,1740
1569838546,408.087,-54.2479,-2.67891,179.209,4.87793,-144.36,1740
1569838546,408.087,-54.2479,-2.67891,179.209,4.87793,-144.36,1740
1569838546,408.087,-54.2479,-2.67891,179.209,4.87793,-144.36,1740
1569838546,408.087,-54.2479,-2.67891,179.209,4.87793,-144.36,1740
1569838546,408.087,-54.2479,-2.67891,179.209,4.87793,-144.36,1740
1569838546,408.087,-54.2479,-2.67891,179.209,4.87793,-144.36,1740
1569838546,408.087,-54.2479,-2.67891,179.209,4.87793,-144.36,1736
1569838546,408.087,-54.2479,-2.67891,179.209,4.87793,-144.36,1736
1569838546,408.087,-54.2479,-2.67891,179.209,4.8999,-144.36,1740
1569838546,408.087,-54.2479,-2.67891,179.209,4.8999,-144.36,1740
1569838546,408.087,-54.2479,-2.67891,179.209,4.8999,-144.36,1740
1569838546,408.087,-54.2479,-2.67891,179.209,4.8999,-144.36,1740
1569838546,408.087,-54.2479,-2.67891,179.209,4.8999,-144.36,1740
1569838546,408.087,-54.2479,-2.67891,179.209,4.8999,-144.36,1740
1569838546,408.087,-54.2479,-2.56729,179.209,4.8999,-144.36,1744
1569838546,408.087,-54.2479,-2.56729,179.209,4.8999,-144.36,1744
1569838546,408.087,-54.2479,-2.56729,179.209,4.8999,-144.36,1744
1569838546,408.087,-54.2479,-2.56729,179.209,4.8999,-144.36,1748
1569838546,408.087,-54.2479,-2.56729,179.209,4.8999,-144.36,1748
1569838546,408.087,-54.2479,-2.56729,179.209,4.8999,-144.36,1748
1569838546,408.087,-54.2479,-2.56729,179.209,4.8999,-144.36,1748
1569838546,408.087,-54.2479,-2.67891,179.209,4.8999,-144.36,1752
1569838546,408.198,-54.2479,-2.67891,179.209,4.87793,-144.36,1752
1569838546,408.198,-54.2479,-2.67891,179.209,4.87793,-144.36,1756
1569838546,408.198,-54.2479,-2.67891,179.209,4.87793,-144.36,1756
1569838546,408.198,-54.2479,-2.67891,179.209,4.87793,-144.36,1756
1569838546,408.198,-54.2479,-2.67891,179.209,4.87793,-144.36,1756
1569838546,408.198,-54.2479,-2.67891,179.209,4.87793,-144.36,1756
1569838546,408.198,-54.2479,-2.67891,179.209,4.87793,-144.36,1760
1569838546,408.198,-54.2479,-2.67891,179.209,4.87793,-144.36,1760
1569838546,408.198,-54.3595,-2.67891,179.209,4.87793,-144.36,1760
1569838546,408.198,-54.3595,-2.67891,179.209,4.87793,-144.36,1760
1569838546,408.198,-54.3595,-2.67891,179.209,4.87793,-144.36,1760
1569838546,408.198,-54.3595,-2.67891,179.209,4.87793,-144.36,1760
1569838546,408.198,-54.3595,-2.67891,179.187,4.87793,-144.36,1760
1569838546,408.198,-54.3595,-2.67891,179.187,4.87793,-144.36,1760
1569838546,408.198,-54.3595,-2.67891,179.187,4.87793,-144.36,1760
1569838546,408.198,-54.3595,-2.56729,179.187,4.87793,-144.36,1760
1569838546,408.198,-54.3595,-2.56729,179.187,4.87793,-144.36,1760
1569838546,408.198,-54.3595,-2.56729,179.187,4.8999,-144.36,1760
1569838546,408.198,-54.3595,-2.56729,179.187,4.8999,-144.36,1760
1569838546,408.198,-54.3595,-2.56729,179.187,4.8999,-144.36,1760
1569838546,408.087,-54.3595,-2.56729,179.187,4.8999,-144.36,1760
1569838546,408.087,-54.3595,-2.56729,179.187,4.8999,-144.36,1760
1569838546,408.087,-54.3595,-2.56729,179.187,4.8999,-144.36,1760
1569838546,408.087,-54.3595,-2.56729,179.187,4.8999,-144.36,1760
1569838546,408.087,-54.3595,-2.56729,179.187,4.8999,-144.36,1760
1569838546,408.087,-54.3595,-2.56729,179.209,4.8999,-144.36,1760
1569838546,408.087,-54.3595,-2.56729,179.209,4.8999,-144.36,1756
1569838546,408.087,-54.2479,-2.56729,179.209,4.87793,-144.36,1756
1569838547,408.087,-54.2479,-2.56729,179.209,4.87793,-144.36,1756
1569838547,408.087,-54.2479,-2.67891,179.209,4.87793,-144.36,1752
1569838547,408.087,-54.2479,-2.67891,179.209,4.87793,-144.36,1752
1569838547,408.087,-54.2479,-2.67891,179.209,4.85596,-144.36,1752
1569838547,408.087,-54.2479,-2.67891,179.209,4.85596,-144.36,1748
1569838547,408.087,-54.2479,-2.67891,179.209,4.85596,-144.36,1748
1569838547,408.087,-54.2479,-2.67891,179.209,4.85596,-144.36,1748
1569838547,408.087,-54.2479,-2.79053,179.209,4.83398,-144.36,1748
1569838547,408.087,-54.2479,-2.79053,179.209,4.83398,-144.36,1748
1569838547,408.087,-54.2479,-2.79053,179.209,4.83398,-144.36,1744
1569838547,408.087,-54.2479,-2.79053,179.209,4.83398,-144.36,1744
1569838547,408.087,-54.2479,-2.79053,179.209,4.83398,-144.36,1748
1569838547,408.087,-54.2479,-2.79053,179.209,4.83398,-144.36,1748
1569838547,408.087,-54.2479,-2.79053,179.231,4.83398,-144.36,1748
1569838547,408.087,-54.2479,-2.79053,179.231,4.83398,-144.36,1748
1569838547,408.087,-54.2479,-2.79053,179.231,4.83398,-144.36,1748
1569838547,408.087,-54.2479,-2.79053,179.231,4.83398,-144.36,1752
1569838547,408.087,-54.2479,-2.79053,179.231,4.83398,-144.36,1752
1569838547,408.087,-54.2479,-2.79053,179.209,4.83398,-144.36,1752
1569838547,408.198,-54.2479,-2.79053,179.209,4.83398,-144.36,1756
1569838547,408.198,-54.2479,-2.67891,179.209,4.85596,-144.36,1756
1569838547,408.087,-54.2479,-2.67891,179.209,4.85596,-144.36,1756
1569838547,408.087,-54.2479,-2.67891,179.209,4.85596,-144.36,1756
1569838547,408.087,-54.2479,-2.67891,179.209,4.85596,-144.36,1756
1569838547,408.087,-54.2479,-2.67891,179.209,4.85596,-144.36,1756
1569838547,408.087,-54.2479,-2.67891,179.209,4.85596,-144.36,1756
1569838547,408.087,-54.2479,-2.67891,179.209,4.85596,-144.36,1756
1569838547,408.087,-54.2479,-2.67891,179.209,4.85596,-144.36,1756
1569838547,408.087,-54.2479,-2.67891,179.209,4.85596,-144.36,1756
1569838547,408.087,-54.2479,-2.67891,179.209,4.85596,-144.36,1756
1569838547,408.087,-54.2479,-2.67891,179.209,4.85596,-144.36,1756
1569838547,408.087,-54.2479,-2.67891,179.209,4.85596,-144.36,1756
1569838547,408.087,-54.2479,-2.67891,179.209,4.85596,-144.36,1756
1569838547,408.087,-54.2479,-2.67891,179.209,4.85596,-144.36,1752
1569838547,408.087,-54.2479,-2.67891,179.209,4.85596,-144.36,1752
1569838547,408.087,-54.2479,-2.67891,179.209,4.85596,-144.36,1752
1569838547,408.087,-54.2479,-2.67891,179.209,4.85596,-144.36,1752
1569838547,408.087,-54.2479,-2.67891,179.209,4.85596,-144.36,1752
1569838547,408.087,-54.2479,-2.67891,179.209,4.87793,-144.36,1752
1569838547,408.087,-54.2479,-2.67891,179.209,4.87793,-144.36,1752
1569838547,408.087,-54.2479,-2.56729,179.209,4.87793,-144.36,1752
1569838547,408.087,-54.2479,-2.56729,179.209,4.87793,-144.36,1752
1569838547,408.087,-54.2479,-2.56729,179.209,4.87793,-144.36,1756
1569838547,408.087,-54.2479,-2.56729,179.209,4.87793,-144.36,1756
1569838547,408.087,-54.2479,-2.56729,179.209,4.87793,-144.36,1756
1569838547,408.087,-54.2479,-2.56729,179.209,4.8999,-144.36,1756
1569838547,408.087,-54.2479,-2.56729,179.209,4.8999,-144.36,1756
1569838547,408.087,-54.2479,-2.56729,179.209,4.8999,-144.36,1756
