time,x,y,z,ax,ay,az,q
1569937233,361.652,-54.6943,-14.1759,178.506,2.30713,-145.107,404
1569937233,361.652,-54.6943,-14.1759,178.506,2.30713,-145.107,404
1569937233,361.652,-54.6943,-14.1759,178.506,2.30713,-145.107,408
1569937233,361.652,-54.6943,-14.1759,178.506,2.30713,-145.107,408
1569937233,361.652,-54.6943,-14.1759,178.506,2.30713,-145.107,408
1569937233,361.652,-54.6943,-14.1759,178.506,2.30713,-145.107,408
1569937233,361.652,-54.6943,-14.1759,178.506,2.30713,-145.107,408
1569937233,361.652,-54.6943,-14.1759,178.506,2.30713,-145.107,408
1569937233,361.652,-54.6943,-14.1759,178.506,2.30713,-145.107,408
1569937233,361.652,-54.6943,-14.1759,178.506,2.30713,-145.107,408
1569937233,361.652,-54.6943,-14.1759,178.506,2.30713,-145.107,408
1569937233,361.652,-54.6943,-14.1759,178.506,2.30713,-145.107,408
1569937233,361.652,-54.6943,-14.1759,178.506,2.30713,-145.107,408
1569937233,361.652,-54.6943,-14.2875,178.506,2.30713,-145.107,408
1569937233,361.652,-54.6943,-14.2875,178.506,2.28516,-145.107,408
1569937233,361.652,-54.6943,-14.2875,178.506,2.28516,-145.107,408
1569937233,361.652,-54.6943,-14.2875,178.506,2.28516,-145.107,408
1569937233,361.652,-54.6943,-14.2875,178.506,2.28516,-145.107,404
1569937233,361.652,-54.6943,-14.2875,178.506,2.28516,-145.107,404
1569937233,361.652,-54.6943,-14.2875,178.506,2.28516,-145.107,404
1569937233,361.652,-54.6943,-14.2875,178.506,2.28516,-145.107,404
1569937233,361.652,-54.6943,-14.2875,178.506,2.28516,-145.107,404
1569937233,361.652,-54.6943,-14.2875,178.506,2.28516,-145.107,404
1569937233,361.652,-54.6943,-14.2875,178.506,2.28516,-145.107,404
1569937233,361.652,-54.6943,-14.2875,178.506,2.28516,-145.107,404
1569937233,361.652,-54.6943,-14.2875,178.506,2.28516,-145.107,404
1569937233,361.652,-54.6943,-14.2875,178.506,2.28516,-145.107,404
1569937233,361.652,-54.6943,-14.2875,178.506,2.28516,-145.107,404
1569937233,361.652,-54.6943,-14.2875,178.506,2.28516,-145.107,404
1569937233,361.652,-54.6943,-14.2875,178.506,2.28516,-145.107,404
1569937233,361.652,-54.6943,-14.2875,178.506,2.28516,-145.107,408
1569937233,361.652,-54.6943,-14.2875,178.506,2.28516,-145.107,408
1569937233,361.652,-54.6943,-14.2875,178.506,2.28516,-145.085,408
1569937233,361.652,-54.6943,-14.2875,178.506,2.28516,-145.085,408
1569937233,361.652,-54.6943,-14.2875,178.506,2.28516,-145.085,408
1569937233,361.652,-54.6943,-14.2875,178.506,2.30713,-145.085,408
1569937233,361.652,-54.6943,-14.2875,178.506,2.30713,-145.085,408
1569937233,361.652,-54.6943,-14.2875,178.506,2.30713,-145.085,408
1569937233,361.652,-54.6943,-14.2875,178.506,2.30713,-145.085,408
1569937233,361.652,-54.6943,-14.2875,178.506,2.30713,-145.085,408
1569937233,361.652,-54.6943,-14.2875,178.506,2.30713,-145.085,404
1569937233,361.652,-54.5827,-14.2875,178.506,2.30713,-145.107,404
1569937233,361.652,-54.5827,-14.2875,178.528,2.30713,-145.107,404
1569937233,361.652,-54.6943,-14.2875,178.528,2.30713,-145.107,404
1569937233,361.652,-54.6943,-14.2875,178.528,2.30713,-145.107,404
1569937233,361.652,-54.6943,-14.2875,178.506,2.30713,-145.107,404
1569937233,361.652,-54.6943,-14.2875,178.506,2.30713,-145.107,404
1569937233,361.652,-54.6943,-14.2875,178.506,2.30713,-145.107,404
1569937233,361.652,-54.6943,-14.2875,178.506,2.30713,-145.107,400
1569937233,361.652,-54.6943,-14.2875,178.506,2.30713,-145.107,400
1569937233,361.652,-54.6943,-14.2875,178.506,2.30713,-145.107,400
1569937233,361.652,-54.6943,-14.1759,178.506,2.30713,-145.107,400
1569937233,361.652,-54.6943,-14.1759,178.506,2.30713,-145.107,400
1569937233,361.652,-54.6943,-14.1759,178.506,2.30713,-145.107,400
1569937233,361.652,-54.6943,-14.1759,178.506,2.30713,-145.107,400
1569937233,361.652,-54.6943,-14.1759,178.506,2.3291,-145.107,400
1569937233,361.652,-54.6943,-14.1759,178.506,2.3291,-145.107,400
1569937233,361.652,-54.6943,-14.1759,178.506,2.3291,-145.107,400
1569937233,361.652,-54.6943,-14.1759,178.484,2.3291,-145.107,400
1569937233,361.652,-54.6943,-14.1759,178.484,2.3291,-145.107,400
1569937233,361.652,-54.6943,-14.1759,178.484,2.3291,-145.107,400
1569937233,361.652,-54.6943,-14.1759,178.484,2.30713,-145.107,400
1569937233,361.652,-54.6943,-14.1759,178.484,2.30713,-145.107,400
1569937234,361.652,-54.6943,-14.1759,178.484,2.30713,-145.107,404
1569937234,361.652,-54.6943,-14.1759,178.484,2.30713,-145.107,404
1569937234,361.652,-54.6943,-14.1759,178.484,2.30713,-145.107,404
1569937234,361.652,-54.6943,-14.2875,178.484,2.30713,-145.107,404
1569937234,361.652,-54.6943,-14.2875,178.484,2.30713,-145.107,404
1569937234,361.652,-54.6943,-14.2875,178.484,2.30713,-145.107,404
1569937234,361.652,-54.806,-14.2875,178.484,2.30713,-145.107,404
1569937234,361.652,-54.806,-14.2875,178.484,2.30713,-145.107,408
1569937234,361.652,-54.806,-14.1759,178.484,2.30713,-145.107,408
1569937234,361.652,-54.806,-14.1759,178.484,2.30713,-145.107,408
1569937234,361.652,-54.806,-14.1759,178.462,2.30713,-145.107,408
1569937234,361.652,-54.806,-14.1759,178.462,2.30713,-145.107,408
1569937234,361.652,-54.806,-14.1759,178.484,2.30713,-145.107,408
1569937234,361.652,-54.806,-14.1759,178.462,2.30713,-145.107,408
1569937234,361.652,-54.806,-14.1759,178.462,2.30713,-145.107,408
1569937234,361.541,-54.806,-14.1759,178.462,2.30713,-145.107,412
1569937234,361.541,-54.806,-14.1759,178.462,2.30713,-145.107,412
1569937234,361.652,-54.806,-14.1759,178.462,2.30713,-145.107,412
1569937234,361.652,-54.806,-14.1759,178.462,2.30713,-145.107,412
1569937234,361.652,-54.806,-14.1759,178.462,2.30713,-145.107,412
1569937234,361.652,-54.806,-14.1759,178.462,2.30713,-145.129,412
1569937234,361.652,-54.806,-14.1759,178.462,2.30713,-145.129,412
1569937234,361.652,-54.806,-14.1759,178.462,2.30713,-145.129,412
1569937234,361.652,-54.806,-14.1759,178.462,2.30713,-145.129,412
1569937234,361.652,-54.806,-14.1759,178.462,2.30713,-145.107,412
1569937234,361.652,-54.806,-14.1759,178.462,2.30713,-145.107,412
1569937234,361.652,-54.806,-14.1759,178.462,2.30713,-145.107,412
1569937234,361.652,-54.806,-14.1759,178.462,2.30713,-145.107,412
1569937234,361.652,-54.806,-14.1759,178.462,2.30713,-145.107,412
1569937234,361.652,-54.806,-14.1759,178.462,2.30713,-145.107,412
1569937234,361.652,-54.806,-14.1759,178.462,2.30713,-145.107,416
1569937234,361.652,-54.806,-14.1759,178.462,2.30713,-145.107,416
1569937234,361.652,-54.806,-14.1759,178.462,2.30713,-145.107,416
1569937234,361.652,-54.806,-14.1759,178.484,2.30713,-145.107,416
1569937234,361.652,-54.6943,-14.1759,178.484,2.30713,-145.107,416
1569937234,361.652,-54.6943,-14.2875,178.484,2.30713,-145.129,416
1569937234,361.652,-54.6943,-14.2875,178.484,2.30713,-145.129,416
1569937234,361.652,-54.6943,-14.2875,178.484,2.30713,-145.129,416
1569937234,361.652,-54.6943,-14.2875,178.484,2.30713,-145.129,416
1569937234,361.652,-54.6943,-14.2875,178.484,2.28516,-145.107,416
1569937234,361.652,-54.6943,-14.2875,178.484,2.28516,-145.107,416
1569937234,361.652,-54.6943,-14.2875,178.484,2.28516,-145.107,416
1569937234,361.652,-54.6943,-14.2875,178.484,2.28516,-145.107,416
1569937234,361.652,-54.6943,-14.2875,178.484,2.28516,-145.129,416
1569937234,361.652,-54.6943,-14.2875,178.484,2.28516,-145.129,416
1569937234,361.652,-54.6943,-14.2875,178.484,2.28516,-145.129,416
1569937234,361.652,-54.6943,-14.2875,178.484,2.28516,-145.129,416
1569937234,361.652,-54.6943,-14.2875,178.484,2.28516,-145.129,416
1569937234,361.541,-54.6943,-14.2875,178.484,2.28516,-145.107,416
1569937234,361.541,-54.6943,-14.2875,178.484,2.28516,-145.107,416
1569937234,361.541,-54.6943,-14.2875,178.484,2.28516,-145.107,416
1569937234,361.541,-54.6943,-14.2875,178.484,2.28516,-145.107,416
1569937234,361.541,-54.6943,-14.2875,178.484,2.28516,-145.107,416
1569937234,361.541,-54.6943,-14.2875,178.484,2.28516,-145.107,416
1569937234,361.541,-54.6943,-14.2875,178.506,2.28516,-145.107,416
1569937234,361.541,-54.6943,-14.2875,178.506,2.28516,-145.107,416
1569937234,361.541,-54.6943,-14.2875,178.506,2.30713,-145.107,416
1569937234,361.541,-54.6943,-14.2875,178.506,2.30713,-145.107,416
1569937234,361.541,-54.6943,-14.2875,178.506,2.30713,-145.107,416
1569937234,361.541,-54.6943,-14.2875,178.506,2.30713,-145.107,416
1569937234,361.541,-54.6943,-14.2875,178.506,2.30713,-145.107,416
1569937234,361.541,-54.5827,-14.2875,178.506,2.30713,-145.107,416
1569937234,361.541,-54.5827,-14.2875,178.506,2.30713,-145.107,416
1569937234,361.541,-54.5827,-14.2875,178.506,2.30713,-145.107,416
1569937234,361.541,-54.5827,-14.2875,178.528,2.30713,-145.107,420
1569937234,361.541,-54.5827,-14.2875,178.528,2.28516,-145.107,420
1569937234,361.541,-54.5827,-14.2875,178.528,2.28516,-145.107,420
1569937234,361.541,-54.5827,-14.2875,178.528,2.28516,-145.107,420
1569937234,361.541,-54.5827,-14.2875,178.528,2.28516,-145.107,420
1569937234,361.541,-54.5827,-14.2875,178.528,2.28516,-145.107,416
1569937234,361.541,-54.5827,-14.2875,178.506,2.28516,-145.107,416
1569937234,361.652,-54.5827,-14.2875,178.506,2.28516,-145.107,416
1569937234,361.652,-54.5827,-14.2875,178.506,2.28516,-145.107,416
1569937234,361.652,-54.5827,-14.2875,178.506,2.28516,-145.107,416
1569937234,361.652,-54.5827,-14.2875,178.506,2.28516,-145.107,416
1569937234,361.652,-54.5827,-14.2875,178.506,2.28516,-145.107,416
1569937234,361.652,-54.5827,-14.2875,178.528,2.28516,-145.107,416
1569937234,361.652,-54.5827,-14.2875,178.528,2.28516,-145.107,416
1569937234,361.652,-54.5827,-14.2875,178.528,2.28516,-145.107,416
1569937234,361.652,-54.5827,-14.2875,178.528,2.28516,-145.107,416
1569937234,361.652,-54.5827,-14.2875,178.528,2.28516,-145.107,412
1569937234,361.652,-54.5827,-14.2875,178.528,2.28516,-145.107,412
1569937234,361.652,-54.5827,-14.2875,178.528,2.28516,-145.107,412
1569937234,361.652,-54.5827,-14.2875,178.528,2.28516,-145.107,412
1569937234,361.652,-54.5827,-14.2875,178.528,2.28516,-145.107,412
1569937234,361.652,-54.5827,-14.2875,178.528,2.28516,-145.107,408
1569937234,361.652,-54.5827,-14.2875,178.528,2.28516,-145.107,408
1569937234,361.652,-54.5827,-14.2875,178.528,2.28516,-145.107,408
1569937234,361.652,-54.5827,-14.2875,178.528,2.28516,-145.107,408
1569937234,361.652,-54.5827,-14.2875,178.528,2.28516,-145.107,408
1569937234,361.652,-54.5827,-14.2875,178.528,2.28516,-145.107,408
1569937234,361.652,-54.6943,-14.2875,178.506,2.28516,-145.107,408
1569937234,361.652,-54.6943,-14.2875,178.506,2.28516,-145.107,404
1569937234,361.652,-54.6943,-14.2875,178.506,2.28516,-145.107,404
1569937234,361.652,-54.6943,-14.2875,178.506,2.28516,-145.107,404
1569937234,361.652,-54.6943,-14.2875,178.506,2.28516,-145.085,404
1569937234,361.652,-54.6943,-14.2875,178.506,2.28516,-145.085,404
1569937234,361.652,-54.6943,-14.2875,178.506,2.28516,-145.085,404
1569937234,361.652,-54.6943,-14.2875,178.506,2.28516,-145.085,404
1569937234,361.652,-54.6943,-14.2875,178.506,2.28516,-145.085,404
1569937235,361.652,-54.6943,-14.2875,178.506,2.28516,-145.085,404
1569937235,361.652,-54.6943,-14.2875,178.506,2.28516,-145.085,404
1569937235,361.652,-54.6943,-14.2875,178.506,2.28516,-145.085,408
1569937235,361.652,-54.6943,-14.2875,178.506,2.28516,-145.085,408
1569937235,361.652,-54.6943,-14.2875,178.506,2.28516,-145.085,408
1569937235,361.652,-54.6943,-14.2875,178.506,2.28516,-145.085,408
1569937235,361.652,-54.6943,-14.2875,178.506,2.28516,-145.085,408
1569937235,361.652,-54.6943,-14.2875,178.506,2.28516,-145.085,408
1569937235,361.652,-54.6943,-14.2875,178.506,2.28516,-145.085,412
1569937235,361.652,-54.6943,-14.2875,178.484,2.28516,-145.085,412
1569937235,361.652,-54.6943,-14.2875,178.484,2.30713,-145.085,412
1569937235,361.652,-54.6943,-14.2875,178.484,2.30713,-145.085,412
1569937235,361.652,-54.6943,-14.2875,178.484,2.30713,-145.085,412
1569937235,361.652,-54.6943,-14.2875,178.484,2.30713,-145.085,412
1569937235,361.652,-54.6943,-14.2875,178.484,2.30713,-145.085,416
1569937235,361.652,-54.6943,-14.2875,178.484,2.30713,-145.085,416
1569937235,361.652,-54.6943,-14.2875,178.484,2.30713,-145.085,416
1569937235,361.652,-54.6943,-14.2875,178.484,2.30713,-145.085,416
1569937235,361.652,-54.6943,-14.2875,178.484,2.30713,-145.085,416
1569937235,361.652,-54.6943,-14.2875,178.484,2.30713,-145.085,416
1569937235,361.652,-54.6943,-14.2875,178.484,2.30713,-145.085,416
1569937235,361.652,-54.6943,-14.2875,178.484,2.30713,-145.085,416
1569937235,361.652,-54.6943,-14.2875,178.484,2.30713,-145.085,416
1569937235,361.652,-54.6943,-14.2875,178.484,2.30713,-145.085,416
1569937235,361.652,-54.6943,-14.2875,178.484,2.30713,-145.085,416
1569937235,361.652,-54.6943,-14.2875,178.484,2.30713,-145.085,412
1569937235,361.652,-54.6943,-14.2875,178.484,2.30713,-145.085,412
1569937235,361.652,-54.6943,-14.2875,178.484,2.30713,-145.085,412
1569937235,361.652,-54.6943,-14.2875,178.484,2.28516,-145.085,412
1569937235,361.652,-54.6943,-14.2875,178.484,2.28516,-145.085,412
1569937235,361.652,-54.6943,-14.2875,178.484,2.28516,-145.085,412
1569937235,361.652,-54.6943,-14.2875,178.484,2.28516,-145.085,408
1569937235,361.652,-54.6943,-14.2875,178.484,2.28516,-145.085,408
1569937235,361.652,-54.6943,-14.2875,178.484,2.28516,-145.085,408
1569937235,361.652,-54.6943,-14.2875,178.484,2.28516,-145.085,408
1569937235,361.652,-54.6943,-14.2875,178.484,2.28516,-145.085,408
1569937235,361.652,-54.6943,-14.2875,178.484,2.28516,-145.085,408
1569937235,361.652,-54.6943,-14.2875,178.484,2.28516,-145.085,408
1569937235,361.652,-54.6943,-14.2875,178.484,2.28516,-145.107,408
1569937235,361.652,-54.6943,-14.2875,178.484,2.28516,-145.107,408
1569937235,361.652,-54.6943,-14.2875,178.484,2.28516,-145.107,408
1569937235,361.652,-54.6943,-14.2875,178.484,2.28516,-145.107,408
1569937235,361.652,-54.6943,-14.2875,178.484,2.28516,-145.107,408
1569937235,361.652,-54.6943,-14.2875,178.484,2.28516,-145.107,408
1569937235,361.652,-54.6943,-14.2875,178.484,2.28516,-145.107,408
1569937235,361.652,-54.6943,-14.2875,178.484,2.28516,-145.107,408
1569937235,361.652,-54.6943,-14.2875,178.484,2.28516,-145.107,404
1569937235,361.652,-54.6943,-14.2875,178.484,2.28516,-145.107,404
1569937235,361.652,-54.6943,-14.2875,178.484,2.30713,-145.107,404
1569937235,361.652,-54.6943,-14.2875,178.484,2.28516,-145.107,404
1569937235,361.652,-54.6943,-14.2875,178.484,2.28516,-145.107,404
1569937235,361.652,-54.6943,-14.2875,178.484,2.28516,-145.107,404
1569937235,361.652,-54.6943,-14.2875,178.484,2.28516,-145.107,404
1569937235,361.652,-54.6943,-14.2875,178.484,2.30713,-145.107,404
1569937235,361.652,-54.6943,-14.2875,178.484,2.30713,-145.107,404
1569937235,361.652,-54.6943,-14.2875,178.484,2.30713,-145.107,404
1569937235,361.652,-54.6943,-14.2875,178.506,2.30713,-145.107,404
1569937235,361.652,-54.6943,-14.2875,178.506,2.30713,-145.107,404
1569937235,361.652,-54.6943,-14.2875,178.506,2.30713,-145.107,404
1569937235,361.652,-54.6943,-14.1759,178.506,2.30713,-145.107,404
1569937235,361.652,-54.6943,-14.1759,178.484,2.30713,-145.107,404
1569937235,361.652,-54.6943,-14.1759,178.484,2.30713,-145.107,404
1569937235,361.652,-54.6943,-14.1759,178.484,2.30713,-145.107,404
1569937235,361.652,-54.6943,-14.1759,178.484,2.30713,-145.107,404
1569937235,361.652,-54.6943,-14.1759,178.484,2.30713,-145.107,404
1569937235,361.652,-54.6943,-14.1759,178.484,2.30713,-145.107,404
1569937235,361.652,-54.6943,-14.1759,178.484,2.30713,-145.107,400
1569937235,361.652,-54.6943,-14.1759,178.484,2.30713,-145.107,400
1569937235,361.652,-54.6943,-14.1759,178.484,2.30713,-145.107,400
1569937235,361.541,-54.6943,-14.1759,178.484,2.30713,-145.107,400
1569937235,361.541,-54.6943,-14.1759,178.484,2.30713,-145.107,400
1569937235,361.541,-54.6943,-14.1759,178.484,2.30713,-145.107,400
1569937235,361.541,-54.6943,-14.1759,178.484,2.30713,-145.107,400
1569937235,361.541,-54.6943,-14.1759,178.484,2.30713,-145.107,400
1569937235,361.541,-54.6943,-14.1759,178.484,2.30713,-145.107,400
1569937235,361.541,-54.6943,-14.1759,178.484,2.30713,-145.107,400
1569937235,361.541,-54.6943,-14.1759,178.484,2.30713,-145.107,400
1569937235,361.541,-54.6943,-14.1759,178.484,2.30713,-145.107,400
1569937235,361.541,-54.6943,-14.1759,178.484,2.30713,-145.107,400
1569937235,361.541,-54.6943,-14.1759,178.484,2.30713,-145.107,400
1569937235,361.541,-54.6943,-14.1759,178.506,2.3291,-145.107,400
1569937235,361.541,-54.6943,-14.1759,178.506,2.3291,-145.107,404
1569937235,361.541,-54.6943,-14.1759,178.484,2.3291,-145.107,404
1569937235,361.541,-54.6943,-14.1759,178.484,2.3291,-145.107,404
1569937235,361.652,-54.6943,-14.1759,178.484,2.3291,-145.107,404
1569937235,361.652,-54.6943,-14.1759,178.484,2.3291,-145.107,404
1569937235,361.652,-54.6943,-14.1759,178.484,2.3291,-145.107,404
1569937235,361.652,-54.6943,-14.1759,178.484,2.3291,-145.107,404
1569937235,361.652,-54.806,-14.1759,178.484,2.3291,-145.107,404
1569937235,361.652,-54.806,-14.1759,178.484,2.3291,-145.107,404
1569937235,361.652,-54.806,-14.1759,178.484,2.3291,-145.107,404
1569937235,361.652,-54.806,-14.1759,178.484,2.3291,-145.107,404
1569937235,361.652,-54.806,-14.1759,178.484,2.3291,-145.107,404
1569937235,361.652,-54.806,-14.1759,178.484,2.30713,-145.107,404
1569937235,361.652,-54.806,-14.1759,178.484,2.30713,-145.107,404
1569937235,361.652,-54.6943,-14.1759,178.484,2.30713,-145.107,400
1569937235,361.652,-54.6943,-14.1759,178.484,2.30713,-145.107,400
1569937235,361.652,-54.6943,-14.1759,178.484,2.30713,-145.107,400
1569937235,361.652,-54.6943,-14.1759,178.484,2.30713,-145.107,400
1569937235,361.652,-54.6943,-14.1759,178.484,2.30713,-145.107,400
1569937236,361.652,-54.6943,-14.1759,178.506,2.30713,-145.085,400
1569937236,361.652,-54.6943,-14.1759,178.506,2.30713,-145.085,400
1569937236,361.652,-54.6943,-14.1759,178.506,2.30713,-145.085,400
1569937236,361.652,-54.6943,-14.1759,178.506,2.30713,-145.085,400
1569937236,361.652,-54.6943,-14.1759,178.506,2.30713,-145.085,400
1569937236,361.652,-54.6943,-14.1759,178.506,2.30713,-145.085,400
1569937236,361.652,-54.6943,-14.1759,178.506,2.30713,-145.085,400
1569937236,361.652,-54.6943,-14.1759,178.506,2.30713,-145.085,400
1569937236,361.652,-54.6943,-14.1759,178.506,2.30713,-145.085,400
1569937236,361.652,-54.6943,-14.1759,178.506,2.30713,-145.085,400
1569937236,361.652,-54.6943,-14.1759,178.484,2.30713,-145.085,400
1569937236,361.652,-54.6943,-14.2875,178.484,2.30713,-145.085,400
1569937236,361.652,-54.806,-14.2875,178.484,2.30713,-145.085,400
1569937236,361.652,-54.806,-14.1759,178.484,2.30713,-145.085,400
1569937236,361.652,-54.806,-14.1759,178.484,2.30713,-145.085,400
1569937236,361.652,-54.806,-14.1759,178.484,2.30713,-145.085,400
1569937236,361.652,-54.806,-14.1759,178.484,2.30713,-145.085,400
1569937236,361.652,-54.806,-14.1759,178.484,2.30713,-145.085,400
1569937236,361.652,-54.806,-14.1759,178.484,2.30713,-145.085,400
1569937236,361.652,-54.806,-14.1759,178.484,2.30713,-145.085,400
1569937236,361.652,-54.806,-14.1759,178.484,2.3291,-145.085,400
1569937236,361.652,-54.806,-14.1759,178.484,2.3291,-145.085,400
1569937236,361.652,-54.806,-14.1759,178.484,2.3291,-145.085,400
1569937236,361.652,-54.6943,-14.1759,178.484,2.3291,-145.085,396
1569937236,361.652,-54.6943,-14.1759,178.484,2.3291,-145.085,396
1569937236,361.652,-54.6943,-14.1759,178.484,2.3291,-145.085,396
1569937236,361.652,-54.6943,-14.1759,178.484,2.3291,-145.085,396
1569937236,361.652,-54.6943,-14.1759,178.484,2.30713,-145.085,396
1569937236,361.652,-54.806,-14.1759,178.484,2.30713,-145.085,396
1569937236,361.652,-54.806,-14.1759,178.484,2.30713,-145.085,396
1569937236,361.652,-54.806,-14.2875,178.484,2.30713,-145.085,396
1569937236,361.652,-54.806,-14.2875,178.484,2.30713,-145.085,396
1569937236,361.652,-54.806,-14.2875,178.484,2.30713,-145.085,396
1569937236,361.652,-54.806,-14.2875,178.462,2.30713,-145.085,396
1569937236,361.652,-54.806,-14.2875,178.462,2.30713,-145.085,396
1569937236,361.652,-54.806,-14.2875,178.462,2.30713,-145.085,396
1569937236,361.652,-54.806,-14.2875,178.462,2.30713,-145.085,396
1569937236,361.652,-54.806,-14.2875,178.462,2.30713,-145.085,392
1569937236,361.652,-54.806,-14.2875,178.462,2.30713,-145.085,392
1569937236,361.652,-54.806,-14.1759,178.462,2.30713,-145.085,392
1569937236,361.652,-54.806,-14.1759,178.462,2.30713,-145.085,392
1569937236,361.652,-54.806,-14.1759,178.462,2.30713,-145.085,392
1569937236,361.652,-54.806,-14.2875,178.484,2.30713,-145.085,392
1569937236,361.652,-54.806,-14.2875,178.484,2.30713,-145.085,392
1569937236,361.652,-54.6943,-14.2875,178.484,2.30713,-145.085,392
1569937236,361.652,-54.6943,-14.2875,178.484,2.30713,-145.085,392
1569937236,361.652,-54.6943,-14.2875,178.484,2.30713,-145.085,396
1569937236,361.652,-54.6943,-14.2875,178.484,2.28516,-145.085,396
1569937236,361.652,-54.6943,-14.2875,178.484,2.28516,-145.085,396
1569937236,361.652,-54.6943,-14.2875,178.484,2.28516,-145.085,396
1569937236,361.652,-54.6943,-14.2875,178.484,2.28516,-145.085,396
1569937236,361.652,-54.6943,-14.2875,178.484,2.28516,-145.107,396
1569937236,361.652,-54.6943,-14.2875,178.506,2.28516,-145.107,396
1569937236,361.652,-54.6943,-14.2875,178.506,2.28516,-145.107,396
1569937236,361.652,-54.6943,-14.2875,178.506,2.28516,-145.107,396
1569937236,361.652,-54.6943,-14.2875,178.506,2.28516,-145.107,396
1569937236,361.652,-54.6943,-14.2875,178.506,2.28516,-145.107,396
1569937236,361.652,-54.6943,-14.2875,178.506,2.28516,-145.107,396
1569937236,361.652,-54.6943,-14.2875,178.506,2.28516,-145.107,396
1569937236,361.652,-54.6943,-14.2875,178.506,2.28516,-145.107,396
1569937236,361.652,-54.6943,-14.2875,178.506,2.28516,-145.107,396
1569937236,361.652,-54.6943,-14.2875,178.506,2.28516,-145.107,396
1569937236,361.652,-54.6943,-14.2875,178.506,2.28516,-145.107,400
1569937236,361.652,-54.6943,-14.2875,178.506,2.28516,-145.107,400
1569937236,361.652,-54.6943,-14.2875,178.506,2.28516,-145.107,400
1569937236,361.652,-54.6943,-14.2875,178.506,2.28516,-145.107,400
1569937236,361.652,-54.6943,-14.2875,178.506,2.30713,-145.107,400
1569937236,361.652,-54.6943,-14.2875,178.506,2.30713,-145.107,400
1569937236,361.652,-54.6943,-14.2875,178.506,2.30713,-145.107,400
1569937236,361.652,-54.6943,-14.2875,178.506,2.30713,-145.107,400
1569937236,361.652,-54.5827,-14.2875,178.506,2.30713,-145.107,400
1569937236,361.652,-54.5827,-14.2875,178.506,2.30713,-145.107,400
1569937236,361.652,-54.5827,-14.2875,178.506,2.30713,-145.107,400
1569937236,361.652,-54.5827,-14.2875,178.506,2.30713,-145.107,404
1569937236,361.652,-54.5827,-14.2875,178.506,2.30713,-145.107,404
1569937236,361.652,-54.5827,-14.1759,178.506,2.30713,-145.107,404
1569937236,361.652,-54.5827,-14.1759,178.506,2.30713,-145.107,404
1569937236,361.652,-54.5827,-14.1759,178.506,2.30713,-145.107,404
1569937236,361.652,-54.5827,-14.1759,178.506,2.30713,-145.107,404
1569937236,361.652,-54.5827,-14.1759,178.506,2.30713,-145.107,404
1569937236,361.652,-54.5827,-14.1759,178.506,2.30713,-145.107,408
1569937236,361.652,-54.5827,-14.1759,178.506,2.30713,-145.107,408
1569937236,361.652,-54.5827,-14.1759,178.506,2.30713,-145.107,408
1569937236,361.652,-54.5827,-14.1759,178.506,2.3291,-145.107,408
1569937236,361.652,-54.5827,-14.1759,178.506,2.30713,-145.107,408
1569937236,361.652,-54.5827,-14.1759,178.506,2.30713,-145.107,412
1569937236,361.652,-54.6943,-14.1759,178.506,2.30713,-145.107,412
1569937236,361.652,-54.6943,-14.1759,178.506,2.30713,-145.129,412
1569937236,361.652,-54.6943,-14.1759,178.506,2.30713,-145.129,412
1569937236,361.652,-54.6943,-14.1759,178.506,2.30713,-145.129,412
1569937236,361.652,-54.6943,-14.1759,178.506,2.30713,-145.129,412
1569937236,361.652,-54.6943,-14.1759,178.506,2.30713,-145.129,412
1569937236,361.652,-54.6943,-14.1759,178.506,2.30713,-145.129,412
1569937236,361.652,-54.6943,-14.1759,178.506,2.30713,-145.129,412
1569937236,361.652,-54.6943,-14.1759,178.506,2.30713,-145.129,412
1569937236,361.541,-54.6943,-14.1759,178.506,2.30713,-145.107,412
1569937236,361.541,-54.6943,-14.1759,178.506,2.30713,-145.107,412
1569937236,361.541,-54.6943,-14.1759,178.506,2.30713,-145.107,412
1569937236,361.652,-54.6943,-14.1759,178.506,2.30713,-145.107,412
1569937236,361.652,-54.6943,-14.1759,178.506,2.30713,-145.107,412
1569937237,361.652,-54.6943,-14.1759,178.506,2.30713,-145.107,412
1569937237,361.652,-54.6943,-14.1759,178.506,2.30713,-145.107,412
1569937237,361.652,-54.6943,-14.1759,178.506,2.30713,-145.107,416
1569937237,361.541,-54.6943,-14.1759,178.506,2.30713,-145.107,416
1569937237,361.541,-54.5827,-14.1759,178.506,2.30713,-145.107,416
1569937237,361.541,-54.5827,-14.1759,178.506,2.3291,-145.107,416
1569937237,361.541,-54.5827,-14.1759,178.506,2.3291,-145.085,416
1569937237,361.541,-54.5827,-14.1759,178.528,2.3291,-145.085,416
1569937237,361.541,-54.5827,-14.1759,178.528,2.3291,-145.085,416
1569937237,361.541,-54.5827,-14.1759,178.528,2.3291,-145.085,416
1569937237,361.541,-54.5827,-14.1759,178.528,2.3291,-145.085,420
1569937237,361.541,-54.5827,-14.0643,178.528,2.3291,-145.085,420
1569937237,361.541,-54.5827,-14.0643,178.528,2.3291,-145.085,420
1569937237,361.541,-54.5827,-14.0643,178.528,2.3291,-145.085,420
1569937237,361.541,-54.5827,-14.0643,178.528,2.3291,-145.085,420
1569937237,361.652,-54.5827,-14.0643,178.528,2.3291,-145.085,416
1569937237,361.652,-54.5827,-14.0643,178.528,2.3291,-145.085,416
1569937237,361.652,-54.5827,-14.0643,178.528,2.3291,-145.085,416
1569937237,361.652,-54.5827,-14.0643,178.528,2.3291,-145.085,416
1569937237,361.652,-54.5827,-14.0643,178.528,2.3291,-145.085,412
1569937237,361.652,-54.5827,-14.1759,178.528,2.3291,-145.085,412
1569937237,361.652,-54.5827,-14.1759,178.528,2.3291,-145.085,412
1569937237,361.652,-54.5827,-14.1759,178.528,2.30713,-145.107,412
1569937237,361.652,-54.5827,-14.1759,178.528,2.30713,-145.107,408
1569937237,361.652,-54.5827,-14.1759,178.528,2.30713,-145.107,408
1569937237,361.652,-54.6943,-14.1759,178.506,2.30713,-145.107,408
1569937237,361.652,-54.6943,-14.1759,178.506,2.30713,-145.107,408
1569937237,361.652,-54.6943,-14.2875,178.506,2.28516,-145.107,404
1569937237,361.652,-54.6943,-14.2875,178.506,2.28516,-145.107,404
1569937237,361.652,-54.6943,-14.2875,178.506,2.28516,-145.107,404
1569937237,361.652,-54.6943,-14.2875,178.506,2.28516,-145.107,404
1569937237,361.652,-54.6943,-14.2875,178.506,2.28516,-145.107,404
1569937237,361.652,-54.6943,-14.2875,178.506,2.26318,-145.107,400
1569937237,361.652,-54.6943,-14.2875,178.506,2.26318,-145.107,400
1569937237,361.652,-54.6943,-14.2875,178.506,2.26318,-145.107,400
1569937237,361.652,-54.6943,-14.2875,178.506,2.26318,-145.107,400
1569937237,361.652,-54.5827,-14.3991,178.506,2.26318,-145.107,400
1569937237,361.652,-54.5827,-14.3991,178.506,2.26318,-145.107,400
1569937237,361.652,-54.5827,-14.3991,178.506,2.26318,-145.107,400
1569937237,361.652,-54.5827,-14.3991,178.506,2.26318,-145.107,400
1569937237,361.652,-54.5827,-14.3991,178.506,2.26318,-145.107,400
1569937237,361.652,-54.5827,-14.3991,178.506,2.26318,-145.107,400
1569937237,361.652,-54.5827,-14.3991,178.506,2.26318,-145.107,400
1569937237,361.652,-54.6943,-14.3991,178.506,2.26318,-145.107,400
1569937237,361.652,-54.6943,-14.3991,178.506,2.26318,-145.107,400
1569937237,361.652,-54.6943,-14.2875,178.506,2.26318,-145.107,400
1569937237,361.652,-54.6943,-14.2875,178.506,2.26318,-145.107,396
1569937237,361.652,-54.6943,-14.2875,178.506,2.26318,-145.107,396
1569937237,361.652,-54.6943,-14.2875,178.506,2.28516,-145.107,396
1569937237,361.652,-54.6943,-14.2875,178.506,2.28516,-145.107,396
1569937237,361.652,-54.6943,-14.2875,178.506,2.28516,-145.107,396
1569937237,361.652,-54.6943,-14.2875,178.506,2.28516,-145.107,400
1569937237,361.652,-54.6943,-14.2875,178.506,2.28516,-145.107,400
1569937237,361.652,-54.6943,-14.2875,178.506,2.28516,-145.107,400
1569937237,361.652,-54.6943,-14.2875,178.506,2.28516,-145.107,400
1569937237,361.652,-54.6943,-14.2875,178.506,2.28516,-145.107,400
1569937237,361.652,-54.6943,-14.2875,178.506,2.28516,-145.107,400
1569937237,361.652,-54.6943,-14.2875,178.506,2.28516,-145.107,400
1569937237,361.652,-54.6943,-14.2875,178.506,2.28516,-145.107,400
1569937237,361.652,-54.6943,-14.2875,178.506,2.28516,-145.107,400
1569937237,361.652,-54.6943,-14.1759,178.506,2.28516,-145.107,400
1569937237,361.652,-54.6943,-14.1759,178.506,2.28516,-145.107,400
1569937237,361.652,-54.6943,-14.1759,178.506,2.30713,-145.107,400
1569937237,361.652,-54.6943,-14.1759,178.506,2.30713,-145.107,400
1569937237,361.652,-54.6943,-14.1759,178.506,2.30713,-145.107,400
1569937237,361.652,-54.6943,-14.1759,178.506,2.30713,-145.107,400
1569937237,361.652,-54.6943,-14.1759,178.506,2.30713,-145.107,400
1569937237,361.652,-54.6943,-14.1759,178.506,2.30713,-145.107,400
1569937237,361.652,-54.6943,-14.1759,178.506,2.30713,-145.107,400
1569937237,361.764,-54.6943,-14.1759,178.506,2.30713,-145.107,400
1569937237,361.764,-54.6943,-14.1759,178.506,2.3291,-145.107,400
1569937237,361.764,-54.6943,-14.1759,178.506,2.3291,-145.107,400
1569937237,361.764,-54.6943,-14.1759,178.506,2.3291,-145.107,400
1569937237,361.764,-54.6943,-14.1759,178.506,2.3291,-145.107,400
1569937237,361.764,-54.6943,-14.1759,178.484,2.3291,-145.107,400
1569937237,361.764,-54.6943,-14.1759,178.484,2.3291,-145.107,400
1569937237,361.764,-54.6943,-14.1759,178.484,2.3291,-145.107,400
1569937237,361.652,-54.6943,-14.1759,178.484,2.3291,-145.107,396
1569937237,361.652,-54.6943,-14.1759,178.484,2.3291,-145.107,396
1569937237,361.652,-54.6943,-14.1759,178.484,2.3291,-145.107,396
1569937237,361.652,-54.6943,-14.1759,178.484,2.3291,-145.107,396
1569937237,361.652,-54.6943,-14.1759,178.484,2.30713,-145.107,396
1569937237,361.652,-54.6943,-14.1759,178.484,2.30713,-145.107,396
1569937237,361.652,-54.6943,-14.1759,178.484,2.30713,-145.107,396
1569937237,361.652,-54.6943,-14.1759,178.506,2.30713,-145.107,396
1569937237,361.652,-54.6943,-14.1759,178.506,2.30713,-145.107,396
1569937237,361.652,-54.6943,-14.1759,178.506,2.30713,-145.107,396
1569937237,361.652,-54.6943,-14.1759,178.506,2.30713,-145.107,396
1569937237,361.652,-54.6943,-14.1759,178.506,2.30713,-145.107,396
1569937237,361.652,-54.6943,-14.1759,178.506,2.30713,-145.107,396
1569937237,361.652,-54.6943,-14.1759,178.506,2.30713,-145.107,396
1569937237,361.652,-54.6943,-14.1759,178.506,2.30713,-145.107,396
1569937237,361.652,-54.6943,-14.1759,178.506,2.30713,-145.107,396
1569937237,361.652,-54.6943,-14.1759,178.506,2.30713,-145.107,396
1569937237,361.652,-54.6943,-14.1759,178.506,2.30713,-145.107,400
1569937237,361.652,-54.6943,-14.1759,178.506,2.30713,-145.107,400
1569937237,361.652,-54.6943,-14.2875,178.506,2.30713,-145.107,400
1569937237,361.652,-54.6943,-14.2875,178.506,2.30713,-145.107,400
1569937237,361.652,-54.6943,-14.2875,178.506,2.28516,-145.107,396
1569937237,361.652,-54.6943,-14.2875,178.506,2.28516,-145.107,396
1569937238,361.652,-54.6943,-14.2875,178.506,2.28516,-145.107,396
1569937238,361.652,-54.6943,-14.2875,178.506,2.28516,-145.107,396
1569937238,361.652,-54.6943,-14.2875,178.506,2.28516,-145.107,396
1569937238,361.652,-54.6943,-14.2875,178.506,2.28516,-145.107,396
1569937238,361.652,-54.6943,-14.2875,178.506,2.28516,-145.107,396
1569937238,361.652,-54.6943,-14.2875,178.506,2.28516,-145.107,396
1569937238,361.652,-54.6943,-14.2875,178.506,2.28516,-145.107,396
1569937238,361.652,-54.6943,-14.2875,178.506,2.28516,-145.107,396
1569937238,361.652,-54.6943,-14.2875,178.506,2.28516,-145.107,396
1569937238,361.652,-54.6943,-14.2875,178.506,2.28516,-145.107,396
1569937238,361.652,-54.6943,-14.2875,178.506,2.28516,-145.107,396
1569937238,361.652,-54.6943,-14.2875,178.506,2.28516,-145.107,396
1569937238,361.652,-54.6943,-14.2875,178.506,2.28516,-145.107,396
1569937238,361.652,-54.6943,-14.2875,178.506,2.28516,-145.107,400
1569937238,361.652,-54.6943,-14.2875,178.506,2.26318,-145.107,400
1569937238,361.652,-54.6943,-14.2875,178.506,2.26318,-145.107,400
1569937238,361.652,-54.6943,-14.2875,178.506,2.26318,-145.107,400
1569937238,361.652,-54.6943,-14.2875,178.506,2.26318,-145.107,400
1569937238,361.652,-54.6943,-14.2875,178.506,2.26318,-145.107,400
1569937238,361.652,-54.6943,-14.2875,178.506,2.28516,-145.107,400
1569937238,361.652,-54.6943,-14.2875,178.506,2.28516,-145.107,400
1569937238,361.652,-54.6943,-14.2875,178.506,2.28516,-145.085,400
1569937238,361.652,-54.6943,-14.2875,178.506,2.28516,-145.085,400
1569937238,361.652,-54.6943,-14.2875,178.506,2.28516,-145.085,400
1569937238,361.652,-54.6943,-14.2875,178.506,2.28516,-145.085,400
1569937238,361.652,-54.6943,-14.2875,178.506,2.28516,-145.085,400
1569937238,361.652,-54.6943,-14.2875,178.506,2.28516,-145.085,400
1569937238,361.541,-54.6943,-14.2875,178.506,2.28516,-145.085,400
1569937238,361.541,-54.6943,-14.2875,178.506,2.28516,-145.085,400
1569937238,361.541,-54.6943,-14.2875,178.484,2.28516,-145.085,400
1569937238,361.541,-54.6943,-14.2875,178.484,2.28516,-145.085,400
1569937238,361.541,-54.6943,-14.2875,178.484,2.28516,-145.085,400
1569937238,361.541,-54.6943,-14.2875,178.484,2.28516,-145.085,400
1569937238,361.541,-54.6943,-14.2875,178.484,2.28516,-145.085,396
1569937238,361.541,-54.6943,-14.2875,178.484,2.28516,-145.085,396
1569937238,361.541,-54.6943,-14.2875,178.484,2.28516,-145.085,396
1569937238,361.541,-54.6943,-14.2875,178.484,2.28516,-145.085,396
1569937241,346.472,-37.7279,-14.3991,178.572,2.41699,-145.393,388
1569937241,346.472,-37.7279,-14.3991,178.572,2.41699,-145.393,388
1569937241,346.472,-37.7279,-14.3991,178.572,2.41699,-145.393,388
1569937241,346.472,-37.7279,-14.3991,178.572,2.39502,-145.393,388
1569937241,346.472,-37.7279,-14.3991,178.572,2.39502,-145.393,388
1569937241,346.472,-37.7279,-14.3991,178.572,2.39502,-145.393,388
1569937241,346.472,-37.7279,-14.3991,178.572,2.39502,-145.393,388
1569937241,346.472,-37.7279,-14.3991,178.572,2.39502,-145.393,388
1569937241,346.472,-37.7279,-14.5107,178.572,2.39502,-145.393,388
1569937241,346.472,-37.7279,-14.5107,178.572,2.39502,-145.393,388
1569937241,346.472,-37.7279,-14.5107,178.572,2.39502,-145.393,388
1569937241,346.472,-37.7279,-14.5107,178.572,2.39502,-145.393,388
1569937242,346.472,-37.7279,-14.5107,178.572,2.39502,-145.393,388
1569937242,346.472,-37.7279,-14.5107,178.572,2.39502,-145.393,388
1569937242,346.472,-37.7279,-14.5107,178.572,2.39502,-145.393,388
1569937242,346.36,-37.7279,-14.5107,178.572,2.39502,-145.393,388
1569937242,346.36,-37.7279,-14.5107,178.572,2.39502,-145.393,388
1569937242,346.36,-37.7279,-14.3991,178.572,2.39502,-145.393,388
1569937242,346.36,-37.7279,-14.3991,178.572,2.39502,-145.393,388
1569937242,346.36,-37.7279,-14.3991,178.572,2.39502,-145.393,388
1569937242,346.36,-37.7279,-14.3991,178.572,2.39502,-145.393,388
1569937242,346.36,-37.7279,-14.3991,178.572,2.39502,-145.393,388
1569937242,346.36,-37.7279,-14.3991,178.572,2.39502,-145.393,388
1569937242,346.36,-37.7279,-14.3991,178.572,2.39502,-145.393,388
1569937242,346.36,-37.7279,-14.3991,178.572,2.39502,-145.393,388
1569937242,346.36,-37.7279,-14.3991,178.572,2.39502,-145.393,388
1569937242,346.36,-37.7279,-14.3991,178.572,2.39502,-145.393,388
1569937242,346.36,-37.7279,-14.3991,178.572,2.39502,-145.393,388
1569937242,346.36,-37.7279,-14.3991,178.572,2.39502,-145.393,388
1569937242,346.36,-37.7279,-14.3991,178.572,2.39502,-145.393,392
1569937242,346.36,-37.7279,-14.3991,178.572,2.39502,-145.393,392
1569937242,346.36,-37.7279,-14.3991,178.572,2.39502,-145.393,392
1569937242,346.36,-37.7279,-14.3991,178.572,2.39502,-145.393,392
1569937242,346.36,-37.7279,-14.3991,178.572,2.39502,-145.393,392
1569937242,346.36,-37.7279,-14.3991,178.572,2.39502,-145.393,392
1569937242,346.36,-37.7279,-14.3991,178.572,2.39502,-145.393,392
1569937242,346.36,-37.7279,-14.3991,178.572,2.41699,-145.393,392
1569937242,346.36,-37.7279,-14.3991,178.572,2.41699,-145.393,392
1569937242,346.36,-37.7279,-14.3991,178.572,2.41699,-145.393,392
1569937242,346.36,-37.7279,-14.3991,178.572,2.41699,-145.393,392
1569937242,346.36,-37.7279,-14.3991,178.572,2.41699,-145.393,392
1569937242,346.36,-37.7279,-14.3991,178.572,2.41699,-145.393,392
1569937242,346.36,-37.7279,-14.3991,178.572,2.41699,-145.393,392
1569937242,346.36,-37.7279,-14.3991,178.572,2.41699,-145.393,392
1569937242,346.36,-37.7279,-14.3991,178.572,2.41699,-145.393,392
1569937242,346.36,-37.7279,-14.3991,178.572,2.41699,-145.393,392
1569937242,346.36,-37.7279,-14.3991,178.572,2.41699,-145.393,388
1569937242,346.36,-37.7279,-14.3991,178.572,2.41699,-145.393,388
1569937242,346.36,-37.7279,-14.3991,178.572,2.41699,-145.393,388
1569937242,346.36,-37.7279,-14.3991,178.572,2.41699,-145.393,388
1569937242,346.36,-37.7279,-14.3991,178.572,2.41699,-145.393,388
1569937242,346.36,-37.7279,-14.3991,178.572,2.41699,-145.393,388
1569937242,346.36,-37.7279,-14.3991,178.572,2.41699,-145.393,388
1569937242,346.36,-37.7279,-14.3991,178.572,2.41699,-145.393,388
1569937242,346.36,-37.7279,-14.3991,178.572,2.41699,-145.393,388
1569937242,346.36,-37.7279,-14.3991,178.572,2.41699,-145.393,388
1569937242,346.36,-37.7279,-14.3991,178.572,2.41699,-145.393,388
1569937242,346.472,-37.7279,-14.3991,178.572,2.41699,-145.393,388
1569937242,346.472,-37.7279,-14.3991,178.572,2.41699,-145.393,388
1569937242,346.472,-37.7279,-14.3991,178.572,2.41699,-145.393,388
1569937242,346.472,-37.7279,-14.3991,178.572,2.41699,-145.393,388
1569937242,346.472,-37.7279,-14.3991,178.572,2.41699,-145.393,388
1569937242,346.472,-37.7279,-14.3991,178.572,2.41699,-145.393,388
1569937242,346.472,-37.7279,-14.3991,178.572,2.41699,-145.393,388
1569937242,346.472,-37.7279,-14.3991,178.572,2.41699,-145.393,388
1569937242,346.472,-37.7279,-14.3991,178.572,2.41699,-145.393,388
1569937242,346.472,-37.7279,-14.3991,178.572,2.41699,-145.393,388
1569937242,346.472,-37.7279,-14.3991,178.572,2.41699,-145.393,388
1569937242,346.472,-37.7279,-14.3991,178.572,2.41699,-145.393,388
1569937242,346.472,-37.7279,-14.3991,178.572,2.41699,-145.393,388
1569937242,346.472,-37.7279,-14.3991,178.572,2.41699,-145.393,388
1569937242,346.36,-37.7279,-14.3991,178.572,2.41699,-145.393,388
1569937242,346.36,-37.7279,-14.3991,178.572,2.41699,-145.393,388
1569937242,346.36,-37.7279,-14.3991,178.572,2.41699,-145.393,388
1569937242,346.36,-37.7279,-14.3991,178.572,2.41699,-145.393,388
1569937242,346.36,-37.7279,-14.3991,178.572,2.41699,-145.393,388
1569937242,346.36,-37.7279,-14.3991,178.572,2.41699,-145.393,388
1569937242,346.36,-37.7279,-14.3991,178.572,2.41699,-145.393,388
1569937242,346.36,-37.7279,-14.3991,178.572,2.41699,-145.393,388
1569937242,346.36,-37.7279,-14.3991,178.572,2.41699,-145.393,388
1569937242,346.36,-37.7279,-14.3991,178.572,2.41699,-145.393,388
1569937242,346.36,-37.7279,-14.3991,178.572,2.41699,-145.393,384
1569937242,346.36,-37.7279,-14.3991,178.594,2.41699,-145.393,384
1569937242,346.472,-37.7279,-14.3991,178.594,2.41699,-145.393,384
1569937242,346.472,-37.7279,-14.3991,178.594,2.41699,-145.393,384
1569937242,346.472,-37.7279,-14.3991,178.594,2.41699,-145.393,384
1569937242,346.472,-37.7279,-14.3991,178.594,2.43896,-145.393,384
1569937242,346.472,-37.7279,-14.3991,178.594,2.43896,-145.393,384
1569937242,346.472,-37.7279,-14.3991,178.594,2.43896,-145.393,380
1569937242,346.472,-37.7279,-14.3991,178.594,2.43896,-145.393,380
1569937242,346.472,-37.7279,-14.3991,178.594,2.43896,-145.393,380
1569937242,346.472,-37.7279,-14.3991,178.594,2.41699,-145.415,380
1569937242,346.472,-37.7279,-14.3991,178.594,2.41699,-145.415,380
1569937242,346.472,-37.7279,-14.3991,178.594,2.41699,-145.415,380
1569937242,346.472,-37.7279,-14.3991,178.594,2.41699,-145.415,380
1569937242,346.472,-37.7279,-14.3991,178.594,2.41699,-145.393,380
1569937242,346.472,-37.7279,-14.3991,178.594,2.41699,-145.393,380
1569937242,346.472,-37.7279,-14.3991,178.594,2.41699,-145.393,380
1569937242,346.472,-37.7279,-14.3991,178.594,2.41699,-145.393,380
1569937242,346.472,-37.7279,-14.3991,178.594,2.41699,-145.393,380
1569937242,346.472,-37.7279,-14.3991,178.594,2.41699,-145.393,380
1569937242,346.472,-37.7279,-14.3991,178.594,2.41699,-145.393,380
1569937242,346.472,-37.7279,-14.3991,178.594,2.41699,-145.393,380
1569937242,346.472,-37.7279,-14.3991,178.594,2.41699,-145.393,380
1569937242,346.472,-37.7279,-14.3991,178.594,2.41699,-145.393,384
1569937242,346.472,-37.7279,-14.3991,178.594,2.41699,-145.393,384
1569937242,346.472,-37.7279,-14.3991,178.594,2.41699,-145.393,384
1569937242,346.472,-37.7279,-14.3991,178.594,2.41699,-145.393,384
1569937242,346.472,-37.7279,-14.3991,178.594,2.41699,-145.393,388
1569937242,346.472,-37.7279,-14.3991,178.594,2.41699,-145.393,388
1569937242,346.472,-37.7279,-14.3991,178.594,2.41699,-145.393,388
1569937242,346.472,-37.7279,-14.3991,178.594,2.41699,-145.393,388
1569937243,346.472,-37.7279,-14.3991,178.594,2.41699,-145.393,388
1569937243,346.472,-37.7279,-14.3991,178.594,2.43896,-145.393,388
1569937243,346.472,-37.7279,-14.3991,178.594,2.43896,-145.393,388
1569937243,346.472,-37.7279,-14.3991,178.594,2.43896,-145.415,388
1569937243,346.36,-37.7279,-14.3991,178.594,2.43896,-145.415,388
1569937243,346.36,-37.7279,-14.3991,178.594,2.43896,-145.393,388
1569937243,346.36,-37.7279,-14.3991,178.594,2.43896,-145.393,388
1569937243,346.36,-37.7279,-14.3991,178.594,2.43896,-145.393,388
1569937243,346.36,-37.7279,-14.3991,178.594,2.43896,-145.393,388
1569937243,346.36,-37.7279,-14.3991,178.594,2.43896,-145.393,388
1569937243,346.36,-37.7279,-14.3991,178.594,2.43896,-145.393,388
1569937243,346.36,-37.7279,-14.3991,178.594,2.43896,-145.393,388
1569937243,346.472,-37.7279,-14.3991,178.594,2.43896,-145.393,384
1569937243,346.472,-37.7279,-14.3991,178.594,2.43896,-145.393,384
1569937243,346.472,-37.7279,-14.3991,178.572,2.43896,-145.393,384
1569937243,346.36,-37.7279,-14.3991,178.572,2.43896,-145.393,384
1569937243,346.36,-37.7279,-14.3991,178.572,2.43896,-145.393,384
1569937243,346.36,-37.7279,-14.3991,178.572,2.43896,-145.393,384
1569937243,346.36,-37.7279,-14.3991,178.572,2.43896,-145.393,384
1569937243,346.36,-37.7279,-14.3991,178.572,2.43896,-145.393,384
1569937243,346.36,-37.7279,-14.3991,178.572,2.43896,-145.393,384
1569937243,346.36,-37.7279,-14.3991,178.572,2.43896,-145.393,384
1569937243,346.36,-37.7279,-14.3991,178.572,2.43896,-145.393,384
1569937243,346.36,-37.7279,-14.3991,178.572,2.43896,-145.393,384
1569937243,346.36,-37.7279,-14.3991,178.572,2.43896,-145.393,384
1569937243,346.36,-37.7279,-14.3991,178.572,2.43896,-145.393,384
1569937243,346.36,-37.7279,-14.3991,178.572,2.43896,-145.393,384
1569937243,346.36,-37.7279,-14.3991,178.572,2.43896,-145.393,384
1569937243,346.36,-37.7279,-14.3991,178.572,2.43896,-145.393,384
1569937243,346.36,-37.7279,-14.3991,178.572,2.43896,-145.393,384
1569937243,346.36,-37.7279,-14.3991,178.572,2.43896,-145.393,384
1569937243,346.36,-37.7279,-14.3991,178.572,2.43896,-145.393,384
1569937243,346.36,-37.7279,-14.3991,178.572,2.43896,-145.393,384
1569937243,346.36,-37.7279,-14.3991,178.572,2.43896,-145.393,384
1569937243,346.36,-37.7279,-14.3991,178.572,2.43896,-145.393,384
1569937243,346.36,-37.7279,-14.3991,178.572,2.43896,-145.393,384
1569937243,346.36,-37.7279,-14.3991,178.572,2.43896,-145.393,384
1569937243,346.36,-37.7279,-14.3991,178.572,2.43896,-145.393,384
1569937243,346.36,-37.7279,-14.3991,178.572,2.43896,-145.393,384
1569937243,346.36,-37.7279,-14.3991,178.572,2.41699,-145.415,384
1569937243,346.36,-37.7279,-14.3991,178.572,2.41699,-145.415,384
1569937243,346.36,-37.7279,-14.3991,178.572,2.41699,-145.415,384
1569937243,346.36,-37.7279,-14.3991,178.572,2.41699,-145.415,384
1569937243,346.36,-37.7279,-14.3991,178.572,2.41699,-145.415,384
1569937243,346.36,-37.7279,-14.3991,178.572,2.41699,-145.415,384
1569937243,346.36,-37.7279,-14.3991,178.572,2.41699,-145.415,388
1569937243,346.472,-37.7279,-14.3991,178.572,2.41699,-145.415,388
1569937243,346.472,-37.7279,-14.3991,178.572,2.41699,-145.415,388
1569937243,346.472,-37.7279,-14.3991,178.572,2.41699,-145.415,388
1569937243,346.472,-37.7279,-14.3991,178.572,2.41699,-145.415,388
1569937243,346.472,-37.7279,-14.3991,178.572,2.41699,-145.415,388
1569937243,346.472,-37.7279,-14.3991,178.572,2.41699,-145.415,388
1569937243,346.472,-37.7279,-14.3991,178.572,2.41699,-145.415,388
1569937243,346.472,-37.7279,-14.3991,178.572,2.41699,-145.415,388
1569937243,346.472,-37.7279,-14.3991,178.572,2.41699,-145.415,388
1569937243,346.472,-37.7279,-14.3991,178.572,2.41699,-145.415,388
1569937243,346.472,-37.7279,-14.3991,178.572,2.41699,-145.393,388
1569937243,346.472,-37.7279,-14.3991,178.572,2.41699,-145.393,384
1569937243,346.472,-37.7279,-14.3991,178.572,2.41699,-145.393,384
1569937243,346.472,-37.7279,-14.3991,178.572,2.41699,-145.393,384
1569937243,346.472,-37.7279,-14.3991,178.572,2.41699,-145.393,384
1569937243,346.472,-37.7279,-14.3991,178.572,2.41699,-145.393,384
1569937243,346.472,-37.7279,-14.3991,178.572,2.41699,-145.393,384
1569937243,346.472,-37.7279,-14.3991,178.572,2.41699,-145.393,384
1569937243,346.472,-37.7279,-14.3991,178.572,2.41699,-145.393,380
1569937243,346.472,-37.7279,-14.3991,178.572,2.41699,-145.393,380
1569937243,346.472,-37.7279,-14.3991,178.572,2.41699,-145.393,380
1569937243,346.472,-37.7279,-14.3991,178.572,2.41699,-145.393,380
1569937243,346.472,-37.7279,-14.3991,178.572,2.41699,-145.393,380
1569937243,346.472,-37.7279,-14.3991,178.572,2.41699,-145.393,380
1569937243,346.472,-37.7279,-14.3991,178.572,2.41699,-145.393,380
1569937243,346.472,-37.7279,-14.3991,178.572,2.41699,-145.393,380
1569937243,346.472,-37.7279,-14.3991,178.572,2.41699,-145.393,380
1569937243,346.472,-37.7279,-14.3991,178.572,2.41699,-145.393,380
1569937243,346.472,-37.7279,-14.3991,178.572,2.41699,-145.393,380
1569937243,346.472,-37.7279,-14.3991,178.572,2.41699,-145.393,380
1569937243,346.472,-37.7279,-14.3991,178.572,2.41699,-145.393,376
1569937243,346.472,-37.7279,-14.3991,178.572,2.41699,-145.393,376
1569937243,346.472,-37.7279,-14.3991,178.572,2.41699,-145.393,376
1569937243,346.472,-37.7279,-14.3991,178.594,2.41699,-145.393,376
1569937243,346.472,-37.7279,-14.3991,178.594,2.41699,-145.393,376
1569937243,346.472,-37.7279,-14.3991,178.594,2.41699,-145.393,376
1569937243,346.472,-37.7279,-14.3991,178.594,2.41699,-145.393,372
1569937243,346.472,-37.7279,-14.3991,178.594,2.41699,-145.393,372
1569937243,346.472,-37.7279,-14.3991,178.594,2.41699,-145.393,372
1569937243,346.472,-37.7279,-14.3991,178.594,2.41699,-145.393,372
1569937243,346.472,-37.7279,-14.3991,178.594,2.39502,-145.393,372
1569937243,346.472,-37.7279,-14.5107,178.594,2.39502,-145.393,368
1569937243,346.472,-37.7279,-14.5107,178.594,2.39502,-145.393,368
1569937243,346.472,-37.7279,-14.5107,178.594,2.39502,-145.393,368
1569937243,346.472,-37.7279,-14.5107,178.594,2.39502,-145.393,368
1569937243,346.472,-37.7279,-14.5107,178.594,2.39502,-145.393,368
1569937243,346.472,-37.7279,-14.5107,178.594,2.39502,-145.393,368
1569937243,346.472,-37.7279,-14.5107,178.594,2.39502,-145.393,368
1569937243,346.472,-37.7279,-14.5107,178.594,2.39502,-145.393,364
1569937243,346.472,-37.7279,-14.5107,178.594,2.39502,-145.393,364
1569937243,346.472,-37.7279,-14.5107,178.594,2.39502,-145.393,364
1569937243,346.472,-37.7279,-14.5107,178.594,2.39502,-145.393,364
1569937243,346.472,-37.7279,-14.5107,178.594,2.39502,-145.393,364
1569937243,346.472,-37.7279,-14.5107,178.594,2.39502,-145.393,368
1569937244,346.472,-37.7279,-14.5107,178.594,2.39502,-145.393,368
1569937244,346.472,-37.7279,-14.3991,178.594,2.39502,-145.393,368
1569937244,346.472,-37.7279,-14.3991,178.594,2.39502,-145.393,368
1569937244,346.472,-37.7279,-14.3991,178.594,2.41699,-145.393,368
1569937244,346.472,-37.7279,-14.3991,178.594,2.41699,-145.393,368
1569937244,346.472,-37.7279,-14.3991,178.594,2.41699,-145.393,368
1569937244,346.472,-37.7279,-14.3991,178.594,2.41699,-145.393,368
1569937244,346.472,-37.7279,-14.3991,178.594,2.41699,-145.393,368
1569937244,346.472,-37.7279,-14.3991,178.594,2.41699,-145.393,368
1569937244,346.472,-37.7279,-14.3991,178.594,2.41699,-145.393,368
1569937244,346.472,-37.7279,-14.3991,178.594,2.41699,-145.393,368
1569937244,346.472,-37.7279,-14.3991,178.594,2.41699,-145.393,368
1569937244,346.472,-37.7279,-14.3991,178.594,2.41699,-145.393,368
1569937244,346.472,-37.7279,-14.3991,178.594,2.41699,-145.393,368
1569937244,346.472,-37.7279,-14.3991,178.594,2.41699,-145.393,368
1569937244,346.472,-37.7279,-14.3991,178.594,2.41699,-145.393,368
1569937244,346.472,-37.7279,-14.3991,178.572,2.41699,-145.393,368
1569937244,346.472,-37.7279,-14.3991,178.572,2.41699,-145.393,368
1569937244,346.472,-37.7279,-14.3991,178.572,2.41699,-145.393,368
1569937244,346.472,-37.7279,-14.3991,178.572,2.41699,-145.393,368
1569937244,346.472,-37.7279,-14.3991,178.572,2.41699,-145.393,368
1569937244,346.472,-37.7279,-14.3991,178.572,2.41699,-145.393,368
1569937244,346.472,-37.7279,-14.3991,178.572,2.41699,-145.393,368
1569937244,346.472,-37.7279,-14.3991,178.572,2.41699,-145.393,368
1569937244,346.472,-37.7279,-14.3991,178.572,2.41699,-145.393,368
1569937244,346.472,-37.7279,-14.3991,178.572,2.41699,-145.393,368
1569937244,346.472,-37.7279,-14.3991,178.572,2.41699,-145.393,368
1569937244,346.472,-37.7279,-14.3991,178.572,2.39502,-145.393,368
1569937244,346.472,-37.7279,-14.3991,178.572,2.39502,-145.393,368
1569937244,346.472,-37.7279,-14.3991,178.572,2.39502,-145.415,368
1569937244,346.472,-37.7279,-14.3991,178.572,2.39502,-145.415,368
1569937244,346.472,-37.7279,-14.3991,178.572,2.39502,-145.415,372
1569937244,346.472,-37.7279,-14.3991,178.572,2.39502,-145.415,372
1569937244,346.472,-37.7279,-14.3991,178.572,2.39502,-145.415,372
1569937244,346.472,-37.7279,-14.5107,178.572,2.39502,-145.415,372
1569937244,346.472,-37.7279,-14.5107,178.572,2.39502,-145.415,372
1569937244,346.472,-37.7279,-14.5107,178.572,2.39502,-145.415,372
1569937244,346.472,-37.7279,-14.5107,178.572,2.39502,-145.415,372
1569937244,346.472,-37.7279,-14.5107,178.572,2.39502,-145.415,372
1569937244,346.472,-37.7279,-14.5107,178.572,2.39502,-145.415,372
1569937244,346.472,-37.7279,-14.5107,178.572,2.39502,-145.415,372
1569937244,346.472,-37.7279,-14.5107,178.572,2.39502,-145.415,372
1569937244,346.472,-37.7279,-14.5107,178.572,2.39502,-145.415,372
1569937244,346.472,-37.7279,-14.5107,178.572,2.39502,-145.415,372
1569937244,346.472,-37.7279,-14.5107,178.594,2.39502,-145.415,372
1569937244,346.472,-37.7279,-14.5107,178.594,2.39502,-145.415,372
1569937244,346.472,-37.7279,-14.5107,178.594,2.39502,-145.393,372
1569937244,346.472,-37.7279,-14.5107,178.594,2.39502,-145.393,372
1569937244,346.472,-37.7279,-14.5107,178.594,2.39502,-145.393,372
1569937244,346.472,-37.7279,-14.5107,178.594,2.39502,-145.393,372
1569937244,346.472,-37.7279,-14.5107,178.594,2.39502,-145.393,372
1569937244,346.472,-37.7279,-14.5107,178.594,2.39502,-145.393,376
1569937244,346.472,-37.7279,-14.5107,178.594,2.39502,-145.393,376
1569937244,346.472,-37.7279,-14.3991,178.572,2.41699,-145.393,376
1569937244,346.472,-37.7279,-14.3991,178.572,2.41699,-145.393,376
1569937244,346.472,-37.7279,-14.3991,178.572,2.41699,-145.415,376
1569937244,346.472,-37.7279,-14.3991,178.572,2.41699,-145.415,376
1569937244,346.472,-37.7279,-14.3991,178.572,2.41699,-145.415,376
1569937244,346.472,-37.7279,-14.3991,178.572,2.41699,-145.415,376
1569937244,346.472,-37.7279,-14.3991,178.572,2.41699,-145.415,376
1569937244,346.472,-37.7279,-14.3991,178.572,2.41699,-145.415,376
1569937244,346.472,-37.7279,-14.3991,178.572,2.41699,-145.393,376
1569937244,346.472,-37.7279,-14.3991,178.572,2.41699,-145.393,376
1569937244,346.472,-37.7279,-14.3991,178.572,2.41699,-145.393,376
1569937244,346.472,-37.7279,-14.3991,178.572,2.41699,-145.393,376
1569937244,346.472,-37.7279,-14.3991,178.572,2.39502,-145.393,380
1569937244,346.472,-37.7279,-14.3991,178.572,2.39502,-145.393,380
1569937244,346.472,-37.7279,-14.3991,178.572,2.39502,-145.393,380
1569937244,346.472,-37.7279,-14.3991,178.572,2.39502,-145.393,380
1569937244,346.472,-37.7279,-14.5107,178.572,2.39502,-145.393,380
1569937244,346.472,-37.7279,-14.5107,178.572,2.39502,-145.393,380
1569937244,346.472,-37.7279,-14.5107,178.572,2.39502,-145.393,380
1569937244,346.472,-37.7279,-14.5107,178.572,2.39502,-145.393,380
1569937244,346.472,-37.8396,-14.5107,178.572,2.39502,-145.393,380
1569937244,346.472,-37.8396,-14.5107,178.572,2.39502,-145.393,380
1569937244,346.472,-37.8396,-14.5107,178.572,2.39502,-145.393,380
1569937244,346.472,-37.8396,-14.5107,178.572,2.39502,-145.393,380
1569937244,346.472,-37.8396,-14.5107,178.572,2.39502,-145.393,380
1569937244,346.36,-37.8396,-14.3991,178.572,2.39502,-145.393,380
1569937244,346.36,-37.8396,-14.3991,178.572,2.39502,-145.393,380
1569937244,346.36,-37.8396,-14.3991,178.572,2.39502,-145.393,380
1569937244,346.36,-37.8396,-14.3991,178.572,2.41699,-145.393,380
1569937244,346.36,-37.8396,-14.3991,178.572,2.41699,-145.393,384
1569937244,346.36,-37.8396,-14.3991,178.572,2.41699,-145.393,384
1569937244,346.36,-37.8396,-14.3991,178.572,2.41699,-145.393,384
1569937244,346.472,-37.8396,-14.3991,178.572,2.41699,-145.393,384
1569937244,346.472,-37.8396,-14.3991,178.572,2.41699,-145.393,384
1569937244,346.472,-37.8396,-14.3991,178.572,2.41699,-145.393,384
1569937244,346.472,-37.8396,-14.3991,178.572,2.41699,-145.393,384
1569937244,346.472,-37.8396,-14.3991,178.572,2.41699,-145.393,384
1569937244,346.472,-37.8396,-14.3991,178.572,2.41699,-145.393,384
1569937244,346.472,-37.7279,-14.3991,178.572,2.43896,-145.393,384
1569937244,346.472,-37.7279,-14.3991,178.572,2.43896,-145.393,384
1569937244,346.472,-37.7279,-14.3991,178.572,2.43896,-145.393,384
1569937244,346.472,-37.7279,-14.3991,178.572,2.43896,-145.393,384
1569937244,346.472,-37.7279,-14.3991,178.572,2.43896,-145.393,384
1569937244,346.472,-37.7279,-14.3991,178.572,2.43896,-145.393,384
1569937244,346.472,-37.7279,-14.3991,178.572,2.43896,-145.393,384
1569937244,346.472,-37.7279,-14.3991,178.572,2.43896,-145.393,384
1569937244,346.472,-37.7279,-14.3991,178.572,2.43896,-145.393,384
1569937245,346.472,-37.7279,-14.3991,178.594,2.43896,-145.393,384
1569937245,346.472,-37.7279,-14.3991,178.594,2.43896,-145.393,384
1569937245,346.472,-37.7279,-14.3991,178.594,2.43896,-145.393,384
1569937245,346.472,-37.7279,-14.3991,178.594,2.43896,-145.393,384
1569937245,346.472,-37.7279,-14.3991,178.594,2.43896,-145.393,384
1569937245,346.472,-37.7279,-14.3991,178.594,2.43896,-145.393,384
1569937245,346.472,-37.7279,-14.3991,178.594,2.41699,-145.415,384
1569937245,346.472,-37.7279,-14.3991,178.594,2.41699,-145.415,384
1569937245,346.472,-37.7279,-14.3991,178.594,2.41699,-145.415,384
1569937245,346.472,-37.7279,-14.3991,178.594,2.41699,-145.415,380
1569937245,346.472,-37.7279,-14.3991,178.594,2.41699,-145.415,380
1569937245,346.472,-37.7279,-14.3991,178.594,2.41699,-145.415,380
1569937245,346.472,-37.7279,-14.3991,178.594,2.43896,-145.415,380
1569937245,346.472,-37.7279,-14.3991,178.594,2.43896,-145.415,380
1569937245,346.472,-37.7279,-14.3991,178.594,2.43896,-145.415,380
1569937245,346.472,-37.7279,-14.3991,178.594,2.43896,-145.415,380
1569937245,346.472,-37.7279,-14.3991,178.594,2.43896,-145.393,380
1569937245,346.472,-37.7279,-14.3991,178.594,2.43896,-145.393,380
1569937245,346.472,-37.7279,-14.3991,178.594,2.43896,-145.393,380
1569937245,346.472,-37.7279,-14.3991,178.594,2.43896,-145.393,380
1569937245,346.472,-37.7279,-14.3991,178.594,2.43896,-145.393,380
1569937245,346.472,-37.7279,-14.3991,178.594,2.41699,-145.393,380
1569937245,346.472,-37.7279,-14.3991,178.594,2.41699,-145.393,380
1569937245,346.472,-37.7279,-14.3991,178.594,2.41699,-145.393,380
1569937245,346.472,-37.7279,-14.3991,178.572,2.41699,-145.393,380
1569937245,346.472,-37.7279,-14.3991,178.572,2.41699,-145.393,380
1569937245,346.472,-37.7279,-14.3991,178.572,2.41699,-145.393,380
1569937245,346.36,-37.7279,-14.3991,178.572,2.41699,-145.393,380
1569937245,346.36,-37.8396,-14.3991,178.572,2.41699,-145.393,380
1569937245,346.36,-37.8396,-14.3991,178.572,2.41699,-145.393,380
1569937245,346.36,-37.8396,-14.3991,178.572,2.43896,-145.393,380
1569937245,346.36,-37.8396,-14.3991,178.572,2.43896,-145.393,380
1569937245,346.36,-37.8396,-14.3991,178.572,2.43896,-145.393,380
1569937245,346.36,-37.8396,-14.3991,178.572,2.43896,-145.393,380
1569937245,346.36,-37.8396,-14.3991,178.572,2.43896,-145.393,380
1569937245,346.472,-37.8396,-14.3991,178.572,2.43896,-145.393,380
1569937245,346.472,-37.8396,-14.3991,178.572,2.43896,-145.393,380
1569937245,346.472,-37.8396,-14.3991,178.572,2.43896,-145.393,380
1569937245,346.472,-37.7279,-14.3991,178.572,2.43896,-145.393,380
1569937245,346.472,-37.7279,-14.3991,178.572,2.43896,-145.393,380
1569937245,346.472,-37.7279,-14.3991,178.572,2.43896,-145.393,380
1569937245,346.472,-37.7279,-14.3991,178.572,2.43896,-145.393,380
1569937245,346.472,-37.7279,-14.3991,178.572,2.43896,-145.393,380
1569937245,346.472,-37.7279,-14.3991,178.572,2.41699,-145.393,380
1569937245,346.472,-37.7279,-14.3991,178.572,2.41699,-145.393,380
1569937245,346.472,-37.7279,-14.3991,178.572,2.41699,-145.393,380
1569937245,346.472,-37.7279,-14.3991,178.572,2.41699,-145.393,380
1569937245,346.472,-37.7279,-14.3991,178.572,2.41699,-145.393,380
1569937245,346.472,-37.8396,-14.3991,178.572,2.41699,-145.393,376
1569937245,346.472,-37.8396,-14.3991,178.572,2.41699,-145.393,376
1569937245,346.472,-37.8396,-14.3991,178.572,2.41699,-145.393,376
1569937245,346.472,-37.8396,-14.3991,178.572,2.41699,-145.393,376
1569937245,346.472,-37.8396,-14.3991,178.572,2.41699,-145.393,376
1569937245,346.472,-37.7279,-14.3991,178.572,2.41699,-145.393,376
1569937245,346.472,-37.7279,-14.3991,178.572,2.41699,-145.393,376
1569937245,346.472,-37.7279,-14.3991,178.572,2.41699,-145.393,376
1569937245,346.472,-37.7279,-14.3991,178.572,2.41699,-145.393,376
1569937245,346.472,-37.7279,-14.3991,178.572,2.41699,-145.393,376
1569937245,346.472,-37.7279,-14.3991,178.572,2.41699,-145.393,376
1569937245,346.472,-37.7279,-14.3991,178.572,2.41699,-145.393,376
1569937245,346.472,-37.7279,-14.3991,178.572,2.41699,-145.393,376
1569937245,346.472,-37.7279,-14.3991,178.572,2.41699,-145.393,380
1569937245,346.472,-37.7279,-14.3991,178.572,2.41699,-145.393,380
1569937245,346.472,-37.7279,-14.3991,178.572,2.41699,-145.393,380
1569937245,346.472,-37.7279,-14.3991,178.572,2.41699,-145.393,380
1569937245,346.472,-37.7279,-14.3991,178.572,2.41699,-145.393,380
1569937245,346.472,-37.7279,-14.3991,178.572,2.41699,-145.393,380
1569937245,346.472,-37.7279,-14.3991,178.594,2.41699,-145.393,380
1569937245,346.472,-37.7279,-14.3991,178.594,2.41699,-145.393,380
1569937245,346.472,-37.7279,-14.3991,178.594,2.41699,-145.393,380
1569937245,346.472,-37.7279,-14.3991,178.594,2.41699,-145.393,380
1569937245,346.472,-37.7279,-14.3991,178.594,2.41699,-145.393,380
1569937245,346.472,-37.7279,-14.3991,178.594,2.41699,-145.393,380
1569937245,346.472,-37.7279,-14.3991,178.594,2.41699,-145.393,380
1569937245,346.472,-37.7279,-14.3991,178.594,2.41699,-145.393,380
1569937245,346.472,-37.7279,-14.3991,178.594,2.41699,-145.393,380
1569937245,346.472,-37.7279,-14.3991,178.572,2.41699,-145.393,380
1569937245,346.472,-37.7279,-14.3991,178.572,2.41699,-145.393,380
1569937245,346.472,-37.7279,-14.3991,178.572,2.41699,-145.393,376
1569937245,346.472,-37.7279,-14.3991,178.572,2.41699,-145.393,376
1569937245,346.472,-37.7279,-14.3991,178.572,2.41699,-145.393,376
1569937245,346.472,-37.7279,-14.3991,178.572,2.41699,-145.393,376
1569937245,346.472,-37.7279,-14.3991,178.572,2.41699,-145.393,376
1569937245,346.472,-37.7279,-14.3991,178.572,2.41699,-145.393,376
1569937245,346.472,-37.7279,-14.3991,178.572,2.41699,-145.393,376
1569937245,346.472,-37.7279,-14.3991,178.572,2.41699,-145.393,376
1569937245,346.472,-37.7279,-14.3991,178.572,2.41699,-145.393,372
1569937245,346.472,-37.7279,-14.3991,178.572,2.41699,-145.393,372
1569937245,346.472,-37.7279,-14.3991,178.572,2.41699,-145.393,372
1569937245,346.472,-37.7279,-14.3991,178.572,2.41699,-145.393,372
1569937245,346.472,-37.7279,-14.3991,178.572,2.41699,-145.393,372
1569937245,346.472,-37.7279,-14.3991,178.572,2.41699,-145.393,372
1569937245,346.472,-37.7279,-14.3991,178.572,2.43896,-145.393,372
1569937245,346.472,-37.7279,-14.3991,178.572,2.43896,-145.393,372
1569937245,346.472,-37.7279,-14.3991,178.572,2.43896,-145.393,372
1569937245,346.472,-37.7279,-14.3991,178.572,2.43896,-145.393,372
1569937245,346.472,-37.7279,-14.3991,178.572,2.43896,-145.393,372
1569937245,346.472,-37.7279,-14.3991,178.572,2.41699,-145.393,372
1569937245,346.472,-37.7279,-14.3991,178.572,2.41699,-145.393,372
1569937245,346.472,-37.7279,-14.3991,178.572,2.41699,-145.393,372
1569937246,346.472,-37.7279,-14.3991,178.572,2.41699,-145.393,372
1569937246,346.472,-37.7279,-14.3991,178.572,2.41699,-145.393,372
1569937246,346.472,-37.7279,-14.3991,178.572,2.41699,-145.393,372
1569937246,346.472,-37.7279,-14.3991,178.572,2.41699,-145.393,368
1569937246,346.472,-37.7279,-14.3991,178.572,2.41699,-145.393,368
1569937246,346.472,-37.7279,-14.3991,178.594,2.41699,-145.393,368
1569937246,346.472,-37.7279,-14.3991,178.594,2.41699,-145.393,368
1569937246,346.472,-37.7279,-14.3991,178.594,2.41699,-145.393,368
1569937246,346.472,-37.7279,-14.3991,178.594,2.41699,-145.393,368
1569937246,346.472,-37.7279,-14.3991,178.594,2.41699,-145.393,368
1569937246,346.36,-37.7279,-14.3991,178.594,2.41699,-145.393,368
1569937246,346.36,-37.7279,-14.3991,178.594,2.41699,-145.393,368
1569937246,346.36,-37.7279,-14.3991,178.594,2.41699,-145.393,368
1569937246,346.36,-37.7279,-14.3991,178.594,2.41699,-145.393,368
1569937246,346.36,-37.7279,-14.3991,178.594,2.41699,-145.393,368
1569937246,346.36,-37.7279,-14.3991,178.594,2.41699,-145.393,368
1569937246,346.36,-37.7279,-14.3991,178.594,2.41699,-145.393,368
1569937246,346.472,-37.7279,-14.3991,178.594,2.41699,-145.393,368
1569937246,346.472,-37.7279,-14.3991,178.594,2.41699,-145.393,368
1569937246,346.472,-37.7279,-14.3991,178.594,2.41699,-145.393,372
1569937246,346.472,-37.7279,-14.3991,178.594,2.41699,-145.393,372
1569937246,346.472,-37.7279,-14.3991,178.594,2.41699,-145.393,372
1569937246,346.472,-37.7279,-14.3991,178.594,2.41699,-145.393,372
1569937246,346.472,-37.7279,-14.3991,178.594,2.41699,-145.393,372
1569937246,346.472,-37.7279,-14.3991,178.594,2.41699,-145.393,372
1569937246,346.472,-37.7279,-14.3991,178.594,2.41699,-145.393,372
1569937246,346.472,-37.7279,-14.3991,178.594,2.41699,-145.393,372
1569937246,346.472,-37.7279,-14.3991,178.594,2.41699,-145.393,372
1569937246,346.472,-37.7279,-14.3991,178.594,2.41699,-145.393,372
1569937246,346.472,-37.7279,-14.3991,178.594,2.41699,-145.393,372
1569937246,346.472,-37.7279,-14.3991,178.594,2.41699,-145.393,372
1569937246,346.472,-37.7279,-14.3991,178.594,2.41699,-145.393,372
1569937246,346.472,-37.7279,-14.3991,178.594,2.41699,-145.393,372
1569937246,346.472,-37.7279,-14.3991,178.594,2.41699,-145.393,372
1569937246,346.472,-37.7279,-14.3991,178.594,2.41699,-145.393,372
1569937246,346.472,-37.7279,-14.3991,178.594,2.41699,-145.393,376
1569937246,346.472,-37.7279,-14.3991,178.594,2.41699,-145.393,376
1569937246,346.472,-37.7279,-14.3991,178.594,2.41699,-145.393,376
1569937246,346.472,-37.7279,-14.3991,178.594,2.41699,-145.393,376
1569937246,346.472,-37.7279,-14.3991,178.594,2.41699,-145.393,376
1569937246,346.472,-37.7279,-14.3991,178.594,2.41699,-145.393,376
1569937246,346.472,-37.7279,-14.3991,178.594,2.41699,-145.393,376
1569937246,346.472,-37.7279,-14.3991,178.594,2.41699,-145.393,376
1569937246,346.472,-37.7279,-14.3991,178.594,2.41699,-145.393,380
1569937246,346.472,-37.7279,-14.3991,178.594,2.41699,-145.393,380
1569937246,346.472,-37.7279,-14.3991,178.594,2.41699,-145.393,380
1569937246,346.472,-37.7279,-14.3991,178.594,2.41699,-145.393,380
1569937246,346.472,-37.7279,-14.3991,178.594,2.41699,-145.393,380
1569937246,346.472,-37.7279,-14.3991,178.594,2.41699,-145.393,380
1569937246,346.472,-37.7279,-14.3991,178.594,2.41699,-145.393,380
1569937246,346.472,-37.7279,-14.3991,178.594,2.41699,-145.393,380
1569937246,346.472,-37.7279,-14.3991,178.594,2.41699,-145.393,380
1569937246,346.472,-37.7279,-14.3991,178.594,2.41699,-145.393,380
1569937246,346.472,-37.7279,-14.3991,178.594,2.41699,-145.393,380
1569937246,346.472,-37.6163,-14.3991,178.616,2.41699,-145.393,380
1569937246,346.472,-37.6163,-14.3991,178.616,2.41699,-145.393,380
1569937246,346.472,-37.6163,-14.3991,178.616,2.41699,-145.415,380
1569937246,346.472,-37.6163,-14.3991,178.616,2.41699,-145.415,380
1569937246,346.472,-37.6163,-14.3991,178.616,2.41699,-145.415,380
1569937246,346.472,-37.6163,-14.3991,178.616,2.39502,-145.393,380
1569937246,346.472,-37.6163,-14.3991,178.616,2.39502,-145.393,376
1569937246,346.472,-37.6163,-14.3991,178.616,2.39502,-145.393,376
1569937246,346.472,-37.6163,-14.3991,178.616,2.39502,-145.393,376
1569937246,346.472,-37.7279,-14.3991,178.616,2.39502,-145.393,376
1569937246,346.472,-37.7279,-14.3991,178.594,2.39502,-145.393,376
1569937246,346.472,-37.7279,-14.3991,178.594,2.39502,-145.393,376
1569937246,346.472,-37.7279,-14.3991,178.594,2.39502,-145.393,376
1569937246,346.472,-37.7279,-14.3991,178.594,2.41699,-145.393,376
1569937246,346.472,-37.7279,-14.3991,178.594,2.41699,-145.393,376
1569937246,346.472,-37.7279,-14.3991,178.594,2.41699,-145.393,376
1569937246,346.472,-37.7279,-14.3991,178.594,2.41699,-145.393,380
1569937246,346.36,-37.7279,-14.3991,178.594,2.41699,-145.393,380
1569937246,346.472,-37.7279,-14.3991,178.594,2.41699,-145.393,380
1569937246,346.472,-37.7279,-14.3991,178.594,2.41699,-145.393,380
1569937246,346.472,-37.7279,-14.3991,178.594,2.41699,-145.393,380
1569937246,346.472,-37.7279,-14.3991,178.594,2.41699,-145.393,380
1569937246,346.472,-37.7279,-14.3991,178.594,2.39502,-145.393,380
1569937246,346.472,-37.7279,-14.3991,178.594,2.39502,-145.393,380
1569937246,346.472,-37.7279,-14.3991,178.594,2.39502,-145.393,380
1569937246,346.472,-37.7279,-14.3991,178.594,2.39502,-145.393,380
1569937246,346.472,-37.7279,-14.3991,178.594,2.39502,-145.393,380
1569937246,346.472,-37.7279,-14.3991,178.594,2.39502,-145.393,380
1569937246,346.472,-37.7279,-14.3991,178.594,2.39502,-145.393,380
1569937246,346.472,-37.7279,-14.3991,178.594,2.39502,-145.393,380
1569937246,346.472,-37.7279,-14.3991,178.594,2.39502,-145.393,380
1569937246,346.472,-37.7279,-14.3991,178.594,2.39502,-145.393,380
1569937246,346.472,-37.7279,-14.3991,178.594,2.39502,-145.393,380
1569937246,346.472,-37.7279,-14.3991,178.594,2.39502,-145.393,380
1569937250,323.366,-12.6132,-14.9572,178.682,2.10938,-145.437,340
1569937250,323.366,-12.6132,-14.9572,178.682,2.10938,-145.437,340
1569937250,323.366,-12.6132,-14.9572,178.682,2.10938,-145.437,340
1569937250,323.366,-12.6132,-14.9572,178.682,2.10938,-145.437,340
1569937250,323.366,-12.6132,-14.9572,178.682,2.10938,-145.437,340
1569937250,323.366,-12.6132,-14.9572,178.682,2.10938,-145.437,340
1569937250,323.366,-12.6132,-14.9572,178.682,2.10938,-145.437,340
1569937250,323.366,-12.6132,-14.9572,178.682,2.10938,-145.437,340
1569937250,323.366,-12.6132,-15.0688,178.682,2.0874,-145.437,344
1569937251,323.366,-12.6132,-15.0688,178.682,2.0874,-145.437,344
1569937251,323.366,-12.6132,-15.0688,178.682,2.0874,-145.437,344
1569937251,323.366,-12.6132,-15.0688,178.682,2.0874,-145.437,344
1569937251,323.366,-12.6132,-15.0688,178.682,2.0874,-145.437,344
1569937251,323.366,-12.6132,-15.0688,178.682,2.0874,-145.437,344
1569937251,323.366,-12.6132,-15.0688,178.682,2.0874,-145.437,348
1569937251,323.366,-12.6132,-15.0688,178.682,2.0874,-145.437,348
1569937251,323.366,-12.6132,-14.9572,178.682,2.0874,-145.437,348
1569937251,323.366,-12.6132,-14.9572,178.682,2.0874,-145.437,348
1569937251,323.366,-12.6132,-14.9572,178.682,2.0874,-145.437,348
1569937251,323.366,-12.6132,-14.9572,178.682,2.0874,-145.437,348
1569937251,323.366,-12.6132,-15.0688,178.682,2.0874,-145.437,352
1569937251,323.366,-12.6132,-15.0688,178.682,2.0874,-145.437,352
1569937251,323.366,-12.6132,-15.0688,178.682,2.0874,-145.437,352
1569937251,323.366,-12.6132,-15.0688,178.682,2.0874,-145.437,352
1569937251,323.366,-12.6132,-15.0688,178.682,2.0874,-145.437,352
1569937251,323.366,-12.6132,-15.0688,178.682,2.0874,-145.437,352
1569937251,323.366,-12.6132,-15.0688,178.682,2.0874,-145.437,352
1569937251,323.366,-12.6132,-15.0688,178.682,2.0874,-145.437,352
1569937251,323.366,-12.6132,-15.0688,178.682,2.0874,-145.437,352
1569937251,323.366,-12.6132,-15.0688,178.682,2.10938,-145.437,352
1569937251,323.366,-12.6132,-14.9572,178.682,2.10938,-145.437,352
1569937251,323.366,-12.6132,-14.9572,178.682,2.10938,-145.415,352
1569937251,323.366,-12.6132,-14.9572,178.682,2.10938,-145.415,352
1569937251,323.366,-12.6132,-14.9572,178.682,2.10938,-145.415,352
1569937251,323.366,-12.6132,-14.9572,178.682,2.10938,-145.415,352
1569937251,323.366,-12.6132,-14.9572,178.682,2.10938,-145.437,352
1569937251,323.366,-12.6132,-14.9572,178.682,2.10938,-145.437,352
1569937251,323.366,-12.6132,-14.9572,178.682,2.10938,-145.437,352
1569937251,323.366,-12.6132,-14.9572,178.682,2.10938,-145.437,352
1569937251,323.366,-12.6132,-14.9572,178.682,2.10938,-145.437,352
1569937251,323.366,-12.6132,-14.9572,178.682,2.10938,-145.437,352
1569937251,323.366,-12.6132,-14.9572,178.682,2.10938,-145.437,352
1569937251,323.366,-12.6132,-14.9572,178.682,2.10938,-145.437,352
1569937251,323.366,-12.6132,-14.9572,178.682,2.10938,-145.437,352
1569937251,323.366,-12.6132,-14.9572,178.682,2.10938,-145.437,352
1569937251,323.366,-12.6132,-14.9572,178.682,2.10938,-145.437,352
1569937251,323.366,-12.6132,-14.9572,178.682,2.10938,-145.437,352
1569937251,323.366,-12.6132,-14.9572,178.682,2.10938,-145.437,352
1569937251,323.366,-12.6132,-14.9572,178.682,2.10938,-145.437,352
1569937251,323.366,-12.6132,-14.9572,178.682,2.10938,-145.437,352
1569937251,323.366,-12.6132,-14.9572,178.682,2.10938,-145.437,352
1569937251,323.366,-12.6132,-14.9572,178.704,2.10938,-145.437,352
1569937251,323.366,-12.6132,-14.9572,178.704,2.10938,-145.415,352
1569937251,323.366,-12.6132,-14.9572,178.704,2.10938,-145.415,352
1569937251,323.366,-12.5016,-14.9572,178.704,2.10938,-145.415,352
1569937251,323.366,-12.5016,-14.9572,178.704,2.10938,-145.415,352
1569937251,323.366,-12.5016,-14.9572,178.704,2.10938,-145.415,352
1569937251,323.366,-12.5016,-14.9572,178.704,2.10938,-145.415,352
1569937251,323.366,-12.5016,-14.9572,178.704,2.10938,-145.415,352
1569937251,323.366,-12.5016,-14.9572,178.704,2.10938,-145.415,352
1569937251,323.366,-12.5016,-14.9572,178.704,2.10938,-145.415,352
1569937251,323.366,-12.5016,-14.9572,178.704,2.10938,-145.415,348
1569937251,323.366,-12.6132,-15.0688,178.704,2.10938,-145.415,348
1569937251,323.366,-12.6132,-15.0688,178.704,2.0874,-145.415,348
1569937251,323.366,-12.6132,-15.0688,178.704,2.0874,-145.415,348
1569937251,323.366,-12.6132,-15.0688,178.704,2.0874,-145.415,348
1569937251,323.366,-12.6132,-15.0688,178.704,2.0874,-145.415,348
1569937251,323.366,-12.6132,-15.0688,178.704,2.0874,-145.415,348
1569937251,323.366,-12.6132,-15.0688,178.682,2.0874,-145.415,344
1569937251,323.366,-12.6132,-15.0688,178.682,2.0874,-145.415,344
1569937251,323.366,-12.6132,-15.0688,178.682,2.10938,-145.415,344
1569937251,323.366,-12.6132,-15.0688,178.682,2.10938,-145.415,344
1569937251,323.366,-12.6132,-14.9572,178.682,2.10938,-145.415,344
1569937251,323.366,-12.6132,-14.9572,178.682,2.10938,-145.415,340
1569937251,323.366,-12.6132,-14.9572,178.682,2.10938,-145.415,340
1569937251,323.366,-12.6132,-14.9572,178.682,2.10938,-145.415,340
1569937251,323.366,-12.6132,-14.9572,178.682,2.10938,-145.415,340
1569937251,323.366,-12.6132,-14.9572,178.682,2.10938,-145.415,340
1569937251,323.366,-12.6132,-14.9572,178.682,2.10938,-145.415,340
1569937251,323.366,-12.6132,-14.9572,178.682,2.10938,-145.415,340
1569937251,323.366,-12.6132,-14.9572,178.682,2.10938,-145.415,340
1569937251,323.366,-12.6132,-14.9572,178.682,2.10938,-145.415,340
1569937251,323.366,-12.6132,-14.9572,178.682,2.13135,-145.415,340
1569937251,323.366,-12.6132,-14.9572,178.682,2.13135,-145.415,340
1569937251,323.366,-12.6132,-14.9572,178.682,2.13135,-145.415,336
1569937251,323.366,-12.6132,-14.9572,178.682,2.13135,-145.415,336
1569937251,323.366,-12.6132,-14.9572,178.682,2.13135,-145.437,336
1569937251,323.366,-12.6132,-14.9572,178.682,2.13135,-145.437,336
1569937251,323.366,-12.6132,-14.9572,178.682,2.13135,-145.437,336
1569937251,323.366,-12.6132,-14.9572,178.682,2.13135,-145.437,336
1569937251,323.366,-12.6132,-14.9572,178.682,2.13135,-145.437,340
1569937251,323.366,-12.6132,-14.9572,178.682,2.13135,-145.437,340
1569937251,323.366,-12.6132,-14.9572,178.682,2.13135,-145.437,340
1569937251,323.366,-12.6132,-14.9572,178.682,2.13135,-145.437,340
1569937251,323.366,-12.6132,-14.9572,178.682,2.13135,-145.437,340
1569937251,323.366,-12.6132,-14.9572,178.682,2.13135,-145.437,340
1569937251,323.366,-12.6132,-14.9572,178.682,2.13135,-145.437,340
1569937251,323.366,-12.6132,-14.9572,178.682,2.13135,-145.437,340
1569937251,323.366,-12.6132,-14.9572,178.682,2.13135,-145.437,340
1569937251,323.366,-12.6132,-14.9572,178.682,2.13135,-145.437,340
1569937251,323.366,-12.6132,-14.9572,178.682,2.13135,-145.437,340
1569937251,323.366,-12.6132,-14.9572,178.682,2.10938,-145.437,340
1569937251,323.366,-12.6132,-14.9572,178.682,2.10938,-145.437,340
1569937251,323.366,-12.6132,-14.9572,178.682,2.10938,-145.437,340
1569937251,323.366,-12.6132,-14.9572,178.682,2.10938,-145.437,340
1569937251,323.366,-12.6132,-14.9572,178.682,2.10938,-145.437,340
1569937251,323.366,-12.6132,-14.9572,178.682,2.10938,-145.437,340
1569937251,323.366,-12.6132,-14.9572,178.682,2.10938,-145.437,340
1569937251,323.366,-12.6132,-14.9572,178.682,2.10938,-145.437,340
1569937252,323.366,-12.6132,-14.9572,178.682,2.10938,-145.437,340
1569937252,323.366,-12.6132,-14.9572,178.682,2.10938,-145.437,340
1569937252,323.366,-12.6132,-14.9572,178.682,2.10938,-145.437,340
1569937252,323.366,-12.6132,-14.9572,178.682,2.10938,-145.437,340
1569937252,323.366,-12.6132,-14.9572,178.682,2.10938,-145.437,340
1569937252,323.366,-12.6132,-14.9572,178.682,2.10938,-145.437,340
1569937252,323.366,-12.6132,-14.9572,178.682,2.10938,-145.437,340
1569937252,323.366,-12.6132,-14.9572,178.682,2.10938,-145.437,340
1569937252,323.366,-12.6132,-14.9572,178.682,2.10938,-145.437,340
1569937252,323.366,-12.6132,-14.9572,178.682,2.10938,-145.437,336
1569937252,323.366,-12.6132,-14.9572,178.682,2.10938,-145.437,336
1569937252,323.366,-12.6132,-14.9572,178.682,2.10938,-145.437,336
1569937252,323.366,-12.6132,-14.9572,178.682,2.10938,-145.437,336
1569937252,323.366,-12.6132,-14.9572,178.682,2.13135,-145.437,336
1569937252,323.366,-12.6132,-14.9572,178.682,2.13135,-145.437,336
1569937252,323.366,-12.6132,-14.9572,178.682,2.13135,-145.437,332
1569937252,323.366,-12.6132,-14.9572,178.682,2.13135,-145.437,332
1569937252,323.366,-12.6132,-14.9572,178.682,2.13135,-145.437,332
1569937252,323.366,-12.6132,-14.9572,178.682,2.13135,-145.437,332
1569937252,323.366,-12.6132,-14.9572,178.682,2.13135,-145.437,332
1569937252,323.366,-12.6132,-14.9572,178.682,2.13135,-145.437,332
1569937252,323.366,-12.6132,-14.9572,178.682,2.10938,-145.415,332
1569937252,323.366,-12.6132,-14.9572,178.682,2.10938,-145.415,332
1569937252,323.366,-12.6132,-14.9572,178.682,2.10938,-145.415,332
1569937252,323.366,-12.6132,-14.9572,178.682,2.10938,-145.415,332
1569937252,323.366,-12.6132,-14.9572,178.682,2.10938,-145.415,332
1569937252,323.366,-12.6132,-14.9572,178.682,2.10938,-145.415,332
1569937252,323.366,-12.6132,-14.9572,178.682,2.10938,-145.415,332
1569937252,323.366,-12.6132,-14.9572,178.682,2.10938,-145.415,332
1569937252,323.366,-12.6132,-14.9572,178.682,2.10938,-145.415,332
1569937252,323.366,-12.6132,-14.9572,178.682,2.10938,-145.415,332
1569937252,323.366,-12.6132,-14.9572,178.682,2.10938,-145.415,332
1569937252,323.366,-12.6132,-14.9572,178.682,2.10938,-145.415,332
1569937252,323.366,-12.6132,-14.9572,178.682,2.10938,-145.415,332
1569937252,323.366,-12.6132,-15.0688,178.682,2.10938,-145.415,332
1569937252,323.366,-12.6132,-15.0688,178.682,2.10938,-145.415,332
1569937252,323.366,-12.6132,-15.0688,178.682,2.10938,-145.415,332
1569937252,323.366,-12.6132,-15.0688,178.682,2.10938,-145.415,332
1569937252,323.478,-12.6132,-15.0688,178.682,2.10938,-145.415,332
1569937252,323.478,-12.6132,-15.0688,178.682,2.10938,-145.415,332
1569937252,323.478,-12.6132,-15.0688,178.682,2.10938,-145.415,332
1569937252,323.478,-12.6132,-15.0688,178.682,2.10938,-145.415,332
1569937252,323.478,-12.6132,-15.0688,178.682,2.10938,-145.415,336
1569937252,323.478,-12.6132,-15.0688,178.682,2.10938,-145.415,336
1569937252,323.478,-12.6132,-14.9572,178.682,2.10938,-145.437,336
1569937252,323.478,-12.6132,-14.9572,178.682,2.10938,-145.437,336
1569937252,323.478,-12.6132,-14.9572,178.682,2.10938,-145.437,336
1569937252,323.478,-12.6132,-14.9572,178.682,2.10938,-145.437,336
1569937252,323.478,-12.6132,-14.9572,178.682,2.10938,-145.437,336
1569937252,323.478,-12.6132,-14.9572,178.682,2.10938,-145.437,336
1569937252,323.478,-12.6132,-14.9572,178.682,2.10938,-145.437,336
1569937252,323.366,-12.6132,-14.9572,178.682,2.10938,-145.437,336
1569937252,323.366,-12.6132,-14.9572,178.682,2.10938,-145.415,336
1569937252,323.366,-12.6132,-14.9572,178.682,2.10938,-145.415,336
1569937252,323.366,-12.6132,-14.9572,178.682,2.10938,-145.415,336
1569937252,323.366,-12.6132,-14.9572,178.682,2.10938,-145.415,336
1569937252,323.366,-12.6132,-14.9572,178.682,2.10938,-145.415,336
1569937252,323.366,-12.6132,-14.9572,178.682,2.10938,-145.415,336
1569937252,323.366,-12.6132,-14.9572,178.682,2.10938,-145.415,336
1569937252,323.366,-12.6132,-14.9572,178.682,2.10938,-145.415,336
1569937252,323.366,-12.6132,-14.9572,178.682,2.10938,-145.415,336
1569937252,323.366,-12.6132,-14.9572,178.682,2.10938,-145.415,336
1569937252,323.366,-12.6132,-14.9572,178.682,2.10938,-145.415,336
1569937252,323.366,-12.6132,-14.9572,178.682,2.10938,-145.415,336
1569937252,323.366,-12.6132,-14.9572,178.682,2.10938,-145.415,336
1569937252,323.366,-12.6132,-14.9572,178.682,2.10938,-145.415,336
1569937252,323.366,-12.6132,-14.9572,178.682,2.10938,-145.415,336
1569937252,323.366,-12.6132,-14.9572,178.682,2.10938,-145.415,336
1569937252,323.366,-12.6132,-14.9572,178.682,2.10938,-145.415,336
1569937252,323.478,-12.6132,-14.9572,178.682,2.10938,-145.415,336
1569937252,323.478,-12.6132,-14.9572,178.682,2.10938,-145.415,336
1569937252,323.478,-12.6132,-14.9572,178.682,2.10938,-145.415,336
1569937252,323.478,-12.6132,-14.9572,178.682,2.10938,-145.415,336
1569937252,323.478,-12.6132,-14.9572,178.682,2.10938,-145.415,336
1569937252,323.478,-12.6132,-14.9572,178.682,2.13135,-145.415,336
1569937252,323.478,-12.6132,-14.9572,178.682,2.13135,-145.415,336
1569937252,323.478,-12.6132,-14.9572,178.682,2.13135,-145.415,340
1569937252,323.478,-12.6132,-14.9572,178.682,2.13135,-145.415,340
1569937252,323.478,-12.6132,-14.9572,178.682,2.13135,-145.415,340
1569937252,323.478,-12.6132,-14.9572,178.682,2.13135,-145.415,340
1569937252,323.478,-12.6132,-14.9572,178.682,2.13135,-145.415,340
1569937252,323.478,-12.6132,-14.9572,178.682,2.13135,-145.415,340
1569937252,323.478,-12.6132,-14.9572,178.682,2.13135,-145.415,340
1569937252,323.478,-12.6132,-14.9572,178.682,2.13135,-145.415,340
1569937252,323.478,-12.6132,-14.9572,178.682,2.13135,-145.415,340
1569937252,323.478,-12.6132,-14.9572,178.682,2.13135,-145.415,340
1569937252,323.478,-12.6132,-14.9572,178.682,2.13135,-145.415,340
1569937252,323.478,-12.6132,-14.9572,178.682,2.13135,-145.415,340
1569937252,323.478,-12.6132,-14.9572,178.682,2.13135,-145.415,340
1569937252,323.478,-12.6132,-14.9572,178.682,2.13135,-145.415,340
1569937252,323.478,-12.6132,-14.9572,178.682,2.13135,-145.415,340
1569937252,323.478,-12.6132,-14.9572,178.682,2.13135,-145.415,340
1569937252,323.478,-12.6132,-14.9572,178.682,2.13135,-145.415,336
1569937252,323.478,-12.6132,-14.9572,178.682,2.13135,-145.415,336
1569937252,323.478,-12.6132,-14.9572,178.682,2.13135,-145.415,336
1569937252,323.478,-12.6132,-14.9572,178.682,2.13135,-145.415,336
1569937252,323.478,-12.6132,-14.9572,178.682,2.13135,-145.415,336
1569937252,323.478,-12.6132,-14.9572,178.682,2.13135,-145.415,336
1569937252,323.478,-12.6132,-14.9572,178.682,2.13135,-145.415,336
1569937252,323.478,-12.6132,-14.9572,178.682,2.13135,-145.415,336
1569937253,323.478,-12.6132,-14.9572,178.682,2.13135,-145.415,336
1569937253,323.478,-12.6132,-14.9572,178.682,2.13135,-145.415,336
1569937253,323.478,-12.6132,-14.9572,178.682,2.13135,-145.415,336
1569937253,323.478,-12.6132,-14.9572,178.682,2.13135,-145.415,336
1569937253,323.478,-12.6132,-14.9572,178.682,2.13135,-145.415,336
1569937253,323.478,-12.6132,-14.9572,178.682,2.13135,-145.415,336
1569937253,323.478,-12.6132,-14.9572,178.682,2.13135,-145.415,336
1569937253,323.478,-12.6132,-14.9572,178.682,2.13135,-145.415,336
1569937253,323.478,-12.6132,-14.9572,178.682,2.13135,-145.415,336
1569937253,323.478,-12.6132,-14.9572,178.682,2.13135,-145.437,336
1569937253,323.478,-12.6132,-14.9572,178.682,2.13135,-145.437,336
1569937253,323.478,-12.6132,-14.9572,178.682,2.13135,-145.437,336
1569937253,323.478,-12.6132,-14.9572,178.682,2.13135,-145.437,336
1569937253,323.478,-12.6132,-14.9572,178.682,2.13135,-145.437,336
1569937253,323.366,-12.6132,-14.9572,178.682,2.13135,-145.437,336
1569937253,323.366,-12.6132,-14.9572,178.682,2.13135,-145.437,336
1569937253,323.366,-12.6132,-14.9572,178.682,2.13135,-145.437,340
1569937253,323.366,-12.6132,-14.9572,178.682,2.13135,-145.437,340
1569937253,323.366,-12.6132,-14.9572,178.682,2.13135,-145.437,340
1569937253,323.366,-12.6132,-14.9572,178.682,2.13135,-145.437,340
1569937253,323.366,-12.6132,-14.9572,178.682,2.13135,-145.437,340
1569937253,323.366,-12.6132,-14.9572,178.682,2.13135,-145.437,340
1569937253,323.366,-12.6132,-14.9572,178.682,2.13135,-145.437,340
1569937253,323.366,-12.6132,-14.9572,178.682,2.13135,-145.437,340
1569937253,323.366,-12.6132,-14.9572,178.682,2.13135,-145.437,340
1569937253,323.366,-12.6132,-14.9572,178.682,2.13135,-145.437,340
1569937253,323.366,-12.6132,-14.9572,178.682,2.10938,-145.437,340
1569937253,323.366,-12.6132,-14.9572,178.682,2.10938,-145.437,340
1569937253,323.366,-12.6132,-14.9572,178.682,2.10938,-145.437,340
1569937253,323.366,-12.6132,-14.9572,178.682,2.10938,-145.437,340
1569937253,323.366,-12.6132,-14.9572,178.682,2.10938,-145.437,340
1569937253,323.366,-12.6132,-14.9572,178.682,2.10938,-145.437,340
1569937253,323.366,-12.6132,-14.9572,178.682,2.10938,-145.437,340
1569937253,323.366,-12.6132,-14.9572,178.682,2.10938,-145.437,340
1569937253,323.366,-12.6132,-14.9572,178.682,2.10938,-145.437,340
1569937253,323.366,-12.6132,-14.9572,178.682,2.10938,-145.437,340
1569937253,323.366,-12.6132,-14.9572,178.682,2.10938,-145.437,340
1569937253,323.366,-12.6132,-14.9572,178.682,2.10938,-145.437,340
1569937253,323.366,-12.6132,-14.9572,178.66,2.10938,-145.437,340
1569937253,323.366,-12.6132,-14.9572,178.66,2.10938,-145.437,344
1569937253,323.366,-12.6132,-14.9572,178.66,2.10938,-145.437,344
1569937253,323.366,-12.6132,-14.9572,178.66,2.10938,-145.437,344
1569937253,323.366,-12.6132,-14.9572,178.66,2.10938,-145.437,344
1569937253,323.366,-12.6132,-14.9572,178.66,2.10938,-145.437,344
1569937253,323.366,-12.6132,-14.9572,178.66,2.10938,-145.437,344
1569937253,323.366,-12.6132,-14.9572,178.66,2.10938,-145.437,344
1569937253,323.366,-12.6132,-14.9572,178.66,2.10938,-145.437,344
1569937253,323.366,-12.6132,-14.9572,178.66,2.10938,-145.437,344
1569937253,323.366,-12.6132,-14.9572,178.66,2.10938,-145.437,344
1569937253,323.366,-12.6132,-14.9572,178.66,2.10938,-145.437,344
1569937253,323.366,-12.6132,-14.9572,178.66,2.10938,-145.437,344
1569937253,323.366,-12.6132,-14.9572,178.66,2.10938,-145.437,344
1569937253,323.366,-12.6132,-14.9572,178.66,2.10938,-145.437,344
1569937253,323.366,-12.6132,-14.9572,178.66,2.10938,-145.415,344
1569937253,323.478,-12.6132,-14.9572,178.66,2.10938,-145.415,340
1569937253,323.478,-12.6132,-14.9572,178.66,2.10938,-145.415,340
1569937253,323.478,-12.6132,-14.9572,178.682,2.10938,-145.415,340
1569937253,323.478,-12.6132,-14.9572,178.682,2.10938,-145.415,340
1569937253,323.478,-12.6132,-14.9572,178.682,2.10938,-145.415,340
1569937253,323.478,-12.6132,-14.9572,178.682,2.10938,-145.415,340
1569937253,323.478,-12.6132,-14.9572,178.682,2.10938,-145.415,340
1569937253,323.478,-12.6132,-14.9572,178.682,2.10938,-145.415,340
1569937253,323.478,-12.6132,-14.9572,178.682,2.10938,-145.415,340
1569937253,323.478,-12.6132,-14.9572,178.682,2.10938,-145.415,340
1569937253,323.478,-12.6132,-14.9572,178.682,2.10938,-145.415,340
1569937253,323.478,-12.6132,-14.9572,178.682,2.10938,-145.415,340
1569937253,323.478,-12.6132,-14.9572,178.682,2.10938,-145.415,340
1569937253,323.478,-12.6132,-14.9572,178.682,2.10938,-145.415,340
1569937253,323.478,-12.6132,-14.9572,178.682,2.10938,-145.415,340
1569937253,323.478,-12.6132,-14.9572,178.682,2.10938,-145.415,340
1569937253,323.478,-12.6132,-14.9572,178.682,2.13135,-145.415,340
1569937253,323.478,-12.6132,-14.9572,178.682,2.13135,-145.415,340
1569937253,323.366,-12.6132,-14.9572,178.682,2.13135,-145.415,340
1569937253,323.366,-12.6132,-14.9572,178.682,2.13135,-145.415,340
1569937253,323.366,-12.6132,-14.9572,178.682,2.13135,-145.437,340
1569937253,323.366,-12.6132,-14.9572,178.682,2.13135,-145.437,340
1569937253,323.366,-12.6132,-14.9572,178.682,2.10938,-145.437,340
1569937253,323.366,-12.6132,-14.9572,178.682,2.10938,-145.437,340
1569937253,323.366,-12.6132,-14.9572,178.682,2.10938,-145.437,340
1569937253,323.366,-12.6132,-14.9572,178.682,2.10938,-145.437,340
1569937253,323.366,-12.6132,-14.9572,178.682,2.10938,-145.437,340
1569937253,323.366,-12.6132,-14.9572,178.682,2.10938,-145.437,340
1569937253,323.366,-12.6132,-14.9572,178.682,2.10938,-145.437,340
1569937253,323.366,-12.6132,-14.9572,178.682,2.10938,-145.437,340
1569937253,323.366,-12.6132,-14.9572,178.682,2.10938,-145.437,340
1569937253,323.366,-12.6132,-14.9572,178.682,2.10938,-145.437,340
1569937253,323.366,-12.6132,-14.9572,178.682,2.10938,-145.437,340
1569937253,323.366,-12.6132,-14.9572,178.682,2.10938,-145.437,340
1569937253,323.366,-12.6132,-14.9572,178.682,2.10938,-145.437,340
1569937253,323.366,-12.6132,-14.9572,178.682,2.10938,-145.437,340
1569937253,323.366,-12.6132,-14.9572,178.682,2.10938,-145.437,340
1569937253,323.366,-12.6132,-14.9572,178.682,2.10938,-145.437,340
1569937253,323.366,-12.6132,-14.9572,178.682,2.10938,-145.437,340
1569937253,323.366,-12.6132,-14.9572,178.682,2.10938,-145.437,340
1569937253,323.366,-12.6132,-14.9572,178.682,2.13135,-145.415,340
1569937253,323.366,-12.6132,-14.9572,178.682,2.13135,-145.437,340
1569937253,323.366,-12.6132,-14.9572,178.682,2.13135,-145.437,340
1569937253,323.366,-12.6132,-14.9572,178.682,2.13135,-145.437,340
1569937253,323.366,-12.6132,-14.9572,178.682,2.13135,-145.437,340
1569937253,323.366,-12.6132,-14.9572,178.682,2.13135,-145.437,340
1569937254,323.366,-12.6132,-14.9572,178.682,2.13135,-145.437,340
1569937254,323.366,-12.6132,-14.9572,178.682,2.13135,-145.437,340
1569937254,323.366,-12.6132,-14.9572,178.682,2.13135,-145.437,340
1569937254,323.366,-12.6132,-14.9572,178.682,2.13135,-145.437,340
1569937254,323.366,-12.6132,-14.9572,178.682,2.13135,-145.437,340
1569937254,323.366,-12.6132,-14.9572,178.682,2.13135,-145.437,340
1569937254,323.366,-12.6132,-14.9572,178.682,2.13135,-145.437,340
1569937254,323.366,-12.6132,-14.9572,178.682,2.13135,-145.437,340
1569937254,323.366,-12.6132,-14.9572,178.682,2.13135,-145.437,340
1569937254,323.366,-12.6132,-14.9572,178.682,2.13135,-145.437,340
1569937254,323.366,-12.6132,-14.9572,178.682,2.13135,-145.437,340
1569937254,323.366,-12.6132,-14.9572,178.66,2.13135,-145.437,340
1569937254,323.366,-12.6132,-14.9572,178.66,2.13135,-145.437,340
1569937254,323.366,-12.6132,-14.9572,178.682,2.13135,-145.437,340
1569937254,323.366,-12.6132,-14.9572,178.682,2.13135,-145.437,340
1569937254,323.366,-12.6132,-14.9572,178.682,2.13135,-145.437,340
1569937254,323.366,-12.6132,-14.9572,178.682,2.13135,-145.437,340
1569937254,323.366,-12.6132,-14.9572,178.682,2.13135,-145.437,340
1569937254,323.366,-12.6132,-14.9572,178.682,2.13135,-145.437,340
1569937254,323.366,-12.6132,-14.9572,178.682,2.13135,-145.437,340
1569937254,323.366,-12.6132,-14.9572,178.682,2.13135,-145.437,340
1569937254,323.366,-12.6132,-14.9572,178.682,2.13135,-145.415,340
1569937254,323.366,-12.6132,-14.9572,178.682,2.13135,-145.415,336
1569937254,323.366,-12.6132,-14.9572,178.682,2.10938,-145.415,336
1569937254,323.366,-12.6132,-14.9572,178.682,2.10938,-145.415,336
1569937254,323.366,-12.6132,-14.9572,178.682,2.10938,-145.415,336
1569937254,323.366,-12.6132,-14.9572,178.682,2.10938,-145.415,336
1569937254,323.366,-12.6132,-14.9572,178.682,2.10938,-145.415,336
1569937254,323.366,-12.6132,-14.9572,178.682,2.10938,-145.415,336
1569937254,323.366,-12.6132,-14.9572,178.682,2.10938,-145.415,336
1569937254,323.366,-12.6132,-14.9572,178.682,2.10938,-145.415,336
1569937254,323.366,-12.6132,-15.0688,178.682,2.10938,-145.415,336
1569937254,323.366,-12.6132,-15.0688,178.682,2.10938,-145.415,336
1569937254,323.366,-12.6132,-15.0688,178.682,2.10938,-145.415,336
1569937254,323.366,-12.6132,-15.0688,178.682,2.10938,-145.415,332
1569937254,323.366,-12.6132,-15.0688,178.682,2.10938,-145.415,332
1569937254,323.366,-12.6132,-15.0688,178.682,2.10938,-145.415,332
1569937254,323.366,-12.6132,-15.0688,178.704,2.10938,-145.415,332
1569937254,323.366,-12.6132,-15.0688,178.704,2.10938,-145.415,332
1569937254,323.366,-12.6132,-15.0688,178.682,2.10938,-145.415,332
1569937254,323.366,-12.6132,-14.9572,178.682,2.10938,-145.415,332
1569937254,323.366,-12.6132,-14.9572,178.682,2.10938,-145.415,336
1569937254,323.366,-12.6132,-14.9572,178.682,2.10938,-145.415,336
1569937254,323.366,-12.6132,-14.9572,178.682,2.10938,-145.415,336
1569937254,323.366,-12.6132,-14.9572,178.682,2.10938,-145.415,336
1569937254,323.366,-12.6132,-14.9572,178.682,2.10938,-145.415,336
1569937254,323.366,-12.6132,-14.9572,178.682,2.10938,-145.415,336
1569937254,323.366,-12.6132,-14.9572,178.682,2.10938,-145.415,336
1569937254,323.366,-12.6132,-14.9572,178.682,2.10938,-145.415,336
1569937254,323.366,-12.6132,-14.9572,178.682,2.10938,-145.415,336
1569937254,323.366,-12.6132,-14.9572,178.682,2.10938,-145.415,336
1569937254,323.366,-12.6132,-14.9572,178.682,2.10938,-145.415,336
1569937254,323.366,-12.6132,-14.9572,178.682,2.10938,-145.415,336
1569937254,323.366,-12.6132,-14.9572,178.682,2.10938,-145.415,336
1569937254,323.366,-12.6132,-14.9572,178.682,2.10938,-145.415,336
1569937254,323.366,-12.6132,-14.9572,178.682,2.10938,-145.415,336
1569937254,323.366,-12.6132,-14.9572,178.682,2.10938,-145.415,336
1569937254,323.366,-12.6132,-14.9572,178.682,2.10938,-145.415,336
1569937254,323.366,-12.6132,-14.9572,178.682,2.10938,-145.415,336
1569937254,323.366,-12.6132,-14.9572,178.682,2.10938,-145.415,336
1569937254,323.366,-12.6132,-14.9572,178.682,2.10938,-145.415,336
1569937254,323.366,-12.6132,-14.9572,178.682,2.10938,-145.415,336
1569937254,323.366,-12.6132,-14.9572,178.682,2.10938,-145.415,336
1569937254,323.366,-12.6132,-14.9572,178.682,2.10938,-145.415,336
1569937254,323.366,-12.6132,-14.9572,178.682,2.10938,-145.415,336
1569937254,323.366,-12.6132,-14.9572,178.682,2.10938,-145.415,336
1569937254,323.366,-12.6132,-14.9572,178.682,2.10938,-145.415,340
1569937254,323.366,-12.6132,-14.9572,178.682,2.10938,-145.415,340
1569937254,323.366,-12.6132,-14.9572,178.682,2.10938,-145.415,340
1569937254,323.366,-12.6132,-14.9572,178.682,2.10938,-145.415,340
1569937254,323.366,-12.6132,-14.9572,178.682,2.10938,-145.415,340
1569937254,323.366,-12.6132,-14.9572,178.682,2.10938,-145.415,340
1569937254,323.366,-12.6132,-14.9572,178.682,2.10938,-145.415,340
1569937254,323.366,-12.6132,-14.9572,178.682,2.10938,-145.415,340
1569937254,323.366,-12.6132,-14.9572,178.682,2.10938,-145.415,340
1569937254,323.366,-12.6132,-14.9572,178.682,2.10938,-145.415,344
1569937254,323.366,-12.6132,-14.9572,178.682,2.10938,-145.415,344
1569937254,323.366,-12.6132,-14.9572,178.682,2.10938,-145.415,344
1569937254,323.366,-12.6132,-14.9572,178.682,2.10938,-145.415,344
1569937254,323.366,-12.6132,-14.9572,178.682,2.10938,-145.415,344
1569937254,323.366,-12.6132,-14.9572,178.682,2.10938,-145.415,344
1569937254,323.366,-12.6132,-14.9572,178.682,2.10938,-145.415,344
1569937254,323.366,-12.6132,-14.9572,178.682,2.10938,-145.415,344
1569937254,323.366,-12.6132,-14.9572,178.682,2.10938,-145.437,344
1569937254,323.366,-12.6132,-14.9572,178.682,2.10938,-145.437,344
1569937254,323.366,-12.6132,-14.9572,178.682,2.10938,-145.437,344
1569937254,323.366,-12.6132,-14.9572,178.682,2.10938,-145.437,344
1569937254,323.366,-12.6132,-14.9572,178.682,2.10938,-145.437,344
1569937254,323.366,-12.6132,-14.9572,178.682,2.10938,-145.415,344
1569937254,323.366,-12.6132,-14.9572,178.682,2.10938,-145.415,344
1569937254,323.366,-12.6132,-14.9572,178.682,2.10938,-145.415,344
1569937254,323.366,-12.6132,-14.9572,178.682,2.10938,-145.415,344
1569937254,323.366,-12.6132,-14.9572,178.682,2.10938,-145.415,344
1569937254,323.366,-12.6132,-14.9572,178.682,2.10938,-145.415,344
1569937254,323.366,-12.6132,-14.9572,178.682,2.10938,-145.415,344
1569937254,323.366,-12.6132,-14.9572,178.682,2.10938,-145.415,344
1569937254,323.366,-12.6132,-14.9572,178.682,2.10938,-145.415,348
1569937254,323.366,-12.6132,-14.9572,178.682,2.10938,-145.437,348
1569937254,323.366,-12.6132,-14.9572,178.682,2.10938,-145.437,344
1569937254,323.366,-12.6132,-14.9572,178.682,2.10938,-145.437,344
1569937255,323.366,-12.6132,-14.9572,178.682,2.10938,-145.437,344
1569937255,323.366,-12.6132,-14.9572,178.682,2.10938,-145.437,344
1569937255,323.366,-12.6132,-14.9572,178.682,2.10938,-145.437,344
1569937255,323.366,-12.6132,-14.9572,178.682,2.10938,-145.437,344
1569937255,323.366,-12.6132,-14.9572,178.682,2.10938,-145.437,344
1569937255,323.366,-12.6132,-14.9572,178.682,2.0874,-145.437,344
1569937255,323.366,-12.6132,-15.0688,178.682,2.0874,-145.437,344
1569937255,323.366,-12.6132,-15.0688,178.682,2.0874,-145.437,344
1569937255,323.366,-12.6132,-15.0688,178.682,2.0874,-145.437,344
1569937255,323.366,-12.6132,-14.9572,178.682,2.0874,-145.437,344
1569937255,323.366,-12.6132,-14.9572,178.682,2.0874,-145.437,344
1569937255,323.366,-12.6132,-14.9572,178.682,2.10938,-145.437,344
1569937255,323.366,-12.6132,-14.9572,178.682,2.10938,-145.437,344
1569937255,323.366,-12.6132,-14.9572,178.682,2.10938,-145.437,344
1569937255,323.366,-12.6132,-14.9572,178.682,2.10938,-145.437,348
1569937255,323.366,-12.6132,-14.9572,178.682,2.10938,-145.437,348
1569937255,323.366,-12.6132,-14.9572,178.682,2.10938,-145.437,348
1569937255,323.366,-12.6132,-14.9572,178.682,2.10938,-145.437,348
1569937255,323.366,-12.6132,-14.9572,178.682,2.10938,-145.437,348
1569937255,323.366,-12.6132,-14.9572,178.682,2.10938,-145.437,348
1569937255,323.366,-12.6132,-14.9572,178.682,2.10938,-145.437,348
1569937255,323.366,-12.6132,-14.9572,178.682,2.10938,-145.437,348
1569937255,323.366,-12.6132,-14.9572,178.682,2.10938,-145.437,348
1569937255,323.366,-12.6132,-14.9572,178.682,2.10938,-145.437,348
1569937255,323.366,-12.6132,-14.9572,178.682,2.10938,-145.437,348
1569937255,323.366,-12.6132,-14.9572,178.682,2.10938,-145.437,348
1569937255,323.366,-12.6132,-14.9572,178.682,2.10938,-145.437,348
1569937255,323.366,-12.6132,-14.9572,178.682,2.10938,-145.437,348
1569937255,323.366,-12.6132,-14.9572,178.682,2.10938,-145.437,348
1569937255,323.366,-12.6132,-14.9572,178.682,2.10938,-145.437,348
1569937255,323.366,-12.6132,-14.9572,178.682,2.10938,-145.437,348
1569937255,323.366,-12.6132,-14.9572,178.682,2.10938,-145.437,348
1569937255,323.366,-12.6132,-14.9572,178.682,2.10938,-145.437,348
1569937255,323.366,-12.6132,-14.9572,178.682,2.10938,-145.437,348
1569937255,323.366,-12.6132,-14.9572,178.682,2.10938,-145.437,344
1569937255,323.366,-12.6132,-14.9572,178.682,2.10938,-145.437,344
1569937255,323.366,-12.6132,-14.9572,178.682,2.13135,-145.437,344
1569937255,323.366,-12.6132,-14.9572,178.682,2.13135,-145.437,344
1569937255,323.366,-12.6132,-14.9572,178.682,2.13135,-145.437,344
1569937255,323.366,-12.6132,-14.9572,178.682,2.13135,-145.437,344
1569937255,323.366,-12.6132,-14.9572,178.682,2.13135,-145.437,344
1569937255,323.366,-12.6132,-14.9572,178.682,2.13135,-145.437,344
1569937255,323.366,-12.6132,-14.9572,178.682,2.13135,-145.437,344
1569937255,323.366,-12.6132,-14.9572,178.682,2.13135,-145.437,344
1569937255,323.366,-12.6132,-14.9572,178.682,2.13135,-145.437,344
1569937255,323.366,-12.6132,-14.8456,178.682,2.13135,-145.437,344
1569937255,323.366,-12.6132,-14.8456,178.682,2.13135,-145.437,344
1569937255,323.366,-12.6132,-14.8456,178.682,2.13135,-145.437,344
1569937255,323.366,-12.6132,-14.8456,178.682,2.13135,-145.437,344
1569937255,323.366,-12.6132,-14.8456,178.682,2.13135,-145.437,344
1569937255,323.366,-12.6132,-14.9572,178.682,2.13135,-145.437,344
1569937255,323.366,-12.6132,-14.9572,178.682,2.13135,-145.437,344
1569937255,323.366,-12.6132,-14.9572,178.682,2.13135,-145.437,344
1569937255,323.366,-12.6132,-14.9572,178.682,2.13135,-145.437,344
1569937255,323.366,-12.6132,-14.9572,178.682,2.13135,-145.437,344
1569937255,323.366,-12.6132,-14.9572,178.682,2.13135,-145.437,344
1569937255,323.366,-12.6132,-14.9572,178.682,2.13135,-145.437,344
1569937255,323.366,-12.6132,-14.9572,178.682,2.13135,-145.437,344
1569937255,323.366,-12.6132,-14.9572,178.682,2.13135,-145.437,344
1569937255,323.366,-12.6132,-14.9572,178.682,2.13135,-145.437,344
1569937255,323.366,-12.6132,-14.9572,178.682,2.13135,-145.437,344
1569937255,323.366,-12.6132,-14.9572,178.682,2.13135,-145.437,344
1569937255,323.366,-12.6132,-14.9572,178.682,2.13135,-145.437,348
1569937255,323.366,-12.6132,-14.9572,178.682,2.13135,-145.437,348
1569937255,323.366,-12.6132,-14.9572,178.682,2.13135,-145.437,348
1569937255,323.366,-12.6132,-14.9572,178.682,2.13135,-145.437,348
1569937255,323.366,-12.6132,-14.9572,178.682,2.13135,-145.437,348
1569937255,323.366,-12.6132,-14.9572,178.682,2.13135,-145.437,348
1569937255,323.366,-12.6132,-14.9572,178.682,2.13135,-145.437,348
1569937255,323.366,-12.6132,-14.9572,178.682,2.13135,-145.437,348
1569937255,323.366,-12.6132,-14.9572,178.682,2.13135,-145.437,348
1569937255,323.366,-12.6132,-14.9572,178.682,2.13135,-145.437,344
1569937255,323.366,-12.6132,-14.9572,178.682,2.13135,-145.437,344
1569937255,323.366,-12.6132,-14.9572,178.682,2.13135,-145.437,344
1569937255,323.366,-12.6132,-14.9572,178.682,2.13135,-145.437,344
1569937255,323.366,-12.6132,-14.9572,178.682,2.13135,-145.437,344
1569937255,323.366,-12.6132,-14.9572,178.682,2.13135,-145.437,340
1569937255,323.366,-12.6132,-14.9572,178.682,2.13135,-145.437,340
1569937255,323.366,-12.6132,-14.9572,178.682,2.13135,-145.437,340
1569937255,323.366,-12.6132,-14.9572,178.682,2.13135,-145.437,340
1569937255,323.366,-12.6132,-14.9572,178.682,2.13135,-145.437,340
1569937255,323.366,-12.6132,-14.9572,178.682,2.13135,-145.437,340
1569937255,323.366,-12.6132,-14.9572,178.682,2.13135,-145.437,340
1569937255,323.366,-12.6132,-14.9572,178.66,2.13135,-145.437,340
1569937255,323.366,-12.6132,-14.9572,178.66,2.13135,-145.437,340
1569937255,323.366,-12.6132,-14.9572,178.66,2.13135,-145.437,340
1569937255,323.366,-12.6132,-14.9572,178.66,2.13135,-145.437,340
1569937255,323.366,-12.6132,-14.9572,178.66,2.13135,-145.437,340
1569937255,323.366,-12.6132,-14.9572,178.66,2.13135,-145.437,340
1569937255,323.366,-12.6132,-14.9572,178.66,2.13135,-145.437,340
1569937255,323.366,-12.6132,-14.9572,178.66,2.13135,-145.437,340
1569937260,284.969,28.9099,-15.7386,178.792,1.71387,-145.305,340
1569937260,284.969,28.9099,-15.7386,178.792,1.71387,-145.305,340
1569937260,284.969,28.9099,-15.7386,178.792,1.71387,-145.305,340
1569937260,284.969,28.9099,-15.7386,178.792,1.71387,-145.305,340
1569937260,284.969,28.9099,-15.7386,178.792,1.71387,-145.305,340
1569937260,284.969,28.9099,-15.7386,178.792,1.71387,-145.305,336
1569937260,284.969,28.9099,-15.7386,178.792,1.71387,-145.305,336
1569937260,284.969,28.9099,-15.7386,178.792,1.71387,-145.305,336
1569937260,284.969,28.9099,-15.7386,178.792,1.71387,-145.305,336
1569937260,284.969,28.9099,-15.7386,178.792,1.71387,-145.305,336
1569937260,284.969,28.9099,-15.7386,178.792,1.71387,-145.305,336
1569937261,284.969,28.9099,-15.7386,178.792,1.71387,-145.305,332
1569937261,284.969,28.9099,-15.7386,178.792,1.71387,-145.305,332
1569937261,284.969,28.9099,-15.7386,178.792,1.71387,-145.305,332
1569937261,284.969,28.9099,-15.7386,178.792,1.71387,-145.305,332
1569937261,284.969,28.9099,-15.7386,178.792,1.69189,-145.305,332
1569937261,284.969,28.9099,-15.7386,178.792,1.69189,-145.305,332
1569937261,284.969,28.9099,-15.7386,178.792,1.69189,-145.305,332
1569937261,284.969,28.9099,-15.7386,178.792,1.69189,-145.283,332
1569937261,284.969,28.9099,-15.7386,178.792,1.69189,-145.283,332
1569937261,284.969,28.9099,-15.7386,178.792,1.69189,-145.283,332
1569937261,284.969,28.9099,-15.7386,178.792,1.69189,-145.283,332
1569937261,284.969,28.9099,-15.7386,178.792,1.69189,-145.283,328
1569937261,284.969,28.9099,-15.7386,178.792,1.69189,-145.305,328
1569937261,284.969,28.9099,-15.7386,178.792,1.69189,-145.305,328
1569937261,284.969,28.9099,-15.7386,178.792,1.69189,-145.305,332
1569937261,284.969,28.9099,-15.7386,178.792,1.69189,-145.305,332
1569937261,284.969,28.9099,-15.7386,178.792,1.69189,-145.305,332
1569937261,284.969,28.9099,-15.7386,178.792,1.69189,-145.305,332
1569937261,284.969,28.9099,-15.7386,178.792,1.69189,-145.305,332
1569937261,284.969,28.9099,-15.7386,178.792,1.69189,-145.305,332
1569937261,284.969,28.9099,-15.7386,178.792,1.69189,-145.305,332
1569937261,284.969,28.9099,-15.7386,178.792,1.69189,-145.305,332
1569937261,284.969,28.9099,-15.7386,178.792,1.69189,-145.305,332
1569937261,284.969,28.9099,-15.7386,178.792,1.69189,-145.305,332
1569937261,284.969,28.9099,-15.7386,178.792,1.69189,-145.305,332
1569937261,284.969,28.9099,-15.7386,178.792,1.69189,-145.305,332
1569937261,284.969,28.9099,-15.7386,178.792,1.69189,-145.305,332
1569937261,284.969,28.9099,-15.7386,178.792,1.69189,-145.305,332
1569937261,284.969,28.9099,-15.7386,178.792,1.69189,-145.305,332
1569937261,284.969,28.9099,-15.7386,178.792,1.69189,-145.305,336
1569937261,284.969,28.9099,-15.7386,178.792,1.69189,-145.305,336
1569937261,284.969,28.9099,-15.7386,178.792,1.69189,-145.305,336
1569937261,284.969,28.9099,-15.7386,178.792,1.69189,-145.305,336
1569937261,284.969,28.9099,-15.7386,178.792,1.69189,-145.305,336
1569937261,284.969,28.9099,-15.7386,178.792,1.69189,-145.305,336
1569937261,284.969,28.9099,-15.7386,178.792,1.69189,-145.305,336
1569937261,284.969,28.9099,-15.7386,178.792,1.69189,-145.305,336
1569937261,284.969,28.9099,-15.7386,178.792,1.69189,-145.305,336
1569937261,284.969,28.9099,-15.7386,178.792,1.69189,-145.305,336
1569937261,284.969,28.9099,-15.7386,178.792,1.69189,-145.305,336
1569937261,284.969,28.9099,-15.7386,178.792,1.69189,-145.305,336
1569937261,284.969,28.9099,-15.7386,178.792,1.69189,-145.305,336
1569937261,284.969,28.9099,-15.7386,178.792,1.69189,-145.305,336
1569937261,284.969,28.9099,-15.7386,178.792,1.69189,-145.305,336
1569937261,284.969,28.9099,-15.7386,178.792,1.69189,-145.305,336
1569937261,284.969,28.9099,-15.7386,178.792,1.69189,-145.305,336
1569937261,284.969,28.9099,-15.7386,178.792,1.69189,-145.305,336
1569937261,284.969,28.9099,-15.7386,178.813,1.69189,-145.305,336
1569937261,284.969,28.9099,-15.7386,178.813,1.69189,-145.305,336
1569937261,284.969,28.9099,-15.7386,178.813,1.69189,-145.305,336
1569937261,284.969,28.9099,-15.7386,178.813,1.69189,-145.305,336
1569937261,284.969,28.9099,-15.7386,178.813,1.69189,-145.305,336
1569937261,284.969,28.9099,-15.7386,178.813,1.69189,-145.305,336
1569937261,284.969,28.9099,-15.7386,178.813,1.69189,-145.305,336
1569937261,284.969,28.9099,-15.7386,178.813,1.69189,-145.305,336
1569937261,284.969,28.9099,-15.7386,178.813,1.69189,-145.305,336
1569937261,284.969,28.9099,-15.7386,178.813,1.69189,-145.305,336
1569937261,284.969,28.9099,-15.7386,178.813,1.69189,-145.305,336
1569937261,284.969,28.9099,-15.7386,178.792,1.69189,-145.305,336
1569937261,284.969,28.9099,-15.7386,178.792,1.69189,-145.305,336
1569937261,284.969,28.9099,-15.7386,178.792,1.69189,-145.305,336
1569937261,284.969,28.9099,-15.7386,178.792,1.69189,-145.305,336
1569937261,284.969,28.9099,-15.7386,178.792,1.69189,-145.305,336
1569937261,284.969,28.9099,-15.7386,178.792,1.69189,-145.305,336
1569937261,284.969,28.9099,-15.7386,178.792,1.69189,-145.305,336
1569937261,284.969,28.9099,-15.7386,178.792,1.69189,-145.305,336
1569937261,284.969,28.9099,-15.7386,178.792,1.69189,-145.305,336
1569937261,284.969,28.9099,-15.7386,178.792,1.69189,-145.305,336
1569937261,284.969,28.9099,-15.7386,178.792,1.69189,-145.305,340
1569937261,284.969,28.9099,-15.7386,178.792,1.69189,-145.305,340
1569937261,284.969,28.9099,-15.7386,178.792,1.69189,-145.305,340
1569937261,284.969,28.9099,-15.7386,178.792,1.69189,-145.305,340
1569937261,284.969,28.9099,-15.7386,178.792,1.69189,-145.305,340
1569937261,284.969,28.9099,-15.7386,178.792,1.69189,-145.305,340
1569937261,284.969,28.9099,-15.7386,178.792,1.69189,-145.305,340
1569937261,284.969,28.9099,-15.7386,178.792,1.69189,-145.305,340
1569937261,284.969,28.9099,-15.7386,178.792,1.69189,-145.305,340
1569937261,284.969,28.9099,-15.7386,178.792,1.69189,-145.305,340
1569937261,284.969,28.9099,-15.7386,178.792,1.69189,-145.305,340
1569937261,284.969,28.9099,-15.7386,178.792,1.69189,-145.305,340
1569937261,284.969,28.9099,-15.7386,178.792,1.69189,-145.305,340
1569937261,284.969,28.9099,-15.7386,178.792,1.69189,-145.305,340
1569937261,284.969,28.9099,-15.7386,178.792,1.69189,-145.305,340
1569937261,284.969,28.9099,-15.7386,178.792,1.69189,-145.305,340
1569937261,284.969,28.9099,-15.7386,178.792,1.69189,-145.305,340
1569937261,284.969,28.9099,-15.7386,178.792,1.69189,-145.305,340
1569937261,284.969,28.9099,-15.7386,178.792,1.69189,-145.305,340
1569937261,284.969,28.9099,-15.7386,178.792,1.69189,-145.305,340
1569937261,284.969,28.9099,-15.7386,178.792,1.69189,-145.305,340
1569937261,284.969,28.9099,-15.7386,178.792,1.69189,-145.305,344
1569937261,284.969,28.9099,-15.7386,178.792,1.69189,-145.305,344
1569937261,284.969,28.9099,-15.7386,178.792,1.69189,-145.305,344
1569937261,284.969,28.9099,-15.7386,178.792,1.69189,-145.305,344
1569937261,284.969,28.9099,-15.7386,178.792,1.69189,-145.305,344
1569937261,284.969,28.9099,-15.7386,178.792,1.69189,-145.305,344
1569937261,284.969,28.9099,-15.7386,178.792,1.69189,-145.305,344
1569937261,284.857,28.9099,-15.7386,178.792,1.69189,-145.305,344
1569937261,284.857,28.9099,-15.7386,178.792,1.69189,-145.305,344
1569937261,284.857,28.9099,-15.7386,178.792,1.69189,-145.305,344
1569937261,284.857,28.9099,-15.7386,178.792,1.69189,-145.305,344
1569937262,284.857,28.9099,-15.7386,178.792,1.69189,-145.305,348
1569937262,284.857,28.9099,-15.7386,178.792,1.69189,-145.305,348
1569937262,284.857,28.9099,-15.7386,178.792,1.69189,-145.305,348
1569937262,284.857,28.9099,-15.7386,178.792,1.69189,-145.305,348
1569937262,284.857,28.9099,-15.7386,178.792,1.69189,-145.305,348
1569937262,284.857,28.9099,-15.7386,178.792,1.69189,-145.305,348
1569937262,284.857,28.9099,-15.7386,178.792,1.69189,-145.305,348
1569937262,284.857,28.9099,-15.7386,178.792,1.69189,-145.305,348
1569937262,284.857,28.9099,-15.7386,178.792,1.69189,-145.305,348
1569937262,284.857,28.9099,-15.7386,178.792,1.69189,-145.305,348
1569937262,284.857,28.9099,-15.7386,178.792,1.69189,-145.305,348
1569937262,284.969,28.9099,-15.8502,178.792,1.69189,-145.305,348
1569937262,284.969,28.9099,-15.8502,178.792,1.69189,-145.305,348
1569937262,284.969,28.9099,-15.8502,178.792,1.69189,-145.305,348
1569937262,284.969,28.9099,-15.8502,178.792,1.69189,-145.305,348
1569937262,284.969,28.9099,-15.8502,178.792,1.69189,-145.305,348
1569937262,284.969,28.9099,-15.8502,178.813,1.69189,-145.305,348
1569937262,284.969,28.9099,-15.8502,178.813,1.69189,-145.305,348
1569937262,284.969,28.9099,-15.8502,178.813,1.69189,-145.305,348
1569937262,284.969,28.9099,-15.8502,178.813,1.69189,-145.305,348
1569937262,284.969,28.9099,-15.8502,178.813,1.69189,-145.305,348
1569937262,284.857,28.9099,-15.8502,178.813,1.69189,-145.305,348
1569937262,284.857,28.9099,-15.8502,178.813,1.69189,-145.305,344
1569937262,284.857,28.9099,-15.8502,178.813,1.69189,-145.305,344
1569937262,284.857,28.9099,-15.8502,178.813,1.69189,-145.305,344
1569937262,284.857,28.9099,-15.8502,178.813,1.69189,-145.305,344
1569937262,284.857,28.9099,-15.8502,178.813,1.69189,-145.305,344
1569937262,284.857,28.9099,-15.8502,178.813,1.69189,-145.305,344
1569937262,284.857,28.9099,-15.8502,178.813,1.69189,-145.305,344
1569937262,284.857,28.9099,-15.8502,178.813,1.69189,-145.305,344
1569937262,284.857,28.9099,-15.7386,178.813,1.69189,-145.305,344
1569937262,284.857,28.9099,-15.7386,178.813,1.69189,-145.305,344
1569937262,284.857,28.9099,-15.7386,178.813,1.69189,-145.305,344
1569937262,284.857,28.9099,-15.7386,178.813,1.69189,-145.305,344
1569937262,284.857,28.9099,-15.7386,178.813,1.69189,-145.305,344
1569937262,284.857,28.9099,-15.7386,178.813,1.69189,-145.305,344
1569937262,284.857,28.9099,-15.7386,178.813,1.69189,-145.305,344
1569937262,284.857,28.9099,-15.7386,178.813,1.69189,-145.305,344
1569937262,284.969,28.9099,-15.7386,178.813,1.69189,-145.305,344
1569937262,284.969,28.9099,-15.7386,178.813,1.69189,-145.305,344
1569937262,284.857,28.9099,-15.7386,178.813,1.69189,-145.305,344
1569937262,284.857,28.9099,-15.7386,178.813,1.69189,-145.305,344
1569937262,284.857,28.9099,-15.7386,178.813,1.69189,-145.305,344
1569937262,284.857,28.9099,-15.7386,178.813,1.69189,-145.305,344
1569937262,284.857,28.9099,-15.8502,178.813,1.69189,-145.305,344
1569937262,284.857,28.9099,-15.8502,178.813,1.69189,-145.305,344
1569937262,284.857,28.9099,-15.8502,178.813,1.69189,-145.305,344
1569937262,284.857,28.9099,-15.8502,178.813,1.69189,-145.305,344
1569937262,284.857,28.9099,-15.8502,178.813,1.69189,-145.305,344
1569937262,284.857,28.9099,-15.8502,178.813,1.69189,-145.305,344
1569937262,284.857,28.9099,-15.8502,178.813,1.69189,-145.305,344
1569937262,284.857,28.9099,-15.8502,178.813,1.69189,-145.305,344
1569937262,284.857,28.9099,-15.8502,178.813,1.69189,-145.305,344
1569937262,284.857,28.9099,-15.8502,178.813,1.69189,-145.305,344
1569937262,284.857,28.9099,-15.8502,178.792,1.69189,-145.305,344
1569937262,284.857,28.9099,-15.8502,178.792,1.66992,-145.305,344
1569937262,284.857,28.9099,-15.8502,178.792,1.66992,-145.305,344
1569937262,284.857,28.9099,-15.8502,178.792,1.66992,-145.305,344
1569937262,284.857,28.9099,-15.8502,178.792,1.66992,-145.305,344
1569937262,284.857,28.9099,-15.8502,178.792,1.66992,-145.305,344
1569937262,284.857,28.9099,-15.8502,178.792,1.66992,-145.305,344
1569937262,284.857,28.9099,-15.8502,178.792,1.66992,-145.305,344
1569937262,284.857,28.9099,-15.8502,178.792,1.66992,-145.305,344
1569937262,284.857,28.9099,-15.8502,178.792,1.66992,-145.305,344
1569937262,284.857,28.9099,-15.8502,178.792,1.66992,-145.305,344
1569937262,284.857,28.9099,-15.8502,178.792,1.66992,-145.305,344
1569937262,284.857,28.9099,-15.8502,178.792,1.69189,-145.305,344
1569937262,284.857,28.9099,-15.8502,178.792,1.69189,-145.305,344
1569937262,284.857,28.9099,-15.8502,178.792,1.69189,-145.305,344
1569937262,284.857,28.9099,-15.8502,178.792,1.69189,-145.305,344
1569937262,284.857,28.9099,-15.8502,178.792,1.69189,-145.305,344
1569937262,284.857,28.9099,-15.8502,178.792,1.69189,-145.305,344
1569937262,284.857,28.9099,-15.8502,178.792,1.69189,-145.305,344
1569937262,284.857,28.9099,-15.8502,178.792,1.69189,-145.305,344
1569937262,284.857,28.9099,-15.8502,178.792,1.69189,-145.305,344
1569937262,284.857,28.9099,-15.8502,178.792,1.69189,-145.305,344
1569937262,284.857,28.9099,-15.8502,178.792,1.69189,-145.305,344
1569937262,284.857,28.9099,-15.8502,178.792,1.69189,-145.305,344
1569937262,284.857,28.9099,-15.7386,178.792,1.69189,-145.305,344
1569937262,284.857,28.9099,-15.7386,178.792,1.69189,-145.305,344
1569937262,284.857,28.9099,-15.7386,178.792,1.69189,-145.305,344
1569937262,284.857,28.9099,-15.7386,178.792,1.69189,-145.305,344
1569937262,284.857,28.9099,-15.7386,178.792,1.69189,-145.305,340
1569937262,284.857,28.9099,-15.7386,178.792,1.69189,-145.305,340
1569937262,284.857,28.9099,-15.7386,178.792,1.69189,-145.305,340
1569937262,284.857,28.9099,-15.7386,178.792,1.69189,-145.305,340
1569937262,284.857,28.9099,-15.7386,178.792,1.69189,-145.305,340
1569937262,284.857,28.9099,-15.7386,178.792,1.69189,-145.305,340
1569937262,284.857,28.9099,-15.7386,178.792,1.69189,-145.305,340
1569937262,284.857,28.9099,-15.7386,178.792,1.69189,-145.305,340
1569937262,284.857,28.9099,-15.7386,178.792,1.69189,-145.305,340
1569937262,284.857,28.9099,-15.7386,178.792,1.69189,-145.305,340
1569937262,284.857,28.7982,-15.7386,178.792,1.69189,-145.305,340
1569937262,284.857,28.7982,-15.7386,178.792,1.69189,-145.305,340
1569937262,284.857,28.7982,-15.7386,178.792,1.69189,-145.305,340
1569937262,284.857,28.7982,-15.8502,178.792,1.69189,-145.305,340
1569937262,284.857,28.7982,-15.8502,178.792,1.69189,-145.305,340
1569937262,284.857,28.7982,-15.8502,178.792,1.66992,-145.305,340
1569937262,284.857,28.7982,-15.8502,178.792,1.66992,-145.305,340
1569937262,284.857,28.7982,-15.8502,178.792,1.66992,-145.305,340
1569937263,284.857,28.7982,-15.8502,178.792,1.66992,-145.305,336
1569937263,284.857,28.7982,-15.8502,178.792,1.66992,-145.305,336
1569937263,284.857,28.7982,-15.8502,178.792,1.66992,-145.305,336
1569937263,284.857,28.9099,-15.8502,178.792,1.66992,-145.305,336
1569937263,284.857,28.9099,-15.8502,178.792,1.66992,-145.305,336
1569937263,284.857,28.9099,-15.8502,178.792,1.66992,-145.305,340
1569937263,284.857,28.9099,-15.8502,178.792,1.66992,-145.305,340
1569937263,284.857,28.9099,-15.8502,178.792,1.66992,-145.305,340
1569937263,284.857,28.9099,-15.8502,178.792,1.66992,-145.305,340
1569937263,284.857,28.9099,-15.8502,178.792,1.66992,-145.305,340
1569937263,284.857,28.9099,-15.8502,178.792,1.66992,-145.305,340
1569937263,284.857,28.9099,-15.8502,178.792,1.69189,-145.305,340
1569937263,284.857,28.9099,-15.8502,178.792,1.69189,-145.305,340
1569937263,284.857,28.7982,-15.8502,178.792,1.69189,-145.305,340
1569937263,284.857,28.7982,-15.8502,178.792,1.69189,-145.305,344
1569937263,284.857,28.7982,-15.8502,178.792,1.69189,-145.305,344
1569937263,284.857,28.7982,-15.8502,178.77,1.69189,-145.305,344
1569937263,284.857,28.7982,-15.7386,178.77,1.69189,-145.305,344
1569937263,284.857,28.7982,-15.7386,178.77,1.69189,-145.305,344
1569937263,284.857,28.7982,-15.7386,178.77,1.69189,-145.305,344
1569937263,284.857,28.7982,-15.7386,178.77,1.69189,-145.305,344
1569937263,284.857,28.7982,-15.7386,178.77,1.69189,-145.305,344
1569937263,284.969,28.7982,-15.7386,178.792,1.69189,-145.305,344
1569937263,284.969,28.7982,-15.7386,178.792,1.69189,-145.305,344
1569937263,284.969,28.7982,-15.7386,178.792,1.69189,-145.305,344
1569937263,284.969,28.7982,-15.7386,178.792,1.69189,-145.305,344
1569937263,284.969,28.9099,-15.7386,178.792,1.69189,-145.305,344
1569937263,284.969,28.9099,-15.7386,178.792,1.69189,-145.283,344
1569937263,284.969,28.9099,-15.7386,178.792,1.69189,-145.283,344
1569937263,284.969,28.9099,-15.7386,178.792,1.69189,-145.283,344
1569937263,284.969,28.9099,-15.7386,178.792,1.69189,-145.283,344
1569937263,284.969,28.9099,-15.7386,178.792,1.69189,-145.283,344
1569937263,284.969,28.9099,-15.7386,178.792,1.69189,-145.283,344
1569937263,284.969,28.9099,-15.7386,178.792,1.69189,-145.283,344
1569937263,284.969,28.9099,-15.7386,178.792,1.69189,-145.283,344
1569937263,284.969,28.9099,-15.7386,178.792,1.71387,-145.283,344
1569937263,284.969,28.9099,-15.7386,178.792,1.71387,-145.283,344
1569937263,284.969,28.9099,-15.7386,178.792,1.71387,-145.283,344
1569937263,284.969,28.9099,-15.7386,178.792,1.71387,-145.283,344
1569937263,284.969,28.9099,-15.7386,178.792,1.71387,-145.283,344
1569937263,284.969,28.9099,-15.7386,178.792,1.69189,-145.283,344
1569937263,284.969,28.9099,-15.7386,178.792,1.69189,-145.283,344
1569937263,284.969,28.9099,-15.7386,178.792,1.69189,-145.283,344
1569937263,284.969,28.9099,-15.7386,178.792,1.69189,-145.283,344
1569937263,284.969,28.9099,-15.7386,178.792,1.69189,-145.283,344
1569937263,284.969,28.9099,-15.7386,178.792,1.69189,-145.283,344
1569937263,284.969,28.9099,-15.7386,178.792,1.69189,-145.283,344
1569937263,284.969,28.9099,-15.7386,178.792,1.69189,-145.283,344
1569937263,284.969,28.9099,-15.7386,178.792,1.69189,-145.283,344
1569937263,284.969,28.9099,-15.7386,178.792,1.69189,-145.305,344
1569937263,284.969,28.9099,-15.7386,178.792,1.69189,-145.305,344
1569937263,284.969,28.9099,-15.7386,178.792,1.69189,-145.305,344
1569937263,284.969,28.9099,-15.7386,178.792,1.69189,-145.305,348
1569937263,284.969,28.9099,-15.7386,178.792,1.69189,-145.305,348
1569937263,284.969,28.9099,-15.7386,178.792,1.69189,-145.305,348
1569937263,284.969,28.9099,-15.7386,178.792,1.69189,-145.305,348
1569937263,284.969,28.9099,-15.7386,178.792,1.69189,-145.305,348
1569937263,284.969,28.9099,-15.7386,178.792,1.69189,-145.305,348
1569937263,284.969,28.9099,-15.7386,178.792,1.69189,-145.305,348
1569937263,284.969,28.9099,-15.7386,178.792,1.69189,-145.305,348
1569937263,284.969,28.9099,-15.7386,178.792,1.69189,-145.305,348
1569937263,284.969,28.7982,-15.7386,178.792,1.69189,-145.305,348
1569937263,284.969,28.9099,-15.7386,178.792,1.69189,-145.305,348
1569937263,284.969,28.9099,-15.7386,178.792,1.69189,-145.305,348
1569937263,284.969,28.9099,-15.7386,178.792,1.69189,-145.305,348
1569937263,284.969,28.9099,-15.7386,178.792,1.69189,-145.305,348
1569937263,284.969,28.9099,-15.7386,178.792,1.69189,-145.305,348
1569937263,284.969,28.9099,-15.7386,178.792,1.69189,-145.305,348
1569937263,284.969,28.9099,-15.7386,178.792,1.69189,-145.305,348
1569937263,284.969,28.9099,-15.8502,178.792,1.69189,-145.305,348
1569937263,284.969,28.9099,-15.8502,178.792,1.69189,-145.305,348
1569937263,284.969,28.9099,-15.8502,178.792,1.69189,-145.305,348
1569937263,284.969,28.9099,-15.8502,178.792,1.66992,-145.305,348
1569937263,284.969,28.9099,-15.8502,178.792,1.66992,-145.305,348
1569937263,284.969,28.9099,-15.8502,178.792,1.66992,-145.305,348
1569937263,284.969,28.9099,-15.8502,178.792,1.66992,-145.305,348
1569937263,284.969,28.9099,-15.8502,178.792,1.66992,-145.305,348
1569937263,284.969,28.9099,-15.8502,178.792,1.66992,-145.305,348
1569937263,284.969,28.9099,-15.8502,178.792,1.66992,-145.305,348
1569937263,284.969,28.9099,-15.8502,178.792,1.66992,-145.305,348
1569937263,284.969,28.9099,-15.8502,178.792,1.66992,-145.305,348
1569937263,284.969,28.9099,-15.8502,178.792,1.66992,-145.305,348
1569937263,284.969,28.9099,-15.8502,178.792,1.66992,-145.305,348
1569937263,284.969,28.9099,-15.8502,178.792,1.66992,-145.305,348
1569937263,284.969,28.9099,-15.8502,178.792,1.66992,-145.305,348
1569937263,284.969,28.9099,-15.8502,178.792,1.66992,-145.305,348
1569937263,284.969,28.9099,-15.8502,178.792,1.66992,-145.305,348
1569937263,284.969,28.9099,-15.8502,178.792,1.66992,-145.305,348
