time,x,y,z,ax,ay,az,q
1569683379,284.522,29.8028,-15.8502,179.055,1.71387,-145.107,408
1569683379,284.522,29.8028,-15.8502,179.055,1.71387,-145.107,408
1569683379,284.522,29.8028,-15.8502,179.055,1.71387,-145.107,408
1569683379,284.522,29.8028,-15.8502,179.055,1.71387,-145.107,408
1569683379,284.634,29.8028,-15.8502,179.055,1.71387,-145.107,408
1569683379,284.634,29.8028,-15.8502,179.055,1.71387,-145.107,408
1569683379,284.522,29.8028,-15.8502,179.055,1.71387,-145.107,404
1569683379,284.522,29.8028,-15.8502,179.055,1.71387,-145.107,404
1569683379,284.522,29.8028,-15.8502,179.055,1.71387,-145.129,404
1569683379,284.522,29.8028,-15.8502,179.055,1.71387,-145.129,404
1569683379,284.522,29.8028,-15.8502,179.055,1.71387,-145.129,404
1569683379,284.522,29.8028,-15.8502,179.055,1.71387,-145.129,408
1569683379,284.522,29.8028,-15.8502,179.055,1.71387,-145.129,408
1569683379,284.522,29.8028,-15.8502,179.055,1.71387,-145.129,408
1569683379,284.522,29.8028,-15.8502,179.055,1.71387,-145.129,408
1569683379,284.522,29.8028,-15.8502,179.055,1.71387,-145.129,408
1569683379,284.522,29.8028,-15.8502,179.055,1.71387,-145.129,408
1569683379,284.522,29.8028,-15.8502,179.055,1.73584,-145.129,408
1569683379,284.522,29.8028,-15.8502,179.055,1.73584,-145.129,408
1569683379,284.522,29.8028,-15.8502,179.055,1.73584,-145.129,408
1569683379,284.634,29.8028,-15.8502,179.055,1.73584,-145.129,408
1569683379,284.634,29.8028,-15.8502,179.055,1.73584,-145.129,408
1569683379,284.634,29.8028,-15.8502,179.055,1.73584,-145.129,404
1569683379,284.634,29.8028,-15.8502,179.055,1.71387,-145.129,404
1569683379,284.634,29.8028,-15.8502,179.055,1.71387,-145.129,404
1569683379,284.634,29.8028,-15.8502,179.055,1.71387,-145.129,404
1569683379,284.634,29.8028,-15.8502,179.055,1.71387,-145.129,404
1569683379,284.634,29.8028,-15.8502,179.055,1.71387,-145.129,404
1569683379,284.634,29.8028,-15.8502,179.033,1.71387,-145.129,404
1569683379,284.634,29.8028,-15.8502,179.033,1.71387,-145.129,404
1569683379,284.634,29.8028,-15.8502,179.033,1.71387,-145.129,404
1569683379,284.634,29.8028,-15.8502,179.033,1.71387,-145.129,404
1569683379,284.634,29.6912,-15.8502,179.033,1.71387,-145.129,404
1569683379,284.634,29.6912,-15.8502,179.033,1.71387,-145.129,404
1569683379,284.634,29.6912,-15.8502,179.033,1.71387,-145.129,404
1569683379,284.634,29.6912,-15.8502,179.033,1.71387,-145.129,400
1569683379,284.634,29.6912,-15.8502,179.033,1.71387,-145.129,400
1569683379,284.634,29.6912,-15.8502,179.033,1.71387,-145.129,400
1569683379,284.634,29.6912,-15.8502,179.033,1.71387,-145.129,400
1569683379,284.634,29.6912,-15.8502,179.033,1.71387,-145.129,400
1569683379,284.634,29.6912,-15.8502,179.033,1.71387,-145.129,400
1569683379,284.634,29.6912,-15.8502,179.033,1.71387,-145.129,400
1569683379,284.634,29.6912,-15.8502,179.033,1.71387,-145.129,400
1569683379,284.634,29.6912,-15.8502,179.033,1.71387,-145.129,400
1569683379,284.634,29.6912,-15.8502,179.033,1.71387,-145.129,400
1569683379,284.634,29.6912,-15.8502,179.011,1.69189,-145.129,400
1569683379,284.634,29.6912,-15.8502,179.011,1.69189,-145.129,400
1569683379,284.634,29.6912,-15.8502,179.011,1.69189,-145.129,400
1569683379,284.634,29.6912,-15.8502,179.011,1.69189,-145.129,400
1569683379,284.634,29.6912,-15.8502,179.011,1.69189,-145.129,400
1569683379,284.634,29.6912,-15.8502,179.033,1.69189,-145.129,400
1569683379,284.634,29.6912,-15.8502,179.033,1.69189,-145.129,400
1569683379,284.634,29.6912,-15.8502,179.033,1.69189,-145.129,400
1569683379,284.634,29.6912,-15.8502,179.033,1.69189,-145.129,400
1569683379,284.634,29.6912,-15.8502,179.033,1.69189,-145.129,400
1569683379,284.634,29.6912,-15.8502,179.033,1.71387,-145.129,400
1569683379,284.634,29.6912,-15.8502,179.033,1.71387,-145.129,400
1569683379,284.634,29.6912,-15.8502,179.033,1.71387,-145.129,400
1569683379,284.634,29.6912,-15.8502,179.033,1.71387,-145.129,400
1569683380,284.634,29.6912,-15.8502,179.033,1.71387,-145.129,400
1569683380,284.634,29.8028,-15.8502,179.033,1.69189,-145.107,400
1569683380,284.634,29.8028,-15.8502,179.033,1.71387,-145.107,400
1569683380,284.634,29.8028,-15.8502,179.033,1.69189,-145.107,400
1569683380,284.634,29.8028,-15.8502,179.033,1.69189,-145.107,400
1569683380,284.634,29.8028,-15.8502,179.033,1.71387,-145.107,400
1569683380,284.634,29.8028,-15.8502,179.033,1.71387,-145.107,400
1569683380,284.634,29.8028,-15.8502,179.033,1.71387,-145.107,400
1569683380,284.634,29.8028,-15.8502,179.033,1.71387,-145.107,400
1569683380,284.634,29.8028,-15.8502,179.033,1.71387,-145.107,400
1569683380,284.634,29.8028,-15.8502,179.033,1.71387,-145.107,400
1569683380,284.634,29.8028,-15.8502,179.033,1.71387,-145.107,400
1569683380,284.634,29.8028,-15.8502,179.033,1.71387,-145.107,400
1569683380,284.634,29.8028,-15.8502,179.033,1.71387,-145.107,400
1569683380,284.634,29.8028,-15.8502,179.033,1.71387,-145.107,400
1569683380,284.634,29.8028,-15.8502,179.033,1.71387,-145.107,400
1569683380,284.522,29.6912,-15.8502,179.033,1.71387,-145.107,400
1569683380,284.522,29.6912,-15.8502,179.033,1.71387,-145.107,404
1569683380,284.522,29.6912,-15.8502,179.033,1.71387,-145.107,404
1569683380,284.522,29.6912,-15.8502,179.033,1.71387,-145.107,404
1569683380,284.522,29.6912,-15.8502,179.033,1.71387,-145.107,404
1569683380,284.522,29.6912,-15.8502,179.033,1.71387,-145.107,404
1569683380,284.522,29.6912,-15.8502,179.033,1.71387,-145.107,404
1569683380,284.522,29.8028,-15.8502,179.033,1.71387,-145.107,404
1569683380,284.522,29.8028,-15.8502,179.033,1.71387,-145.107,404
1569683380,284.522,29.8028,-15.8502,179.033,1.71387,-145.107,404
1569683380,284.522,29.8028,-15.8502,179.033,1.71387,-145.107,404
1569683380,284.522,29.8028,-15.8502,179.033,1.71387,-145.107,404
1569683380,284.634,29.8028,-15.8502,179.055,1.71387,-145.107,404
1569683380,284.634,29.8028,-15.8502,179.055,1.71387,-145.107,404
1569683380,284.634,29.8028,-15.8502,179.055,1.71387,-145.107,404
1569683380,284.634,29.8028,-15.8502,179.055,1.71387,-145.107,404
1569683380,284.634,29.8028,-15.8502,179.055,1.71387,-145.107,404
1569683380,284.634,29.8028,-15.8502,179.055,1.71387,-145.107,404
1569683380,284.634,29.8028,-15.8502,179.055,1.71387,-145.107,404
1569683380,284.634,29.8028,-15.8502,179.055,1.71387,-145.107,404
1569683380,284.634,29.8028,-15.8502,179.033,1.71387,-145.107,404
1569683380,284.634,29.8028,-15.8502,179.033,1.71387,-145.107,404
1569683380,284.634,29.8028,-15.8502,179.033,1.71387,-145.107,404
1569683380,284.634,29.8028,-15.8502,179.033,1.71387,-145.107,404
1569683380,284.634,29.8028,-15.8502,179.033,1.71387,-145.107,404
1569683380,284.634,29.8028,-15.8502,179.033,1.71387,-145.107,404
1569683380,284.634,29.8028,-15.8502,179.033,1.71387,-145.107,404
1569683380,284.634,29.8028,-15.8502,179.033,1.71387,-145.107,404
1569683380,284.634,29.8028,-15.8502,179.033,1.71387,-145.107,404
1569683380,284.634,29.8028,-15.8502,179.033,1.71387,-145.107,404
1569683380,284.634,29.8028,-15.8502,179.033,1.71387,-145.107,404
1569683380,284.634,29.8028,-15.8502,179.033,1.71387,-145.107,400
1569683380,284.634,29.8028,-15.8502,179.033,1.71387,-145.107,400
1569683380,284.634,29.8028,-15.8502,179.033,1.71387,-145.107,400
1569683380,284.634,29.8028,-15.8502,179.033,1.71387,-145.107,400
1569683380,284.634,29.8028,-15.8502,179.033,1.71387,-145.107,400
1569683380,284.634,29.8028,-15.8502,179.033,1.71387,-145.107,400
1569683380,284.634,29.8028,-15.8502,179.033,1.71387,-145.107,400
1569683380,284.634,29.8028,-15.8502,179.033,1.71387,-145.107,400
1569683380,284.634,29.8028,-15.8502,179.033,1.71387,-145.107,400
1569683380,284.634,29.8028,-15.8502,179.055,1.71387,-145.129,396
1569683380,284.634,29.8028,-15.8502,179.055,1.71387,-145.129,396
1569683380,284.634,29.8028,-15.8502,179.055,1.71387,-145.129,396
1569683380,284.634,29.8028,-15.8502,179.055,1.71387,-145.129,396
1569683380,284.634,29.8028,-15.8502,179.055,1.71387,-145.129,396
1569683380,284.634,29.8028,-15.8502,179.055,1.71387,-145.129,396
1569683380,284.634,29.8028,-15.8502,179.055,1.71387,-145.129,396
1569683380,284.634,29.8028,-15.8502,179.055,1.71387,-145.129,396
1569683380,284.634,29.8028,-15.8502,179.055,1.71387,-145.129,396
1569683380,284.634,29.8028,-15.8502,179.055,1.71387,-145.129,396
1569683380,284.634,29.8028,-15.8502,179.055,1.71387,-145.129,396
1569683380,284.634,29.8028,-15.8502,179.055,1.71387,-145.129,396
1569683380,284.634,29.8028,-15.8502,179.055,1.71387,-145.129,392
1569683380,284.634,29.8028,-15.8502,179.055,1.71387,-145.129,392
1569683380,284.634,29.8028,-15.8502,179.055,1.71387,-145.129,392
1569683380,284.634,29.8028,-15.8502,179.055,1.71387,-145.129,392
1569683380,284.634,29.8028,-15.8502,179.055,1.71387,-145.129,392
1569683380,284.634,29.8028,-15.8502,179.055,1.71387,-145.129,392
1569683380,284.634,29.8028,-15.8502,179.055,1.71387,-145.129,392
1569683380,284.634,29.8028,-15.8502,179.055,1.71387,-145.129,392
1569683380,284.634,29.8028,-15.8502,179.055,1.71387,-145.129,392
1569683380,284.634,29.8028,-15.8502,179.055,1.71387,-145.129,392
1569683380,284.634,29.8028,-15.8502,179.055,1.71387,-145.129,392
1569683380,284.634,29.8028,-15.8502,179.055,1.71387,-145.129,392
1569683380,284.634,29.8028,-15.8502,179.055,1.71387,-145.129,392
1569683380,284.634,29.8028,-15.8502,179.055,1.71387,-145.129,396
1569683380,284.634,29.8028,-15.8502,179.055,1.71387,-145.129,396
1569683380,284.634,29.8028,-15.8502,179.055,1.71387,-145.129,396
1569683380,284.634,29.8028,-15.8502,179.055,1.71387,-145.129,396
1569683380,284.634,29.8028,-15.8502,179.055,1.71387,-145.129,396
1569683380,284.634,29.8028,-15.8502,179.055,1.71387,-145.129,396
1569683380,284.634,29.8028,-15.8502,179.055,1.71387,-145.129,396
1569683380,284.634,29.8028,-15.8502,179.055,1.73584,-145.129,396
1569683380,284.634,29.8028,-15.8502,179.055,1.73584,-145.129,396
1569683380,284.634,29.8028,-15.8502,179.055,1.73584,-145.129,396
1569683380,284.634,29.8028,-15.8502,179.055,1.73584,-145.129,396
1569683380,284.634,29.8028,-15.8502,179.055,1.73584,-145.129,396
1569683380,284.634,29.8028,-15.8502,179.055,1.73584,-145.129,396
1569683380,284.634,29.8028,-15.8502,179.055,1.73584,-145.129,396
1569683380,284.634,29.8028,-15.8502,179.055,1.73584,-145.129,396
1569683380,284.634,29.8028,-15.8502,179.055,1.73584,-145.129,396
1569683380,284.634,29.8028,-15.8502,179.055,1.73584,-145.129,396
1569683380,284.634,29.8028,-15.8502,179.033,1.73584,-145.129,396
1569683380,284.634,29.8028,-15.8502,179.033,1.73584,-145.129,396
1569683381,284.634,29.8028,-15.8502,179.033,1.73584,-145.129,396
1569683381,284.634,29.8028,-15.8502,179.033,1.73584,-145.129,396
1569683381,284.634,29.8028,-15.8502,179.033,1.73584,-145.129,396
1569683381,284.634,29.8028,-15.8502,179.033,1.73584,-145.129,396
1569683381,284.634,29.8028,-15.8502,179.033,1.73584,-145.129,396
1569683381,284.634,29.8028,-15.8502,179.033,1.73584,-145.129,396
1569683381,284.634,29.8028,-15.8502,179.033,1.73584,-145.129,396
1569683381,284.634,29.8028,-15.8502,179.033,1.73584,-145.129,396
1569683381,284.634,29.8028,-15.8502,179.033,1.73584,-145.129,396
1569683381,284.634,29.8028,-15.8502,179.033,1.73584,-145.129,396
1569683381,284.634,29.8028,-15.8502,179.033,1.73584,-145.129,396
1569683381,284.634,29.8028,-15.8502,179.033,1.73584,-145.129,396
1569683381,284.634,29.8028,-15.8502,179.033,1.71387,-145.129,396
1569683381,284.634,29.8028,-15.8502,179.033,1.71387,-145.129,396
1569683381,284.634,29.8028,-15.8502,179.033,1.71387,-145.129,396
1569683381,284.634,29.8028,-15.8502,179.033,1.71387,-145.129,396
1569683381,284.634,29.8028,-15.8502,179.033,1.71387,-145.129,396
1569683381,284.634,29.8028,-15.8502,179.033,1.71387,-145.129,396
1569683381,284.634,29.8028,-15.8502,179.033,1.71387,-145.129,396
1569683381,284.634,29.8028,-15.8502,179.033,1.71387,-145.129,396
1569683381,284.634,29.8028,-15.8502,179.033,1.71387,-145.129,396
1569683381,284.634,29.8028,-15.8502,179.033,1.71387,-145.129,396
1569683381,284.634,29.8028,-15.8502,179.033,1.71387,-145.129,396
1569683381,284.634,29.8028,-15.8502,179.033,1.71387,-145.129,396
1569683381,284.634,29.8028,-15.8502,179.033,1.71387,-145.129,396
1569683381,284.634,29.8028,-15.8502,179.033,1.71387,-145.129,396
1569683381,284.634,29.8028,-15.8502,179.033,1.71387,-145.129,396
1569683381,284.634,29.8028,-15.8502,179.033,1.71387,-145.129,396
1569683381,284.634,29.8028,-15.8502,179.033,1.71387,-145.129,396
1569683381,284.634,29.8028,-15.8502,179.033,1.71387,-145.129,396
1569683381,284.634,29.8028,-15.8502,179.033,1.71387,-145.129,396
1569683381,284.634,29.8028,-15.8502,179.033,1.71387,-145.129,396
1569683381,284.634,29.8028,-15.8502,179.033,1.71387,-145.129,396
1569683381,284.634,29.8028,-15.8502,179.033,1.71387,-145.129,396
1569683381,284.634,29.8028,-15.8502,179.055,1.71387,-145.129,396
1569683381,284.634,29.8028,-15.8502,179.055,1.71387,-145.129,396
1569683381,284.634,29.8028,-15.8502,179.055,1.71387,-145.129,396
1569683381,284.634,29.8028,-15.8502,179.055,1.71387,-145.129,396
1569683381,284.634,29.8028,-15.8502,179.055,1.71387,-145.129,396
1569683381,284.634,29.8028,-15.8502,179.055,1.71387,-145.129,396
1569683381,284.634,29.8028,-15.8502,179.055,1.71387,-145.129,396
1569683381,284.634,29.8028,-15.8502,179.055,1.71387,-145.129,396
1569683381,284.634,29.8028,-15.8502,179.055,1.71387,-145.129,396
1569683381,284.634,29.8028,-15.8502,179.055,1.71387,-145.129,396
1569683381,284.634,29.8028,-15.8502,179.055,1.71387,-145.129,396
1569683381,284.634,29.8028,-15.8502,179.055,1.71387,-145.129,396
1569683381,284.634,29.8028,-15.8502,179.055,1.71387,-145.129,396
1569683381,284.634,29.8028,-15.8502,179.055,1.71387,-145.129,396
1569683381,284.634,29.8028,-15.8502,179.033,1.71387,-145.129,396
1569683381,284.634,29.8028,-15.8502,179.033,1.71387,-145.129,396
1569683381,284.634,29.8028,-15.8502,179.033,1.71387,-145.129,396
1569683381,284.634,29.8028,-15.8502,179.033,1.71387,-145.129,396
1569683381,284.634,29.8028,-15.8502,179.033,1.71387,-145.129,396
1569683381,284.634,29.8028,-15.8502,179.033,1.71387,-145.129,396
1569683381,284.634,29.8028,-15.8502,179.033,1.71387,-145.129,396
1569683381,284.634,29.8028,-15.8502,179.033,1.71387,-145.129,396
1569683381,284.634,29.8028,-15.8502,179.033,1.73584,-145.129,396
1569683381,284.634,29.6912,-15.8502,179.033,1.73584,-145.129,396
1569683381,284.634,29.6912,-15.8502,179.033,1.73584,-145.129,396
1569683381,284.634,29.6912,-15.8502,179.033,1.73584,-145.129,396
1569683381,284.634,29.6912,-15.8502,179.033,1.73584,-145.129,396
1569683381,284.634,29.6912,-15.8502,179.033,1.73584,-145.129,396
1569683381,284.634,29.6912,-15.8502,179.033,1.73584,-145.129,396
1569683381,284.634,29.6912,-15.8502,179.033,1.73584,-145.129,396
1569683381,284.634,29.6912,-15.8502,179.011,1.73584,-145.129,396
1569683381,284.634,29.6912,-15.8502,179.011,1.73584,-145.129,396
1569683381,284.634,29.6912,-15.8502,179.011,1.73584,-145.129,396
1569683381,284.634,29.6912,-15.8502,179.011,1.73584,-145.129,400
1569683381,284.634,29.6912,-15.8502,179.011,1.71387,-145.129,400
1569683381,284.634,29.6912,-15.8502,179.011,1.71387,-145.129,400
1569683381,284.634,29.6912,-15.8502,179.011,1.71387,-145.129,400
1569683381,284.634,29.6912,-15.8502,179.011,1.71387,-145.129,400
1569683381,284.634,29.6912,-15.8502,179.011,1.71387,-145.129,400
1569683381,284.634,29.6912,-15.8502,179.011,1.71387,-145.129,400
1569683381,284.634,29.6912,-15.8502,179.011,1.71387,-145.129,404
1569683381,284.522,29.6912,-15.8502,179.011,1.73584,-145.129,404
1569683381,284.522,29.6912,-15.8502,179.011,1.73584,-145.129,404
1569683381,284.522,29.6912,-15.8502,179.011,1.73584,-145.129,404
1569683381,284.522,29.6912,-15.8502,179.033,1.71387,-145.129,404
1569683381,284.522,29.6912,-15.8502,179.033,1.71387,-145.129,404
1569683381,284.522,29.6912,-15.8502,179.033,1.71387,-145.129,404
1569683381,284.522,29.6912,-15.8502,179.033,1.71387,-145.129,408
1569683381,284.522,29.6912,-15.8502,179.033,1.71387,-145.129,408
1569683381,284.522,29.6912,-15.8502,179.033,1.71387,-145.129,408
1569683381,284.522,29.6912,-15.8502,179.033,1.71387,-145.129,408
1569683381,284.522,29.8028,-15.8502,179.033,1.71387,-145.129,408
1569683381,284.522,29.8028,-15.8502,179.033,1.71387,-145.129,408
1569683381,284.522,29.8028,-15.8502,179.033,1.71387,-145.129,408
1569683381,284.522,29.8028,-15.8502,179.033,1.71387,-145.129,408
1569683381,284.522,29.8028,-15.8502,179.033,1.71387,-145.129,408
1569683381,284.522,29.8028,-15.8502,179.033,1.71387,-145.129,408
1569683381,284.522,29.8028,-15.8502,179.033,1.71387,-145.129,408
1569683381,284.522,29.8028,-15.8502,179.033,1.71387,-145.129,408
1569683381,284.522,29.8028,-15.8502,179.033,1.71387,-145.129,408
1569683381,284.522,29.8028,-15.8502,179.055,1.71387,-145.129,408
1569683381,284.634,29.8028,-15.8502,179.055,1.71387,-145.129,408
1569683381,284.634,29.8028,-15.8502,179.055,1.71387,-145.129,408
1569683381,284.634,29.8028,-15.8502,179.055,1.71387,-145.107,408
1569683381,284.634,29.8028,-15.8502,179.055,1.71387,-145.107,408
1569683381,284.634,29.8028,-15.8502,179.055,1.71387,-145.107,408
1569683382,284.634,29.8028,-15.8502,179.055,1.71387,-145.107,408
1569683382,284.634,29.8028,-15.8502,179.055,1.71387,-145.107,408
1569683382,284.634,29.8028,-15.8502,179.055,1.71387,-145.107,408
1569683382,284.634,29.8028,-15.8502,179.033,1.71387,-145.107,404
1569683382,284.634,29.8028,-15.8502,179.033,1.71387,-145.107,404
1569683382,284.634,29.8028,-15.8502,179.033,1.71387,-145.107,404
1569683382,284.634,29.8028,-15.8502,179.033,1.71387,-145.107,404
1569683382,284.634,29.8028,-15.8502,179.033,1.71387,-145.107,404
1569683382,284.634,29.8028,-15.8502,179.033,1.71387,-145.107,404
1569683382,284.634,29.8028,-15.8502,179.033,1.71387,-145.107,400
1569683382,284.634,29.8028,-15.8502,179.033,1.71387,-145.107,400
1569683382,284.634,29.8028,-15.8502,179.033,1.71387,-145.107,400
1569683382,284.634,29.8028,-15.8502,179.033,1.71387,-145.107,400
1569683382,284.634,29.6912,-15.8502,179.033,1.71387,-145.107,400
1569683382,284.634,29.6912,-15.8502,179.033,1.71387,-145.107,400
1569683382,284.634,29.6912,-15.8502,179.033,1.71387,-145.107,400
1569683382,284.634,29.6912,-15.8502,179.033,1.71387,-145.107,400
1569683382,284.634,29.6912,-15.8502,179.033,1.71387,-145.107,400
1569683382,284.634,29.6912,-15.8502,179.033,1.71387,-145.107,400
1569683382,284.634,29.8028,-15.8502,179.033,1.71387,-145.107,400
1569683382,284.634,29.8028,-15.8502,179.033,1.71387,-145.107,400
1569683382,284.634,29.8028,-15.8502,179.033,1.71387,-145.107,400
1569683382,284.634,29.8028,-15.8502,179.033,1.71387,-145.107,400
1569683382,284.634,29.8028,-15.8502,179.033,1.71387,-145.107,400
1569683382,284.634,29.8028,-15.8502,179.033,1.71387,-145.129,400
1569683382,284.634,29.8028,-15.8502,179.033,1.71387,-145.129,400
1569683382,284.634,29.8028,-15.8502,179.033,1.71387,-145.129,400
1569683382,284.634,29.8028,-15.8502,179.033,1.71387,-145.129,400
1569683382,284.634,29.8028,-15.8502,179.033,1.71387,-145.129,400
1569683382,284.634,29.8028,-15.8502,179.033,1.71387,-145.129,400
1569683382,284.634,29.8028,-15.8502,179.033,1.71387,-145.129,400
1569683382,284.634,29.6912,-15.8502,179.033,1.71387,-145.129,400
1569683382,284.634,29.6912,-15.8502,179.033,1.71387,-145.129,400
1569683382,284.634,29.6912,-15.8502,179.033,1.71387,-145.129,400
1569683382,284.634,29.8028,-15.8502,179.033,1.73584,-145.129,400
1569683382,284.634,29.8028,-15.8502,179.033,1.73584,-145.129,400
1569683382,284.634,29.8028,-15.8502,179.033,1.73584,-145.129,400
1569683382,284.634,29.8028,-15.8502,179.033,1.71387,-145.129,400
1569683382,284.634,29.8028,-15.8502,179.033,1.71387,-145.107,400
1569683382,284.634,29.8028,-15.8502,179.033,1.71387,-145.107,400
1569683382,284.634,29.8028,-15.8502,179.033,1.71387,-145.107,400
1569683382,284.634,29.8028,-15.8502,179.033,1.71387,-145.129,400
1569683382,284.634,29.8028,-15.8502,179.033,1.71387,-145.129,400
1569683382,284.634,29.8028,-15.8502,179.033,1.71387,-145.129,400
1569683382,284.634,29.8028,-15.8502,179.033,1.71387,-145.129,400
1569683382,284.634,29.8028,-15.8502,179.033,1.71387,-145.129,400
1569683382,284.634,29.8028,-15.8502,179.033,1.71387,-145.129,400
1569683382,284.634,29.8028,-15.8502,179.033,1.71387,-145.129,400
1569683382,284.634,29.8028,-15.8502,179.033,1.71387,-145.129,400
1569683382,284.634,29.8028,-15.8502,179.033,1.71387,-145.129,400
1569683382,284.634,29.8028,-15.8502,179.033,1.71387,-145.129,400
1569683382,284.634,29.8028,-15.8502,179.033,1.71387,-145.129,400
1569683382,284.634,29.8028,-15.8502,179.033,1.71387,-145.129,400
1569683382,284.634,29.8028,-15.8502,179.033,1.71387,-145.129,400
1569683382,284.634,29.8028,-15.8502,179.033,1.71387,-145.129,400
1569683382,284.634,29.8028,-15.8502,179.033,1.71387,-145.129,400
1569683382,284.634,29.8028,-15.8502,179.033,1.71387,-145.129,400
1569683382,284.634,29.8028,-15.8502,179.033,1.71387,-145.129,400
1569683382,284.634,29.8028,-15.8502,179.033,1.71387,-145.129,400
1569683382,284.634,29.8028,-15.8502,179.033,1.71387,-145.129,400
1569683382,284.634,29.8028,-15.8502,179.033,1.71387,-145.129,400
1569683382,284.634,29.8028,-15.8502,179.033,1.71387,-145.129,400
1569683382,284.634,29.8028,-15.8502,179.033,1.71387,-145.129,400
1569683382,284.634,29.8028,-15.8502,179.033,1.71387,-145.129,400
1569683382,284.634,29.8028,-15.8502,179.033,1.71387,-145.129,400
1569683382,284.634,29.8028,-15.8502,179.033,1.71387,-145.129,400
1569683382,284.634,29.8028,-15.8502,179.033,1.71387,-145.129,400
1569683382,284.634,29.8028,-15.8502,179.033,1.71387,-145.129,400
1569683382,284.634,29.8028,-15.8502,179.033,1.71387,-145.129,400
1569683382,284.634,29.8028,-15.8502,179.033,1.71387,-145.129,400
1569683382,284.634,29.8028,-15.8502,179.033,1.71387,-145.129,400
1569683382,284.634,29.8028,-15.8502,179.033,1.71387,-145.129,400
1569683382,284.634,29.8028,-15.8502,179.033,1.71387,-145.129,400
1569683382,284.522,29.8028,-15.8502,179.033,1.73584,-145.129,404
1569683382,284.522,29.8028,-15.8502,179.033,1.73584,-145.129,404
1569683382,284.522,29.8028,-15.8502,179.033,1.73584,-145.129,404
1569683382,284.522,29.8028,-15.8502,179.033,1.73584,-145.129,404
1569683382,284.522,29.8028,-15.8502,179.033,1.73584,-145.129,404
1569683382,284.522,29.8028,-15.8502,179.033,1.73584,-145.129,404
1569683382,284.522,29.8028,-15.8502,179.055,1.73584,-145.129,404
1569683382,284.522,29.8028,-15.8502,179.055,1.73584,-145.129,404
1569683382,284.522,29.8028,-15.8502,179.055,1.73584,-145.129,404
1569683382,284.522,29.8028,-15.8502,179.055,1.73584,-145.129,404
1569683382,284.522,29.8028,-15.8502,179.055,1.73584,-145.129,404
1569683382,284.522,29.8028,-15.8502,179.055,1.73584,-145.129,404
1569683382,284.522,29.8028,-15.8502,179.055,1.73584,-145.129,404
1569683382,284.522,29.8028,-15.8502,179.055,1.73584,-145.129,404
1569683382,284.522,29.8028,-15.8502,179.055,1.73584,-145.129,404
1569683382,284.522,29.8028,-15.8502,179.055,1.73584,-145.129,400
1569683382,284.522,29.8028,-15.8502,179.055,1.73584,-145.129,400
1569683382,284.522,29.8028,-15.8502,179.055,1.73584,-145.129,400
1569683382,284.522,29.8028,-15.8502,179.055,1.71387,-145.129,400
1569683382,284.522,29.8028,-15.8502,179.055,1.71387,-145.129,400
1569683382,284.522,29.8028,-15.8502,179.055,1.71387,-145.129,400
1569683382,284.522,29.8028,-15.8502,179.055,1.71387,-145.129,400
1569683382,284.522,29.8028,-15.8502,179.055,1.71387,-145.129,400
1569683382,284.522,29.8028,-15.8502,179.055,1.71387,-145.129,400
1569683382,284.522,29.8028,-15.8502,179.055,1.71387,-145.129,404
1569683382,284.522,29.8028,-15.8502,179.055,1.71387,-145.129,404
1569683382,284.522,29.8028,-15.8502,179.055,1.71387,-145.129,404
1569683383,284.522,29.8028,-15.8502,179.055,1.71387,-145.129,404
1569683383,284.522,29.8028,-15.8502,179.055,1.71387,-145.129,404
1569683383,284.522,29.8028,-15.8502,179.055,1.71387,-145.129,404
1569683383,284.522,29.8028,-15.8502,179.055,1.71387,-145.129,404
1569683383,284.522,29.8028,-15.8502,179.055,1.71387,-145.129,404
1569683383,284.522,29.8028,-15.8502,179.055,1.71387,-145.129,404
1569683383,284.522,29.8028,-15.8502,179.055,1.71387,-145.129,404
1569683383,284.522,29.8028,-15.8502,179.055,1.71387,-145.129,404
1569683383,284.522,29.8028,-15.8502,179.055,1.71387,-145.129,404
1569683383,284.522,29.8028,-15.8502,179.055,1.71387,-145.129,404
1569683383,284.522,29.8028,-15.8502,179.055,1.73584,-145.129,404
1569683383,284.522,29.8028,-15.8502,179.055,1.73584,-145.129,404
1569683383,284.522,29.8028,-15.8502,179.055,1.73584,-145.129,404
1569683383,284.522,29.8028,-15.8502,179.055,1.73584,-145.129,404
1569683383,284.522,29.8028,-15.8502,179.055,1.73584,-145.129,404
1569683383,284.522,29.8028,-15.8502,179.055,1.73584,-145.129,404
1569683383,284.522,29.8028,-15.8502,179.055,1.73584,-145.129,404
1569683383,284.522,29.8028,-15.8502,179.055,1.73584,-145.129,404
1569683383,284.522,29.8028,-15.8502,179.055,1.73584,-145.129,404
1569683383,284.522,29.8028,-15.8502,179.055,1.73584,-145.129,404
1569683383,284.634,29.8028,-15.8502,179.055,1.73584,-145.129,400
1569683383,284.634,29.8028,-15.8502,179.055,1.71387,-145.129,400
1569683383,284.634,29.8028,-15.8502,179.055,1.71387,-145.129,400
1569683383,284.634,29.8028,-15.8502,179.055,1.71387,-145.129,400
1569683383,284.634,29.8028,-15.8502,179.055,1.71387,-145.129,400
1569683383,284.634,29.8028,-15.8502,179.055,1.71387,-145.129,400
1569683383,284.634,29.8028,-15.8502,179.055,1.71387,-145.129,400
1569683383,284.634,29.8028,-15.8502,179.033,1.71387,-145.129,400
1569683383,284.634,29.8028,-15.8502,179.033,1.71387,-145.129,396
1569683383,284.634,29.8028,-15.8502,179.033,1.71387,-145.129,396
1569683383,284.634,29.8028,-15.8502,179.033,1.71387,-145.129,396
1569683383,284.634,29.8028,-15.8502,179.033,1.71387,-145.129,396
1569683383,284.634,29.8028,-15.8502,179.033,1.71387,-145.129,396
1569683383,284.634,29.8028,-15.8502,179.033,1.71387,-145.129,396
1569683383,284.634,29.8028,-15.8502,179.033,1.73584,-145.129,396
1569683383,284.634,29.8028,-15.8502,179.033,1.73584,-145.129,396
1569683383,284.634,29.8028,-15.8502,179.033,1.73584,-145.129,396
1569683383,284.634,29.8028,-15.8502,179.033,1.73584,-145.129,396
1569683383,284.634,29.8028,-15.8502,179.033,1.73584,-145.129,396
1569683383,284.634,29.8028,-15.8502,179.033,1.73584,-145.129,396
1569683383,284.634,29.8028,-15.8502,179.033,1.73584,-145.129,396
1569683383,284.634,29.8028,-15.8502,179.033,1.71387,-145.129,396
1569683383,284.634,29.8028,-15.8502,179.033,1.71387,-145.129,396
1569683383,284.634,29.8028,-15.8502,179.055,1.71387,-145.129,396
1569683383,284.634,29.8028,-15.8502,179.055,1.71387,-145.129,396
1569683383,284.634,29.8028,-15.8502,179.055,1.73584,-145.129,396
1569683383,284.634,29.8028,-15.8502,179.055,1.73584,-145.129,396
1569683383,284.634,29.8028,-15.8502,179.055,1.73584,-145.129,396
1569683383,284.634,29.8028,-15.8502,179.055,1.73584,-145.129,396
1569683383,284.634,29.8028,-15.8502,179.055,1.73584,-145.129,396
1569683383,284.634,29.8028,-15.8502,179.055,1.73584,-145.129,396
1569683383,284.634,29.8028,-15.8502,179.055,1.73584,-145.129,396
1569683383,284.634,29.8028,-15.8502,179.055,1.73584,-145.129,396
1569683383,284.634,29.8028,-15.8502,179.055,1.73584,-145.129,396
1569683383,284.634,29.8028,-15.8502,179.055,1.73584,-145.129,400
1569683383,284.634,29.8028,-15.8502,179.055,1.73584,-145.129,400
1569683383,284.634,29.8028,-15.8502,179.055,1.71387,-145.129,400
1569683383,284.634,29.8028,-15.8502,179.055,1.71387,-145.129,400
1569683383,284.634,29.8028,-15.8502,179.055,1.73584,-145.129,400
1569683383,284.634,29.8028,-15.8502,179.055,1.73584,-145.107,400
1569683383,284.634,29.8028,-15.8502,179.033,1.73584,-145.107,400
1569683383,284.634,29.8028,-15.8502,179.033,1.73584,-145.107,400
1569683383,284.634,29.8028,-15.8502,179.033,1.73584,-145.107,400
1569683383,284.634,29.8028,-15.8502,179.033,1.73584,-145.107,400
1569683383,284.634,29.8028,-15.8502,179.033,1.73584,-145.107,400
1569683383,284.634,29.8028,-15.8502,179.033,1.73584,-145.107,400
1569683383,284.634,29.8028,-15.8502,179.033,1.73584,-145.107,396
1569683383,284.634,29.8028,-15.8502,179.033,1.73584,-145.129,396
1569683383,284.634,29.8028,-15.8502,179.033,1.73584,-145.129,396
1569683383,284.634,29.8028,-15.8502,179.033,1.73584,-145.129,396
1569683383,284.634,29.8028,-15.8502,179.033,1.73584,-145.129,396
1569683383,284.634,29.8028,-15.8502,179.033,1.73584,-145.129,396
1569683383,284.522,29.8028,-15.8502,179.033,1.73584,-145.129,396
1569683383,284.522,29.6912,-15.8502,179.033,1.73584,-145.129,400
1569683383,284.522,29.6912,-15.8502,179.033,1.73584,-145.129,400
1569683383,284.522,29.6912,-15.8502,179.033,1.73584,-145.129,400
1569683383,284.522,29.6912,-15.8502,179.033,1.73584,-145.129,400
1569683383,284.522,29.6912,-15.8502,179.033,1.73584,-145.129,400
1569683383,284.522,29.6912,-15.8502,179.033,1.73584,-145.129,400
1569683383,284.522,29.6912,-15.8502,179.033,1.73584,-145.129,400
1569683383,284.522,29.8028,-15.8502,179.033,1.73584,-145.129,400
1569683383,284.522,29.8028,-15.8502,179.033,1.73584,-145.129,400
1569683383,284.522,29.8028,-15.8502,179.033,1.73584,-145.129,400
1569683383,284.522,29.8028,-15.8502,179.033,1.73584,-145.129,400
1569683383,284.522,29.8028,-15.8502,179.033,1.73584,-145.129,400
1569683383,284.522,29.8028,-15.8502,179.033,1.73584,-145.129,400
1569683383,284.522,29.8028,-15.8502,179.033,1.73584,-145.129,400
1569683383,284.522,29.8028,-15.8502,179.033,1.73584,-145.129,400
1569683383,284.522,29.8028,-15.8502,179.033,1.73584,-145.129,400
1569683383,284.522,29.8028,-15.8502,179.033,1.75781,-145.129,400
1569683383,284.522,29.8028,-15.7386,179.033,1.75781,-145.129,400
1569683383,284.522,29.8028,-15.7386,179.033,1.75781,-145.129,400
1569683383,284.522,29.8028,-15.7386,179.033,1.75781,-145.129,400
1569683383,284.522,29.8028,-15.7386,179.033,1.73584,-145.129,400
1569683383,284.522,29.8028,-15.8502,179.033,1.73584,-145.129,400
1569683383,284.522,29.8028,-15.8502,179.033,1.73584,-145.129,400
1569683383,284.522,29.8028,-15.8502,179.033,1.73584,-145.129,400
1569683383,284.522,29.8028,-15.8502,179.033,1.73584,-145.129,400
1569683383,284.522,29.8028,-15.8502,179.033,1.73584,-145.129,400
1569683383,284.522,29.8028,-15.8502,179.033,1.73584,-145.129,400
1569683384,284.522,29.8028,-15.8502,179.033,1.73584,-145.129,400
1569683384,284.522,29.8028,-15.8502,179.033,1.73584,-145.129,400
1569683384,284.522,29.8028,-15.8502,179.033,1.73584,-145.129,400
1569683384,284.522,29.8028,-15.8502,179.033,1.73584,-145.129,400
1569683384,284.522,29.8028,-15.8502,179.033,1.73584,-145.129,400
1569683384,284.522,29.8028,-15.8502,179.033,1.73584,-145.129,400
1569683384,284.522,29.8028,-15.8502,179.033,1.73584,-145.129,400
1569683384,284.522,29.8028,-15.8502,179.033,1.73584,-145.129,400
1569683384,284.522,29.8028,-15.8502,179.033,1.71387,-145.129,400
1569683384,284.522,29.8028,-15.8502,179.033,1.71387,-145.129,400
1569683384,284.522,29.8028,-15.8502,179.033,1.71387,-145.129,400
1569683384,284.522,29.8028,-15.8502,179.033,1.71387,-145.129,400
1569683384,284.522,29.8028,-15.8502,179.033,1.71387,-145.129,400
1569683384,284.522,29.8028,-15.8502,179.033,1.71387,-145.129,400
1569683384,284.522,29.8028,-15.8502,179.033,1.71387,-145.129,400
1569683384,284.522,29.8028,-15.8502,179.033,1.71387,-145.129,400
1569683384,284.522,29.6912,-15.8502,179.033,1.71387,-145.129,400
1569683384,284.522,29.6912,-15.8502,179.033,1.71387,-145.129,400
1569683384,284.522,29.6912,-15.8502,179.033,1.71387,-145.129,400
1569683384,284.522,29.6912,-15.8502,179.033,1.71387,-145.107,400
1569683384,284.522,29.6912,-15.8502,179.033,1.73584,-145.107,400
1569683384,284.522,29.6912,-15.8502,179.033,1.73584,-145.107,400
1569683384,284.522,29.6912,-15.8502,179.033,1.73584,-145.107,400
1569683384,284.522,29.6912,-15.8502,179.033,1.73584,-145.107,400
1569683384,284.522,29.6912,-15.8502,179.033,1.73584,-145.107,400
1569683384,284.522,29.6912,-15.8502,179.033,1.73584,-145.107,400
1569683384,284.522,29.6912,-15.8502,179.033,1.73584,-145.107,400
1569683384,284.522,29.6912,-15.8502,179.033,1.73584,-145.107,400
1569683384,284.634,29.6912,-15.8502,179.033,1.73584,-145.107,400
1569683384,284.634,29.6912,-15.8502,179.033,1.73584,-145.107,400
1569683384,284.634,29.6912,-15.8502,179.033,1.73584,-145.107,400
1569683384,284.634,29.6912,-15.8502,179.033,1.73584,-145.107,400
1569683384,284.634,29.6912,-15.8502,179.033,1.73584,-145.107,400
1569683384,284.634,29.6912,-15.8502,179.033,1.73584,-145.107,400
1569683384,284.634,29.6912,-15.8502,179.033,1.73584,-145.129,400
1569683384,284.634,29.6912,-15.8502,179.033,1.73584,-145.129,400
1569683384,284.634,29.6912,-15.8502,179.033,1.73584,-145.129,400
1569683384,284.634,29.6912,-15.8502,179.033,1.73584,-145.129,400
1569683384,284.634,29.6912,-15.8502,179.033,1.73584,-145.129,400
1569683384,284.634,29.6912,-15.8502,179.033,1.71387,-145.129,400
1569683384,284.634,29.6912,-15.8502,179.033,1.71387,-145.129,400
1569683388,299.814,13.5062,-15.7386,179.143,1.53809,-144.844,408
1569683388,299.814,13.5062,-15.7386,179.143,1.53809,-144.844,408
1569683388,299.814,13.5062,-15.7386,179.143,1.53809,-144.844,408
1569683388,299.814,13.5062,-15.7386,179.143,1.53809,-144.844,408
1569683388,299.814,13.5062,-15.7386,179.143,1.53809,-144.844,408
1569683388,299.814,13.5062,-15.7386,179.143,1.53809,-144.844,408
1569683388,299.814,13.5062,-15.7386,179.143,1.53809,-144.844,408
1569683388,299.814,13.5062,-15.7386,179.143,1.53809,-144.866,408
1569683388,299.814,13.5062,-15.7386,179.143,1.53809,-144.866,408
1569683388,299.814,13.5062,-15.7386,179.143,1.53809,-144.866,408
1569683388,299.814,13.5062,-15.7386,179.143,1.53809,-144.866,408
1569683388,299.814,13.5062,-15.7386,179.143,1.53809,-144.866,408
1569683388,299.814,13.5062,-15.7386,179.165,1.53809,-144.866,408
1569683388,299.814,13.5062,-15.7386,179.165,1.53809,-144.866,408
1569683388,299.814,13.5062,-15.7386,179.165,1.53809,-144.866,408
1569683388,299.814,13.5062,-15.7386,179.165,1.53809,-144.866,408
1569683388,299.814,13.5062,-15.7386,179.165,1.53809,-144.866,408
1569683388,299.814,13.5062,-15.7386,179.165,1.53809,-144.866,408
1569683388,299.814,13.5062,-15.7386,179.165,1.53809,-144.866,408
1569683388,299.814,13.5062,-15.7386,179.165,1.53809,-144.866,408
1569683388,299.814,13.5062,-15.7386,179.165,1.53809,-144.866,408
1569683388,299.814,13.5062,-15.7386,179.165,1.53809,-144.866,412
1569683388,299.814,13.5062,-15.7386,179.165,1.53809,-144.866,412
1569683388,299.814,13.5062,-15.7386,179.165,1.53809,-144.866,412
1569683388,299.814,13.5062,-15.7386,179.165,1.53809,-144.866,412
1569683388,299.814,13.5062,-15.7386,179.165,1.53809,-144.866,412
1569683388,299.814,13.5062,-15.7386,179.165,1.53809,-144.866,416
1569683388,299.814,13.5062,-15.7386,179.165,1.53809,-144.866,416
1569683388,299.814,13.5062,-15.7386,179.165,1.53809,-144.866,416
1569683388,299.814,13.5062,-15.7386,179.165,1.53809,-144.866,416
1569683388,299.814,13.5062,-15.7386,179.165,1.53809,-144.866,416
1569683388,299.814,13.5062,-15.7386,179.165,1.53809,-144.866,416
1569683388,299.814,13.5062,-15.7386,179.165,1.53809,-144.866,416
1569683388,299.814,13.5062,-15.7386,179.165,1.53809,-144.866,416
1569683388,299.814,13.5062,-15.7386,179.165,1.56006,-144.866,416
1569683388,299.814,13.5062,-15.7386,179.165,1.56006,-144.866,416
1569683388,299.814,13.5062,-15.7386,179.165,1.56006,-144.866,416
1569683388,299.814,13.5062,-15.7386,179.165,1.56006,-144.866,416
1569683388,299.814,13.5062,-15.7386,179.165,1.56006,-144.866,416
1569683388,299.814,13.5062,-15.7386,179.165,1.56006,-144.866,416
1569683388,299.814,13.5062,-15.627,179.165,1.56006,-144.866,416
1569683388,299.814,13.5062,-15.627,179.165,1.56006,-144.866,416
1569683388,299.814,13.5062,-15.627,179.165,1.56006,-144.866,412
1569683388,299.814,13.5062,-15.627,179.165,1.56006,-144.866,412
1569683388,299.814,13.5062,-15.7386,179.165,1.56006,-144.866,412
1569683388,299.814,13.5062,-15.7386,179.165,1.56006,-144.866,412
1569683389,299.814,13.5062,-15.7386,179.165,1.56006,-144.866,412
1569683389,299.814,13.5062,-15.7386,179.165,1.53809,-144.866,412
1569683389,299.814,13.5062,-15.7386,179.165,1.53809,-144.866,412
1569683389,299.814,13.5062,-15.7386,179.165,1.53809,-144.866,412
1569683389,299.814,13.5062,-15.7386,179.165,1.53809,-144.866,412
1569683389,299.814,13.5062,-15.7386,179.165,1.53809,-144.866,412
1569683389,299.814,13.5062,-15.7386,179.165,1.53809,-144.866,412
1569683389,299.814,13.5062,-15.7386,179.165,1.53809,-144.866,412
1569683389,299.814,13.5062,-15.7386,179.165,1.53809,-144.866,412
1569683389,299.814,13.5062,-15.7386,179.165,1.53809,-144.866,412
1569683389,299.814,13.5062,-15.7386,179.165,1.53809,-144.866,412
1569683389,299.814,13.5062,-15.7386,179.165,1.53809,-144.866,412
1569683389,299.814,13.5062,-15.7386,179.165,1.53809,-144.866,412
1569683389,299.814,13.5062,-15.7386,179.165,1.53809,-144.866,412
1569683389,299.814,13.5062,-15.7386,179.165,1.53809,-144.866,412
1569683389,299.814,13.5062,-15.7386,179.165,1.53809,-144.866,412
1569683389,299.814,13.5062,-15.7386,179.165,1.53809,-144.866,412
1569683389,299.814,13.5062,-15.7386,179.165,1.53809,-144.866,412
1569683389,299.814,13.5062,-15.7386,179.165,1.53809,-144.866,412
1569683389,299.814,13.5062,-15.7386,179.165,1.53809,-144.866,412
1569683389,299.814,13.5062,-15.7386,179.165,1.53809,-144.866,412
1569683389,299.814,13.5062,-15.7386,179.165,1.53809,-144.866,412
1569683389,299.814,13.5062,-15.7386,179.165,1.53809,-144.866,412
1569683389,299.814,13.5062,-15.7386,179.165,1.53809,-144.866,412
1569683389,299.814,13.5062,-15.7386,179.165,1.53809,-144.866,416
1569683389,299.814,13.5062,-15.7386,179.165,1.53809,-144.866,416
1569683389,299.814,13.5062,-15.7386,179.165,1.53809,-144.866,416
1569683389,299.814,13.5062,-15.7386,179.165,1.53809,-144.866,416
1569683389,299.814,13.5062,-15.7386,179.143,1.53809,-144.866,416
1569683389,299.814,13.5062,-15.7386,179.143,1.53809,-144.866,416
1569683389,299.814,13.5062,-15.7386,179.143,1.53809,-144.844,416
1569683389,299.814,13.5062,-15.7386,179.143,1.53809,-144.844,416
1569683389,299.814,13.5062,-15.7386,179.143,1.53809,-144.844,416
1569683389,299.814,13.5062,-15.7386,179.143,1.53809,-144.844,416
1569683389,299.814,13.5062,-15.7386,179.143,1.53809,-144.844,416
1569683389,299.814,13.5062,-15.7386,179.143,1.53809,-144.844,416
1569683389,299.814,13.5062,-15.7386,179.143,1.53809,-144.844,416
1569683389,299.814,13.5062,-15.7386,179.143,1.53809,-144.844,416
1569683389,299.814,13.5062,-15.7386,179.143,1.53809,-144.844,416
1569683389,299.814,13.5062,-15.7386,179.143,1.53809,-144.844,416
1569683389,299.814,13.5062,-15.7386,179.165,1.53809,-144.844,416
1569683389,299.814,13.5062,-15.7386,179.165,1.53809,-144.844,416
1569683389,299.814,13.5062,-15.7386,179.165,1.53809,-144.844,416
1569683389,299.814,13.5062,-15.7386,179.165,1.53809,-144.844,416
1569683389,299.814,13.5062,-15.7386,179.165,1.53809,-144.844,416
1569683389,299.814,13.5062,-15.7386,179.165,1.53809,-144.844,416
1569683389,299.814,13.5062,-15.7386,179.165,1.53809,-144.844,416
1569683389,299.814,13.5062,-15.7386,179.165,1.53809,-144.844,416
1569683389,299.814,13.5062,-15.7386,179.165,1.53809,-144.866,416
1569683389,299.814,13.5062,-15.7386,179.165,1.53809,-144.866,416
1569683389,299.814,13.5062,-15.7386,179.165,1.53809,-144.866,416
1569683389,299.814,13.5062,-15.7386,179.165,1.53809,-144.866,416
1569683389,299.814,13.5062,-15.7386,179.165,1.53809,-144.866,416
1569683389,299.814,13.5062,-15.7386,179.165,1.53809,-144.866,416
1569683389,299.814,13.5062,-15.7386,179.165,1.53809,-144.866,416
1569683389,299.814,13.5062,-15.7386,179.165,1.56006,-144.866,416
1569683389,299.814,13.5062,-15.7386,179.165,1.56006,-144.866,416
1569683389,299.814,13.5062,-15.7386,179.165,1.56006,-144.866,416
1569683389,299.814,13.5062,-15.627,179.165,1.56006,-144.866,416
1569683389,299.814,13.5062,-15.627,179.165,1.56006,-144.866,416
1569683389,299.814,13.5062,-15.627,179.165,1.56006,-144.866,416
1569683389,299.814,13.5062,-15.627,179.165,1.56006,-144.866,416
1569683389,299.814,13.5062,-15.627,179.165,1.56006,-144.866,416
1569683389,299.814,13.5062,-15.627,179.165,1.56006,-144.866,416
1569683389,299.814,13.5062,-15.627,179.165,1.56006,-144.866,416
1569683389,299.814,13.5062,-15.627,179.165,1.56006,-144.866,416
1569683389,299.814,13.5062,-15.627,179.165,1.56006,-144.866,416
1569683389,299.814,13.5062,-15.627,179.165,1.56006,-144.866,416
1569683389,299.814,13.5062,-15.627,179.165,1.56006,-144.866,412
1569683389,299.814,13.5062,-15.627,179.165,1.56006,-144.866,412
1569683389,299.814,13.5062,-15.627,179.165,1.56006,-144.866,412
1569683389,299.814,13.5062,-15.627,179.165,1.56006,-144.866,412
1569683389,299.814,13.5062,-15.627,179.165,1.56006,-144.866,412
1569683389,299.814,13.5062,-15.627,179.165,1.56006,-144.866,412
1569683389,299.814,13.5062,-15.627,179.165,1.56006,-144.866,412
1569683389,299.814,13.5062,-15.627,179.165,1.56006,-144.866,412
1569683389,299.814,13.5062,-15.627,179.165,1.56006,-144.866,412
1569683389,299.814,13.5062,-15.627,179.165,1.56006,-144.866,412
1569683389,299.814,13.5062,-15.627,179.143,1.56006,-144.866,412
1569683389,299.814,13.5062,-15.627,179.143,1.56006,-144.866,412
1569683389,299.814,13.5062,-15.627,179.143,1.56006,-144.866,412
1569683389,299.814,13.5062,-15.627,179.143,1.56006,-144.866,416
1569683389,299.814,13.5062,-15.627,179.143,1.56006,-144.866,416
1569683389,299.814,13.5062,-15.627,179.143,1.56006,-144.866,416
1569683389,299.814,13.5062,-15.627,179.143,1.56006,-144.866,416
1569683389,299.814,13.5062,-15.627,179.143,1.56006,-144.866,416
1569683389,299.814,13.5062,-15.627,179.143,1.56006,-144.866,416
1569683389,299.814,13.5062,-15.627,179.143,1.56006,-144.866,416
1569683389,299.814,13.5062,-15.627,179.143,1.56006,-144.866,416
1569683389,299.814,13.5062,-15.627,179.143,1.56006,-144.866,416
1569683389,299.814,13.5062,-15.7386,179.165,1.56006,-144.866,416
1569683389,299.814,13.5062,-15.7386,179.165,1.53809,-144.866,416
1569683389,299.814,13.5062,-15.7386,179.165,1.53809,-144.866,416
1569683389,299.814,13.5062,-15.7386,179.165,1.53809,-144.866,416
1569683389,299.814,13.5062,-15.7386,179.165,1.53809,-144.866,416
1569683389,299.814,13.5062,-15.7386,179.165,1.53809,-144.866,416
1569683389,299.814,13.5062,-15.7386,179.165,1.53809,-144.866,416
1569683389,299.814,13.5062,-15.7386,179.165,1.53809,-144.866,416
1569683389,299.814,13.5062,-15.7386,179.165,1.53809,-144.866,416
1569683389,299.814,13.5062,-15.7386,179.165,1.53809,-144.866,416
1569683390,299.814,13.5062,-15.7386,179.165,1.53809,-144.866,416
1569683390,299.814,13.5062,-15.7386,179.165,1.53809,-144.866,416
1569683390,299.814,13.5062,-15.7386,179.165,1.53809,-144.866,416
1569683390,299.814,13.5062,-15.7386,179.165,1.53809,-144.866,420
1569683390,299.814,13.5062,-15.7386,179.165,1.53809,-144.866,420
1569683390,299.814,13.5062,-15.7386,179.165,1.53809,-144.866,420
1569683390,299.814,13.5062,-15.7386,179.165,1.53809,-144.866,420
1569683390,299.814,13.5062,-15.7386,179.165,1.53809,-144.866,420
1569683390,299.814,13.5062,-15.7386,179.165,1.53809,-144.866,420
1569683390,299.814,13.5062,-15.7386,179.165,1.53809,-144.866,420
1569683390,299.814,13.5062,-15.7386,179.165,1.53809,-144.866,424
1569683390,299.814,13.5062,-15.7386,179.165,1.53809,-144.866,424
1569683390,299.814,13.5062,-15.7386,179.165,1.53809,-144.866,424
1569683390,299.814,13.5062,-15.7386,179.165,1.53809,-144.866,424
1569683390,299.814,13.5062,-15.7386,179.165,1.53809,-144.866,424
1569683390,299.814,13.5062,-15.7386,179.165,1.53809,-144.866,424
1569683390,299.814,13.5062,-15.7386,179.165,1.53809,-144.866,424
1569683390,299.814,13.5062,-15.7386,179.165,1.56006,-144.866,424
1569683390,299.814,13.5062,-15.7386,179.165,1.56006,-144.866,424
1569683390,299.814,13.5062,-15.627,179.165,1.56006,-144.866,424
1569683390,299.814,13.5062,-15.627,179.165,1.56006,-144.866,424
1569683390,299.814,13.5062,-15.627,179.165,1.56006,-144.866,424
1569683390,299.814,13.5062,-15.627,179.165,1.56006,-144.866,424
1569683390,299.814,13.5062,-15.627,179.165,1.56006,-144.866,424
1569683390,299.814,13.5062,-15.627,179.165,1.56006,-144.866,424
1569683390,299.814,13.5062,-15.627,179.165,1.56006,-144.866,424
1569683390,299.814,13.5062,-15.627,179.165,1.56006,-144.866,420
1569683390,299.814,13.5062,-15.627,179.165,1.56006,-144.866,420
1569683390,299.814,13.5062,-15.627,179.165,1.56006,-144.866,420
1569683390,299.814,13.5062,-15.627,179.165,1.56006,-144.866,420
1569683390,299.814,13.5062,-15.627,179.165,1.56006,-144.866,420
1569683390,299.814,13.5062,-15.627,179.165,1.56006,-144.866,420
1569683390,299.814,13.5062,-15.627,179.165,1.56006,-144.866,420
1569683390,299.814,13.5062,-15.627,179.165,1.56006,-144.866,416
1569683390,299.814,13.5062,-15.627,179.165,1.56006,-144.866,416
1569683390,299.814,13.5062,-15.627,179.165,1.56006,-144.866,416
1569683390,299.814,13.5062,-15.627,179.165,1.56006,-144.866,416
1569683390,299.814,13.5062,-15.627,179.165,1.56006,-144.866,416
1569683390,299.814,13.5062,-15.627,179.165,1.56006,-144.866,416
1569683390,299.814,13.5062,-15.627,179.165,1.56006,-144.866,416
1569683390,299.814,13.5062,-15.627,179.165,1.56006,-144.866,416
1569683390,299.814,13.5062,-15.627,179.165,1.56006,-144.866,416
1569683390,299.814,13.5062,-15.627,179.165,1.56006,-144.866,416
1569683390,299.814,13.5062,-15.627,179.165,1.56006,-144.866,416
1569683390,299.814,13.5062,-15.627,179.165,1.56006,-144.866,416
1569683390,299.814,13.5062,-15.627,179.165,1.56006,-144.866,416
1569683390,299.814,13.5062,-15.627,179.165,1.56006,-144.866,416
1569683390,299.814,13.5062,-15.627,179.165,1.56006,-144.866,412
1569683390,299.814,13.5062,-15.627,179.165,1.56006,-144.866,412
1569683390,299.814,13.5062,-15.627,179.165,1.56006,-144.866,412
1569683390,299.814,13.5062,-15.627,179.165,1.56006,-144.866,412
1569683390,299.814,13.5062,-15.627,179.165,1.56006,-144.866,412
1569683390,299.814,13.5062,-15.627,179.165,1.56006,-144.866,416
1569683390,299.814,13.5062,-15.627,179.165,1.56006,-144.866,416
1569683390,299.814,13.5062,-15.627,179.165,1.56006,-144.866,416
1569683390,299.814,13.5062,-15.627,179.165,1.56006,-144.866,416
1569683390,299.814,13.5062,-15.627,179.165,1.56006,-144.866,416
1569683390,299.814,13.5062,-15.627,179.165,1.58203,-144.866,416
1569683390,299.814,13.5062,-15.627,179.165,1.58203,-144.866,416
1569683390,299.814,13.5062,-15.627,179.165,1.58203,-144.866,416
1569683390,299.814,13.5062,-15.627,179.165,1.58203,-144.866,416
1569683390,299.814,13.5062,-15.627,179.165,1.58203,-144.866,416
1569683390,299.814,13.5062,-15.627,179.165,1.58203,-144.866,416
1569683390,299.814,13.5062,-15.627,179.165,1.58203,-144.866,416
1569683390,299.814,13.5062,-15.627,179.165,1.58203,-144.866,416
1569683390,299.814,13.5062,-15.627,179.165,1.58203,-144.866,416
1569683390,299.814,13.5062,-15.627,179.165,1.58203,-144.866,416
1569683390,299.814,13.5062,-15.627,179.165,1.58203,-144.866,416
1569683390,299.814,13.5062,-15.627,179.165,1.58203,-144.866,416
1569683390,299.814,13.5062,-15.627,179.165,1.58203,-144.866,416
1569683390,299.814,13.5062,-15.627,179.165,1.58203,-144.866,416
1569683390,299.814,13.5062,-15.627,179.165,1.58203,-144.866,416
1569683390,299.814,13.5062,-15.627,179.165,1.58203,-144.866,420
1569683390,299.814,13.5062,-15.627,179.143,1.58203,-144.866,420
1569683390,299.814,13.5062,-15.627,179.143,1.58203,-144.866,420
1569683390,299.814,13.5062,-15.627,179.143,1.56006,-144.866,420
1569683390,299.814,13.5062,-15.627,179.143,1.56006,-144.866,420
1569683390,299.814,13.5062,-15.627,179.143,1.56006,-144.866,420
1569683390,299.814,13.5062,-15.627,179.143,1.56006,-144.866,420
1569683390,299.814,13.5062,-15.627,179.143,1.56006,-144.866,420
1569683390,299.814,13.5062,-15.627,179.143,1.56006,-144.866,420
1569683390,299.814,13.5062,-15.627,179.143,1.56006,-144.866,420
1569683390,299.814,13.5062,-15.627,179.143,1.56006,-144.866,420
1569683390,299.814,13.5062,-15.627,179.143,1.56006,-144.866,420
1569683390,299.814,13.5062,-15.627,179.165,1.56006,-144.866,420
1569683390,299.814,13.5062,-15.627,179.165,1.56006,-144.866,420
1569683390,299.814,13.5062,-15.627,179.165,1.56006,-144.866,420
1569683390,299.814,13.5062,-15.627,179.165,1.56006,-144.866,420
1569683390,299.814,13.5062,-15.627,179.165,1.56006,-144.866,420
1569683390,299.814,13.5062,-15.627,179.165,1.56006,-144.866,420
1569683390,299.814,13.5062,-15.627,179.165,1.56006,-144.866,420
1569683390,299.814,13.5062,-15.627,179.165,1.56006,-144.866,420
1569683390,299.814,13.5062,-15.627,179.165,1.56006,-144.866,420
1569683390,299.814,13.5062,-15.627,179.165,1.56006,-144.866,420
1569683390,299.814,13.5062,-15.627,179.165,1.56006,-144.866,420
1569683390,299.814,13.5062,-15.627,179.165,1.58203,-144.866,420
1569683390,299.814,13.5062,-15.627,179.165,1.58203,-144.866,420
1569683390,299.814,13.5062,-15.627,179.165,1.58203,-144.866,420
1569683390,299.814,13.5062,-15.627,179.165,1.58203,-144.866,420
1569683390,299.814,13.5062,-15.627,179.165,1.58203,-144.866,420
1569683391,299.814,13.5062,-15.627,179.165,1.58203,-144.866,420
1569683391,299.814,13.5062,-15.627,179.165,1.58203,-144.866,420
1569683391,299.814,13.5062,-15.627,179.165,1.58203,-144.866,420
1569683391,299.814,13.5062,-15.627,179.165,1.58203,-144.844,420
1569683391,299.814,13.5062,-15.627,179.165,1.58203,-144.844,420
1569683391,299.814,13.5062,-15.627,179.165,1.56006,-144.844,420
1569683391,299.814,13.5062,-15.627,179.165,1.56006,-144.844,420
1569683391,299.814,13.5062,-15.627,179.165,1.56006,-144.844,420
1569683391,299.814,13.5062,-15.627,179.165,1.56006,-144.844,420
1569683391,299.814,13.5062,-15.627,179.165,1.56006,-144.844,420
1569683391,299.814,13.5062,-15.627,179.165,1.56006,-144.866,420
1569683391,299.814,13.5062,-15.627,179.165,1.56006,-144.866,420
1569683391,299.814,13.5062,-15.627,179.165,1.56006,-144.866,420
1569683391,299.814,13.5062,-15.627,179.165,1.56006,-144.866,420
1569683391,299.814,13.5062,-15.627,179.165,1.56006,-144.866,420
1569683391,299.814,13.5062,-15.627,179.165,1.56006,-144.866,420
1569683391,299.814,13.5062,-15.627,179.165,1.56006,-144.866,420
1569683391,299.814,13.5062,-15.627,179.165,1.56006,-144.866,420
1569683391,299.814,13.5062,-15.627,179.165,1.56006,-144.866,420
1569683391,299.814,13.5062,-15.627,179.165,1.56006,-144.866,420
1569683391,299.814,13.5062,-15.7386,179.165,1.53809,-144.866,420
1569683391,299.814,13.5062,-15.7386,179.143,1.53809,-144.866,420
1569683391,299.814,13.5062,-15.7386,179.143,1.53809,-144.844,420
1569683391,299.814,13.5062,-15.7386,179.143,1.53809,-144.844,420
1569683391,299.814,13.5062,-15.7386,179.143,1.53809,-144.844,420
1569683391,299.814,13.5062,-15.7386,179.143,1.53809,-144.844,420
1569683391,299.814,13.5062,-15.7386,179.143,1.53809,-144.844,420
1569683391,299.814,13.3945,-15.7386,179.143,1.53809,-144.844,420
1569683391,299.814,13.3945,-15.7386,179.143,1.53809,-144.844,420
1569683391,299.814,13.3945,-15.7386,179.143,1.53809,-144.844,420
1569683391,299.814,13.3945,-15.7386,179.143,1.53809,-144.844,420
1569683391,299.814,13.3945,-15.7386,179.143,1.53809,-144.844,420
1569683391,299.814,13.3945,-15.7386,179.143,1.53809,-144.866,420
1569683391,299.814,13.3945,-15.7386,179.143,1.53809,-144.866,420
1569683391,299.814,13.3945,-15.7386,179.143,1.53809,-144.866,420
1569683391,299.814,13.3945,-15.7386,179.143,1.53809,-144.866,420
1569683391,299.814,13.3945,-15.7386,179.143,1.53809,-144.866,420
1569683391,299.814,13.3945,-15.7386,179.143,1.53809,-144.866,420
1569683391,299.814,13.3945,-15.7386,179.143,1.53809,-144.866,420
1569683391,299.814,13.3945,-15.7386,179.143,1.53809,-144.866,420
1569683391,299.814,13.3945,-15.7386,179.143,1.53809,-144.866,420
1569683391,299.814,13.3945,-15.7386,179.143,1.53809,-144.866,420
1569683391,299.814,13.3945,-15.7386,179.143,1.53809,-144.866,420
1569683391,299.814,13.3945,-15.7386,179.143,1.53809,-144.866,420
1569683391,299.814,13.3945,-15.7386,179.143,1.53809,-144.866,420
1569683391,299.814,13.3945,-15.7386,179.143,1.53809,-144.866,420
1569683391,299.814,13.3945,-15.7386,179.143,1.53809,-144.866,420
1569683391,299.814,13.5062,-15.7386,179.143,1.53809,-144.866,420
1569683391,299.814,13.5062,-15.7386,179.143,1.53809,-144.866,420
1569683391,299.814,13.5062,-15.7386,179.143,1.53809,-144.866,420
1569683391,299.814,13.5062,-15.7386,179.143,1.53809,-144.866,420
1569683391,299.814,13.5062,-15.7386,179.143,1.53809,-144.866,420
1569683391,299.814,13.5062,-15.7386,179.143,1.53809,-144.866,420
1569683391,299.814,13.3945,-15.7386,179.143,1.53809,-144.866,420
1569683391,299.814,13.3945,-15.7386,179.143,1.53809,-144.866,420
1569683391,299.814,13.3945,-15.7386,179.143,1.53809,-144.866,420
1569683391,299.814,13.3945,-15.7386,179.143,1.53809,-144.866,420
1569683391,299.814,13.3945,-15.7386,179.143,1.53809,-144.866,420
1569683391,299.814,13.3945,-15.7386,179.143,1.53809,-144.866,420
1569683391,299.814,13.3945,-15.7386,179.143,1.53809,-144.866,420
1569683391,299.814,13.5062,-15.7386,179.143,1.53809,-144.866,420
1569683391,299.814,13.5062,-15.7386,179.143,1.53809,-144.866,420
1569683391,299.814,13.5062,-15.7386,179.143,1.53809,-144.866,420
1569683391,299.814,13.5062,-15.7386,179.143,1.53809,-144.866,420
1569683391,299.814,13.5062,-15.7386,179.143,1.53809,-144.866,420
1569683391,299.814,13.5062,-15.7386,179.143,1.53809,-144.866,420
1569683391,299.814,13.5062,-15.7386,179.143,1.53809,-144.866,420
1569683391,299.814,13.5062,-15.7386,179.143,1.53809,-144.866,420
1569683391,299.814,13.5062,-15.7386,179.143,1.53809,-144.866,420
1569683391,299.814,13.5062,-15.7386,179.143,1.53809,-144.866,420
1569683391,299.814,13.5062,-15.7386,179.143,1.53809,-144.866,420
1569683391,299.814,13.5062,-15.7386,179.143,1.53809,-144.866,420
1569683391,299.814,13.5062,-15.7386,179.143,1.53809,-144.866,420
1569683391,299.814,13.5062,-15.7386,179.143,1.53809,-144.866,420
1569683391,299.814,13.5062,-15.7386,179.143,1.53809,-144.866,420
1569683391,299.814,13.5062,-15.7386,179.143,1.53809,-144.866,420
1569683391,299.814,13.5062,-15.7386,179.143,1.53809,-144.866,420
1569683391,299.814,13.5062,-15.7386,179.143,1.53809,-144.866,420
1569683391,299.814,13.5062,-15.7386,179.143,1.53809,-144.866,420
1569683391,299.814,13.5062,-15.7386,179.143,1.53809,-144.866,420
1569683391,299.814,13.5062,-15.7386,179.143,1.53809,-144.866,420
1569683391,299.814,13.5062,-15.7386,179.143,1.53809,-144.866,420
1569683391,299.814,13.5062,-15.7386,179.143,1.53809,-144.866,420
1569683391,299.814,13.5062,-15.7386,179.143,1.53809,-144.866,420
1569683391,299.814,13.5062,-15.7386,179.143,1.53809,-144.866,420
1569683391,299.814,13.5062,-15.7386,179.143,1.53809,-144.866,420
1569683391,299.814,13.5062,-15.7386,179.143,1.53809,-144.866,420
1569683391,299.814,13.5062,-15.7386,179.143,1.53809,-144.866,420
1569683391,299.814,13.5062,-15.7386,179.143,1.53809,-144.866,420
1569683391,299.814,13.5062,-15.7386,179.143,1.53809,-144.866,420
1569683391,299.814,13.5062,-15.7386,179.143,1.53809,-144.866,420
1569683391,299.814,13.5062,-15.7386,179.143,1.53809,-144.866,420
1569683391,299.814,13.5062,-15.7386,179.143,1.53809,-144.866,420
1569683391,299.814,13.5062,-15.7386,179.143,1.53809,-144.866,416
1569683391,299.814,13.5062,-15.7386,179.143,1.53809,-144.866,416
1569683391,299.814,13.5062,-15.7386,179.143,1.53809,-144.866,416
1569683391,299.814,13.5062,-15.7386,179.143,1.53809,-144.866,416
1569683391,299.814,13.5062,-15.7386,179.143,1.53809,-144.866,416
1569683391,299.814,13.5062,-15.7386,179.165,1.53809,-144.866,416
1569683391,299.814,13.5062,-15.7386,179.165,1.53809,-144.866,416
1569683392,299.814,13.5062,-15.7386,179.165,1.53809,-144.866,416
1569683392,299.814,13.5062,-15.7386,179.165,1.53809,-144.866,416
1569683392,299.814,13.5062,-15.7386,179.165,1.53809,-144.866,416
1569683392,299.814,13.5062,-15.7386,179.165,1.53809,-144.866,416
1569683392,299.814,13.5062,-15.7386,179.165,1.53809,-144.866,416
1569683392,299.814,13.5062,-15.7386,179.165,1.53809,-144.866,416
1569683392,299.814,13.5062,-15.7386,179.165,1.53809,-144.866,416
1569683392,299.814,13.5062,-15.7386,179.165,1.53809,-144.866,416
1569683392,299.814,13.5062,-15.7386,179.165,1.53809,-144.866,420
1569683392,299.814,13.5062,-15.7386,179.165,1.53809,-144.866,420
1569683392,299.814,13.5062,-15.7386,179.165,1.53809,-144.866,420
1569683392,299.814,13.5062,-15.7386,179.165,1.53809,-144.866,420
1569683392,299.814,13.5062,-15.7386,179.143,1.53809,-144.866,420
1569683392,299.814,13.5062,-15.7386,179.143,1.53809,-144.866,420
1569683392,299.814,13.5062,-15.7386,179.143,1.53809,-144.866,420
1569683392,299.814,13.5062,-15.7386,179.165,1.53809,-144.866,420
1569683392,299.814,13.5062,-15.7386,179.165,1.53809,-144.866,420
1569683392,299.814,13.5062,-15.7386,179.165,1.53809,-144.866,420
1569683392,299.814,13.5062,-15.7386,179.165,1.53809,-144.866,420
1569683392,299.814,13.5062,-15.7386,179.165,1.53809,-144.866,420
1569683392,299.814,13.5062,-15.7386,179.165,1.53809,-144.866,420
1569683392,299.814,13.5062,-15.7386,179.165,1.53809,-144.866,416
1569683392,299.814,13.5062,-15.7386,179.165,1.53809,-144.866,416
1569683392,299.814,13.5062,-15.7386,179.165,1.53809,-144.866,416
1569683392,299.814,13.5062,-15.7386,179.165,1.53809,-144.866,416
1569683392,299.814,13.5062,-15.7386,179.165,1.53809,-144.866,416
1569683392,299.814,13.5062,-15.7386,179.165,1.53809,-144.866,416
1569683392,299.814,13.5062,-15.7386,179.165,1.53809,-144.866,416
1569683392,299.814,13.5062,-15.7386,179.165,1.53809,-144.866,416
1569683392,299.814,13.5062,-15.7386,179.165,1.53809,-144.866,416
1569683392,299.814,13.5062,-15.7386,179.165,1.53809,-144.866,416
1569683392,299.814,13.5062,-15.7386,179.165,1.53809,-144.866,412
1569683392,299.814,13.5062,-15.7386,179.143,1.53809,-144.866,412
1569683392,299.814,13.5062,-15.7386,179.143,1.53809,-144.866,412
1569683392,299.814,13.5062,-15.7386,179.143,1.53809,-144.866,412
1569683392,299.814,13.5062,-15.7386,179.143,1.53809,-144.866,412
1569683392,299.814,13.5062,-15.7386,179.143,1.53809,-144.866,412
1569683392,299.814,13.5062,-15.7386,179.143,1.53809,-144.866,412
1569683392,299.814,13.5062,-15.7386,179.143,1.53809,-144.866,412
1569683392,299.814,13.5062,-15.7386,179.143,1.53809,-144.866,412
1569683392,299.814,13.5062,-15.7386,179.143,1.53809,-144.866,412
1569683392,299.814,13.5062,-15.7386,179.143,1.53809,-144.866,412
1569683392,299.814,13.5062,-15.7386,179.143,1.53809,-144.866,412
1569683392,299.814,13.5062,-15.7386,179.143,1.53809,-144.866,412
1569683392,299.814,13.5062,-15.7386,179.143,1.53809,-144.866,412
1569683392,299.814,13.5062,-15.7386,179.143,1.53809,-144.866,412
1569683392,299.814,13.5062,-15.7386,179.143,1.53809,-144.866,412
1569683392,299.814,13.5062,-15.7386,179.143,1.53809,-144.866,412
1569683392,299.814,13.5062,-15.7386,179.143,1.53809,-144.866,412
1569683392,299.814,13.5062,-15.7386,179.143,1.53809,-144.866,412
1569683392,299.814,13.5062,-15.7386,179.143,1.53809,-144.866,412
1569683392,299.814,13.5062,-15.7386,179.143,1.53809,-144.866,412
1569683392,299.814,13.5062,-15.7386,179.143,1.53809,-144.866,412
1569683392,299.814,13.5062,-15.7386,179.143,1.53809,-144.866,412
1569683392,299.814,13.5062,-15.7386,179.143,1.53809,-144.866,408
1569683392,299.814,13.5062,-15.7386,179.143,1.53809,-144.866,408
1569683392,299.814,13.5062,-15.7386,179.143,1.53809,-144.866,408
1569683392,299.814,13.5062,-15.7386,179.143,1.53809,-144.866,408
1569683392,299.814,13.5062,-15.7386,179.143,1.53809,-144.866,408
1569683392,299.814,13.5062,-15.7386,179.143,1.53809,-144.866,408
1569683392,299.814,13.5062,-15.7386,179.143,1.53809,-144.866,408
1569683392,299.814,13.5062,-15.7386,179.143,1.53809,-144.866,408
1569683392,299.814,13.5062,-15.7386,179.143,1.53809,-144.866,408
1569683392,299.814,13.5062,-15.7386,179.143,1.53809,-144.866,408
1569683392,299.814,13.5062,-15.7386,179.143,1.53809,-144.866,408
1569683392,299.814,13.5062,-15.7386,179.143,1.53809,-144.866,408
1569683392,299.814,13.5062,-15.7386,179.143,1.53809,-144.866,408
1569683392,299.814,13.5062,-15.7386,179.143,1.53809,-144.866,408
1569683392,299.814,13.5062,-15.7386,179.143,1.53809,-144.866,408
1569683392,299.814,13.5062,-15.7386,179.143,1.53809,-144.866,408
1569683392,299.814,13.5062,-15.7386,179.143,1.53809,-144.866,408
1569683392,299.814,13.5062,-15.7386,179.143,1.53809,-144.866,408
1569683392,299.814,13.5062,-15.7386,179.143,1.53809,-144.866,408
1569683392,299.814,13.5062,-15.7386,179.143,1.53809,-144.866,408
1569683392,299.814,13.5062,-15.7386,179.143,1.53809,-144.866,408
1569683392,299.814,13.5062,-15.7386,179.143,1.53809,-144.866,408
1569683392,299.814,13.5062,-15.7386,179.143,1.53809,-144.866,408
1569683392,299.814,13.5062,-15.7386,179.143,1.53809,-144.866,408
1569683392,299.814,13.5062,-15.7386,179.143,1.53809,-144.866,408
1569683392,299.814,13.5062,-15.7386,179.143,1.53809,-144.866,408
1569683392,299.814,13.5062,-15.7386,179.143,1.53809,-144.866,408
1569683392,299.814,13.5062,-15.7386,179.143,1.53809,-144.866,408
1569683392,299.814,13.5062,-15.7386,179.143,1.53809,-144.866,408
1569683392,299.814,13.5062,-15.7386,179.143,1.53809,-144.866,408
1569683392,299.814,13.5062,-15.7386,179.143,1.53809,-144.866,408
1569683392,299.814,13.5062,-15.7386,179.143,1.53809,-144.866,408
1569683392,299.814,13.3945,-15.7386,179.143,1.53809,-144.866,408
1569683392,299.814,13.3945,-15.7386,179.143,1.53809,-144.866,412
1569683392,299.814,13.3945,-15.7386,179.143,1.53809,-144.866,412
1569683392,299.814,13.3945,-15.7386,179.143,1.53809,-144.866,412
1569683392,299.814,13.3945,-15.7386,179.143,1.53809,-144.866,416
1569683392,299.814,13.3945,-15.7386,179.143,1.53809,-144.866,416
1569683392,299.814,13.3945,-15.7386,179.143,1.53809,-144.866,416
1569683392,299.814,13.3945,-15.7386,179.143,1.53809,-144.866,416
1569683392,299.814,13.3945,-15.7386,179.121,1.53809,-144.866,420
1569683392,299.814,13.3945,-15.7386,179.121,1.53809,-144.866,420
1569683392,299.814,13.3945,-15.7386,179.121,1.53809,-144.866,420
1569683392,299.814,13.3945,-15.7386,179.121,1.53809,-144.866,420
1569683392,299.814,13.3945,-15.7386,179.121,1.53809,-144.866,424
1569683393,299.814,13.3945,-15.7386,179.121,1.53809,-144.866,424
1569683393,299.814,13.3945,-15.7386,179.121,1.53809,-144.866,424
1569683393,299.814,13.3945,-15.7386,179.121,1.53809,-144.866,424
1569683393,299.814,13.3945,-15.7386,179.121,1.53809,-144.866,424
1569683393,299.814,13.3945,-15.7386,179.121,1.53809,-144.866,424
1569683393,299.814,13.3945,-15.7386,179.121,1.56006,-144.866,424
1569683393,299.814,13.3945,-15.7386,179.143,1.56006,-144.866,424
1569683393,299.814,13.3945,-15.7386,179.143,1.56006,-144.866,424
1569683393,299.814,13.3945,-15.7386,179.143,1.56006,-144.866,424
1569683393,299.814,13.5062,-15.7386,179.143,1.56006,-144.866,424
1569683393,299.814,13.5062,-15.7386,179.143,1.56006,-144.866,420
1569683393,299.814,13.5062,-15.7386,179.143,1.56006,-144.866,420
1569683393,299.814,13.5062,-15.7386,179.143,1.56006,-144.866,420
1569683393,299.814,13.5062,-15.7386,179.143,1.56006,-144.866,420
1569683393,299.814,13.5062,-15.7386,179.143,1.56006,-144.866,420
1569683393,299.814,13.5062,-15.7386,179.143,1.56006,-144.866,420
1569683393,299.814,13.5062,-15.7386,179.143,1.53809,-144.866,420
1569683393,299.814,13.5062,-15.7386,179.143,1.53809,-144.866,420
1569683393,299.814,13.5062,-15.7386,179.143,1.53809,-144.866,416
1569683393,299.814,13.5062,-15.7386,179.143,1.53809,-144.866,416
1569683393,299.814,13.5062,-15.7386,179.143,1.53809,-144.866,416
1569683393,299.814,13.5062,-15.7386,179.143,1.53809,-144.866,416
1569683393,299.814,13.5062,-15.7386,179.143,1.53809,-144.866,416
1569683393,299.814,13.5062,-15.7386,179.143,1.53809,-144.866,416
1569683393,299.814,13.5062,-15.7386,179.143,1.53809,-144.866,416
1569683393,299.814,13.5062,-15.627,179.143,1.53809,-144.866,412
1569683393,299.814,13.5062,-15.627,179.143,1.56006,-144.866,412
1569683393,299.814,13.5062,-15.627,179.143,1.56006,-144.866,412
1569683393,299.814,13.5062,-15.627,179.143,1.56006,-144.866,412
1569683393,299.814,13.5062,-15.627,179.143,1.56006,-144.866,412
1569683393,299.814,13.5062,-15.627,179.143,1.56006,-144.866,412
1569683393,299.814,13.5062,-15.627,179.143,1.56006,-144.866,412
1569683393,299.814,13.5062,-15.627,179.143,1.56006,-144.866,412
1569683393,299.814,13.5062,-15.627,179.143,1.56006,-144.866,412
1569683393,299.814,13.3945,-15.627,179.143,1.56006,-144.866,416
1569683393,299.814,13.3945,-15.627,179.143,1.56006,-144.866,416
1569683393,299.814,13.3945,-15.627,179.143,1.56006,-144.866,416
1569683393,299.814,13.3945,-15.627,179.143,1.56006,-144.866,416
1569683393,299.814,13.3945,-15.627,179.121,1.56006,-144.866,416
1569683393,299.814,13.3945,-15.627,179.121,1.56006,-144.866,416
1569683393,299.814,13.3945,-15.627,179.121,1.56006,-144.866,416
1569683393,299.814,13.3945,-15.627,179.121,1.56006,-144.866,416
1569683393,299.814,13.3945,-15.627,179.143,1.56006,-144.866,416
1569683393,299.814,13.3945,-15.627,179.143,1.56006,-144.866,416
1569683393,299.814,13.3945,-15.627,179.143,1.56006,-144.866,416
1569683393,299.814,13.3945,-15.627,179.143,1.56006,-144.866,416
1569683393,299.814,13.3945,-15.627,179.143,1.56006,-144.866,416
1569683393,299.814,13.5062,-15.627,179.143,1.56006,-144.866,416
1569683393,299.814,13.5062,-15.627,179.143,1.56006,-144.866,416
1569683393,299.814,13.5062,-15.627,179.143,1.56006,-144.866,416
1569683393,299.814,13.5062,-15.627,179.143,1.56006,-144.866,416
1569683393,299.814,13.5062,-15.627,179.143,1.56006,-144.866,416
1569683393,299.814,13.5062,-15.627,179.143,1.56006,-144.866,416
1569683393,299.814,13.5062,-15.627,179.143,1.56006,-144.866,416
1569683393,299.814,13.5062,-15.627,179.143,1.58203,-144.866,416
1569683397,322.808,-10.7156,-14.9572,179.253,1.86768,-144.998,460
1569683397,322.808,-10.7156,-14.9572,179.253,1.86768,-144.998,460
1569683397,322.808,-10.7156,-14.9572,179.253,1.86768,-144.998,460
1569683397,322.808,-10.7156,-14.9572,179.253,1.86768,-144.998,460
1569683397,322.808,-10.7156,-14.9572,179.253,1.86768,-144.998,460
1569683397,322.808,-10.7156,-14.9572,179.253,1.86768,-144.998,460
1569683397,322.808,-10.7156,-14.9572,179.253,1.86768,-144.998,460
1569683397,322.808,-10.7156,-14.9572,179.253,1.86768,-144.998,464
1569683397,322.808,-10.7156,-14.9572,179.253,1.86768,-144.998,464
1569683397,322.808,-10.7156,-14.9572,179.253,1.86768,-144.998,464
1569683397,322.808,-10.7156,-14.9572,179.253,1.86768,-144.998,464
1569683397,322.808,-10.7156,-14.9572,179.231,1.86768,-144.998,464
1569683397,322.808,-10.7156,-14.9572,179.231,1.86768,-144.998,464
1569683397,322.808,-10.7156,-14.9572,179.231,1.86768,-144.998,464
1569683397,322.808,-10.7156,-14.9572,179.231,1.86768,-144.998,464
1569683397,322.808,-10.7156,-14.9572,179.231,1.86768,-144.998,464
1569683398,322.808,-10.7156,-14.9572,179.231,1.86768,-144.998,464
1569683398,322.808,-10.7156,-14.9572,179.231,1.86768,-144.998,464
1569683398,322.808,-10.7156,-14.9572,179.253,1.86768,-144.998,464
1569683398,322.808,-10.7156,-14.9572,179.253,1.86768,-144.998,464
1569683398,322.808,-10.7156,-14.9572,179.253,1.86768,-144.998,464
1569683398,322.808,-10.7156,-14.9572,179.253,1.86768,-144.998,464
1569683398,322.808,-10.7156,-14.9572,179.253,1.86768,-144.998,464
1569683398,322.808,-10.7156,-14.9572,179.253,1.86768,-144.998,464
1569683398,322.808,-10.7156,-14.9572,179.253,1.86768,-144.998,464
1569683398,322.808,-10.7156,-14.9572,179.253,1.86768,-144.998,464
1569683398,322.808,-10.7156,-14.9572,179.253,1.86768,-144.998,464
1569683398,322.92,-10.7156,-14.9572,179.253,1.86768,-144.998,464
1569683398,322.92,-10.7156,-14.9572,179.253,1.86768,-144.998,464
1569683398,322.92,-10.7156,-14.9572,179.253,1.88965,-144.998,464
1569683398,322.92,-10.7156,-14.9572,179.253,1.88965,-144.998,464
1569683398,322.92,-10.7156,-14.9572,179.253,1.88965,-144.998,464
1569683398,322.92,-10.7156,-14.9572,179.253,1.88965,-144.998,464
1569683398,322.92,-10.7156,-14.9572,179.253,1.88965,-144.998,464
1569683398,322.92,-10.7156,-14.9572,179.253,1.88965,-144.998,464
1569683398,322.92,-10.7156,-14.9572,179.253,1.88965,-144.998,464
1569683398,322.92,-10.7156,-14.9572,179.253,1.88965,-144.998,464
1569683398,322.92,-10.7156,-14.9572,179.253,1.88965,-144.998,464
1569683398,322.92,-10.7156,-14.9572,179.253,1.88965,-144.998,464
1569683398,322.92,-10.7156,-14.9572,179.253,1.88965,-144.998,464
1569683398,322.92,-10.7156,-14.9572,179.253,1.88965,-144.998,464
1569683398,322.92,-10.7156,-14.9572,179.253,1.88965,-144.998,464
1569683398,322.92,-10.7156,-14.9572,179.253,1.88965,-144.998,464
1569683398,322.92,-10.7156,-14.9572,179.253,1.88965,-144.998,464
1569683398,322.92,-10.7156,-14.9572,179.253,1.88965,-144.998,464
1569683398,322.92,-10.7156,-14.9572,179.253,1.88965,-144.998,464
1569683398,322.92,-10.7156,-14.9572,179.253,1.88965,-144.998,464
1569683398,322.92,-10.7156,-14.9572,179.253,1.88965,-144.998,464
1569683398,322.92,-10.7156,-14.9572,179.253,1.88965,-144.998,464
1569683398,322.92,-10.7156,-14.9572,179.253,1.88965,-144.998,464
1569683398,322.92,-10.7156,-14.9572,179.253,1.88965,-144.998,464
1569683398,322.92,-10.7156,-14.9572,179.253,1.88965,-144.998,464
1569683398,322.808,-10.7156,-14.9572,179.253,1.88965,-144.998,464
1569683398,322.808,-10.7156,-14.9572,179.253,1.88965,-144.998,464
1569683398,322.808,-10.7156,-14.9572,179.253,1.88965,-144.998,464
1569683398,322.808,-10.7156,-14.9572,179.231,1.88965,-144.998,464
1569683398,322.808,-10.7156,-14.9572,179.231,1.88965,-144.998,464
1569683398,322.808,-10.7156,-14.9572,179.231,1.88965,-144.998,464
1569683398,322.808,-10.7156,-14.9572,179.231,1.88965,-144.998,464
1569683398,322.808,-10.7156,-14.9572,179.231,1.88965,-144.998,464
1569683398,322.808,-10.7156,-14.9572,179.231,1.88965,-144.998,464
1569683398,322.92,-10.7156,-14.9572,179.231,1.88965,-144.998,460
1569683398,322.92,-10.7156,-14.9572,179.231,1.88965,-144.998,460
1569683398,322.92,-10.7156,-14.9572,179.231,1.91162,-144.998,460
1569683398,322.92,-10.7156,-14.9572,179.231,1.91162,-144.998,460
1569683398,322.92,-10.7156,-14.9572,179.231,1.91162,-144.998,460
1569683398,322.92,-10.7156,-14.9572,179.231,1.91162,-144.998,460
1569683398,322.92,-10.7156,-14.9572,179.231,1.88965,-144.998,460
1569683398,322.92,-10.7156,-14.9572,179.231,1.88965,-144.998,460
1569683398,322.92,-10.7156,-14.9572,179.231,1.88965,-144.998,460
1569683398,322.92,-10.7156,-14.9572,179.231,1.88965,-144.998,460
1569683398,322.92,-10.7156,-14.9572,179.231,1.88965,-144.998,460
1569683398,322.92,-10.7156,-14.9572,179.231,1.88965,-144.998,460
1569683398,322.92,-10.7156,-14.9572,179.231,1.88965,-144.998,460
1569683398,322.92,-10.7156,-14.9572,179.231,1.88965,-144.998,460
1569683398,322.92,-10.7156,-14.9572,179.231,1.88965,-144.998,460
1569683398,322.92,-10.7156,-14.9572,179.231,1.88965,-144.998,460
1569683398,322.92,-10.7156,-14.9572,179.231,1.88965,-144.998,460
1569683398,322.92,-10.7156,-14.9572,179.231,1.88965,-144.998,460
1569683398,322.92,-10.7156,-14.9572,179.231,1.88965,-144.998,460
1569683398,322.92,-10.7156,-14.9572,179.231,1.88965,-144.998,460
1569683398,322.92,-10.7156,-14.9572,179.231,1.88965,-144.998,460
1569683398,322.92,-10.7156,-14.9572,179.231,1.88965,-144.998,460
1569683398,322.92,-10.7156,-14.9572,179.231,1.88965,-144.998,460
1569683398,322.92,-10.7156,-14.9572,179.231,1.88965,-144.998,460
1569683398,322.92,-10.7156,-14.9572,179.231,1.88965,-144.998,460
1569683398,322.92,-10.7156,-14.9572,179.231,1.88965,-144.998,460
1569683398,322.92,-10.7156,-14.9572,179.231,1.88965,-144.998,460
1569683398,322.92,-10.7156,-14.9572,179.231,1.88965,-144.998,460
1569683398,322.92,-10.7156,-14.9572,179.231,1.86768,-144.998,460
1569683398,322.92,-10.7156,-14.9572,179.231,1.86768,-144.998,460
1569683398,322.92,-10.7156,-14.9572,179.209,1.86768,-144.998,460
1569683398,322.92,-10.7156,-14.9572,179.209,1.86768,-144.998,460
1569683398,322.92,-10.7156,-14.9572,179.209,1.88965,-144.998,460
1569683398,322.92,-10.7156,-14.9572,179.209,1.88965,-144.998,460
1569683398,322.92,-10.7156,-14.9572,179.209,1.88965,-144.998,460
1569683398,322.92,-10.7156,-14.9572,179.209,1.88965,-144.998,460
1569683398,322.92,-10.8272,-14.9572,179.209,1.88965,-144.998,460
1569683398,322.92,-10.8272,-14.9572,179.209,1.88965,-144.998,460
1569683398,322.92,-10.8272,-14.9572,179.209,1.88965,-144.998,460
1569683398,322.92,-10.8272,-14.9572,179.209,1.88965,-144.998,460
1569683398,322.92,-10.8272,-14.9572,179.209,1.88965,-144.998,460
1569683398,322.92,-10.7156,-14.9572,179.209,1.88965,-144.998,460
1569683398,322.92,-10.7156,-14.9572,179.209,1.88965,-144.998,460
1569683398,322.92,-10.7156,-14.9572,179.209,1.88965,-144.998,460
1569683398,322.92,-10.7156,-14.9572,179.209,1.88965,-144.998,460
1569683398,322.92,-10.7156,-14.9572,179.209,1.88965,-144.998,460
1569683398,322.92,-10.7156,-14.9572,179.209,1.88965,-144.998,464
1569683398,322.92,-10.7156,-14.9572,179.209,1.88965,-144.998,464
1569683398,322.92,-10.7156,-14.9572,179.209,1.88965,-144.998,464
1569683398,322.92,-10.7156,-14.9572,179.209,1.88965,-144.998,464
1569683398,322.92,-10.7156,-14.9572,179.209,1.88965,-144.998,464
1569683398,322.92,-10.7156,-14.9572,179.209,1.88965,-144.998,464
1569683398,322.92,-10.7156,-14.9572,179.209,1.88965,-144.998,464
1569683398,322.92,-10.7156,-14.9572,179.209,1.88965,-144.998,464
1569683399,322.92,-10.7156,-14.9572,179.209,1.88965,-144.998,464
1569683399,322.92,-10.7156,-14.9572,179.209,1.88965,-144.998,464
1569683399,322.92,-10.7156,-14.9572,179.209,1.88965,-144.998,464
1569683399,322.92,-10.7156,-14.9572,179.209,1.88965,-144.998,464
1569683399,322.92,-10.7156,-14.9572,179.209,1.88965,-144.998,464
1569683399,322.92,-10.8272,-14.9572,179.209,1.88965,-144.998,464
1569683399,322.92,-10.8272,-14.9572,179.209,1.86768,-144.998,464
1569683399,322.92,-10.8272,-14.9572,179.209,1.86768,-144.998,464
1569683399,322.92,-10.8272,-14.9572,179.209,1.86768,-144.998,464
1569683399,322.92,-10.8272,-14.9572,179.209,1.86768,-144.998,464
1569683399,322.92,-10.8272,-14.9572,179.209,1.86768,-144.998,464
1569683399,322.92,-10.7156,-14.9572,179.209,1.86768,-144.998,464
1569683399,322.92,-10.7156,-14.9572,179.209,1.86768,-144.998,464
1569683399,322.92,-10.7156,-14.9572,179.231,1.86768,-144.998,464
1569683399,322.92,-10.7156,-14.9572,179.231,1.86768,-144.998,464
1569683399,322.92,-10.7156,-14.9572,179.231,1.86768,-144.998,464
1569683399,322.92,-10.7156,-14.9572,179.231,1.86768,-144.998,464
1569683399,322.92,-10.7156,-14.9572,179.231,1.86768,-144.998,464
1569683399,322.92,-10.7156,-14.9572,179.231,1.86768,-144.998,460
1569683399,322.92,-10.7156,-14.9572,179.231,1.86768,-144.998,460
1569683399,322.92,-10.7156,-14.9572,179.231,1.86768,-144.998,460
1569683399,322.92,-10.7156,-14.9572,179.231,1.86768,-144.998,460
1569683399,322.92,-10.7156,-14.9572,179.231,1.86768,-144.998,460
1569683399,322.92,-10.7156,-14.9572,179.231,1.86768,-144.998,460
1569683399,322.92,-10.7156,-14.9572,179.231,1.86768,-144.998,460
1569683399,322.92,-10.7156,-14.9572,179.231,1.86768,-144.998,460
1569683399,322.92,-10.7156,-14.9572,179.231,1.86768,-144.998,460
1569683399,322.92,-10.7156,-14.9572,179.231,1.86768,-144.998,460
1569683399,322.92,-10.7156,-14.9572,179.231,1.86768,-144.998,460
1569683399,322.92,-10.7156,-14.9572,179.231,1.86768,-144.998,460
1569683399,322.92,-10.7156,-14.9572,179.231,1.86768,-144.998,460
1569683399,322.92,-10.7156,-14.9572,179.231,1.86768,-144.998,460
1569683399,322.92,-10.7156,-14.9572,179.231,1.86768,-144.998,460
1569683399,322.92,-10.7156,-14.9572,179.231,1.86768,-144.998,464
1569683399,322.92,-10.7156,-14.9572,179.231,1.86768,-144.998,464
1569683399,322.808,-10.7156,-14.9572,179.231,1.86768,-144.998,464
1569683399,322.808,-10.7156,-14.9572,179.231,1.86768,-144.998,464
1569683399,322.808,-10.7156,-14.9572,179.231,1.86768,-144.998,464
1569683399,322.808,-10.7156,-14.9572,179.231,1.86768,-144.998,464
1569683399,322.808,-10.7156,-14.9572,179.231,1.86768,-144.998,464
1569683399,322.808,-10.7156,-14.9572,179.231,1.86768,-144.998,464
1569683399,322.808,-10.7156,-14.9572,179.231,1.86768,-144.998,464
1569683399,322.808,-10.7156,-14.9572,179.231,1.86768,-144.998,468
1569683399,322.808,-10.7156,-14.9572,179.231,1.86768,-144.998,468
1569683399,322.808,-10.7156,-14.9572,179.231,1.86768,-144.998,468
1569683399,322.808,-10.7156,-14.9572,179.231,1.86768,-144.998,468
1569683399,322.808,-10.7156,-14.9572,179.231,1.86768,-144.998,468
1569683399,322.808,-10.7156,-14.9572,179.231,1.86768,-144.998,468
1569683399,322.808,-10.7156,-14.9572,179.231,1.86768,-144.998,468
1569683399,322.808,-10.7156,-14.9572,179.231,1.86768,-144.998,468
1569683399,322.808,-10.7156,-14.9572,179.231,1.86768,-144.998,468
1569683399,322.808,-10.7156,-14.9572,179.231,1.86768,-144.998,468
1569683399,322.92,-10.7156,-14.9572,179.231,1.86768,-144.998,468
1569683399,322.92,-10.7156,-14.9572,179.231,1.88965,-144.998,468
1569683399,322.92,-10.7156,-14.9572,179.231,1.88965,-144.998,468
1569683399,322.808,-10.7156,-14.9572,179.231,1.88965,-144.998,468
1569683399,322.808,-10.7156,-14.9572,179.231,1.88965,-144.998,468
1569683399,322.808,-10.7156,-14.9572,179.231,1.88965,-144.998,468
1569683399,322.808,-10.7156,-14.9572,179.231,1.88965,-144.998,468
1569683399,322.808,-10.7156,-14.9572,179.231,1.88965,-144.998,468
1569683399,322.808,-10.7156,-14.9572,179.231,1.88965,-144.998,468
1569683399,322.808,-10.7156,-14.9572,179.231,1.88965,-144.998,468
1569683399,322.808,-10.7156,-14.9572,179.231,1.88965,-144.998,468
1569683399,322.808,-10.7156,-14.9572,179.231,1.88965,-144.998,468
1569683399,322.808,-10.7156,-14.9572,179.231,1.88965,-144.998,468
1569683399,322.808,-10.7156,-14.9572,179.231,1.88965,-144.998,468
1569683399,322.92,-10.7156,-14.9572,179.231,1.88965,-144.998,468
1569683399,322.92,-10.7156,-14.9572,179.231,1.88965,-144.998,468
1569683399,322.92,-10.7156,-14.9572,179.231,1.88965,-144.998,468
1569683399,322.92,-10.7156,-14.9572,179.231,1.88965,-144.998,468
1569683399,322.92,-10.7156,-14.9572,179.231,1.88965,-144.998,468
1569683399,322.92,-10.7156,-14.9572,179.253,1.86768,-144.998,468
1569683399,322.92,-10.7156,-14.9572,179.253,1.86768,-144.998,468
1569683399,322.92,-10.7156,-14.9572,179.253,1.86768,-144.998,468
1569683399,322.92,-10.7156,-14.9572,179.253,1.86768,-144.998,464
1569683399,322.92,-10.7156,-14.9572,179.253,1.86768,-144.998,464
1569683399,322.92,-10.7156,-14.9572,179.253,1.88965,-144.998,464
1569683399,322.92,-10.7156,-14.9572,179.253,1.88965,-144.998,464
1569683399,322.808,-10.7156,-14.9572,179.253,1.88965,-144.998,464
1569683399,322.92,-10.7156,-14.9572,179.253,1.88965,-144.998,464
1569683399,322.92,-10.7156,-14.9572,179.253,1.88965,-144.998,464
1569683399,322.92,-10.7156,-14.9572,179.253,1.88965,-144.998,464
1569683399,322.92,-10.7156,-14.9572,179.253,1.86768,-144.998,464
1569683399,322.92,-10.7156,-14.9572,179.231,1.86768,-144.998,460
1569683399,322.92,-10.7156,-14.9572,179.231,1.86768,-144.998,460
1569683399,322.92,-10.7156,-14.9572,179.231,1.86768,-144.998,460
1569683399,322.92,-10.7156,-14.9572,179.231,1.86768,-144.998,460
1569683399,322.92,-10.7156,-14.9572,179.231,1.86768,-144.998,460
1569683399,322.92,-10.7156,-14.9572,179.231,1.86768,-144.998,456
1569683399,322.92,-10.7156,-14.9572,179.231,1.86768,-144.998,456
1569683399,322.92,-10.7156,-14.9572,179.253,1.86768,-144.998,456
1569683399,322.92,-10.7156,-14.9572,179.253,1.86768,-144.998,456
1569683399,322.92,-10.7156,-14.9572,179.253,1.86768,-144.998,456
1569683399,322.92,-10.7156,-14.9572,179.253,1.86768,-144.998,456
1569683399,322.92,-10.7156,-14.9572,179.253,1.86768,-144.998,456
1569683399,322.92,-10.7156,-14.9572,179.253,1.86768,-144.998,456
1569683399,322.92,-10.7156,-15.0688,179.253,1.86768,-144.998,452
1569683399,322.92,-10.7156,-15.0688,179.253,1.86768,-144.998,452
1569683399,322.92,-10.7156,-15.0688,179.253,1.86768,-144.998,452
1569683399,322.92,-10.7156,-15.0688,179.253,1.86768,-144.998,452
1569683400,322.92,-10.7156,-15.0688,179.253,1.86768,-144.998,452
1569683400,322.92,-10.7156,-15.0688,179.253,1.86768,-144.998,452
1569683400,322.92,-10.7156,-15.0688,179.253,1.86768,-144.998,452
1569683400,322.92,-10.7156,-15.0688,179.253,1.86768,-144.998,452
1569683400,322.92,-10.7156,-15.0688,179.253,1.86768,-144.998,452
1569683400,322.92,-10.7156,-15.0688,179.253,1.86768,-144.998,456
1569683400,322.92,-10.7156,-14.9572,179.253,1.86768,-144.998,456
1569683400,322.92,-10.7156,-14.9572,179.253,1.86768,-144.998,456
1569683400,322.92,-10.7156,-14.9572,179.253,1.88965,-144.998,456
1569683400,322.92,-10.7156,-14.9572,179.253,1.88965,-144.998,456
1569683400,322.92,-10.7156,-14.9572,179.253,1.88965,-144.998,456
1569683400,322.808,-10.7156,-14.9572,179.253,1.88965,-144.998,460
1569683400,322.808,-10.7156,-14.9572,179.253,1.88965,-144.998,460
1569683400,322.808,-10.7156,-14.9572,179.253,1.88965,-144.998,460
1569683400,322.808,-10.7156,-14.9572,179.253,1.88965,-144.998,460
1569683400,322.808,-10.7156,-14.9572,179.253,1.88965,-144.998,460
1569683400,322.808,-10.7156,-14.9572,179.253,1.88965,-144.998,464
1569683400,322.808,-10.7156,-14.9572,179.253,1.88965,-144.998,464
1569683400,322.92,-10.7156,-14.9572,179.253,1.88965,-144.998,464
1569683400,322.92,-10.7156,-14.9572,179.253,1.88965,-144.998,464
1569683400,322.808,-10.7156,-14.9572,179.253,1.88965,-144.998,464
1569683400,322.808,-10.7156,-14.9572,179.253,1.88965,-144.998,464
1569683400,322.808,-10.7156,-14.9572,179.253,1.86768,-144.998,464
1569683400,322.808,-10.7156,-14.9572,179.253,1.86768,-144.998,464
1569683400,322.808,-10.7156,-14.9572,179.253,1.86768,-144.998,464
1569683400,322.808,-10.7156,-14.9572,179.253,1.86768,-144.998,464
1569683400,322.808,-10.7156,-14.9572,179.253,1.86768,-144.998,464
1569683400,322.808,-10.7156,-14.9572,179.253,1.86768,-144.998,464
1569683400,322.808,-10.7156,-14.9572,179.253,1.86768,-144.998,464
1569683400,322.808,-10.7156,-14.9572,179.253,1.86768,-144.998,464
1569683400,322.808,-10.604,-14.9572,179.253,1.86768,-144.998,460
1569683400,322.808,-10.604,-14.9572,179.253,1.86768,-144.998,460
1569683400,322.808,-10.604,-14.9572,179.253,1.88965,-144.998,460
1569683400,322.808,-10.604,-14.9572,179.253,1.88965,-144.998,460
1569683400,322.808,-10.604,-14.9572,179.253,1.88965,-144.998,460
1569683400,322.808,-10.604,-14.9572,179.253,1.88965,-144.998,460
1569683400,322.808,-10.604,-14.9572,179.253,1.88965,-144.998,460
1569683400,322.808,-10.604,-14.9572,179.275,1.88965,-144.998,460
1569683400,322.808,-10.604,-14.9572,179.275,1.88965,-144.998,460
1569683400,322.808,-10.604,-14.9572,179.275,1.88965,-144.998,464
1569683400,322.808,-10.604,-14.9572,179.275,1.88965,-144.998,464
1569683400,322.808,-10.604,-14.9572,179.275,1.88965,-144.998,464
1569683400,322.808,-10.604,-14.9572,179.275,1.88965,-144.998,464
1569683400,322.808,-10.604,-14.9572,179.275,1.88965,-144.998,464
1569683400,322.808,-10.604,-14.9572,179.275,1.88965,-144.998,464
1569683400,322.808,-10.604,-14.9572,179.275,1.88965,-144.998,464
1569683400,322.92,-10.604,-14.9572,179.275,1.88965,-144.998,464
1569683400,322.92,-10.604,-14.9572,179.275,1.88965,-144.998,464
1569683400,322.92,-10.604,-14.9572,179.275,1.88965,-144.998,464
1569683400,322.92,-10.604,-14.9572,179.275,1.88965,-144.998,468
1569683400,322.92,-10.604,-14.9572,179.275,1.88965,-144.998,468
1569683400,322.92,-10.604,-14.9572,179.275,1.88965,-144.998,468
1569683400,322.92,-10.604,-14.9572,179.275,1.88965,-144.998,468
1569683400,322.92,-10.604,-14.9572,179.275,1.88965,-144.998,468
1569683400,322.92,-10.604,-14.9572,179.275,1.88965,-144.998,468
1569683400,322.92,-10.604,-14.9572,179.275,1.88965,-144.998,468
1569683400,322.92,-10.604,-14.9572,179.275,1.88965,-144.998,468
1569683400,322.92,-10.604,-14.9572,179.275,1.88965,-144.998,468
1569683400,322.92,-10.604,-14.9572,179.275,1.88965,-144.998,468
1569683400,322.92,-10.604,-14.9572,179.275,1.88965,-144.998,468
1569683400,322.92,-10.604,-14.9572,179.275,1.88965,-144.998,468
1569683400,322.92,-10.604,-14.9572,179.275,1.88965,-144.998,468
1569683400,322.92,-10.604,-14.9572,179.253,1.88965,-144.998,468
1569683400,322.92,-10.604,-14.9572,179.253,1.88965,-144.998,468
1569683400,322.92,-10.604,-14.9572,179.253,1.88965,-144.998,468
1569683400,322.92,-10.604,-14.9572,179.253,1.88965,-144.998,468
1569683400,322.92,-10.7156,-14.9572,179.253,1.88965,-144.998,468
1569683400,322.92,-10.7156,-14.9572,179.253,1.88965,-144.998,472
1569683400,322.92,-10.7156,-14.9572,179.253,1.88965,-144.998,472
1569683400,322.92,-10.7156,-14.9572,179.253,1.88965,-144.998,472
1569683400,322.92,-10.7156,-14.9572,179.253,1.88965,-144.998,472
1569683400,322.92,-10.7156,-14.9572,179.253,1.88965,-144.998,472
1569683400,322.92,-10.7156,-14.9572,179.253,1.88965,-144.998,472
1569683400,322.92,-10.7156,-14.9572,179.253,1.88965,-144.998,472
1569683400,322.92,-10.7156,-14.9572,179.253,1.88965,-144.998,472
1569683400,322.92,-10.7156,-14.9572,179.253,1.88965,-144.998,472
1569683400,322.92,-10.7156,-14.9572,179.253,1.88965,-144.998,472
1569683400,322.92,-10.7156,-14.9572,179.231,1.91162,-144.998,472
1569683400,322.92,-10.7156,-14.9572,179.231,1.91162,-144.998,472
1569683400,322.92,-10.7156,-14.9572,179.231,1.91162,-144.998,472
1569683400,322.92,-10.7156,-14.9572,179.231,1.91162,-144.998,472
1569683400,322.92,-10.7156,-14.9572,179.231,1.91162,-144.998,476
1569683400,322.808,-10.7156,-14.8456,179.231,1.91162,-144.998,476
1569683400,322.808,-10.7156,-14.8456,179.231,1.91162,-144.998,476
1569683400,322.808,-10.7156,-14.8456,179.231,1.91162,-144.998,476
1569683400,322.808,-10.7156,-14.8456,179.231,1.91162,-144.998,476
1569683400,322.808,-10.7156,-14.9572,179.231,1.91162,-144.998,476
1569683400,322.808,-10.7156,-14.9572,179.231,1.91162,-144.998,476
1569683400,322.808,-10.7156,-14.8456,179.231,1.91162,-144.998,476
1569683400,322.808,-10.7156,-14.8456,179.231,1.91162,-144.998,476
1569683400,322.808,-10.7156,-14.8456,179.231,1.91162,-144.998,476
1569683400,322.808,-10.7156,-14.8456,179.231,1.91162,-144.998,476
1569683400,322.808,-10.7156,-14.8456,179.231,1.91162,-144.998,476
1569683400,322.808,-10.7156,-14.8456,179.231,1.91162,-144.998,476
1569683400,322.808,-10.7156,-14.8456,179.231,1.91162,-144.998,476
1569683400,322.808,-10.7156,-14.8456,179.231,1.91162,-144.998,476
1569683400,322.808,-10.7156,-14.8456,179.231,1.91162,-144.998,476
1569683400,322.808,-10.7156,-14.8456,179.231,1.91162,-144.998,476
1569683400,322.808,-10.7156,-14.8456,179.231,1.91162,-144.998,476
1569683400,322.808,-10.7156,-14.8456,179.231,1.91162,-144.998,476
1569683401,322.808,-10.7156,-14.8456,179.231,1.91162,-144.998,476
1569683401,322.808,-10.7156,-14.8456,179.231,1.91162,-144.998,476
1569683401,322.808,-10.7156,-14.9572,179.231,1.91162,-144.998,472
1569683401,322.808,-10.7156,-14.9572,179.231,1.91162,-144.998,472
1569683401,322.808,-10.7156,-14.9572,179.231,1.91162,-144.998,472
1569683401,322.808,-10.7156,-14.9572,179.231,1.91162,-144.998,472
1569683401,322.808,-10.7156,-14.9572,179.231,1.91162,-144.998,472
1569683401,322.808,-10.7156,-14.9572,179.231,1.91162,-144.998,472
1569683401,322.808,-10.7156,-14.8456,179.231,1.91162,-144.998,472
1569683401,322.808,-10.7156,-14.8456,179.231,1.91162,-144.998,472
1569683401,322.808,-10.7156,-14.8456,179.231,1.91162,-144.998,472
1569683401,322.808,-10.7156,-14.8456,179.231,1.91162,-144.998,472
1569683401,322.808,-10.7156,-14.8456,179.231,1.91162,-144.998,472
1569683401,322.808,-10.7156,-14.8456,179.231,1.91162,-144.998,472
1569683401,322.808,-10.7156,-14.8456,179.231,1.91162,-144.998,472
1569683401,322.808,-10.7156,-14.8456,179.231,1.91162,-144.998,468
1569683401,322.808,-10.7156,-14.8456,179.231,1.91162,-144.998,468
1569683401,322.808,-10.7156,-14.8456,179.253,1.91162,-144.998,468
1569683401,322.808,-10.7156,-14.8456,179.253,1.91162,-144.998,468
1569683401,322.808,-10.7156,-14.9572,179.253,1.88965,-144.998,468
1569683401,322.808,-10.7156,-14.9572,179.253,1.88965,-144.998,468
1569683401,322.808,-10.7156,-14.9572,179.253,1.88965,-144.998,464
1569683401,322.808,-10.7156,-14.9572,179.253,1.88965,-144.998,464
1569683401,322.808,-10.7156,-14.9572,179.253,1.88965,-144.998,464
1569683401,322.808,-10.7156,-14.9572,179.253,1.88965,-144.998,464
1569683401,322.808,-10.7156,-14.9572,179.253,1.88965,-144.998,464
1569683401,322.808,-10.7156,-14.9572,179.253,1.88965,-144.998,464
1569683401,322.808,-10.7156,-14.9572,179.253,1.88965,-144.998,464
1569683401,322.808,-10.7156,-14.9572,179.253,1.88965,-144.998,464
1569683401,322.808,-10.7156,-14.9572,179.253,1.88965,-144.998,464
1569683401,322.808,-10.7156,-14.9572,179.253,1.88965,-144.998,464
1569683401,322.808,-10.7156,-14.9572,179.253,1.88965,-144.998,464
1569683401,322.808,-10.7156,-14.9572,179.253,1.88965,-144.998,464
1569683401,322.808,-10.7156,-14.9572,179.253,1.88965,-144.998,464
1569683401,322.808,-10.7156,-14.9572,179.253,1.88965,-144.998,464
1569683401,322.808,-10.7156,-14.9572,179.253,1.88965,-144.998,464
1569683401,322.808,-10.7156,-14.9572,179.253,1.88965,-144.998,464
1569683401,322.808,-10.7156,-14.9572,179.253,1.88965,-144.998,464
1569683401,322.808,-10.7156,-14.9572,179.253,1.88965,-144.998,464
1569683401,322.808,-10.7156,-14.9572,179.253,1.88965,-144.998,464
1569683401,322.808,-10.7156,-14.9572,179.253,1.86768,-144.998,464
1569683401,322.808,-10.7156,-14.9572,179.253,1.86768,-144.998,464
1569683401,322.808,-10.7156,-14.9572,179.253,1.86768,-144.998,464
1569683401,322.808,-10.7156,-14.9572,179.253,1.86768,-144.998,464
1569683401,322.808,-10.7156,-14.9572,179.253,1.86768,-144.998,464
1569683401,322.808,-10.7156,-14.9572,179.253,1.86768,-144.998,464
1569683401,322.808,-10.7156,-14.9572,179.253,1.88965,-144.998,464
1569683401,322.808,-10.7156,-14.9572,179.253,1.88965,-144.998,464
1569683401,322.808,-10.7156,-14.9572,179.253,1.88965,-144.998,464
1569683401,322.808,-10.7156,-14.9572,179.253,1.88965,-144.998,464
1569683401,322.808,-10.7156,-14.9572,179.253,1.88965,-144.998,464
1569683401,322.808,-10.7156,-14.9572,179.253,1.88965,-144.998,464
1569683401,322.92,-10.7156,-14.9572,179.253,1.88965,-144.998,460
1569683401,322.92,-10.7156,-14.9572,179.231,1.88965,-144.998,460
1569683401,322.92,-10.7156,-14.9572,179.231,1.88965,-144.998,460
1569683401,322.92,-10.7156,-14.9572,179.231,1.88965,-144.998,460
1569683401,322.92,-10.7156,-14.9572,179.231,1.88965,-144.998,460
1569683401,322.92,-10.7156,-14.9572,179.231,1.88965,-144.998,460
1569683401,322.92,-10.7156,-14.9572,179.231,1.88965,-144.998,460
1569683401,322.92,-10.7156,-14.9572,179.231,1.88965,-144.998,456
1569683401,322.92,-10.7156,-14.9572,179.253,1.88965,-144.998,456
1569683401,322.92,-10.7156,-14.9572,179.253,1.88965,-144.998,456
1569683401,322.92,-10.7156,-14.9572,179.253,1.88965,-144.998,456
1569683401,322.92,-10.7156,-14.9572,179.253,1.88965,-144.998,456
1569683401,322.92,-10.7156,-14.9572,179.253,1.88965,-144.998,456
1569683401,322.92,-10.7156,-14.9572,179.253,1.88965,-144.998,456
1569683401,322.92,-10.7156,-14.9572,179.253,1.88965,-144.998,456
1569683401,322.92,-10.7156,-14.9572,179.253,1.88965,-144.998,456
1569683401,322.92,-10.7156,-14.9572,179.253,1.88965,-144.998,456
1569683401,322.92,-10.7156,-14.9572,179.253,1.88965,-144.998,456
1569683401,322.92,-10.7156,-14.9572,179.253,1.88965,-144.998,456
1569683401,322.92,-10.7156,-14.9572,179.253,1.88965,-144.998,456
1569683401,322.92,-10.7156,-14.9572,179.253,1.88965,-144.998,456
1569683401,322.92,-10.7156,-14.9572,179.253,1.88965,-144.998,456
1569683401,322.92,-10.7156,-14.9572,179.253,1.88965,-144.998,456
1569683401,322.92,-10.7156,-14.9572,179.253,1.88965,-144.998,456
1569683401,322.92,-10.7156,-14.9572,179.253,1.88965,-144.998,456
1569683401,322.92,-10.7156,-14.9572,179.253,1.88965,-144.976,452
1569683401,322.92,-10.7156,-14.9572,179.253,1.88965,-144.976,452
1569683401,322.92,-10.7156,-14.9572,179.253,1.88965,-144.976,452
1569683401,322.92,-10.7156,-14.9572,179.253,1.88965,-144.976,452
1569683401,322.92,-10.7156,-14.9572,179.253,1.88965,-144.976,452
1569683401,322.92,-10.7156,-14.9572,179.253,1.88965,-144.976,452
1569683401,322.92,-10.7156,-14.9572,179.253,1.88965,-144.976,452
1569683401,322.92,-10.7156,-14.9572,179.253,1.88965,-144.976,452
1569683401,322.92,-10.7156,-14.9572,179.253,1.88965,-144.976,452
1569683401,322.92,-10.7156,-14.9572,179.253,1.88965,-144.976,452
1569683401,322.92,-10.7156,-14.9572,179.253,1.88965,-144.976,452
1569683401,322.92,-10.7156,-14.9572,179.253,1.88965,-144.976,448
1569683401,322.92,-10.7156,-14.9572,179.253,1.88965,-144.976,448
1569683401,322.92,-10.7156,-14.9572,179.253,1.88965,-144.976,448
1569683401,322.92,-10.7156,-14.9572,179.253,1.88965,-144.976,448
1569683401,322.92,-10.7156,-14.9572,179.253,1.88965,-144.976,448
1569683401,322.92,-10.7156,-14.9572,179.253,1.88965,-144.976,448
1569683401,322.92,-10.7156,-14.9572,179.253,1.88965,-144.976,448
1569683401,322.92,-10.7156,-14.9572,179.253,1.88965,-144.976,448
1569683401,322.92,-10.7156,-14.9572,179.253,1.88965,-144.976,452
1569683401,322.808,-10.7156,-14.9572,179.253,1.88965,-144.976,452
1569683401,322.808,-10.7156,-14.9572,179.253,1.88965,-144.976,452
1569683401,322.808,-10.7156,-14.9572,179.253,1.88965,-144.976,452
1569683402,322.808,-10.7156,-14.9572,179.253,1.88965,-144.976,452
1569683402,322.808,-10.7156,-14.9572,179.253,1.88965,-144.998,452
1569683402,322.808,-10.604,-14.9572,179.253,1.88965,-144.998,456
1569683402,322.808,-10.604,-14.9572,179.253,1.88965,-144.998,456
1569683402,322.808,-10.604,-14.9572,179.253,1.88965,-144.998,456
1569683402,322.808,-10.604,-14.9572,179.253,1.88965,-144.998,456
1569683402,322.808,-10.604,-14.9572,179.253,1.88965,-144.998,456
1569683402,322.808,-10.604,-14.9572,179.253,1.88965,-144.998,456
1569683402,322.808,-10.604,-14.9572,179.275,1.88965,-144.998,456
1569683402,322.808,-10.604,-14.9572,179.275,1.88965,-144.998,456
1569683402,322.808,-10.604,-14.9572,179.275,1.88965,-144.998,456
1569683402,322.808,-10.604,-14.9572,179.275,1.88965,-144.998,456
1569683402,322.808,-10.604,-14.9572,179.275,1.88965,-144.998,456
1569683402,322.808,-10.604,-14.9572,179.275,1.88965,-144.998,456
1569683402,322.808,-10.604,-14.9572,179.275,1.88965,-144.998,456
1569683402,322.808,-10.604,-14.9572,179.275,1.88965,-144.998,456
1569683402,322.808,-10.604,-14.9572,179.275,1.88965,-144.998,456
1569683402,322.92,-10.604,-14.9572,179.275,1.88965,-144.998,456
1569683402,322.92,-10.604,-14.9572,179.275,1.88965,-144.998,456
1569683402,322.92,-10.604,-14.9572,179.275,1.88965,-144.998,456
1569683402,322.92,-10.604,-14.9572,179.275,1.88965,-144.998,456
1569683402,322.92,-10.604,-14.9572,179.275,1.88965,-144.998,456
1569683402,322.92,-10.604,-14.9572,179.275,1.88965,-144.998,456
1569683402,322.92,-10.604,-14.9572,179.253,1.88965,-144.998,456
1569683402,322.808,-10.604,-14.9572,179.253,1.88965,-144.998,456
1569683402,322.808,-10.604,-14.9572,179.253,1.88965,-144.998,456
1569683402,322.808,-10.604,-14.9572,179.253,1.88965,-144.998,456
1569683402,322.808,-10.604,-14.9572,179.275,1.88965,-144.998,456
1569683402,322.808,-10.604,-14.9572,179.275,1.88965,-144.998,456
1569683402,322.808,-10.604,-14.9572,179.275,1.88965,-144.998,456
1569683402,322.808,-10.604,-14.9572,179.253,1.88965,-144.998,460
1569683402,322.808,-10.604,-14.9572,179.253,1.88965,-144.998,460
1569683402,322.808,-10.604,-14.9572,179.253,1.91162,-144.998,460
1569683402,322.808,-10.604,-14.9572,179.253,1.91162,-144.998,460
1569683402,322.808,-10.604,-14.9572,179.253,1.91162,-144.998,460
1569683402,322.808,-10.604,-14.9572,179.253,1.91162,-144.998,460
1569683402,322.808,-10.604,-14.9572,179.253,1.91162,-144.998,464
1569683402,322.808,-10.604,-14.9572,179.253,1.91162,-144.998,464
1569683402,322.808,-10.604,-14.9572,179.253,1.91162,-144.998,464
1569683402,322.808,-10.604,-14.9572,179.253,1.91162,-144.998,464
1569683402,322.92,-10.604,-14.9572,179.253,1.91162,-144.998,464
1569683402,322.92,-10.604,-14.9572,179.253,1.91162,-144.998,464
1569683402,322.92,-10.604,-14.9572,179.253,1.91162,-144.998,464
1569683402,322.92,-10.604,-14.9572,179.253,1.91162,-144.998,464
1569683402,322.92,-10.604,-14.9572,179.253,1.91162,-144.998,460
1569683402,322.92,-10.604,-14.9572,179.253,1.91162,-144.998,460
1569683402,322.92,-10.604,-14.9572,179.253,1.91162,-144.998,460
1569683402,322.92,-10.604,-14.9572,179.253,1.88965,-144.998,460
1569683402,322.92,-10.604,-14.9572,179.253,1.88965,-144.998,460
1569683402,322.92,-10.604,-14.9572,179.253,1.88965,-144.998,460
1569683402,322.808,-10.604,-14.9572,179.253,1.88965,-144.998,460
1569683402,322.808,-10.604,-14.9572,179.253,1.88965,-144.998,460
1569683402,322.808,-10.604,-14.9572,179.253,1.88965,-144.998,460
1569683402,322.808,-10.604,-14.9572,179.253,1.88965,-144.998,460
1569683402,322.808,-10.604,-14.9572,179.253,1.88965,-144.998,460
1569683402,322.808,-10.604,-14.9572,179.253,1.88965,-144.998,460
1569683402,322.808,-10.604,-14.9572,179.253,1.88965,-144.998,464
1569683402,322.808,-10.604,-14.9572,179.253,1.88965,-144.998,464
1569683402,322.808,-10.604,-14.9572,179.253,1.88965,-144.998,464
1569683402,322.808,-10.604,-14.9572,179.253,1.88965,-144.998,464
1569683402,322.808,-10.604,-14.9572,179.253,1.88965,-144.998,464
1569683402,322.808,-10.604,-14.9572,179.253,1.88965,-144.998,464
1569683402,322.808,-10.604,-14.9572,179.253,1.88965,-144.998,464
1569683402,322.808,-10.604,-14.9572,179.253,1.88965,-144.998,464
1569683402,322.808,-10.604,-14.9572,179.253,1.88965,-144.998,464
1569683402,322.808,-10.604,-14.9572,179.253,1.88965,-144.998,464
1569683402,322.808,-10.604,-14.9572,179.253,1.88965,-144.998,464
1569683402,322.808,-10.604,-14.9572,179.253,1.88965,-144.998,464
1569683402,322.808,-10.604,-14.9572,179.253,1.91162,-144.998,464
1569683402,322.808,-10.604,-14.9572,179.253,1.91162,-144.998,464
1569683402,322.808,-10.604,-14.9572,179.253,1.91162,-145.02,464
1569683402,322.92,-10.604,-14.8456,179.253,1.91162,-145.02,464
1569683402,322.92,-10.604,-14.8456,179.253,1.91162,-145.02,464
1569683402,322.92,-10.7156,-14.9572,179.253,1.91162,-145.02,464
1569683402,322.92,-10.7156,-14.9572,179.253,1.91162,-145.02,468
1569683402,322.92,-10.7156,-14.9572,179.253,1.88965,-145.02,468
1569683402,322.92,-10.7156,-14.9572,179.253,1.88965,-145.02,468
1569683402,322.92,-10.7156,-14.9572,179.253,1.88965,-145.02,464
1569683402,322.92,-10.7156,-14.9572,179.253,1.88965,-145.02,464
1569683402,322.92,-10.7156,-14.9572,179.253,1.88965,-145.02,464
1569683402,322.92,-10.7156,-14.9572,179.253,1.88965,-145.02,464
1569683402,322.92,-10.7156,-14.9572,179.253,1.88965,-145.02,464
1569683402,322.92,-10.7156,-14.9572,179.253,1.88965,-145.02,464
1569683402,322.92,-10.7156,-14.9572,179.253,1.88965,-145.02,464
1569683402,322.92,-10.7156,-14.9572,179.253,1.88965,-145.02,464
1569683406,361.429,-51.0108,-13.3945,179.495,2.50488,-144.778,512
1569683406,361.429,-51.0108,-13.3945,179.495,2.50488,-144.778,512
1569683406,361.429,-51.0108,-13.5062,179.495,2.50488,-144.778,512
1569683406,361.429,-51.0108,-13.5062,179.495,2.50488,-144.778,512
1569683406,361.429,-51.0108,-13.5062,179.495,2.48291,-144.778,512
1569683406,361.429,-51.0108,-13.5062,179.495,2.48291,-144.778,512
1569683406,361.429,-51.0108,-13.5062,179.517,2.48291,-144.778,512
1569683406,361.429,-51.0108,-13.5062,179.517,2.48291,-144.778,512
1569683406,361.429,-51.0108,-13.5062,179.517,2.48291,-144.778,516
1569683406,361.429,-51.0108,-13.5062,179.517,2.48291,-144.778,516
1569683406,361.429,-51.0108,-13.5062,179.517,2.48291,-144.778,516
1569683406,361.429,-51.0108,-13.5062,179.517,2.48291,-144.778,516
1569683406,361.429,-51.0108,-13.5062,179.517,2.48291,-144.778,516
1569683406,361.429,-51.0108,-13.5062,179.517,2.48291,-144.778,516
1569683406,361.429,-51.0108,-13.5062,179.517,2.50488,-144.778,520
1569683406,361.429,-51.0108,-13.5062,179.517,2.50488,-144.778,520
1569683406,361.429,-51.0108,-13.3945,179.517,2.50488,-144.778,520
1569683406,361.429,-51.0108,-13.3945,179.517,2.50488,-144.778,524
1569683406,361.429,-51.0108,-13.3945,179.517,2.50488,-144.778,524
1569683406,361.429,-51.0108,-13.3945,179.517,2.50488,-144.778,524
1569683406,361.429,-51.0108,-13.3945,179.517,2.50488,-144.778,524
1569683406,361.429,-51.0108,-13.3945,179.517,2.50488,-144.778,524
1569683406,361.429,-51.0108,-13.3945,179.517,2.50488,-144.8,528
1569683406,361.429,-51.0108,-13.3945,179.517,2.50488,-144.8,528
1569683406,361.429,-51.0108,-13.3945,179.517,2.50488,-144.8,528
1569683406,361.429,-51.0108,-13.3945,179.517,2.50488,-144.8,528
1569683406,361.429,-51.0108,-13.3945,179.517,2.50488,-144.8,528
1569683406,361.429,-51.0108,-13.3945,179.517,2.50488,-144.8,528
1569683407,361.429,-51.0108,-13.3945,179.517,2.50488,-144.8,528
1569683407,361.429,-51.0108,-13.3945,179.517,2.50488,-144.8,528
1569683407,361.429,-51.0108,-13.3945,179.517,2.50488,-144.8,528
1569683407,361.429,-51.0108,-13.3945,179.517,2.50488,-144.8,528
1569683407,361.429,-51.0108,-13.3945,179.517,2.50488,-144.8,528
1569683407,361.429,-51.0108,-13.3945,179.517,2.50488,-144.8,528
1569683407,361.429,-51.0108,-13.3945,179.517,2.50488,-144.8,528
1569683407,361.429,-51.0108,-13.3945,179.517,2.50488,-144.8,528
1569683407,361.429,-51.0108,-13.3945,179.517,2.50488,-144.8,528
1569683407,361.541,-51.0108,-13.3945,179.517,2.50488,-144.8,528
1569683407,361.541,-51.0108,-13.3945,179.517,2.50488,-144.8,528
1569683407,361.541,-51.0108,-13.3945,179.517,2.50488,-144.8,528
1569683407,361.541,-51.0108,-13.3945,179.517,2.50488,-144.8,524
1569683407,361.541,-51.0108,-13.3945,179.517,2.52686,-144.8,524
1569683407,361.541,-51.0108,-13.3945,179.517,2.52686,-144.8,524
1569683407,361.541,-51.0108,-13.3945,179.517,2.52686,-144.8,524
1569683407,361.541,-51.0108,-13.3945,179.517,2.52686,-144.8,524
1569683407,361.541,-51.0108,-13.3945,179.517,2.52686,-144.778,520
1569683407,361.541,-51.0108,-13.3945,179.517,2.52686,-144.778,520
1569683407,361.541,-51.0108,-13.3945,179.517,2.52686,-144.778,520
1569683407,361.541,-51.0108,-13.3945,179.517,2.52686,-144.778,520
1569683407,361.541,-51.0108,-13.3945,179.517,2.52686,-144.778,520
1569683407,361.541,-51.0108,-13.3945,179.517,2.52686,-144.778,516
1569683407,361.541,-51.0108,-13.3945,179.517,2.52686,-144.778,516
1569683407,361.541,-51.0108,-13.3945,179.539,2.52686,-144.778,516
1569683407,361.541,-51.0108,-13.3945,179.539,2.52686,-144.8,516
1569683407,361.541,-51.0108,-13.3945,179.539,2.52686,-144.8,516
1569683407,361.541,-51.0108,-13.3945,179.539,2.52686,-144.8,516
1569683407,361.541,-51.0108,-13.3945,179.539,2.52686,-144.778,516
1569683407,361.541,-51.0108,-13.3945,179.539,2.50488,-144.778,516
1569683407,361.541,-51.0108,-13.3945,179.539,2.50488,-144.778,516
1569683407,361.541,-51.0108,-13.3945,179.539,2.50488,-144.778,516
1569683407,361.541,-50.8992,-13.3945,179.539,2.50488,-144.778,516
1569683407,361.541,-50.8992,-13.3945,179.539,2.50488,-144.778,516
1569683407,361.541,-50.8992,-13.3945,179.539,2.50488,-144.778,516
1569683407,361.541,-50.8992,-13.3945,179.539,2.50488,-144.778,516
1569683407,361.541,-50.8992,-13.3945,179.539,2.50488,-144.778,516
1569683407,361.541,-50.8992,-13.3945,179.539,2.50488,-144.778,516
1569683407,361.541,-50.8992,-13.3945,179.539,2.50488,-144.778,516
1569683407,361.541,-50.8992,-13.3945,179.539,2.52686,-144.778,516
1569683407,361.541,-50.8992,-13.3945,179.539,2.52686,-144.778,516
1569683407,361.541,-50.8992,-13.3945,179.539,2.52686,-144.778,516
1569683407,361.541,-50.8992,-13.3945,179.539,2.52686,-144.778,516
1569683407,361.541,-50.8992,-13.3945,179.539,2.52686,-144.8,516
1569683407,361.541,-50.8992,-13.3945,179.539,2.52686,-144.8,516
1569683407,361.541,-50.8992,-13.3945,179.539,2.52686,-144.8,520
1569683407,361.541,-50.8992,-13.3945,179.539,2.52686,-144.8,520
1569683407,361.541,-50.8992,-13.3945,179.539,2.52686,-144.8,520
1569683407,361.541,-50.8992,-13.3945,179.539,2.52686,-144.8,520
1569683407,361.541,-50.8992,-13.3945,179.539,2.52686,-144.8,520
1569683407,361.541,-50.8992,-13.3945,179.539,2.52686,-144.8,520
1569683407,361.541,-50.8992,-13.3945,179.539,2.52686,-144.8,520
1569683407,361.541,-50.8992,-13.3945,179.539,2.52686,-144.8,520
1569683407,361.541,-50.8992,-13.3945,179.539,2.52686,-144.8,524
1569683407,361.541,-50.8992,-13.3945,179.539,2.52686,-144.8,524
1569683407,361.541,-50.8992,-13.3945,179.539,2.50488,-144.8,524
1569683407,361.541,-50.8992,-13.3945,179.539,2.50488,-144.8,524
1569683407,361.541,-50.8992,-13.5062,179.539,2.50488,-144.8,524
1569683407,361.541,-50.8992,-13.5062,179.539,2.50488,-144.8,524
1569683407,361.541,-50.8992,-13.3945,179.539,2.50488,-144.8,524
1569683407,361.541,-50.8992,-13.3945,179.539,2.50488,-144.8,524
1569683407,361.541,-51.0108,-13.3945,179.539,2.50488,-144.8,528
1569683407,361.541,-51.0108,-13.3945,179.539,2.50488,-144.8,528
1569683407,361.541,-51.0108,-13.3945,179.539,2.50488,-144.8,528
1569683407,361.541,-51.0108,-13.3945,179.539,2.50488,-144.8,528
1569683407,361.541,-51.0108,-13.3945,179.539,2.50488,-144.8,528
1569683407,361.541,-51.0108,-13.5062,179.539,2.50488,-144.8,528
1569683407,361.541,-51.0108,-13.5062,179.539,2.50488,-144.8,532
1569683407,361.541,-51.0108,-13.5062,179.539,2.50488,-144.8,532
1569683407,361.541,-51.0108,-13.5062,179.539,2.50488,-144.8,532
1569683407,361.541,-51.0108,-13.5062,179.539,2.50488,-144.778,532
1569683407,361.541,-51.0108,-13.5062,179.539,2.50488,-144.778,532
1569683407,361.541,-51.0108,-13.5062,179.539,2.48291,-144.778,532
1569683407,361.541,-51.0108,-13.5062,179.539,2.48291,-144.778,532
1569683407,361.541,-51.0108,-13.5062,179.539,2.48291,-144.778,532
1569683407,361.541,-51.0108,-13.5062,179.517,2.48291,-144.778,532
1569683407,361.541,-51.0108,-13.5062,179.517,2.48291,-144.778,532
1569683407,361.429,-51.0108,-13.5062,179.539,2.48291,-144.778,532
1569683407,361.429,-51.0108,-13.5062,179.539,2.48291,-144.778,532
1569683407,361.429,-51.0108,-13.5062,179.539,2.48291,-144.778,532
1569683407,361.429,-51.0108,-13.5062,179.539,2.48291,-144.778,532
1569683407,361.429,-51.0108,-13.5062,179.539,2.48291,-144.778,532
1569683407,361.429,-51.0108,-13.5062,179.539,2.48291,-144.778,528
1569683407,361.429,-51.0108,-13.5062,179.539,2.48291,-144.778,528
1569683407,361.429,-51.0108,-13.5062,179.539,2.48291,-144.778,528
1569683407,361.429,-51.0108,-13.5062,179.539,2.48291,-144.778,528
1569683407,361.429,-51.0108,-13.5062,179.539,2.48291,-144.778,528
1569683407,361.429,-51.0108,-13.5062,179.539,2.48291,-144.778,528
1569683407,361.429,-51.0108,-13.5062,179.539,2.48291,-144.778,528
1569683407,361.541,-51.0108,-13.5062,179.539,2.48291,-144.778,528
1569683407,361.541,-51.0108,-13.5062,179.539,2.48291,-144.778,528
1569683407,361.541,-51.0108,-13.5062,179.539,2.48291,-144.778,528
1569683407,361.541,-51.0108,-13.5062,179.539,2.48291,-144.778,528
1569683407,361.541,-51.0108,-13.5062,179.539,2.48291,-144.778,528
1569683407,361.541,-51.0108,-13.5062,179.539,2.50488,-144.778,528
1569683407,361.541,-51.0108,-13.5062,179.517,2.50488,-144.778,528
1569683407,361.541,-51.0108,-13.5062,179.517,2.50488,-144.778,528
1569683407,361.541,-51.0108,-13.5062,179.517,2.50488,-144.778,528
1569683407,361.541,-51.0108,-13.3945,179.517,2.50488,-144.778,528
1569683407,361.541,-51.0108,-13.3945,179.517,2.50488,-144.778,528
1569683408,361.541,-51.0108,-13.3945,179.517,2.50488,-144.778,528
1569683408,361.541,-51.0108,-13.3945,179.517,2.50488,-144.778,524
1569683408,361.541,-51.0108,-13.3945,179.517,2.50488,-144.778,524
1569683408,361.541,-51.0108,-13.3945,179.517,2.50488,-144.778,524
1569683408,361.541,-51.0108,-13.3945,179.517,2.52686,-144.778,524
1569683408,361.541,-51.0108,-13.3945,179.517,2.52686,-144.778,524
1569683408,361.429,-51.0108,-13.3945,179.517,2.50488,-144.778,524
1569683408,361.429,-51.0108,-13.3945,179.517,2.50488,-144.778,524
1569683408,361.429,-51.0108,-13.3945,179.517,2.50488,-144.778,524
1569683408,361.429,-51.0108,-13.3945,179.517,2.50488,-144.778,524
1569683408,361.429,-51.0108,-13.5062,179.517,2.50488,-144.778,524
1569683408,361.429,-51.0108,-13.5062,179.517,2.50488,-144.8,524
1569683408,361.429,-51.0108,-13.5062,179.517,2.50488,-144.8,524
1569683408,361.429,-51.0108,-13.5062,179.517,2.50488,-144.8,524
1569683408,361.429,-51.0108,-13.5062,179.517,2.50488,-144.8,524
1569683408,361.429,-51.0108,-13.5062,179.495,2.50488,-144.8,524
1569683408,361.429,-51.0108,-13.5062,179.495,2.50488,-144.8,524
1569683408,361.429,-51.0108,-13.5062,179.495,2.50488,-144.8,524
1569683408,361.429,-51.0108,-13.5062,179.495,2.50488,-144.8,524
1569683408,361.429,-51.0108,-13.5062,179.495,2.50488,-144.8,524
1569683408,361.429,-51.0108,-13.5062,179.495,2.50488,-144.8,524
1569683408,361.429,-51.0108,-13.5062,179.495,2.50488,-144.8,524
1569683408,361.429,-51.0108,-13.5062,179.495,2.50488,-144.8,524
1569683408,361.429,-51.0108,-13.5062,179.517,2.50488,-144.8,524
1569683408,361.429,-51.0108,-13.5062,179.517,2.50488,-144.8,524
1569683408,361.429,-51.0108,-13.5062,179.517,2.48291,-144.8,524
1569683408,361.429,-51.0108,-13.5062,179.517,2.48291,-144.778,524
1569683408,361.429,-51.0108,-13.5062,179.495,2.48291,-144.778,524
1569683408,361.429,-51.0108,-13.5062,179.495,2.48291,-144.778,524
1569683408,361.429,-51.0108,-13.5062,179.495,2.48291,-144.778,524
1569683408,361.541,-51.0108,-13.5062,179.495,2.48291,-144.778,524
1569683408,361.541,-51.0108,-13.5062,179.495,2.50488,-144.778,524
1569683408,361.541,-51.0108,-13.5062,179.495,2.50488,-144.778,524
1569683408,361.541,-51.0108,-13.3945,179.495,2.50488,-144.778,524
1569683408,361.429,-51.0108,-13.3945,179.495,2.50488,-144.778,524
1569683408,361.429,-51.0108,-13.3945,179.495,2.50488,-144.778,524
1569683408,361.429,-51.0108,-13.3945,179.495,2.50488,-144.778,524
1569683408,361.429,-51.0108,-13.3945,179.517,2.50488,-144.778,524
1569683408,361.429,-51.0108,-13.3945,179.517,2.50488,-144.778,524
1569683408,361.429,-51.0108,-13.3945,179.517,2.50488,-144.778,520
1569683408,361.429,-51.0108,-13.3945,179.517,2.48291,-144.778,520
1569683408,361.429,-51.0108,-13.3945,179.517,2.48291,-144.778,520
1569683408,361.429,-51.0108,-13.3945,179.517,2.48291,-144.778,520
1569683408,361.429,-51.0108,-13.3945,179.517,2.48291,-144.778,520
1569683408,361.429,-51.0108,-13.3945,179.517,2.48291,-144.778,520
1569683408,361.429,-51.0108,-13.3945,179.517,2.48291,-144.778,520
1569683408,361.429,-51.0108,-13.3945,179.517,2.48291,-144.778,516
1569683408,361.541,-51.0108,-13.3945,179.517,2.50488,-144.778,516
1569683408,361.541,-51.0108,-13.3945,179.517,2.50488,-144.778,516
1569683408,361.541,-51.0108,-13.3945,179.517,2.50488,-144.778,516
1569683408,361.541,-51.0108,-13.3945,179.517,2.50488,-144.778,516
1569683408,361.541,-51.0108,-13.3945,179.517,2.50488,-144.778,516
1569683408,361.541,-51.0108,-13.3945,179.539,2.50488,-144.778,516
1569683408,361.541,-51.0108,-13.3945,179.539,2.50488,-144.778,516
1569683408,361.541,-51.0108,-13.3945,179.539,2.50488,-144.778,520
1569683408,361.541,-51.0108,-13.3945,179.517,2.50488,-144.778,520
1569683408,361.429,-51.0108,-13.3945,179.517,2.50488,-144.778,520
1569683408,361.429,-51.0108,-13.3945,179.517,2.50488,-144.778,520
1569683408,361.429,-51.0108,-13.3945,179.517,2.50488,-144.778,520
1569683408,361.429,-51.0108,-13.3945,179.517,2.50488,-144.778,520
1569683408,361.429,-51.0108,-13.3945,179.517,2.50488,-144.778,520
1569683408,361.429,-51.0108,-13.3945,179.517,2.50488,-144.778,524
1569683408,361.429,-51.0108,-13.3945,179.517,2.50488,-144.778,524
1569683408,361.429,-51.0108,-13.3945,179.517,2.50488,-144.778,524
1569683408,361.429,-51.0108,-13.3945,179.517,2.50488,-144.778,524
1569683408,361.429,-51.0108,-13.3945,179.517,2.48291,-144.778,524
1569683408,361.429,-51.0108,-13.3945,179.495,2.48291,-144.8,524
1569683408,361.429,-51.0108,-13.3945,179.495,2.50488,-144.8,524
1569683408,361.429,-51.0108,-13.3945,179.495,2.50488,-144.8,524
1569683408,361.429,-51.0108,-13.3945,179.495,2.50488,-144.8,524
1569683408,361.429,-51.0108,-13.3945,179.495,2.50488,-144.8,524
1569683408,361.429,-51.0108,-13.3945,179.495,2.50488,-144.8,524
1569683408,361.429,-51.0108,-13.3945,179.495,2.50488,-144.8,524
1569683408,361.429,-51.0108,-13.3945,179.495,2.48291,-144.8,524
1569683408,361.429,-51.0108,-13.3945,179.495,2.48291,-144.8,524
1569683408,361.429,-51.0108,-13.3945,179.495,2.48291,-144.8,524
1569683408,361.429,-51.0108,-13.3945,179.495,2.48291,-144.8,524
1569683408,361.429,-51.0108,-13.3945,179.495,2.48291,-144.8,524
1569683408,361.429,-51.0108,-13.3945,179.495,2.48291,-144.8,524
1569683408,361.429,-51.0108,-13.3945,179.495,2.48291,-144.8,524
1569683408,361.429,-51.0108,-13.3945,179.495,2.48291,-144.8,524
1569683408,361.429,-51.0108,-13.5062,179.495,2.48291,-144.8,520
1569683408,361.429,-51.0108,-13.5062,179.495,2.48291,-144.8,520
1569683408,361.429,-51.0108,-13.5062,179.495,2.48291,-144.8,520
1569683408,361.429,-51.0108,-13.5062,179.495,2.48291,-144.8,524
1569683408,361.429,-51.0108,-13.5062,179.495,2.48291,-144.8,524
1569683408,361.429,-51.0108,-13.5062,179.495,2.48291,-144.8,524
1569683408,361.429,-51.0108,-13.5062,179.495,2.48291,-144.8,524
1569683408,361.429,-51.0108,-13.5062,179.495,2.48291,-144.8,524
1569683408,361.429,-51.0108,-13.5062,179.495,2.48291,-144.8,524
1569683408,361.429,-51.0108,-13.5062,179.495,2.48291,-144.8,524
1569683408,361.429,-51.0108,-13.5062,179.495,2.48291,-144.8,524
1569683408,361.429,-51.0108,-13.5062,179.495,2.48291,-144.8,524
1569683408,361.429,-51.0108,-13.5062,179.495,2.48291,-144.8,524
1569683408,361.429,-51.0108,-13.5062,179.495,2.48291,-144.8,524
1569683408,361.429,-51.0108,-13.5062,179.495,2.48291,-144.8,524
1569683408,361.429,-51.0108,-13.5062,179.495,2.48291,-144.8,524
1569683408,361.429,-51.0108,-13.5062,179.495,2.48291,-144.8,524
1569683408,361.429,-51.0108,-13.5062,179.495,2.48291,-144.8,520
1569683408,361.429,-51.0108,-13.5062,179.495,2.48291,-144.8,520
1569683409,361.429,-51.0108,-13.5062,179.495,2.48291,-144.8,520
1569683409,361.541,-51.0108,-13.5062,179.495,2.48291,-144.8,520
1569683409,361.429,-51.0108,-13.5062,179.495,2.48291,-144.8,516
1569683409,361.429,-51.0108,-13.5062,179.495,2.48291,-144.8,516
1569683409,361.429,-51.1225,-13.5062,179.495,2.48291,-144.8,516
1569683409,361.429,-51.1225,-13.5062,179.495,2.46094,-144.8,516
1569683409,361.429,-51.1225,-13.5062,179.473,2.46094,-144.8,516
1569683409,361.429,-51.1225,-13.5062,179.473,2.46094,-144.8,512
1569683409,361.429,-51.1225,-13.5062,179.473,2.46094,-144.8,512
1569683409,361.541,-51.1225,-13.5062,179.473,2.46094,-144.8,512
1569683409,361.541,-51.1225,-13.5062,179.473,2.46094,-144.8,512
1569683409,361.541,-51.1225,-13.5062,179.473,2.46094,-144.8,512
1569683409,361.541,-51.1225,-13.5062,179.473,2.46094,-144.8,512
1569683409,361.541,-51.1225,-13.5062,179.473,2.46094,-144.8,512
1569683409,361.541,-51.1225,-13.5062,179.473,2.46094,-144.8,512
1569683409,361.541,-51.1225,-13.5062,179.473,2.46094,-144.8,512
1569683409,361.541,-51.1225,-13.5062,179.473,2.46094,-144.8,512
1569683409,361.541,-51.1225,-13.5062,179.495,2.46094,-144.8,512
1569683409,361.541,-51.0108,-13.5062,179.495,2.46094,-144.8,512
1569683409,361.541,-51.0108,-13.5062,179.495,2.46094,-144.8,512
1569683409,361.541,-51.0108,-13.5062,179.495,2.48291,-144.8,512
1569683409,361.541,-51.0108,-13.5062,179.495,2.48291,-144.8,512
1569683409,361.541,-51.0108,-13.5062,179.495,2.48291,-144.8,512
1569683409,361.541,-51.0108,-13.5062,179.495,2.48291,-144.778,512
1569683409,361.541,-51.0108,-13.5062,179.495,2.48291,-144.778,512
1569683409,361.541,-51.0108,-13.5062,179.495,2.48291,-144.778,512
1569683409,361.541,-51.0108,-13.3945,179.495,2.50488,-144.778,512
1569683409,361.541,-51.0108,-13.3945,179.495,2.50488,-144.778,512
1569683409,361.541,-51.0108,-13.3945,179.495,2.50488,-144.778,512
1569683409,361.541,-51.0108,-13.3945,179.495,2.50488,-144.778,512
1569683409,361.541,-51.0108,-13.3945,179.517,2.50488,-144.778,512
1569683409,361.541,-51.0108,-13.3945,179.517,2.50488,-144.778,512
1569683409,361.541,-51.0108,-13.3945,179.517,2.50488,-144.778,512
1569683409,361.541,-51.0108,-13.3945,179.517,2.50488,-144.778,512
1569683409,361.541,-51.0108,-13.3945,179.517,2.50488,-144.778,508
1569683409,361.541,-51.0108,-13.3945,179.517,2.50488,-144.778,508
1569683409,361.541,-51.0108,-13.3945,179.517,2.50488,-144.778,508
1569683409,361.541,-51.0108,-13.3945,179.517,2.50488,-144.778,508
1569683409,361.541,-51.0108,-13.3945,179.517,2.50488,-144.778,512
1569683409,361.541,-51.0108,-13.3945,179.517,2.50488,-144.778,512
1569683409,361.541,-51.0108,-13.3945,179.517,2.50488,-144.778,512
1569683409,361.541,-51.0108,-13.3945,179.517,2.50488,-144.778,512
1569683409,361.541,-51.0108,-13.3945,179.539,2.50488,-144.778,512
1569683409,361.541,-51.0108,-13.3945,179.539,2.50488,-144.778,512
1569683409,361.541,-51.0108,-13.3945,179.539,2.50488,-144.778,516
1569683409,361.541,-51.0108,-13.3945,179.539,2.50488,-144.778,516
1569683409,361.541,-51.0108,-13.3945,179.539,2.50488,-144.778,516
1569683409,361.541,-50.8992,-13.3945,179.539,2.50488,-144.778,516
1569683409,361.541,-50.8992,-13.3945,179.539,2.50488,-144.778,520
1569683409,361.541,-50.8992,-13.3945,179.539,2.50488,-144.778,520
1569683409,361.541,-50.8992,-13.3945,179.539,2.50488,-144.778,520
1569683409,361.541,-50.8992,-13.3945,179.539,2.50488,-144.778,520
1569683409,361.541,-50.8992,-13.3945,179.539,2.50488,-144.8,520
1569683409,361.541,-50.8992,-13.3945,179.539,2.50488,-144.8,520
1569683409,361.541,-50.8992,-13.3945,179.561,2.50488,-144.8,524
1569683409,361.541,-50.8992,-13.3945,179.561,2.50488,-144.8,524
1569683409,361.541,-50.8992,-13.3945,179.561,2.50488,-144.8,524
1569683409,361.541,-50.8992,-13.3945,179.561,2.50488,-144.8,524
1569683409,361.541,-50.8992,-13.3945,179.561,2.50488,-144.8,524
1569683409,361.541,-50.8992,-13.3945,179.561,2.50488,-144.8,524
1569683409,361.541,-50.8992,-13.3945,179.561,2.50488,-144.8,524
1569683409,361.541,-50.8992,-13.3945,179.561,2.50488,-144.8,524
1569683409,361.541,-50.8992,-13.3945,179.539,2.50488,-144.8,524
1569683409,361.541,-50.8992,-13.3945,179.539,2.50488,-144.8,524
1569683409,361.429,-50.8992,-13.3945,179.539,2.50488,-144.8,524
1569683409,361.429,-50.8992,-13.3945,179.539,2.50488,-144.8,524
1569683409,361.429,-50.8992,-13.3945,179.539,2.50488,-144.8,524
1569683409,361.429,-50.8992,-13.3945,179.539,2.50488,-144.8,524
1569683409,361.429,-50.8992,-13.3945,179.539,2.50488,-144.8,524
1569683409,361.429,-50.8992,-13.3945,179.539,2.50488,-144.8,524
1569683409,361.429,-50.8992,-13.3945,179.539,2.50488,-144.8,524
1569683409,361.429,-50.8992,-13.3945,179.539,2.50488,-144.8,528
1569683409,361.429,-50.8992,-13.3945,179.539,2.50488,-144.8,528
1569683409,361.429,-50.8992,-13.3945,179.539,2.50488,-144.8,528
1569683409,361.429,-50.8992,-13.3945,179.539,2.50488,-144.8,528
1569683409,361.429,-50.8992,-13.3945,179.539,2.50488,-144.8,528
1569683409,361.429,-50.8992,-13.3945,179.539,2.50488,-144.8,528
1569683409,361.429,-50.8992,-13.3945,179.539,2.50488,-144.8,528
1569683409,361.429,-51.0108,-13.3945,179.539,2.50488,-144.8,528
1569683409,361.429,-51.0108,-13.3945,179.539,2.50488,-144.8,528
1569683409,361.429,-51.0108,-13.3945,179.517,2.50488,-144.8,528
1569683409,361.429,-51.0108,-13.3945,179.517,2.50488,-144.8,528
1569683409,361.429,-51.0108,-13.3945,179.517,2.50488,-144.8,528
1569683409,361.429,-51.0108,-13.3945,179.517,2.50488,-144.8,528
1569683409,361.429,-51.0108,-13.3945,179.517,2.50488,-144.8,528
1569683409,361.429,-51.0108,-13.3945,179.517,2.50488,-144.8,524
1569683409,361.429,-51.0108,-13.5062,179.517,2.50488,-144.8,524
1569683409,361.429,-51.0108,-13.5062,179.517,2.50488,-144.8,524
1569683409,361.429,-51.0108,-13.3945,179.517,2.50488,-144.8,524
1569683409,361.429,-51.0108,-13.3945,179.517,2.50488,-144.8,524
