time,x,y,z,ax,ay,az,q
1567620269,367.457,-11.8318,24.2218,178.879,-0.197754,88.418,104
1567620269,367.457,-11.8318,24.2218,178.879,-0.197754,88.418,104
1567620269,367.457,-11.8318,24.2218,178.879,-0.197754,88.418,104
1567620269,367.457,-11.8318,24.2218,178.879,-0.197754,88.418,104
1567620269,367.457,-11.8318,24.2218,178.879,-0.197754,88.4399,104
1567620269,367.457,-11.8318,24.2218,178.879,-0.197754,88.4399,104
1567620269,367.457,-11.8318,24.2218,178.879,-0.197754,88.4399,104
1567620269,367.457,-11.8318,24.2218,178.879,-0.197754,88.4399,104
1567620269,367.457,-11.8318,24.2218,178.879,-0.197754,88.4399,104
1567620269,367.457,-11.8318,24.2218,178.879,-0.197754,88.4399,104
1567620269,367.457,-11.8318,24.2218,178.879,-0.197754,88.4399,104
1567620269,367.457,-11.8318,24.2218,178.879,-0.197754,88.4399,104
1567620269,367.457,-11.8318,24.2218,178.879,-0.197754,88.4399,104
1567620269,367.457,-11.8318,24.2218,178.879,-0.197754,88.4399,104
1567620269,367.457,-11.8318,24.2218,178.879,-0.197754,88.4399,104
1567620269,367.457,-11.8318,24.2218,178.879,-0.197754,88.4399,104
1567620269,367.457,-11.8318,24.2218,178.879,-0.197754,88.4399,104
1567620269,367.457,-11.8318,24.2218,178.879,-0.197754,88.4399,104
1567620269,367.457,-11.8318,24.2218,178.879,-0.197754,88.4399,104
1567620269,367.457,-11.8318,24.2218,178.879,-0.197754,88.4399,104
1567620269,367.457,-11.8318,24.2218,178.879,-0.197754,88.418,104
1567620269,367.457,-11.8318,24.2218,178.879,-0.197754,88.418,104
1567620269,367.457,-11.8318,24.2218,178.879,-0.197754,88.418,104
1567620269,367.568,-11.8318,24.2218,178.879,-0.197754,88.418,104
1567620269,367.568,-11.8318,24.2218,178.879,-0.197754,88.418,104
1567620269,367.568,-11.8318,24.2218,178.879,-0.197754,88.418,104
1567620269,367.568,-11.8318,24.2218,178.879,-0.197754,88.418,104
1567620269,367.568,-11.8318,24.2218,178.879,-0.197754,88.418,104
1567620269,367.568,-11.8318,24.2218,178.879,-0.197754,88.4399,104
1567620269,367.568,-11.8318,24.2218,178.879,-0.197754,88.4399,104
1567620269,367.568,-11.8318,24.2218,178.879,-0.197754,88.4399,104
1567620269,367.568,-11.8318,24.2218,178.879,-0.197754,88.4399,104
1567620269,367.568,-11.8318,24.2218,178.879,-0.175781,88.4399,104
1567620269,367.568,-11.8318,24.2218,178.879,-0.175781,88.4399,104
1567620269,367.568,-11.8318,24.2218,178.879,-0.175781,88.4399,104
1567620269,367.568,-11.8318,24.2218,178.879,-0.175781,88.4399,104
1567620269,367.568,-11.8318,24.2218,178.879,-0.175781,88.4399,104
1567620269,367.568,-11.8318,24.2218,178.879,-0.175781,88.4399,104
1567620270,367.568,-11.8318,24.2218,178.879,-0.175781,88.4399,104
1567620270,367.568,-11.8318,24.2218,178.879,-0.175781,88.4399,104
1567620270,367.568,-11.8318,24.2218,178.879,-0.175781,88.4399,104
1567620270,367.568,-11.8318,24.2218,178.879,-0.175781,88.4399,104
1567620270,367.568,-11.8318,24.2218,178.879,-0.175781,88.4399,104
1567620270,367.568,-11.8318,24.2218,178.879,-0.175781,88.4399,104
1567620270,367.568,-11.8318,24.2218,178.879,-0.197754,88.4399,104
1567620270,367.457,-11.8318,24.2218,178.879,-0.197754,88.4399,104
1567620270,367.457,-11.8318,24.2218,178.879,-0.197754,88.4399,104
1567620270,367.457,-11.8318,24.2218,178.879,-0.175781,88.4399,104
1567620270,367.457,-11.8318,24.2218,178.879,-0.175781,88.4399,104
1567620270,367.457,-11.8318,24.2218,178.879,-0.175781,88.4399,104
1567620270,367.457,-11.8318,24.2218,178.879,-0.175781,88.4399,104
1567620270,367.457,-11.8318,24.2218,178.879,-0.175781,88.4399,104
1567620270,367.457,-11.8318,24.2218,178.879,-0.175781,88.4399,104
1567620270,367.457,-11.8318,24.2218,178.879,-0.175781,88.4399,104
1567620270,367.457,-11.8318,24.2218,178.879,-0.175781,88.4399,104
1567620270,367.457,-11.8318,24.2218,178.879,-0.175781,88.4399,104
1567620270,367.457,-11.8318,24.2218,178.879,-0.175781,88.4399,104
1567620270,367.457,-11.8318,24.2218,178.879,-0.175781,88.4399,104
1567620270,367.457,-11.8318,24.2218,178.879,-0.175781,88.4399,104
1567620270,367.457,-11.8318,24.2218,178.879,-0.175781,88.4399,104
1567620270,367.457,-11.8318,24.2218,178.879,-0.175781,88.4399,108
1567620270,367.457,-11.8318,24.2218,178.879,-0.175781,88.4399,108
1567620270,367.457,-11.8318,24.2218,178.879,-0.175781,88.4399,108
1567620270,367.457,-11.8318,24.2218,178.879,-0.175781,88.4399,108
1567620270,367.457,-11.9435,24.2218,178.879,-0.197754,88.4399,108
1567620270,367.457,-11.9435,24.2218,178.879,-0.197754,88.4399,108
1567620270,367.457,-11.9435,24.2218,178.879,-0.197754,88.4399,108
1567620270,367.457,-11.9435,24.2218,178.879,-0.197754,88.4399,104
1567620270,367.457,-11.9435,24.2218,178.879,-0.197754,88.4399,104
1567620270,367.457,-11.9435,24.2218,178.879,-0.197754,88.4399,104
1567620270,367.457,-11.8318,24.2218,178.879,-0.197754,88.4399,104
1567620270,367.457,-11.8318,24.2218,178.879,-0.197754,88.4399,104
1567620270,367.457,-11.8318,24.2218,178.879,-0.175781,88.4399,104
1567620270,367.457,-11.8318,24.2218,178.879,-0.175781,88.4399,104
1567620270,367.457,-11.8318,24.2218,178.879,-0.175781,88.4399,104
1567620270,367.457,-11.8318,24.2218,178.879,-0.175781,88.4399,104
1567620270,367.457,-11.8318,24.2218,178.879,-0.175781,88.4399,104
1567620270,367.457,-11.8318,24.2218,178.879,-0.175781,88.4399,104
1567620270,367.457,-11.8318,24.2218,178.879,-0.175781,88.4399,104
1567620270,367.457,-11.8318,24.2218,178.879,-0.175781,88.4399,104
1567620270,367.457,-11.8318,24.2218,178.879,-0.175781,88.4399,104
1567620270,367.457,-11.8318,24.2218,178.879,-0.175781,88.4399,104
1567620270,367.457,-11.8318,24.2218,178.879,-0.175781,88.4399,104
1567620270,367.457,-11.8318,24.2218,178.879,-0.175781,88.4399,104
1567620270,367.457,-11.8318,24.2218,178.879,-0.175781,88.4399,104
1567620270,367.457,-11.8318,24.2218,178.879,-0.175781,88.4399,104
1567620270,367.457,-11.8318,24.2218,178.879,-0.175781,88.4399,104
1567620270,367.457,-11.8318,24.2218,178.879,-0.175781,88.418,104
1567620270,367.457,-11.8318,24.2218,178.879,-0.175781,88.418,104
1567620270,367.457,-11.8318,24.2218,178.879,-0.175781,88.418,104
1567620270,367.457,-11.9435,24.2218,178.879,-0.175781,88.418,104
1567620270,367.457,-11.9435,24.2218,178.879,-0.175781,88.4399,104
1567620270,367.457,-11.9435,24.2218,178.879,-0.175781,88.4399,104
1567620270,367.457,-11.9435,24.2218,178.879,-0.175781,88.4399,104
1567620270,367.457,-11.9435,24.2218,178.879,-0.175781,88.4399,104
1567620270,367.457,-11.9435,24.2218,178.879,-0.175781,88.4399,104
1567620270,367.457,-11.9435,24.2218,178.879,-0.175781,88.4399,104
1567620270,367.457,-11.9435,24.2218,178.879,-0.175781,88.4399,104
1567620270,367.457,-11.9435,24.2218,178.879,-0.175781,88.4399,104
1567620270,367.457,-11.9435,24.2218,178.879,-0.175781,88.4399,104
1567620270,367.457,-11.8318,24.2218,178.879,-0.175781,88.418,104
1567620270,367.457,-11.8318,24.2218,178.879,-0.175781,88.418,104
1567620270,367.457,-11.8318,24.2218,178.879,-0.175781,88.418,104
1567620270,367.568,-11.8318,24.2218,178.879,-0.175781,88.418,104
1567620270,367.568,-11.8318,24.2218,178.879,-0.175781,88.418,104
1567620270,367.568,-11.8318,24.2218,178.879,-0.175781,88.418,104
1567620270,367.568,-11.8318,24.2218,178.879,-0.175781,88.418,104
1567620270,367.568,-11.9435,24.2218,178.879,-0.175781,88.418,104
1567620270,367.568,-11.9435,24.2218,178.879,-0.175781,88.418,104
1567620270,367.568,-11.9435,24.2218,178.879,-0.175781,88.418,104
1567620270,367.457,-11.9435,24.2218,178.879,-0.175781,88.418,104
1567620270,367.457,-11.9435,24.2218,178.879,-0.175781,88.418,104
1567620270,367.457,-11.9435,24.2218,178.879,-0.175781,88.418,104
1567620270,367.457,-11.9435,24.2218,178.879,-0.175781,88.418,104
1567620270,367.457,-11.9435,24.2218,178.879,-0.175781,88.418,104
1567620270,367.457,-11.9435,24.2218,178.879,-0.175781,88.418,104
1567620270,367.457,-11.9435,24.2218,178.879,-0.175781,88.418,104
1567620270,367.457,-11.9435,24.2218,178.879,-0.175781,88.418,104
1567620270,367.457,-11.9435,24.2218,178.879,-0.175781,88.418,104
1567620270,367.457,-11.8318,24.2218,178.879,-0.197754,88.418,104
1567620270,367.457,-11.8318,24.2218,178.879,-0.197754,88.418,104
1567620270,367.457,-11.8318,24.2218,178.879,-0.197754,88.418,104
1567620270,367.457,-11.8318,24.2218,178.879,-0.197754,88.418,104
1567620270,367.457,-11.8318,24.2218,178.879,-0.197754,88.418,104
1567620270,367.457,-11.8318,24.2218,178.879,-0.197754,88.418,104
1567620270,367.457,-11.8318,24.2218,178.879,-0.197754,88.418,104
1567620270,367.457,-11.8318,24.2218,178.879,-0.197754,88.418,104
1567620270,367.457,-11.8318,24.2218,178.879,-0.197754,88.418,104
1567620270,367.457,-11.8318,24.2218,178.879,-0.197754,88.418,104
1567620270,367.457,-11.8318,24.2218,178.879,-0.197754,88.418,104
1567620270,367.457,-11.8318,24.2218,178.879,-0.197754,88.418,104
1567620270,367.457,-11.8318,24.2218,178.879,-0.197754,88.4399,104
1567620270,367.457,-11.8318,24.2218,178.879,-0.197754,88.4399,104
1567620270,367.457,-11.8318,24.2218,178.879,-0.197754,88.4399,104
1567620270,367.457,-11.8318,24.2218,178.879,-0.197754,88.4399,104
1567620270,367.457,-11.8318,24.2218,178.879,-0.197754,88.4399,104
1567620270,367.457,-11.8318,24.2218,178.879,-0.197754,88.4399,104
1567620270,367.457,-11.8318,24.2218,178.879,-0.197754,88.4399,104
1567620271,367.457,-11.8318,24.2218,178.879,-0.197754,88.4399,104
1567620271,367.457,-11.8318,24.2218,178.879,-0.197754,88.4399,104
1567620271,367.457,-11.8318,24.2218,178.879,-0.197754,88.4399,104
1567620271,367.457,-11.8318,24.2218,178.879,-0.197754,88.4399,104
1567620271,367.457,-11.8318,24.2218,178.879,-0.197754,88.4399,104
1567620271,367.457,-11.8318,24.2218,178.879,-0.197754,88.4399,104
1567620271,367.457,-11.8318,24.2218,178.879,-0.197754,88.4399,104
1567620271,367.457,-11.8318,24.2218,178.879,-0.197754,88.4399,104
1567620271,367.457,-11.8318,24.2218,178.879,-0.197754,88.4399,104
1567620271,367.457,-11.8318,24.2218,178.879,-0.197754,88.4399,104
1567620271,367.457,-11.8318,24.2218,178.879,-0.197754,88.4399,104
1567620271,367.457,-11.8318,24.2218,178.879,-0.197754,88.4399,104
1567620271,367.457,-11.8318,24.2218,178.879,-0.197754,88.4399,104
1567620271,367.457,-11.8318,24.2218,178.879,-0.197754,88.4399,104
1567620271,367.457,-11.8318,24.2218,178.879,-0.197754,88.4399,104
1567620271,367.457,-11.8318,24.2218,178.879,-0.175781,88.4399,104
1567620271,367.457,-11.8318,24.2218,178.879,-0.175781,88.4399,104
1567620271,367.457,-11.8318,24.2218,178.879,-0.175781,88.4399,104
1567620271,367.457,-11.8318,24.2218,178.879,-0.175781,88.4399,104
1567620271,367.457,-11.8318,24.2218,178.879,-0.175781,88.4399,104
1567620271,367.457,-11.8318,24.2218,178.879,-0.175781,88.4399,104
1567620271,367.457,-11.8318,24.2218,178.879,-0.175781,88.4399,104
1567620271,367.457,-11.8318,24.2218,178.879,-0.175781,88.4399,104
1567620271,367.457,-11.8318,24.2218,178.879,-0.175781,88.4399,104
1567620271,367.457,-11.8318,24.2218,178.879,-0.175781,88.4399,104
1567620271,367.457,-11.8318,24.2218,178.879,-0.197754,88.4399,104
1567620271,367.457,-11.8318,24.2218,178.879,-0.197754,88.4399,104
1567620271,367.457,-11.8318,24.2218,178.879,-0.197754,88.4399,104
1567620271,367.457,-11.8318,24.2218,178.879,-0.197754,88.4399,104
1567620271,367.457,-11.8318,24.2218,178.879,-0.197754,88.4399,104
1567620271,367.457,-11.8318,24.2218,178.879,-0.197754,88.4399,104
1567620271,367.457,-11.8318,24.2218,178.879,-0.197754,88.4399,104
1567620271,367.457,-11.8318,24.2218,178.879,-0.197754,88.4399,104
1567620271,367.457,-11.8318,24.2218,178.879,-0.197754,88.4399,104
1567620271,367.457,-11.8318,24.2218,178.879,-0.197754,88.4399,104
1567620271,367.457,-11.8318,24.2218,178.879,-0.197754,88.4399,104
1567620271,367.457,-11.8318,24.2218,178.879,-0.197754,88.4399,104
1567620271,367.457,-11.8318,24.2218,178.879,-0.197754,88.4399,104
1567620271,367.457,-11.8318,24.2218,178.879,-0.197754,88.4399,104
1567620271,367.457,-11.8318,24.2218,178.879,-0.197754,88.4399,104
1567620271,367.457,-11.8318,24.2218,178.879,-0.197754,88.4399,104
1567620271,367.457,-11.8318,24.2218,178.879,-0.197754,88.4399,104
1567620271,367.457,-11.8318,24.2218,178.879,-0.197754,88.4399,104
1567620271,367.457,-11.8318,24.2218,178.879,-0.197754,88.4399,104
1567620271,367.457,-11.8318,24.2218,178.879,-0.197754,88.4399,104
1567620271,367.457,-11.8318,24.2218,178.879,-0.197754,88.4399,104
1567620271,367.457,-11.8318,24.2218,178.879,-0.197754,88.4399,104
1567620271,367.457,-11.8318,24.2218,178.879,-0.197754,88.4399,104
1567620271,367.457,-11.8318,24.2218,178.879,-0.197754,88.4399,104
1567620271,367.457,-11.8318,24.2218,178.879,-0.197754,88.4399,104
1567620271,367.457,-11.8318,24.2218,178.879,-0.197754,88.4399,104
1567620271,367.457,-11.8318,24.2218,178.879,-0.197754,88.4399,104
1567620271,367.457,-11.8318,24.2218,178.879,-0.197754,88.4399,104
1567620271,367.457,-11.8318,24.2218,178.879,-0.197754,88.4399,104
1567620271,367.457,-11.9435,24.2218,178.879,-0.197754,88.4399,104
1567620271,367.457,-11.9435,24.2218,178.879,-0.197754,88.4399,104
1567620271,367.457,-11.9435,24.2218,178.879,-0.197754,88.4399,104
1567620271,367.457,-11.9435,24.2218,178.879,-0.197754,88.4399,104
1567620271,367.457,-11.8318,24.2218,178.879,-0.197754,88.4399,104
1567620271,367.457,-11.8318,24.2218,178.879,-0.197754,88.4399,104
1567620271,367.457,-11.8318,24.2218,178.879,-0.197754,88.4399,104
1567620271,367.457,-11.8318,24.2218,178.879,-0.197754,88.4399,104
1567620271,367.457,-11.8318,24.2218,178.879,-0.197754,88.4399,104
1567620271,367.457,-11.8318,24.2218,178.879,-0.197754,88.4399,104
1567620271,367.457,-11.8318,24.2218,178.879,-0.197754,88.4399,104
1567620271,367.457,-11.8318,24.2218,178.879,-0.197754,88.4399,104
1567620271,367.457,-11.8318,24.2218,178.879,-0.197754,88.4399,104
1567620271,367.457,-11.8318,24.2218,178.879,-0.197754,88.4399,104
1567620271,367.457,-11.8318,24.2218,178.879,-0.197754,88.418,104
1567620271,367.457,-11.8318,24.2218,178.879,-0.175781,88.418,104
1567620271,367.457,-11.8318,24.2218,178.879,-0.175781,88.418,104
1567620271,367.457,-11.8318,24.2218,178.879,-0.175781,88.418,104
1567620271,367.457,-11.8318,24.2218,178.879,-0.175781,88.418,104
1567620271,367.457,-11.8318,24.2218,178.879,-0.175781,88.418,104
1567620271,367.457,-11.8318,24.2218,178.879,-0.175781,88.418,104
1567620271,367.457,-11.8318,24.2218,178.879,-0.175781,88.418,104
1567620271,367.457,-11.8318,24.2218,178.879,-0.175781,88.418,104
1567620271,367.457,-11.8318,24.2218,178.879,-0.175781,88.418,104
1567620271,367.457,-11.8318,24.2218,178.879,-0.175781,88.418,104
1567620271,367.457,-11.8318,24.2218,178.879,-0.175781,88.418,104
1567620271,367.457,-11.8318,24.2218,178.879,-0.175781,88.418,104
1567620271,367.457,-11.8318,24.2218,178.879,-0.175781,88.418,104
1567620271,367.457,-11.8318,24.2218,178.879,-0.175781,88.418,104
1567620271,367.457,-11.8318,24.2218,178.879,-0.175781,88.418,104
1567620271,367.457,-11.8318,24.2218,178.879,-0.175781,88.418,104
1567620271,367.457,-11.8318,24.2218,178.879,-0.175781,88.418,104
1567620271,367.457,-11.8318,24.2218,178.879,-0.175781,88.418,104
1567620271,367.457,-11.8318,24.2218,178.879,-0.175781,88.418,104
1567620271,367.568,-11.8318,24.2218,178.879,-0.175781,88.418,104
1567620271,367.568,-11.8318,24.2218,178.879,-0.175781,88.418,104
1567620271,367.568,-11.8318,24.2218,178.879,-0.175781,88.418,104
1567620271,367.568,-11.8318,24.2218,178.879,-0.175781,88.4399,104
1567620271,367.568,-11.8318,24.2218,178.879,-0.175781,88.4399,104
1567620271,367.568,-11.8318,24.2218,178.879,-0.175781,88.4399,104
1567620271,367.568,-11.8318,24.2218,178.879,-0.175781,88.4399,104
1567620271,367.568,-11.8318,24.2218,178.879,-0.175781,88.4399,104
1567620271,367.568,-11.8318,24.2218,178.879,-0.175781,88.4399,104
1567620271,367.568,-11.8318,24.2218,178.879,-0.175781,88.4399,104
1567620271,367.457,-11.8318,24.2218,178.879,-0.175781,88.4399,104
1567620271,367.457,-11.8318,24.2218,178.879,-0.175781,88.4399,104
1567620272,367.457,-11.8318,24.2218,178.879,-0.175781,88.4399,104
1567620272,367.457,-11.8318,24.2218,178.879,-0.175781,88.4399,104
1567620272,367.457,-11.8318,24.2218,178.879,-0.175781,88.4399,104
1567620272,367.457,-11.8318,24.2218,178.879,-0.175781,88.4399,104
1567620272,367.457,-11.8318,24.2218,178.879,-0.175781,88.4399,104
1567620272,367.457,-11.8318,24.2218,178.879,-0.175781,88.4399,104
1567620272,367.568,-11.8318,24.2218,178.879,-0.175781,88.4399,104
1567620272,367.568,-11.8318,24.2218,178.879,-0.175781,88.4399,104
1567620272,367.568,-11.8318,24.2218,178.879,-0.175781,88.4399,104
1567620272,367.568,-11.8318,24.2218,178.879,-0.175781,88.418,104
1567620272,367.568,-11.8318,24.2218,178.879,-0.175781,88.418,104
1567620272,367.568,-11.8318,24.2218,178.879,-0.175781,88.418,104
1567620272,367.568,-11.8318,24.2218,178.879,-0.175781,88.418,104
1567620272,367.457,-11.8318,24.2218,178.879,-0.175781,88.418,104
1567620272,367.457,-11.8318,24.2218,178.879,-0.175781,88.418,104
1567620272,367.457,-11.8318,24.2218,178.879,-0.175781,88.418,104
1567620272,367.457,-11.8318,24.2218,178.879,-0.175781,88.418,104
1567620272,367.457,-11.8318,24.2218,178.879,-0.175781,88.418,104
1567620272,367.457,-11.8318,24.2218,178.879,-0.175781,88.418,104
1567620272,367.457,-11.8318,24.2218,178.879,-0.175781,88.418,104
1567620272,367.457,-11.8318,24.2218,178.879,-0.175781,88.418,104
1567620272,367.568,-11.8318,24.2218,178.879,-0.175781,88.418,104
1567620272,367.568,-11.8318,24.2218,178.879,-0.175781,88.418,104
1567620272,367.568,-11.8318,24.2218,178.879,-0.175781,88.418,104
1567620272,367.568,-11.8318,24.2218,178.879,-0.175781,88.4399,104
1567620272,367.568,-11.8318,24.2218,178.879,-0.175781,88.4399,104
1567620272,367.568,-11.8318,24.2218,178.879,-0.175781,88.4399,104
1567620272,367.568,-11.8318,24.2218,178.879,-0.175781,88.4399,104
1567620272,367.568,-11.8318,24.2218,178.879,-0.175781,88.4399,104
1567620272,367.568,-11.8318,24.2218,178.879,-0.175781,88.4399,104
1567620272,367.568,-11.8318,24.2218,178.879,-0.175781,88.4399,104
1567620272,367.568,-11.8318,24.2218,178.879,-0.175781,88.4399,104
1567620272,367.568,-11.8318,24.2218,178.879,-0.175781,88.4399,104
1567620272,367.568,-11.8318,24.2218,178.879,-0.175781,88.4399,104
1567620272,367.568,-11.8318,24.2218,178.879,-0.175781,88.4399,104
1567620272,367.568,-11.8318,24.2218,178.879,-0.175781,88.4399,104
1567620272,367.568,-11.8318,24.2218,178.879,-0.175781,88.4399,104
1567620272,367.568,-11.8318,24.2218,178.879,-0.175781,88.4399,104
1567620272,367.568,-11.8318,24.2218,178.879,-0.175781,88.4399,104
1567620272,367.457,-11.8318,24.2218,178.879,-0.175781,88.4399,104
1567620272,367.457,-11.8318,24.2218,178.879,-0.175781,88.4399,104
1567620272,367.457,-11.8318,24.2218,178.879,-0.175781,88.4399,104
1567620272,367.457,-11.8318,24.2218,178.879,-0.175781,88.4399,104
1567620272,367.457,-11.8318,24.2218,178.879,-0.175781,88.4399,104
1567620272,367.457,-11.8318,24.2218,178.879,-0.175781,88.4399,104
1567620272,367.457,-11.8318,24.2218,178.879,-0.175781,88.4399,104
1567620272,367.457,-11.8318,24.2218,178.879,-0.175781,88.4399,104
1567620272,367.457,-11.8318,24.2218,178.879,-0.175781,88.4399,104
1567620272,367.457,-11.8318,24.2218,178.879,-0.175781,88.4399,104
1567620272,367.457,-11.8318,24.2218,178.879,-0.175781,88.4399,104
1567620272,367.457,-11.8318,24.2218,178.879,-0.175781,88.4399,104
1567620272,367.457,-11.8318,24.2218,178.879,-0.175781,88.4399,104
1567620272,367.457,-11.8318,24.2218,178.879,-0.175781,88.4399,104
1567620272,367.457,-11.8318,24.2218,178.879,-0.175781,88.4399,104
1567620272,367.457,-11.8318,24.2218,178.879,-0.175781,88.418,104
1567620272,367.457,-11.8318,24.2218,178.879,-0.175781,88.418,104
1567620272,367.457,-11.8318,24.2218,178.879,-0.175781,88.418,104
1567620272,367.457,-11.9435,24.2218,178.879,-0.175781,88.418,104
1567620272,367.457,-11.9435,24.2218,178.879,-0.175781,88.4399,104
1567620272,367.457,-11.9435,24.2218,178.879,-0.175781,88.4399,104
1567620272,367.457,-11.9435,24.2218,178.879,-0.175781,88.4399,104
1567620272,367.457,-11.9435,24.2218,178.879,-0.175781,88.4399,104
1567620272,367.457,-11.8318,24.2218,178.879,-0.175781,88.4399,104
1567620272,367.457,-11.8318,24.2218,178.879,-0.175781,88.4399,104
1567620272,367.457,-11.8318,24.2218,178.879,-0.175781,88.4399,104
1567620272,367.457,-11.8318,24.2218,178.879,-0.175781,88.4399,104
1567620272,367.457,-11.8318,24.2218,178.879,-0.175781,88.4399,104
1567620272,367.457,-11.8318,24.2218,178.879,-0.175781,88.4399,104
1567620272,367.457,-11.8318,24.2218,178.879,-0.175781,88.4399,104
1567620272,367.457,-11.8318,24.2218,178.879,-0.175781,88.4399,104
1567620272,367.457,-11.8318,24.2218,178.879,-0.175781,88.4399,104
1567620272,367.568,-11.8318,24.2218,178.879,-0.175781,88.4399,104
1567620272,367.568,-11.8318,24.2218,178.879,-0.175781,88.4399,104
1567620272,367.568,-11.8318,24.2218,178.879,-0.175781,88.4399,104
1567620272,367.568,-11.8318,24.2218,178.879,-0.175781,88.418,104
1567620272,367.568,-11.8318,24.2218,178.879,-0.175781,88.418,104
1567620272,367.568,-11.8318,24.2218,178.879,-0.175781,88.418,104
1567620272,367.568,-11.8318,24.2218,178.879,-0.175781,88.418,104
1567620272,367.568,-11.8318,24.2218,178.879,-0.175781,88.418,104
1567620272,367.568,-11.8318,24.2218,178.879,-0.175781,88.418,104
1567620272,367.568,-11.8318,24.2218,178.879,-0.175781,88.418,104
1567620272,367.457,-11.8318,24.2218,178.879,-0.175781,88.418,104
1567620272,367.457,-11.8318,24.2218,178.879,-0.175781,88.418,104
1567620272,367.457,-11.8318,24.2218,178.879,-0.175781,88.418,104
1567620272,367.457,-11.8318,24.2218,178.879,-0.175781,88.418,104
1567620272,367.457,-11.8318,24.2218,178.879,-0.175781,88.418,104
1567620272,367.457,-11.8318,24.2218,178.879,-0.175781,88.418,104
1567620272,367.457,-11.8318,24.2218,178.879,-0.175781,88.418,104
1567620272,367.457,-11.8318,24.2218,178.879,-0.175781,88.418,104
1567620272,367.457,-11.8318,24.2218,178.879,-0.175781,88.418,104
1567620272,367.457,-11.8318,24.2218,178.879,-0.175781,88.418,104
1567620272,367.457,-11.8318,24.2218,178.879,-0.197754,88.418,104
1567620272,367.457,-11.8318,24.2218,178.879,-0.197754,88.418,104
1567620272,367.457,-11.8318,24.2218,178.879,-0.197754,88.418,104
1567620272,367.457,-11.8318,24.2218,178.879,-0.197754,88.418,104
1567620272,367.568,-11.8318,24.2218,178.879,-0.197754,88.418,104
1567620272,367.568,-11.8318,24.2218,178.879,-0.197754,88.418,104
1567620272,367.568,-11.8318,24.2218,178.879,-0.197754,88.418,104
1567620272,367.568,-11.8318,24.2218,178.879,-0.197754,88.418,104
1567620272,367.568,-11.8318,24.2218,178.879,-0.197754,88.418,104
1567620273,367.568,-11.8318,24.2218,178.879,-0.197754,88.418,104
1567620273,367.568,-11.8318,24.2218,178.879,-0.197754,88.418,104
1567620273,367.457,-11.8318,24.2218,178.879,-0.197754,88.418,104
1567620273,367.457,-11.8318,24.2218,178.879,-0.197754,88.418,104
1567620273,367.457,-11.8318,24.2218,178.879,-0.197754,88.4399,104
1567620273,367.457,-11.8318,24.2218,178.879,-0.197754,88.4399,104
1567620273,367.457,-11.8318,24.2218,178.879,-0.197754,88.4399,104
1567620273,367.457,-11.8318,24.2218,178.879,-0.197754,88.4399,104
1567620273,367.457,-11.8318,24.2218,178.879,-0.197754,88.4399,104
1567620273,367.457,-11.8318,24.2218,178.879,-0.197754,88.4399,104
1567620273,367.457,-11.8318,24.2218,178.879,-0.197754,88.4399,104
1567620273,367.457,-11.8318,24.2218,178.879,-0.197754,88.4399,104
1567620273,367.457,-11.8318,24.2218,178.879,-0.197754,88.4399,104
1567620273,367.457,-11.8318,24.2218,178.879,-0.197754,88.4399,104
1567620273,367.457,-11.8318,24.2218,178.879,-0.197754,88.4399,104
1567620273,367.457,-11.8318,24.2218,178.879,-0.197754,88.4399,104
1567620273,367.457,-11.8318,24.2218,178.879,-0.197754,88.4399,104
1567620273,367.457,-11.8318,24.2218,178.879,-0.197754,88.4399,104
1567620273,367.457,-11.8318,24.2218,178.879,-0.197754,88.4399,104
1567620273,367.457,-11.8318,24.2218,178.879,-0.197754,88.4399,104
1567620273,367.457,-11.8318,24.2218,178.879,-0.175781,88.4399,104
1567620273,367.457,-11.8318,24.2218,178.879,-0.175781,88.418,104
1567620273,367.457,-11.8318,24.2218,178.879,-0.175781,88.418,104
1567620273,367.457,-11.8318,24.2218,178.879,-0.175781,88.418,104
1567620273,367.457,-11.8318,24.2218,178.879,-0.175781,88.418,104
1567620273,367.457,-11.8318,24.2218,178.879,-0.175781,88.418,104
1567620273,367.457,-11.8318,24.2218,178.879,-0.175781,88.418,104
1567620273,367.457,-11.8318,24.2218,178.879,-0.175781,88.418,104
1567620273,367.457,-11.8318,24.2218,178.879,-0.175781,88.418,104
1567620273,367.457,-11.8318,24.2218,178.879,-0.175781,88.418,104
1567620273,367.457,-11.8318,24.2218,178.879,-0.175781,88.418,104
1567620273,367.457,-11.8318,24.2218,178.879,-0.175781,88.418,104
1567620273,367.457,-11.8318,24.2218,178.879,-0.175781,88.418,104
1567620273,367.457,-11.8318,24.2218,178.879,-0.175781,88.418,104
1567620273,367.457,-11.8318,24.2218,178.879,-0.175781,88.418,104
1567620273,367.457,-11.8318,24.2218,178.879,-0.175781,88.418,104
1567620273,367.457,-11.8318,24.2218,178.879,-0.175781,88.418,104
1567620273,367.457,-11.8318,24.2218,178.879,-0.175781,88.418,104
1567620273,367.457,-11.8318,24.2218,178.879,-0.175781,88.418,104
1567620273,367.457,-11.8318,24.2218,178.879,-0.175781,88.418,104
1567620273,367.457,-11.8318,24.2218,178.879,-0.175781,88.418,104
1567620273,367.457,-11.8318,24.2218,178.879,-0.175781,88.418,104
1567620273,367.457,-11.8318,24.2218,178.879,-0.175781,88.418,104
1567620273,367.457,-11.8318,24.2218,178.879,-0.175781,88.418,104
1567620273,367.457,-11.8318,24.2218,178.879,-0.175781,88.418,104
1567620273,367.457,-11.8318,24.2218,178.879,-0.175781,88.418,104
1567620273,367.457,-11.8318,24.2218,178.879,-0.175781,88.418,104
1567620273,367.457,-11.8318,24.2218,178.879,-0.175781,88.418,104
1567620273,367.457,-11.8318,24.2218,178.879,-0.175781,88.418,104
1567620273,367.457,-11.8318,24.2218,178.879,-0.175781,88.418,104
1567620273,367.457,-11.8318,24.2218,178.879,-0.175781,88.418,104
1567620273,367.457,-11.8318,24.2218,178.879,-0.175781,88.418,104
1567620273,367.457,-11.8318,24.2218,178.879,-0.175781,88.418,104
1567620273,367.457,-11.8318,24.2218,178.879,-0.175781,88.418,104
1567620273,367.457,-11.8318,24.2218,178.879,-0.175781,88.418,104
1567620273,367.457,-11.8318,24.2218,178.879,-0.175781,88.418,104
1567620273,367.457,-11.8318,24.2218,178.879,-0.175781,88.418,104
1567620273,367.457,-11.8318,24.2218,178.879,-0.175781,88.418,104
1567620273,367.457,-11.8318,24.2218,178.879,-0.175781,88.418,104
1567620273,367.457,-11.8318,24.2218,178.879,-0.175781,88.418,104
1567620273,367.457,-11.8318,24.2218,178.879,-0.175781,88.418,104
1567620273,367.457,-11.8318,24.2218,178.879,-0.175781,88.418,104
1567620273,367.457,-11.8318,24.2218,178.879,-0.175781,88.418,104
1567620273,367.457,-11.8318,24.2218,178.879,-0.175781,88.418,104
1567620273,367.457,-11.8318,24.2218,178.879,-0.175781,88.418,104
1567620273,367.457,-11.8318,24.2218,178.879,-0.175781,88.418,104
1567620273,367.457,-11.8318,24.2218,178.879,-0.175781,88.418,104
1567620273,367.457,-11.8318,24.2218,178.879,-0.175781,88.418,104
1567620273,367.457,-11.8318,24.2218,178.879,-0.175781,88.418,104
1567620273,367.457,-11.8318,24.2218,178.879,-0.175781,88.418,104
1567620273,367.457,-11.8318,24.2218,178.879,-0.175781,88.418,104
1567620273,367.457,-11.8318,24.2218,178.879,-0.175781,88.418,104
1567620273,367.457,-11.8318,24.2218,178.879,-0.175781,88.418,104
1567620273,367.457,-11.8318,24.2218,178.879,-0.175781,88.418,104
1567620273,367.457,-11.8318,24.2218,178.879,-0.175781,88.418,104
1567620273,367.457,-11.8318,24.2218,178.879,-0.175781,88.418,104
1567620273,367.457,-11.8318,24.2218,178.879,-0.175781,88.418,104
1567620273,367.457,-11.8318,24.2218,178.879,-0.175781,88.418,104
1567620273,367.568,-11.8318,24.2218,178.879,-0.175781,88.418,104
1567620273,367.568,-11.8318,24.2218,178.879,-0.197754,88.418,104
1567620273,367.568,-11.8318,24.2218,178.879,-0.197754,88.418,104
1567620273,367.568,-11.8318,24.2218,178.879,-0.197754,88.418,104
1567620273,367.568,-11.8318,24.2218,178.879,-0.197754,88.418,104
1567620273,367.568,-11.8318,24.2218,178.879,-0.197754,88.418,104
1567620273,367.568,-11.8318,24.2218,178.879,-0.197754,88.418,104
1567620273,367.568,-11.8318,24.2218,178.879,-0.197754,88.418,104
1567620273,367.568,-11.8318,24.2218,178.879,-0.197754,88.418,104
1567620273,367.568,-11.8318,24.2218,178.879,-0.197754,88.418,104
1567620273,367.568,-11.8318,24.2218,178.879,-0.197754,88.418,104
1567620273,367.568,-11.8318,24.2218,178.879,-0.197754,88.418,104
1567620273,367.568,-11.8318,24.2218,178.879,-0.197754,88.4399,104
1567620273,367.568,-11.8318,24.2218,178.879,-0.197754,88.4399,104
1567620273,367.568,-11.8318,24.2218,178.879,-0.197754,88.4399,104
1567620273,367.568,-11.8318,24.2218,178.879,-0.197754,88.4399,104
1567620273,367.568,-11.8318,24.2218,178.879,-0.197754,88.4399,104
1567620273,367.568,-11.8318,24.2218,178.879,-0.197754,88.4399,104
1567620273,367.568,-11.8318,24.2218,178.879,-0.197754,88.4399,104
1567620273,367.568,-11.8318,24.2218,178.879,-0.197754,88.4399,104
1567620273,367.568,-11.8318,24.2218,178.879,-0.197754,88.4399,104
1567620273,367.568,-11.8318,24.2218,178.879,-0.197754,88.4399,104
1567620274,367.568,-11.8318,24.2218,178.879,-0.197754,88.4399,104
1567620274,367.568,-11.8318,24.2218,178.879,-0.197754,88.4399,104
1567620274,367.568,-11.8318,24.2218,178.879,-0.197754,88.4399,104
1567620274,367.457,-11.8318,24.2218,178.879,-0.197754,88.4399,104
1567620274,367.457,-11.8318,24.2218,178.879,-0.175781,88.4399,104
1567620274,367.457,-11.8318,24.2218,178.879,-0.175781,88.4399,104
1567620274,367.457,-11.8318,24.2218,178.879,-0.175781,88.4399,104
1567620274,367.457,-11.8318,24.2218,178.879,-0.175781,88.4399,104
1567620274,367.457,-11.8318,24.2218,178.879,-0.175781,88.4399,104
1567620274,367.457,-11.8318,24.2218,178.879,-0.175781,88.4399,104
1567620274,367.457,-11.8318,24.2218,178.879,-0.197754,88.4399,104
1567620274,367.457,-11.8318,24.2218,178.879,-0.197754,88.4399,104
1567620274,367.457,-11.8318,24.2218,178.879,-0.197754,88.4399,104
1567620274,367.457,-11.8318,24.2218,178.879,-0.197754,88.4399,104
1567620274,367.457,-11.8318,24.2218,178.879,-0.197754,88.4399,104
1567620274,367.457,-11.8318,24.2218,178.879,-0.197754,88.4399,104
1567620274,367.457,-11.8318,24.2218,178.879,-0.197754,88.4399,104
1567620274,367.568,-11.8318,24.2218,178.879,-0.197754,88.4399,104
1567620274,367.568,-11.8318,24.2218,178.879,-0.197754,88.4399,104
1567620274,367.568,-11.8318,24.2218,178.879,-0.197754,88.4399,104
1567620274,367.568,-11.8318,24.2218,178.879,-0.197754,88.4399,104
1567620274,367.568,-11.8318,24.2218,178.879,-0.197754,88.4399,104
1567620274,367.568,-11.8318,24.2218,178.879,-0.197754,88.4399,104
1567620274,367.568,-11.8318,24.2218,178.879,-0.197754,88.4399,104
1567620274,367.568,-11.8318,24.2218,178.879,-0.197754,88.4399,104
1567620274,367.568,-11.8318,24.2218,178.879,-0.197754,88.4399,104
1567620274,367.568,-11.8318,24.2218,178.879,-0.197754,88.4399,104
1567620274,367.457,-11.8318,24.2218,178.879,-0.197754,88.4399,104
1567620274,367.457,-11.8318,24.2218,178.879,-0.197754,88.4399,104
1567620274,367.457,-11.8318,24.2218,178.879,-0.197754,88.4399,104
1567620274,367.457,-11.8318,24.2218,178.879,-0.197754,88.4399,104
1567620274,367.457,-11.8318,24.2218,178.879,-0.197754,88.4399,104
1567620274,367.457,-11.8318,24.2218,178.879,-0.197754,88.4399,104
1567620274,367.457,-11.8318,24.2218,178.879,-0.197754,88.4399,104
1567620274,367.457,-11.8318,24.2218,178.879,-0.197754,88.4399,104
1567620274,367.457,-11.8318,24.2218,178.879,-0.197754,88.4399,104
1567620274,367.457,-11.8318,24.2218,178.879,-0.197754,88.4399,104
1567620274,367.457,-11.8318,24.2218,178.879,-0.197754,88.4399,104
1567620274,367.457,-11.8318,24.2218,178.879,-0.197754,88.4399,104
1567620274,367.457,-11.8318,24.2218,178.879,-0.197754,88.4399,104
1567620274,367.457,-11.8318,24.2218,178.879,-0.175781,88.4399,104
1567620274,367.457,-11.8318,24.2218,178.879,-0.175781,88.4399,104
1567620274,367.457,-11.8318,24.2218,178.879,-0.175781,88.4399,108
1567620274,367.457,-11.8318,24.2218,178.879,-0.175781,88.4399,108
1567620274,367.457,-11.8318,24.2218,178.879,-0.175781,88.4399,108
1567620274,367.457,-11.8318,24.2218,178.879,-0.175781,88.4399,108
1567620274,367.457,-11.8318,24.2218,178.879,-0.175781,88.4399,108
1567620274,367.457,-11.8318,24.2218,178.879,-0.175781,88.4399,108
1567620274,367.457,-11.8318,24.2218,178.879,-0.175781,88.4399,108
1567620274,367.457,-11.8318,24.2218,178.879,-0.175781,88.4399,108
1567620274,367.457,-11.8318,24.2218,178.879,-0.175781,88.4399,108
1567620274,367.457,-11.8318,24.2218,178.879,-0.175781,88.4399,108
1567620274,367.457,-11.8318,24.2218,178.879,-0.175781,88.4399,108
1567620274,367.457,-11.8318,24.2218,178.879,-0.175781,88.4399,108
1567620274,367.457,-11.8318,24.2218,178.879,-0.175781,88.4399,108
1567620274,367.457,-11.8318,24.2218,178.879,-0.175781,88.4399,108
1567620274,367.457,-11.8318,24.2218,178.879,-0.175781,88.4399,108
1567620274,367.457,-11.8318,24.2218,178.879,-0.175781,88.4399,108
1567620274,367.457,-11.8318,24.2218,178.879,-0.175781,88.4399,108
1567620274,367.457,-11.8318,24.2218,178.879,-0.175781,88.4399,108
1567620274,367.457,-11.8318,24.2218,178.879,-0.175781,88.4399,108
1567620274,367.457,-11.8318,24.2218,178.879,-0.175781,88.4399,108
1567620279,367.457,-11.8318,24.2218,178.879,-0.175781,88.418,104
1567620279,367.457,-11.8318,24.2218,178.879,-0.175781,88.418,104
1567620279,367.457,-11.8318,24.2218,178.879,-0.175781,88.418,104
1567620279,367.457,-11.8318,24.2218,178.879,-0.175781,88.418,104
1567620279,367.457,-11.8318,24.2218,178.879,-0.175781,88.418,104
1567620279,367.457,-11.8318,24.2218,178.879,-0.175781,88.418,104
1567620280,367.457,-11.8318,24.2218,178.879,-0.175781,88.418,104
1567620280,367.457,-11.8318,24.2218,178.879,-0.175781,88.418,104
1567620280,367.457,-11.8318,24.2218,178.879,-0.197754,88.418,104
1567620280,367.457,-11.8318,24.2218,178.879,-0.197754,88.418,104
1567620280,367.457,-11.8318,24.2218,178.879,-0.197754,88.418,104
1567620280,367.457,-11.8318,24.2218,178.879,-0.197754,88.418,104
1567620280,367.457,-11.8318,24.2218,178.879,-0.197754,88.418,104
1567620280,367.457,-11.8318,24.2218,178.879,-0.175781,88.418,104
1567620280,367.457,-11.8318,24.2218,178.879,-0.175781,88.418,104
1567620280,367.457,-11.8318,24.2218,178.879,-0.197754,88.418,104
1567620280,367.457,-11.8318,24.2218,178.879,-0.197754,88.418,104
1567620280,367.457,-11.8318,24.2218,178.879,-0.175781,88.418,104
1567620280,367.457,-11.8318,24.2218,178.879,-0.175781,88.418,104
1567620280,367.457,-11.8318,24.2218,178.879,-0.197754,88.418,104
1567620280,367.457,-11.8318,24.2218,178.879,-0.197754,88.418,104
1567620280,367.457,-11.8318,24.2218,178.879,-0.197754,88.418,104
1567620280,367.457,-11.8318,24.2218,178.879,-0.197754,88.418,104
1567620280,367.457,-11.8318,24.2218,178.879,-0.197754,88.418,104
1567620280,367.457,-11.8318,24.2218,178.879,-0.197754,88.418,104
1567620280,367.457,-11.8318,24.2218,178.879,-0.197754,88.418,104
1567620280,367.457,-11.8318,24.2218,178.879,-0.197754,88.418,104
1567620280,367.457,-11.8318,24.2218,178.879,-0.197754,88.418,104
1567620280,367.457,-11.8318,24.2218,178.879,-0.197754,88.418,104
1567620280,367.457,-11.8318,24.2218,178.879,-0.197754,88.418,104
1567620280,367.457,-11.8318,24.2218,178.879,-0.197754,88.418,104
1567620280,367.457,-11.8318,24.2218,178.879,-0.197754,88.418,104
1567620280,367.457,-11.8318,24.2218,178.879,-0.197754,88.418,104
1567620280,367.457,-11.8318,24.2218,178.879,-0.197754,88.418,104
1567620280,367.457,-11.8318,24.2218,178.879,-0.197754,88.418,104
1567620280,367.457,-11.8318,24.2218,178.879,-0.197754,88.418,104
1567620280,367.457,-11.8318,24.2218,178.879,-0.197754,88.418,104
1567620280,367.457,-11.8318,24.2218,178.879,-0.197754,88.418,104
1567620280,367.457,-11.8318,24.2218,178.879,-0.197754,88.418,104
1567620280,367.457,-11.8318,24.2218,178.879,-0.197754,88.418,104
1567620280,367.457,-11.8318,24.2218,178.879,-0.197754,88.418,104
1567620280,367.457,-11.8318,24.2218,178.879,-0.197754,88.418,104
1567620280,367.457,-11.8318,24.2218,178.879,-0.197754,88.418,104
1567620280,367.457,-11.8318,24.2218,178.879,-0.197754,88.418,104
1567620280,367.457,-11.8318,24.2218,178.879,-0.197754,88.418,104
1567620280,367.457,-11.8318,24.2218,178.879,-0.197754,88.418,104
1567620280,367.457,-11.8318,24.2218,178.879,-0.197754,88.418,104
1567620280,367.457,-11.8318,24.2218,178.879,-0.197754,88.418,104
1567620280,367.457,-11.8318,24.2218,178.879,-0.197754,88.418,104
1567620280,367.457,-11.8318,24.2218,178.879,-0.197754,88.418,104
1567620280,367.457,-11.8318,24.2218,178.879,-0.197754,88.418,104
1567620280,367.457,-11.8318,24.2218,178.879,-0.197754,88.418,104
1567620280,367.457,-11.8318,24.2218,178.879,-0.197754,88.418,104
1567620280,367.457,-11.8318,24.2218,178.879,-0.175781,88.418,104
1567620280,367.457,-11.8318,24.2218,178.879,-0.175781,88.418,104
1567620280,367.457,-11.8318,24.2218,178.879,-0.175781,88.418,104
1567620280,367.457,-11.8318,24.2218,178.879,-0.175781,88.418,104
1567620280,367.457,-11.8318,24.2218,178.879,-0.175781,88.418,104
1567620280,367.457,-11.8318,24.2218,178.879,-0.175781,88.418,104
1567620280,367.457,-11.8318,24.2218,178.879,-0.175781,88.418,104
1567620280,367.457,-11.8318,24.2218,178.879,-0.175781,88.418,104
1567620280,367.457,-11.8318,24.2218,178.879,-0.175781,88.418,104
1567620280,367.457,-11.8318,24.2218,178.879,-0.175781,88.418,104
1567620280,367.457,-11.8318,24.2218,178.879,-0.175781,88.418,104
1567620280,367.457,-11.8318,24.2218,178.879,-0.175781,88.418,104
1567620280,367.457,-11.8318,24.2218,178.879,-0.197754,88.418,104
1567620280,367.457,-11.8318,24.2218,178.879,-0.197754,88.418,104
1567620280,367.457,-11.8318,24.2218,178.879,-0.197754,88.418,104
1567620280,367.457,-11.8318,24.2218,178.879,-0.197754,88.418,104
1567620280,367.457,-11.8318,24.2218,178.879,-0.197754,88.418,104
1567620280,367.457,-11.8318,24.2218,178.879,-0.197754,88.418,104
1567620280,367.457,-11.8318,24.2218,178.879,-0.197754,88.418,104
1567620280,367.457,-11.8318,24.2218,178.879,-0.197754,88.418,104
1567620280,367.457,-11.8318,24.2218,178.879,-0.197754,88.418,104
1567620280,367.457,-11.8318,24.2218,178.879,-0.197754,88.418,104
1567620280,367.457,-11.8318,24.2218,178.879,-0.197754,88.418,104
1567620280,367.457,-11.8318,24.2218,178.879,-0.197754,88.418,104
1567620280,367.457,-11.8318,24.2218,178.879,-0.197754,88.418,104
1567620280,367.457,-11.8318,24.2218,178.879,-0.197754,88.418,104
1567620280,367.457,-11.8318,24.2218,178.879,-0.197754,88.418,104
1567620280,367.457,-11.8318,24.2218,178.879,-0.197754,88.418,104
1567620280,367.457,-11.8318,24.2218,178.879,-0.197754,88.418,104
1567620280,367.457,-11.8318,24.2218,178.879,-0.197754,88.418,104
1567620280,367.457,-11.8318,24.2218,178.879,-0.197754,88.418,104
1567620280,367.457,-11.8318,24.2218,178.879,-0.197754,88.418,104
1567620280,367.457,-11.8318,24.2218,178.879,-0.197754,88.4399,104
1567620280,367.457,-11.8318,24.2218,178.879,-0.197754,88.4399,104
1567620280,367.457,-11.8318,24.2218,178.879,-0.197754,88.4399,104
1567620280,367.457,-11.8318,24.2218,178.879,-0.197754,88.4399,104
1567620280,367.457,-11.8318,24.2218,178.879,-0.197754,88.4399,104
1567620280,367.457,-11.8318,24.2218,178.879,-0.197754,88.4399,104
1567620280,367.457,-11.8318,24.2218,178.879,-0.197754,88.4399,104
1567620280,367.457,-11.8318,24.2218,178.879,-0.197754,88.4399,104
1567620280,367.457,-11.8318,24.2218,178.879,-0.197754,88.4399,104
1567620280,367.457,-11.8318,24.2218,178.879,-0.197754,88.4399,104
1567620280,367.457,-11.8318,24.2218,178.879,-0.197754,88.4399,104
1567620280,367.457,-11.8318,24.2218,178.879,-0.197754,88.4399,104
1567620280,367.457,-11.8318,24.2218,178.879,-0.197754,88.4399,104
1567620280,367.457,-11.8318,24.2218,178.879,-0.197754,88.4399,104
1567620280,367.457,-11.8318,24.2218,178.879,-0.197754,88.4399,104
1567620280,367.457,-11.8318,24.2218,178.879,-0.197754,88.4399,104
1567620280,367.457,-11.8318,24.2218,178.879,-0.197754,88.4399,104
1567620280,367.457,-11.8318,24.2218,178.879,-0.175781,88.4399,104
1567620280,367.457,-11.8318,24.2218,178.879,-0.175781,88.4399,104
1567620280,367.457,-11.8318,24.2218,178.879,-0.175781,88.4399,104
1567620280,367.457,-11.8318,24.2218,178.879,-0.175781,88.4399,104
1567620281,367.457,-11.8318,24.2218,178.879,-0.175781,88.4399,104
1567620281,367.457,-11.8318,24.2218,178.879,-0.197754,88.4399,104
1567620281,367.457,-11.8318,24.2218,178.879,-0.197754,88.4399,104
1567620281,367.457,-11.8318,24.2218,178.879,-0.197754,88.4399,104
1567620281,367.457,-11.8318,24.2218,178.879,-0.197754,88.4399,104
1567620281,367.457,-11.8318,24.2218,178.879,-0.197754,88.4399,104
1567620281,367.457,-11.8318,24.2218,178.879,-0.197754,88.4399,104
1567620281,367.457,-11.8318,24.2218,178.879,-0.197754,88.4399,104
1567620281,367.457,-11.8318,24.2218,178.879,-0.197754,88.4399,104
1567620281,367.457,-11.8318,24.2218,178.879,-0.197754,88.4399,104
1567620281,367.457,-11.8318,24.2218,178.879,-0.197754,88.4399,104
1567620281,367.457,-11.8318,24.2218,178.879,-0.197754,88.4399,104
1567620281,367.457,-11.8318,24.2218,178.879,-0.197754,88.4399,104
1567620281,367.457,-11.8318,24.2218,178.879,-0.197754,88.4399,104
1567620281,367.457,-11.8318,24.2218,178.879,-0.197754,88.4399,104
1567620281,367.457,-11.8318,24.2218,178.879,-0.197754,88.4399,104
1567620281,367.457,-11.8318,24.2218,178.879,-0.197754,88.4399,104
1567620281,367.457,-11.8318,24.2218,178.879,-0.197754,88.4399,104
1567620281,367.457,-11.8318,24.2218,178.879,-0.197754,88.4399,104
1567620281,367.457,-11.8318,24.2218,178.879,-0.197754,88.4399,104
1567620281,367.457,-11.8318,24.2218,178.879,-0.197754,88.4399,104
1567620281,367.457,-11.8318,24.2218,178.879,-0.197754,88.4399,104
1567620281,367.457,-11.8318,24.2218,178.879,-0.197754,88.4399,104
1567620281,367.457,-11.8318,24.2218,178.879,-0.197754,88.4399,104
1567620281,367.457,-11.8318,24.2218,178.879,-0.197754,88.4399,104
1567620281,367.457,-11.8318,24.2218,178.879,-0.197754,88.4399,104
1567620281,367.457,-11.8318,24.2218,178.879,-0.197754,88.4399,104
1567620281,367.457,-11.8318,24.2218,178.879,-0.197754,88.418,104
1567620281,367.457,-11.8318,24.2218,178.879,-0.197754,88.418,104
1567620281,367.457,-11.8318,24.2218,178.879,-0.197754,88.418,104
1567620281,367.457,-11.8318,24.2218,178.879,-0.197754,88.418,104
1567620281,367.457,-11.8318,24.2218,178.879,-0.197754,88.418,104
1567620281,367.457,-11.8318,24.2218,178.879,-0.197754,88.418,104
1567620281,367.457,-11.8318,24.2218,178.879,-0.197754,88.418,104
1567620281,367.457,-11.8318,24.2218,178.879,-0.197754,88.418,104
1567620281,367.457,-11.8318,24.2218,178.879,-0.197754,88.418,108
1567620281,367.457,-11.8318,24.2218,178.879,-0.197754,88.418,108
1567620281,367.457,-11.8318,24.2218,178.879,-0.197754,88.418,108
1567620281,367.457,-11.8318,24.2218,178.879,-0.197754,88.418,108
1567620281,367.457,-11.8318,24.2218,178.879,-0.197754,88.418,108
1567620281,367.457,-11.8318,24.2218,178.879,-0.197754,88.418,108
1567620281,367.457,-11.8318,24.2218,178.879,-0.197754,88.418,108
1567620281,367.457,-11.8318,24.2218,178.879,-0.197754,88.418,108
1567620281,367.457,-11.8318,24.2218,178.879,-0.197754,88.418,108
1567620281,367.457,-11.8318,24.2218,178.879,-0.197754,88.418,108
1567620281,367.457,-11.8318,24.2218,178.879,-0.197754,88.418,108
1567620281,367.457,-11.8318,24.2218,178.879,-0.197754,88.418,108
1567620281,367.457,-11.8318,24.2218,178.879,-0.197754,88.418,108
1567620281,367.457,-11.8318,24.2218,178.879,-0.197754,88.418,108
1567620281,367.457,-11.8318,24.2218,178.879,-0.197754,88.418,108
1567620281,367.457,-11.8318,24.2218,178.879,-0.197754,88.418,108
1567620281,367.457,-11.8318,24.2218,178.879,-0.197754,88.418,108
1567620281,367.457,-11.8318,24.2218,178.879,-0.197754,88.418,108
1567620281,367.457,-11.8318,24.2218,178.879,-0.197754,88.418,108
1567620281,367.457,-11.8318,24.2218,178.879,-0.197754,88.418,108
1567620281,367.457,-11.8318,24.2218,178.879,-0.197754,88.418,108
1567620281,367.457,-11.8318,24.2218,178.879,-0.197754,88.418,108
1567620281,367.457,-11.8318,24.2218,178.879,-0.197754,88.418,108
1567620281,367.457,-11.8318,24.2218,178.879,-0.197754,88.418,108
1567620281,367.457,-11.8318,24.2218,178.879,-0.197754,88.418,108
1567620281,367.457,-11.8318,24.2218,178.879,-0.197754,88.418,108
1567620281,367.457,-11.8318,24.2218,178.879,-0.197754,88.418,108
1567620281,367.457,-11.8318,24.2218,178.879,-0.197754,88.418,108
1567620281,367.457,-11.8318,24.2218,178.879,-0.197754,88.418,108
1567620281,367.457,-11.8318,24.2218,178.879,-0.197754,88.418,108
1567620281,367.457,-11.8318,24.2218,178.879,-0.197754,88.418,104
1567620281,367.457,-11.8318,24.2218,178.879,-0.197754,88.418,104
1567620281,367.457,-11.8318,24.2218,178.879,-0.197754,88.418,104
1567620281,367.457,-11.8318,24.2218,178.879,-0.197754,88.418,104
1567620281,367.457,-11.8318,24.2218,178.879,-0.197754,88.418,104
1567620281,367.457,-11.8318,24.2218,178.879,-0.197754,88.418,104
1567620281,367.457,-11.8318,24.2218,178.879,-0.197754,88.418,104
1567620281,367.457,-11.8318,24.2218,178.879,-0.197754,88.418,104
1567620281,367.457,-11.8318,24.2218,178.879,-0.197754,88.418,104
1567620281,367.568,-11.8318,24.2218,178.879,-0.197754,88.418,104
1567620281,367.568,-11.8318,24.2218,178.879,-0.197754,88.418,104
1567620281,367.568,-11.8318,24.2218,178.879,-0.197754,88.418,104
1567620281,367.568,-11.8318,24.2218,178.879,-0.197754,88.418,104
1567620281,367.568,-11.8318,24.2218,178.879,-0.197754,88.418,104
1567620281,367.568,-11.8318,24.2218,178.879,-0.197754,88.418,104
1567620281,367.568,-11.8318,24.2218,178.879,-0.197754,88.418,104
1567620281,367.568,-11.8318,24.2218,178.879,-0.197754,88.4399,104
1567620281,367.568,-11.8318,24.2218,178.879,-0.197754,88.4399,104
1567620281,367.568,-11.8318,24.2218,178.879,-0.197754,88.4399,104
1567620281,367.568,-11.8318,24.2218,178.879,-0.197754,88.4399,104
1567620281,367.568,-11.8318,24.2218,178.879,-0.197754,88.4399,104
1567620281,367.568,-11.8318,24.2218,178.879,-0.197754,88.4399,104
1567620281,367.568,-11.8318,24.2218,178.879,-0.197754,88.4399,104
1567620281,367.568,-11.8318,24.2218,178.879,-0.197754,88.4399,104
1567620281,367.568,-11.8318,24.2218,178.879,-0.197754,88.4399,104
1567620281,367.568,-11.8318,24.2218,178.879,-0.197754,88.4399,104
1567620281,367.568,-11.8318,24.2218,178.879,-0.197754,88.4399,104
1567620281,367.568,-11.8318,24.2218,178.879,-0.197754,88.4399,104
1567620281,367.568,-11.8318,24.2218,178.879,-0.197754,88.4399,104
1567620281,367.568,-11.8318,24.2218,178.879,-0.197754,88.4399,104
1567620281,367.568,-11.8318,24.2218,178.879,-0.197754,88.4399,104
1567620281,367.568,-11.8318,24.2218,178.879,-0.197754,88.4399,104
1567620281,367.568,-11.8318,24.2218,178.879,-0.197754,88.4399,104
1567620281,367.568,-11.8318,24.2218,178.879,-0.197754,88.4399,104
1567620281,367.568,-11.8318,24.2218,178.879,-0.197754,88.4399,104
1567620282,367.568,-11.8318,24.2218,178.879,-0.197754,88.4399,104
1567620282,367.568,-11.8318,24.2218,178.879,-0.197754,88.4399,104
1567620282,367.568,-11.8318,24.2218,178.879,-0.197754,88.4399,104
1567620282,367.568,-11.8318,24.2218,178.879,-0.197754,88.4399,104
1567620282,367.568,-11.8318,24.2218,178.879,-0.175781,88.4399,104
1567620282,367.568,-11.8318,24.2218,178.879,-0.175781,88.4399,104
1567620282,367.568,-11.8318,24.2218,178.879,-0.175781,88.4399,104
1567620282,367.568,-11.8318,24.2218,178.879,-0.175781,88.4399,104
1567620282,367.568,-11.8318,24.2218,178.879,-0.175781,88.4399,104
1567620282,367.568,-11.8318,24.2218,178.879,-0.175781,88.4399,104
1567620282,367.568,-11.8318,24.2218,178.879,-0.175781,88.4399,104
1567620282,367.568,-11.8318,24.2218,178.879,-0.175781,88.418,104
1567620282,367.568,-11.8318,24.2218,178.879,-0.175781,88.418,104
1567620282,367.568,-11.8318,24.2218,178.879,-0.175781,88.418,104
1567620282,367.457,-11.8318,24.2218,178.879,-0.175781,88.418,104
1567620282,367.457,-11.8318,24.2218,178.879,-0.175781,88.418,104
1567620282,367.457,-11.8318,24.2218,178.879,-0.175781,88.418,104
1567620282,367.457,-11.8318,24.2218,178.879,-0.175781,88.418,104
1567620282,367.457,-11.8318,24.2218,178.879,-0.175781,88.418,104
1567620282,367.457,-11.8318,24.2218,178.879,-0.175781,88.418,104
1567620282,367.457,-11.8318,24.2218,178.879,-0.175781,88.418,104
1567620282,367.457,-11.8318,24.2218,178.879,-0.175781,88.418,104
1567620282,367.457,-11.8318,24.2218,178.879,-0.175781,88.418,104
1567620282,367.457,-11.8318,24.2218,178.879,-0.175781,88.418,104
1567620282,367.457,-11.8318,24.2218,178.879,-0.175781,88.418,104
1567620282,367.457,-11.8318,24.2218,178.879,-0.175781,88.418,104
1567620282,367.457,-11.8318,24.2218,178.879,-0.175781,88.418,104
1567620282,367.457,-11.8318,24.2218,178.879,-0.175781,88.4399,104
1567620282,367.457,-11.8318,24.2218,178.879,-0.175781,88.4399,104
1567620282,367.457,-11.8318,24.2218,178.879,-0.175781,88.4399,104
1567620282,367.457,-11.8318,24.2218,178.879,-0.175781,88.4399,104
1567620282,367.457,-11.8318,24.2218,178.879,-0.175781,88.4399,104
1567620282,367.457,-11.8318,24.2218,178.879,-0.175781,88.4399,104
1567620282,367.457,-11.8318,24.2218,178.879,-0.175781,88.4399,104
1567620282,367.457,-11.8318,24.2218,178.879,-0.175781,88.4399,104
1567620282,367.457,-11.8318,24.2218,178.879,-0.175781,88.418,104
1567620282,367.457,-11.8318,24.2218,178.879,-0.175781,88.418,104
1567620282,367.457,-11.8318,24.2218,178.879,-0.175781,88.418,104
1567620282,367.457,-11.8318,24.2218,178.879,-0.175781,88.418,104
1567620282,367.457,-11.8318,24.2218,178.879,-0.175781,88.418,104
1567620282,367.457,-11.8318,24.2218,178.879,-0.175781,88.418,104
1567620282,367.457,-11.8318,24.2218,178.879,-0.175781,88.418,104
1567620282,367.457,-11.8318,24.2218,178.879,-0.175781,88.418,104
1567620282,367.457,-11.8318,24.2218,178.879,-0.175781,88.418,104
1567620282,367.457,-11.8318,24.2218,178.879,-0.175781,88.418,104
1567620282,367.457,-11.8318,24.2218,178.879,-0.175781,88.418,104
1567620282,367.457,-11.8318,24.2218,178.879,-0.175781,88.418,104
1567620282,367.457,-11.8318,24.2218,178.879,-0.175781,88.418,104
1567620282,367.457,-11.8318,24.2218,178.879,-0.175781,88.418,104
1567620282,367.457,-11.8318,24.2218,178.879,-0.175781,88.418,104
1567620282,367.457,-11.8318,24.2218,178.879,-0.175781,88.418,104
1567620282,367.457,-11.8318,24.2218,178.879,-0.175781,88.418,104
1567620282,367.457,-11.8318,24.2218,178.879,-0.175781,88.418,104
1567620282,367.457,-11.8318,24.2218,178.879,-0.175781,88.418,104
1567620282,367.457,-11.8318,24.2218,178.879,-0.175781,88.418,104
1567620282,367.457,-11.8318,24.2218,178.879,-0.175781,88.418,104
1567620282,367.457,-11.8318,24.2218,178.879,-0.175781,88.418,104
1567620282,367.457,-11.8318,24.2218,178.879,-0.197754,88.418,104
1567620282,367.457,-11.8318,24.2218,178.879,-0.197754,88.418,104
1567620282,367.457,-11.8318,24.2218,178.879,-0.197754,88.418,104
1567620282,367.457,-11.8318,24.2218,178.879,-0.197754,88.418,104
1567620282,367.457,-11.8318,24.2218,178.879,-0.197754,88.418,104
1567620282,367.457,-11.8318,24.2218,178.879,-0.197754,88.418,104
1567620282,367.457,-11.8318,24.2218,178.879,-0.197754,88.418,104
1567620282,367.457,-11.8318,24.2218,178.879,-0.197754,88.418,104
1567620282,367.457,-11.8318,24.2218,178.879,-0.197754,88.418,104
1567620282,367.457,-11.8318,24.2218,178.879,-0.197754,88.418,104
1567620282,367.457,-11.8318,24.2218,178.879,-0.197754,88.418,104
1567620282,367.457,-11.8318,24.2218,178.879,-0.197754,88.418,104
1567620282,367.457,-11.8318,24.2218,178.879,-0.197754,88.418,104
1567620282,367.457,-11.8318,24.2218,178.879,-0.197754,88.418,104
1567620282,367.457,-11.8318,24.2218,178.879,-0.197754,88.418,104
1567620282,367.457,-11.8318,24.2218,178.879,-0.197754,88.418,104
1567620282,367.457,-11.8318,24.2218,178.879,-0.197754,88.418,104
1567620282,367.457,-11.8318,24.2218,178.879,-0.197754,88.418,104
1567620282,367.457,-11.8318,24.2218,178.879,-0.197754,88.418,104
1567620282,367.457,-11.8318,24.2218,178.879,-0.197754,88.418,104
1567620282,367.457,-11.8318,24.2218,178.879,-0.197754,88.418,104
1567620282,367.457,-11.8318,24.2218,178.879,-0.197754,88.418,104
1567620282,367.457,-11.8318,24.2218,178.879,-0.197754,88.418,104
1567620282,367.457,-11.8318,24.2218,178.879,-0.197754,88.418,104
1567620282,367.457,-11.8318,24.2218,178.879,-0.197754,88.418,104
1567620282,367.457,-11.8318,24.2218,178.879,-0.197754,88.418,104
1567620282,367.457,-11.8318,24.2218,178.879,-0.197754,88.418,104
1567620282,367.457,-11.8318,24.2218,178.879,-0.197754,88.418,108
1567620282,367.457,-11.8318,24.2218,178.879,-0.197754,88.418,108
1567620282,367.457,-11.8318,24.2218,178.879,-0.197754,88.418,108
1567620282,367.457,-11.8318,24.2218,178.879,-0.197754,88.418,108
1567620282,367.457,-11.8318,24.2218,178.879,-0.197754,88.418,108
1567620282,367.457,-11.8318,24.2218,178.879,-0.197754,88.4399,108
1567620282,367.457,-11.8318,24.2218,178.879,-0.197754,88.4399,108
1567620282,367.457,-11.8318,24.2218,178.879,-0.197754,88.4399,108
1567620282,367.457,-11.8318,24.2218,178.879,-0.197754,88.4399,108
1567620282,367.457,-11.8318,24.2218,178.879,-0.197754,88.4399,108
1567620282,367.457,-11.8318,24.2218,178.879,-0.197754,88.4399,104
1567620282,367.457,-11.8318,24.2218,178.879,-0.197754,88.418,104
1567620282,367.457,-11.8318,24.2218,178.879,-0.197754,88.418,104
1567620282,367.457,-11.8318,24.2218,178.879,-0.197754,88.418,104
1567620282,367.457,-11.8318,24.2218,178.879,-0.197754,88.418,104
1567620282,367.457,-11.8318,24.2218,178.879,-0.175781,88.418,104
1567620283,367.457,-11.8318,24.2218,178.879,-0.175781,88.4399,104
1567620283,367.457,-11.8318,24.2218,178.879,-0.175781,88.4399,104
1567620283,367.457,-11.8318,24.2218,178.879,-0.175781,88.4399,104
1567620283,367.457,-11.8318,24.2218,178.879,-0.175781,88.4399,104
1567620283,367.457,-11.8318,24.2218,178.879,-0.175781,88.4399,104
1567620283,367.457,-11.8318,24.2218,178.879,-0.175781,88.4399,104
1567620283,367.457,-11.8318,24.2218,178.879,-0.175781,88.4399,104
1567620283,367.457,-11.8318,24.2218,178.879,-0.175781,88.4399,104
1567620283,367.457,-11.8318,24.2218,178.879,-0.175781,88.4399,104
1567620283,367.457,-11.8318,24.2218,178.879,-0.175781,88.4399,104
1567620283,367.457,-11.8318,24.2218,178.879,-0.175781,88.4399,104
1567620283,367.457,-11.8318,24.2218,178.879,-0.197754,88.4399,104
1567620283,367.457,-11.8318,24.2218,178.879,-0.197754,88.4399,104
1567620283,367.457,-11.8318,24.2218,178.879,-0.197754,88.4399,104
1567620283,367.457,-11.8318,24.2218,178.879,-0.197754,88.4399,104
1567620283,367.457,-11.8318,24.2218,178.879,-0.197754,88.4399,104
1567620283,367.457,-11.8318,24.2218,178.879,-0.197754,88.4399,104
1567620283,367.457,-11.8318,24.2218,178.879,-0.197754,88.4399,104
1567620283,367.457,-11.8318,24.2218,178.879,-0.197754,88.418,104
1567620283,367.457,-11.8318,24.2218,178.879,-0.197754,88.418,104
1567620283,367.568,-11.8318,24.2218,178.879,-0.197754,88.418,104
1567620283,367.568,-11.8318,24.2218,178.879,-0.197754,88.418,104
1567620283,367.568,-11.8318,24.2218,178.879,-0.197754,88.418,104
1567620283,367.568,-11.8318,24.2218,178.879,-0.197754,88.418,104
1567620283,367.568,-11.8318,24.2218,178.879,-0.197754,88.418,104
1567620283,367.568,-11.8318,24.2218,178.879,-0.175781,88.418,104
1567620283,367.568,-11.8318,24.2218,178.879,-0.175781,88.418,104
1567620283,367.568,-11.8318,24.2218,178.879,-0.175781,88.418,104
1567620283,367.568,-11.8318,24.2218,178.879,-0.175781,88.418,104
1567620283,367.568,-11.8318,24.2218,178.879,-0.175781,88.418,104
1567620283,367.568,-11.8318,24.2218,178.879,-0.175781,88.418,104
1567620283,367.457,-11.8318,24.2218,178.879,-0.175781,88.418,104
1567620283,367.457,-11.8318,24.2218,178.879,-0.175781,88.418,104
1567620283,367.457,-11.8318,24.2218,178.879,-0.175781,88.418,104
1567620283,367.457,-11.8318,24.2218,178.879,-0.175781,88.418,104
1567620283,367.457,-11.8318,24.2218,178.879,-0.175781,88.418,104
1567620283,367.457,-11.8318,24.2218,178.879,-0.175781,88.418,104
1567620283,367.568,-11.8318,24.2218,178.879,-0.175781,88.418,104
1567620283,367.568,-11.8318,24.2218,178.879,-0.175781,88.418,104
1567620283,367.568,-11.8318,24.2218,178.879,-0.175781,88.418,104
1567620283,367.568,-11.8318,24.2218,178.879,-0.175781,88.418,104
1567620283,367.568,-11.8318,24.2218,178.879,-0.175781,88.418,104
1567620283,367.568,-11.8318,24.2218,178.879,-0.175781,88.418,104
1567620283,367.568,-11.8318,24.2218,178.879,-0.175781,88.418,104
1567620283,367.457,-11.8318,24.2218,178.879,-0.175781,88.418,104
1567620283,367.457,-11.8318,24.2218,178.879,-0.175781,88.418,104
1567620283,367.457,-11.8318,24.2218,178.879,-0.175781,88.418,104
1567620283,367.457,-11.8318,24.2218,178.879,-0.175781,88.418,104
1567620283,367.457,-11.8318,24.2218,178.879,-0.175781,88.418,104
1567620283,367.457,-11.8318,24.2218,178.879,-0.175781,88.418,104
1567620283,367.457,-11.8318,24.2218,178.879,-0.175781,88.418,104
1567620283,367.457,-11.8318,24.2218,178.879,-0.175781,88.418,104
1567620283,367.457,-11.8318,24.2218,178.879,-0.175781,88.418,104
1567620283,367.457,-11.8318,24.2218,178.879,-0.175781,88.418,104
1567620283,367.457,-11.8318,24.2218,178.879,-0.175781,88.418,104
1567620283,367.457,-11.8318,24.2218,178.879,-0.175781,88.418,104
1567620283,367.457,-11.8318,24.2218,178.879,-0.197754,88.418,104
1567620283,367.457,-11.8318,24.2218,178.879,-0.197754,88.418,104
1567620283,367.457,-11.8318,24.2218,178.879,-0.197754,88.418,104
1567620283,367.457,-11.8318,24.2218,178.879,-0.197754,88.418,104
1567620283,367.457,-11.8318,24.2218,178.879,-0.197754,88.418,104
1567620283,367.457,-11.8318,24.2218,178.879,-0.197754,88.418,104
1567620283,367.457,-11.8318,24.2218,178.879,-0.197754,88.418,104
1567620283,367.457,-11.8318,24.2218,178.879,-0.175781,88.418,104
1567620283,367.457,-11.8318,24.2218,178.879,-0.175781,88.418,104
1567620283,367.457,-11.8318,24.2218,178.879,-0.175781,88.418,104
1567620283,367.457,-11.8318,24.2218,178.879,-0.175781,88.418,104
1567620283,367.457,-11.8318,24.2218,178.879,-0.175781,88.418,104
1567620283,367.457,-11.8318,24.2218,178.879,-0.175781,88.418,104
1567620283,367.457,-11.8318,24.2218,178.879,-0.175781,88.418,104
1567620283,367.457,-11.8318,24.2218,178.879,-0.175781,88.418,104
1567620283,367.457,-11.8318,24.2218,178.879,-0.175781,88.418,104
1567620283,367.457,-11.8318,24.2218,178.879,-0.175781,88.418,104
1567620283,367.457,-11.8318,24.2218,178.879,-0.175781,88.418,104
1567620283,367.457,-11.8318,24.2218,178.879,-0.175781,88.418,104
1567620283,367.457,-11.8318,24.2218,178.879,-0.175781,88.418,104
1567620283,367.457,-11.8318,24.2218,178.879,-0.175781,88.418,104
1567620283,367.457,-11.8318,24.2218,178.879,-0.175781,88.418,104
1567620283,367.457,-11.8318,24.2218,178.879,-0.175781,88.418,104
1567620283,367.457,-11.8318,24.2218,178.879,-0.175781,88.418,104
1567620283,367.457,-11.8318,24.2218,178.879,-0.175781,88.418,104
1567620283,367.457,-11.8318,24.2218,178.879,-0.175781,88.418,104
1567620283,367.457,-11.8318,24.2218,178.879,-0.175781,88.418,104
1567620283,367.457,-11.8318,24.2218,178.879,-0.175781,88.418,104
1567620283,367.457,-11.8318,24.2218,178.879,-0.175781,88.418,104
1567620283,367.457,-11.8318,24.2218,178.879,-0.175781,88.418,104
1567620283,367.457,-11.8318,24.2218,178.879,-0.175781,88.418,104
1567620283,367.457,-11.8318,24.2218,178.879,-0.175781,88.418,104
1567620283,367.457,-11.8318,24.2218,178.879,-0.175781,88.418,104
1567620283,367.457,-11.8318,24.2218,178.879,-0.175781,88.418,104
1567620283,367.457,-11.8318,24.2218,178.879,-0.175781,88.418,104
1567620283,367.457,-11.8318,24.2218,178.879,-0.175781,88.418,104
1567620283,367.457,-11.8318,24.2218,178.879,-0.175781,88.418,104
1567620283,367.457,-11.8318,24.2218,178.879,-0.175781,88.418,104
1567620283,367.457,-11.8318,24.2218,178.879,-0.175781,88.418,104
1567620283,367.457,-11.8318,24.2218,178.879,-0.175781,88.418,104
1567620283,367.457,-11.8318,24.2218,178.879,-0.197754,88.418,104
1567620283,367.457,-11.8318,24.2218,178.879,-0.197754,88.418,104
1567620283,367.457,-11.8318,24.2218,178.879,-0.197754,88.418,104
1567620283,367.457,-11.8318,24.2218,178.879,-0.197754,88.418,104
1567620284,367.457,-11.8318,24.2218,178.879,-0.197754,88.418,104
1567620284,367.457,-11.8318,24.2218,178.879,-0.197754,88.418,104
1567620284,367.457,-11.8318,24.2218,178.879,-0.197754,88.418,104
1567620284,367.457,-11.8318,24.2218,178.879,-0.197754,88.418,104
1567620284,367.457,-11.8318,24.2218,178.879,-0.197754,88.418,104
1567620284,367.457,-11.8318,24.2218,178.879,-0.197754,88.418,104
1567620284,367.457,-11.8318,24.2218,178.879,-0.197754,88.418,104
1567620284,367.457,-11.8318,24.2218,178.879,-0.197754,88.418,104
1567620284,367.457,-11.8318,24.2218,178.879,-0.197754,88.418,104
1567620284,367.457,-11.8318,24.2218,178.879,-0.197754,88.418,104
1567620284,367.457,-11.8318,24.2218,178.879,-0.197754,88.418,104
1567620284,367.457,-11.8318,24.2218,178.879,-0.197754,88.4399,104
1567620284,367.457,-11.8318,24.2218,178.879,-0.197754,88.4399,104
1567620284,367.457,-11.8318,24.2218,178.879,-0.197754,88.4399,108
1567620284,367.457,-11.8318,24.2218,178.879,-0.197754,88.4399,108
1567620284,367.457,-11.8318,24.2218,178.879,-0.197754,88.4399,108
1567620284,367.457,-11.8318,24.2218,178.879,-0.197754,88.4399,104
1567620284,367.457,-11.8318,24.2218,178.879,-0.197754,88.4399,104
1567620284,367.457,-11.8318,24.2218,178.879,-0.197754,88.4399,104
1567620284,367.457,-11.8318,24.2218,178.879,-0.197754,88.4399,104
1567620284,367.457,-11.8318,24.2218,178.879,-0.197754,88.4399,104
1567620284,367.457,-11.8318,24.2218,178.879,-0.197754,88.4399,104
1567620284,367.457,-11.8318,24.2218,178.879,-0.197754,88.4399,104
1567620284,367.457,-11.8318,24.2218,178.879,-0.197754,88.418,104
1567620284,367.457,-11.8318,24.2218,178.879,-0.197754,88.418,104
1567620284,367.457,-11.8318,24.2218,178.879,-0.197754,88.418,104
1567620284,367.457,-11.8318,24.2218,178.879,-0.197754,88.418,104
1567620284,367.457,-11.8318,24.2218,178.879,-0.197754,88.418,104
1567620284,367.457,-11.8318,24.2218,178.879,-0.197754,88.418,104
1567620284,367.457,-11.8318,24.2218,178.879,-0.197754,88.418,104
1567620284,367.457,-11.8318,24.2218,178.879,-0.197754,88.418,104
1567620284,367.457,-11.8318,24.2218,178.879,-0.197754,88.418,104
1567620284,367.457,-11.8318,24.2218,178.879,-0.197754,88.418,104
1567620284,367.457,-11.8318,24.2218,178.879,-0.197754,88.418,104
1567620284,367.457,-11.8318,24.2218,178.879,-0.197754,88.418,104
1567620284,367.457,-11.8318,24.2218,178.879,-0.197754,88.418,104
1567620284,367.457,-11.8318,24.2218,178.879,-0.197754,88.418,104
1567620284,367.457,-11.8318,24.2218,178.879,-0.175781,88.418,104
1567620284,367.457,-11.8318,24.2218,178.879,-0.175781,88.418,104
1567620284,367.457,-11.8318,24.2218,178.879,-0.175781,88.418,104
1567620284,367.457,-11.8318,24.2218,178.879,-0.175781,88.418,104
1567620284,367.457,-11.8318,24.2218,178.879,-0.175781,88.418,104
1567620284,367.457,-11.8318,24.2218,178.879,-0.175781,88.418,104
1567620284,367.457,-11.8318,24.2218,178.879,-0.175781,88.418,104
1567620284,367.457,-11.8318,24.2218,178.879,-0.175781,88.418,104
1567620284,367.457,-11.8318,24.2218,178.879,-0.175781,88.418,104
1567620284,367.457,-11.8318,24.2218,178.879,-0.175781,88.418,104
1567620284,367.457,-11.8318,24.2218,178.879,-0.175781,88.418,104
1567620284,367.457,-11.8318,24.2218,178.879,-0.175781,88.418,104
1567620284,367.457,-11.8318,24.2218,178.879,-0.175781,88.418,104
1567620284,367.457,-11.8318,24.2218,178.879,-0.175781,88.418,104
1567620284,367.457,-11.8318,24.2218,178.879,-0.175781,88.418,104
1567620284,367.457,-11.8318,24.2218,178.879,-0.175781,88.418,104
1567620284,367.457,-11.8318,24.2218,178.879,-0.175781,88.418,104
1567620284,367.457,-11.8318,24.2218,178.879,-0.175781,88.418,104
1567620284,367.457,-11.8318,24.2218,178.879,-0.175781,88.418,104
1567620284,367.457,-11.8318,24.2218,178.879,-0.175781,88.418,104
1567620284,367.457,-11.8318,24.2218,178.879,-0.175781,88.418,104
1567620284,367.457,-11.8318,24.2218,178.879,-0.175781,88.418,104
1567620284,367.457,-11.8318,24.2218,178.879,-0.175781,88.418,104
1567620284,367.457,-11.8318,24.2218,178.879,-0.175781,88.418,104
1567620284,367.457,-11.8318,24.2218,178.879,-0.175781,88.418,104
1567620284,367.457,-11.8318,24.2218,178.879,-0.175781,88.418,104
1567620284,367.457,-11.8318,24.2218,178.879,-0.175781,88.418,104
1567620284,367.457,-11.8318,24.2218,178.879,-0.175781,88.418,104
1567620284,367.457,-11.8318,24.2218,178.879,-0.175781,88.418,104
1567620284,367.457,-11.8318,24.2218,178.879,-0.175781,88.418,104
1567620284,367.457,-11.8318,24.2218,178.879,-0.175781,88.418,104
1567620284,367.457,-11.8318,24.2218,178.879,-0.175781,88.418,104
1567620284,367.457,-11.8318,24.2218,178.879,-0.175781,88.418,104
1567620284,367.457,-11.8318,24.2218,178.879,-0.175781,88.418,104
1567620284,367.457,-11.8318,24.2218,178.879,-0.175781,88.418,104
1567620284,367.457,-11.8318,24.2218,178.879,-0.175781,88.418,104
1567620284,367.457,-11.8318,24.2218,178.879,-0.175781,88.418,104
1567620284,367.457,-11.8318,24.2218,178.879,-0.175781,88.418,104
1567620284,367.457,-11.8318,24.2218,178.879,-0.175781,88.418,104
1567620284,367.457,-11.8318,24.2218,178.879,-0.175781,88.418,104
1567620284,367.457,-11.8318,24.2218,178.879,-0.175781,88.418,104
1567620284,367.457,-11.8318,24.2218,178.879,-0.175781,88.418,104
1567620284,367.457,-11.8318,24.2218,178.879,-0.175781,88.418,104
1567620284,367.457,-11.8318,24.2218,178.879,-0.175781,88.418,104
1567620284,367.457,-11.8318,24.2218,178.879,-0.175781,88.418,104
1567620284,367.457,-11.8318,24.2218,178.879,-0.175781,88.418,104
1567620284,367.457,-11.8318,24.2218,178.879,-0.175781,88.4399,104
1567620284,367.457,-11.8318,24.2218,178.879,-0.175781,88.4399,104
1567620284,367.457,-11.8318,24.2218,178.879,-0.175781,88.4399,104
1567620284,367.457,-11.8318,24.2218,178.879,-0.175781,88.4399,104
1567620284,367.457,-11.8318,24.2218,178.879,-0.175781,88.4399,104
1567620284,367.457,-11.8318,24.2218,178.879,-0.175781,88.4399,104
1567620284,367.457,-11.8318,24.2218,178.879,-0.175781,88.4399,104
1567620284,367.457,-11.8318,24.2218,178.879,-0.175781,88.4399,104
1567620284,367.457,-11.8318,24.2218,178.879,-0.175781,88.4399,104
1567620284,367.457,-11.8318,24.2218,178.879,-0.175781,88.4399,104
1567620284,367.457,-11.8318,24.2218,178.879,-0.175781,88.4399,104
1567620291,367.457,-11.8318,24.2218,178.879,-0.197754,88.418,108
1567620291,367.457,-11.8318,24.2218,178.879,-0.197754,88.418,108
1567620291,367.457,-11.8318,24.2218,178.879,-0.197754,88.418,108
1567620291,367.457,-11.8318,24.2218,178.879,-0.197754,88.418,108
1567620291,367.457,-11.8318,24.2218,178.879,-0.197754,88.418,108
1567620291,367.457,-11.8318,24.2218,178.879,-0.197754,88.418,108
1567620291,367.457,-11.8318,24.2218,178.879,-0.197754,88.418,108
1567620291,367.457,-11.8318,24.2218,178.879,-0.197754,88.418,108
1567620291,367.457,-11.8318,24.2218,178.879,-0.197754,88.418,108
1567620291,367.457,-11.8318,24.2218,178.879,-0.197754,88.418,108
1567620291,367.457,-11.8318,24.2218,178.879,-0.197754,88.418,108
1567620291,367.457,-11.8318,24.2218,178.879,-0.197754,88.418,108
1567620291,367.457,-11.8318,24.2218,178.879,-0.197754,88.418,108
1567620291,367.457,-11.8318,24.2218,178.879,-0.197754,88.418,108
1567620291,367.457,-11.8318,24.2218,178.879,-0.197754,88.418,108
1567620291,367.457,-11.8318,24.2218,178.879,-0.197754,88.418,108
1567620291,367.457,-11.8318,24.2218,178.879,-0.197754,88.418,108
1567620291,367.457,-11.8318,24.2218,178.879,-0.197754,88.418,108
1567620291,367.457,-11.8318,24.2218,178.879,-0.197754,88.418,108
1567620291,367.457,-11.8318,24.2218,178.879,-0.197754,88.418,108
1567620291,367.457,-11.8318,24.2218,178.879,-0.197754,88.418,108
1567620291,367.457,-11.8318,24.2218,178.879,-0.197754,88.418,108
1567620291,367.457,-11.8318,24.2218,178.879,-0.197754,88.418,108
1567620291,367.457,-11.8318,24.2218,178.879,-0.197754,88.418,108
1567620291,367.457,-11.8318,24.2218,178.879,-0.197754,88.418,108
1567620291,367.457,-11.8318,24.2218,178.879,-0.197754,88.418,108
1567620291,367.457,-11.8318,24.2218,178.879,-0.197754,88.418,108
1567620291,367.457,-11.8318,24.2218,178.879,-0.197754,88.418,108
1567620291,367.457,-11.8318,24.2218,178.879,-0.197754,88.418,108
1567620291,367.457,-11.8318,24.2218,178.879,-0.197754,88.418,108
1567620291,367.457,-11.8318,24.2218,178.879,-0.197754,88.418,108
1567620291,367.457,-11.8318,24.2218,178.879,-0.197754,88.418,108
1567620291,367.457,-11.8318,24.2218,178.879,-0.197754,88.418,108
1567620291,367.457,-11.8318,24.2218,178.879,-0.197754,88.418,108
1567620291,367.457,-11.8318,24.2218,178.879,-0.197754,88.418,108
1567620291,367.457,-11.8318,24.2218,178.879,-0.197754,88.418,108
1567620291,367.457,-11.8318,24.2218,178.879,-0.197754,88.418,108
1567620291,367.457,-11.8318,24.2218,178.879,-0.197754,88.418,108
1567620291,367.457,-11.8318,24.2218,178.879,-0.197754,88.418,108
1567620291,367.457,-11.8318,24.2218,178.879,-0.197754,88.418,108
1567620291,367.457,-11.8318,24.2218,178.879,-0.197754,88.418,108
1567620291,367.457,-11.8318,24.2218,178.879,-0.197754,88.418,108
1567620291,367.457,-11.8318,24.2218,178.879,-0.197754,88.418,108
1567620291,367.457,-11.8318,24.2218,178.879,-0.197754,88.418,108
1567620291,367.457,-11.8318,24.2218,178.879,-0.197754,88.418,108
1567620291,367.457,-11.8318,24.2218,178.879,-0.197754,88.418,108
1567620291,367.457,-11.8318,24.2218,178.879,-0.197754,88.418,108
1567620291,367.457,-11.8318,24.2218,178.879,-0.197754,88.418,108
1567620291,367.457,-11.8318,24.2218,178.879,-0.197754,88.418,108
1567620291,367.457,-11.8318,24.2218,178.879,-0.197754,88.418,108
1567620291,367.457,-11.8318,24.2218,178.879,-0.197754,88.418,108
1567620291,367.457,-11.8318,24.2218,178.879,-0.197754,88.418,108
1567620291,367.457,-11.8318,24.2218,178.879,-0.197754,88.418,108
1567620291,367.457,-11.8318,24.2218,178.879,-0.197754,88.418,108
1567620291,367.457,-11.8318,24.2218,178.879,-0.197754,88.418,108
1567620291,367.457,-11.8318,24.2218,178.879,-0.197754,88.418,108
1567620291,367.457,-11.8318,24.2218,178.879,-0.197754,88.418,108
1567620291,367.457,-11.8318,24.2218,178.879,-0.197754,88.418,108
1567620291,367.457,-11.8318,24.2218,178.879,-0.197754,88.418,108
1567620291,367.457,-11.8318,24.2218,178.879,-0.197754,88.418,108
1567620291,367.457,-11.8318,24.2218,178.879,-0.197754,88.418,108
1567620291,367.457,-11.8318,24.2218,178.879,-0.197754,88.418,108
1567620291,367.457,-11.8318,24.2218,178.879,-0.197754,88.418,108
1567620291,367.457,-11.8318,24.2218,178.879,-0.197754,88.418,108
1567620291,367.457,-11.8318,24.2218,178.879,-0.197754,88.418,108
1567620291,367.457,-11.8318,24.2218,178.879,-0.197754,88.418,108
1567620291,367.457,-11.8318,24.2218,178.879,-0.197754,88.418,108
1567620291,367.457,-11.8318,24.2218,178.879,-0.197754,88.418,108
1567620291,367.457,-11.9435,24.2218,178.879,-0.197754,88.418,108
1567620291,367.457,-11.9435,24.2218,178.879,-0.197754,88.418,108
1567620291,367.457,-11.9435,24.2218,178.879,-0.197754,88.418,108
1567620291,367.457,-11.9435,24.2218,178.879,-0.197754,88.418,108
1567620291,367.457,-11.9435,24.2218,178.879,-0.197754,88.418,108
1567620291,367.457,-11.8318,24.2218,178.879,-0.197754,88.418,108
1567620292,367.457,-11.8318,24.2218,178.879,-0.197754,88.418,108
1567620292,367.457,-11.8318,24.2218,178.879,-0.197754,88.418,108
1567620292,367.457,-11.8318,24.2218,178.879,-0.197754,88.418,108
1567620292,367.457,-11.8318,24.2218,178.879,-0.197754,88.418,108
1567620292,367.457,-11.8318,24.2218,178.879,-0.197754,88.418,108
1567620292,367.457,-11.8318,24.2218,178.879,-0.197754,88.418,108
1567620292,367.457,-11.8318,24.2218,178.879,-0.197754,88.418,108
1567620292,367.457,-11.8318,24.2218,178.879,-0.197754,88.418,108
1567620292,367.457,-11.8318,24.2218,178.879,-0.197754,88.418,108
1567620292,367.457,-11.8318,24.2218,178.879,-0.197754,88.418,108
1567620292,367.457,-11.8318,24.2218,178.879,-0.197754,88.418,108
1567620292,367.457,-11.8318,24.2218,178.879,-0.197754,88.418,108
1567620292,367.457,-11.8318,24.2218,178.879,-0.197754,88.418,108
1567620292,367.457,-11.8318,24.2218,178.879,-0.197754,88.418,108
1567620292,367.457,-11.8318,24.2218,178.879,-0.197754,88.418,108
1567620292,367.457,-11.8318,24.2218,178.879,-0.197754,88.418,108
1567620292,367.457,-11.8318,24.2218,178.879,-0.197754,88.418,108
1567620292,367.457,-11.8318,24.2218,178.879,-0.197754,88.418,108
1567620292,367.457,-11.8318,24.2218,178.879,-0.197754,88.418,108
1567620292,367.457,-11.8318,24.2218,178.879,-0.197754,88.418,108
1567620292,367.457,-11.8318,24.2218,178.879,-0.197754,88.418,108
1567620292,367.457,-11.8318,24.2218,178.879,-0.197754,88.418,108
1567620292,367.457,-11.8318,24.2218,178.879,-0.197754,88.418,108
1567620292,367.457,-11.8318,24.2218,178.879,-0.197754,88.418,108
1567620292,367.457,-11.8318,24.2218,178.879,-0.197754,88.418,108
1567620292,367.457,-11.8318,24.2218,178.879,-0.197754,88.418,108
1567620292,367.457,-11.8318,24.2218,178.879,-0.197754,88.418,108
1567620292,367.457,-11.8318,24.2218,178.879,-0.197754,88.418,108
1567620292,367.457,-11.8318,24.2218,178.879,-0.197754,88.418,108
1567620292,367.457,-11.8318,24.2218,178.879,-0.197754,88.418,108
1567620292,367.457,-11.8318,24.2218,178.879,-0.197754,88.418,108
1567620292,367.457,-11.8318,24.2218,178.879,-0.197754,88.418,108
1567620292,367.457,-11.8318,24.2218,178.879,-0.197754,88.418,108
1567620292,367.457,-11.8318,24.2218,178.879,-0.197754,88.418,108
1567620292,367.457,-11.8318,24.2218,178.879,-0.197754,88.418,108
1567620292,367.457,-11.8318,24.2218,178.879,-0.197754,88.418,108
1567620292,367.457,-11.8318,24.2218,178.879,-0.197754,88.418,108
1567620292,367.457,-11.8318,24.2218,178.879,-0.197754,88.418,108
1567620292,367.457,-11.8318,24.2218,178.879,-0.197754,88.418,108
1567620292,367.457,-11.8318,24.2218,178.879,-0.197754,88.418,108
1567620292,367.457,-11.8318,24.2218,178.879,-0.197754,88.418,108
1567620292,367.457,-11.8318,24.2218,178.879,-0.197754,88.418,108
1567620292,367.457,-11.8318,24.2218,178.879,-0.197754,88.418,108
1567620292,367.457,-11.8318,24.2218,178.879,-0.197754,88.418,108
1567620292,367.457,-11.8318,24.2218,178.879,-0.197754,88.418,108
1567620292,367.457,-11.8318,24.2218,178.879,-0.197754,88.418,108
1567620292,367.457,-11.8318,24.2218,178.879,-0.197754,88.418,108
1567620292,367.457,-11.8318,24.2218,178.879,-0.197754,88.418,108
1567620292,367.457,-11.8318,24.2218,178.879,-0.197754,88.418,108
1567620292,367.457,-11.8318,24.2218,178.879,-0.197754,88.418,108
1567620292,367.457,-11.8318,24.2218,178.879,-0.197754,88.418,108
1567620292,367.457,-11.8318,24.2218,178.879,-0.197754,88.418,108
1567620292,367.457,-11.8318,24.2218,178.879,-0.197754,88.418,108
1567620292,367.457,-11.8318,24.2218,178.879,-0.197754,88.418,108
1567620292,367.457,-11.8318,24.2218,178.879,-0.197754,88.418,108
1567620292,367.457,-11.8318,24.2218,178.879,-0.197754,88.418,108
1567620292,367.457,-11.8318,24.2218,178.879,-0.197754,88.418,108
1567620292,367.457,-11.8318,24.2218,178.879,-0.197754,88.418,108
1567620292,367.457,-11.8318,24.2218,178.879,-0.197754,88.418,108
1567620292,367.457,-11.8318,24.2218,178.879,-0.197754,88.418,108
1567620292,367.457,-11.8318,24.2218,178.879,-0.197754,88.418,108
1567620292,367.457,-11.8318,24.2218,178.879,-0.197754,88.418,108
1567620292,367.457,-11.8318,24.2218,178.879,-0.197754,88.418,108
1567620292,367.457,-11.8318,24.2218,178.879,-0.197754,88.418,108
1567620292,367.457,-11.8318,24.2218,178.879,-0.197754,88.418,108
1567620292,367.457,-11.8318,24.2218,178.879,-0.197754,88.418,108
1567620292,367.457,-11.8318,24.2218,178.879,-0.197754,88.418,108
1567620292,367.457,-11.8318,24.2218,178.879,-0.197754,88.418,108
1567620292,367.457,-11.8318,24.2218,178.879,-0.197754,88.418,108
1567620292,367.457,-11.8318,24.2218,178.879,-0.197754,88.418,108
1567620292,367.457,-11.8318,24.2218,178.879,-0.197754,88.418,108
1567620292,367.457,-11.8318,24.2218,178.879,-0.197754,88.418,108
1567620292,367.457,-11.8318,24.2218,178.879,-0.197754,88.418,108
1567620292,367.457,-11.8318,24.2218,178.879,-0.197754,88.418,108
1567620292,367.457,-11.8318,24.2218,178.879,-0.197754,88.418,108
1567620292,367.457,-11.8318,24.2218,178.879,-0.197754,88.418,108
1567620292,367.457,-11.8318,24.2218,178.879,-0.197754,88.418,108
1567620292,367.457,-11.8318,24.2218,178.879,-0.197754,88.418,108
1567620292,367.457,-11.8318,24.2218,178.879,-0.197754,88.418,108
1567620292,367.457,-11.8318,24.2218,178.879,-0.197754,88.418,108
1567620292,367.457,-11.8318,24.2218,178.879,-0.197754,88.418,108
1567620292,367.457,-11.8318,24.2218,178.879,-0.197754,88.418,108
1567620292,367.457,-11.8318,24.2218,178.879,-0.197754,88.418,108
1567620292,367.457,-11.8318,24.2218,178.879,-0.197754,88.418,108
1567620292,367.457,-11.8318,24.2218,178.879,-0.197754,88.418,108
1567620292,367.457,-11.8318,24.2218,178.879,-0.197754,88.418,108
1567620292,367.457,-11.8318,24.2218,178.879,-0.197754,88.418,108
1567620292,367.457,-11.8318,24.2218,178.879,-0.197754,88.418,108
1567620292,367.457,-11.8318,24.2218,178.879,-0.197754,88.418,108
1567620292,367.457,-11.8318,24.2218,178.879,-0.197754,88.418,108
1567620292,367.457,-11.8318,24.2218,178.879,-0.197754,88.418,108
1567620292,367.457,-11.8318,24.2218,178.879,-0.197754,88.418,108
1567620292,367.457,-11.8318,24.2218,178.879,-0.197754,88.418,108
1567620292,367.457,-11.8318,24.2218,178.879,-0.197754,88.418,108
1567620292,367.457,-11.8318,24.2218,178.879,-0.197754,88.418,108
1567620292,367.457,-11.8318,24.2218,178.879,-0.197754,88.418,108
1567620292,367.457,-11.8318,24.2218,178.879,-0.197754,88.418,108
1567620292,367.457,-11.8318,24.2218,178.879,-0.197754,88.418,108
1567620292,367.457,-11.8318,24.2218,178.879,-0.197754,88.418,108
1567620292,367.457,-11.8318,24.2218,178.879,-0.197754,88.418,108
1567620293,367.457,-11.8318,24.2218,178.879,-0.197754,88.418,108
1567620293,367.457,-11.8318,24.2218,178.879,-0.197754,88.418,108
1567620293,367.457,-11.8318,24.2218,178.879,-0.197754,88.418,108
1567620293,367.457,-11.8318,24.2218,178.879,-0.197754,88.418,108
1567620293,367.457,-11.8318,24.2218,178.879,-0.197754,88.418,108
1567620293,367.457,-11.8318,24.2218,178.879,-0.197754,88.418,104
1567620293,367.457,-11.8318,24.2218,178.879,-0.197754,88.418,104
1567620293,367.457,-11.8318,24.2218,178.879,-0.197754,88.418,104
1567620293,367.457,-11.8318,24.2218,178.879,-0.197754,88.418,104
1567620293,367.457,-11.8318,24.2218,178.879,-0.197754,88.418,104
1567620293,367.457,-11.8318,24.2218,178.879,-0.197754,88.418,104
1567620293,367.457,-11.8318,24.2218,178.879,-0.197754,88.418,104
1567620293,367.457,-11.8318,24.2218,178.879,-0.197754,88.418,104
1567620293,367.457,-11.8318,24.2218,178.879,-0.197754,88.418,104
1567620293,367.457,-11.8318,24.2218,178.879,-0.197754,88.418,104
1567620293,367.457,-11.8318,24.2218,178.879,-0.197754,88.418,104
1567620293,367.457,-11.8318,24.2218,178.879,-0.197754,88.418,104
1567620293,367.457,-11.8318,24.2218,178.879,-0.197754,88.418,104
1567620293,367.457,-11.8318,24.2218,178.879,-0.197754,88.418,104
1567620293,367.457,-11.8318,24.2218,178.879,-0.197754,88.418,104
1567620293,367.457,-11.8318,24.2218,178.879,-0.197754,88.418,104
1567620293,367.457,-11.8318,24.2218,178.879,-0.197754,88.418,104
1567620293,367.457,-11.8318,24.2218,178.879,-0.197754,88.418,104
1567620293,367.457,-11.8318,24.2218,178.879,-0.197754,88.418,104
1567620293,367.457,-11.8318,24.2218,178.879,-0.197754,88.418,104
1567620293,367.457,-11.8318,24.2218,178.879,-0.197754,88.418,104
1567620293,367.457,-11.8318,24.2218,178.879,-0.197754,88.418,104
1567620293,367.457,-11.8318,24.2218,178.879,-0.197754,88.418,104
1567620293,367.457,-11.8318,24.2218,178.879,-0.197754,88.418,104
1567620293,367.457,-11.8318,24.2218,178.879,-0.197754,88.418,104
1567620293,367.457,-11.8318,24.2218,178.879,-0.197754,88.418,104
1567620293,367.457,-11.8318,24.2218,178.879,-0.197754,88.418,108
1567620293,367.457,-11.8318,24.2218,178.879,-0.197754,88.418,108
1567620293,367.457,-11.8318,24.2218,178.879,-0.197754,88.418,108
1567620293,367.457,-11.9435,24.2218,178.879,-0.197754,88.418,108
1567620293,367.457,-11.9435,24.2218,178.879,-0.197754,88.418,108
1567620293,367.457,-11.9435,24.2218,178.879,-0.197754,88.418,108
1567620293,367.457,-11.9435,24.2218,178.879,-0.197754,88.418,108
1567620293,367.457,-11.9435,24.2218,178.879,-0.197754,88.418,108
1567620293,367.457,-11.9435,24.2218,178.879,-0.197754,88.418,108
1567620293,367.457,-11.9435,24.2218,178.879,-0.197754,88.418,108
1567620293,367.457,-11.9435,24.2218,178.879,-0.197754,88.418,108
1567620293,367.457,-11.8318,24.2218,178.879,-0.197754,88.418,108
1567620293,367.457,-11.8318,24.2218,178.879,-0.197754,88.418,108
1567620293,367.457,-11.8318,24.2218,178.879,-0.197754,88.418,108
1567620293,367.457,-11.8318,24.2218,178.879,-0.197754,88.418,108
1567620293,367.457,-11.8318,24.2218,178.879,-0.197754,88.418,108
1567620293,367.457,-11.9435,24.2218,178.879,-0.197754,88.418,108
1567620293,367.457,-11.9435,24.2218,178.879,-0.197754,88.418,108
1567620293,367.457,-11.9435,24.2218,178.879,-0.197754,88.418,108
1567620293,367.457,-11.9435,24.2218,178.879,-0.197754,88.418,108
1567620293,367.457,-11.9435,24.2218,178.879,-0.197754,88.418,108
1567620293,367.457,-11.9435,24.2218,178.879,-0.197754,88.418,108
1567620293,367.457,-11.9435,24.2218,178.879,-0.197754,88.418,108
1567620293,367.457,-11.9435,24.2218,178.879,-0.197754,88.418,108
1567620293,367.457,-11.9435,24.2218,178.879,-0.197754,88.418,108
1567620293,367.457,-11.9435,24.2218,178.879,-0.197754,88.418,108
1567620293,367.457,-11.9435,24.2218,178.879,-0.197754,88.418,108
1567620293,367.457,-11.9435,24.2218,178.879,-0.197754,88.418,108
1567620293,367.457,-11.9435,24.2218,178.879,-0.197754,88.418,108
1567620293,367.457,-11.9435,24.2218,178.879,-0.197754,88.418,108
1567620293,367.457,-11.9435,24.2218,178.879,-0.197754,88.418,108
1567620293,367.457,-11.9435,24.2218,178.879,-0.197754,88.418,108
1567620293,367.457,-11.9435,24.2218,178.879,-0.197754,88.418,108
1567620293,367.457,-11.8318,24.2218,178.879,-0.197754,88.418,108
1567620293,367.457,-11.8318,24.2218,178.879,-0.197754,88.418,108
1567620293,367.457,-11.8318,24.2218,178.879,-0.197754,88.418,108
1567620293,367.457,-11.8318,24.2218,178.879,-0.197754,88.418,108
1567620293,367.457,-11.8318,24.2218,178.879,-0.197754,88.418,108
1567620293,367.457,-11.8318,24.2218,178.879,-0.197754,88.418,108
1567620293,367.457,-11.8318,24.2218,178.879,-0.197754,88.418,108
1567620293,367.457,-11.8318,24.2218,178.879,-0.197754,88.418,108
1567620293,367.457,-11.8318,24.2218,178.879,-0.197754,88.418,108
1567620293,367.457,-11.8318,24.2218,178.879,-0.197754,88.418,108
1567620293,367.457,-11.8318,24.2218,178.879,-0.197754,88.418,108
1567620293,367.457,-11.8318,24.2218,178.879,-0.197754,88.418,108
1567620293,367.457,-11.8318,24.2218,178.879,-0.197754,88.418,108
1567620293,367.457,-11.8318,24.2218,178.879,-0.197754,88.418,108
1567620293,367.457,-11.8318,24.2218,178.879,-0.197754,88.418,108
1567620293,367.457,-11.8318,24.2218,178.879,-0.197754,88.418,108
1567620293,367.457,-11.8318,24.2218,178.879,-0.197754,88.418,108
1567620293,367.457,-11.8318,24.2218,178.879,-0.197754,88.418,108
1567620293,367.457,-11.8318,24.2218,178.879,-0.197754,88.418,108
1567620293,367.457,-11.8318,24.2218,178.879,-0.197754,88.418,108
1567620293,367.457,-11.8318,24.2218,178.879,-0.197754,88.418,108
1567620293,367.457,-11.8318,24.2218,178.879,-0.197754,88.418,108
1567620293,367.457,-11.8318,24.2218,178.879,-0.197754,88.418,108
1567620293,367.457,-11.8318,24.2218,178.879,-0.197754,88.418,108
1567620293,367.457,-11.8318,24.2218,178.879,-0.197754,88.418,108
1567620293,367.457,-11.8318,24.2218,178.879,-0.197754,88.418,108
1567620293,367.457,-11.8318,24.2218,178.879,-0.197754,88.418,108
1567620293,367.457,-11.8318,24.2218,178.879,-0.197754,88.418,108
1567620293,367.457,-11.8318,24.2218,178.879,-0.197754,88.418,108
1567620293,367.457,-11.8318,24.2218,178.879,-0.197754,88.418,108
1567620293,367.457,-11.8318,24.2218,178.879,-0.197754,88.418,108
1567620293,367.457,-11.8318,24.2218,178.879,-0.197754,88.418,108
1567620293,367.457,-11.8318,24.2218,178.879,-0.197754,88.418,108
1567620293,367.457,-11.8318,24.2218,178.879,-0.197754,88.418,108
1567620293,367.457,-11.8318,24.2218,178.879,-0.197754,88.418,108
1567620293,367.457,-11.8318,24.2218,178.879,-0.197754,88.418,108
1567620293,367.457,-11.8318,24.2218,178.879,-0.197754,88.418,108
1567620294,367.457,-11.8318,24.2218,178.879,-0.197754,88.418,108
1567620294,367.457,-11.8318,24.2218,178.879,-0.197754,88.418,108
1567620294,367.457,-11.8318,24.2218,178.879,-0.197754,88.418,108
1567620294,367.457,-11.8318,24.2218,178.879,-0.197754,88.418,108
1567620294,367.457,-11.8318,24.2218,178.879,-0.197754,88.418,108
1567620294,367.457,-11.8318,24.2218,178.879,-0.197754,88.418,108
1567620294,367.457,-11.8318,24.2218,178.879,-0.197754,88.418,104
1567620294,367.457,-11.8318,24.2218,178.879,-0.197754,88.418,104
1567620294,367.457,-11.8318,24.2218,178.879,-0.197754,88.418,104
1567620294,367.457,-11.8318,24.2218,178.879,-0.197754,88.418,104
1567620294,367.457,-11.8318,24.2218,178.879,-0.197754,88.418,104
1567620294,367.457,-11.8318,24.2218,178.879,-0.197754,88.418,104
1567620294,367.457,-11.8318,24.2218,178.879,-0.197754,88.418,104
1567620294,367.457,-11.8318,24.2218,178.879,-0.197754,88.418,104
1567620294,367.457,-11.8318,24.2218,178.879,-0.197754,88.418,104
1567620294,367.457,-11.8318,24.2218,178.879,-0.197754,88.418,104
1567620294,367.457,-11.8318,24.2218,178.879,-0.197754,88.418,104
1567620294,367.457,-11.8318,24.2218,178.879,-0.197754,88.418,104
1567620294,367.457,-11.8318,24.2218,178.879,-0.197754,88.418,104
1567620294,367.457,-11.8318,24.2218,178.879,-0.197754,88.418,104
1567620294,367.457,-11.8318,24.2218,178.879,-0.197754,88.418,104
1567620294,367.457,-11.8318,24.2218,178.879,-0.197754,88.418,104
1567620294,367.457,-11.8318,24.2218,178.879,-0.197754,88.418,108
1567620294,367.457,-11.8318,24.2218,178.879,-0.197754,88.418,108
1567620294,367.457,-11.8318,24.2218,178.879,-0.197754,88.418,108
1567620294,367.457,-11.8318,24.2218,178.879,-0.197754,88.418,108
1567620294,367.457,-11.8318,24.2218,178.879,-0.197754,88.418,108
1567620294,367.457,-11.8318,24.2218,178.879,-0.197754,88.418,108
1567620294,367.457,-11.8318,24.2218,178.879,-0.197754,88.418,108
1567620294,367.457,-11.8318,24.2218,178.879,-0.197754,88.418,108
1567620294,367.457,-11.8318,24.2218,178.879,-0.197754,88.418,108
1567620294,367.457,-11.8318,24.2218,178.879,-0.197754,88.418,108
1567620294,367.457,-11.8318,24.2218,178.879,-0.197754,88.418,108
1567620294,367.457,-11.8318,24.2218,178.879,-0.197754,88.418,108
1567620294,367.457,-11.8318,24.2218,178.879,-0.197754,88.418,108
1567620294,367.457,-11.8318,24.2218,178.879,-0.197754,88.418,108
1567620294,367.457,-11.8318,24.2218,178.879,-0.197754,88.418,108
1567620294,367.457,-11.8318,24.2218,178.879,-0.197754,88.418,108
1567620294,367.457,-11.8318,24.2218,178.879,-0.197754,88.418,108
1567620294,367.457,-11.8318,24.2218,178.879,-0.197754,88.418,108
1567620294,367.457,-11.8318,24.2218,178.879,-0.197754,88.418,108
1567620294,367.457,-11.8318,24.2218,178.879,-0.197754,88.418,108
1567620294,367.457,-11.8318,24.2218,178.879,-0.197754,88.418,108
1567620294,367.457,-11.8318,24.2218,178.879,-0.197754,88.418,108
1567620294,367.457,-11.8318,24.2218,178.879,-0.197754,88.418,108
1567620294,367.457,-11.8318,24.2218,178.879,-0.197754,88.418,108
1567620294,367.457,-11.8318,24.2218,178.879,-0.197754,88.418,108
1567620294,367.457,-11.8318,24.2218,178.879,-0.197754,88.418,108
1567620294,367.457,-11.8318,24.2218,178.879,-0.197754,88.418,108
1567620294,367.457,-11.8318,24.2218,178.879,-0.197754,88.418,108
1567620294,367.457,-11.8318,24.2218,178.879,-0.197754,88.418,108
1567620294,367.457,-11.8318,24.2218,178.879,-0.197754,88.418,108
1567620294,367.457,-11.8318,24.2218,178.879,-0.197754,88.418,108
1567620294,367.457,-11.8318,24.2218,178.879,-0.197754,88.418,108
1567620294,367.457,-11.8318,24.2218,178.879,-0.197754,88.418,108
1567620294,367.457,-11.8318,24.2218,178.879,-0.197754,88.418,108
1567620294,367.457,-11.8318,24.2218,178.879,-0.197754,88.418,108
1567620294,367.457,-11.8318,24.2218,178.879,-0.197754,88.418,108
1567620294,367.457,-11.8318,24.2218,178.879,-0.197754,88.418,108
1567620294,367.457,-11.8318,24.2218,178.879,-0.197754,88.418,108
1567620294,367.457,-11.8318,24.2218,178.879,-0.197754,88.418,104
1567620294,367.457,-11.8318,24.2218,178.879,-0.197754,88.418,104
1567620294,367.457,-11.8318,24.2218,178.879,-0.197754,88.418,104
1567620294,367.457,-11.8318,24.2218,178.879,-0.197754,88.418,104
1567620294,367.457,-11.8318,24.2218,178.879,-0.197754,88.418,104
1567620294,367.457,-11.8318,24.2218,178.879,-0.197754,88.418,104
1567620294,367.457,-11.8318,24.2218,178.879,-0.197754,88.418,104
1567620294,367.457,-11.8318,24.2218,178.879,-0.197754,88.418,104
1567620294,367.457,-11.8318,24.2218,178.879,-0.197754,88.418,104
1567620294,367.457,-11.8318,24.2218,178.879,-0.197754,88.418,104
1567620294,367.457,-11.8318,24.2218,178.879,-0.197754,88.418,104
1567620294,367.457,-11.8318,24.2218,178.879,-0.197754,88.418,104
1567620294,367.457,-11.8318,24.2218,178.879,-0.197754,88.418,104
1567620294,367.457,-11.8318,24.2218,178.879,-0.197754,88.418,104
1567620294,367.457,-11.8318,24.2218,178.879,-0.197754,88.418,104
1567620294,367.457,-11.8318,24.2218,178.879,-0.197754,88.418,104
1567620294,367.457,-11.8318,24.2218,178.879,-0.197754,88.418,104
1567620294,367.457,-11.8318,24.2218,178.879,-0.197754,88.418,104
1567620294,367.457,-11.8318,24.2218,178.879,-0.197754,88.418,104
1567620294,367.457,-11.8318,24.2218,178.879,-0.197754,88.418,104
1567620294,367.457,-11.8318,24.2218,178.879,-0.197754,88.418,104
1567620294,367.457,-11.8318,24.2218,178.879,-0.197754,88.418,104
1567620294,367.457,-11.8318,24.2218,178.879,-0.197754,88.418,104
1567620294,367.457,-11.8318,24.2218,178.879,-0.197754,88.418,108
1567620294,367.457,-11.8318,24.2218,178.879,-0.197754,88.418,108
1567620294,367.457,-11.8318,24.2218,178.879,-0.197754,88.418,108
1567620294,367.457,-11.8318,24.2218,178.879,-0.197754,88.418,108
1567620294,367.457,-11.8318,24.2218,178.879,-0.197754,88.418,108
1567620294,367.457,-11.8318,24.2218,178.879,-0.197754,88.418,108
1567620294,367.457,-11.8318,24.2218,178.879,-0.197754,88.418,108
1567620294,367.457,-11.8318,24.2218,178.879,-0.197754,88.418,108
1567620294,367.457,-11.8318,24.2218,178.879,-0.197754,88.418,108
1567620294,367.457,-11.8318,24.2218,178.879,-0.197754,88.418,108
1567620294,367.457,-11.8318,24.2218,178.879,-0.197754,88.418,108
1567620294,367.457,-11.8318,24.2218,178.879,-0.197754,88.418,108
1567620294,367.457,-11.8318,24.2218,178.879,-0.197754,88.418,108
1567620294,367.457,-11.8318,24.2218,178.879,-0.197754,88.418,108
1567620294,367.457,-11.8318,24.2218,178.879,-0.197754,88.418,108
1567620294,367.457,-11.8318,24.2218,178.879,-0.197754,88.418,108
1567620294,367.457,-11.8318,24.2218,178.879,-0.197754,88.418,108
1567620295,367.457,-11.8318,24.2218,178.879,-0.197754,88.418,108
1567620295,367.457,-11.8318,24.2218,178.879,-0.197754,88.418,108
1567620295,367.457,-11.8318,24.2218,178.879,-0.197754,88.418,108
1567620295,367.457,-11.8318,24.2218,178.879,-0.197754,88.418,108
1567620295,367.457,-11.8318,24.2218,178.879,-0.197754,88.418,108
1567620295,367.457,-11.8318,24.2218,178.879,-0.197754,88.418,108
1567620295,367.457,-11.8318,24.2218,178.879,-0.197754,88.418,108
1567620295,367.457,-11.8318,24.2218,178.879,-0.197754,88.418,108
1567620295,367.457,-11.8318,24.2218,178.879,-0.197754,88.418,108
1567620295,367.457,-11.8318,24.2218,178.879,-0.197754,88.418,108
1567620295,367.457,-11.8318,24.2218,178.879,-0.197754,88.418,108
1567620295,367.457,-11.8318,24.2218,178.879,-0.197754,88.418,108
1567620295,367.457,-11.8318,24.2218,178.879,-0.197754,88.418,108
1567620295,367.457,-11.8318,24.2218,178.879,-0.197754,88.418,108
1567620295,367.457,-11.8318,24.2218,178.879,-0.197754,88.418,108
1567620295,367.457,-11.8318,24.2218,178.879,-0.197754,88.418,108
1567620295,367.457,-11.8318,24.2218,178.879,-0.197754,88.418,108
1567620295,367.457,-11.8318,24.2218,178.879,-0.197754,88.418,108
1567620295,367.457,-11.8318,24.2218,178.879,-0.197754,88.418,108
1567620295,367.457,-11.8318,24.2218,178.879,-0.197754,88.418,108
1567620295,367.457,-11.8318,24.2218,178.879,-0.197754,88.418,108
1567620295,367.457,-11.8318,24.2218,178.879,-0.197754,88.418,108
1567620295,367.457,-11.8318,24.2218,178.879,-0.197754,88.418,108
1567620295,367.457,-11.8318,24.2218,178.879,-0.197754,88.418,108
1567620295,367.457,-11.8318,24.2218,178.879,-0.197754,88.418,108
1567620295,367.457,-11.8318,24.2218,178.879,-0.197754,88.418,108
1567620295,367.457,-11.8318,24.2218,178.879,-0.197754,88.418,108
1567620295,367.457,-11.8318,24.2218,178.879,-0.197754,88.418,108
1567620295,367.457,-11.8318,24.2218,178.879,-0.197754,88.418,108
1567620295,367.457,-11.8318,24.2218,178.879,-0.197754,88.418,108
1567620295,367.457,-11.8318,24.2218,178.879,-0.197754,88.418,108
1567620295,367.457,-11.8318,24.2218,178.879,-0.197754,88.418,108
1567620295,367.457,-11.8318,24.2218,178.879,-0.197754,88.418,108
1567620295,367.457,-11.8318,24.2218,178.879,-0.197754,88.418,108
1567620295,367.457,-11.8318,24.2218,178.879,-0.197754,88.418,108
1567620295,367.457,-11.8318,24.2218,178.879,-0.197754,88.418,104
1567620295,367.457,-11.8318,24.2218,178.879,-0.197754,88.418,104
1567620295,367.457,-11.8318,24.2218,178.879,-0.197754,88.418,104
1567620295,367.457,-11.8318,24.2218,178.879,-0.197754,88.418,104
1567620295,367.457,-11.8318,24.2218,178.879,-0.197754,88.418,104
1567620295,367.457,-11.8318,24.2218,178.879,-0.197754,88.418,104
1567620295,367.457,-11.8318,24.2218,178.879,-0.197754,88.418,104
1567620295,367.457,-11.8318,24.2218,178.879,-0.197754,88.418,104
1567620295,367.457,-11.8318,24.2218,178.879,-0.197754,88.418,104
1567620295,367.457,-11.8318,24.2218,178.879,-0.197754,88.418,108
1567620295,367.457,-11.8318,24.2218,178.879,-0.197754,88.418,108
1567620295,367.457,-11.8318,24.2218,178.879,-0.197754,88.418,108
1567620295,367.457,-11.8318,24.2218,178.879,-0.197754,88.418,108
1567620295,367.457,-11.8318,24.2218,178.879,-0.197754,88.418,108
1567620295,367.457,-11.8318,24.2218,178.879,-0.197754,88.418,108
1567620295,367.457,-11.8318,24.2218,178.879,-0.197754,88.418,108
1567620295,367.457,-11.8318,24.2218,178.879,-0.197754,88.418,108
1567620295,367.457,-11.8318,24.2218,178.879,-0.197754,88.418,108
1567620295,367.457,-11.8318,24.2218,178.879,-0.197754,88.418,108
1567620295,367.457,-11.8318,24.2218,178.879,-0.197754,88.418,108
1567620295,367.457,-11.8318,24.2218,178.879,-0.197754,88.418,108
1567620295,367.457,-11.8318,24.2218,178.879,-0.197754,88.418,108
1567620295,367.457,-11.9435,24.2218,178.879,-0.197754,88.418,108
1567620295,367.457,-11.9435,24.2218,178.879,-0.197754,88.418,108
1567620295,367.457,-11.9435,24.2218,178.879,-0.197754,88.418,108
1567620295,367.457,-11.9435,24.2218,178.879,-0.197754,88.418,108
1567620295,367.457,-11.9435,24.2218,178.879,-0.197754,88.418,108
1567620295,367.457,-11.9435,24.2218,178.879,-0.197754,88.418,108
1567620295,367.457,-11.9435,24.2218,178.879,-0.197754,88.418,108
1567620295,367.457,-11.9435,24.2218,178.879,-0.197754,88.418,108
1567620295,367.457,-11.9435,24.2218,178.879,-0.197754,88.418,108
1567620295,367.457,-11.9435,24.2218,178.879,-0.197754,88.418,108
1567620295,367.457,-11.8318,24.2218,178.879,-0.197754,88.418,108
1567620295,367.457,-11.8318,24.2218,178.879,-0.197754,88.418,108
1567620295,367.457,-11.8318,24.2218,178.879,-0.197754,88.418,108
1567620295,367.457,-11.8318,24.2218,178.879,-0.197754,88.418,108
1567620295,367.457,-11.8318,24.2218,178.879,-0.197754,88.418,108
1567620295,367.457,-11.8318,24.2218,178.879,-0.197754,88.418,108
1567620295,367.457,-11.8318,24.2218,178.879,-0.197754,88.418,108
1567620295,367.457,-11.8318,24.2218,178.879,-0.197754,88.418,108
1567620295,367.457,-11.8318,24.2218,178.879,-0.197754,88.418,108
1567620295,367.457,-11.8318,24.2218,178.879,-0.197754,88.418,108
1567620295,367.457,-11.8318,24.2218,178.879,-0.197754,88.418,108
1567620295,367.457,-11.8318,24.2218,178.879,-0.197754,88.418,108
1567620295,367.457,-11.8318,24.2218,178.879,-0.197754,88.418,108
1567620295,367.457,-11.8318,24.2218,178.879,-0.197754,88.418,108
1567620295,367.457,-11.8318,24.2218,178.879,-0.197754,88.418,108
1567620295,367.457,-11.8318,24.2218,178.879,-0.197754,88.418,108
1567620295,367.457,-11.8318,24.2218,178.879,-0.197754,88.418,108
1567620295,367.457,-11.8318,24.2218,178.879,-0.197754,88.418,108
1567620295,367.457,-11.8318,24.2218,178.879,-0.197754,88.418,108
1567620295,367.457,-11.8318,24.2218,178.879,-0.197754,88.418,108
1567620295,367.457,-11.8318,24.2218,178.879,-0.197754,88.418,108
1567620295,367.457,-11.8318,24.2218,178.879,-0.197754,88.418,108
1567620295,367.457,-11.8318,24.2218,178.879,-0.197754,88.418,108
1567620295,367.457,-11.8318,24.2218,178.879,-0.197754,88.418,108
1567620295,367.457,-11.8318,24.2218,178.879,-0.197754,88.418,108
1567620295,367.457,-11.8318,24.2218,178.879,-0.197754,88.418,108
1567620295,367.457,-11.8318,24.2218,178.879,-0.197754,88.418,108
1567620295,367.457,-11.8318,24.2218,178.879,-0.197754,88.418,108
1567620295,367.457,-11.8318,24.2218,178.879,-0.197754,88.418,108
1567620295,367.457,-11.8318,24.2218,178.879,-0.197754,88.418,108
1567620295,367.457,-11.8318,24.2218,178.879,-0.197754,88.418,108
1567620295,367.457,-11.8318,24.2218,178.879,-0.197754,88.418,108
1567620295,367.457,-11.8318,24.2218,178.879,-0.197754,88.418,108
1567620296,367.457,-11.8318,24.2218,178.879,-0.197754,88.418,108
1567620296,367.457,-11.8318,24.2218,178.879,-0.197754,88.418,108
1567620296,367.457,-11.8318,24.2218,178.879,-0.197754,88.418,108
1567620296,367.457,-11.8318,24.2218,178.879,-0.197754,88.418,108
1567620296,367.457,-11.8318,24.2218,178.879,-0.197754,88.418,108
1567620296,367.457,-11.8318,24.2218,178.879,-0.197754,88.418,108
1567620296,367.457,-11.8318,24.2218,178.879,-0.197754,88.418,108
1567620296,367.457,-11.8318,24.2218,178.879,-0.197754,88.418,108
1567620296,367.457,-11.8318,24.2218,178.879,-0.197754,88.418,108
1567620296,367.457,-11.8318,24.2218,178.879,-0.197754,88.418,108
1567620296,367.457,-11.8318,24.2218,178.879,-0.197754,88.418,108
1567620296,367.457,-11.8318,24.2218,178.879,-0.197754,88.418,108
1567620296,367.457,-11.8318,24.2218,178.879,-0.197754,88.418,108
1567620296,367.457,-11.8318,24.2218,178.879,-0.197754,88.418,108
1567620296,367.457,-11.8318,24.2218,178.879,-0.197754,88.418,108
1567620296,367.457,-11.8318,24.2218,178.879,-0.197754,88.418,108
1567620296,367.457,-11.8318,24.2218,178.879,-0.197754,88.418,108
1567620296,367.457,-11.8318,24.2218,178.879,-0.197754,88.418,108
1567620296,367.457,-11.8318,24.2218,178.879,-0.197754,88.418,108
1567620296,367.457,-11.8318,24.2218,178.879,-0.197754,88.418,108
1567620296,367.457,-11.8318,24.2218,178.879,-0.197754,88.418,108
1567620296,367.457,-11.8318,24.2218,178.879,-0.197754,88.418,108
1567620296,367.457,-11.8318,24.2218,178.879,-0.197754,88.418,108
1567620296,367.457,-11.8318,24.2218,178.879,-0.197754,88.418,108
1567620296,367.457,-11.8318,24.2218,178.879,-0.197754,88.418,108
1567620303,367.457,-11.8318,24.2218,178.879,-0.131836,88.3521,108
1567620303,367.457,-11.8318,24.2218,178.879,-0.131836,88.3521,108
1567620303,367.457,-11.8318,24.2218,178.879,-0.131836,88.3521,108
1567620303,367.457,-11.8318,24.2218,178.879,-0.131836,88.3521,108
1567620303,367.457,-11.8318,24.2218,178.879,-0.131836,88.3521,108
1567620303,367.457,-11.8318,24.2218,178.879,-0.131836,88.3521,108
1567620303,367.457,-11.8318,24.2218,178.879,-0.131836,88.3521,108
1567620303,367.457,-11.8318,24.2218,178.879,-0.131836,88.3521,108
1567620303,367.457,-11.8318,24.2218,178.879,-0.131836,88.3521,108
1567620303,367.457,-11.8318,24.2218,178.879,-0.131836,88.3521,108
1567620303,367.457,-11.8318,24.2218,178.879,-0.131836,88.3521,108
1567620303,367.457,-11.8318,24.2218,178.879,-0.131836,88.3521,108
1567620303,367.457,-11.8318,24.2218,178.879,-0.131836,88.3521,108
1567620303,367.457,-11.8318,24.2218,178.879,-0.131836,88.3521,108
1567620303,367.457,-11.8318,24.2218,178.879,-0.131836,88.3521,108
1567620303,367.457,-11.8318,24.2218,178.879,-0.131836,88.3521,108
1567620303,367.568,-11.8318,24.2218,178.879,-0.131836,88.3521,108
1567620303,367.568,-11.8318,24.2218,178.879,-0.131836,88.3521,108
1567620303,367.568,-11.8318,24.2218,178.879,-0.131836,88.3521,108
1567620303,367.568,-11.8318,24.2218,178.879,-0.131836,88.3521,108
1567620303,367.568,-11.8318,24.2218,178.879,-0.131836,88.3521,108
1567620303,367.568,-11.8318,24.2218,178.879,-0.131836,88.3521,108
1567620303,367.568,-11.8318,24.2218,178.879,-0.131836,88.3521,108
1567620303,367.568,-11.8318,24.2218,178.879,-0.131836,88.3521,108
1567620303,367.568,-11.8318,24.2218,178.879,-0.131836,88.3521,104
1567620303,367.568,-11.8318,24.2218,178.879,-0.131836,88.3521,104
1567620303,367.568,-11.8318,24.2218,178.879,-0.131836,88.3521,104
1567620303,367.568,-11.8318,24.2218,178.879,-0.131836,88.3521,104
1567620303,367.568,-11.8318,24.2218,178.879,-0.131836,88.3521,104
1567620303,367.568,-11.8318,24.2218,178.879,-0.131836,88.3521,104
1567620303,367.568,-11.8318,24.2218,178.879,-0.131836,88.3521,104
1567620303,367.568,-11.8318,24.2218,178.879,-0.131836,88.3521,104
1567620303,367.568,-11.8318,24.2218,178.879,-0.131836,88.3521,104
1567620303,367.568,-11.8318,24.2218,178.879,-0.131836,88.3521,104
1567620303,367.568,-11.8318,24.2218,178.879,-0.131836,88.3521,104
1567620303,367.568,-11.8318,24.2218,178.879,-0.131836,88.3521,104
1567620303,367.568,-11.8318,24.2218,178.879,-0.131836,88.3521,104
1567620303,367.568,-11.8318,24.2218,178.879,-0.131836,88.3521,104
1567620303,367.568,-11.8318,24.2218,178.879,-0.131836,88.3521,104
1567620303,367.568,-11.8318,24.2218,178.879,-0.131836,88.3521,104
1567620303,367.568,-11.8318,24.2218,178.879,-0.131836,88.3521,104
1567620303,367.568,-11.8318,24.2218,178.879,-0.131836,88.3521,104
1567620303,367.568,-11.8318,24.2218,178.879,-0.131836,88.3521,104
1567620303,367.568,-11.8318,24.2218,178.879,-0.131836,88.3521,104
1567620303,367.568,-11.8318,24.2218,178.879,-0.131836,88.3521,104
1567620303,367.568,-11.8318,24.2218,178.879,-0.131836,88.3521,104
1567620303,367.568,-11.8318,24.2218,178.879,-0.131836,88.3521,104
1567620303,367.568,-11.8318,24.2218,178.879,-0.131836,88.3521,104
1567620303,367.568,-11.8318,24.2218,178.879,-0.131836,88.3521,104
1567620303,367.568,-11.8318,24.2218,178.879,-0.131836,88.3521,104
1567620303,367.568,-11.8318,24.2218,178.879,-0.131836,88.3521,104
1567620303,367.568,-11.8318,24.2218,178.879,-0.131836,88.3521,104
1567620303,367.457,-11.8318,24.2218,178.879,-0.131836,88.3521,104
1567620303,367.457,-11.8318,24.2218,178.879,-0.131836,88.3521,108
1567620303,367.457,-11.8318,24.2218,178.879,-0.131836,88.3521,108
1567620303,367.457,-11.8318,24.2218,178.879,-0.131836,88.3521,108
1567620303,367.457,-11.8318,24.2218,178.879,-0.131836,88.3521,108
1567620303,367.457,-11.8318,24.2218,178.879,-0.131836,88.3521,108
1567620303,367.457,-11.8318,24.2218,178.879,-0.131836,88.3521,108
1567620303,367.457,-11.8318,24.2218,178.879,-0.131836,88.3521,108
1567620303,367.457,-11.8318,24.2218,178.879,-0.131836,88.3521,108
1567620303,367.457,-11.8318,24.2218,178.879,-0.131836,88.3521,108
1567620303,367.457,-11.8318,24.2218,178.879,-0.131836,88.3521,108
1567620304,367.457,-11.8318,24.2218,178.879,-0.131836,88.3521,108
1567620304,367.457,-11.8318,24.2218,178.879,-0.131836,88.3521,108
1567620304,367.457,-11.8318,24.2218,178.879,-0.131836,88.3521,108
1567620304,367.457,-11.8318,24.2218,178.879,-0.131836,88.3521,108
1567620304,367.457,-11.8318,24.2218,178.879,-0.131836,88.3521,108
1567620304,367.457,-11.8318,24.2218,178.879,-0.131836,88.3521,108
1567620304,367.457,-11.8318,24.2218,178.879,-0.131836,88.3521,108
1567620304,367.457,-11.8318,24.2218,178.879,-0.131836,88.3521,108
1567620304,367.568,-11.8318,24.2218,178.879,-0.131836,88.3521,108
1567620304,367.568,-11.8318,24.2218,178.879,-0.131836,88.3521,108
1567620304,367.568,-11.8318,24.2218,178.879,-0.131836,88.3521,108
1567620304,367.568,-11.8318,24.2218,178.879,-0.131836,88.3521,108
1567620304,367.568,-11.8318,24.2218,178.879,-0.131836,88.3521,108
1567620304,367.568,-11.8318,24.2218,178.879,-0.131836,88.3521,108
1567620304,367.568,-11.8318,24.2218,178.879,-0.131836,88.3521,108
1567620304,367.568,-11.8318,24.2218,178.879,-0.131836,88.3521,108
1567620304,367.568,-11.8318,24.2218,178.879,-0.131836,88.3521,108
1567620304,367.568,-11.8318,24.2218,178.879,-0.131836,88.3521,108
1567620304,367.568,-11.8318,24.2218,178.879,-0.131836,88.3521,108
1567620304,367.568,-11.8318,24.2218,178.879,-0.131836,88.3521,108
1567620304,367.568,-11.8318,24.2218,178.879,-0.131836,88.3521,108
1567620304,367.568,-11.8318,24.2218,178.879,-0.131836,88.3521,108
1567620304,367.568,-11.8318,24.2218,178.879,-0.131836,88.3521,108
1567620304,367.568,-11.8318,24.2218,178.879,-0.131836,88.3521,108
1567620304,367.568,-11.8318,24.2218,178.879,-0.131836,88.3521,108
1567620304,367.568,-11.8318,24.2218,178.879,-0.131836,88.3521,108
1567620304,367.568,-11.8318,24.2218,178.879,-0.131836,88.3521,108
1567620304,367.568,-11.8318,24.2218,178.879,-0.131836,88.3521,108
1567620304,367.568,-11.8318,24.2218,178.879,-0.131836,88.3521,104
1567620304,367.568,-11.8318,24.2218,178.879,-0.131836,88.3521,104
1567620304,367.568,-11.8318,24.2218,178.879,-0.131836,88.3521,104
1567620304,367.568,-11.8318,24.2218,178.879,-0.131836,88.3521,104
1567620304,367.568,-11.8318,24.2218,178.879,-0.131836,88.3521,104
1567620304,367.568,-11.8318,24.2218,178.879,-0.131836,88.3521,104
1567620304,367.457,-11.8318,24.2218,178.879,-0.131836,88.3521,104
1567620304,367.457,-11.8318,24.2218,178.879,-0.131836,88.3521,104
1567620304,367.457,-11.8318,24.2218,178.879,-0.131836,88.3521,104
1567620304,367.457,-11.8318,24.2218,178.879,-0.131836,88.3521,108
1567620304,367.457,-11.8318,24.2218,178.879,-0.131836,88.3521,108
1567620304,367.457,-11.8318,24.2218,178.879,-0.131836,88.3521,108
1567620304,367.457,-11.8318,24.2218,178.879,-0.131836,88.3521,108
1567620304,367.457,-11.8318,24.2218,178.879,-0.131836,88.3521,108
1567620304,367.457,-11.8318,24.2218,178.879,-0.131836,88.3521,108
1567620304,367.457,-11.8318,24.2218,178.879,-0.131836,88.3521,108
1567620304,367.457,-11.8318,24.2218,178.879,-0.131836,88.3521,108
1567620304,367.457,-11.8318,24.2218,178.879,-0.131836,88.3521,108
1567620304,367.457,-11.8318,24.2218,178.879,-0.131836,88.3521,108
1567620304,367.457,-11.8318,24.2218,178.879,-0.131836,88.3521,108
1567620304,367.457,-11.8318,24.2218,178.879,-0.131836,88.3521,108
1567620304,367.457,-11.8318,24.2218,178.879,-0.131836,88.3521,108
1567620304,367.457,-11.8318,24.2218,178.879,-0.131836,88.3521,108
1567620304,367.457,-11.8318,24.2218,178.879,-0.131836,88.3521,108
1567620304,367.457,-11.8318,24.2218,178.879,-0.131836,88.3521,108
1567620304,367.457,-11.8318,24.2218,178.879,-0.131836,88.3521,108
1567620304,367.457,-11.8318,24.2218,178.879,-0.131836,88.3521,108
1567620304,367.457,-11.8318,24.2218,178.879,-0.131836,88.3521,108
1567620304,367.457,-11.8318,24.2218,178.879,-0.131836,88.3521,108
1567620304,367.457,-11.8318,24.2218,178.879,-0.131836,88.3521,108
1567620304,367.457,-11.8318,24.2218,178.879,-0.131836,88.3521,108
1567620304,367.457,-11.8318,24.2218,178.879,-0.131836,88.3521,108
1567620304,367.457,-11.8318,24.2218,178.879,-0.131836,88.3521,108
1567620304,367.457,-11.8318,24.2218,178.879,-0.131836,88.3521,108
1567620304,367.457,-11.8318,24.2218,178.879,-0.131836,88.3521,108
1567620304,367.457,-11.8318,24.2218,178.879,-0.131836,88.3521,108
1567620304,367.457,-11.8318,24.2218,178.879,-0.131836,88.3521,108
1567620304,367.457,-11.8318,24.2218,178.879,-0.131836,88.3521,108
1567620304,367.457,-11.8318,24.2218,178.879,-0.131836,88.3521,108
1567620304,367.457,-11.8318,24.2218,178.879,-0.131836,88.3521,108
1567620304,367.457,-11.8318,24.2218,178.879,-0.131836,88.3521,104
1567620304,367.457,-11.8318,24.2218,178.879,-0.131836,88.3521,104
1567620304,367.457,-11.8318,24.2218,178.879,-0.131836,88.3521,104
1567620304,367.457,-11.8318,24.2218,178.879,-0.131836,88.3521,104
1567620304,367.457,-11.8318,24.2218,178.879,-0.131836,88.3521,104
1567620304,367.457,-11.8318,24.2218,178.879,-0.131836,88.3521,104
1567620304,367.457,-11.8318,24.2218,178.879,-0.131836,88.3521,104
1567620304,367.457,-11.8318,24.2218,178.879,-0.131836,88.3521,104
1567620304,367.457,-11.8318,24.2218,178.879,-0.131836,88.3521,104
1567620304,367.457,-11.8318,24.2218,178.879,-0.131836,88.3521,104
1567620304,367.457,-11.8318,24.2218,178.879,-0.131836,88.3521,104
1567620304,367.457,-11.8318,24.2218,178.879,-0.131836,88.3521,104
1567620304,367.457,-11.8318,24.2218,178.879,-0.131836,88.3521,104
1567620304,367.457,-11.8318,24.2218,178.879,-0.131836,88.3521,104
1567620304,367.457,-11.8318,24.2218,178.879,-0.131836,88.3521,104
1567620304,367.457,-11.8318,24.2218,178.879,-0.131836,88.3521,104
1567620304,367.457,-11.8318,24.2218,178.879,-0.131836,88.3521,104
1567620304,367.457,-11.8318,24.2218,178.879,-0.131836,88.3521,104
1567620304,367.457,-11.8318,24.2218,178.879,-0.131836,88.3521,104
1567620304,367.457,-11.8318,24.2218,178.879,-0.131836,88.3521,104
1567620304,367.457,-11.8318,24.2218,178.879,-0.131836,88.3521,104
1567620304,367.457,-11.8318,24.2218,178.879,-0.131836,88.3521,104
1567620304,367.457,-11.8318,24.2218,178.879,-0.131836,88.3521,104
1567620304,367.457,-11.8318,24.2218,178.879,-0.131836,88.3521,104
1567620304,367.568,-11.8318,24.2218,178.879,-0.131836,88.3521,104
1567620304,367.568,-11.8318,24.2218,178.879,-0.131836,88.3521,104
1567620304,367.568,-11.8318,24.2218,178.879,-0.131836,88.3521,104
1567620304,367.568,-11.8318,24.2218,178.879,-0.131836,88.3521,104
1567620304,367.568,-11.8318,24.2218,178.879,-0.131836,88.3521,104
1567620304,367.568,-11.8318,24.2218,178.879,-0.131836,88.3521,104
1567620304,367.568,-11.8318,24.2218,178.879,-0.131836,88.3521,104
1567620304,367.568,-11.8318,24.2218,178.879,-0.131836,88.3521,104
1567620305,367.568,-11.8318,24.2218,178.879,-0.131836,88.3521,104
1567620305,367.568,-11.8318,24.2218,178.879,-0.131836,88.3521,104
1567620305,367.568,-11.8318,24.2218,178.879,-0.131836,88.3521,104
1567620305,367.568,-11.8318,24.2218,178.879,-0.131836,88.3521,104
1567620305,367.568,-11.8318,24.2218,178.879,-0.131836,88.3521,104
1567620305,367.568,-11.8318,24.2218,178.879,-0.131836,88.3521,104
1567620305,367.568,-11.8318,24.2218,178.879,-0.131836,88.3521,104
1567620305,367.568,-11.8318,24.2218,178.879,-0.131836,88.3521,104
1567620305,367.568,-11.8318,24.2218,178.879,-0.131836,88.3521,104
1567620305,367.568,-11.8318,24.2218,178.879,-0.131836,88.3521,104
1567620305,367.568,-11.8318,24.2218,178.879,-0.131836,88.3521,104
1567620305,367.568,-11.8318,24.2218,178.879,-0.131836,88.3521,104
1567620305,367.568,-11.8318,24.2218,178.879,-0.131836,88.3521,104
1567620305,367.568,-11.8318,24.2218,178.879,-0.131836,88.3521,104
1567620305,367.568,-11.8318,24.2218,178.879,-0.131836,88.3521,104
1567620305,367.568,-11.8318,24.2218,178.879,-0.131836,88.3521,104
1567620305,367.568,-11.8318,24.2218,178.879,-0.131836,88.3521,104
1567620305,367.568,-11.8318,24.2218,178.879,-0.131836,88.3521,104
1567620305,367.568,-11.8318,24.2218,178.879,-0.131836,88.3521,104
1567620305,367.568,-11.8318,24.2218,178.879,-0.131836,88.3521,104
1567620305,367.568,-11.8318,24.2218,178.879,-0.131836,88.3521,104
1567620305,367.568,-11.8318,24.2218,178.879,-0.131836,88.3521,104
1567620305,367.568,-11.8318,24.2218,178.879,-0.131836,88.3521,104
1567620305,367.568,-11.8318,24.2218,178.879,-0.131836,88.3521,104
1567620305,367.568,-11.8318,24.2218,178.879,-0.131836,88.3521,104
1567620305,367.568,-11.8318,24.2218,178.879,-0.131836,88.3521,104
1567620305,367.568,-11.8318,24.2218,178.879,-0.131836,88.3521,104
1567620305,367.568,-11.8318,24.2218,178.879,-0.131836,88.3521,104
1567620305,367.568,-11.8318,24.2218,178.879,-0.131836,88.3521,104
1567620305,367.568,-11.8318,24.2218,178.879,-0.131836,88.3521,104
1567620305,367.568,-11.8318,24.2218,178.879,-0.131836,88.3521,104
1567620305,367.568,-11.8318,24.2218,178.879,-0.131836,88.3521,104
1567620305,367.568,-11.8318,24.2218,178.879,-0.131836,88.3521,104
1567620305,367.568,-11.8318,24.2218,178.879,-0.131836,88.3521,104
1567620305,367.568,-11.8318,24.2218,178.879,-0.131836,88.3521,104
1567620305,367.568,-11.8318,24.2218,178.879,-0.131836,88.3521,104
1567620305,367.568,-11.8318,24.2218,178.879,-0.131836,88.3521,104
1567620305,367.568,-11.8318,24.2218,178.879,-0.131836,88.3521,104
1567620305,367.568,-11.8318,24.2218,178.879,-0.131836,88.3521,104
1567620305,367.568,-11.8318,24.2218,178.879,-0.131836,88.3521,104
1567620305,367.568,-11.8318,24.2218,178.879,-0.131836,88.3521,104
1567620305,367.568,-11.8318,24.2218,178.879,-0.131836,88.3521,104
1567620305,367.568,-11.8318,24.2218,178.879,-0.131836,88.3521,104
1567620305,367.568,-11.8318,24.2218,178.879,-0.131836,88.3521,104
1567620305,367.568,-11.8318,24.2218,178.879,-0.131836,88.3521,104
1567620305,367.568,-11.8318,24.2218,178.879,-0.131836,88.3521,104
1567620305,367.568,-11.8318,24.2218,178.879,-0.131836,88.3521,104
1567620305,367.568,-11.8318,24.2218,178.879,-0.131836,88.3521,104
1567620305,367.568,-11.8318,24.2218,178.879,-0.131836,88.3521,104
1567620305,367.568,-11.8318,24.2218,178.879,-0.131836,88.3521,104
1567620305,367.568,-11.8318,24.2218,178.879,-0.131836,88.3521,104
1567620305,367.568,-11.8318,24.2218,178.879,-0.131836,88.3521,104
1567620305,367.568,-11.8318,24.2218,178.879,-0.131836,88.3521,104
1567620305,367.568,-11.8318,24.2218,178.879,-0.131836,88.3521,104
1567620305,367.568,-11.8318,24.2218,178.879,-0.131836,88.3521,104
1567620305,367.568,-11.8318,24.2218,178.879,-0.131836,88.3521,104
1567620305,367.568,-11.8318,24.2218,178.879,-0.131836,88.3521,104
1567620305,367.568,-11.8318,24.2218,178.879,-0.131836,88.3521,104
1567620305,367.568,-11.8318,24.2218,178.879,-0.131836,88.3521,104
1567620305,367.568,-11.8318,24.2218,178.879,-0.131836,88.3521,104
1567620305,367.568,-11.8318,24.2218,178.879,-0.131836,88.3521,104
1567620305,367.568,-11.8318,24.2218,178.879,-0.131836,88.3521,104
1567620305,367.568,-11.8318,24.2218,178.879,-0.131836,88.3521,104
1567620305,367.568,-11.8318,24.2218,178.879,-0.131836,88.3521,104
1567620305,367.568,-11.8318,24.2218,178.879,-0.131836,88.3521,104
1567620305,367.568,-11.8318,24.2218,178.879,-0.131836,88.3521,104
1567620305,367.568,-11.8318,24.2218,178.879,-0.131836,88.3521,104
1567620305,367.568,-11.8318,24.2218,178.879,-0.131836,88.3521,104
1567620305,367.568,-11.8318,24.2218,178.879,-0.131836,88.3521,104
1567620305,367.568,-11.8318,24.2218,178.879,-0.131836,88.3521,104
1567620305,367.568,-11.8318,24.2218,178.879,-0.131836,88.3521,104
1567620305,367.568,-11.8318,24.2218,178.879,-0.131836,88.3521,104
1567620305,367.568,-11.8318,24.2218,178.879,-0.131836,88.3521,104
1567620305,367.568,-11.8318,24.2218,178.879,-0.131836,88.3521,104
1567620305,367.568,-11.8318,24.2218,178.879,-0.131836,88.3521,104
1567620305,367.568,-11.8318,24.2218,178.879,-0.131836,88.3521,104
1567620305,367.568,-11.8318,24.2218,178.879,-0.131836,88.3521,104
1567620305,367.568,-11.8318,24.2218,178.879,-0.131836,88.3521,104
1567620305,367.568,-11.8318,24.2218,178.879,-0.131836,88.3521,104
1567620305,367.568,-11.8318,24.2218,178.879,-0.131836,88.3521,104
1567620305,367.568,-11.8318,24.2218,178.879,-0.131836,88.3521,104
1567620305,367.568,-11.8318,24.2218,178.879,-0.131836,88.3521,104
1567620305,367.568,-11.8318,24.2218,178.879,-0.131836,88.3521,104
1567620305,367.568,-11.8318,24.2218,178.879,-0.131836,88.3521,104
1567620305,367.568,-11.8318,24.2218,178.879,-0.131836,88.3521,104
1567620305,367.568,-11.8318,24.2218,178.879,-0.131836,88.3521,104
1567620305,367.457,-11.8318,24.2218,178.879,-0.131836,88.3521,104
1567620305,367.457,-11.8318,24.2218,178.879,-0.131836,88.3521,104
1567620305,367.457,-11.8318,24.2218,178.879,-0.131836,88.3521,104
1567620305,367.457,-11.8318,24.2218,178.879,-0.131836,88.3521,104
1567620305,367.457,-11.8318,24.2218,178.879,-0.131836,88.3521,104
1567620305,367.457,-11.8318,24.2218,178.879,-0.131836,88.3521,104
1567620305,367.457,-11.8318,24.2218,178.879,-0.131836,88.3521,104
1567620305,367.457,-11.8318,24.2218,178.879,-0.131836,88.3521,104
1567620305,367.457,-11.8318,24.2218,178.879,-0.131836,88.3521,104
1567620305,367.457,-11.8318,24.2218,178.879,-0.131836,88.3521,104
1567620305,367.457,-11.8318,24.2218,178.879,-0.131836,88.3521,104
1567620305,367.568,-11.8318,24.2218,178.879,-0.131836,88.3521,104
1567620305,367.568,-11.8318,24.2218,178.879,-0.131836,88.3521,104
1567620305,367.568,-11.8318,24.2218,178.879,-0.131836,88.3521,104
1567620306,367.568,-11.8318,24.2218,178.879,-0.131836,88.3521,104
1567620306,367.568,-11.8318,24.2218,178.879,-0.131836,88.3521,104
1567620306,367.568,-11.8318,24.2218,178.879,-0.131836,88.3521,104
1567620306,367.568,-11.8318,24.2218,178.879,-0.131836,88.3521,104
1567620306,367.568,-11.8318,24.2218,178.879,-0.131836,88.3521,104
1567620306,367.568,-11.8318,24.2218,178.879,-0.131836,88.3521,104
1567620306,367.568,-11.8318,24.2218,178.879,-0.131836,88.3521,104
1567620306,367.568,-11.8318,24.2218,178.879,-0.131836,88.3521,104
1567620306,367.568,-11.8318,24.2218,178.879,-0.131836,88.3521,104
1567620306,367.568,-11.8318,24.2218,178.879,-0.131836,88.3521,104
1567620306,367.568,-11.8318,24.2218,178.879,-0.131836,88.3521,104
1567620306,367.568,-11.8318,24.2218,178.879,-0.131836,88.3521,104
1567620306,367.568,-11.8318,24.2218,178.879,-0.131836,88.3521,104
1567620306,367.568,-11.8318,24.2218,178.879,-0.131836,88.3521,104
1567620306,367.568,-11.8318,24.2218,178.879,-0.131836,88.3521,104
1567620306,367.568,-11.8318,24.2218,178.879,-0.131836,88.3521,104
1567620306,367.568,-11.8318,24.2218,178.879,-0.131836,88.3521,104
1567620306,367.568,-11.8318,24.2218,178.879,-0.131836,88.3521,104
1567620306,367.568,-11.8318,24.2218,178.879,-0.131836,88.3521,104
1567620306,367.568,-11.8318,24.2218,178.879,-0.131836,88.3521,104
1567620306,367.568,-11.8318,24.2218,178.879,-0.131836,88.3521,104
1567620306,367.568,-11.8318,24.2218,178.879,-0.131836,88.3521,104
1567620306,367.568,-11.8318,24.2218,178.879,-0.131836,88.3521,104
1567620306,367.568,-11.8318,24.2218,178.879,-0.131836,88.3521,104
1567620306,367.568,-11.8318,24.2218,178.879,-0.131836,88.3521,104
1567620306,367.568,-11.8318,24.2218,178.879,-0.131836,88.3521,104
1567620306,367.568,-11.8318,24.2218,178.879,-0.131836,88.3521,104
1567620306,367.568,-11.8318,24.2218,178.879,-0.131836,88.3521,104
1567620306,367.568,-11.8318,24.2218,178.879,-0.131836,88.3521,104
1567620306,367.568,-11.8318,24.2218,178.879,-0.131836,88.3521,104
1567620306,367.568,-11.8318,24.2218,178.879,-0.131836,88.3521,104
1567620306,367.568,-11.8318,24.2218,178.879,-0.131836,88.3521,104
1567620306,367.568,-11.8318,24.2218,178.879,-0.131836,88.3521,104
1567620306,367.568,-11.8318,24.2218,178.879,-0.131836,88.3521,104
1567620306,367.568,-11.8318,24.2218,178.879,-0.131836,88.3521,104
1567620306,367.568,-11.8318,24.2218,178.879,-0.131836,88.3521,104
1567620306,367.568,-11.8318,24.2218,178.879,-0.131836,88.3521,104
1567620306,367.568,-11.8318,24.2218,178.879,-0.131836,88.3521,104
1567620306,367.568,-11.8318,24.2218,178.879,-0.131836,88.3521,104
1567620306,367.568,-11.8318,24.2218,178.879,-0.131836,88.3521,104
1567620306,367.568,-11.8318,24.2218,178.879,-0.131836,88.3521,104
1567620306,367.568,-11.8318,24.2218,178.879,-0.131836,88.3521,104
1567620306,367.568,-11.8318,24.2218,178.879,-0.131836,88.3521,104
