time,x,y,z,ax,ay,az,q
1569682258,320.911,-96.7755,-14.734,179.824,2.19727,-144.404,488
1569682258,320.911,-96.7755,-14.6224,179.824,2.19727,-144.404,488
1569682258,320.911,-96.7755,-14.6224,179.824,2.19727,-144.404,488
1569682258,320.911,-96.7755,-14.6224,179.824,2.19727,-144.404,488
1569682258,320.911,-96.7755,-14.6224,179.824,2.19727,-144.404,488
1569682258,320.911,-96.6639,-14.6224,179.824,2.19727,-144.404,488
1569682259,320.911,-96.6639,-14.6224,179.824,2.19727,-144.404,488
1569682259,320.911,-96.6639,-14.6224,179.824,2.19727,-144.404,488
1569682259,320.911,-96.6639,-14.6224,179.824,2.19727,-144.404,488
1569682259,320.911,-96.6639,-14.6224,179.824,2.19727,-144.404,488
1569682259,320.911,-96.6639,-14.6224,179.824,2.19727,-144.404,488
1569682259,320.911,-96.6639,-14.6224,179.824,2.19727,-144.404,488
1569682259,320.911,-96.6639,-14.6224,179.824,2.19727,-144.404,492
1569682259,320.911,-96.6639,-14.6224,179.824,2.19727,-144.404,492
1569682259,320.911,-96.6639,-14.6224,179.824,2.19727,-144.404,492
1569682259,320.911,-96.6639,-14.6224,179.824,2.19727,-144.404,492
1569682259,320.911,-96.6639,-14.6224,179.824,2.19727,-144.404,492
1569682259,320.911,-96.6639,-14.6224,179.824,2.19727,-144.404,492
1569682259,320.911,-96.6639,-14.6224,179.824,2.19727,-144.404,492
1569682259,320.911,-96.6639,-14.6224,179.824,2.19727,-144.404,492
1569682259,320.911,-96.6639,-14.6224,179.824,2.19727,-144.404,488
1569682259,320.911,-96.6639,-14.6224,179.824,2.19727,-144.404,488
1569682259,320.911,-96.6639,-14.6224,179.824,2.19727,-144.404,488
1569682259,320.911,-96.6639,-14.6224,179.824,2.19727,-144.404,488
1569682259,320.911,-96.6639,-14.734,179.824,2.19727,-144.404,488
1569682259,320.911,-96.6639,-14.734,179.824,2.19727,-144.426,488
1569682259,320.911,-96.6639,-14.734,179.824,2.19727,-144.426,488
1569682259,320.911,-96.6639,-14.734,179.824,2.19727,-144.426,488
1569682259,320.911,-96.6639,-14.734,179.846,2.19727,-144.426,488
1569682259,320.911,-96.6639,-14.734,179.846,2.19727,-144.426,488
1569682259,320.911,-96.6639,-14.734,179.846,2.19727,-144.426,492
1569682259,320.911,-96.6639,-14.734,179.846,2.19727,-144.426,492
1569682259,320.911,-96.6639,-14.734,179.846,2.19727,-144.426,492
1569682259,320.911,-96.6639,-14.734,179.846,2.19727,-144.426,492
1569682259,320.911,-96.6639,-14.734,179.824,2.19727,-144.426,492
1569682259,320.911,-96.6639,-14.734,179.824,2.19727,-144.426,492
1569682259,320.911,-96.6639,-14.734,179.824,2.19727,-144.426,492
1569682259,320.911,-96.6639,-14.734,179.824,2.19727,-144.426,492
1569682259,320.911,-96.7755,-14.734,179.824,2.19727,-144.426,492
1569682259,320.911,-96.7755,-14.734,179.824,2.19727,-144.426,492
1569682259,320.911,-96.7755,-14.734,179.824,2.19727,-144.426,492
1569682259,320.911,-96.7755,-14.734,179.824,2.19727,-144.426,488
1569682259,320.911,-96.7755,-14.734,179.824,2.19727,-144.426,488
1569682259,320.911,-96.7755,-14.734,179.824,2.19727,-144.404,488
1569682259,320.911,-96.7755,-14.734,179.824,2.19727,-144.404,488
1569682259,320.911,-96.7755,-14.734,179.824,2.19727,-144.404,488
1569682259,320.911,-96.7755,-14.734,179.824,2.19727,-144.404,488
1569682259,320.911,-96.7755,-14.734,179.824,2.19727,-144.404,488
1569682259,320.911,-96.7755,-14.734,179.824,2.19727,-144.404,488
1569682259,320.911,-96.7755,-14.6224,179.824,2.19727,-144.404,488
1569682259,320.911,-96.7755,-14.6224,179.824,2.19727,-144.404,488
1569682259,320.911,-96.7755,-14.734,179.824,2.19727,-144.426,488
1569682259,320.911,-96.7755,-14.6224,179.824,2.19727,-144.426,488
1569682259,320.911,-96.7755,-14.6224,179.824,2.19727,-144.426,488
1569682259,320.911,-96.7755,-14.6224,179.824,2.19727,-144.426,488
1569682259,320.911,-96.7755,-14.6224,179.824,2.19727,-144.426,488
1569682259,320.911,-96.7755,-14.6224,179.824,2.19727,-144.426,488
1569682259,320.911,-96.7755,-14.734,179.824,2.19727,-144.426,488
1569682259,320.911,-96.7755,-14.734,179.824,2.19727,-144.426,488
1569682259,320.911,-96.7755,-14.734,179.824,2.19727,-144.426,488
1569682259,320.911,-96.7755,-14.734,179.824,2.19727,-144.426,488
1569682259,320.911,-96.7755,-14.734,179.824,2.19727,-144.426,488
1569682259,320.911,-96.7755,-14.734,179.824,2.19727,-144.426,488
1569682259,320.911,-96.7755,-14.734,179.824,2.19727,-144.404,488
1569682259,320.911,-96.7755,-14.734,179.824,2.19727,-144.404,488
1569682259,320.911,-96.7755,-14.734,179.824,2.19727,-144.404,488
1569682259,320.911,-96.6639,-14.734,179.824,2.19727,-144.404,488
1569682259,320.911,-96.6639,-14.734,179.824,2.19727,-144.404,488
1569682259,320.911,-96.6639,-14.734,179.824,2.19727,-144.404,488
1569682259,320.911,-96.6639,-14.734,179.824,2.19727,-144.404,488
1569682259,320.911,-96.6639,-14.734,179.824,2.19727,-144.404,488
1569682259,320.911,-96.6639,-14.734,179.824,2.19727,-144.404,488
1569682259,320.911,-96.6639,-14.734,179.824,2.19727,-144.404,488
1569682259,320.911,-96.7755,-14.734,179.824,2.17529,-144.404,488
1569682259,320.911,-96.7755,-14.734,179.824,2.17529,-144.404,488
1569682259,320.911,-96.7755,-14.734,179.824,2.17529,-144.404,492
1569682259,320.911,-96.7755,-14.734,179.824,2.17529,-144.404,492
1569682259,320.911,-96.7755,-14.734,179.824,2.17529,-144.404,492
1569682259,320.911,-96.7755,-14.734,179.824,2.17529,-144.404,492
1569682259,320.911,-96.7755,-14.734,179.824,2.17529,-144.404,492
1569682259,320.911,-96.7755,-14.734,179.824,2.15332,-144.404,492
1569682259,320.911,-96.7755,-14.734,179.824,2.15332,-144.404,492
1569682259,320.911,-96.7755,-14.734,179.824,2.15332,-144.404,492
1569682259,320.911,-96.7755,-14.734,179.824,2.15332,-144.404,492
1569682259,320.911,-96.7755,-14.734,179.824,2.17529,-144.404,492
1569682259,320.911,-96.7755,-14.734,179.824,2.17529,-144.404,492
1569682259,320.911,-96.7755,-14.734,179.824,2.17529,-144.404,492
1569682259,320.911,-96.7755,-14.734,179.824,2.17529,-144.404,492
1569682259,320.911,-96.7755,-14.734,179.824,2.17529,-144.404,492
1569682259,320.911,-96.7755,-14.734,179.824,2.17529,-144.404,492
1569682259,320.911,-96.7755,-14.734,179.824,2.17529,-144.404,492
1569682259,320.911,-96.7755,-14.734,179.824,2.17529,-144.404,492
1569682259,320.911,-96.6639,-14.734,179.824,2.17529,-144.404,492
1569682259,320.911,-96.7755,-14.734,179.824,2.17529,-144.404,492
1569682259,320.911,-96.7755,-14.734,179.824,2.17529,-144.404,492
1569682259,320.911,-96.7755,-14.734,179.824,2.17529,-144.404,492
1569682259,320.911,-96.7755,-14.734,179.824,2.17529,-144.404,492
1569682259,320.911,-96.7755,-14.734,179.824,2.17529,-144.404,492
1569682259,320.911,-96.7755,-14.734,179.824,2.17529,-144.404,492
1569682259,320.911,-96.7755,-14.734,179.824,2.17529,-144.404,492
1569682259,320.911,-96.7755,-14.734,179.824,2.17529,-144.404,492
1569682259,320.911,-96.7755,-14.734,179.824,2.17529,-144.404,492
1569682259,320.911,-96.7755,-14.734,179.824,2.17529,-144.404,492
1569682259,320.911,-96.7755,-14.734,179.824,2.17529,-144.404,492
1569682259,320.911,-96.7755,-14.734,179.824,2.17529,-144.404,492
1569682259,320.911,-96.7755,-14.734,179.824,2.17529,-144.404,492
1569682260,320.911,-96.7755,-14.734,179.824,2.17529,-144.404,492
1569682260,320.911,-96.7755,-14.734,179.824,2.17529,-144.404,492
1569682260,320.911,-96.7755,-14.734,179.802,2.17529,-144.404,492
1569682260,320.911,-96.7755,-14.734,179.802,2.17529,-144.404,488
1569682260,320.911,-96.7755,-14.734,179.802,2.17529,-144.404,488
1569682260,320.911,-96.7755,-14.734,179.802,2.17529,-144.404,488
1569682260,320.911,-96.7755,-14.734,179.802,2.17529,-144.404,488
1569682260,320.911,-96.7755,-14.734,179.802,2.17529,-144.404,488
1569682260,320.911,-96.7755,-14.734,179.802,2.17529,-144.404,488
1569682260,321.022,-96.7755,-14.734,179.802,2.17529,-144.404,484
1569682260,321.022,-96.7755,-14.734,179.802,2.17529,-144.404,484
1569682260,321.022,-96.7755,-14.734,179.802,2.17529,-144.404,484
1569682260,321.022,-96.7755,-14.734,179.802,2.17529,-144.404,484
1569682260,321.022,-96.7755,-14.734,179.802,2.17529,-144.404,484
1569682260,321.022,-96.7755,-14.734,179.802,2.17529,-144.404,484
1569682260,321.022,-96.7755,-14.734,179.802,2.17529,-144.404,484
1569682260,321.022,-96.7755,-14.734,179.824,2.17529,-144.404,484
1569682260,321.022,-96.7755,-14.734,179.824,2.17529,-144.404,480
1569682260,321.022,-96.7755,-14.734,179.824,2.17529,-144.404,480
1569682260,321.022,-96.7755,-14.734,179.824,2.17529,-144.404,480
1569682260,321.022,-96.7755,-14.734,179.824,2.17529,-144.404,480
1569682260,320.911,-96.7755,-14.734,179.824,2.17529,-144.404,480
1569682260,320.911,-96.7755,-14.734,179.824,2.19727,-144.404,480
1569682260,321.022,-96.7755,-14.734,179.824,2.19727,-144.404,480
1569682260,321.022,-96.7755,-14.734,179.824,2.19727,-144.404,484
1569682260,321.022,-96.7755,-14.734,179.824,2.19727,-144.404,484
1569682260,321.022,-96.7755,-14.734,179.824,2.19727,-144.404,484
1569682260,321.022,-96.7755,-14.734,179.824,2.17529,-144.426,484
1569682260,321.022,-96.7755,-14.734,179.846,2.17529,-144.426,484
1569682260,321.022,-96.7755,-14.734,179.846,2.17529,-144.426,484
1569682260,321.022,-96.7755,-14.734,179.846,2.17529,-144.426,484
1569682260,321.022,-96.7755,-14.734,179.846,2.17529,-144.426,484
1569682260,321.022,-96.7755,-14.734,179.846,2.17529,-144.426,484
1569682260,321.022,-96.7755,-14.734,179.824,2.17529,-144.404,484
1569682260,321.022,-96.7755,-14.734,179.824,2.17529,-144.404,484
1569682260,321.022,-96.7755,-14.734,179.824,2.17529,-144.404,484
1569682260,321.022,-96.7755,-14.734,179.824,2.17529,-144.404,484
1569682260,321.022,-96.7755,-14.734,179.824,2.17529,-144.404,484
1569682260,321.022,-96.6639,-14.734,179.824,2.17529,-144.404,484
1569682260,321.022,-96.6639,-14.734,179.846,2.17529,-144.404,484
1569682260,321.022,-96.6639,-14.734,179.846,2.17529,-144.404,484
1569682260,321.022,-96.6639,-14.734,179.846,2.17529,-144.404,484
1569682260,321.022,-96.6639,-14.734,179.846,2.17529,-144.426,484
1569682260,321.022,-96.6639,-14.734,179.846,2.17529,-144.426,484
1569682260,321.022,-96.6639,-14.734,179.846,2.17529,-144.426,484
1569682260,321.022,-96.6639,-14.734,179.846,2.17529,-144.426,480
1569682260,321.022,-96.6639,-14.734,179.846,2.17529,-144.426,480
1569682260,321.022,-96.6639,-14.734,179.846,2.17529,-144.426,480
1569682260,321.022,-96.6639,-14.734,179.846,2.17529,-144.426,480
1569682260,321.022,-96.6639,-14.734,179.846,2.17529,-144.426,480
1569682260,321.022,-96.6639,-14.734,179.846,2.17529,-144.426,480
1569682260,321.022,-96.6639,-14.734,179.846,2.17529,-144.426,480
1569682260,321.022,-96.6639,-14.734,179.846,2.17529,-144.426,480
1569682260,321.022,-96.6639,-14.734,179.846,2.17529,-144.426,480
1569682260,320.911,-96.6639,-14.734,179.846,2.17529,-144.426,480
1569682260,320.911,-96.6639,-14.734,179.846,2.17529,-144.426,480
1569682260,320.911,-96.6639,-14.734,179.846,2.17529,-144.426,480
1569682260,320.911,-96.6639,-14.734,179.846,2.17529,-144.426,480
1569682260,320.911,-96.6639,-14.734,179.846,2.17529,-144.426,480
1569682260,320.911,-96.6639,-14.734,179.846,2.17529,-144.426,480
1569682260,320.911,-96.6639,-14.734,179.846,2.17529,-144.426,480
1569682260,320.911,-96.6639,-14.734,179.846,2.17529,-144.426,480
1569682260,320.911,-96.6639,-14.734,179.846,2.17529,-144.426,480
1569682260,320.911,-96.6639,-14.734,179.846,2.17529,-144.426,480
1569682260,320.911,-96.6639,-14.734,179.846,2.17529,-144.426,484
1569682260,320.911,-96.6639,-14.734,179.846,2.17529,-144.426,484
1569682260,320.911,-96.6639,-14.734,179.846,2.17529,-144.426,484
1569682260,320.911,-96.6639,-14.734,179.846,2.17529,-144.426,484
1569682260,320.911,-96.6639,-14.734,179.846,2.17529,-144.426,484
1569682260,320.911,-96.6639,-14.734,179.846,2.17529,-144.426,484
1569682260,320.911,-96.6639,-14.734,179.846,2.17529,-144.426,484
1569682260,320.911,-96.6639,-14.734,179.846,2.17529,-144.426,480
1569682260,320.911,-96.6639,-14.734,179.846,2.17529,-144.426,480
1569682260,320.911,-96.6639,-14.734,179.846,2.17529,-144.426,480
1569682260,320.911,-96.6639,-14.734,179.846,2.17529,-144.426,480
1569682260,320.911,-96.6639,-14.734,179.846,2.17529,-144.426,480
1569682260,320.911,-96.6639,-14.734,179.846,2.17529,-144.426,480
1569682260,320.911,-96.6639,-14.734,179.846,2.17529,-144.426,480
1569682260,320.911,-96.6639,-14.734,179.846,2.19727,-144.426,480
1569682260,320.911,-96.6639,-14.734,179.846,2.19727,-144.426,480
1569682260,320.911,-96.6639,-14.734,179.846,2.19727,-144.426,480
1569682260,320.911,-96.6639,-14.734,179.846,2.19727,-144.426,480
1569682260,320.911,-96.6639,-14.734,179.846,2.19727,-144.426,480
1569682260,320.911,-96.6639,-14.734,179.846,2.19727,-144.426,480
1569682260,320.911,-96.6639,-14.734,179.824,2.19727,-144.426,480
1569682260,320.911,-96.6639,-14.734,179.824,2.19727,-144.426,480
1569682260,320.911,-96.6639,-14.734,179.824,2.19727,-144.426,480
1569682260,320.911,-96.6639,-14.734,179.824,2.17529,-144.426,480
1569682260,320.911,-96.6639,-14.734,179.824,2.17529,-144.426,480
1569682260,320.911,-96.6639,-14.734,179.824,2.17529,-144.426,480
1569682260,320.911,-96.6639,-14.734,179.846,2.17529,-144.426,480
1569682260,320.911,-96.6639,-14.734,179.824,2.17529,-144.426,480
1569682260,320.911,-96.6639,-14.734,179.824,2.17529,-144.426,480
1569682260,320.911,-96.6639,-14.734,179.824,2.17529,-144.426,480
1569682260,320.911,-96.6639,-14.734,179.824,2.17529,-144.426,480
1569682260,320.911,-96.6639,-14.734,179.824,2.17529,-144.426,480
1569682260,320.911,-96.6639,-14.734,179.824,2.17529,-144.426,480
1569682260,320.911,-96.7755,-14.734,179.824,2.17529,-144.426,484
1569682260,320.911,-96.7755,-14.734,179.824,2.17529,-144.426,484
1569682260,320.911,-96.7755,-14.734,179.824,2.19727,-144.426,484
1569682261,320.911,-96.7755,-14.734,179.824,2.19727,-144.426,484
1569682261,320.911,-96.7755,-14.734,179.824,2.19727,-144.426,484
1569682261,320.911,-96.7755,-14.734,179.824,2.19727,-144.426,484
1569682261,320.911,-96.7755,-14.734,179.824,2.19727,-144.426,484
1569682261,320.911,-96.7755,-14.6224,179.824,2.19727,-144.426,484
1569682261,321.022,-96.7755,-14.6224,179.824,2.19727,-144.426,484
1569682261,321.022,-96.7755,-14.6224,179.824,2.19727,-144.426,484
1569682261,321.022,-96.7755,-14.6224,179.824,2.19727,-144.426,484
1569682261,321.022,-96.7755,-14.6224,179.824,2.19727,-144.426,484
1569682261,321.022,-96.7755,-14.6224,179.824,2.21924,-144.426,484
1569682261,321.022,-96.7755,-14.6224,179.824,2.21924,-144.426,484
1569682261,321.022,-96.7755,-14.6224,179.824,2.21924,-144.426,484
1569682261,321.022,-96.7755,-14.6224,179.824,2.21924,-144.426,484
1569682261,321.022,-96.7755,-14.6224,179.824,2.21924,-144.426,484
1569682261,321.022,-96.7755,-14.6224,179.824,2.21924,-144.426,484
1569682261,321.022,-96.7755,-14.6224,179.824,2.21924,-144.426,484
1569682261,321.022,-96.7755,-14.6224,179.824,2.21924,-144.426,484
1569682261,321.022,-96.7755,-14.6224,179.824,2.21924,-144.426,484
1569682261,321.022,-96.7755,-14.6224,179.824,2.19727,-144.426,484
1569682261,321.022,-96.7755,-14.6224,179.802,2.19727,-144.426,484
1569682261,321.022,-96.7755,-14.6224,179.802,2.19727,-144.426,484
1569682261,321.022,-96.7755,-14.6224,179.802,2.19727,-144.426,484
1569682261,321.022,-96.7755,-14.6224,179.802,2.19727,-144.426,484
1569682261,321.022,-96.7755,-14.6224,179.802,2.19727,-144.426,484
1569682261,321.022,-96.7755,-14.6224,179.802,2.19727,-144.426,484
1569682261,321.022,-96.7755,-14.6224,179.824,2.19727,-144.426,484
1569682261,321.022,-96.7755,-14.6224,179.824,2.19727,-144.426,484
1569682261,321.022,-96.7755,-14.6224,179.824,2.19727,-144.426,484
1569682261,321.022,-96.7755,-14.6224,179.824,2.19727,-144.426,484
1569682261,321.022,-96.7755,-14.6224,179.824,2.19727,-144.426,484
1569682261,321.022,-96.7755,-14.6224,179.824,2.19727,-144.426,484
1569682261,321.022,-96.7755,-14.6224,179.824,2.19727,-144.426,488
1569682261,321.022,-96.7755,-14.6224,179.824,2.19727,-144.426,488
1569682261,321.022,-96.7755,-14.6224,179.824,2.19727,-144.426,488
1569682261,321.022,-96.7755,-14.734,179.846,2.19727,-144.426,488
1569682261,321.022,-96.7755,-14.734,179.846,2.19727,-144.426,488
1569682261,321.022,-96.7755,-14.734,179.846,2.19727,-144.426,488
1569682261,321.022,-96.7755,-14.734,179.846,2.19727,-144.426,488
1569682261,321.022,-96.7755,-14.734,179.846,2.19727,-144.426,488
1569682261,321.022,-96.7755,-14.734,179.846,2.19727,-144.426,488
1569682261,321.022,-96.7755,-14.734,179.846,2.19727,-144.426,488
1569682261,321.022,-96.7755,-14.734,179.846,2.17529,-144.426,488
1569682261,321.022,-96.7755,-14.734,179.846,2.17529,-144.426,488
1569682261,321.022,-96.7755,-14.734,179.846,2.17529,-144.426,488
1569682261,321.022,-96.7755,-14.734,179.846,2.17529,-144.426,488
1569682261,321.022,-96.7755,-14.734,179.824,2.17529,-144.426,488
1569682261,321.022,-96.7755,-14.734,179.824,2.17529,-144.426,488
1569682261,321.022,-96.7755,-14.734,179.824,2.17529,-144.426,488
1569682261,321.022,-96.7755,-14.734,179.824,2.17529,-144.426,488
1569682261,321.022,-96.7755,-14.734,179.824,2.17529,-144.426,488
1569682261,321.022,-96.7755,-14.734,179.824,2.17529,-144.426,488
1569682261,320.911,-96.7755,-14.734,179.824,2.17529,-144.426,488
1569682261,320.911,-96.7755,-14.734,179.824,2.17529,-144.426,488
1569682261,320.911,-96.7755,-14.734,179.824,2.17529,-144.426,488
1569682261,320.911,-96.7755,-14.734,179.824,2.17529,-144.426,488
1569682261,320.911,-96.7755,-14.734,179.824,2.17529,-144.426,488
1569682261,320.911,-96.7755,-14.734,179.824,2.17529,-144.426,488
1569682261,320.911,-96.7755,-14.734,179.824,2.17529,-144.426,488
1569682261,320.911,-96.7755,-14.734,179.824,2.17529,-144.426,488
1569682261,320.911,-96.7755,-14.734,179.824,2.17529,-144.426,488
1569682261,320.911,-96.7755,-14.734,179.824,2.17529,-144.426,488
1569682261,320.911,-96.7755,-14.734,179.824,2.17529,-144.426,488
1569682261,320.911,-96.7755,-14.734,179.824,2.17529,-144.426,488
1569682261,320.911,-96.7755,-14.734,179.824,2.17529,-144.426,488
1569682261,320.911,-96.7755,-14.734,179.824,2.17529,-144.426,488
1569682261,320.911,-96.7755,-14.734,179.824,2.17529,-144.426,488
1569682261,320.911,-96.7755,-14.734,179.824,2.17529,-144.426,488
1569682261,320.911,-96.7755,-14.734,179.824,2.17529,-144.426,488
1569682261,320.911,-96.7755,-14.734,179.824,2.17529,-144.426,488
1569682261,320.911,-96.7755,-14.734,179.824,2.19727,-144.426,488
1569682261,320.911,-96.7755,-14.734,179.824,2.19727,-144.426,488
1569682261,320.911,-96.7755,-14.734,179.824,2.19727,-144.426,488
1569682261,320.911,-96.7755,-14.734,179.824,2.19727,-144.426,488
1569682261,320.911,-96.7755,-14.734,179.824,2.19727,-144.426,488
1569682261,320.911,-96.7755,-14.734,179.824,2.19727,-144.426,488
1569682261,320.911,-96.7755,-14.734,179.824,2.19727,-144.426,484
1569682261,320.911,-96.7755,-14.734,179.824,2.19727,-144.426,484
1569682261,320.911,-96.7755,-14.734,179.824,2.19727,-144.426,484
1569682261,320.911,-96.7755,-14.6224,179.802,2.19727,-144.426,484
1569682261,320.911,-96.7755,-14.6224,179.802,2.19727,-144.426,484
1569682261,320.911,-96.7755,-14.6224,179.802,2.19727,-144.426,484
1569682261,320.911,-96.7755,-14.6224,179.802,2.19727,-144.426,484
1569682261,320.911,-96.7755,-14.6224,179.802,2.19727,-144.426,480
1569682261,320.911,-96.7755,-14.6224,179.802,2.19727,-144.426,480
1569682261,320.911,-96.7755,-14.6224,179.802,2.19727,-144.426,480
1569682261,320.911,-96.7755,-14.6224,179.802,2.19727,-144.426,480
1569682261,320.911,-96.7755,-14.6224,179.802,2.19727,-144.404,480
1569682261,320.911,-96.7755,-14.6224,179.802,2.19727,-144.404,480
1569682261,320.911,-96.7755,-14.6224,179.802,2.19727,-144.404,480
1569682261,320.911,-96.7755,-14.6224,179.824,2.19727,-144.404,476
1569682261,320.911,-96.7755,-14.734,179.824,2.19727,-144.404,476
1569682261,320.911,-96.7755,-14.734,179.824,2.19727,-144.404,476
1569682261,320.911,-96.7755,-14.734,179.824,2.19727,-144.404,476
1569682261,320.911,-96.7755,-14.734,179.824,2.19727,-144.404,476
1569682261,320.911,-96.7755,-14.734,179.824,2.19727,-144.404,476
1569682261,320.911,-96.7755,-14.734,179.824,2.19727,-144.404,476
1569682261,320.911,-96.7755,-14.734,179.824,2.19727,-144.404,476
1569682261,320.911,-96.7755,-14.734,179.824,2.19727,-144.426,476
1569682261,320.911,-96.7755,-14.734,179.824,2.19727,-144.426,476
1569682261,320.911,-96.7755,-14.734,179.824,2.19727,-144.426,476
1569682262,320.911,-96.7755,-14.734,179.824,2.19727,-144.426,476
1569682262,320.911,-96.7755,-14.734,179.824,2.17529,-144.426,476
1569682262,320.911,-96.7755,-14.734,179.824,2.17529,-144.426,476
1569682262,320.911,-96.7755,-14.734,179.824,2.17529,-144.426,476
1569682262,320.911,-96.7755,-14.734,179.824,2.17529,-144.426,476
1569682262,320.911,-96.7755,-14.734,179.824,2.17529,-144.426,476
1569682262,320.911,-96.7755,-14.734,179.802,2.17529,-144.426,476
1569682262,320.911,-96.7755,-14.734,179.802,2.17529,-144.426,476
1569682262,320.911,-96.7755,-14.734,179.802,2.17529,-144.426,480
1569682262,320.911,-96.7755,-14.734,179.802,2.17529,-144.426,480
1569682262,320.911,-96.7755,-14.734,179.824,2.17529,-144.426,480
1569682262,320.911,-96.7755,-14.734,179.824,2.17529,-144.426,480
1569682262,320.911,-96.7755,-14.734,179.824,2.17529,-144.426,480
1569682262,320.911,-96.7755,-14.734,179.824,2.17529,-144.426,480
1569682262,320.911,-96.7755,-14.734,179.824,2.17529,-144.426,480
1569682262,320.911,-96.7755,-14.734,179.824,2.17529,-144.426,480
1569682262,320.911,-96.7755,-14.734,179.824,2.17529,-144.426,480
1569682262,320.911,-96.7755,-14.734,179.824,2.17529,-144.426,480
1569682262,320.911,-96.7755,-14.734,179.824,2.17529,-144.426,480
1569682262,320.911,-96.7755,-14.734,179.824,2.19727,-144.426,480
1569682262,320.911,-96.7755,-14.734,179.824,2.19727,-144.426,480
1569682262,320.911,-96.7755,-14.734,179.824,2.19727,-144.426,480
1569682262,320.911,-96.7755,-14.734,179.824,2.19727,-144.426,480
1569682262,320.911,-96.7755,-14.734,179.824,2.19727,-144.426,480
1569682262,320.911,-96.7755,-14.734,179.824,2.19727,-144.426,480
1569682262,320.911,-96.7755,-14.734,179.824,2.19727,-144.426,480
1569682262,320.911,-96.7755,-14.734,179.824,2.19727,-144.426,480
1569682262,320.911,-96.7755,-14.734,179.824,2.19727,-144.426,480
1569682262,320.911,-96.7755,-14.734,179.824,2.19727,-144.404,480
1569682262,320.911,-96.7755,-14.734,179.824,2.19727,-144.404,480
1569682262,320.911,-96.7755,-14.734,179.824,2.19727,-144.404,480
1569682262,320.911,-96.7755,-14.734,179.824,2.19727,-144.404,480
1569682262,320.911,-96.7755,-14.734,179.824,2.19727,-144.404,480
1569682262,320.911,-96.7755,-14.734,179.824,2.19727,-144.404,480
1569682262,320.911,-96.7755,-14.734,179.824,2.19727,-144.404,480
1569682262,320.911,-96.7755,-14.734,179.824,2.19727,-144.426,480
1569682262,320.911,-96.7755,-14.734,179.824,2.19727,-144.426,480
1569682262,320.911,-96.7755,-14.734,179.802,2.19727,-144.426,480
1569682262,320.911,-96.7755,-14.734,179.802,2.19727,-144.426,476
1569682262,320.911,-96.7755,-14.734,179.802,2.19727,-144.426,476
1569682262,320.911,-96.7755,-14.734,179.802,2.19727,-144.426,476
1569682262,320.911,-96.7755,-14.734,179.802,2.19727,-144.426,476
1569682262,320.911,-96.7755,-14.734,179.802,2.17529,-144.426,476
1569682262,320.911,-96.7755,-14.734,179.802,2.17529,-144.426,476
1569682262,320.911,-96.7755,-14.734,179.802,2.17529,-144.426,476
1569682262,320.911,-96.7755,-14.734,179.802,2.17529,-144.426,476
1569682262,320.911,-96.7755,-14.734,179.802,2.17529,-144.426,476
1569682262,320.911,-96.7755,-14.734,179.802,2.17529,-144.426,476
1569682262,320.911,-96.7755,-14.734,179.802,2.17529,-144.426,476
1569682262,320.911,-96.7755,-14.734,179.802,2.17529,-144.426,476
1569682262,320.911,-96.7755,-14.734,179.824,2.17529,-144.426,476
1569682262,320.911,-96.7755,-14.734,179.824,2.17529,-144.426,476
1569682262,320.911,-96.7755,-14.734,179.824,2.17529,-144.426,476
1569682262,320.911,-96.7755,-14.734,179.824,2.17529,-144.426,476
1569682262,320.911,-96.7755,-14.734,179.824,2.17529,-144.426,476
1569682262,320.911,-96.7755,-14.734,179.824,2.17529,-144.426,476
1569682262,320.911,-96.7755,-14.734,179.824,2.17529,-144.426,476
1569682262,320.911,-96.7755,-14.734,179.824,2.17529,-144.426,476
1569682262,320.911,-96.7755,-14.734,179.824,2.17529,-144.426,476
1569682262,320.911,-96.7755,-14.734,179.824,2.19727,-144.426,476
1569682262,320.911,-96.7755,-14.734,179.824,2.19727,-144.426,476
1569682262,320.911,-96.7755,-14.734,179.824,2.19727,-144.426,476
1569682262,320.911,-96.7755,-14.734,179.824,2.19727,-144.426,476
1569682262,320.911,-96.7755,-14.734,179.824,2.19727,-144.426,476
1569682262,320.911,-96.7755,-14.734,179.824,2.19727,-144.426,480
1569682262,320.911,-96.7755,-14.734,179.824,2.19727,-144.426,480
1569682262,320.911,-96.7755,-14.734,179.824,2.19727,-144.426,480
1569682262,320.911,-96.7755,-14.734,179.824,2.19727,-144.404,480
1569682262,320.911,-96.7755,-14.734,179.824,2.19727,-144.404,480
1569682262,320.911,-96.7755,-14.734,179.824,2.19727,-144.404,480
1569682262,320.911,-96.7755,-14.734,179.824,2.19727,-144.404,480
1569682262,320.911,-96.7755,-14.734,179.824,2.19727,-144.404,480
1569682262,320.911,-96.7755,-14.734,179.824,2.19727,-144.404,480
1569682262,320.911,-96.7755,-14.734,179.824,2.17529,-144.404,484
1569682262,320.911,-96.6639,-14.734,179.824,2.17529,-144.404,484
1569682262,320.911,-96.6639,-14.734,179.824,2.17529,-144.404,484
1569682262,320.911,-96.6639,-14.734,179.824,2.17529,-144.404,484
1569682262,320.911,-96.6639,-14.734,179.824,2.17529,-144.426,484
1569682262,320.911,-96.6639,-14.734,179.824,2.17529,-144.426,484
1569682262,320.911,-96.6639,-14.734,179.824,2.17529,-144.426,484
1569682262,320.911,-96.6639,-14.734,179.824,2.17529,-144.426,484
1569682262,320.911,-96.6639,-14.734,179.824,2.17529,-144.426,488
1569682262,320.911,-96.6639,-14.734,179.824,2.17529,-144.426,488
1569682262,320.911,-96.6639,-14.734,179.824,2.17529,-144.426,488
1569682262,320.911,-96.6639,-14.734,179.824,2.17529,-144.426,488
1569682262,320.911,-96.6639,-14.734,179.824,2.17529,-144.426,488
1569682262,320.911,-96.6639,-14.734,179.824,2.17529,-144.426,488
1569682262,320.911,-96.6639,-14.734,179.824,2.17529,-144.426,488
1569682262,320.911,-96.6639,-14.734,179.824,2.17529,-144.426,488
1569682262,320.911,-96.6639,-14.734,179.824,2.17529,-144.426,488
1569682262,320.911,-96.6639,-14.734,179.824,2.17529,-144.426,484
1569682262,320.911,-96.7755,-14.734,179.824,2.17529,-144.426,484
1569682262,320.911,-96.7755,-14.734,179.824,2.17529,-144.426,484
1569682262,320.911,-96.7755,-14.734,179.824,2.17529,-144.426,484
1569682262,320.911,-96.7755,-14.734,179.824,2.17529,-144.426,484
1569682262,320.911,-96.7755,-14.734,179.824,2.17529,-144.426,484
1569682262,320.911,-96.7755,-14.734,179.824,2.17529,-144.426,484
1569682262,320.911,-96.7755,-14.734,179.824,2.17529,-144.426,484
1569682262,320.911,-96.7755,-14.734,179.824,2.17529,-144.426,488
1569682262,320.911,-96.7755,-14.734,179.824,2.17529,-144.426,488
1569682262,320.911,-96.7755,-14.734,179.824,2.17529,-144.426,488
1569682263,320.911,-96.7755,-14.734,179.824,2.17529,-144.426,488
1569682263,320.911,-96.7755,-14.734,179.824,2.17529,-144.426,488
1569682263,320.911,-96.7755,-14.734,179.824,2.17529,-144.426,492
1569682263,320.911,-96.7755,-14.734,179.824,2.17529,-144.426,492
1569682263,320.911,-96.7755,-14.734,179.824,2.17529,-144.426,492
1569682263,320.911,-96.7755,-14.734,179.824,2.17529,-144.426,492
1569682263,320.911,-96.6639,-14.734,179.824,2.17529,-144.426,492
1569682263,320.911,-96.6639,-14.734,179.824,2.17529,-144.426,492
1569682263,320.911,-96.6639,-14.734,179.824,2.17529,-144.426,492
1569682263,320.911,-96.6639,-14.734,179.824,2.17529,-144.426,492
1569682263,320.911,-96.6639,-14.734,179.824,2.17529,-144.426,492
1569682263,320.911,-96.6639,-14.734,179.824,2.17529,-144.426,492
1569682263,320.911,-96.6639,-14.734,179.824,2.17529,-144.426,492
1569682263,320.911,-96.7755,-14.734,179.824,2.17529,-144.426,492
1569682263,320.911,-96.7755,-14.734,179.824,2.19727,-144.426,492
1569682263,320.911,-96.7755,-14.734,179.824,2.19727,-144.426,492
1569682263,320.911,-96.7755,-14.734,179.824,2.19727,-144.426,492
1569682263,320.911,-96.7755,-14.734,179.824,2.19727,-144.426,492
1569682263,320.911,-96.7755,-14.734,179.824,2.19727,-144.426,496
1569682263,320.911,-96.7755,-14.734,179.824,2.19727,-144.426,496
1569682263,320.911,-96.7755,-14.6224,179.824,2.19727,-144.426,496
1569682263,320.911,-96.7755,-14.734,179.824,2.19727,-144.426,496
1569682263,320.911,-96.6639,-14.734,179.824,2.19727,-144.426,496
1569682263,320.911,-96.6639,-14.734,179.824,2.19727,-144.426,496
1569682263,320.911,-96.6639,-14.734,179.824,2.19727,-144.426,496
1569682263,320.911,-96.6639,-14.734,179.824,2.17529,-144.426,496
1569682263,320.911,-96.6639,-14.734,179.824,2.17529,-144.426,496
1569682263,320.911,-96.6639,-14.734,179.824,2.17529,-144.426,496
1569682263,320.911,-96.6639,-14.734,179.824,2.17529,-144.426,496
1569682263,320.911,-96.6639,-14.734,179.824,2.17529,-144.426,496
1569682263,320.911,-96.6639,-14.734,179.824,2.17529,-144.426,492
1569682263,320.911,-96.6639,-14.734,179.824,2.17529,-144.426,492
1569682263,320.911,-96.6639,-14.734,179.824,2.17529,-144.426,492
1569682263,320.911,-96.6639,-14.734,179.824,2.17529,-144.426,492
1569682263,320.911,-96.6639,-14.734,179.824,2.17529,-144.426,492
1569682263,320.911,-96.6639,-14.734,179.824,2.17529,-144.426,492
1569682263,320.911,-96.7755,-14.734,179.824,2.17529,-144.426,492
1569682263,320.911,-96.7755,-14.734,179.824,2.17529,-144.426,488
1569682263,320.911,-96.7755,-14.734,179.824,2.17529,-144.426,488
1569682263,320.911,-96.7755,-14.734,179.824,2.17529,-144.426,488
1569682263,320.911,-96.7755,-14.734,179.824,2.17529,-144.426,488
1569682263,320.911,-96.7755,-14.734,179.824,2.17529,-144.426,488
1569682263,320.911,-96.7755,-14.734,179.802,2.17529,-144.426,488
1569682263,320.911,-96.7755,-14.734,179.802,2.17529,-144.426,488
1569682263,320.911,-96.7755,-14.734,179.802,2.17529,-144.426,488
1569682263,320.911,-96.7755,-14.734,179.802,2.17529,-144.426,488
1569682263,320.911,-96.7755,-14.734,179.802,2.19727,-144.426,488
1569682263,320.911,-96.7755,-14.734,179.802,2.19727,-144.426,488
1569682263,320.911,-96.7755,-14.734,179.802,2.19727,-144.426,488
1569682263,320.911,-96.7755,-14.6224,179.802,2.19727,-144.426,488
1569682263,320.911,-96.7755,-14.6224,179.802,2.19727,-144.426,484
1569682263,320.911,-96.7755,-14.6224,179.802,2.19727,-144.426,484
1569682263,320.911,-96.7755,-14.6224,179.802,2.19727,-144.426,484
1569682263,320.911,-96.7755,-14.6224,179.802,2.19727,-144.426,484
1569682263,320.911,-96.7755,-14.6224,179.802,2.19727,-144.426,484
1569682263,320.911,-96.7755,-14.6224,179.802,2.19727,-144.426,484
1569682263,320.911,-96.7755,-14.6224,179.802,2.19727,-144.426,484
1569682263,320.911,-96.7755,-14.6224,179.802,2.19727,-144.426,484
1569682263,320.911,-96.7755,-14.6224,179.802,2.19727,-144.404,484
1569682263,321.022,-96.7755,-14.6224,179.802,2.19727,-144.404,480
1569682263,321.022,-96.7755,-14.6224,179.802,2.19727,-144.404,480
1569682263,321.022,-96.7755,-14.6224,179.802,2.19727,-144.404,480
1569682263,321.022,-96.7755,-14.6224,179.802,2.19727,-144.404,480
1569682263,321.022,-96.7755,-14.6224,179.802,2.19727,-144.404,480
1569682263,321.022,-96.7755,-14.6224,179.802,2.19727,-144.404,480
1569682263,321.022,-96.7755,-14.6224,179.802,2.19727,-144.404,480
1569682263,321.022,-96.7755,-14.6224,179.802,2.19727,-144.404,480
1569682263,321.022,-96.7755,-14.734,179.802,2.19727,-144.404,480
1569682263,321.022,-96.7755,-14.734,179.802,2.19727,-144.404,480
1569682263,321.022,-96.7755,-14.734,179.802,2.19727,-144.404,480
1569682263,321.022,-96.7755,-14.734,179.802,2.19727,-144.404,480
1569682263,320.911,-96.7755,-14.734,179.802,2.19727,-144.404,480
1569682263,321.022,-96.7755,-14.734,179.802,2.19727,-144.404,480
1569682263,321.022,-96.7755,-14.734,179.802,2.19727,-144.404,476
1569682263,321.022,-96.7755,-14.734,179.802,2.19727,-144.404,476
1569682263,321.022,-96.7755,-14.734,179.802,2.19727,-144.404,476
1569682263,321.022,-96.7755,-14.734,179.802,2.19727,-144.404,476
1569682263,321.022,-96.7755,-14.734,179.802,2.17529,-144.404,476
1569682263,321.022,-96.7755,-14.734,179.802,2.17529,-144.404,476
1569682263,321.022,-96.7755,-14.734,179.802,2.17529,-144.404,476
1569682263,321.022,-96.7755,-14.734,179.802,2.17529,-144.404,472
1569682263,321.022,-96.7755,-14.734,179.802,2.17529,-144.404,472
1569682263,321.022,-96.7755,-14.734,179.802,2.17529,-144.426,472
1569682263,321.022,-96.7755,-14.734,179.802,2.17529,-144.426,472
1569682263,321.022,-96.7755,-14.734,179.802,2.17529,-144.426,472
1569682263,321.022,-96.7755,-14.734,179.802,2.17529,-144.426,472
1569682263,320.911,-96.7755,-14.734,179.802,2.17529,-144.426,472
1569682263,320.911,-96.7755,-14.734,179.802,2.17529,-144.426,472
1569682263,320.911,-96.7755,-14.734,179.802,2.17529,-144.426,472
1569682263,320.911,-96.7755,-14.734,179.802,2.17529,-144.426,472
1569682263,320.911,-96.7755,-14.734,179.824,2.17529,-144.426,472
1569682263,320.911,-96.7755,-14.734,179.824,2.17529,-144.426,472
1569682263,320.911,-96.7755,-14.734,179.824,2.17529,-144.426,472
1569682268,336.314,-112.961,-14.3991,179.912,1.99951,-144.097,500
1569682268,336.314,-112.961,-14.3991,179.912,1.99951,-144.097,500
1569682268,336.314,-112.961,-14.3991,179.912,1.99951,-144.097,500
1569682268,336.314,-112.849,-14.3991,179.912,1.99951,-144.097,500
1569682268,336.314,-112.849,-14.3991,179.912,1.99951,-144.097,504
1569682268,336.314,-112.961,-14.3991,179.912,1.99951,-144.075,504
1569682268,336.314,-112.961,-14.3991,179.912,1.99951,-144.075,504
1569682268,336.314,-112.961,-14.3991,179.912,1.99951,-144.075,504
1569682268,336.314,-112.961,-14.3991,179.912,1.99951,-144.075,504
1569682268,336.314,-112.961,-14.3991,179.912,1.99951,-144.075,504
1569682268,336.314,-112.961,-14.3991,179.912,2.02148,-144.075,504
1569682268,336.314,-112.961,-14.3991,179.912,2.02148,-144.075,504
1569682268,336.314,-112.961,-14.3991,179.912,2.02148,-144.075,504
1569682268,336.314,-112.961,-14.3991,179.912,2.02148,-144.075,504
1569682268,336.314,-112.961,-14.3991,179.912,2.02148,-144.075,504
1569682268,336.314,-112.961,-14.3991,179.912,2.02148,-144.075,504
1569682268,336.314,-112.961,-14.3991,179.912,2.02148,-144.075,504
1569682268,336.314,-112.961,-14.3991,179.912,2.02148,-144.075,504
1569682268,336.314,-112.849,-14.3991,179.912,2.02148,-144.075,504
1569682268,336.314,-112.849,-14.3991,179.912,2.02148,-144.075,504
1569682268,336.314,-112.849,-14.3991,179.934,2.02148,-144.075,504
1569682268,336.314,-112.849,-14.3991,179.934,2.02148,-144.075,504
1569682268,336.314,-112.849,-14.3991,179.934,2.02148,-144.075,504
1569682268,336.314,-112.849,-14.3991,179.934,2.02148,-144.075,504
1569682268,336.314,-112.849,-14.3991,179.934,2.02148,-144.075,504
1569682268,336.314,-112.849,-14.3991,179.934,2.02148,-144.075,504
1569682268,336.314,-112.849,-14.3991,179.934,2.02148,-144.075,508
1569682268,336.314,-112.849,-14.3991,179.934,2.02148,-144.075,508
1569682268,336.314,-112.849,-14.3991,179.934,2.02148,-144.075,508
1569682268,336.314,-112.849,-14.3991,179.934,2.02148,-144.075,508
1569682268,336.314,-112.849,-14.3991,179.934,2.02148,-144.075,508
1569682268,336.314,-112.849,-14.3991,179.934,2.02148,-144.075,508
1569682268,336.314,-112.849,-14.3991,179.934,2.02148,-144.075,508
1569682268,336.314,-112.849,-14.3991,179.934,2.02148,-144.075,508
1569682269,336.314,-112.849,-14.3991,179.934,2.02148,-144.075,508
1569682269,336.314,-112.849,-14.3991,179.912,2.02148,-144.075,508
1569682269,336.314,-112.849,-14.3991,179.912,2.02148,-144.075,508
1569682269,336.314,-112.849,-14.3991,179.912,2.02148,-144.075,508
1569682269,336.314,-112.849,-14.3991,179.912,1.99951,-144.075,508
1569682269,336.314,-112.849,-14.3991,179.912,1.99951,-144.075,508
1569682269,336.314,-112.849,-14.3991,179.912,1.99951,-144.075,508
1569682269,336.314,-112.849,-14.3991,179.912,1.99951,-144.075,508
1569682269,336.314,-112.849,-14.3991,179.912,1.99951,-144.075,508
1569682269,336.314,-112.849,-14.3991,179.912,1.99951,-144.075,508
1569682269,336.314,-112.849,-14.3991,179.912,1.99951,-144.075,508
1569682269,336.314,-112.849,-14.3991,179.912,1.99951,-144.075,512
1569682269,336.314,-112.849,-14.3991,179.912,1.99951,-144.075,512
1569682269,336.314,-112.849,-14.3991,179.912,2.02148,-144.075,512
1569682269,336.314,-112.849,-14.3991,179.912,2.02148,-144.075,512
1569682269,336.314,-112.849,-14.3991,179.912,2.02148,-144.075,512
1569682269,336.314,-112.961,-14.3991,179.912,2.02148,-144.075,512
1569682269,336.314,-112.961,-14.3991,179.912,2.02148,-144.075,516
1569682269,336.314,-112.961,-14.3991,179.912,2.02148,-144.075,516
1569682269,336.314,-112.961,-14.3991,179.912,2.02148,-144.075,516
1569682269,336.314,-112.961,-14.3991,179.912,2.02148,-144.075,516
1569682269,336.314,-112.961,-14.3991,179.912,2.02148,-144.075,516
1569682269,336.314,-112.961,-14.3991,179.912,2.02148,-144.075,516
1569682269,336.314,-112.849,-14.3991,179.912,2.02148,-144.075,516
1569682269,336.314,-112.849,-14.3991,179.912,2.02148,-144.075,516
1569682269,336.314,-112.849,-14.3991,179.912,2.02148,-144.075,516
1569682269,336.314,-112.849,-14.3991,179.912,2.02148,-144.075,516
1569682269,336.314,-112.849,-14.3991,179.912,2.02148,-144.075,516
1569682269,336.314,-112.961,-14.3991,179.89,1.99951,-144.075,516
1569682269,336.314,-112.961,-14.3991,179.89,1.99951,-144.075,516
1569682269,336.314,-112.961,-14.3991,179.89,2.02148,-144.075,516
1569682269,336.203,-112.961,-14.3991,179.89,2.02148,-144.075,516
1569682269,336.203,-112.961,-14.3991,179.89,2.02148,-144.075,516
1569682269,336.203,-112.961,-14.3991,179.89,2.02148,-144.075,516
1569682269,336.203,-112.961,-14.3991,179.89,2.02148,-144.075,516
1569682269,336.203,-112.961,-14.3991,179.89,2.02148,-144.075,516
1569682269,336.203,-112.961,-14.3991,179.89,2.02148,-144.075,516
1569682269,336.314,-112.961,-14.3991,179.89,2.02148,-144.075,516
1569682269,336.314,-112.961,-14.3991,179.89,2.02148,-144.075,516
1569682269,336.314,-112.961,-14.3991,179.89,2.02148,-144.075,516
1569682269,336.314,-112.961,-14.3991,179.89,2.02148,-144.075,516
1569682269,336.314,-112.961,-14.3991,179.89,2.02148,-144.075,516
1569682269,336.314,-112.961,-14.3991,179.89,2.02148,-144.075,516
1569682269,336.314,-112.961,-14.3991,179.912,2.02148,-144.075,516
1569682269,336.314,-112.961,-14.3991,179.912,2.02148,-144.075,516
1569682269,336.314,-112.849,-14.3991,179.912,2.02148,-144.075,516
1569682269,336.314,-112.849,-14.3991,179.912,2.02148,-144.075,516
1569682269,336.314,-112.849,-14.3991,179.912,2.02148,-144.075,516
1569682269,336.314,-112.849,-14.3991,179.912,2.02148,-144.075,516
1569682269,336.314,-112.849,-14.3991,179.912,2.02148,-144.075,516
1569682269,336.314,-112.849,-14.3991,179.912,2.02148,-144.075,516
1569682269,336.314,-112.849,-14.3991,179.934,2.02148,-144.075,516
1569682269,336.314,-112.849,-14.3991,179.934,2.02148,-144.075,516
1569682269,336.314,-112.849,-14.3991,179.934,2.02148,-144.075,516
1569682269,336.314,-112.849,-14.3991,179.934,2.02148,-144.075,516
1569682269,336.314,-112.849,-14.3991,179.934,2.02148,-144.075,516
1569682269,336.314,-112.849,-14.3991,179.934,2.02148,-144.075,516
1569682269,336.314,-112.849,-14.3991,179.934,2.02148,-144.075,516
1569682269,336.314,-112.849,-14.3991,179.912,2.02148,-144.075,516
1569682269,336.314,-112.849,-14.3991,179.912,2.02148,-144.075,516
1569682269,336.314,-112.849,-14.3991,179.912,2.02148,-144.075,516
1569682269,336.314,-112.849,-14.3991,179.912,2.02148,-144.075,516
1569682269,336.314,-112.849,-14.3991,179.912,2.02148,-144.075,516
1569682269,336.314,-112.849,-14.3991,179.912,1.99951,-144.075,512
1569682269,336.314,-112.849,-14.5107,179.912,1.99951,-144.075,512
1569682269,336.314,-112.849,-14.5107,179.912,1.99951,-144.075,512
1569682269,336.314,-112.849,-14.5107,179.912,1.99951,-144.075,512
1569682269,336.314,-112.849,-14.5107,179.912,1.99951,-144.075,512
1569682269,336.314,-112.849,-14.5107,179.912,1.99951,-144.075,512
1569682269,336.314,-112.849,-14.5107,179.912,1.99951,-144.075,512
1569682269,336.314,-112.849,-14.5107,179.912,1.97754,-144.075,512
1569682269,336.314,-112.849,-14.5107,179.912,1.97754,-144.075,512
1569682269,336.314,-112.849,-14.5107,179.912,1.97754,-144.075,516
1569682269,336.314,-112.849,-14.5107,179.912,1.97754,-144.075,516
1569682269,336.314,-112.849,-14.5107,179.912,1.97754,-144.075,516
1569682269,336.314,-112.849,-14.5107,179.912,1.97754,-144.075,516
1569682269,336.314,-112.849,-14.5107,179.912,1.97754,-144.075,516
1569682269,336.314,-112.849,-14.5107,179.912,1.97754,-144.075,516
1569682269,336.314,-112.849,-14.5107,179.912,1.97754,-144.075,516
1569682269,336.314,-112.849,-14.5107,179.912,1.97754,-144.075,516
1569682269,336.314,-112.849,-14.5107,179.912,1.97754,-144.075,516
1569682269,336.314,-112.961,-14.5107,179.912,1.97754,-144.075,516
1569682269,336.314,-112.961,-14.5107,179.912,1.97754,-144.075,516
1569682269,336.314,-112.961,-14.5107,179.912,1.97754,-144.075,516
1569682269,336.314,-112.961,-14.5107,179.912,1.97754,-144.075,516
1569682269,336.314,-112.961,-14.5107,179.912,1.97754,-144.075,516
1569682269,336.314,-112.961,-14.5107,179.912,1.97754,-144.075,516
1569682269,336.314,-112.961,-14.5107,179.912,1.99951,-144.075,516
1569682269,336.314,-112.961,-14.5107,179.912,1.99951,-144.075,516
1569682269,336.314,-112.961,-14.5107,179.912,1.99951,-144.075,516
1569682269,336.314,-112.961,-14.5107,179.912,1.99951,-144.075,516
1569682269,336.314,-112.849,-14.3991,179.912,1.99951,-144.075,516
1569682269,336.314,-112.849,-14.3991,179.912,1.99951,-144.075,516
1569682269,336.314,-112.849,-14.3991,179.912,1.99951,-144.075,516
1569682269,336.314,-112.849,-14.3991,179.912,1.99951,-144.075,516
1569682269,336.314,-112.849,-14.3991,179.912,1.99951,-144.075,516
1569682269,336.314,-112.849,-14.3991,179.912,1.99951,-144.075,516
1569682269,336.314,-112.849,-14.3991,179.912,1.99951,-144.075,516
1569682269,336.314,-112.849,-14.3991,179.912,1.99951,-144.075,516
1569682269,336.314,-112.849,-14.3991,179.912,1.99951,-144.075,516
1569682270,336.314,-112.849,-14.3991,179.912,1.99951,-144.075,516
1569682270,336.314,-112.849,-14.3991,179.912,1.99951,-144.075,516
1569682270,336.314,-112.849,-14.3991,179.912,1.99951,-144.075,516
1569682270,336.314,-112.849,-14.3991,179.912,1.99951,-144.075,516
1569682270,336.314,-112.849,-14.3991,179.912,1.99951,-144.075,516
1569682270,336.314,-112.849,-14.3991,179.912,1.99951,-144.075,516
1569682270,336.314,-112.849,-14.3991,179.912,1.99951,-144.075,516
1569682270,336.314,-112.849,-14.3991,179.912,1.99951,-144.075,516
1569682270,336.314,-112.849,-14.3991,179.912,1.99951,-144.075,516
1569682270,336.314,-112.849,-14.3991,179.912,1.99951,-144.075,516
1569682270,336.314,-112.849,-14.3991,179.912,1.99951,-144.075,516
1569682270,336.314,-112.849,-14.3991,179.912,1.99951,-144.075,516
1569682270,336.314,-112.849,-14.3991,179.934,2.02148,-144.075,516
1569682270,336.314,-112.849,-14.3991,179.934,2.02148,-144.075,516
1569682270,336.314,-112.849,-14.3991,179.934,2.02148,-144.075,516
1569682270,336.314,-112.849,-14.3991,179.934,2.02148,-144.075,516
1569682270,336.314,-112.849,-14.3991,179.934,2.02148,-144.075,516
1569682270,336.314,-112.849,-14.3991,179.934,2.02148,-144.075,516
1569682270,336.314,-112.849,-14.3991,179.934,2.02148,-144.075,516
1569682270,336.314,-112.849,-14.3991,179.934,2.02148,-144.075,516
1569682270,336.314,-112.849,-14.3991,179.934,2.02148,-144.075,516
1569682270,336.314,-112.849,-14.3991,179.934,2.02148,-144.075,516
1569682270,336.314,-112.849,-14.3991,179.934,2.02148,-144.075,516
1569682270,336.314,-112.849,-14.3991,179.934,2.02148,-144.075,516
1569682270,336.314,-112.849,-14.3991,179.934,2.02148,-144.075,516
1569682270,336.314,-112.849,-14.3991,179.934,1.99951,-144.075,516
1569682270,336.314,-112.849,-14.3991,179.934,1.99951,-144.075,520
1569682270,336.314,-112.849,-14.3991,179.934,1.99951,-144.075,520
1569682270,336.314,-112.849,-14.5107,179.934,1.99951,-144.075,520
1569682270,336.314,-112.849,-14.5107,179.934,1.99951,-144.075,520
1569682270,336.314,-112.849,-14.5107,179.934,1.99951,-144.075,520
1569682270,336.314,-112.849,-14.5107,179.934,1.99951,-144.075,520
1569682270,336.314,-112.849,-14.5107,179.934,1.99951,-144.075,520
1569682270,336.314,-112.849,-14.5107,179.934,1.99951,-144.075,520
1569682270,336.314,-112.849,-14.5107,179.912,1.99951,-144.075,520
1569682270,336.314,-112.849,-14.5107,179.912,1.99951,-144.075,520
1569682270,336.314,-112.849,-14.5107,179.912,1.99951,-144.075,520
1569682270,336.314,-112.849,-14.3991,179.912,1.99951,-144.075,516
1569682270,336.314,-112.849,-14.3991,179.912,1.99951,-144.075,516
1569682270,336.314,-112.849,-14.3991,179.912,1.99951,-144.075,516
1569682270,336.314,-112.849,-14.3991,179.912,2.02148,-144.075,516
1569682270,336.314,-112.849,-14.3991,179.912,2.02148,-144.075,516
1569682270,336.203,-112.849,-14.3991,179.912,2.02148,-144.075,516
1569682270,336.203,-112.849,-14.3991,179.912,2.02148,-144.075,516
1569682270,336.203,-112.849,-14.3991,179.912,2.02148,-144.075,516
1569682270,336.203,-112.849,-14.3991,179.912,2.02148,-144.075,516
1569682270,336.203,-112.849,-14.3991,179.912,2.02148,-144.075,520
1569682270,336.203,-112.849,-14.3991,179.912,2.02148,-144.075,520
1569682270,336.203,-112.849,-14.3991,179.912,2.02148,-144.075,520
1569682270,336.203,-112.849,-14.3991,179.912,2.02148,-144.075,520
1569682270,336.203,-112.849,-14.3991,179.912,2.02148,-144.075,520
1569682270,336.203,-112.849,-14.3991,179.912,2.02148,-144.075,524
1569682270,336.203,-112.849,-14.3991,179.912,2.02148,-144.097,524
1569682270,336.203,-112.849,-14.3991,179.912,2.02148,-144.097,524
1569682270,336.203,-112.849,-14.3991,179.912,1.99951,-144.097,524
1569682270,336.203,-112.849,-14.3991,179.912,1.99951,-144.097,524
1569682270,336.203,-112.849,-14.5107,179.912,1.99951,-144.097,524
1569682270,336.314,-112.849,-14.5107,179.912,1.99951,-144.097,528
1569682270,336.314,-112.849,-14.5107,179.912,1.99951,-144.097,528
1569682270,336.314,-112.849,-14.5107,179.912,1.99951,-144.075,528
1569682270,336.314,-112.849,-14.5107,179.912,1.99951,-144.075,528
1569682270,336.314,-112.849,-14.5107,179.912,1.99951,-144.075,528
1569682270,336.314,-112.849,-14.5107,179.912,1.99951,-144.075,528
1569682270,336.314,-112.849,-14.5107,179.934,1.99951,-144.075,528
1569682270,336.314,-112.849,-14.5107,179.934,1.99951,-144.075,528
1569682270,336.314,-112.849,-14.5107,179.934,1.99951,-144.075,528
1569682270,336.314,-112.849,-14.5107,179.934,1.99951,-144.075,528
1569682270,336.314,-112.849,-14.5107,179.934,1.99951,-144.097,528
1569682270,336.314,-112.849,-14.5107,179.912,1.99951,-144.097,528
1569682270,336.314,-112.849,-14.5107,179.912,1.99951,-144.097,528
1569682270,336.314,-112.849,-14.5107,179.912,1.99951,-144.097,528
1569682270,336.314,-112.849,-14.5107,179.912,1.99951,-144.097,528
1569682270,336.314,-112.849,-14.5107,179.912,1.99951,-144.097,528
1569682270,336.314,-112.849,-14.5107,179.912,1.99951,-144.097,528
1569682270,336.314,-112.849,-14.5107,179.912,1.99951,-144.075,528
1569682270,336.314,-112.849,-14.5107,179.912,1.99951,-144.075,528
1569682270,336.314,-112.849,-14.5107,179.912,1.99951,-144.075,528
1569682270,336.314,-112.849,-14.3991,179.912,1.99951,-144.075,528
1569682270,336.314,-112.849,-14.3991,179.912,2.02148,-144.075,528
1569682270,336.314,-112.849,-14.3991,179.912,2.02148,-144.075,528
1569682270,336.314,-112.849,-14.3991,179.912,2.02148,-144.075,528
1569682270,336.314,-112.849,-14.3991,179.912,2.02148,-144.097,524
1569682270,336.314,-112.849,-14.3991,179.912,2.02148,-144.097,524
1569682270,336.314,-112.849,-14.3991,179.934,2.02148,-144.075,524
1569682270,336.314,-112.849,-14.3991,179.934,2.02148,-144.075,524
1569682270,336.314,-112.849,-14.3991,179.912,2.02148,-144.075,524
1569682270,336.314,-112.849,-14.3991,179.912,2.02148,-144.075,524
1569682270,336.314,-112.849,-14.3991,179.912,2.02148,-144.075,524
1569682270,336.314,-112.849,-14.3991,179.912,1.99951,-144.075,524
1569682270,336.314,-112.849,-14.3991,179.912,1.99951,-144.075,528
1569682270,336.314,-112.849,-14.3991,179.912,1.99951,-144.097,528
1569682270,336.314,-112.849,-14.3991,179.912,1.99951,-144.097,528
1569682270,336.314,-112.849,-14.3991,179.912,1.99951,-144.097,528
1569682270,336.314,-112.849,-14.3991,179.912,1.99951,-144.097,528
1569682270,336.314,-112.849,-14.3991,179.912,2.02148,-144.097,528
1569682270,336.314,-112.849,-14.3991,179.912,2.02148,-144.097,528
1569682270,336.314,-112.849,-14.3991,179.912,2.02148,-144.097,528
1569682270,336.314,-112.849,-14.3991,179.912,2.02148,-144.097,528
1569682270,336.314,-112.849,-14.3991,179.912,2.02148,-144.097,528
1569682270,336.314,-112.849,-14.3991,179.912,2.02148,-144.097,528
1569682271,336.314,-112.849,-14.3991,179.912,2.02148,-144.097,528
1569682271,336.314,-112.849,-14.3991,179.912,2.02148,-144.097,532
1569682271,336.314,-112.849,-14.3991,179.912,2.02148,-144.097,532
1569682271,336.314,-112.849,-14.3991,179.912,2.02148,-144.097,532
1569682271,336.314,-112.849,-14.3991,179.912,2.04346,-144.097,532
1569682271,336.314,-112.849,-14.3991,179.912,2.04346,-144.097,532
1569682271,336.314,-112.849,-14.3991,179.912,2.04346,-144.097,532
1569682271,336.314,-112.849,-14.3991,179.912,2.04346,-144.097,532
1569682271,336.314,-112.849,-14.2875,179.912,2.04346,-144.075,532
1569682271,336.314,-112.849,-14.2875,179.912,2.04346,-144.075,528
1569682271,336.314,-112.849,-14.2875,179.912,2.04346,-144.075,528
1569682271,336.314,-112.849,-14.3991,179.912,2.02148,-144.075,528
1569682271,336.314,-112.849,-14.3991,179.912,2.02148,-144.075,528
1569682271,336.314,-112.849,-14.3991,179.912,2.02148,-144.075,528
1569682271,336.314,-112.849,-14.3991,179.912,2.02148,-144.075,528
1569682271,336.314,-112.849,-14.3991,179.912,2.02148,-144.075,524
1569682271,336.314,-112.849,-14.3991,179.912,2.02148,-144.075,524
1569682271,336.314,-112.849,-14.3991,179.912,2.02148,-144.075,524
1569682271,336.314,-112.849,-14.3991,179.912,2.02148,-144.075,524
1569682271,336.314,-112.849,-14.3991,179.912,1.99951,-144.075,520
1569682271,336.314,-112.849,-14.3991,179.912,1.99951,-144.075,520
1569682271,336.314,-112.849,-14.3991,179.912,1.99951,-144.075,520
1569682271,336.314,-112.849,-14.3991,179.934,1.99951,-144.075,520
1569682271,336.314,-112.849,-14.3991,179.934,1.99951,-144.075,516
1569682271,336.314,-112.849,-14.5107,179.934,1.99951,-144.075,516
1569682271,336.314,-112.849,-14.5107,179.934,1.99951,-144.075,516
1569682271,336.314,-112.849,-14.5107,179.934,1.99951,-144.075,516
1569682271,336.314,-112.849,-14.5107,179.934,1.99951,-144.075,516
1569682271,336.314,-112.849,-14.5107,179.934,1.99951,-144.075,516
1569682271,336.314,-112.849,-14.5107,179.934,1.99951,-144.075,516
1569682271,336.314,-112.849,-14.3991,179.934,1.99951,-144.075,516
1569682271,336.314,-112.849,-14.3991,179.934,1.99951,-144.075,516
1569682271,336.314,-112.849,-14.3991,179.934,1.99951,-144.075,516
1569682271,336.314,-112.849,-14.3991,179.934,1.99951,-144.075,516
1569682271,336.314,-112.849,-14.3991,179.934,1.99951,-144.075,516
1569682271,336.314,-112.849,-14.3991,179.912,1.99951,-144.075,516
1569682271,336.314,-112.849,-14.3991,179.912,2.02148,-144.075,516
1569682271,336.314,-112.849,-14.3991,179.912,2.02148,-144.075,516
1569682271,336.314,-112.849,-14.3991,179.912,2.02148,-144.075,516
1569682271,336.314,-112.849,-14.3991,179.912,2.02148,-144.075,516
1569682271,336.314,-112.849,-14.3991,179.912,2.02148,-144.075,516
1569682271,336.314,-112.961,-14.3991,179.912,2.02148,-144.075,516
1569682271,336.314,-112.961,-14.3991,179.912,2.02148,-144.075,516
1569682271,336.314,-112.961,-14.3991,179.912,2.02148,-144.075,516
1569682271,336.314,-112.961,-14.3991,179.89,2.02148,-144.075,516
1569682271,336.314,-112.961,-14.3991,179.89,2.02148,-144.097,516
1569682271,336.314,-112.961,-14.3991,179.89,2.02148,-144.097,516
1569682271,336.314,-112.961,-14.3991,179.89,2.02148,-144.097,516
1569682271,336.314,-112.961,-14.3991,179.89,2.02148,-144.097,520
1569682271,336.314,-112.961,-14.3991,179.89,2.02148,-144.097,520
1569682271,336.314,-112.961,-14.3991,179.89,2.02148,-144.097,520
1569682271,336.314,-112.961,-14.3991,179.89,2.02148,-144.097,520
1569682271,336.314,-112.961,-14.3991,179.89,2.02148,-144.097,520
1569682271,336.314,-112.961,-14.3991,179.89,2.02148,-144.097,520
1569682271,336.314,-112.961,-14.3991,179.89,2.02148,-144.097,520
1569682271,336.314,-112.961,-14.3991,179.89,2.02148,-144.097,520
1569682271,336.314,-112.961,-14.3991,179.89,2.02148,-144.097,520
1569682271,336.314,-112.961,-14.3991,179.89,2.02148,-144.097,520
1569682271,336.314,-112.961,-14.3991,179.89,1.99951,-144.097,520
1569682271,336.314,-112.961,-14.3991,179.89,1.99951,-144.097,520
1569682271,336.314,-112.961,-14.3991,179.89,1.99951,-144.097,520
1569682271,336.314,-112.961,-14.3991,179.912,1.99951,-144.097,520
1569682271,336.314,-112.849,-14.3991,179.912,1.99951,-144.097,520
1569682271,336.314,-112.849,-14.3991,179.912,1.99951,-144.097,520
1569682271,336.314,-112.849,-14.3991,179.912,1.99951,-144.097,520
1569682271,336.314,-112.849,-14.3991,179.912,1.99951,-144.097,520
1569682271,336.314,-112.849,-14.3991,179.912,1.99951,-144.097,520
1569682271,336.314,-112.849,-14.3991,179.912,1.99951,-144.075,520
1569682271,336.314,-112.849,-14.3991,179.934,1.99951,-144.075,520
1569682271,336.314,-112.849,-14.3991,179.934,1.99951,-144.075,520
1569682271,336.314,-112.849,-14.3991,179.934,1.99951,-144.075,520
1569682271,336.314,-112.849,-14.3991,179.934,1.99951,-144.075,520
1569682271,336.314,-112.849,-14.3991,179.934,1.99951,-144.075,520
1569682271,336.314,-112.849,-14.3991,179.934,1.99951,-144.075,520
1569682271,336.314,-112.849,-14.3991,179.934,1.99951,-144.075,520
1569682271,336.314,-112.849,-14.3991,179.934,1.99951,-144.075,520
1569682271,336.314,-112.849,-14.3991,179.934,1.99951,-144.075,524
1569682271,336.314,-112.849,-14.3991,179.934,1.99951,-144.075,524
1569682271,336.314,-112.849,-14.3991,179.934,1.99951,-144.075,524
1569682271,336.314,-112.849,-14.3991,179.934,1.99951,-144.075,524
1569682271,336.314,-112.849,-14.3991,179.934,1.99951,-144.075,524
1569682271,336.314,-112.849,-14.3991,179.934,1.99951,-144.075,524
1569682271,336.314,-112.849,-14.3991,179.934,1.99951,-144.075,524
1569682271,336.314,-112.849,-14.3991,179.934,1.99951,-144.075,524
1569682271,336.314,-112.849,-14.3991,179.934,1.99951,-144.075,524
1569682271,336.314,-112.849,-14.3991,179.934,1.99951,-144.075,524
1569682271,336.314,-112.849,-14.3991,179.934,1.99951,-144.075,524
1569682271,336.314,-112.849,-14.3991,179.934,1.99951,-144.075,524
1569682271,336.314,-112.849,-14.3991,179.934,1.99951,-144.075,524
1569682271,336.314,-112.849,-14.3991,179.934,1.99951,-144.075,524
1569682271,336.314,-112.849,-14.3991,179.934,1.99951,-144.075,520
1569682271,336.314,-112.849,-14.3991,179.934,2.02148,-144.075,520
1569682271,336.314,-112.849,-14.3991,179.934,2.02148,-144.075,520
1569682271,336.314,-112.849,-14.3991,179.934,2.02148,-144.075,520
1569682271,336.314,-112.849,-14.3991,179.934,2.02148,-144.075,520
1569682271,336.314,-112.849,-14.3991,179.934,2.02148,-144.053,520
1569682271,336.314,-112.849,-14.3991,179.912,2.02148,-144.053,520
1569682271,336.314,-112.849,-14.3991,179.912,2.02148,-144.053,520
1569682271,336.314,-112.849,-14.3991,179.912,2.02148,-144.075,520
1569682271,336.314,-112.849,-14.3991,179.912,2.02148,-144.075,520
1569682272,336.314,-112.849,-14.3991,179.912,2.02148,-144.075,516
1569682272,336.314,-112.849,-14.3991,179.912,2.02148,-144.075,516
1569682272,336.314,-112.849,-14.3991,179.912,2.02148,-144.075,516
1569682272,336.314,-112.849,-14.3991,179.912,2.02148,-144.075,516
1569682272,336.314,-112.849,-14.3991,179.912,2.02148,-144.075,516
1569682272,336.314,-112.961,-14.3991,179.912,2.02148,-144.075,516
1569682272,336.314,-112.961,-14.3991,179.912,2.02148,-144.075,516
1569682272,336.314,-112.961,-14.3991,179.89,2.02148,-144.075,516
1569682272,336.314,-112.961,-14.3991,179.89,2.02148,-144.075,516
1569682272,336.314,-112.961,-14.3991,179.89,2.02148,-144.075,516
1569682272,336.314,-112.961,-14.3991,179.89,2.02148,-144.075,516
1569682272,336.314,-112.961,-14.3991,179.89,2.02148,-144.075,516
1569682272,336.314,-112.961,-14.3991,179.89,2.02148,-144.075,516
1569682272,336.314,-112.961,-14.3991,179.89,2.02148,-144.075,516
1569682272,336.314,-112.961,-14.3991,179.89,2.02148,-144.075,516
1569682272,336.314,-112.961,-14.3991,179.89,2.02148,-144.075,516
1569682272,336.314,-112.961,-14.3991,179.89,2.02148,-144.075,516
1569682272,336.314,-112.961,-14.3991,179.89,2.02148,-144.075,516
1569682272,336.314,-112.961,-14.3991,179.89,2.02148,-144.075,520
1569682272,336.314,-112.961,-14.3991,179.89,2.02148,-144.075,520
1569682272,336.314,-112.961,-14.3991,179.89,2.02148,-144.075,520
1569682272,336.314,-112.961,-14.3991,179.89,2.02148,-144.075,520
1569682272,336.314,-112.961,-14.3991,179.89,2.02148,-144.075,520
1569682272,336.314,-112.961,-14.3991,179.89,2.02148,-144.075,524
1569682272,336.314,-112.961,-14.3991,179.89,2.02148,-144.075,524
1569682272,336.314,-112.961,-14.3991,179.89,2.02148,-144.075,524
1569682272,336.314,-112.961,-14.3991,179.89,2.02148,-144.075,524
1569682272,336.314,-112.961,-14.3991,179.89,2.04346,-144.075,524
1569682272,336.314,-112.849,-14.3991,179.89,2.04346,-144.097,524
1569682272,336.314,-112.849,-14.3991,179.89,2.04346,-144.097,524
1569682272,336.314,-112.849,-14.3991,179.912,2.04346,-144.097,524
1569682272,336.314,-112.849,-14.3991,179.912,2.04346,-144.097,524
1569682272,336.314,-112.849,-14.3991,179.912,2.04346,-144.097,520
1569682272,336.314,-112.849,-14.3991,179.912,2.02148,-144.097,520
1569682272,336.314,-112.849,-14.3991,179.912,2.02148,-144.097,520
1569682272,336.314,-112.849,-14.3991,179.912,2.02148,-144.097,520
1569682272,336.314,-112.849,-14.3991,179.912,2.02148,-144.097,520
1569682272,336.314,-112.849,-14.3991,179.912,2.02148,-144.097,520
1569682272,336.314,-112.849,-14.3991,179.912,2.02148,-144.097,520
1569682272,336.314,-112.849,-14.3991,179.912,2.02148,-144.097,520
1569682272,336.314,-112.849,-14.3991,179.912,2.02148,-144.097,520
1569682272,336.314,-112.849,-14.3991,179.912,2.02148,-144.097,520
1569682272,336.314,-112.849,-14.3991,179.912,2.02148,-144.097,520
1569682272,336.314,-112.849,-14.3991,179.912,2.02148,-144.097,520
1569682272,336.314,-112.849,-14.3991,179.912,2.02148,-144.097,520
1569682272,336.314,-112.849,-14.3991,179.912,2.02148,-144.097,520
1569682272,336.314,-112.849,-14.3991,179.912,2.02148,-144.097,520
1569682272,336.314,-112.849,-14.3991,179.912,2.02148,-144.097,520
1569682272,336.314,-112.849,-14.5107,179.912,1.99951,-144.097,520
1569682272,336.314,-112.849,-14.5107,179.912,1.99951,-144.097,520
1569682272,336.314,-112.849,-14.5107,179.912,1.99951,-144.097,520
1569682272,336.314,-112.849,-14.5107,179.912,1.99951,-144.097,520
1569682272,336.314,-112.849,-14.5107,179.912,1.99951,-144.097,520
1569682272,336.314,-112.849,-14.5107,179.912,1.99951,-144.097,520
1569682272,336.314,-112.849,-14.5107,179.912,1.99951,-144.097,520
1569682272,336.314,-112.849,-14.5107,179.934,1.99951,-144.097,520
1569682272,336.314,-112.849,-14.5107,179.934,1.99951,-144.097,520
1569682272,336.314,-112.849,-14.5107,179.934,1.99951,-144.097,520
1569682272,336.314,-112.849,-14.5107,179.934,1.99951,-144.097,520
1569682272,336.314,-112.849,-14.5107,179.934,1.99951,-144.097,520
1569682272,336.314,-112.849,-14.5107,179.934,1.99951,-144.097,520
1569682272,336.314,-112.737,-14.5107,179.934,1.99951,-144.097,520
1569682272,336.314,-112.737,-14.5107,179.934,1.99951,-144.097,520
1569682272,336.314,-112.737,-14.5107,179.934,1.99951,-144.097,520
1569682272,336.314,-112.737,-14.5107,179.934,1.99951,-144.097,520
1569682272,336.314,-112.849,-14.5107,179.934,1.99951,-144.097,520
1569682272,336.314,-112.849,-14.5107,179.934,1.99951,-144.097,520
1569682272,336.314,-112.849,-14.5107,179.934,1.99951,-144.097,520
1569682272,336.314,-112.849,-14.5107,179.912,1.99951,-144.097,520
1569682272,336.314,-112.849,-14.5107,179.912,1.99951,-144.097,520
1569682272,336.314,-112.849,-14.5107,179.912,1.99951,-144.097,520
1569682272,336.314,-112.849,-14.5107,179.912,1.99951,-144.097,520
1569682272,336.314,-112.849,-14.5107,179.912,1.99951,-144.097,520
1569682272,336.314,-112.849,-14.5107,179.912,1.97754,-144.097,520
1569682272,336.314,-112.849,-14.5107,179.912,1.97754,-144.097,520
1569682272,336.314,-112.961,-14.5107,179.89,1.97754,-144.075,520
1569682272,336.314,-112.961,-14.5107,179.89,1.97754,-144.075,516
1569682272,336.314,-112.961,-14.5107,179.89,1.97754,-144.075,516
1569682272,336.314,-112.961,-14.5107,179.89,1.97754,-144.075,516
1569682272,336.314,-112.961,-14.5107,179.89,1.97754,-144.075,516
1569682272,336.314,-112.961,-14.5107,179.89,1.97754,-144.075,516
1569682272,336.314,-112.961,-14.5107,179.89,1.99951,-144.075,516
1569682272,336.314,-112.961,-14.5107,179.89,1.99951,-144.075,512
1569682272,336.314,-112.961,-14.5107,179.89,1.99951,-144.075,512
1569682272,336.314,-112.961,-14.5107,179.89,1.99951,-144.075,512
1569682272,336.314,-112.961,-14.5107,179.89,1.99951,-144.075,512
1569682272,336.314,-112.961,-14.5107,179.89,1.99951,-144.075,512
1569682272,336.314,-112.961,-14.5107,179.89,1.99951,-144.075,512
1569682272,336.314,-112.961,-14.5107,179.89,1.99951,-144.075,512
1569682272,336.314,-112.961,-14.5107,179.89,1.99951,-144.075,512
1569682272,336.314,-112.961,-14.5107,179.89,1.99951,-144.075,512
1569682272,336.314,-112.961,-14.5107,179.89,1.99951,-144.075,512
1569682272,336.314,-112.961,-14.5107,179.89,1.99951,-144.075,512
1569682272,336.314,-112.961,-14.5107,179.89,1.99951,-144.075,512
1569682272,336.314,-112.961,-14.5107,179.912,1.99951,-144.075,512
1569682272,336.314,-112.961,-14.3991,179.912,1.99951,-144.075,508
1569682272,336.314,-112.961,-14.3991,179.912,1.99951,-144.075,508
1569682272,336.314,-112.961,-14.3991,179.912,1.99951,-144.075,508
1569682272,336.314,-112.849,-14.3991,179.912,1.99951,-144.075,508
1569682272,336.314,-112.849,-14.3991,179.912,1.99951,-144.075,508
1569682273,336.314,-112.849,-14.3991,179.912,1.99951,-144.075,504
1569682273,336.314,-112.849,-14.3991,179.912,1.99951,-144.075,504
1569682273,336.314,-112.849,-14.3991,179.912,2.02148,-144.075,504
1569682273,336.314,-112.849,-14.3991,179.934,2.02148,-144.075,504
1569682273,336.314,-112.849,-14.3991,179.912,2.02148,-144.075,504
1569682273,336.314,-112.849,-14.3991,179.912,2.02148,-144.075,504
1569682273,336.314,-112.849,-14.3991,179.912,2.02148,-144.075,504
1569682273,336.314,-112.849,-14.3991,179.912,2.02148,-144.075,504
1569682273,336.314,-112.849,-14.3991,179.912,2.02148,-144.075,504
1569682273,336.314,-112.849,-14.3991,179.912,2.02148,-144.075,504
1569682273,336.314,-112.849,-14.3991,179.912,2.02148,-144.075,504
1569682273,336.314,-112.849,-14.3991,179.912,2.02148,-144.075,504
1569682273,336.203,-112.849,-14.3991,179.912,2.02148,-144.075,508
1569682273,336.203,-112.849,-14.3991,179.912,2.02148,-144.075,508
1569682273,336.203,-112.849,-14.3991,179.912,2.02148,-144.075,508
1569682273,336.203,-112.849,-14.3991,179.912,2.02148,-144.075,508
1569682273,336.203,-112.849,-14.3991,179.912,2.02148,-144.075,508
1569682273,336.203,-112.849,-14.3991,179.912,2.02148,-144.075,512
1569682273,336.203,-112.849,-14.3991,179.912,2.02148,-144.075,512
1569682273,336.314,-112.849,-14.3991,179.912,2.02148,-144.075,512
1569682273,336.314,-112.849,-14.3991,179.912,2.02148,-144.075,512
1569682273,336.314,-112.849,-14.3991,179.912,2.02148,-144.075,512
1569682273,336.314,-112.849,-14.3991,179.912,2.04346,-144.075,516
1569682273,336.314,-112.849,-14.3991,179.912,2.04346,-144.075,516
1569682273,336.314,-112.849,-14.3991,179.912,2.04346,-144.075,516
1569682273,336.314,-112.849,-14.3991,179.912,2.04346,-144.075,516
1569682273,336.314,-112.849,-14.3991,179.912,2.04346,-144.075,516
1569682273,336.314,-112.849,-14.3991,179.934,2.04346,-144.075,516
1569682273,336.314,-112.849,-14.3991,179.934,2.04346,-144.075,516
1569682273,336.314,-112.849,-14.3991,179.934,2.04346,-144.075,516
1569682273,336.314,-112.849,-14.3991,179.934,2.04346,-144.075,516
1569682273,336.314,-112.849,-14.3991,179.934,2.04346,-144.075,516
1569682273,336.314,-112.849,-14.3991,179.934,2.04346,-144.075,516
1569682273,336.314,-112.849,-14.3991,179.934,2.04346,-144.075,516
1569682273,336.314,-112.849,-14.3991,179.934,2.02148,-144.075,516
1569682273,336.314,-112.849,-14.3991,179.934,2.02148,-144.075,516
1569682273,336.314,-112.849,-14.3991,179.934,2.02148,-144.075,516
1569682273,336.314,-112.849,-14.3991,179.934,2.02148,-144.075,512
1569682273,336.314,-112.849,-14.3991,179.934,2.02148,-144.075,512
1569682273,336.314,-112.849,-14.3991,179.934,2.02148,-144.075,512
1569682273,336.314,-112.849,-14.3991,179.934,2.02148,-144.075,512
1569682273,336.314,-112.849,-14.3991,179.934,2.02148,-144.075,512
1569682273,336.314,-112.849,-14.3991,179.934,1.99951,-144.075,512
1569682273,336.314,-112.849,-14.3991,179.934,1.99951,-144.075,512
1569682273,336.314,-112.849,-14.3991,179.934,1.99951,-144.075,512
1569682273,336.314,-112.849,-14.3991,179.934,1.99951,-144.075,512
1569682273,336.314,-112.849,-14.3991,179.934,1.99951,-144.075,512
1569682273,336.314,-112.849,-14.3991,179.934,1.99951,-144.075,508
1569682273,336.314,-112.849,-14.3991,179.934,1.99951,-144.097,508
1569682273,336.314,-112.849,-14.3991,179.934,1.99951,-144.097,508
1569682273,336.314,-112.849,-14.3991,179.934,1.99951,-144.097,508
1569682273,336.314,-112.849,-14.3991,179.934,1.99951,-144.097,508
1569682273,336.314,-112.849,-14.3991,179.934,1.99951,-144.097,508
1569682273,336.314,-112.849,-14.3991,179.912,1.99951,-144.097,508
1569682273,336.314,-112.849,-14.3991,179.912,1.99951,-144.097,508
1569682273,336.314,-112.849,-14.3991,179.912,1.99951,-144.097,508
1569682273,336.314,-112.849,-14.3991,179.912,1.99951,-144.097,508
1569682273,336.203,-112.849,-14.3991,179.912,1.99951,-144.097,508
1569682273,336.203,-112.849,-14.3991,179.912,1.99951,-144.075,508
1569682273,336.203,-112.849,-14.3991,179.912,1.99951,-144.075,508
1569682273,336.203,-112.849,-14.3991,179.912,1.99951,-144.075,512
1569682273,336.203,-112.849,-14.3991,179.912,1.99951,-144.075,512
1569682273,336.203,-112.849,-14.3991,179.912,1.99951,-144.075,512
1569682273,336.203,-112.849,-14.3991,179.912,1.99951,-144.075,512
1569682273,336.203,-112.849,-14.3991,179.912,1.99951,-144.075,512
1569682273,336.203,-112.849,-14.3991,179.912,1.99951,-144.097,512
1569682291,359.308,-136.847,-13.7294,-179.934,2.15332,-144.316,576
1569682291,359.308,-136.847,-13.7294,-179.934,2.15332,-144.316,576
1569682291,359.308,-136.847,-13.7294,-179.934,2.15332,-144.316,576
1569682291,359.308,-136.847,-13.7294,-179.934,2.15332,-144.316,576
1569682291,359.308,-136.847,-13.7294,-179.912,2.15332,-144.316,576
1569682291,359.42,-136.847,-13.7294,-179.912,2.15332,-144.316,576
1569682291,359.42,-136.847,-13.7294,-179.912,2.15332,-144.316,576
1569682291,359.42,-136.847,-13.7294,-179.912,2.15332,-144.316,576
1569682291,359.42,-136.847,-13.7294,-179.912,2.15332,-144.316,576
1569682291,359.42,-136.847,-13.7294,-179.912,2.15332,-144.316,576
1569682291,359.42,-136.847,-13.7294,-179.912,2.15332,-144.316,576
1569682291,359.42,-136.847,-13.7294,-179.912,2.15332,-144.316,572
1569682291,359.42,-136.847,-13.7294,-179.912,2.15332,-144.316,572
1569682291,359.42,-136.847,-13.7294,-179.912,2.15332,-144.316,572
1569682291,359.42,-136.847,-13.7294,-179.912,2.15332,-144.316,572
1569682291,359.42,-136.847,-13.7294,-179.89,2.15332,-144.316,572
1569682291,359.42,-136.847,-13.7294,-179.89,2.13135,-144.316,568
1569682291,359.42,-136.847,-13.7294,-179.89,2.13135,-144.338,568
1569682291,359.42,-136.847,-13.7294,-179.89,2.13135,-144.338,568
1569682291,359.42,-136.847,-13.7294,-179.89,2.13135,-144.338,564
1569682291,359.42,-136.736,-13.7294,-179.89,2.13135,-144.338,564
1569682291,359.42,-136.736,-13.7294,-179.89,2.15332,-144.338,564
1569682291,359.42,-136.736,-13.7294,-179.89,2.15332,-144.338,564
1569682291,359.42,-136.847,-13.7294,-179.89,2.15332,-144.338,560
1569682291,359.42,-136.736,-13.7294,-179.89,2.15332,-144.338,560
1569682291,359.42,-136.736,-13.7294,-179.89,2.15332,-144.338,560
1569682291,359.42,-136.736,-13.7294,-179.89,2.15332,-144.338,560
1569682291,359.42,-136.736,-13.7294,-179.89,2.15332,-144.338,560
1569682291,359.42,-136.736,-13.7294,-179.89,2.17529,-144.338,556
1569682291,359.42,-136.736,-13.7294,-179.89,2.17529,-144.338,556
1569682291,359.532,-136.736,-13.7294,-179.89,2.17529,-144.338,556
1569682291,359.532,-136.736,-13.7294,-179.89,2.17529,-144.338,556
1569682291,359.532,-136.736,-13.6178,-179.89,2.17529,-144.338,556
1569682291,359.532,-136.847,-13.6178,-179.89,2.17529,-144.338,556
1569682291,359.532,-136.847,-13.6178,-179.89,2.17529,-144.338,556
1569682291,359.532,-136.847,-13.6178,-179.89,2.17529,-144.338,556
1569682291,359.532,-136.847,-13.6178,-179.89,2.17529,-144.338,556
1569682291,359.532,-136.736,-13.6178,-179.89,2.17529,-144.338,556
1569682291,359.532,-136.847,-13.6178,-179.89,2.17529,-144.338,556
1569682291,359.532,-136.847,-13.6178,-179.89,2.17529,-144.338,556
1569682291,359.532,-136.847,-13.6178,-179.89,2.17529,-144.338,556
1569682291,359.42,-136.847,-13.6178,-179.89,2.17529,-144.338,556
1569682291,359.42,-136.847,-13.6178,-179.89,2.17529,-144.338,556
1569682291,359.42,-136.847,-13.6178,-179.89,2.17529,-144.338,556
1569682291,359.42,-136.847,-13.6178,-179.89,2.17529,-144.338,560
1569682291,359.42,-136.847,-13.6178,-179.89,2.17529,-144.338,560
1569682291,359.42,-136.847,-13.6178,-179.89,2.17529,-144.338,560
1569682291,359.42,-136.847,-13.6178,-179.89,2.17529,-144.338,560
1569682291,359.42,-136.847,-13.6178,-179.89,2.17529,-144.338,560
1569682291,359.42,-136.847,-13.6178,-179.89,2.17529,-144.338,560
1569682291,359.42,-136.847,-13.6178,-179.89,2.17529,-144.338,560
1569682291,359.42,-136.847,-13.6178,-179.89,2.17529,-144.338,560
1569682291,359.42,-136.847,-13.7294,-179.89,2.17529,-144.338,560
1569682291,359.42,-136.847,-13.7294,-179.89,2.17529,-144.338,560
1569682291,359.42,-136.736,-13.7294,-179.89,2.17529,-144.338,560
1569682291,359.42,-136.736,-13.7294,-179.868,2.15332,-144.338,560
1569682291,359.532,-136.736,-13.7294,-179.868,2.15332,-144.338,560
1569682291,359.532,-136.736,-13.7294,-179.868,2.15332,-144.338,560
1569682291,359.532,-136.736,-13.7294,-179.868,2.15332,-144.338,560
1569682291,359.532,-136.736,-13.7294,-179.868,2.15332,-144.338,556
1569682291,359.532,-136.736,-13.7294,-179.868,2.15332,-144.338,556
1569682291,359.532,-136.736,-13.7294,-179.868,2.15332,-144.338,556
1569682291,359.532,-136.736,-13.7294,-179.868,2.15332,-144.338,556
1569682291,359.532,-136.736,-13.841,-179.868,2.15332,-144.338,556
1569682291,359.532,-136.736,-13.841,-179.846,2.15332,-144.338,556
1569682291,359.532,-136.736,-13.841,-179.846,2.15332,-144.338,556
1569682291,359.532,-136.736,-13.7294,-179.846,2.15332,-144.338,556
1569682291,359.532,-136.736,-13.7294,-179.868,2.15332,-144.338,556
1569682291,359.42,-136.736,-13.7294,-179.868,2.15332,-144.338,556
1569682291,359.42,-136.736,-13.7294,-179.868,2.15332,-144.338,556
1569682291,359.42,-136.736,-13.7294,-179.868,2.15332,-144.338,556
1569682291,359.42,-136.736,-13.7294,-179.868,2.15332,-144.338,556
1569682291,359.42,-136.736,-13.7294,-179.868,2.15332,-144.338,556
1569682291,359.42,-136.736,-13.7294,-179.868,2.15332,-144.338,556
1569682291,359.42,-136.736,-13.7294,-179.89,2.15332,-144.338,556
1569682291,359.42,-136.736,-13.7294,-179.89,2.15332,-144.338,556
1569682291,359.42,-136.736,-13.7294,-179.89,2.15332,-144.338,556
1569682291,359.42,-136.736,-13.841,-179.89,2.15332,-144.338,556
1569682291,359.42,-136.736,-13.841,-179.89,2.15332,-144.338,556
1569682291,359.42,-136.736,-13.841,-179.89,2.15332,-144.338,556
1569682291,359.42,-136.736,-13.841,-179.89,2.15332,-144.36,556
1569682291,359.42,-136.736,-13.841,-179.89,2.15332,-144.36,560
1569682291,359.42,-136.736,-13.841,-179.89,2.15332,-144.36,560
1569682291,359.42,-136.736,-13.841,-179.89,2.15332,-144.36,560
1569682291,359.42,-136.736,-13.841,-179.89,2.13135,-144.36,560
1569682291,359.42,-136.736,-13.841,-179.89,2.13135,-144.36,560
1569682291,359.42,-136.736,-13.841,-179.89,2.13135,-144.338,560
1569682291,359.42,-136.736,-13.841,-179.89,2.13135,-144.338,560
1569682291,359.42,-136.736,-13.841,-179.89,2.13135,-144.338,560
1569682291,359.42,-136.736,-13.841,-179.89,2.13135,-144.338,560
1569682291,359.42,-136.736,-13.841,-179.89,2.13135,-144.338,564
1569682292,359.42,-136.736,-13.841,-179.89,2.13135,-144.338,564
1569682292,359.42,-136.736,-13.841,-179.89,2.13135,-144.338,564
1569682292,359.42,-136.736,-13.841,-179.89,2.13135,-144.338,564
1569682292,359.42,-136.736,-13.841,-179.89,2.13135,-144.338,564
1569682292,359.42,-136.736,-13.841,-179.89,2.13135,-144.338,564
1569682292,359.42,-136.736,-13.841,-179.89,2.13135,-144.338,568
1569682292,359.42,-136.736,-13.841,-179.89,2.13135,-144.338,568
1569682292,359.42,-136.736,-13.841,-179.89,2.13135,-144.338,568
1569682292,359.42,-136.736,-13.841,-179.89,2.13135,-144.338,572
1569682292,359.42,-136.736,-13.841,-179.89,2.13135,-144.338,572
1569682292,359.42,-136.736,-13.841,-179.89,2.13135,-144.338,572
1569682292,359.42,-136.736,-13.841,-179.868,2.13135,-144.338,576
1569682292,359.42,-136.736,-13.7294,-179.868,2.15332,-144.338,576
1569682292,359.42,-136.736,-13.7294,-179.868,2.15332,-144.338,576
1569682292,359.42,-136.736,-13.7294,-179.868,2.15332,-144.338,576
1569682292,359.42,-136.736,-13.7294,-179.868,2.15332,-144.338,576
1569682292,359.42,-136.736,-13.7294,-179.868,2.15332,-144.338,576
1569682292,359.42,-136.736,-13.7294,-179.868,2.15332,-144.338,576
1569682292,359.42,-136.736,-13.7294,-179.868,2.15332,-144.338,576
1569682292,359.42,-136.736,-13.7294,-179.89,2.15332,-144.338,576
1569682292,359.42,-136.736,-13.7294,-179.89,2.15332,-144.338,576
1569682292,359.42,-136.736,-13.7294,-179.89,2.15332,-144.338,576
1569682292,359.42,-136.736,-13.7294,-179.89,2.15332,-144.338,576
1569682292,359.42,-136.736,-13.7294,-179.89,2.15332,-144.338,576
1569682292,359.42,-136.736,-13.7294,-179.89,2.15332,-144.338,576
1569682292,359.42,-136.736,-13.7294,-179.89,2.15332,-144.338,576
1569682292,359.42,-136.736,-13.7294,-179.89,2.15332,-144.338,576
1569682292,359.42,-136.736,-13.7294,-179.89,2.15332,-144.338,576
1569682292,359.42,-136.736,-13.7294,-179.89,2.15332,-144.338,576
1569682292,359.42,-136.736,-13.7294,-179.89,2.15332,-144.338,572
1569682292,359.42,-136.736,-13.7294,-179.89,2.15332,-144.338,572
1569682292,359.42,-136.736,-13.7294,-179.89,2.15332,-144.338,572
1569682292,359.42,-136.736,-13.7294,-179.89,2.15332,-144.338,572
1569682292,359.42,-136.736,-13.7294,-179.89,2.17529,-144.338,572
1569682292,359.42,-136.736,-13.7294,-179.89,2.17529,-144.338,572
1569682292,359.42,-136.736,-13.7294,-179.89,2.17529,-144.338,572
1569682292,359.42,-136.736,-13.7294,-179.89,2.17529,-144.338,572
1569682292,359.42,-136.736,-13.7294,-179.868,2.17529,-144.338,572
1569682292,359.42,-136.736,-13.7294,-179.868,2.17529,-144.338,572
1569682292,359.42,-136.736,-13.7294,-179.868,2.17529,-144.338,572
1569682292,359.42,-136.736,-13.7294,-179.868,2.17529,-144.316,572
1569682292,359.42,-136.736,-13.7294,-179.868,2.17529,-144.316,572
1569682292,359.42,-136.736,-13.7294,-179.868,2.17529,-144.316,572
1569682292,359.42,-136.736,-13.7294,-179.868,2.17529,-144.316,572
1569682292,359.42,-136.736,-13.7294,-179.868,2.17529,-144.316,572
1569682292,359.42,-136.736,-13.7294,-179.868,2.17529,-144.316,572
1569682292,359.42,-136.736,-13.7294,-179.868,2.17529,-144.316,572
1569682292,359.42,-136.736,-13.7294,-179.868,2.17529,-144.316,572
1569682292,359.42,-136.736,-13.7294,-179.89,2.17529,-144.316,572
1569682292,359.42,-136.736,-13.7294,-179.89,2.17529,-144.316,572
1569682292,359.42,-136.736,-13.7294,-179.89,2.17529,-144.316,572
1569682292,359.42,-136.736,-13.7294,-179.89,2.17529,-144.338,576
1569682292,359.42,-136.736,-13.7294,-179.912,2.17529,-144.338,576
1569682292,359.42,-136.736,-13.7294,-179.912,2.17529,-144.338,576
1569682292,359.42,-136.847,-13.7294,-179.912,2.17529,-144.338,576
1569682292,359.42,-136.847,-13.7294,-179.912,2.17529,-144.338,576
1569682292,359.308,-136.847,-13.7294,-179.912,2.17529,-144.338,576
1569682292,359.308,-136.847,-13.7294,-179.912,2.17529,-144.338,580
1569682292,359.308,-136.847,-13.7294,-179.912,2.17529,-144.338,580
1569682292,359.308,-136.847,-13.7294,-179.912,2.17529,-144.338,580
1569682292,359.308,-136.847,-13.7294,-179.912,2.17529,-144.338,580
1569682292,359.308,-136.847,-13.7294,-179.912,2.17529,-144.316,580
1569682292,359.42,-136.847,-13.7294,-179.912,2.17529,-144.316,576
1569682292,359.42,-136.847,-13.7294,-179.912,2.17529,-144.316,576
1569682292,359.42,-136.847,-13.7294,-179.912,2.17529,-144.316,576
1569682292,359.42,-136.847,-13.7294,-179.912,2.17529,-144.316,576
1569682292,359.42,-136.736,-13.7294,-179.912,2.17529,-144.316,576
1569682292,359.42,-136.736,-13.7294,-179.89,2.17529,-144.338,576
1569682292,359.42,-136.736,-13.7294,-179.89,2.17529,-144.338,576
1569682292,359.42,-136.736,-13.7294,-179.89,2.17529,-144.338,572
1569682292,359.42,-136.736,-13.7294,-179.89,2.17529,-144.338,572
1569682292,359.42,-136.736,-13.7294,-179.89,2.17529,-144.338,572
1569682292,359.42,-136.736,-13.7294,-179.89,2.17529,-144.338,572
1569682292,359.42,-136.736,-13.7294,-179.89,2.17529,-144.338,572
1569682292,359.42,-136.736,-13.7294,-179.89,2.17529,-144.338,572
1569682292,359.42,-136.736,-13.7294,-179.89,2.17529,-144.338,572
1569682292,359.42,-136.736,-13.7294,-179.89,2.17529,-144.338,568
1569682292,359.42,-136.736,-13.7294,-179.89,2.17529,-144.338,568
1569682292,359.42,-136.736,-13.7294,-179.89,2.17529,-144.338,568
1569682292,359.42,-136.736,-13.7294,-179.89,2.17529,-144.338,568
1569682292,359.42,-136.736,-13.7294,-179.89,2.17529,-144.338,568
1569682292,359.42,-136.736,-13.7294,-179.89,2.17529,-144.338,564
1569682292,359.42,-136.736,-13.7294,-179.89,2.17529,-144.338,564
1569682292,359.42,-136.736,-13.7294,-179.89,2.17529,-144.338,564
1569682292,359.42,-136.736,-13.7294,-179.89,2.17529,-144.338,564
1569682292,359.42,-136.736,-13.7294,-179.89,2.17529,-144.338,564
1569682292,359.42,-136.736,-13.7294,-179.89,2.17529,-144.338,564
1569682292,359.42,-136.736,-13.7294,-179.89,2.17529,-144.338,564
1569682292,359.42,-136.736,-13.7294,-179.89,2.17529,-144.338,564
1569682292,359.42,-136.736,-13.7294,-179.89,2.17529,-144.338,564
1569682292,359.42,-136.736,-13.7294,-179.89,2.17529,-144.338,560
1569682292,359.308,-136.736,-13.7294,-179.89,2.15332,-144.338,560
1569682292,359.308,-136.736,-13.7294,-179.89,2.15332,-144.338,560
1569682292,359.308,-136.736,-13.7294,-179.89,2.15332,-144.338,560
1569682292,359.308,-136.736,-13.7294,-179.89,2.15332,-144.338,560
1569682292,359.308,-136.736,-13.7294,-179.89,2.15332,-144.338,560
1569682292,359.308,-136.736,-13.7294,-179.89,2.15332,-144.338,560
1569682292,359.308,-136.736,-13.7294,-179.89,2.15332,-144.338,560
1569682292,359.308,-136.736,-13.7294,-179.89,2.15332,-144.338,560
1569682292,359.308,-136.736,-13.7294,-179.89,2.15332,-144.338,560
1569682293,359.308,-136.736,-13.7294,-179.89,2.15332,-144.338,560
1569682293,359.308,-136.736,-13.7294,-179.868,2.15332,-144.338,560
1569682293,359.308,-136.736,-13.7294,-179.868,2.15332,-144.338,560
1569682293,359.42,-136.624,-13.7294,-179.868,2.15332,-144.338,560
1569682293,359.42,-136.624,-13.7294,-179.868,2.15332,-144.338,560
1569682293,359.42,-136.624,-13.7294,-179.868,2.15332,-144.338,560
1569682293,359.42,-136.624,-13.7294,-179.868,2.15332,-144.338,560
1569682293,359.42,-136.624,-13.7294,-179.868,2.15332,-144.338,560
1569682293,359.42,-136.624,-13.7294,-179.868,2.15332,-144.338,560
1569682293,359.42,-136.624,-13.7294,-179.846,2.15332,-144.338,560
1569682293,359.42,-136.624,-13.7294,-179.846,2.15332,-144.338,560
1569682293,359.42,-136.624,-13.7294,-179.846,2.17529,-144.338,560
1569682293,359.42,-136.624,-13.7294,-179.846,2.17529,-144.338,560
1569682293,359.42,-136.624,-13.7294,-179.846,2.17529,-144.338,560
1569682293,359.42,-136.624,-13.7294,-179.846,2.17529,-144.338,560
1569682293,359.42,-136.624,-13.7294,-179.846,2.17529,-144.338,560
1569682293,359.42,-136.624,-13.7294,-179.824,2.17529,-144.338,560
1569682293,359.42,-136.624,-13.7294,-179.824,2.17529,-144.338,560
1569682293,359.42,-136.624,-13.6178,-179.824,2.17529,-144.338,560
1569682293,359.42,-136.624,-13.6178,-179.824,2.17529,-144.338,560
1569682293,359.42,-136.624,-13.6178,-179.824,2.17529,-144.338,564
1569682293,359.42,-136.624,-13.6178,-179.846,2.17529,-144.338,564
1569682293,359.42,-136.624,-13.6178,-179.846,2.17529,-144.338,564
1569682293,359.42,-136.624,-13.6178,-179.846,2.17529,-144.338,564
1569682293,359.42,-136.624,-13.6178,-179.846,2.17529,-144.338,564
1569682293,359.42,-136.624,-13.6178,-179.846,2.17529,-144.338,564
1569682293,359.42,-136.624,-13.6178,-179.846,2.17529,-144.338,564
1569682293,359.42,-136.624,-13.6178,-179.846,2.17529,-144.338,568
1569682293,359.42,-136.624,-13.6178,-179.846,2.17529,-144.338,568
1569682293,359.42,-136.624,-13.6178,-179.846,2.17529,-144.338,568
1569682293,359.42,-136.624,-13.6178,-179.846,2.17529,-144.338,568
1569682293,359.42,-136.624,-13.6178,-179.868,2.17529,-144.338,572
1569682293,359.42,-136.624,-13.6178,-179.868,2.17529,-144.338,572
1569682293,359.42,-136.624,-13.6178,-179.868,2.19727,-144.338,572
1569682293,359.42,-136.624,-13.6178,-179.868,2.19727,-144.338,572
1569682293,359.308,-136.736,-13.6178,-179.89,2.19727,-144.338,572
1569682293,359.308,-136.736,-13.6178,-179.89,2.19727,-144.338,572
1569682293,359.308,-136.736,-13.6178,-179.89,2.19727,-144.338,572
1569682293,359.308,-136.736,-13.6178,-179.89,2.17529,-144.338,572
1569682293,359.308,-136.736,-13.6178,-179.89,2.17529,-144.36,572
1569682293,359.308,-136.624,-13.6178,-179.89,2.17529,-144.36,572
1569682293,359.308,-136.624,-13.6178,-179.89,2.17529,-144.36,572
1569682293,359.308,-136.624,-13.6178,-179.89,2.17529,-144.36,572
1569682293,359.308,-136.624,-13.6178,-179.868,2.17529,-144.36,572
1569682293,359.308,-136.624,-13.6178,-179.868,2.17529,-144.338,572
1569682293,359.308,-136.624,-13.6178,-179.868,2.17529,-144.338,572
1569682293,359.308,-136.624,-13.6178,-179.868,2.17529,-144.338,572
1569682293,359.308,-136.624,-13.6178,-179.868,2.17529,-144.338,572
1569682293,359.308,-136.624,-13.6178,-179.868,2.17529,-144.338,572
1569682293,359.308,-136.624,-13.6178,-179.868,2.19727,-144.338,572
1569682293,359.42,-136.624,-13.6178,-179.868,2.19727,-144.338,568
1569682293,359.42,-136.624,-13.6178,-179.868,2.19727,-144.338,568
1569682293,359.42,-136.624,-13.6178,-179.868,2.19727,-144.338,568
1569682293,359.42,-136.624,-13.6178,-179.868,2.19727,-144.338,568
1569682293,359.42,-136.624,-13.6178,-179.846,2.19727,-144.338,568
1569682293,359.42,-136.624,-13.6178,-179.846,2.19727,-144.338,568
1569682293,359.42,-136.624,-13.6178,-179.846,2.19727,-144.316,568
1569682293,359.42,-136.624,-13.6178,-179.846,2.19727,-144.316,564
1569682293,359.42,-136.624,-13.6178,-179.846,2.19727,-144.316,564
1569682293,359.42,-136.624,-13.6178,-179.846,2.19727,-144.316,564
1569682293,359.42,-136.624,-13.6178,-179.846,2.17529,-144.316,564
1569682293,359.42,-136.624,-13.6178,-179.846,2.17529,-144.316,564
1569682293,359.42,-136.624,-13.6178,-179.846,2.17529,-144.316,560
1569682293,359.42,-136.624,-13.6178,-179.846,2.17529,-144.316,560
1569682293,359.42,-136.624,-13.6178,-179.868,2.17529,-144.316,560
1569682293,359.42,-136.624,-13.6178,-179.868,2.17529,-144.316,560
1569682293,359.42,-136.624,-13.7294,-179.868,2.17529,-144.316,560
1569682293,359.42,-136.624,-13.7294,-179.868,2.17529,-144.316,564
1569682293,359.42,-136.624,-13.7294,-179.868,2.17529,-144.316,564
1569682293,359.308,-136.624,-13.7294,-179.868,2.17529,-144.316,564
1569682293,359.308,-136.624,-13.7294,-179.868,2.17529,-144.316,564
1569682293,359.308,-136.624,-13.7294,-179.868,2.17529,-144.316,564
1569682293,359.308,-136.624,-13.7294,-179.868,2.17529,-144.316,564
1569682293,359.308,-136.624,-13.7294,-179.868,2.17529,-144.316,564
1569682293,359.308,-136.624,-13.7294,-179.868,2.17529,-144.316,564
1569682293,359.308,-136.624,-13.6178,-179.868,2.17529,-144.316,564
1569682293,359.308,-136.624,-13.6178,-179.868,2.17529,-144.316,564
1569682293,359.308,-136.624,-13.6178,-179.868,2.17529,-144.316,564
1569682293,359.308,-136.624,-13.7294,-179.868,2.17529,-144.316,564
1569682293,359.308,-136.624,-13.7294,-179.868,2.17529,-144.316,564
1569682293,359.308,-136.624,-13.7294,-179.868,2.17529,-144.316,564
1569682293,359.308,-136.624,-13.7294,-179.868,2.17529,-144.316,564
1569682293,359.308,-136.624,-13.7294,-179.868,2.17529,-144.338,568
1569682293,359.308,-136.624,-13.7294,-179.868,2.17529,-144.338,568
1569682293,359.308,-136.624,-13.7294,-179.868,2.17529,-144.338,568
1569682293,359.308,-136.624,-13.7294,-179.868,2.17529,-144.338,568
1569682293,359.308,-136.624,-13.7294,-179.868,2.17529,-144.338,568
1569682293,359.42,-136.624,-13.7294,-179.868,2.15332,-144.338,568
1569682293,359.42,-136.624,-13.7294,-179.868,2.15332,-144.338,568
1569682293,359.42,-136.624,-13.7294,-179.868,2.15332,-144.338,568
1569682293,359.42,-136.624,-13.7294,-179.868,2.15332,-144.338,568
1569682293,359.42,-136.624,-13.7294,-179.868,2.15332,-144.338,568
1569682293,359.42,-136.624,-13.7294,-179.868,2.15332,-144.338,568
1569682293,359.308,-136.624,-13.7294,-179.868,2.15332,-144.338,568
1569682293,359.308,-136.624,-13.7294,-179.868,2.15332,-144.338,568
1569682293,359.308,-136.736,-13.7294,-179.868,2.15332,-144.338,568
1569682293,359.308,-136.736,-13.7294,-179.868,2.15332,-144.338,568
1569682293,359.308,-136.736,-13.7294,-179.868,2.15332,-144.338,568
1569682293,359.308,-136.736,-13.7294,-179.868,2.15332,-144.338,572
1569682293,359.308,-136.736,-13.7294,-179.868,2.15332,-144.338,572
1569682294,359.308,-136.736,-13.7294,-179.868,2.15332,-144.338,572
1569682294,359.308,-136.736,-13.7294,-179.868,2.15332,-144.338,572
1569682294,359.308,-136.736,-13.7294,-179.868,2.15332,-144.338,572
1569682294,359.308,-136.736,-13.7294,-179.868,2.15332,-144.338,572
1569682294,359.42,-136.736,-13.7294,-179.868,2.15332,-144.338,572
1569682294,359.42,-136.736,-13.7294,-179.868,2.15332,-144.338,572
1569682294,359.42,-136.736,-13.7294,-179.868,2.15332,-144.338,572
1569682294,359.42,-136.736,-13.7294,-179.868,2.15332,-144.338,572
1569682294,359.42,-136.736,-13.7294,-179.868,2.15332,-144.316,572
1569682294,359.42,-136.736,-13.7294,-179.868,2.15332,-144.316,576
1569682294,359.42,-136.736,-13.7294,-179.868,2.15332,-144.316,576
1569682294,359.42,-136.736,-13.7294,-179.868,2.15332,-144.316,572
1569682294,359.42,-136.736,-13.7294,-179.868,2.15332,-144.316,572
1569682294,359.42,-136.736,-13.7294,-179.868,2.17529,-144.316,572
1569682294,359.42,-136.736,-13.7294,-179.89,2.15332,-144.316,572
1569682294,359.42,-136.736,-13.7294,-179.89,2.15332,-144.316,572
1569682294,359.42,-136.736,-13.7294,-179.89,2.15332,-144.316,572
1569682294,359.42,-136.736,-13.7294,-179.868,2.15332,-144.316,572
1569682294,359.42,-136.736,-13.7294,-179.868,2.15332,-144.316,572
1569682294,359.532,-136.736,-13.7294,-179.868,2.15332,-144.316,572
1569682294,359.532,-136.736,-13.7294,-179.868,2.15332,-144.316,572
1569682294,359.532,-136.736,-13.7294,-179.868,2.15332,-144.316,572
1569682294,359.532,-136.736,-13.7294,-179.868,2.15332,-144.316,572
1569682294,359.532,-136.736,-13.7294,-179.868,2.15332,-144.316,572
1569682294,359.42,-136.736,-13.7294,-179.868,2.15332,-144.316,572
1569682294,359.42,-136.736,-13.7294,-179.868,2.15332,-144.316,572
1569682294,359.42,-136.736,-13.7294,-179.868,2.15332,-144.316,572
1569682294,359.42,-136.736,-13.7294,-179.868,2.15332,-144.316,572
1569682294,359.42,-136.736,-13.7294,-179.868,2.15332,-144.316,572
1569682294,359.42,-136.736,-13.7294,-179.868,2.15332,-144.316,568
1569682294,359.42,-136.736,-13.7294,-179.89,2.15332,-144.316,568
1569682294,359.42,-136.736,-13.7294,-179.89,2.15332,-144.316,568
1569682294,359.42,-136.736,-13.7294,-179.89,2.15332,-144.316,568
1569682294,359.42,-136.736,-13.7294,-179.89,2.15332,-144.316,568
1569682294,359.42,-136.736,-13.7294,-179.89,2.15332,-144.316,564
1569682294,359.42,-136.736,-13.7294,-179.89,2.15332,-144.316,564
1569682294,359.42,-136.736,-13.7294,-179.89,2.15332,-144.316,564
1569682294,359.42,-136.736,-13.7294,-179.89,2.15332,-144.338,564
1569682294,359.42,-136.736,-13.7294,-179.89,2.15332,-144.338,564
1569682294,359.42,-136.736,-13.7294,-179.89,2.15332,-144.338,564
1569682294,359.42,-136.736,-13.7294,-179.89,2.15332,-144.338,564
1569682294,359.42,-136.736,-13.7294,-179.89,2.15332,-144.338,564
1569682294,359.42,-136.736,-13.7294,-179.89,2.15332,-144.338,564
1569682294,359.42,-136.736,-13.7294,-179.89,2.15332,-144.338,564
1569682294,359.42,-136.736,-13.7294,-179.89,2.15332,-144.338,564
1569682294,359.42,-136.736,-13.7294,-179.89,2.15332,-144.338,564
1569682294,359.42,-136.736,-13.7294,-179.89,2.15332,-144.338,564
1569682294,359.42,-136.736,-13.7294,-179.868,2.15332,-144.338,564
1569682294,359.42,-136.736,-13.7294,-179.868,2.15332,-144.338,564
1569682294,359.42,-136.736,-13.7294,-179.868,2.15332,-144.338,560
1569682294,359.42,-136.736,-13.7294,-179.868,2.15332,-144.338,560
1569682294,359.42,-136.736,-13.7294,-179.868,2.15332,-144.338,560
1569682294,359.42,-136.736,-13.7294,-179.868,2.15332,-144.338,560
1569682294,359.42,-136.736,-13.7294,-179.868,2.15332,-144.338,560
1569682294,359.42,-136.736,-13.7294,-179.868,2.15332,-144.338,556
1569682294,359.42,-136.736,-13.7294,-179.868,2.15332,-144.338,556
1569682294,359.42,-136.736,-13.7294,-179.868,2.15332,-144.338,556
1569682294,359.42,-136.736,-13.7294,-179.868,2.15332,-144.338,556
1569682294,359.42,-136.736,-13.7294,-179.868,2.15332,-144.338,556
1569682294,359.42,-136.736,-13.7294,-179.868,2.15332,-144.338,556
1569682294,359.42,-136.736,-13.7294,-179.868,2.15332,-144.338,556
1569682294,359.42,-136.736,-13.7294,-179.868,2.15332,-144.338,556
1569682294,359.42,-136.736,-13.7294,-179.868,2.15332,-144.338,556
1569682294,359.42,-136.736,-13.7294,-179.868,2.15332,-144.338,556
1569682294,359.42,-136.736,-13.7294,-179.868,2.15332,-144.316,560
1569682294,359.42,-136.736,-13.7294,-179.868,2.15332,-144.316,560
1569682294,359.42,-136.736,-13.7294,-179.868,2.15332,-144.338,560
1569682294,359.42,-136.736,-13.7294,-179.868,2.15332,-144.338,560
1569682294,359.42,-136.624,-13.7294,-179.868,2.15332,-144.338,560
1569682294,359.42,-136.624,-13.7294,-179.868,2.15332,-144.316,564
1569682294,359.42,-136.624,-13.7294,-179.868,2.15332,-144.338,564
1569682294,359.42,-136.624,-13.7294,-179.868,2.15332,-144.338,564
1569682294,359.42,-136.624,-13.7294,-179.868,2.15332,-144.338,564
1569682294,359.42,-136.624,-13.7294,-179.868,2.17529,-144.338,564
1569682294,359.42,-136.624,-13.7294,-179.868,2.17529,-144.338,568
1569682294,359.42,-136.624,-13.7294,-179.868,2.17529,-144.338,568
1569682294,359.42,-136.624,-13.7294,-179.868,2.17529,-144.338,568
1569682294,359.42,-136.624,-13.7294,-179.868,2.17529,-144.338,568
1569682294,359.42,-136.624,-13.7294,-179.868,2.17529,-144.338,568
1569682294,359.42,-136.624,-13.7294,-179.868,2.17529,-144.338,572
1569682294,359.42,-136.624,-13.7294,-179.868,2.17529,-144.338,572
1569682294,359.42,-136.736,-13.7294,-179.868,2.17529,-144.338,572
1569682294,359.42,-136.736,-13.7294,-179.868,2.17529,-144.338,572
1569682294,359.42,-136.736,-13.7294,-179.868,2.17529,-144.338,572
1569682294,359.42,-136.736,-13.7294,-179.89,2.17529,-144.316,568
1569682294,359.42,-136.736,-13.7294,-179.89,2.17529,-144.316,568
1569682294,359.42,-136.736,-13.6178,-179.89,2.17529,-144.316,568
1569682294,359.42,-136.736,-13.6178,-179.89,2.17529,-144.316,568
1569682294,359.42,-136.736,-13.6178,-179.89,2.17529,-144.316,568
1569682294,359.42,-136.736,-13.6178,-179.89,2.19727,-144.316,564
1569682294,359.42,-136.736,-13.6178,-179.89,2.19727,-144.316,564
1569682294,359.42,-136.736,-13.6178,-179.89,2.19727,-144.316,564
1569682294,359.42,-136.736,-13.6178,-179.89,2.19727,-144.316,564
1569682294,359.42,-136.736,-13.6178,-179.89,2.19727,-144.316,560
1569682294,359.42,-136.736,-13.6178,-179.89,2.19727,-144.316,560
1569682294,359.42,-136.736,-13.6178,-179.868,2.17529,-144.316,560
1569682294,359.42,-136.736,-13.6178,-179.868,2.17529,-144.316,560
1569682294,359.42,-136.736,-13.6178,-179.868,2.17529,-144.316,560
1569682294,359.42,-136.736,-13.6178,-179.868,2.17529,-144.316,560
1569682294,359.42,-136.736,-13.6178,-179.868,2.17529,-144.316,556
1569682295,359.42,-136.736,-13.6178,-179.868,2.17529,-144.316,556
1569682295,359.42,-136.736,-13.7294,-179.868,2.17529,-144.316,560
1569682295,359.42,-136.736,-13.7294,-179.868,2.17529,-144.316,560
1569682295,359.42,-136.736,-13.7294,-179.868,2.17529,-144.316,560
1569682295,359.42,-136.736,-13.7294,-179.868,2.17529,-144.316,560
1569682295,359.42,-136.736,-13.7294,-179.868,2.17529,-144.316,560
1569682295,359.42,-136.736,-13.7294,-179.868,2.17529,-144.316,560
1569682295,359.42,-136.736,-13.7294,-179.868,2.17529,-144.316,564
1569682295,359.308,-136.736,-13.7294,-179.868,2.15332,-144.316,564
1569682295,359.308,-136.736,-13.7294,-179.868,2.15332,-144.316,564
1569682295,359.42,-136.736,-13.7294,-179.868,2.15332,-144.316,564
1569682295,359.42,-136.736,-13.7294,-179.868,2.15332,-144.316,564
1569682295,359.42,-136.736,-13.7294,-179.868,2.15332,-144.316,564
1569682295,359.42,-136.736,-13.7294,-179.868,2.15332,-144.316,564
1569682295,359.42,-136.736,-13.7294,-179.868,2.15332,-144.316,564
1569682295,359.42,-136.736,-13.7294,-179.868,2.15332,-144.316,564
1569682295,359.42,-136.736,-13.7294,-179.868,2.15332,-144.316,564
1569682295,359.42,-136.736,-13.7294,-179.868,2.15332,-144.316,564
1569682295,359.42,-136.736,-13.7294,-179.868,2.15332,-144.316,564
1569682295,359.42,-136.736,-13.7294,-179.868,2.15332,-144.316,564
1569682295,359.42,-136.736,-13.7294,-179.868,2.15332,-144.316,564
1569682295,359.42,-136.736,-13.7294,-179.868,2.15332,-144.316,564
1569682295,359.42,-136.736,-13.7294,-179.868,2.15332,-144.316,564
1569682295,359.42,-136.736,-13.7294,-179.868,2.15332,-144.316,564
1569682295,359.42,-136.736,-13.7294,-179.868,2.15332,-144.338,560
1569682295,359.42,-136.736,-13.841,-179.868,2.15332,-144.338,560
1569682295,359.42,-136.736,-13.841,-179.868,2.15332,-144.316,560
1569682295,359.42,-136.736,-13.841,-179.868,2.15332,-144.316,560
1569682295,359.42,-136.736,-13.841,-179.868,2.15332,-144.316,560
1569682295,359.42,-136.736,-13.841,-179.868,2.15332,-144.316,556
1569682295,359.42,-136.736,-13.841,-179.868,2.15332,-144.316,556
1569682295,359.42,-136.736,-13.841,-179.868,2.15332,-144.316,556
1569682295,359.42,-136.736,-13.841,-179.868,2.15332,-144.316,556
1569682295,359.42,-136.736,-13.841,-179.868,2.15332,-144.316,556
1569682295,359.42,-136.736,-13.841,-179.868,2.15332,-144.316,552
1569682295,359.42,-136.736,-13.841,-179.868,2.15332,-144.316,552
1569682295,359.42,-136.736,-13.7294,-179.868,2.15332,-144.316,552
1569682295,359.42,-136.736,-13.7294,-179.868,2.15332,-144.316,556
1569682295,359.42,-136.736,-13.7294,-179.868,2.15332,-144.316,556
1569682295,359.42,-136.736,-13.7294,-179.868,2.15332,-144.316,556
1569682295,359.42,-136.624,-13.7294,-179.868,2.15332,-144.316,556
1569682295,359.42,-136.624,-13.7294,-179.868,2.15332,-144.316,556
1569682295,359.42,-136.624,-13.7294,-179.868,2.15332,-144.316,556
1569682295,359.42,-136.624,-13.7294,-179.868,2.15332,-144.316,560
1569682295,359.42,-136.624,-13.7294,-179.868,2.15332,-144.316,560
1569682295,359.42,-136.736,-13.7294,-179.868,2.15332,-144.316,560
1569682295,359.42,-136.736,-13.7294,-179.868,2.15332,-144.316,560
1569682295,359.42,-136.736,-13.7294,-179.89,2.17529,-144.316,560
1569682295,359.42,-136.736,-13.7294,-179.89,2.17529,-144.316,564
1569682295,359.42,-136.736,-13.7294,-179.89,2.17529,-144.316,564
1569682295,359.42,-136.736,-13.7294,-179.89,2.17529,-144.316,564
1569682295,359.42,-136.736,-13.7294,-179.89,2.17529,-144.316,568
1569682295,359.42,-136.736,-13.7294,-179.89,2.17529,-144.316,568
1569682295,359.42,-136.736,-13.7294,-179.89,2.17529,-144.316,568
1569682295,359.42,-136.736,-13.7294,-179.89,2.17529,-144.316,568
1569682295,359.42,-136.736,-13.7294,-179.89,2.17529,-144.338,568
1569682295,359.42,-136.736,-13.7294,-179.89,2.17529,-144.338,572
1569682295,359.42,-136.736,-13.7294,-179.89,2.17529,-144.338,572
1569682295,359.42,-136.736,-13.7294,-179.89,2.17529,-144.338,572
1569682295,359.42,-136.736,-13.7294,-179.89,2.17529,-144.338,572
1569682295,359.42,-136.736,-13.7294,-179.89,2.17529,-144.338,572
1569682295,359.42,-136.736,-13.7294,-179.89,2.17529,-144.338,572
1569682295,359.42,-136.736,-13.7294,-179.89,2.17529,-144.338,572
1569682295,359.42,-136.736,-13.7294,-179.89,2.17529,-144.338,572
1569682295,359.42,-136.736,-13.7294,-179.89,2.17529,-144.338,568
1569682295,359.42,-136.736,-13.7294,-179.89,2.17529,-144.338,568
1569682295,359.42,-136.736,-13.7294,-179.89,2.17529,-144.338,568
1569682295,359.42,-136.736,-13.7294,-179.89,2.17529,-144.338,568
1569682295,359.42,-136.736,-13.7294,-179.89,2.17529,-144.338,568
1569682295,359.42,-136.736,-13.7294,-179.89,2.17529,-144.338,568
1569682295,359.42,-136.736,-13.7294,-179.89,2.17529,-144.338,568
1569682295,359.42,-136.736,-13.7294,-179.89,2.17529,-144.338,568
1569682295,359.42,-136.736,-13.7294,-179.89,2.17529,-144.338,568
1569682295,359.42,-136.736,-13.7294,-179.89,2.17529,-144.338,568
1569682295,359.42,-136.736,-13.7294,-179.89,2.17529,-144.338,568
1569682295,359.42,-136.736,-13.7294,-179.89,2.17529,-144.338,568
1569682295,359.42,-136.736,-13.7294,-179.89,2.17529,-144.338,568
1569682295,359.42,-136.736,-13.7294,-179.89,2.17529,-144.338,568
1569682295,359.42,-136.736,-13.7294,-179.89,2.17529,-144.338,568
1569682295,359.42,-136.736,-13.7294,-179.89,2.17529,-144.338,568
1569682295,359.42,-136.736,-13.7294,-179.89,2.17529,-144.338,568
1569682295,359.42,-136.736,-13.7294,-179.89,2.17529,-144.338,568
1569682295,359.42,-136.736,-13.7294,-179.89,2.17529,-144.338,568
1569682295,359.42,-136.736,-13.7294,-179.89,2.15332,-144.36,568
1569682295,359.42,-136.736,-13.7294,-179.89,2.15332,-144.36,568
1569682295,359.42,-136.736,-13.7294,-179.89,2.15332,-144.36,568
1569682295,359.42,-136.736,-13.7294,-179.89,2.17529,-144.36,568
1569682295,359.42,-136.736,-13.7294,-179.89,2.17529,-144.36,568
1569682295,359.42,-136.736,-13.7294,-179.89,2.15332,-144.36,568
1569682295,359.42,-136.736,-13.7294,-179.89,2.15332,-144.36,568
1569682295,359.42,-136.736,-13.7294,-179.89,2.15332,-144.36,568
1569682295,359.42,-136.736,-13.7294,-179.89,2.15332,-144.36,568
1569682295,359.42,-136.736,-13.7294,-179.89,2.15332,-144.36,572
1569682295,359.42,-136.736,-13.7294,-179.89,2.17529,-144.36,572
1569682295,359.42,-136.736,-13.7294,-179.89,2.17529,-144.36,572
1569682295,359.42,-136.736,-13.7294,-179.89,2.17529,-144.36,572
1569682295,359.42,-136.736,-13.7294,-179.868,2.17529,-144.36,576
1569682295,359.42,-136.736,-13.7294,-179.868,2.17529,-144.36,576
1569682295,359.42,-136.624,-13.7294,-179.868,2.17529,-144.36,576
1569682295,359.42,-136.624,-13.7294,-179.868,2.17529,-144.338,576
1569682296,359.42,-136.624,-13.7294,-179.846,2.17529,-144.338,580
1569682296,359.42,-136.624,-13.7294,-179.846,2.17529,-144.338,580
1569682296,359.42,-136.624,-13.7294,-179.846,2.17529,-144.338,580
1569682296,359.42,-136.624,-13.7294,-179.846,2.17529,-144.338,580
1569682296,359.42,-136.624,-13.7294,-179.846,2.17529,-144.338,580
1569682296,359.42,-136.624,-13.7294,-179.846,2.17529,-144.338,580
1569682296,359.42,-136.624,-13.7294,-179.846,2.17529,-144.338,580
1569682296,359.42,-136.624,-13.7294,-179.846,2.17529,-144.338,580
1569682296,359.42,-136.513,-13.7294,-179.846,2.17529,-144.338,580
1569682300,398.264,-176.473,-12.6132,-179.67,2.50488,-144.207,604
1569682300,398.264,-176.473,-12.6132,-179.67,2.50488,-144.207,604
1569682300,398.264,-176.473,-12.6132,-179.67,2.50488,-144.207,608
1569682300,398.264,-176.473,-12.6132,-179.67,2.50488,-144.207,608
1569682300,398.152,-176.585,-12.5016,-179.67,2.50488,-144.207,608
1569682300,398.152,-176.585,-12.5016,-179.67,2.52686,-144.207,608
1569682300,398.152,-176.585,-12.5016,-179.67,2.52686,-144.207,608
1569682300,398.152,-176.585,-12.5016,-179.67,2.52686,-144.207,608
1569682300,398.152,-176.585,-12.5016,-179.67,2.52686,-144.207,612
1569682300,398.152,-176.585,-12.5016,-179.67,2.54883,-144.185,612
1569682300,398.152,-176.585,-12.3899,-179.67,2.54883,-144.185,612
1569682300,398.152,-176.585,-12.3899,-179.67,2.54883,-144.185,616
1569682300,398.264,-176.585,-12.3899,-179.67,2.5708,-144.185,616
1569682300,398.264,-176.585,-12.3899,-179.67,2.5708,-144.185,620
1569682300,398.264,-176.585,-12.3899,-179.67,2.5708,-144.185,620
1569682300,398.264,-176.585,-12.3899,-179.67,2.5708,-144.185,620
1569682300,398.264,-176.585,-12.3899,-179.67,2.5708,-144.185,624
1569682300,398.264,-176.585,-12.2783,-179.67,2.5708,-144.185,624
1569682300,398.264,-176.585,-12.2783,-179.67,2.59277,-144.185,624
1569682300,398.264,-176.585,-12.2783,-179.67,2.59277,-144.185,624
1569682300,398.264,-176.585,-12.2783,-179.692,2.59277,-144.185,624
1569682300,398.264,-176.585,-12.2783,-179.692,2.59277,-144.185,624
1569682300,398.264,-176.585,-12.2783,-179.692,2.59277,-144.163,624
1569682300,398.264,-176.585,-12.2783,-179.67,2.59277,-144.163,624
1569682300,398.264,-176.585,-12.2783,-179.67,2.59277,-144.163,624
1569682300,398.264,-176.585,-12.2783,-179.67,2.59277,-144.163,624
1569682300,398.264,-176.585,-12.2783,-179.67,2.59277,-144.163,624
1569682300,398.264,-176.585,-12.2783,-179.67,2.59277,-144.163,624
1569682300,398.264,-176.585,-12.2783,-179.67,2.59277,-144.163,624
1569682300,398.264,-176.585,-12.2783,-179.67,2.59277,-144.163,624
1569682300,398.264,-176.585,-12.2783,-179.67,2.59277,-144.163,624
1569682300,398.264,-176.585,-12.2783,-179.67,2.59277,-144.163,624
1569682300,398.264,-176.585,-12.2783,-179.67,2.5708,-144.163,624
1569682300,398.264,-176.585,-12.2783,-179.67,2.5708,-144.163,628
1569682300,398.264,-176.585,-12.2783,-179.67,2.5708,-144.185,628
1569682300,398.264,-176.585,-12.2783,-179.67,2.5708,-144.185,628
1569682300,398.264,-176.585,-12.2783,-179.67,2.5708,-144.185,628
1569682300,398.264,-176.585,-12.2783,-179.67,2.5708,-144.185,628
1569682300,398.264,-176.585,-12.3899,-179.67,2.54883,-144.185,624
1569682300,398.264,-176.585,-12.3899,-179.67,2.54883,-144.185,624
1569682300,398.264,-176.585,-12.3899,-179.67,2.54883,-144.163,624
1569682300,398.264,-176.585,-12.3899,-179.67,2.54883,-144.163,624
1569682300,398.376,-176.585,-12.3899,-179.67,2.54883,-144.163,620
1569682300,398.376,-176.696,-12.3899,-179.67,2.54883,-144.163,620
1569682300,398.376,-176.696,-12.3899,-179.67,2.54883,-144.163,620
1569682300,398.376,-176.696,-12.3899,-179.67,2.52686,-144.163,616
1569682300,398.376,-176.696,-12.3899,-179.67,2.52686,-144.163,616
1569682300,398.376,-176.696,-12.3899,-179.67,2.52686,-144.163,612
1569682300,398.376,-176.696,-12.3899,-179.67,2.52686,-144.163,612
1569682300,398.376,-176.696,-12.5016,-179.67,2.52686,-144.185,612
1569682300,398.376,-176.696,-12.5016,-179.67,2.52686,-144.185,608
1569682300,398.376,-176.696,-12.5016,-179.67,2.52686,-144.185,608
1569682300,398.376,-176.585,-12.5016,-179.67,2.50488,-144.185,608
1569682300,398.376,-176.585,-12.5016,-179.648,2.50488,-144.185,604
1569682300,398.376,-176.585,-12.5016,-179.648,2.50488,-144.185,604
1569682300,398.376,-176.585,-12.5016,-179.648,2.50488,-144.185,604
1569682300,398.376,-176.585,-12.5016,-179.648,2.50488,-144.185,604
1569682300,398.376,-176.585,-12.5016,-179.648,2.50488,-144.185,604
1569682300,398.376,-176.585,-12.5016,-179.648,2.50488,-144.185,604
1569682300,398.376,-176.585,-12.5016,-179.648,2.50488,-144.185,604
1569682300,398.376,-176.473,-12.5016,-179.648,2.50488,-144.163,604
1569682300,398.376,-176.473,-12.5016,-179.648,2.50488,-144.163,604
1569682300,398.376,-176.473,-12.5016,-179.648,2.50488,-144.163,608
1569682300,398.264,-176.585,-12.5016,-179.648,2.50488,-144.163,608
1569682300,398.264,-176.585,-12.5016,-179.648,2.50488,-144.163,608
1569682300,398.264,-176.585,-12.5016,-179.67,2.52686,-144.163,608
1569682300,398.264,-176.585,-12.5016,-179.67,2.52686,-144.163,608
1569682300,398.264,-176.585,-12.3899,-179.67,2.52686,-144.163,612
1569682300,398.264,-176.585,-12.3899,-179.67,2.52686,-144.163,612
1569682300,398.264,-176.585,-12.3899,-179.67,2.52686,-144.163,612
1569682300,398.264,-176.585,-12.3899,-179.67,2.52686,-144.163,612
1569682300,398.264,-176.585,-12.3899,-179.67,2.54883,-144.163,616
1569682300,398.264,-176.585,-12.3899,-179.67,2.54883,-144.163,616
1569682300,398.264,-176.585,-12.3899,-179.67,2.54883,-144.163,616
1569682300,398.264,-176.585,-12.3899,-179.67,2.54883,-144.163,616
1569682300,398.264,-176.585,-12.3899,-179.67,2.54883,-144.163,616
1569682300,398.264,-176.473,-12.3899,-179.67,2.54883,-144.163,620
1569682300,398.264,-176.473,-12.3899,-179.67,2.54883,-144.163,620
1569682300,398.376,-176.473,-12.3899,-179.67,2.54883,-144.163,620
1569682300,398.376,-176.473,-12.3899,-179.67,2.54883,-144.163,620
1569682300,398.376,-176.473,-12.3899,-179.67,2.54883,-144.163,620
1569682300,398.376,-176.473,-12.5016,-179.67,2.54883,-144.163,620
1569682300,398.376,-176.473,-12.5016,-179.67,2.54883,-144.163,620
1569682300,398.376,-176.585,-12.5016,-179.67,2.54883,-144.163,620
1569682300,398.376,-176.585,-12.5016,-179.67,2.52686,-144.163,620
1569682300,398.376,-176.585,-12.5016,-179.67,2.52686,-144.163,620
1569682300,398.376,-176.585,-12.5016,-179.67,2.52686,-144.163,620
1569682300,398.264,-176.585,-12.5016,-179.692,2.52686,-144.163,620
1569682300,398.264,-176.585,-12.5016,-179.692,2.50488,-144.163,620
1569682300,398.264,-176.696,-12.6132,-179.692,2.50488,-144.163,620
1569682300,398.264,-176.696,-12.6132,-179.692,2.50488,-144.163,620
1569682300,398.264,-176.696,-12.6132,-179.692,2.50488,-144.185,620
1569682300,398.264,-176.696,-12.6132,-179.692,2.50488,-144.185,620
1569682301,398.264,-176.696,-12.6132,-179.692,2.50488,-144.185,620
1569682301,398.264,-176.696,-12.6132,-179.692,2.50488,-144.185,616
1569682301,398.264,-176.696,-12.6132,-179.692,2.50488,-144.185,616
1569682301,398.264,-176.585,-12.6132,-179.692,2.50488,-144.185,616
1569682301,398.264,-176.585,-12.6132,-179.692,2.50488,-144.185,620
1569682301,398.264,-176.585,-12.6132,-179.692,2.50488,-144.185,620
1569682301,398.264,-176.585,-12.5016,-179.692,2.50488,-144.185,620
1569682301,398.264,-176.696,-12.5016,-179.692,2.50488,-144.185,620
1569682301,398.264,-176.696,-12.5016,-179.692,2.50488,-144.185,620
1569682301,398.264,-176.696,-12.5016,-179.692,2.50488,-144.185,624
1569682301,398.264,-176.696,-12.5016,-179.692,2.52686,-144.185,624
1569682301,398.264,-176.696,-12.5016,-179.692,2.52686,-144.185,624
1569682301,398.264,-176.696,-12.5016,-179.692,2.52686,-144.185,624
1569682301,398.264,-176.696,-12.5016,-179.692,2.52686,-144.185,624
1569682301,398.264,-176.696,-12.5016,-179.692,2.52686,-144.185,624
1569682301,398.264,-176.696,-12.5016,-179.692,2.52686,-144.185,624
1569682301,398.264,-176.696,-12.5016,-179.692,2.52686,-144.185,624
1569682301,398.264,-176.696,-12.5016,-179.692,2.52686,-144.185,624
1569682301,398.264,-176.696,-12.5016,-179.692,2.52686,-144.185,624
1569682301,398.264,-176.696,-12.5016,-179.692,2.52686,-144.185,624
1569682301,398.264,-176.696,-12.3899,-179.692,2.52686,-144.185,624
1569682301,398.264,-176.696,-12.3899,-179.692,2.52686,-144.185,624
1569682301,398.264,-176.696,-12.3899,-179.692,2.52686,-144.185,624
1569682301,398.264,-176.696,-12.3899,-179.692,2.52686,-144.185,624
1569682301,398.264,-176.696,-12.3899,-179.692,2.54883,-144.185,624
1569682301,398.264,-176.696,-12.3899,-179.692,2.54883,-144.185,624
1569682301,398.264,-176.696,-12.3899,-179.692,2.54883,-144.185,624
1569682301,398.264,-176.696,-12.3899,-179.692,2.54883,-144.185,624
1569682301,398.264,-176.696,-12.3899,-179.692,2.54883,-144.185,624
1569682301,398.264,-176.696,-12.3899,-179.714,2.54883,-144.185,624
1569682301,398.264,-176.808,-12.3899,-179.714,2.54883,-144.185,624
1569682301,398.264,-176.808,-12.3899,-179.714,2.54883,-144.185,624
1569682301,398.264,-176.808,-12.3899,-179.714,2.54883,-144.185,624
1569682301,398.264,-176.808,-12.3899,-179.714,2.54883,-144.185,624
1569682301,398.264,-176.808,-12.3899,-179.714,2.54883,-144.163,624
1569682301,398.264,-176.808,-12.3899,-179.714,2.54883,-144.163,624
1569682301,398.264,-176.808,-12.3899,-179.714,2.54883,-144.163,620
1569682301,398.376,-176.808,-12.3899,-179.714,2.54883,-144.163,620
1569682301,398.376,-176.808,-12.3899,-179.714,2.5708,-144.163,620
1569682301,398.376,-176.696,-12.3899,-179.714,2.5708,-144.163,620
1569682301,398.376,-176.696,-12.3899,-179.714,2.5708,-144.163,620
1569682301,398.376,-176.696,-12.3899,-179.692,2.54883,-144.163,620
1569682301,398.376,-176.696,-12.3899,-179.692,2.54883,-144.163,620
1569682301,398.376,-176.696,-12.3899,-179.692,2.54883,-144.163,620
1569682301,398.376,-176.696,-12.3899,-179.692,2.54883,-144.163,616
1569682301,398.376,-176.696,-12.3899,-179.692,2.54883,-144.163,616
1569682301,398.264,-176.696,-12.5016,-179.714,2.52686,-144.163,616
1569682301,398.264,-176.696,-12.5016,-179.714,2.52686,-144.163,616
1569682301,398.264,-176.696,-12.5016,-179.714,2.52686,-144.163,616
1569682301,398.264,-176.696,-12.6132,-179.714,2.52686,-144.163,612
1569682301,398.264,-176.696,-12.6132,-179.714,2.50488,-144.185,612
1569682301,398.264,-176.696,-12.6132,-179.714,2.50488,-144.185,612
1569682301,398.264,-176.696,-12.6132,-179.714,2.50488,-144.185,612
1569682301,398.152,-176.696,-12.6132,-179.714,2.50488,-144.185,612
1569682301,398.152,-176.696,-12.6132,-179.714,2.50488,-144.185,608
1569682301,398.152,-176.696,-12.6132,-179.714,2.50488,-144.185,608
1569682301,398.152,-176.696,-12.6132,-179.714,2.50488,-144.185,608
1569682301,398.152,-176.696,-12.6132,-179.714,2.50488,-144.185,608
1569682301,398.152,-176.696,-12.6132,-179.714,2.50488,-144.185,608
1569682301,398.264,-176.696,-12.6132,-179.714,2.50488,-144.185,604
1569682301,398.264,-176.696,-12.6132,-179.714,2.50488,-144.185,604
1569682301,398.264,-176.696,-12.6132,-179.714,2.50488,-144.185,604
1569682301,398.264,-176.696,-12.6132,-179.714,2.50488,-144.185,604
1569682301,398.152,-176.696,-12.6132,-179.692,2.50488,-144.185,604
1569682301,398.152,-176.696,-12.6132,-179.692,2.50488,-144.185,604
1569682301,398.152,-176.585,-12.6132,-179.692,2.50488,-144.185,600
1569682301,398.152,-176.585,-12.6132,-179.692,2.50488,-144.185,600
1569682301,398.152,-176.585,-12.6132,-179.692,2.50488,-144.185,600
1569682301,398.152,-176.585,-12.6132,-179.692,2.50488,-144.185,600
1569682301,398.152,-176.585,-12.6132,-179.67,2.50488,-144.185,600
1569682301,398.152,-176.585,-12.6132,-179.67,2.50488,-144.185,596
1569682301,398.152,-176.585,-12.6132,-179.67,2.50488,-144.185,596
1569682301,398.152,-176.585,-12.6132,-179.67,2.50488,-144.185,596
1569682301,398.152,-176.585,-12.6132,-179.67,2.50488,-144.185,596
1569682301,398.152,-176.585,-12.6132,-179.67,2.50488,-144.185,592
1569682301,398.152,-176.585,-12.6132,-179.67,2.50488,-144.185,592
1569682301,398.152,-176.585,-12.6132,-179.692,2.50488,-144.185,592
1569682301,398.152,-176.585,-12.6132,-179.692,2.50488,-144.185,592
1569682301,398.152,-176.585,-12.6132,-179.692,2.50488,-144.185,592
1569682301,398.152,-176.585,-12.5016,-179.692,2.50488,-144.185,592
1569682301,398.152,-176.585,-12.5016,-179.692,2.52686,-144.185,592
1569682301,398.152,-176.585,-12.5016,-179.692,2.52686,-144.185,592
1569682301,398.152,-176.585,-12.5016,-179.692,2.52686,-144.207,592
1569682301,398.152,-176.585,-12.5016,-179.692,2.52686,-144.207,596
1569682301,398.264,-176.585,-12.5016,-179.692,2.52686,-144.207,596
1569682301,398.264,-176.585,-12.5016,-179.692,2.52686,-144.207,596
1569682301,398.264,-176.585,-12.5016,-179.67,2.52686,-144.185,600
1569682301,398.264,-176.585,-12.5016,-179.67,2.52686,-144.185,600
1569682301,398.264,-176.585,-12.5016,-179.67,2.52686,-144.185,600
1569682301,398.264,-176.585,-12.5016,-179.67,2.52686,-144.185,604
1569682301,398.264,-176.585,-12.5016,-179.67,2.52686,-144.185,604
1569682301,398.264,-176.585,-12.3899,-179.67,2.52686,-144.185,608
1569682301,398.376,-176.585,-12.3899,-179.67,2.54883,-144.185,608
1569682301,398.376,-176.585,-12.3899,-179.67,2.54883,-144.185,608
1569682301,398.376,-176.585,-12.3899,-179.67,2.54883,-144.185,608
1569682301,398.376,-176.585,-12.3899,-179.67,2.54883,-144.163,612
1569682301,398.376,-176.585,-12.3899,-179.67,2.54883,-144.163,612
1569682301,398.264,-176.585,-12.3899,-179.67,2.54883,-144.163,612
1569682301,398.264,-176.585,-12.3899,-179.67,2.54883,-144.163,612
1569682301,398.264,-176.585,-12.3899,-179.67,2.54883,-144.163,616
1569682302,398.264,-176.585,-12.3899,-179.67,2.54883,-144.163,616
1569682302,398.376,-176.585,-12.3899,-179.67,2.54883,-144.163,616
1569682302,398.376,-176.585,-12.3899,-179.67,2.54883,-144.163,616
1569682302,398.376,-176.585,-12.3899,-179.67,2.54883,-144.163,616
1569682302,398.376,-176.585,-12.3899,-179.67,2.54883,-144.163,616
1569682302,398.376,-176.585,-12.3899,-179.67,2.54883,-144.163,616
1569682302,398.376,-176.585,-12.3899,-179.67,2.54883,-144.163,616
1569682302,398.376,-176.585,-12.3899,-179.67,2.54883,-144.185,616
1569682302,398.376,-176.585,-12.5016,-179.67,2.54883,-144.185,616
1569682302,398.376,-176.585,-12.5016,-179.67,2.54883,-144.185,612
1569682302,398.376,-176.585,-12.5016,-179.67,2.54883,-144.185,612
1569682302,398.376,-176.585,-12.5016,-179.67,2.52686,-144.185,612
1569682302,398.376,-176.585,-12.5016,-179.67,2.52686,-144.185,612
1569682302,398.376,-176.585,-12.5016,-179.67,2.52686,-144.185,608
1569682302,398.376,-176.585,-12.6132,-179.67,2.52686,-144.185,608
1569682302,398.376,-176.585,-12.6132,-179.692,2.52686,-144.185,608
1569682302,398.264,-176.585,-12.6132,-179.692,2.50488,-144.185,604
1569682302,398.264,-176.585,-12.6132,-179.692,2.50488,-144.185,604
1569682302,398.264,-176.585,-12.6132,-179.692,2.50488,-144.185,604
1569682302,398.264,-176.585,-12.6132,-179.692,2.50488,-144.185,604
1569682302,398.264,-176.585,-12.5016,-179.692,2.50488,-144.185,604
1569682302,398.264,-176.585,-12.5016,-179.692,2.52686,-144.185,600
1569682302,398.264,-176.585,-12.5016,-179.692,2.52686,-144.185,600
1569682302,398.264,-176.585,-12.5016,-179.692,2.52686,-144.185,600
1569682302,398.264,-176.585,-12.5016,-179.692,2.52686,-144.185,604
1569682302,398.264,-176.585,-12.5016,-179.692,2.52686,-144.185,604
1569682302,398.264,-176.696,-12.5016,-179.692,2.52686,-144.185,604
1569682302,398.264,-176.696,-12.5016,-179.714,2.52686,-144.185,604
1569682302,398.264,-176.696,-12.5016,-179.714,2.52686,-144.163,604
1569682302,398.264,-176.696,-12.5016,-179.714,2.52686,-144.163,604
1569682302,398.264,-176.696,-12.5016,-179.714,2.52686,-144.163,604
1569682302,398.264,-176.696,-12.5016,-179.714,2.52686,-144.163,604
1569682302,398.264,-176.696,-12.5016,-179.714,2.52686,-144.163,604
1569682302,398.264,-176.696,-12.5016,-179.714,2.52686,-144.163,604
1569682302,398.264,-176.696,-12.5016,-179.692,2.52686,-144.141,604
1569682302,398.264,-176.696,-12.5016,-179.692,2.52686,-144.141,604
1569682302,398.264,-176.696,-12.5016,-179.692,2.52686,-144.141,604
1569682302,398.264,-176.696,-12.5016,-179.692,2.52686,-144.141,604
1569682302,398.264,-176.696,-12.5016,-179.692,2.52686,-144.141,604
1569682302,398.264,-176.696,-12.5016,-179.692,2.52686,-144.141,600
1569682302,398.264,-176.696,-12.5016,-179.692,2.52686,-144.141,600
1569682302,398.264,-176.696,-12.5016,-179.692,2.52686,-144.141,600
1569682302,398.264,-176.696,-12.5016,-179.692,2.52686,-144.141,600
1569682302,398.264,-176.696,-12.5016,-179.692,2.52686,-144.141,600
1569682302,398.264,-176.696,-12.5016,-179.692,2.52686,-144.141,600
1569682302,398.264,-176.696,-12.5016,-179.692,2.52686,-144.141,600
1569682302,398.264,-176.696,-12.3899,-179.692,2.52686,-144.141,600
1569682302,398.264,-176.696,-12.3899,-179.692,2.52686,-144.141,600
1569682302,398.264,-176.696,-12.3899,-179.692,2.52686,-144.141,600
1569682302,398.264,-176.696,-12.3899,-179.692,2.52686,-144.141,600
1569682302,398.264,-176.696,-12.3899,-179.692,2.52686,-144.141,600
1569682302,398.264,-176.696,-12.3899,-179.692,2.52686,-144.163,604
1569682302,398.152,-176.696,-12.3899,-179.692,2.52686,-144.163,604
1569682302,398.152,-176.696,-12.3899,-179.692,2.52686,-144.163,604
1569682302,398.152,-176.696,-12.5016,-179.692,2.52686,-144.163,604
1569682302,398.152,-176.696,-12.5016,-179.692,2.50488,-144.163,608
1569682302,398.152,-176.585,-12.5016,-179.692,2.50488,-144.163,608
1569682302,398.152,-176.585,-12.5016,-179.692,2.50488,-144.163,608
1569682302,398.152,-176.585,-12.5016,-179.692,2.48291,-144.163,608
1569682302,398.152,-176.585,-12.6132,-179.692,2.48291,-144.163,608
1569682302,398.152,-176.696,-12.6132,-179.692,2.48291,-144.163,608
1569682302,398.152,-176.696,-12.6132,-179.692,2.48291,-144.163,604
1569682302,398.152,-176.696,-12.6132,-179.692,2.48291,-144.163,604
1569682302,398.152,-176.696,-12.6132,-179.692,2.48291,-144.163,604
1569682302,398.152,-176.696,-12.6132,-179.692,2.48291,-144.185,604
1569682302,398.152,-176.696,-12.6132,-179.692,2.48291,-144.185,600
1569682302,398.152,-176.696,-12.6132,-179.692,2.48291,-144.163,600
1569682302,398.152,-176.696,-12.6132,-179.692,2.48291,-144.163,600
1569682302,398.152,-176.696,-12.6132,-179.692,2.48291,-144.163,596
1569682302,398.152,-176.696,-12.6132,-179.692,2.48291,-144.163,596
1569682302,398.152,-176.696,-12.6132,-179.692,2.48291,-144.163,596
1569682302,398.264,-176.696,-12.6132,-179.692,2.48291,-144.163,596
1569682302,398.264,-176.585,-12.6132,-179.692,2.48291,-144.163,596
1569682302,398.264,-176.585,-12.6132,-179.67,2.48291,-144.163,596
1569682302,398.264,-176.585,-12.6132,-179.67,2.48291,-144.163,596
1569682302,398.264,-176.585,-12.6132,-179.67,2.48291,-144.163,596
1569682302,398.264,-176.585,-12.6132,-179.67,2.48291,-144.163,596
1569682302,398.264,-176.585,-12.6132,-179.67,2.48291,-144.163,596
1569682302,398.152,-176.585,-12.6132,-179.67,2.48291,-144.163,596
1569682302,398.152,-176.473,-12.6132,-179.67,2.48291,-144.163,596
1569682302,398.152,-176.473,-12.6132,-179.67,2.48291,-144.163,596
1569682302,398.152,-176.473,-12.6132,-179.67,2.48291,-144.163,596
1569682302,398.152,-176.473,-12.6132,-179.67,2.48291,-144.163,596
1569682302,398.152,-176.473,-12.5016,-179.67,2.50488,-144.163,596
1569682302,398.152,-176.473,-12.5016,-179.67,2.50488,-144.163,596
1569682302,398.264,-176.473,-12.5016,-179.67,2.50488,-144.163,596
1569682302,398.264,-176.473,-12.5016,-179.67,2.50488,-144.163,600
1569682302,398.264,-176.473,-12.5016,-179.67,2.50488,-144.163,600
1569682302,398.264,-176.473,-12.6132,-179.67,2.50488,-144.163,600
1569682302,398.264,-176.473,-12.6132,-179.67,2.50488,-144.185,600
1569682302,398.264,-176.473,-12.6132,-179.67,2.48291,-144.185,600
1569682302,398.264,-176.585,-12.6132,-179.67,2.48291,-144.185,600
1569682302,398.264,-176.585,-12.6132,-179.67,2.48291,-144.185,600
1569682302,398.264,-176.585,-12.6132,-179.692,2.48291,-144.185,600
1569682302,398.264,-176.585,-12.6132,-179.692,2.48291,-144.185,600
1569682302,398.264,-176.585,-12.6132,-179.692,2.48291,-144.185,600
1569682302,398.264,-176.585,-12.6132,-179.692,2.48291,-144.185,600
1569682302,398.264,-176.585,-12.6132,-179.692,2.48291,-144.185,600
1569682302,398.264,-176.585,-12.6132,-179.692,2.48291,-144.185,600
1569682302,398.264,-176.585,-12.6132,-179.692,2.48291,-144.185,600
1569682303,398.264,-176.585,-12.6132,-179.692,2.48291,-144.185,600
1569682303,398.152,-176.585,-12.6132,-179.67,2.48291,-144.185,600
1569682303,398.152,-176.585,-12.6132,-179.67,2.48291,-144.185,600
1569682303,398.152,-176.585,-12.6132,-179.67,2.48291,-144.185,600
1569682303,398.264,-176.585,-12.6132,-179.67,2.48291,-144.185,600
