time,x,y,z,ax,ay,az,q
1569682258,361.764,-138.633,29.1331,178.792,-0.131836,89.2969,428
1569682258,361.764,-138.633,29.1331,178.792,-0.131836,89.2969,428
1569682258,361.764,-138.633,29.1331,178.792,-0.131836,89.2969,428
1569682258,361.764,-138.633,29.1331,178.792,-0.131836,89.2969,428
1569682258,361.764,-138.633,29.1331,178.792,-0.131836,89.2969,428
1569682258,361.764,-138.633,29.1331,178.792,-0.131836,89.2969,428
1569682259,361.764,-138.633,29.1331,178.792,-0.131836,89.2969,428
1569682259,361.764,-138.633,29.1331,178.792,-0.131836,89.2969,428
1569682259,361.764,-138.633,29.1331,178.792,-0.131836,89.2969,428
1569682259,361.764,-138.633,29.1331,178.792,-0.131836,89.2969,428
1569682259,361.764,-138.633,29.1331,178.792,-0.131836,89.2969,428
1569682259,361.764,-138.633,29.1331,178.792,-0.131836,89.2969,428
1569682259,361.652,-138.633,29.1331,178.792,-0.131836,89.2969,428
1569682259,361.652,-138.633,29.1331,178.792,-0.131836,89.2969,428
1569682259,361.652,-138.633,29.1331,178.792,-0.131836,89.2969,428
1569682259,361.652,-138.633,29.1331,178.792,-0.131836,89.2969,428
1569682259,361.652,-138.633,29.1331,178.792,-0.131836,89.2969,428
1569682259,361.652,-138.633,29.1331,178.792,-0.131836,89.2969,428
1569682259,361.652,-138.633,29.1331,178.792,-0.131836,89.2969,428
1569682259,361.652,-138.633,29.1331,178.792,-0.131836,89.2969,428
1569682259,361.652,-138.633,29.1331,178.792,-0.131836,89.2969,428
1569682259,361.652,-138.633,29.1331,178.792,-0.131836,89.2969,428
1569682259,361.652,-138.633,29.1331,178.792,-0.131836,89.2969,428
1569682259,361.652,-138.633,29.1331,178.792,-0.131836,89.2969,428
1569682259,361.652,-138.633,29.1331,178.792,-0.131836,89.2969,428
1569682259,361.652,-138.633,29.1331,178.792,-0.131836,89.2969,428
1569682259,361.652,-138.633,29.1331,178.792,-0.131836,89.2969,428
1569682259,361.764,-138.633,29.1331,178.792,-0.131836,89.2969,428
1569682259,361.764,-138.633,29.1331,178.792,-0.131836,89.2969,428
1569682259,361.764,-138.633,29.1331,178.792,-0.131836,89.2969,428
1569682259,361.764,-138.633,29.1331,178.792,-0.131836,89.2969,428
1569682259,361.764,-138.633,29.1331,178.792,-0.131836,89.2969,428
1569682259,361.764,-138.633,29.1331,178.792,-0.131836,89.2969,428
1569682259,361.764,-138.633,29.1331,178.792,-0.131836,89.2969,428
1569682259,361.764,-138.633,29.1331,178.792,-0.131836,89.2969,428
1569682259,361.764,-138.633,29.1331,178.792,-0.131836,89.2969,428
1569682259,361.764,-138.633,29.1331,178.792,-0.131836,89.2969,428
1569682259,361.764,-138.633,29.1331,178.792,-0.131836,89.2969,428
1569682259,361.764,-138.633,29.1331,178.792,-0.131836,89.2969,428
1569682259,361.764,-138.633,29.1331,178.792,-0.131836,89.2969,428
1569682259,361.764,-138.633,29.1331,178.792,-0.131836,89.2969,428
1569682259,361.764,-138.633,29.1331,178.792,-0.131836,89.2969,428
1569682259,361.764,-138.633,29.1331,178.792,-0.131836,89.2969,428
1569682259,361.764,-138.633,29.1331,178.792,-0.131836,89.2969,428
1569682259,361.764,-138.633,29.1331,178.792,-0.131836,89.2969,428
1569682259,361.764,-138.633,29.1331,178.792,-0.131836,89.2969,428
1569682259,361.764,-138.633,29.1331,178.792,-0.131836,89.2969,428
1569682259,361.764,-138.633,29.1331,178.792,-0.131836,89.2969,428
1569682259,361.764,-138.633,29.1331,178.792,-0.131836,89.2969,428
1569682259,361.764,-138.633,29.1331,178.792,-0.131836,89.2969,428
1569682259,361.764,-138.633,29.1331,178.792,-0.131836,89.2969,428
1569682259,361.764,-138.633,29.1331,178.792,-0.131836,89.2969,428
1569682259,361.764,-138.633,29.1331,178.792,-0.131836,89.2969,428
1569682259,361.764,-138.633,29.1331,178.792,-0.131836,89.2969,428
1569682259,361.764,-138.633,29.1331,178.792,-0.131836,89.2969,428
1569682259,361.764,-138.633,29.1331,178.792,-0.131836,89.2969,428
1569682259,361.764,-138.633,29.1331,178.792,-0.131836,89.2969,428
1569682259,361.764,-138.633,29.1331,178.792,-0.131836,89.2969,428
1569682259,361.764,-138.633,29.1331,178.792,-0.131836,89.2969,428
1569682259,361.764,-138.633,29.1331,178.792,-0.131836,89.2969,428
1569682259,361.764,-138.633,29.1331,178.792,-0.131836,89.2969,428
1569682259,361.764,-138.633,29.1331,178.792,-0.131836,89.2969,428
1569682259,361.764,-138.633,29.1331,178.792,-0.131836,89.2969,428
1569682259,361.764,-138.633,29.1331,178.792,-0.131836,89.2969,428
1569682259,361.764,-138.633,29.1331,178.792,-0.131836,89.2969,428
1569682259,361.764,-138.633,29.1331,178.792,-0.131836,89.2969,428
1569682259,361.764,-138.633,29.1331,178.792,-0.131836,89.2969,428
1569682259,361.764,-138.633,29.1331,178.792,-0.131836,89.2969,428
1569682259,361.764,-138.633,29.1331,178.792,-0.131836,89.2969,428
1569682259,361.764,-138.633,29.1331,178.792,-0.131836,89.2969,428
1569682259,361.764,-138.633,29.1331,178.792,-0.131836,89.2969,428
1569682259,361.764,-138.633,29.1331,178.792,-0.131836,89.2969,428
1569682259,361.764,-138.633,29.1331,178.792,-0.131836,89.2969,428
1569682259,361.764,-138.633,29.1331,178.792,-0.131836,89.2969,428
1569682259,361.764,-138.633,29.1331,178.792,-0.131836,89.2969,428
1569682259,361.764,-138.633,29.1331,178.792,-0.131836,89.2969,428
1569682259,361.764,-138.633,29.1331,178.792,-0.131836,89.2969,432
1569682259,361.764,-138.633,29.1331,178.792,-0.131836,89.2969,432
1569682259,361.764,-138.633,29.1331,178.792,-0.131836,89.2969,432
1569682259,361.764,-138.633,29.1331,178.792,-0.131836,89.2969,432
1569682259,361.764,-138.522,29.1331,178.792,-0.131836,89.2969,432
1569682259,361.764,-138.522,29.1331,178.792,-0.131836,89.2969,432
1569682259,361.764,-138.522,29.1331,178.792,-0.131836,89.2969,432
1569682259,361.764,-138.522,29.1331,178.792,-0.131836,89.2969,432
1569682259,361.764,-138.522,29.1331,178.792,-0.131836,89.2969,432
1569682259,361.764,-138.522,29.1331,178.792,-0.131836,89.2969,432
1569682259,361.764,-138.633,29.1331,178.792,-0.131836,89.2969,432
1569682259,361.652,-138.633,29.1331,178.792,-0.131836,89.2969,432
1569682259,361.652,-138.633,29.1331,178.792,-0.131836,89.2969,432
1569682259,361.652,-138.633,29.1331,178.792,-0.131836,89.2969,432
1569682259,361.652,-138.633,29.1331,178.792,-0.131836,89.2969,432
1569682259,361.652,-138.633,29.1331,178.792,-0.131836,89.2969,432
1569682259,361.652,-138.633,29.1331,178.792,-0.131836,89.2969,432
1569682259,361.652,-138.633,29.1331,178.792,-0.131836,89.2969,432
1569682259,361.652,-138.633,29.1331,178.792,-0.131836,89.2969,432
1569682259,361.652,-138.633,29.1331,178.792,-0.131836,89.2969,432
1569682259,361.652,-138.633,29.1331,178.792,-0.131836,89.2969,432
1569682259,361.652,-138.633,29.1331,178.792,-0.131836,89.2969,432
1569682259,361.652,-138.633,29.1331,178.792,-0.131836,89.2969,432
1569682259,361.652,-138.633,29.1331,178.792,-0.131836,89.2969,432
1569682259,361.652,-138.633,29.1331,178.792,-0.131836,89.2969,432
1569682259,361.652,-138.633,29.1331,178.792,-0.131836,89.2969,432
1569682259,361.652,-138.633,29.1331,178.792,-0.131836,89.2969,432
1569682259,361.652,-138.633,29.1331,178.792,-0.131836,89.2969,432
1569682259,361.652,-138.633,29.1331,178.792,-0.131836,89.2969,432
1569682259,361.652,-138.633,29.1331,178.792,-0.131836,89.2969,432
1569682260,361.652,-138.633,29.1331,178.792,-0.131836,89.2969,432
1569682260,361.652,-138.633,29.1331,178.792,-0.131836,89.2969,432
1569682260,361.652,-138.633,29.1331,178.792,-0.131836,89.2969,432
1569682260,361.652,-138.633,29.1331,178.792,-0.131836,89.2969,432
1569682260,361.652,-138.633,29.1331,178.792,-0.131836,89.2969,432
1569682260,361.652,-138.633,29.1331,178.792,-0.131836,89.2969,432
1569682260,361.652,-138.633,29.1331,178.792,-0.131836,89.2969,432
1569682260,361.652,-138.633,29.1331,178.792,-0.131836,89.2969,432
1569682260,361.652,-138.633,29.1331,178.792,-0.131836,89.2969,432
1569682260,361.652,-138.633,29.1331,178.792,-0.131836,89.2969,432
1569682260,361.652,-138.633,29.1331,178.792,-0.131836,89.2969,432
1569682260,361.652,-138.633,29.1331,178.792,-0.131836,89.2969,432
1569682260,361.652,-138.633,29.1331,178.792,-0.131836,89.2969,432
1569682260,361.652,-138.633,29.1331,178.792,-0.131836,89.2969,432
1569682260,361.652,-138.633,29.1331,178.792,-0.131836,89.2969,432
1569682260,361.652,-138.633,29.1331,178.792,-0.131836,89.2969,432
1569682260,361.652,-138.633,29.1331,178.792,-0.131836,89.2969,432
1569682260,361.652,-138.633,29.1331,178.792,-0.131836,89.2969,432
1569682260,361.652,-138.633,29.1331,178.792,-0.131836,89.2969,432
1569682260,361.652,-138.633,29.1331,178.792,-0.131836,89.2969,432
1569682260,361.652,-138.633,29.1331,178.792,-0.131836,89.2969,432
1569682260,361.652,-138.633,29.1331,178.792,-0.131836,89.2969,432
1569682260,361.652,-138.633,29.1331,178.792,-0.131836,89.2969,432
1569682260,361.652,-138.633,29.1331,178.792,-0.131836,89.2969,432
1569682260,361.652,-138.633,29.1331,178.792,-0.131836,89.2969,432
1569682260,361.652,-138.633,29.1331,178.792,-0.131836,89.2969,432
1569682260,361.652,-138.633,29.1331,178.792,-0.131836,89.2969,432
1569682260,361.652,-138.633,29.1331,178.792,-0.131836,89.2969,432
1569682260,361.652,-138.633,29.1331,178.792,-0.131836,89.2969,432
1569682260,361.652,-138.633,29.1331,178.792,-0.131836,89.2969,432
1569682260,361.652,-138.633,29.1331,178.792,-0.131836,89.2969,432
1569682260,361.652,-138.633,29.1331,178.792,-0.131836,89.2969,432
1569682260,361.652,-138.633,29.1331,178.792,-0.131836,89.2969,432
1569682260,361.652,-138.633,29.1331,178.792,-0.131836,89.2969,432
1569682260,361.652,-138.633,29.1331,178.792,-0.131836,89.2969,432
1569682260,361.652,-138.633,29.1331,178.792,-0.131836,89.2969,432
1569682260,361.652,-138.633,29.1331,178.792,-0.131836,89.2969,432
1569682260,361.652,-138.633,29.1331,178.792,-0.131836,89.2969,432
1569682260,361.652,-138.633,29.1331,178.792,-0.131836,89.2969,432
1569682260,361.652,-138.633,29.1331,178.792,-0.131836,89.2969,432
1569682260,361.652,-138.633,29.1331,178.792,-0.131836,89.2969,432
1569682260,361.652,-138.633,29.1331,178.792,-0.131836,89.2969,428
1569682260,361.652,-138.633,29.1331,178.792,-0.131836,89.2969,428
1569682260,361.652,-138.633,29.1331,178.792,-0.131836,89.2969,428
1569682260,361.652,-138.633,29.1331,178.792,-0.131836,89.2969,428
1569682260,361.652,-138.633,29.1331,178.792,-0.131836,89.2969,428
1569682260,361.652,-138.633,29.1331,178.792,-0.131836,89.2969,428
1569682260,361.764,-138.633,29.1331,178.792,-0.131836,89.2969,428
1569682260,361.764,-138.633,29.1331,178.792,-0.131836,89.2969,428
1569682260,361.764,-138.633,29.1331,178.792,-0.131836,89.2969,428
1569682260,361.764,-138.633,29.1331,178.792,-0.131836,89.2969,428
1569682260,361.764,-138.633,29.1331,178.792,-0.131836,89.2969,428
1569682260,361.764,-138.633,29.1331,178.792,-0.131836,89.2969,428
1569682260,361.764,-138.633,29.1331,178.792,-0.131836,89.2969,428
1569682260,361.764,-138.633,29.1331,178.792,-0.131836,89.2969,428
1569682260,361.764,-138.633,29.1331,178.792,-0.131836,89.2969,428
1569682260,361.764,-138.633,29.1331,178.792,-0.131836,89.2969,428
1569682260,361.764,-138.633,29.1331,178.792,-0.131836,89.2969,428
1569682260,361.764,-138.633,29.1331,178.792,-0.131836,89.2969,428
1569682260,361.764,-138.633,29.1331,178.792,-0.131836,89.2969,428
1569682260,361.764,-138.633,29.1331,178.792,-0.131836,89.2969,428
1569682260,361.764,-138.633,29.1331,178.792,-0.131836,89.2969,428
1569682260,361.764,-138.633,29.1331,178.792,-0.131836,89.2969,428
1569682260,361.764,-138.633,29.1331,178.792,-0.131836,89.2969,428
1569682260,361.764,-138.633,29.1331,178.792,-0.131836,89.2969,428
1569682260,361.764,-138.633,29.1331,178.792,-0.131836,89.2969,428
1569682260,361.764,-138.633,29.1331,178.792,-0.131836,89.2969,428
1569682260,361.764,-138.633,29.1331,178.792,-0.131836,89.2969,428
1569682260,361.764,-138.633,29.1331,178.792,-0.131836,89.2969,428
1569682260,361.764,-138.633,29.1331,178.792,-0.131836,89.2969,428
1569682260,361.764,-138.633,29.1331,178.792,-0.131836,89.2969,428
1569682260,361.764,-138.633,29.1331,178.792,-0.131836,89.2969,428
1569682260,361.764,-138.633,29.1331,178.792,-0.131836,89.2969,428
1569682260,361.764,-138.522,29.1331,178.792,-0.131836,89.2969,428
1569682260,361.764,-138.522,29.1331,178.792,-0.131836,89.2969,432
1569682260,361.764,-138.522,29.1331,178.792,-0.131836,89.2969,432
1569682260,361.764,-138.522,29.1331,178.792,-0.131836,89.2969,432
1569682260,361.764,-138.522,29.1331,178.792,-0.131836,89.2969,428
1569682260,361.764,-138.522,29.1331,178.792,-0.131836,89.2969,428
1569682260,361.764,-138.522,29.1331,178.792,-0.131836,89.2969,428
1569682260,361.764,-138.633,29.1331,178.792,-0.131836,89.2969,428
1569682260,361.764,-138.633,29.1331,178.792,-0.131836,89.2969,428
1569682260,361.764,-138.633,29.1331,178.792,-0.131836,89.2969,428
1569682260,361.764,-138.633,29.1331,178.792,-0.131836,89.2969,428
1569682260,361.764,-138.633,29.1331,178.792,-0.131836,89.2969,428
1569682260,361.764,-138.633,29.1331,178.792,-0.131836,89.2969,428
1569682260,361.764,-138.633,29.1331,178.792,-0.131836,89.2969,428
1569682260,361.764,-138.633,29.1331,178.792,-0.131836,89.2969,428
1569682260,361.764,-138.633,29.1331,178.792,-0.131836,89.2969,428
1569682260,361.764,-138.633,29.1331,178.792,-0.131836,89.2969,428
1569682260,361.764,-138.633,29.1331,178.792,-0.131836,89.2969,428
1569682260,361.764,-138.633,29.1331,178.792,-0.131836,89.2969,428
1569682260,361.764,-138.633,29.1331,178.792,-0.131836,89.2969,428
1569682260,361.764,-138.633,29.1331,178.792,-0.131836,89.2969,428
1569682260,361.764,-138.633,29.1331,178.792,-0.131836,89.2969,428
1569682260,361.764,-138.633,29.1331,178.792,-0.131836,89.2969,428
1569682260,361.764,-138.633,29.1331,178.792,-0.131836,89.2969,428
1569682260,361.764,-138.633,29.1331,178.792,-0.131836,89.2969,428
1569682260,361.764,-138.633,29.1331,178.792,-0.131836,89.2969,428
1569682260,361.764,-138.633,29.1331,178.792,-0.131836,89.2969,428
1569682261,361.764,-138.633,29.1331,178.792,-0.131836,89.2969,428
1569682261,361.764,-138.633,29.1331,178.792,-0.131836,89.2969,428
1569682261,361.764,-138.633,29.1331,178.792,-0.131836,89.2969,428
1569682261,361.764,-138.633,29.1331,178.792,-0.131836,89.2969,428
1569682261,361.764,-138.633,29.1331,178.792,-0.131836,89.2969,428
1569682261,361.764,-138.633,29.1331,178.792,-0.131836,89.2969,428
1569682261,361.764,-138.633,29.1331,178.792,-0.131836,89.2969,428
1569682261,361.764,-138.633,29.1331,178.792,-0.131836,89.2969,428
1569682261,361.764,-138.633,29.1331,178.792,-0.131836,89.2969,428
1569682261,361.764,-138.633,29.1331,178.792,-0.131836,89.2969,428
1569682261,361.764,-138.633,29.1331,178.792,-0.131836,89.2969,428
1569682261,361.764,-138.633,29.1331,178.792,-0.131836,89.2969,428
1569682261,361.764,-138.633,29.1331,178.792,-0.131836,89.2969,428
1569682261,361.764,-138.633,29.1331,178.792,-0.131836,89.2969,428
1569682261,361.764,-138.633,29.1331,178.792,-0.131836,89.2969,428
1569682261,361.764,-138.633,29.1331,178.792,-0.131836,89.2969,428
1569682261,361.764,-138.633,29.1331,178.792,-0.131836,89.2969,428
1569682261,361.764,-138.633,29.1331,178.792,-0.131836,89.2969,428
1569682261,361.764,-138.633,29.1331,178.792,-0.131836,89.2969,428
1569682261,361.764,-138.633,29.1331,178.792,-0.131836,89.2969,428
1569682261,361.764,-138.633,29.1331,178.792,-0.131836,89.2969,428
1569682261,361.764,-138.633,29.1331,178.792,-0.131836,89.2969,428
1569682261,361.764,-138.633,29.1331,178.792,-0.131836,89.2969,428
1569682261,361.764,-138.633,29.1331,178.792,-0.131836,89.2969,428
1569682261,361.764,-138.633,29.1331,178.792,-0.131836,89.2969,428
1569682261,361.764,-138.633,29.1331,178.792,-0.131836,89.2969,428
1569682261,361.764,-138.633,29.1331,178.792,-0.131836,89.2969,428
1569682261,361.764,-138.633,29.1331,178.792,-0.131836,89.2969,428
1569682261,361.764,-138.633,29.1331,178.792,-0.131836,89.2969,428
1569682261,361.764,-138.633,29.1331,178.792,-0.131836,89.2969,428
1569682261,361.764,-138.633,29.1331,178.792,-0.131836,89.2969,428
1569682261,361.764,-138.633,29.1331,178.792,-0.131836,89.2969,428
1569682261,361.764,-138.633,29.1331,178.792,-0.131836,89.2969,428
1569682261,361.764,-138.633,29.1331,178.792,-0.131836,89.2969,428
1569682261,361.652,-138.633,29.1331,178.792,-0.131836,89.2969,428
1569682261,361.652,-138.633,29.1331,178.792,-0.131836,89.2969,428
1569682261,361.652,-138.633,29.1331,178.792,-0.131836,89.2969,428
1569682261,361.652,-138.633,29.1331,178.792,-0.131836,89.2969,428
1569682261,361.652,-138.633,29.1331,178.792,-0.131836,89.2969,428
1569682261,361.652,-138.633,29.1331,178.792,-0.131836,89.2969,428
1569682261,361.652,-138.633,29.1331,178.792,-0.131836,89.2969,428
1569682261,361.652,-138.633,29.1331,178.792,-0.131836,89.2969,428
1569682261,361.652,-138.633,29.1331,178.792,-0.131836,89.2969,428
1569682261,361.652,-138.633,29.1331,178.792,-0.131836,89.2969,428
1569682261,361.652,-138.633,29.1331,178.792,-0.131836,89.2969,428
1569682261,361.652,-138.633,29.1331,178.792,-0.131836,89.2969,428
1569682261,361.652,-138.633,29.1331,178.792,-0.131836,89.2969,428
1569682261,361.652,-138.633,29.1331,178.792,-0.131836,89.2969,428
1569682261,361.652,-138.633,29.1331,178.792,-0.131836,89.2969,428
1569682261,361.652,-138.633,29.1331,178.792,-0.131836,89.2969,428
1569682261,361.652,-138.633,29.1331,178.792,-0.131836,89.2969,428
1569682261,361.652,-138.633,29.1331,178.792,-0.131836,89.2969,428
1569682261,361.652,-138.633,29.1331,178.792,-0.131836,89.2969,428
1569682261,361.652,-138.633,29.1331,178.792,-0.131836,89.2969,428
1569682261,361.652,-138.633,29.1331,178.792,-0.131836,89.2969,428
1569682261,361.652,-138.633,29.1331,178.792,-0.131836,89.2969,428
1569682261,361.652,-138.633,29.1331,178.792,-0.131836,89.2969,428
1569682261,361.652,-138.633,29.1331,178.792,-0.131836,89.2969,428
1569682261,361.652,-138.633,29.1331,178.792,-0.131836,89.2969,428
1569682261,361.652,-138.633,29.1331,178.792,-0.131836,89.2969,428
1569682261,361.652,-138.633,29.1331,178.792,-0.131836,89.2969,428
1569682261,361.652,-138.633,29.1331,178.792,-0.131836,89.2969,428
1569682261,361.652,-138.633,29.2447,178.792,-0.131836,89.2969,428
1569682261,361.652,-138.633,29.2447,178.792,-0.131836,89.2969,428
1569682261,361.652,-138.633,29.2447,178.792,-0.131836,89.2969,428
1569682261,361.652,-138.633,29.2447,178.792,-0.131836,89.2969,428
1569682261,361.652,-138.633,29.2447,178.792,-0.131836,89.2969,428
1569682261,361.652,-138.633,29.2447,178.792,-0.131836,89.2969,428
1569682261,361.652,-138.633,29.1331,178.792,-0.131836,89.2969,428
1569682261,361.652,-138.633,29.1331,178.792,-0.131836,89.2969,428
1569682261,361.652,-138.633,29.1331,178.792,-0.131836,89.2969,428
1569682261,361.652,-138.633,29.1331,178.792,-0.131836,89.2969,428
1569682261,361.652,-138.633,29.1331,178.792,-0.131836,89.2969,428
1569682261,361.652,-138.633,29.1331,178.792,-0.131836,89.2969,428
1569682261,361.652,-138.633,29.1331,178.792,-0.131836,89.2969,428
1569682261,361.652,-138.633,29.1331,178.792,-0.131836,89.2969,432
1569682261,361.652,-138.633,29.1331,178.792,-0.131836,89.2969,432
1569682261,361.652,-138.633,29.1331,178.792,-0.131836,89.2969,432
1569682261,361.652,-138.633,29.1331,178.792,-0.131836,89.2969,432
1569682261,361.652,-138.633,29.1331,178.792,-0.131836,89.2969,432
1569682261,361.652,-138.633,29.1331,178.792,-0.131836,89.2969,432
1569682261,361.652,-138.633,29.1331,178.792,-0.131836,89.2969,432
1569682261,361.652,-138.633,29.1331,178.792,-0.131836,89.2969,432
1569682261,361.652,-138.633,29.1331,178.792,-0.131836,89.2969,432
1569682261,361.652,-138.633,29.1331,178.792,-0.131836,89.2969,432
1569682261,361.652,-138.633,29.1331,178.792,-0.131836,89.2969,432
1569682261,361.652,-138.633,29.1331,178.792,-0.131836,89.2969,432
1569682261,361.652,-138.633,29.1331,178.792,-0.131836,89.2969,432
1569682261,361.652,-138.633,29.1331,178.792,-0.131836,89.2969,432
1569682261,361.652,-138.633,29.1331,178.792,-0.131836,89.2969,432
1569682261,361.652,-138.633,29.1331,178.792,-0.131836,89.2969,432
1569682261,361.652,-138.633,29.1331,178.792,-0.131836,89.2969,432
1569682261,361.652,-138.633,29.1331,178.792,-0.131836,89.2969,432
1569682261,361.652,-138.633,29.1331,178.792,-0.131836,89.2969,432
1569682261,361.652,-138.633,29.1331,178.792,-0.131836,89.2969,432
1569682261,361.652,-138.633,29.1331,178.792,-0.131836,89.2969,432
1569682261,361.652,-138.633,29.1331,178.792,-0.131836,89.2969,432
1569682261,361.652,-138.633,29.1331,178.792,-0.131836,89.2969,432
1569682261,361.652,-138.633,29.1331,178.792,-0.131836,89.2969,432
1569682261,361.652,-138.633,29.1331,178.792,-0.131836,89.2969,432
1569682262,361.652,-138.633,29.1331,178.792,-0.131836,89.2969,432
1569682262,361.652,-138.633,29.1331,178.792,-0.131836,89.2969,432
1569682262,361.652,-138.633,29.1331,178.792,-0.131836,89.2969,432
1569682262,361.652,-138.633,29.1331,178.792,-0.131836,89.2969,432
1569682262,361.652,-138.633,29.1331,178.792,-0.131836,89.2969,432
1569682262,361.652,-138.633,29.1331,178.792,-0.131836,89.2969,432
1569682262,361.652,-138.633,29.1331,178.792,-0.131836,89.2969,432
1569682262,361.652,-138.633,29.1331,178.792,-0.131836,89.2969,432
1569682262,361.652,-138.633,29.1331,178.792,-0.131836,89.2969,432
1569682262,361.652,-138.633,29.1331,178.792,-0.131836,89.2969,432
1569682262,361.652,-138.633,29.1331,178.792,-0.131836,89.2969,432
1569682262,361.652,-138.633,29.1331,178.792,-0.131836,89.2969,432
1569682262,361.652,-138.633,29.1331,178.792,-0.131836,89.2969,432
1569682262,361.652,-138.633,29.1331,178.792,-0.131836,89.2969,432
1569682262,361.652,-138.633,29.1331,178.792,-0.131836,89.2969,432
1569682262,361.652,-138.633,29.1331,178.792,-0.131836,89.2969,432
1569682262,361.652,-138.633,29.1331,178.792,-0.131836,89.2969,432
1569682262,361.652,-138.633,29.1331,178.792,-0.131836,89.2969,432
1569682262,361.652,-138.633,29.1331,178.792,-0.131836,89.2969,432
1569682262,361.764,-138.633,29.1331,178.792,-0.131836,89.2969,432
1569682262,361.764,-138.633,29.1331,178.792,-0.131836,89.2969,432
1569682262,361.764,-138.633,29.1331,178.792,-0.131836,89.2969,432
1569682262,361.764,-138.633,29.1331,178.792,-0.131836,89.2969,432
1569682262,361.764,-138.633,29.1331,178.792,-0.131836,89.2969,432
1569682262,361.764,-138.633,29.1331,178.792,-0.131836,89.2969,432
1569682262,361.764,-138.633,29.1331,178.792,-0.131836,89.2969,432
1569682262,361.764,-138.633,29.1331,178.792,-0.131836,89.2969,432
1569682262,361.764,-138.633,29.1331,178.792,-0.131836,89.2969,432
1569682262,361.764,-138.633,29.1331,178.792,-0.131836,89.2969,432
1569682262,361.764,-138.633,29.1331,178.792,-0.131836,89.2969,432
1569682262,361.764,-138.633,29.1331,178.792,-0.131836,89.2969,432
1569682262,361.764,-138.633,29.1331,178.792,-0.131836,89.2969,432
1569682262,361.764,-138.633,29.1331,178.792,-0.131836,89.2969,428
1569682262,361.764,-138.633,29.1331,178.792,-0.131836,89.2969,428
1569682262,361.764,-138.633,29.1331,178.792,-0.131836,89.2969,428
1569682262,361.764,-138.633,29.1331,178.792,-0.131836,89.2969,428
1569682262,361.764,-138.633,29.1331,178.792,-0.131836,89.2969,428
1569682262,361.764,-138.633,29.1331,178.792,-0.131836,89.2969,428
1569682262,361.764,-138.633,29.1331,178.792,-0.131836,89.2969,428
1569682262,361.764,-138.633,29.1331,178.792,-0.131836,89.2969,428
1569682262,361.764,-138.633,29.1331,178.792,-0.131836,89.2969,428
1569682262,361.764,-138.633,29.1331,178.792,-0.131836,89.2969,428
1569682262,361.764,-138.633,29.1331,178.792,-0.131836,89.2969,428
1569682262,361.764,-138.633,29.1331,178.792,-0.131836,89.2969,428
1569682262,361.764,-138.633,29.1331,178.792,-0.131836,89.2969,428
1569682262,361.764,-138.633,29.1331,178.792,-0.131836,89.2969,428
1569682262,361.764,-138.633,29.1331,178.792,-0.131836,89.2969,428
1569682262,361.764,-138.633,29.1331,178.792,-0.131836,89.2969,428
1569682262,361.764,-138.633,29.1331,178.792,-0.131836,89.2969,428
1569682262,361.652,-138.633,29.1331,178.792,-0.131836,89.2969,428
1569682262,361.652,-138.633,29.1331,178.792,-0.131836,89.2969,428
1569682262,361.652,-138.633,29.1331,178.792,-0.131836,89.2969,428
1569682262,361.652,-138.633,29.1331,178.792,-0.131836,89.2969,428
1569682262,361.652,-138.633,29.1331,178.792,-0.131836,89.2969,428
1569682262,361.652,-138.633,29.1331,178.792,-0.131836,89.2969,428
1569682262,361.652,-138.633,29.1331,178.792,-0.131836,89.2969,428
1569682262,361.652,-138.633,29.1331,178.792,-0.131836,89.2969,428
1569682262,361.652,-138.633,29.1331,178.792,-0.131836,89.2969,428
1569682262,361.652,-138.633,29.1331,178.792,-0.131836,89.2969,428
1569682262,361.652,-138.633,29.1331,178.792,-0.131836,89.2969,428
1569682262,361.652,-138.633,29.1331,178.792,-0.131836,89.2969,428
1569682262,361.652,-138.633,29.1331,178.792,-0.131836,89.2969,428
1569682262,361.652,-138.633,29.1331,178.792,-0.131836,89.2969,428
1569682262,361.652,-138.633,29.1331,178.792,-0.131836,89.2969,428
1569682262,361.652,-138.633,29.1331,178.792,-0.131836,89.2969,428
1569682262,361.652,-138.633,29.1331,178.792,-0.131836,89.2969,428
1569682262,361.652,-138.633,29.1331,178.792,-0.131836,89.2969,428
1569682262,361.652,-138.633,29.1331,178.792,-0.131836,89.2969,428
1569682262,361.652,-138.633,29.1331,178.792,-0.131836,89.2969,428
1569682262,361.652,-138.633,29.1331,178.792,-0.131836,89.2969,428
1569682262,361.652,-138.633,29.1331,178.792,-0.131836,89.2969,428
1569682262,361.652,-138.633,29.1331,178.792,-0.131836,89.2969,428
1569682262,361.652,-138.633,29.1331,178.792,-0.131836,89.2969,428
1569682262,361.652,-138.633,29.1331,178.792,-0.131836,89.2969,428
1569682262,361.652,-138.633,29.1331,178.792,-0.131836,89.2969,428
1569682262,361.652,-138.633,29.1331,178.792,-0.131836,89.2969,428
1569682262,361.652,-138.633,29.1331,178.792,-0.131836,89.2969,428
1569682262,361.652,-138.633,29.1331,178.792,-0.131836,89.2969,428
1569682262,361.652,-138.633,29.1331,178.792,-0.131836,89.2969,428
1569682262,361.652,-138.633,29.1331,178.792,-0.131836,89.2969,428
1569682262,361.652,-138.633,29.1331,178.792,-0.131836,89.2969,428
1569682262,361.652,-138.633,29.1331,178.792,-0.131836,89.2969,428
1569682262,361.652,-138.633,29.1331,178.792,-0.131836,89.2969,428
1569682262,361.652,-138.522,29.1331,178.792,-0.131836,89.2969,428
1569682262,361.652,-138.522,29.1331,178.792,-0.131836,89.2969,428
1569682262,361.652,-138.522,29.1331,178.792,-0.131836,89.2969,428
1569682262,361.652,-138.522,29.1331,178.792,-0.131836,89.2969,428
1569682262,361.652,-138.522,29.1331,178.792,-0.131836,89.2969,428
1569682262,361.652,-138.633,29.1331,178.792,-0.131836,89.2969,428
1569682262,361.652,-138.633,29.1331,178.792,-0.131836,89.2969,428
1569682262,361.652,-138.633,29.1331,178.792,-0.131836,89.2969,428
1569682262,361.652,-138.633,29.1331,178.792,-0.131836,89.2969,428
1569682262,361.652,-138.633,29.1331,178.792,-0.131836,89.2969,428
1569682262,361.652,-138.633,29.1331,178.792,-0.131836,89.2969,428
1569682262,361.652,-138.633,29.1331,178.792,-0.131836,89.2969,428
1569682262,361.652,-138.633,29.1331,178.792,-0.131836,89.2969,428
1569682262,361.652,-138.633,29.1331,178.792,-0.131836,89.2969,432
1569682262,361.652,-138.633,29.1331,178.792,-0.131836,89.2969,432
1569682262,361.652,-138.633,29.1331,178.792,-0.131836,89.2969,432
1569682262,361.652,-138.633,29.1331,178.792,-0.131836,89.2969,432
1569682262,361.652,-138.633,29.1331,178.792,-0.131836,89.2969,432
1569682263,361.652,-138.633,29.1331,178.792,-0.131836,89.2969,432
1569682263,361.652,-138.633,29.1331,178.792,-0.131836,89.2969,432
1569682263,361.652,-138.633,29.1331,178.792,-0.131836,89.2969,432
1569682263,361.652,-138.633,29.1331,178.792,-0.131836,89.2969,432
1569682263,361.652,-138.633,29.1331,178.792,-0.131836,89.2969,432
1569682263,361.652,-138.633,29.1331,178.792,-0.131836,89.2969,432
1569682263,361.652,-138.633,29.1331,178.792,-0.131836,89.2969,432
1569682263,361.652,-138.633,29.1331,178.792,-0.131836,89.2969,432
1569682263,361.652,-138.633,29.1331,178.792,-0.131836,89.2969,432
1569682263,361.652,-138.633,29.1331,178.792,-0.131836,89.2969,432
1569682263,361.652,-138.633,29.1331,178.792,-0.131836,89.2969,432
1569682263,361.652,-138.633,29.1331,178.792,-0.131836,89.2969,428
1569682263,361.652,-138.633,29.1331,178.792,-0.131836,89.2969,428
1569682263,361.652,-138.633,29.1331,178.792,-0.131836,89.2969,428
1569682263,361.652,-138.633,29.1331,178.792,-0.131836,89.2969,428
1569682263,361.652,-138.633,29.1331,178.792,-0.131836,89.2969,428
1569682263,361.652,-138.633,29.1331,178.792,-0.131836,89.2969,428
1569682263,361.652,-138.633,29.1331,178.792,-0.131836,89.2969,428
1569682263,361.652,-138.633,29.1331,178.792,-0.131836,89.2969,428
1569682263,361.652,-138.633,29.1331,178.792,-0.131836,89.2969,428
1569682263,361.652,-138.633,29.1331,178.792,-0.131836,89.2969,428
1569682263,361.652,-138.633,29.1331,178.792,-0.131836,89.2969,428
1569682263,361.652,-138.633,29.1331,178.792,-0.131836,89.2969,428
1569682263,361.652,-138.633,29.1331,178.792,-0.131836,89.2969,428
1569682263,361.652,-138.633,29.1331,178.792,-0.131836,89.2969,428
1569682263,361.652,-138.633,29.1331,178.792,-0.131836,89.2969,428
1569682263,361.652,-138.633,29.1331,178.792,-0.131836,89.2969,428
1569682263,361.652,-138.633,29.1331,178.792,-0.131836,89.2969,428
1569682263,361.652,-138.633,29.1331,178.792,-0.131836,89.2969,428
1569682263,361.652,-138.633,29.1331,178.792,-0.131836,89.2969,428
1569682263,361.652,-138.633,29.1331,178.792,-0.131836,89.2969,428
1569682263,361.652,-138.633,29.1331,178.792,-0.131836,89.2969,428
1569682263,361.652,-138.633,29.1331,178.792,-0.131836,89.2969,428
1569682263,361.652,-138.633,29.1331,178.792,-0.131836,89.2969,428
1569682263,361.652,-138.633,29.1331,178.792,-0.131836,89.2969,428
1569682263,361.652,-138.633,29.1331,178.792,-0.131836,89.2969,428
1569682263,361.652,-138.633,29.1331,178.792,-0.131836,89.2969,428
1569682263,361.652,-138.633,29.1331,178.792,-0.131836,89.2969,428
1569682263,361.764,-138.633,29.1331,178.792,-0.131836,89.2969,428
1569682263,361.764,-138.633,29.1331,178.792,-0.131836,89.2969,428
1569682263,361.764,-138.633,29.1331,178.792,-0.131836,89.2969,428
1569682263,361.764,-138.633,29.1331,178.792,-0.131836,89.2969,428
1569682263,361.764,-138.633,29.1331,178.792,-0.131836,89.2969,428
1569682263,361.764,-138.633,29.1331,178.792,-0.131836,89.2969,428
1569682263,361.764,-138.633,29.1331,178.792,-0.131836,89.2969,428
1569682263,361.652,-138.633,29.1331,178.792,-0.131836,89.2969,428
1569682263,361.652,-138.633,29.1331,178.792,-0.131836,89.2969,428
1569682263,361.652,-138.633,29.1331,178.792,-0.131836,89.2969,428
1569682263,361.652,-138.633,29.1331,178.792,-0.131836,89.2969,428
1569682263,361.652,-138.633,29.1331,178.792,-0.131836,89.2969,428
1569682263,361.652,-138.633,29.1331,178.792,-0.131836,89.2969,428
1569682263,361.652,-138.633,29.1331,178.792,-0.131836,89.2969,428
1569682263,361.652,-138.633,29.1331,178.792,-0.131836,89.2969,428
1569682263,361.652,-138.633,29.1331,178.792,-0.131836,89.2969,428
1569682263,361.652,-138.633,29.1331,178.792,-0.131836,89.2969,428
1569682263,361.652,-138.633,29.1331,178.792,-0.131836,89.2969,428
1569682263,361.652,-138.633,29.1331,178.792,-0.131836,89.2969,428
1569682263,361.652,-138.633,29.1331,178.792,-0.131836,89.2969,428
1569682263,361.764,-138.633,29.1331,178.792,-0.131836,89.2969,428
1569682263,361.764,-138.633,29.1331,178.792,-0.131836,89.2969,428
1569682263,361.764,-138.633,29.1331,178.792,-0.131836,89.2969,428
1569682263,361.764,-138.633,29.1331,178.792,-0.131836,89.2969,428
1569682263,361.764,-138.633,29.1331,178.792,-0.131836,89.2969,428
1569682263,361.764,-138.633,29.1331,178.792,-0.131836,89.2969,428
1569682263,361.764,-138.633,29.1331,178.792,-0.131836,89.2969,428
1569682263,361.652,-138.633,29.1331,178.792,-0.131836,89.2969,428
1569682263,361.652,-138.633,29.1331,178.792,-0.131836,89.2969,428
1569682263,361.652,-138.633,29.1331,178.792,-0.131836,89.2969,428
1569682263,361.652,-138.633,29.1331,178.792,-0.131836,89.2969,428
1569682263,361.652,-138.633,29.1331,178.792,-0.131836,89.2969,428
1569682263,361.652,-138.633,29.1331,178.792,-0.131836,89.2969,428
1569682263,361.652,-138.633,29.1331,178.792,-0.131836,89.2969,428
1569682263,361.652,-138.633,29.1331,178.792,-0.131836,89.2969,428
1569682263,361.652,-138.633,29.1331,178.792,-0.131836,89.2969,428
1569682263,361.652,-138.633,29.1331,178.792,-0.131836,89.2969,428
1569682263,361.652,-138.633,29.1331,178.792,-0.131836,89.2969,428
1569682263,361.652,-138.633,29.1331,178.792,-0.131836,89.2969,428
1569682263,361.652,-138.633,29.1331,178.792,-0.131836,89.2969,428
1569682263,361.652,-138.633,29.1331,178.792,-0.131836,89.2969,428
1569682263,361.652,-138.633,29.1331,178.792,-0.131836,89.2969,428
1569682263,361.652,-138.633,29.1331,178.792,-0.131836,89.2969,428
1569682263,361.652,-138.633,29.2447,178.792,-0.131836,89.2969,428
1569682263,361.652,-138.633,29.2447,178.792,-0.131836,89.2969,428
1569682263,361.652,-138.633,29.2447,178.792,-0.131836,89.2969,428
1569682263,361.652,-138.633,29.2447,178.792,-0.131836,89.2969,428
1569682263,361.652,-138.633,29.2447,178.792,-0.131836,89.2969,428
1569682263,361.652,-138.633,29.2447,178.792,-0.131836,89.2969,428
1569682263,361.652,-138.633,29.2447,178.792,-0.131836,89.2969,428
1569682263,361.652,-138.633,29.2447,178.792,-0.131836,89.2969,428
1569682263,361.652,-138.633,29.2447,178.792,-0.131836,89.2969,428
1569682263,361.652,-138.633,29.2447,178.792,-0.131836,89.2969,428
1569682263,361.652,-138.633,29.2447,178.792,-0.131836,89.2969,428
1569682263,361.652,-138.633,29.2447,178.792,-0.131836,89.2969,428
1569682268,361.764,-138.522,29.1331,178.792,-0.153809,89.2969,432
1569682268,361.652,-138.633,29.1331,178.792,-0.153809,89.2969,432
1569682268,361.652,-138.633,29.1331,178.792,-0.153809,89.2969,432
1569682268,361.652,-138.633,29.1331,178.792,-0.153809,89.2969,432
1569682268,361.652,-138.633,29.1331,178.792,-0.153809,89.2969,432
1569682268,361.652,-138.633,29.1331,178.792,-0.153809,89.2969,432
1569682268,361.652,-138.633,29.1331,178.792,-0.153809,89.2969,432
1569682268,361.652,-138.633,29.1331,178.792,-0.153809,89.2969,432
1569682268,361.652,-138.633,29.1331,178.792,-0.153809,89.2969,432
1569682268,361.652,-138.633,29.1331,178.792,-0.153809,89.2969,432
1569682268,361.652,-138.633,29.1331,178.792,-0.153809,89.2969,432
1569682268,361.652,-138.633,29.1331,178.792,-0.153809,89.2969,432
1569682268,361.652,-138.633,29.1331,178.792,-0.153809,89.2969,432
1569682268,361.652,-138.633,29.1331,178.792,-0.153809,89.2969,432
1569682268,361.652,-138.633,29.1331,178.792,-0.153809,89.2969,432
1569682268,361.652,-138.633,29.1331,178.792,-0.153809,89.2969,432
1569682268,361.652,-138.633,29.1331,178.792,-0.153809,89.2969,432
1569682268,361.652,-138.633,29.1331,178.792,-0.153809,89.2969,432
1569682268,361.652,-138.633,29.1331,178.792,-0.153809,89.2969,432
1569682268,361.652,-138.633,29.1331,178.792,-0.153809,89.2969,432
1569682268,361.652,-138.633,29.1331,178.792,-0.153809,89.2969,432
1569682268,361.652,-138.633,29.1331,178.792,-0.153809,89.2969,432
1569682268,361.652,-138.633,29.1331,178.792,-0.153809,89.2969,432
1569682268,361.652,-138.633,29.1331,178.792,-0.153809,89.2969,432
1569682268,361.652,-138.633,29.1331,178.792,-0.153809,89.2969,432
1569682268,361.652,-138.633,29.1331,178.792,-0.153809,89.2969,432
1569682268,361.764,-138.633,29.1331,178.792,-0.153809,89.2969,432
1569682268,361.764,-138.633,29.1331,178.792,-0.153809,89.2969,432
1569682268,361.764,-138.633,29.1331,178.792,-0.153809,89.2969,428
1569682268,361.764,-138.633,29.1331,178.792,-0.131836,89.2969,428
1569682268,361.764,-138.633,29.1331,178.792,-0.131836,89.2969,428
1569682268,361.764,-138.633,29.1331,178.792,-0.131836,89.2969,428
1569682268,361.764,-138.633,29.1331,178.792,-0.131836,89.2969,428
1569682268,361.764,-138.633,29.1331,178.792,-0.131836,89.2969,428
1569682269,361.652,-138.633,29.1331,178.792,-0.131836,89.2969,428
1569682269,361.652,-138.633,29.1331,178.792,-0.131836,89.2969,428
1569682269,361.652,-138.633,29.1331,178.792,-0.131836,89.2969,428
1569682269,361.652,-138.633,29.1331,178.792,-0.131836,89.2969,428
1569682269,361.652,-138.633,29.1331,178.792,-0.131836,89.2969,428
1569682269,361.652,-138.633,29.1331,178.792,-0.131836,89.2969,428
1569682269,361.652,-138.633,29.1331,178.792,-0.131836,89.2969,428
1569682269,361.652,-138.633,29.1331,178.792,-0.131836,89.2969,428
1569682269,361.652,-138.633,29.1331,178.792,-0.131836,89.2969,428
1569682269,361.652,-138.633,29.1331,178.792,-0.131836,89.2969,428
1569682269,361.652,-138.633,29.1331,178.792,-0.131836,89.2969,428
1569682269,361.652,-138.633,29.1331,178.792,-0.131836,89.2969,428
1569682269,361.652,-138.633,29.1331,178.792,-0.131836,89.2969,428
1569682269,361.652,-138.633,29.1331,178.792,-0.131836,89.2969,428
1569682269,361.652,-138.633,29.1331,178.792,-0.131836,89.2969,428
1569682269,361.652,-138.633,29.1331,178.792,-0.131836,89.2969,428
1569682269,361.652,-138.633,29.1331,178.792,-0.131836,89.2969,428
1569682269,361.764,-138.633,29.1331,178.792,-0.131836,89.2969,428
1569682269,361.764,-138.633,29.1331,178.792,-0.131836,89.2969,428
1569682269,361.764,-138.633,29.1331,178.792,-0.131836,89.2969,428
1569682269,361.764,-138.633,29.1331,178.792,-0.131836,89.2969,428
1569682269,361.764,-138.633,29.1331,178.792,-0.131836,89.2969,428
1569682269,361.764,-138.633,29.1331,178.792,-0.153809,89.2969,428
1569682269,361.764,-138.633,29.1331,178.792,-0.153809,89.2969,428
1569682269,361.764,-138.633,29.1331,178.792,-0.153809,89.2969,428
1569682269,361.764,-138.633,29.1331,178.792,-0.153809,89.2969,428
1569682269,361.764,-138.522,29.1331,178.792,-0.153809,89.2969,428
1569682269,361.764,-138.522,29.1331,178.792,-0.153809,89.2969,428
1569682269,361.764,-138.633,29.1331,178.792,-0.131836,89.2969,428
1569682269,361.764,-138.633,29.1331,178.792,-0.131836,89.2969,428
1569682269,361.764,-138.522,29.1331,178.792,-0.131836,89.2969,428
1569682269,361.764,-138.522,29.1331,178.792,-0.131836,89.2969,428
1569682269,361.764,-138.522,29.1331,178.792,-0.131836,89.2969,428
1569682269,361.764,-138.522,29.1331,178.792,-0.131836,89.2969,428
1569682269,361.764,-138.522,29.1331,178.792,-0.153809,89.2969,428
1569682269,361.764,-138.522,29.1331,178.792,-0.153809,89.2969,428
1569682269,361.764,-138.522,29.1331,178.792,-0.153809,89.2969,428
1569682269,361.764,-138.522,29.1331,178.792,-0.153809,89.2969,428
1569682269,361.764,-138.522,29.1331,178.792,-0.153809,89.2969,428
1569682269,361.764,-138.522,29.1331,178.792,-0.153809,89.2969,428
1569682269,361.764,-138.522,29.1331,178.792,-0.131836,89.2969,428
1569682269,361.764,-138.522,29.1331,178.792,-0.131836,89.2969,428
1569682269,361.764,-138.633,29.1331,178.792,-0.131836,89.2969,428
1569682269,361.764,-138.633,29.1331,178.792,-0.131836,89.2969,428
1569682269,361.764,-138.633,29.1331,178.792,-0.131836,89.2969,428
1569682269,361.764,-138.633,29.1331,178.792,-0.131836,89.2969,428
1569682269,361.764,-138.633,29.1331,178.792,-0.131836,89.2969,428
1569682269,361.764,-138.633,29.1331,178.792,-0.131836,89.2969,428
1569682269,361.652,-138.633,29.1331,178.792,-0.131836,89.2969,428
1569682269,361.652,-138.633,29.1331,178.792,-0.131836,89.2969,428
1569682269,361.652,-138.633,29.1331,178.792,-0.131836,89.2969,428
1569682269,361.652,-138.633,29.1331,178.792,-0.131836,89.2969,428
1569682269,361.652,-138.633,29.1331,178.792,-0.131836,89.2969,428
1569682269,361.652,-138.633,29.1331,178.792,-0.153809,89.2969,428
1569682269,361.652,-138.633,29.1331,178.792,-0.153809,89.2969,428
1569682269,361.652,-138.633,29.1331,178.792,-0.153809,89.2969,432
1569682269,361.652,-138.633,29.1331,178.792,-0.153809,89.2969,432
1569682269,361.652,-138.633,29.1331,178.792,-0.153809,89.2969,432
1569682269,361.652,-138.633,29.1331,178.792,-0.153809,89.2969,432
1569682269,361.652,-138.633,29.1331,178.792,-0.153809,89.2969,432
1569682269,361.652,-138.633,29.1331,178.792,-0.153809,89.2969,432
1569682269,361.652,-138.633,29.1331,178.792,-0.153809,89.2969,432
1569682269,361.652,-138.633,29.1331,178.792,-0.153809,89.2969,432
1569682269,361.652,-138.633,29.1331,178.792,-0.131836,89.2969,432
1569682269,361.652,-138.633,29.1331,178.792,-0.131836,89.2969,432
1569682269,361.652,-138.633,29.1331,178.792,-0.131836,89.2969,432
1569682269,361.652,-138.633,29.1331,178.792,-0.131836,89.2969,432
1569682269,361.652,-138.633,29.1331,178.792,-0.131836,89.2969,432
1569682269,361.652,-138.633,29.1331,178.792,-0.131836,89.2969,432
1569682269,361.652,-138.633,29.1331,178.792,-0.131836,89.2969,432
1569682269,361.652,-138.633,29.1331,178.792,-0.131836,89.2969,432
1569682269,361.652,-138.633,29.1331,178.792,-0.131836,89.2969,432
1569682269,361.652,-138.633,29.1331,178.792,-0.131836,89.2969,432
1569682269,361.652,-138.633,29.1331,178.792,-0.131836,89.2969,428
1569682269,361.652,-138.633,29.1331,178.792,-0.131836,89.2969,428
1569682269,361.652,-138.522,29.1331,178.792,-0.131836,89.2969,428
1569682269,361.652,-138.522,29.1331,178.792,-0.131836,89.2969,428
1569682269,361.652,-138.522,29.1331,178.792,-0.131836,89.2969,428
1569682269,361.652,-138.522,29.1331,178.792,-0.131836,89.2969,428
1569682269,361.652,-138.522,29.1331,178.792,-0.131836,89.2969,428
1569682269,361.652,-138.522,29.1331,178.792,-0.131836,89.2969,428
1569682269,361.652,-138.522,29.1331,178.792,-0.131836,89.2969,428
1569682269,361.652,-138.522,29.1331,178.792,-0.131836,89.2969,428
1569682269,361.652,-138.522,29.1331,178.792,-0.131836,89.2969,428
1569682269,361.652,-138.522,29.1331,178.792,-0.131836,89.2969,428
1569682269,361.652,-138.522,29.1331,178.792,-0.131836,89.2969,428
1569682269,361.652,-138.633,29.1331,178.792,-0.131836,89.2969,428
1569682269,361.652,-138.633,29.1331,178.792,-0.131836,89.2969,428
1569682269,361.652,-138.633,29.1331,178.792,-0.131836,89.2969,428
1569682269,361.652,-138.633,29.1331,178.792,-0.131836,89.2969,428
1569682269,361.652,-138.633,29.1331,178.792,-0.131836,89.2969,428
1569682269,361.652,-138.633,29.1331,178.792,-0.131836,89.2969,428
1569682269,361.652,-138.633,29.1331,178.792,-0.131836,89.2969,428
1569682269,361.652,-138.633,29.1331,178.792,-0.131836,89.2969,428
1569682269,361.652,-138.633,29.1331,178.792,-0.131836,89.2969,428
1569682269,361.652,-138.633,29.1331,178.792,-0.131836,89.2969,428
1569682269,361.652,-138.633,29.1331,178.792,-0.131836,89.2969,428
1569682269,361.652,-138.633,29.1331,178.792,-0.131836,89.2969,428
1569682269,361.652,-138.633,29.1331,178.792,-0.131836,89.2969,428
1569682269,361.652,-138.633,29.1331,178.792,-0.131836,89.2969,428
1569682270,361.652,-138.633,29.1331,178.792,-0.131836,89.2969,428
1569682270,361.652,-138.633,29.1331,178.792,-0.131836,89.2969,428
1569682270,361.652,-138.633,29.1331,178.792,-0.131836,89.2969,428
1569682270,361.652,-138.633,29.1331,178.792,-0.131836,89.2969,428
1569682270,361.652,-138.633,29.1331,178.792,-0.131836,89.2969,428
1569682270,361.652,-138.633,29.1331,178.792,-0.131836,89.2969,428
1569682270,361.652,-138.633,29.1331,178.792,-0.131836,89.2969,428
1569682270,361.652,-138.633,29.1331,178.792,-0.131836,89.2969,428
1569682270,361.652,-138.633,29.1331,178.792,-0.131836,89.2969,428
1569682270,361.652,-138.633,29.1331,178.792,-0.131836,89.2969,428
1569682270,361.652,-138.633,29.1331,178.792,-0.131836,89.2969,428
1569682270,361.652,-138.633,29.1331,178.792,-0.131836,89.2969,428
1569682270,361.652,-138.633,29.1331,178.792,-0.131836,89.2969,428
1569682270,361.652,-138.633,29.1331,178.792,-0.131836,89.2969,428
1569682270,361.652,-138.633,29.1331,178.792,-0.131836,89.2969,428
1569682270,361.652,-138.633,29.1331,178.792,-0.131836,89.2969,432
1569682270,361.652,-138.633,29.1331,178.792,-0.131836,89.2969,432
1569682270,361.652,-138.633,29.1331,178.792,-0.131836,89.2969,432
1569682270,361.652,-138.633,29.1331,178.792,-0.131836,89.2969,432
1569682270,361.652,-138.633,29.1331,178.792,-0.131836,89.2969,432
1569682270,361.652,-138.633,29.1331,178.792,-0.131836,89.2969,432
1569682270,361.652,-138.633,29.1331,178.792,-0.131836,89.2969,432
1569682270,361.652,-138.633,29.1331,178.792,-0.131836,89.2969,432
1569682270,361.764,-138.633,29.1331,178.792,-0.131836,89.2969,432
1569682270,361.764,-138.633,29.1331,178.792,-0.131836,89.2969,432
1569682270,361.764,-138.633,29.1331,178.792,-0.131836,89.2969,432
1569682270,361.764,-138.633,29.1331,178.792,-0.131836,89.2969,432
1569682270,361.764,-138.633,29.1331,178.792,-0.131836,89.2969,432
1569682270,361.764,-138.633,29.1331,178.792,-0.131836,89.2969,432
1569682270,361.764,-138.633,29.1331,178.792,-0.131836,89.2969,432
1569682270,361.764,-138.633,29.1331,178.792,-0.131836,89.2969,432
1569682270,361.764,-138.633,29.1331,178.792,-0.131836,89.2969,428
1569682270,361.764,-138.633,29.1331,178.792,-0.131836,89.2969,428
1569682270,361.764,-138.633,29.1331,178.792,-0.131836,89.2969,428
1569682270,361.764,-138.633,29.1331,178.792,-0.131836,89.2969,428
1569682270,361.764,-138.633,29.1331,178.792,-0.131836,89.2969,428
1569682270,361.764,-138.633,29.1331,178.792,-0.131836,89.2969,428
1569682270,361.764,-138.633,29.1331,178.792,-0.131836,89.2969,428
1569682270,361.764,-138.633,29.1331,178.792,-0.131836,89.2969,428
1569682270,361.764,-138.633,29.1331,178.792,-0.131836,89.2969,428
1569682270,361.764,-138.633,29.1331,178.792,-0.131836,89.2969,428
1569682270,361.764,-138.633,29.1331,178.792,-0.131836,89.2969,428
1569682270,361.764,-138.522,29.1331,178.792,-0.131836,89.2969,428
1569682270,361.764,-138.522,29.1331,178.792,-0.131836,89.2969,428
1569682270,361.764,-138.522,29.1331,178.792,-0.131836,89.2969,428
1569682270,361.764,-138.522,29.1331,178.792,-0.131836,89.2969,428
1569682270,361.764,-138.633,29.1331,178.792,-0.131836,89.2969,428
1569682270,361.764,-138.633,29.1331,178.792,-0.153809,89.2969,428
1569682270,361.764,-138.633,29.1331,178.792,-0.153809,89.2969,428
1569682270,361.764,-138.633,29.1331,178.792,-0.131836,89.2969,428
1569682270,361.652,-138.633,29.1331,178.792,-0.131836,89.2969,432
1569682270,361.652,-138.633,29.1331,178.792,-0.131836,89.2969,432
1569682270,361.652,-138.633,29.1331,178.792,-0.131836,89.2969,432
1569682270,361.652,-138.633,29.1331,178.792,-0.131836,89.2969,432
1569682270,361.652,-138.633,29.1331,178.792,-0.131836,89.2969,432
1569682270,361.652,-138.633,29.1331,178.792,-0.131836,89.2969,432
1569682270,361.652,-138.633,29.1331,178.792,-0.131836,89.2969,432
1569682270,361.652,-138.633,29.1331,178.792,-0.131836,89.2969,432
1569682270,361.652,-138.633,29.1331,178.792,-0.131836,89.2969,432
1569682270,361.652,-138.633,29.1331,178.792,-0.153809,89.2969,432
1569682270,361.652,-138.633,29.1331,178.792,-0.153809,89.2969,432
1569682270,361.652,-138.633,29.1331,178.792,-0.153809,89.2969,432
1569682270,361.652,-138.633,29.1331,178.792,-0.153809,89.2969,432
1569682270,361.652,-138.633,29.1331,178.792,-0.153809,89.2969,432
1569682270,361.652,-138.522,29.1331,178.792,-0.153809,89.2969,432
1569682270,361.652,-138.522,29.1331,178.792,-0.153809,89.2969,432
1569682270,361.652,-138.522,29.1331,178.792,-0.131836,89.2969,432
1569682270,361.652,-138.633,29.1331,178.792,-0.131836,89.2969,432
1569682270,361.652,-138.633,29.1331,178.792,-0.131836,89.2969,432
1569682270,361.652,-138.633,29.1331,178.792,-0.131836,89.2969,432
1569682270,361.652,-138.633,29.1331,178.792,-0.131836,89.2969,432
1569682270,361.652,-138.633,29.1331,178.792,-0.131836,89.2969,432
1569682270,361.652,-138.633,29.1331,178.792,-0.131836,89.2969,432
1569682270,361.652,-138.633,29.1331,178.792,-0.131836,89.2969,432
1569682270,361.652,-138.633,29.1331,178.792,-0.131836,89.2969,432
1569682270,361.652,-138.633,29.1331,178.792,-0.131836,89.2969,432
1569682270,361.652,-138.633,29.1331,178.792,-0.131836,89.2969,432
1569682270,361.652,-138.633,29.1331,178.792,-0.131836,89.2969,432
1569682270,361.652,-138.633,29.1331,178.792,-0.131836,89.2969,432
1569682270,361.652,-138.633,29.1331,178.792,-0.131836,89.2969,432
1569682270,361.652,-138.633,29.1331,178.792,-0.131836,89.2969,432
1569682270,361.652,-138.633,29.1331,178.792,-0.131836,89.2969,432
1569682270,361.652,-138.633,29.1331,178.792,-0.131836,89.2969,432
1569682270,361.652,-138.633,29.1331,178.792,-0.131836,89.2969,432
1569682270,361.652,-138.633,29.1331,178.792,-0.131836,89.2969,432
1569682270,361.652,-138.633,29.1331,178.792,-0.131836,89.2969,432
1569682270,361.652,-138.633,29.1331,178.792,-0.131836,89.2969,432
1569682270,361.652,-138.633,29.1331,178.792,-0.131836,89.2969,432
1569682270,361.652,-138.633,29.1331,178.792,-0.131836,89.2969,432
1569682270,361.652,-138.633,29.1331,178.792,-0.131836,89.2969,432
1569682270,361.652,-138.633,29.1331,178.792,-0.131836,89.2969,432
1569682270,361.652,-138.633,29.1331,178.792,-0.131836,89.2969,432
1569682270,361.652,-138.633,29.1331,178.792,-0.131836,89.2969,432
1569682270,361.652,-138.633,29.1331,178.792,-0.131836,89.2969,432
1569682270,361.652,-138.633,29.1331,178.792,-0.131836,89.2969,432
1569682270,361.652,-138.633,29.1331,178.792,-0.131836,89.2969,432
1569682270,361.652,-138.633,29.1331,178.792,-0.131836,89.2969,432
1569682270,361.652,-138.633,29.1331,178.792,-0.131836,89.2969,432
1569682270,361.652,-138.633,29.1331,178.792,-0.131836,89.2969,432
1569682270,361.652,-138.633,29.1331,178.792,-0.131836,89.2969,432
1569682271,361.652,-138.633,29.1331,178.792,-0.131836,89.2969,432
1569682271,361.652,-138.522,29.1331,178.792,-0.131836,89.2969,432
1569682271,361.652,-138.522,29.1331,178.792,-0.131836,89.2969,432
1569682271,361.652,-138.522,29.1331,178.792,-0.131836,89.2969,432
1569682271,361.652,-138.522,29.1331,178.792,-0.131836,89.2969,432
1569682271,361.652,-138.522,29.1331,178.792,-0.131836,89.2969,432
1569682271,361.652,-138.522,29.1331,178.792,-0.131836,89.2969,432
1569682271,361.652,-138.522,29.1331,178.792,-0.131836,89.2969,432
1569682271,361.652,-138.522,29.1331,178.792,-0.131836,89.2969,432
1569682271,361.764,-138.522,29.1331,178.792,-0.131836,89.2969,432
1569682271,361.764,-138.522,29.1331,178.792,-0.131836,89.2969,432
1569682271,361.764,-138.522,29.1331,178.792,-0.131836,89.2969,432
1569682271,361.764,-138.522,29.1331,178.792,-0.131836,89.2969,432
1569682271,361.764,-138.522,29.1331,178.792,-0.131836,89.2969,432
1569682271,361.764,-138.522,29.1331,178.792,-0.131836,89.2969,432
1569682271,361.764,-138.522,29.1331,178.792,-0.131836,89.2969,432
1569682271,361.764,-138.522,29.1331,178.792,-0.131836,89.2969,432
1569682271,361.764,-138.522,29.1331,178.792,-0.131836,89.2969,432
1569682271,361.764,-138.522,29.1331,178.792,-0.131836,89.2969,432
1569682271,361.764,-138.522,29.1331,178.792,-0.131836,89.2969,432
1569682271,361.652,-138.522,29.1331,178.792,-0.131836,89.2969,432
1569682271,361.764,-138.522,29.1331,178.792,-0.131836,89.2969,432
1569682271,361.652,-138.522,29.1331,178.792,-0.131836,89.2969,432
1569682271,361.764,-138.522,29.1331,178.813,-0.131836,89.2969,432
1569682271,361.764,-138.522,29.1331,178.813,-0.131836,89.2969,432
1569682271,361.652,-138.522,29.1331,178.813,-0.131836,89.2969,432
1569682271,361.652,-138.522,29.1331,178.813,-0.131836,89.2969,432
1569682271,361.652,-138.522,29.1331,178.813,-0.131836,89.2969,432
1569682271,361.652,-138.522,29.1331,178.813,-0.131836,89.2969,432
1569682271,361.652,-138.522,29.1331,178.813,-0.131836,89.2969,432
1569682271,361.652,-138.522,29.1331,178.813,-0.131836,89.2969,432
1569682271,361.652,-138.522,29.1331,178.813,-0.131836,89.2969,432
1569682271,361.652,-138.522,29.1331,178.792,-0.131836,89.2969,432
1569682271,361.652,-138.522,29.1331,178.792,-0.131836,89.2969,432
1569682271,361.652,-138.522,29.1331,178.792,-0.131836,89.2969,432
1569682271,361.652,-138.522,29.1331,178.792,-0.131836,89.2969,432
1569682271,361.652,-138.522,29.1331,178.792,-0.153809,89.2969,432
1569682271,361.652,-138.633,29.1331,178.792,-0.153809,89.2969,432
1569682271,361.652,-138.633,29.1331,178.792,-0.153809,89.2969,432
1569682271,361.652,-138.633,29.1331,178.792,-0.153809,89.2969,432
1569682271,361.652,-138.633,29.1331,178.792,-0.131836,89.2969,432
1569682271,361.652,-138.633,29.1331,178.792,-0.131836,89.2969,432
1569682271,361.652,-138.633,29.1331,178.792,-0.131836,89.2969,432
1569682271,361.652,-138.633,29.1331,178.792,-0.131836,89.2969,432
1569682271,361.652,-138.633,29.1331,178.792,-0.131836,89.2969,432
1569682271,361.652,-138.633,29.1331,178.792,-0.131836,89.2969,432
1569682271,361.652,-138.633,29.1331,178.792,-0.131836,89.2969,432
1569682271,361.652,-138.633,29.1331,178.792,-0.131836,89.2969,432
1569682271,361.652,-138.633,29.1331,178.792,-0.131836,89.2969,432
1569682271,361.652,-138.633,29.1331,178.792,-0.131836,89.2969,432
1569682271,361.652,-138.633,29.1331,178.792,-0.131836,89.2969,432
1569682271,361.652,-138.633,29.1331,178.792,-0.131836,89.2969,432
1569682271,361.652,-138.633,29.1331,178.792,-0.131836,89.2969,432
1569682271,361.652,-138.633,29.1331,178.792,-0.131836,89.2969,432
1569682271,361.652,-138.633,29.1331,178.792,-0.131836,89.2969,432
1569682271,361.652,-138.633,29.1331,178.792,-0.131836,89.2969,432
1569682271,361.652,-138.633,29.1331,178.792,-0.131836,89.2969,432
1569682271,361.652,-138.633,29.1331,178.792,-0.131836,89.2969,432
1569682271,361.652,-138.633,29.1331,178.792,-0.131836,89.2969,428
1569682271,361.652,-138.633,29.1331,178.792,-0.131836,89.2969,428
1569682271,361.652,-138.633,29.1331,178.792,-0.131836,89.2969,428
1569682271,361.652,-138.633,29.1331,178.792,-0.131836,89.2969,428
1569682271,361.652,-138.633,29.1331,178.792,-0.131836,89.2969,428
1569682271,361.652,-138.633,29.1331,178.792,-0.131836,89.2969,428
1569682271,361.652,-138.633,29.1331,178.792,-0.131836,89.2969,428
1569682271,361.652,-138.633,29.1331,178.792,-0.131836,89.2969,428
1569682271,361.652,-138.633,29.1331,178.792,-0.131836,89.2969,428
1569682271,361.652,-138.633,29.1331,178.792,-0.131836,89.2969,428
1569682271,361.652,-138.633,29.1331,178.792,-0.131836,89.2969,428
1569682271,361.652,-138.633,29.1331,178.792,-0.131836,89.2969,428
1569682271,361.652,-138.633,29.1331,178.792,-0.131836,89.2969,428
1569682271,361.652,-138.633,29.1331,178.792,-0.131836,89.2969,428
1569682271,361.652,-138.633,29.1331,178.792,-0.131836,89.2969,428
1569682271,361.652,-138.633,29.1331,178.792,-0.131836,89.2969,428
1569682271,361.652,-138.633,29.1331,178.792,-0.131836,89.2969,428
1569682271,361.652,-138.633,29.1331,178.792,-0.131836,89.2969,428
1569682271,361.652,-138.633,29.1331,178.792,-0.131836,89.2969,428
1569682271,361.652,-138.633,29.1331,178.792,-0.153809,89.2969,428
1569682271,361.652,-138.633,29.1331,178.792,-0.153809,89.2969,432
1569682271,361.652,-138.633,29.1331,178.792,-0.153809,89.2969,432
1569682271,361.652,-138.633,29.1331,178.792,-0.153809,89.2969,432
1569682271,361.652,-138.633,29.1331,178.792,-0.153809,89.2969,432
1569682271,361.652,-138.633,29.1331,178.792,-0.153809,89.2969,432
1569682271,361.652,-138.633,29.1331,178.792,-0.153809,89.2969,432
1569682271,361.652,-138.633,29.1331,178.792,-0.153809,89.2969,432
1569682271,361.652,-138.633,29.1331,178.792,-0.153809,89.2969,432
1569682271,361.652,-138.633,29.1331,178.792,-0.153809,89.2969,432
1569682271,361.652,-138.633,29.1331,178.792,-0.153809,89.2969,428
1569682271,361.652,-138.633,29.1331,178.792,-0.153809,89.2969,428
1569682271,361.652,-138.633,29.1331,178.792,-0.153809,89.2969,428
1569682271,361.652,-138.633,29.1331,178.792,-0.153809,89.2969,428
1569682271,361.652,-138.633,29.1331,178.792,-0.153809,89.2969,428
1569682271,361.652,-138.633,29.1331,178.792,-0.153809,89.2969,428
1569682271,361.652,-138.633,29.1331,178.792,-0.153809,89.2969,428
1569682271,361.652,-138.633,29.1331,178.792,-0.153809,89.2969,428
1569682271,361.652,-138.633,29.1331,178.792,-0.153809,89.2969,428
1569682271,361.652,-138.633,29.1331,178.792,-0.153809,89.2969,428
1569682271,361.652,-138.633,29.1331,178.792,-0.153809,89.2969,428
1569682271,361.652,-138.633,29.1331,178.792,-0.153809,89.2969,432
1569682271,361.652,-138.633,29.1331,178.792,-0.153809,89.2969,432
1569682272,361.652,-138.633,29.1331,178.792,-0.153809,89.2969,432
1569682272,361.652,-138.633,29.1331,178.792,-0.153809,89.2969,432
1569682272,361.652,-138.633,29.1331,178.792,-0.153809,89.2969,432
1569682272,361.652,-138.633,29.1331,178.792,-0.153809,89.2969,432
1569682272,361.652,-138.633,29.1331,178.792,-0.153809,89.2969,432
1569682272,361.652,-138.633,29.1331,178.792,-0.153809,89.2969,432
1569682272,361.652,-138.633,29.1331,178.792,-0.153809,89.2969,432
1569682272,361.652,-138.633,29.1331,178.792,-0.153809,89.2969,432
1569682272,361.652,-138.633,29.1331,178.792,-0.153809,89.2969,432
1569682272,361.652,-138.633,29.1331,178.792,-0.153809,89.2969,432
1569682272,361.652,-138.633,29.1331,178.792,-0.153809,89.2969,432
1569682272,361.652,-138.633,29.1331,178.792,-0.153809,89.2969,432
1569682272,361.764,-138.633,29.1331,178.792,-0.153809,89.2969,432
1569682272,361.764,-138.633,29.1331,178.792,-0.153809,89.2969,432
1569682272,361.764,-138.633,29.1331,178.792,-0.153809,89.2969,432
1569682272,361.764,-138.522,29.1331,178.792,-0.153809,89.2969,428
1569682272,361.764,-138.522,29.1331,178.792,-0.153809,89.2969,428
1569682272,361.764,-138.633,29.1331,178.792,-0.153809,89.2969,428
1569682272,361.764,-138.633,29.1331,178.792,-0.153809,89.2969,428
1569682272,361.764,-138.633,29.1331,178.792,-0.153809,89.2969,428
1569682272,361.764,-138.633,29.1331,178.792,-0.153809,89.2969,428
1569682272,361.764,-138.633,29.1331,178.792,-0.153809,89.2969,428
1569682272,361.764,-138.633,29.1331,178.792,-0.153809,89.2969,428
1569682272,361.764,-138.633,29.1331,178.792,-0.153809,89.2969,428
1569682272,361.764,-138.633,29.1331,178.792,-0.153809,89.2969,428
1569682272,361.764,-138.633,29.1331,178.792,-0.153809,89.2969,428
1569682272,361.764,-138.633,29.1331,178.792,-0.153809,89.2969,428
1569682272,361.764,-138.633,29.1331,178.792,-0.153809,89.2969,428
1569682272,361.764,-138.633,29.1331,178.792,-0.153809,89.2969,428
1569682272,361.764,-138.633,29.1331,178.792,-0.153809,89.2969,428
1569682272,361.764,-138.633,29.1331,178.792,-0.153809,89.2969,428
1569682272,361.764,-138.633,29.1331,178.792,-0.153809,89.2969,428
1569682272,361.764,-138.633,29.1331,178.792,-0.153809,89.2969,428
1569682272,361.764,-138.633,29.1331,178.792,-0.153809,89.2969,428
1569682272,361.764,-138.633,29.1331,178.792,-0.153809,89.2969,428
1569682272,361.764,-138.633,29.1331,178.792,-0.153809,89.2969,428
1569682272,361.764,-138.633,29.1331,178.792,-0.153809,89.2969,428
1569682272,361.764,-138.633,29.1331,178.792,-0.153809,89.2969,428
1569682272,361.764,-138.633,29.1331,178.792,-0.153809,89.2969,428
1569682272,361.764,-138.633,29.1331,178.792,-0.153809,89.2969,428
1569682272,361.764,-138.633,29.1331,178.792,-0.153809,89.2969,428
1569682272,361.764,-138.633,29.1331,178.792,-0.153809,89.2969,428
1569682272,361.764,-138.633,29.1331,178.792,-0.153809,89.2969,428
1569682272,361.764,-138.633,29.1331,178.792,-0.153809,89.2969,428
1569682272,361.764,-138.633,29.1331,178.792,-0.153809,89.2969,428
1569682272,361.764,-138.633,29.1331,178.792,-0.153809,89.2969,428
1569682272,361.764,-138.633,29.1331,178.792,-0.153809,89.2969,428
1569682272,361.764,-138.633,29.1331,178.792,-0.153809,89.2969,428
1569682272,361.764,-138.633,29.1331,178.792,-0.153809,89.2969,428
1569682272,361.764,-138.633,29.1331,178.792,-0.153809,89.2969,428
1569682272,361.764,-138.633,29.1331,178.792,-0.153809,89.2969,428
1569682272,361.764,-138.633,29.1331,178.792,-0.153809,89.2969,428
1569682272,361.764,-138.633,29.1331,178.792,-0.153809,89.2969,428
1569682272,361.764,-138.633,29.1331,178.792,-0.153809,89.2969,428
1569682272,361.764,-138.633,29.1331,178.792,-0.153809,89.2969,428
1569682272,361.764,-138.633,29.1331,178.792,-0.153809,89.2969,428
1569682272,361.764,-138.633,29.1331,178.792,-0.153809,89.2969,428
1569682272,361.764,-138.633,29.1331,178.792,-0.153809,89.2969,428
1569682272,361.764,-138.633,29.1331,178.792,-0.153809,89.2969,428
1569682272,361.764,-138.633,29.1331,178.792,-0.153809,89.2969,428
1569682272,361.764,-138.633,29.1331,178.792,-0.153809,89.2969,428
1569682272,361.764,-138.633,29.1331,178.792,-0.153809,89.2969,428
1569682272,361.764,-138.633,29.1331,178.792,-0.153809,89.2969,428
1569682272,361.764,-138.633,29.1331,178.792,-0.153809,89.2969,428
1569682272,361.764,-138.633,29.1331,178.792,-0.153809,89.2969,428
1569682272,361.764,-138.633,29.1331,178.792,-0.153809,89.2969,428
1569682272,361.764,-138.633,29.1331,178.792,-0.153809,89.2969,428
1569682272,361.764,-138.633,29.1331,178.792,-0.153809,89.2969,428
1569682272,361.764,-138.633,29.1331,178.792,-0.153809,89.2969,428
1569682272,361.764,-138.633,29.1331,178.792,-0.153809,89.2969,428
1569682272,361.764,-138.633,29.1331,178.792,-0.153809,89.2969,428
1569682272,361.764,-138.633,29.1331,178.792,-0.153809,89.2969,428
1569682272,361.764,-138.633,29.1331,178.792,-0.153809,89.2969,428
1569682272,361.764,-138.633,29.1331,178.792,-0.153809,89.2969,428
1569682272,361.764,-138.633,29.1331,178.792,-0.153809,89.2969,428
1569682272,361.764,-138.633,29.1331,178.792,-0.153809,89.2969,428
1569682272,361.764,-138.633,29.1331,178.792,-0.153809,89.2969,428
1569682272,361.764,-138.633,29.1331,178.792,-0.153809,89.2969,428
1569682272,361.764,-138.633,29.1331,178.792,-0.153809,89.2969,428
1569682272,361.764,-138.633,29.1331,178.792,-0.153809,89.2969,428
1569682272,361.764,-138.633,29.1331,178.792,-0.153809,89.2969,428
1569682272,361.764,-138.633,29.1331,178.792,-0.153809,89.2969,428
1569682272,361.764,-138.633,29.1331,178.792,-0.153809,89.2969,428
1569682272,361.764,-138.633,29.1331,178.792,-0.153809,89.2969,428
1569682272,361.764,-138.633,29.1331,178.792,-0.153809,89.2969,428
1569682272,361.764,-138.633,29.1331,178.792,-0.153809,89.2969,428
1569682272,361.764,-138.633,29.1331,178.792,-0.153809,89.2969,428
1569682272,361.764,-138.633,29.1331,178.792,-0.153809,89.2969,428
1569682272,361.764,-138.633,29.1331,178.792,-0.153809,89.2969,428
1569682272,361.764,-138.633,29.1331,178.792,-0.153809,89.2969,428
1569682272,361.764,-138.633,29.1331,178.792,-0.153809,89.2969,428
1569682272,361.764,-138.633,29.1331,178.792,-0.153809,89.2969,428
1569682272,361.764,-138.633,29.1331,178.792,-0.153809,89.2969,428
1569682272,361.764,-138.633,29.1331,178.792,-0.153809,89.2969,428
1569682272,361.764,-138.633,29.1331,178.792,-0.153809,89.2969,428
1569682272,361.764,-138.633,29.1331,178.792,-0.153809,89.2969,428
1569682272,361.764,-138.633,29.1331,178.792,-0.153809,89.2969,428
1569682272,361.652,-138.633,29.1331,178.792,-0.153809,89.2969,428
1569682272,361.652,-138.633,29.1331,178.792,-0.153809,89.2969,428
1569682272,361.652,-138.633,29.1331,178.792,-0.153809,89.2969,428
1569682273,361.652,-138.633,29.1331,178.792,-0.153809,89.2969,428
1569682273,361.652,-138.633,29.1331,178.792,-0.153809,89.2969,428
1569682273,361.652,-138.633,29.1331,178.792,-0.153809,89.2969,428
1569682273,361.652,-138.633,29.1331,178.792,-0.153809,89.2969,428
1569682273,361.652,-138.633,29.1331,178.792,-0.153809,89.2969,428
1569682273,361.652,-138.633,29.1331,178.792,-0.153809,89.2969,428
1569682273,361.652,-138.633,29.1331,178.792,-0.153809,89.2969,428
1569682273,361.652,-138.633,29.1331,178.792,-0.153809,89.2969,428
1569682273,361.652,-138.633,29.1331,178.792,-0.153809,89.2969,432
1569682273,361.652,-138.633,29.1331,178.792,-0.153809,89.2969,432
1569682273,361.652,-138.633,29.1331,178.792,-0.131836,89.2969,432
1569682273,361.652,-138.633,29.1331,178.792,-0.131836,89.2969,432
1569682273,361.652,-138.633,29.1331,178.792,-0.131836,89.2969,432
1569682273,361.652,-138.633,29.1331,178.792,-0.131836,89.2969,432
1569682273,361.652,-138.633,29.1331,178.792,-0.131836,89.2969,432
1569682273,361.652,-138.633,29.1331,178.792,-0.131836,89.2969,432
1569682273,361.652,-138.633,29.1331,178.792,-0.131836,89.2969,432
1569682273,361.652,-138.633,29.1331,178.792,-0.131836,89.2969,432
1569682273,361.652,-138.633,29.1331,178.792,-0.131836,89.2969,432
1569682273,361.652,-138.633,29.1331,178.792,-0.131836,89.2969,432
1569682273,361.652,-138.633,29.1331,178.792,-0.131836,89.2969,432
1569682273,361.652,-138.633,29.1331,178.792,-0.131836,89.2969,432
1569682273,361.652,-138.633,29.1331,178.792,-0.131836,89.2969,432
1569682273,361.652,-138.633,29.1331,178.792,-0.131836,89.2969,432
1569682273,361.652,-138.633,29.1331,178.792,-0.131836,89.2969,432
1569682273,361.652,-138.633,29.1331,178.792,-0.131836,89.2969,432
1569682273,361.652,-138.633,29.1331,178.792,-0.131836,89.2969,432
1569682273,361.652,-138.633,29.1331,178.792,-0.131836,89.2969,432
1569682273,361.652,-138.633,29.1331,178.792,-0.131836,89.2969,432
1569682273,361.652,-138.633,29.1331,178.792,-0.131836,89.2969,432
1569682273,361.652,-138.633,29.1331,178.792,-0.131836,89.2969,432
1569682273,361.652,-138.633,29.1331,178.792,-0.131836,89.2969,432
1569682273,361.652,-138.633,29.1331,178.792,-0.131836,89.2969,432
1569682273,361.652,-138.633,29.1331,178.792,-0.131836,89.2969,432
1569682273,361.652,-138.633,29.1331,178.792,-0.131836,89.2969,432
1569682273,361.652,-138.633,29.1331,178.792,-0.131836,89.2969,432
1569682273,361.652,-138.633,29.1331,178.792,-0.131836,89.2969,432
1569682273,361.652,-138.633,29.1331,178.792,-0.131836,89.2969,432
1569682273,361.652,-138.633,29.1331,178.792,-0.131836,89.2969,432
1569682273,361.652,-138.633,29.1331,178.792,-0.131836,89.2969,432
1569682273,361.652,-138.633,29.1331,178.792,-0.131836,89.2969,432
1569682273,361.652,-138.633,29.1331,178.792,-0.131836,89.2969,432
1569682273,361.652,-138.633,29.1331,178.792,-0.131836,89.2969,432
1569682273,361.652,-138.633,29.1331,178.792,-0.131836,89.2969,432
1569682273,361.652,-138.633,29.1331,178.792,-0.131836,89.2969,432
1569682273,361.652,-138.633,29.1331,178.792,-0.131836,89.2969,432
1569682273,361.652,-138.633,29.1331,178.792,-0.131836,89.2969,432
1569682273,361.652,-138.633,29.1331,178.792,-0.131836,89.2969,432
1569682273,361.652,-138.633,29.1331,178.792,-0.131836,89.2969,432
1569682273,361.652,-138.633,29.1331,178.792,-0.131836,89.2969,432
1569682273,361.652,-138.633,29.1331,178.792,-0.131836,89.2969,432
1569682273,361.652,-138.633,29.1331,178.792,-0.131836,89.2969,432
1569682273,361.652,-138.633,29.1331,178.792,-0.131836,89.2969,432
1569682273,361.652,-138.633,29.1331,178.792,-0.131836,89.2969,432
1569682273,361.652,-138.633,29.1331,178.792,-0.131836,89.2969,432
1569682273,361.652,-138.633,29.1331,178.792,-0.131836,89.2969,432
1569682273,361.652,-138.633,29.1331,178.792,-0.131836,89.2969,432
1569682273,361.652,-138.633,29.1331,178.792,-0.153809,89.2969,432
1569682273,361.652,-138.633,29.1331,178.792,-0.153809,89.2969,432
1569682273,361.652,-138.633,29.1331,178.792,-0.153809,89.2969,432
1569682273,361.764,-138.633,29.1331,178.792,-0.153809,89.2969,432
1569682273,361.764,-138.633,29.1331,178.792,-0.153809,89.2969,432
1569682273,361.764,-138.633,29.1331,178.792,-0.131836,89.2969,432
1569682273,361.764,-138.633,29.1331,178.792,-0.131836,89.2969,432
1569682273,361.764,-138.633,29.1331,178.792,-0.131836,89.2969,432
1569682273,361.764,-138.633,29.1331,178.792,-0.131836,89.2969,432
1569682291,361.764,-138.522,29.1331,178.792,-0.153809,89.2969,428
1569682291,361.764,-138.522,29.1331,178.813,-0.153809,89.2969,428
1569682291,361.764,-138.522,29.1331,178.813,-0.153809,89.2969,428
1569682291,361.764,-138.522,29.1331,178.813,-0.153809,89.2969,428
1569682291,361.764,-138.522,29.1331,178.813,-0.153809,89.2969,428
1569682291,361.764,-138.522,29.1331,178.813,-0.153809,89.2969,428
1569682291,361.764,-138.522,29.1331,178.813,-0.153809,89.2969,428
1569682291,361.764,-138.522,29.1331,178.813,-0.153809,89.2969,428
1569682291,361.764,-138.522,29.1331,178.813,-0.153809,89.2969,428
1569682291,361.764,-138.522,29.1331,178.813,-0.131836,89.2969,428
1569682291,361.764,-138.522,29.1331,178.813,-0.131836,89.2969,428
1569682291,361.764,-138.522,29.1331,178.813,-0.131836,89.2969,428
1569682291,361.764,-138.522,29.1331,178.813,-0.131836,89.2969,428
1569682291,361.764,-138.522,29.1331,178.813,-0.131836,89.2969,428
1569682291,361.764,-138.522,29.1331,178.813,-0.131836,89.2969,428
1569682291,361.764,-138.522,29.1331,178.813,-0.131836,89.2969,428
1569682291,361.764,-138.522,29.1331,178.813,-0.131836,89.2969,428
1569682291,361.764,-138.522,29.1331,178.813,-0.131836,89.2969,432
1569682291,361.764,-138.522,29.2447,178.792,-0.131836,89.2969,432
1569682291,361.764,-138.522,29.2447,178.792,-0.131836,89.2969,432
1569682291,361.764,-138.522,29.1331,178.792,-0.131836,89.2969,432
1569682291,361.764,-138.522,29.1331,178.813,-0.131836,89.2969,432
1569682291,361.764,-138.522,29.1331,178.792,-0.131836,89.2969,432
1569682291,361.764,-138.522,29.1331,178.813,-0.153809,89.2969,432
1569682291,361.764,-138.522,29.1331,178.813,-0.153809,89.2969,432
1569682291,361.764,-138.522,29.1331,178.813,-0.153809,89.2969,432
1569682291,361.764,-138.522,29.1331,178.813,-0.153809,89.2969,432
1569682291,361.764,-138.522,29.1331,178.813,-0.153809,89.2969,432
1569682291,361.764,-138.522,29.1331,178.813,-0.153809,89.2969,432
1569682291,361.764,-138.522,29.1331,178.813,-0.153809,89.2969,432
1569682291,361.764,-138.522,29.1331,178.813,-0.153809,89.2969,432
1569682291,361.764,-138.522,29.1331,178.813,-0.153809,89.2969,432
1569682291,361.764,-138.522,29.1331,178.792,-0.131836,89.2969,432
1569682291,361.764,-138.522,29.1331,178.792,-0.131836,89.2969,432
1569682291,361.764,-138.522,29.1331,178.792,-0.131836,89.2969,432
1569682291,361.764,-138.522,29.1331,178.792,-0.131836,89.2969,432
1569682291,361.652,-138.522,29.1331,178.792,-0.131836,89.2969,432
1569682291,361.652,-138.633,29.1331,178.792,-0.131836,89.2969,432
1569682291,361.652,-138.633,29.1331,178.792,-0.131836,89.2969,432
1569682291,361.652,-138.633,29.1331,178.792,-0.131836,89.2969,432
1569682291,361.652,-138.633,29.1331,178.792,-0.131836,89.2969,432
1569682291,361.652,-138.633,29.1331,178.792,-0.153809,89.2969,432
1569682291,361.652,-138.633,29.1331,178.792,-0.153809,89.2969,432
1569682291,361.652,-138.633,29.1331,178.792,-0.131836,89.2969,432
1569682291,361.652,-138.633,29.1331,178.792,-0.131836,89.2969,432
1569682291,361.652,-138.633,29.1331,178.792,-0.131836,89.2969,432
1569682291,361.652,-138.633,29.1331,178.792,-0.131836,89.2969,432
1569682291,361.652,-138.633,29.1331,178.792,-0.131836,89.2969,432
1569682291,361.652,-138.633,29.1331,178.792,-0.131836,89.2969,432
1569682291,361.652,-138.633,29.1331,178.792,-0.131836,89.2969,432
1569682291,361.652,-138.633,29.1331,178.792,-0.131836,89.2969,432
1569682291,361.652,-138.633,29.2447,178.792,-0.131836,89.2969,432
1569682291,361.652,-138.633,29.2447,178.792,-0.131836,89.2969,432
1569682291,361.652,-138.633,29.2447,178.792,-0.131836,89.2969,432
1569682291,361.652,-138.633,29.2447,178.792,-0.131836,89.2969,432
1569682291,361.652,-138.633,29.2447,178.792,-0.131836,89.2969,432
1569682291,361.652,-138.633,29.2447,178.792,-0.131836,89.2969,432
1569682291,361.652,-138.633,29.2447,178.792,-0.131836,89.2969,432
1569682291,361.652,-138.633,29.2447,178.792,-0.131836,89.2969,432
1569682291,361.652,-138.633,29.2447,178.792,-0.131836,89.2969,432
1569682291,361.652,-138.633,29.2447,178.792,-0.131836,89.2969,432
1569682291,361.652,-138.633,29.2447,178.792,-0.131836,89.2969,432
1569682291,361.652,-138.633,29.2447,178.792,-0.131836,89.2969,432
1569682291,361.652,-138.633,29.2447,178.792,-0.131836,89.2969,432
1569682291,361.652,-138.633,29.2447,178.792,-0.131836,89.2969,432
1569682291,361.652,-138.633,29.2447,178.792,-0.131836,89.2969,432
1569682291,361.652,-138.522,29.2447,178.792,-0.131836,89.2969,432
1569682291,361.652,-138.522,29.1331,178.792,-0.131836,89.2969,432
1569682291,361.652,-138.522,29.1331,178.792,-0.131836,89.2969,432
1569682291,361.652,-138.522,29.1331,178.792,-0.131836,89.2969,432
1569682291,361.652,-138.633,29.1331,178.792,-0.131836,89.2969,432
1569682291,361.652,-138.633,29.1331,178.792,-0.131836,89.2969,432
1569682291,361.652,-138.633,29.1331,178.792,-0.131836,89.2969,432
1569682291,361.652,-138.633,29.1331,178.792,-0.131836,89.2969,432
1569682291,361.652,-138.633,29.1331,178.792,-0.131836,89.2969,432
1569682291,361.652,-138.633,29.1331,178.792,-0.131836,89.2969,432
1569682291,361.652,-138.633,29.1331,178.792,-0.131836,89.2969,432
1569682291,361.652,-138.633,29.1331,178.792,-0.131836,89.2969,432
1569682291,361.652,-138.633,29.1331,178.792,-0.131836,89.2969,432
1569682291,361.652,-138.633,29.1331,178.792,-0.131836,89.2969,432
1569682291,361.652,-138.633,29.1331,178.792,-0.131836,89.2969,432
1569682291,361.652,-138.633,29.1331,178.792,-0.131836,89.2969,432
1569682291,361.652,-138.633,29.1331,178.792,-0.153809,89.2969,432
1569682291,361.652,-138.633,29.1331,178.792,-0.153809,89.2969,432
1569682291,361.652,-138.633,29.1331,178.792,-0.153809,89.2969,432
1569682291,361.652,-138.633,29.1331,178.792,-0.153809,89.2969,432
1569682291,361.652,-138.633,29.1331,178.792,-0.153809,89.2969,432
1569682291,361.652,-138.633,29.1331,178.792,-0.153809,89.2969,432
1569682291,361.652,-138.633,29.1331,178.792,-0.153809,89.2969,432
1569682291,361.652,-138.633,29.1331,178.792,-0.131836,89.2969,432
1569682291,361.652,-138.633,29.1331,178.792,-0.131836,89.2969,432
1569682292,361.652,-138.633,29.1331,178.792,-0.131836,89.2969,432
1569682292,361.652,-138.633,29.1331,178.792,-0.131836,89.2969,432
1569682292,361.652,-138.633,29.1331,178.792,-0.131836,89.2969,432
1569682292,361.652,-138.633,29.1331,178.792,-0.131836,89.2969,432
1569682292,361.652,-138.633,29.1331,178.792,-0.153809,89.2969,432
1569682292,361.652,-138.633,29.1331,178.792,-0.153809,89.2969,432
1569682292,361.652,-138.633,29.1331,178.792,-0.153809,89.2969,432
1569682292,361.652,-138.633,29.1331,178.792,-0.153809,89.2969,432
1569682292,361.652,-138.633,29.1331,178.792,-0.153809,89.2969,432
1569682292,361.652,-138.633,29.1331,178.792,-0.153809,89.2969,432
1569682292,361.652,-138.633,29.1331,178.792,-0.153809,89.2969,432
1569682292,361.652,-138.633,29.1331,178.792,-0.153809,89.2969,432
1569682292,361.652,-138.633,29.1331,178.792,-0.153809,89.2969,432
1569682292,361.652,-138.633,29.1331,178.792,-0.153809,89.2969,432
1569682292,361.652,-138.633,29.1331,178.792,-0.153809,89.2969,432
1569682292,361.652,-138.633,29.1331,178.792,-0.153809,89.2969,432
1569682292,361.652,-138.633,29.1331,178.792,-0.153809,89.2969,428
1569682292,361.652,-138.633,29.1331,178.792,-0.153809,89.2969,428
1569682292,361.652,-138.633,29.1331,178.792,-0.153809,89.2969,428
1569682292,361.652,-138.633,29.1331,178.792,-0.153809,89.2969,428
1569682292,361.652,-138.633,29.1331,178.792,-0.153809,89.2969,428
1569682292,361.652,-138.633,29.1331,178.792,-0.153809,89.2969,428
1569682292,361.652,-138.633,29.1331,178.792,-0.153809,89.2969,428
1569682292,361.652,-138.633,29.1331,178.792,-0.153809,89.2969,428
1569682292,361.652,-138.633,29.1331,178.792,-0.153809,89.2969,428
1569682292,361.652,-138.633,29.1331,178.792,-0.153809,89.2969,428
1569682292,361.652,-138.633,29.1331,178.792,-0.153809,89.2969,428
1569682292,361.652,-138.633,29.1331,178.792,-0.153809,89.2969,428
1569682292,361.652,-138.522,29.1331,178.792,-0.153809,89.2969,428
1569682292,361.652,-138.522,29.1331,178.792,-0.153809,89.2969,428
1569682292,361.652,-138.522,29.1331,178.792,-0.153809,89.2969,428
1569682292,361.652,-138.522,29.1331,178.792,-0.153809,89.2969,428
1569682292,361.652,-138.522,29.1331,178.792,-0.153809,89.2969,428
1569682292,361.652,-138.522,29.1331,178.792,-0.153809,89.2969,428
1569682292,361.652,-138.522,29.1331,178.792,-0.153809,89.2969,428
1569682292,361.652,-138.522,29.1331,178.792,-0.153809,89.2969,432
1569682292,361.652,-138.522,29.1331,178.792,-0.153809,89.2969,432
1569682292,361.652,-138.522,29.1331,178.792,-0.153809,89.2969,432
1569682292,361.652,-138.522,29.1331,178.792,-0.153809,89.2969,432
1569682292,361.652,-138.522,29.1331,178.792,-0.153809,89.2969,432
1569682292,361.652,-138.633,29.1331,178.792,-0.153809,89.2969,432
1569682292,361.652,-138.633,29.1331,178.792,-0.153809,89.2969,432
1569682292,361.652,-138.633,29.1331,178.792,-0.153809,89.2969,432
1569682292,361.652,-138.633,29.1331,178.792,-0.153809,89.2969,432
1569682292,361.652,-138.633,29.1331,178.792,-0.153809,89.2969,432
1569682292,361.652,-138.633,29.1331,178.792,-0.153809,89.2969,432
1569682292,361.652,-138.633,29.1331,178.792,-0.153809,89.2969,432
1569682292,361.652,-138.633,29.1331,178.792,-0.153809,89.2969,432
1569682292,361.652,-138.633,29.1331,178.792,-0.153809,89.2969,432
1569682292,361.652,-138.633,29.1331,178.792,-0.153809,89.2969,432
1569682292,361.652,-138.633,29.1331,178.792,-0.153809,89.2969,432
1569682292,361.652,-138.633,29.1331,178.792,-0.153809,89.2969,432
1569682292,361.652,-138.633,29.1331,178.792,-0.153809,89.2969,432
1569682292,361.652,-138.633,29.1331,178.792,-0.153809,89.2969,432
1569682292,361.652,-138.633,29.1331,178.792,-0.153809,89.2969,432
1569682292,361.652,-138.633,29.1331,178.792,-0.153809,89.2969,432
1569682292,361.652,-138.633,29.1331,178.792,-0.153809,89.2969,432
1569682292,361.652,-138.633,29.1331,178.792,-0.153809,89.2969,432
1569682292,361.652,-138.633,29.1331,178.792,-0.153809,89.2969,432
1569682292,361.652,-138.633,29.1331,178.792,-0.153809,89.2969,432
1569682292,361.652,-138.633,29.1331,178.792,-0.153809,89.2969,432
1569682292,361.652,-138.633,29.1331,178.792,-0.153809,89.2969,432
1569682292,361.652,-138.633,29.1331,178.792,-0.153809,89.2969,432
1569682292,361.652,-138.633,29.1331,178.792,-0.153809,89.2969,432
1569682292,361.652,-138.633,29.1331,178.792,-0.153809,89.2969,432
1569682292,361.652,-138.633,29.1331,178.792,-0.153809,89.2969,432
1569682292,361.652,-138.633,29.1331,178.792,-0.153809,89.2969,432
1569682292,361.652,-138.633,29.1331,178.792,-0.153809,89.2969,432
1569682292,361.652,-138.633,29.1331,178.792,-0.153809,89.2969,432
1569682292,361.652,-138.633,29.1331,178.792,-0.153809,89.2969,432
1569682292,361.652,-138.633,29.1331,178.792,-0.153809,89.2969,432
1569682292,361.652,-138.633,29.1331,178.792,-0.153809,89.2969,432
1569682292,361.652,-138.633,29.1331,178.792,-0.153809,89.2969,432
1569682292,361.652,-138.633,29.1331,178.792,-0.153809,89.2969,432
1569682292,361.652,-138.633,29.1331,178.792,-0.153809,89.2969,432
1569682292,361.652,-138.633,29.1331,178.792,-0.153809,89.2969,432
1569682292,361.652,-138.633,29.1331,178.792,-0.153809,89.2969,432
1569682292,361.652,-138.633,29.1331,178.792,-0.153809,89.2969,432
1569682292,361.652,-138.633,29.1331,178.792,-0.153809,89.2969,432
1569682292,361.652,-138.633,29.1331,178.792,-0.153809,89.2969,432
1569682292,361.652,-138.633,29.1331,178.792,-0.153809,89.2969,432
1569682292,361.652,-138.633,29.1331,178.792,-0.153809,89.2969,428
1569682292,361.652,-138.633,29.1331,178.792,-0.153809,89.2969,428
1569682292,361.652,-138.633,29.1331,178.792,-0.153809,89.2969,428
1569682292,361.652,-138.633,29.1331,178.792,-0.153809,89.2969,428
1569682292,361.652,-138.633,29.1331,178.792,-0.153809,89.2969,432
1569682292,361.652,-138.633,29.1331,178.792,-0.153809,89.2969,432
1569682292,361.652,-138.633,29.1331,178.792,-0.153809,89.2969,432
1569682292,361.652,-138.633,29.1331,178.792,-0.153809,89.2969,432
1569682292,361.652,-138.633,29.1331,178.792,-0.153809,89.2969,432
1569682292,361.652,-138.633,29.1331,178.792,-0.153809,89.2969,432
1569682292,361.652,-138.633,29.1331,178.792,-0.153809,89.2969,432
1569682292,361.652,-138.633,29.1331,178.792,-0.153809,89.2969,432
1569682292,361.652,-138.633,29.1331,178.792,-0.153809,89.2969,432
1569682292,361.652,-138.633,29.1331,178.792,-0.153809,89.2969,432
1569682292,361.652,-138.633,29.1331,178.792,-0.131836,89.2969,432
1569682292,361.652,-138.633,29.1331,178.792,-0.131836,89.2969,432
1569682292,361.652,-138.633,29.1331,178.792,-0.131836,89.2969,432
1569682292,361.652,-138.633,29.1331,178.792,-0.131836,89.2969,432
1569682292,361.652,-138.633,29.1331,178.792,-0.131836,89.2969,432
1569682293,361.652,-138.633,29.1331,178.792,-0.131836,89.2969,432
1569682293,361.652,-138.633,29.1331,178.792,-0.131836,89.2969,432
1569682293,361.652,-138.633,29.1331,178.792,-0.131836,89.2969,432
1569682293,361.652,-138.633,29.1331,178.792,-0.131836,89.2969,432
1569682293,361.652,-138.633,29.1331,178.792,-0.131836,89.2969,432
1569682293,361.652,-138.633,29.1331,178.792,-0.131836,89.2969,432
1569682293,361.652,-138.633,29.1331,178.792,-0.131836,89.2969,432
1569682293,361.652,-138.522,29.1331,178.792,-0.131836,89.2969,432
1569682293,361.652,-138.522,29.1331,178.792,-0.153809,89.2969,432
1569682293,361.652,-138.522,29.1331,178.792,-0.153809,89.2969,432
1569682293,361.652,-138.522,29.1331,178.792,-0.153809,89.2969,432
1569682293,361.652,-138.522,29.1331,178.792,-0.153809,89.2969,432
1569682293,361.652,-138.522,29.1331,178.792,-0.153809,89.2969,432
1569682293,361.652,-138.522,29.1331,178.792,-0.153809,89.2969,432
1569682293,361.652,-138.522,29.1331,178.792,-0.153809,89.2969,432
1569682293,361.652,-138.522,29.1331,178.792,-0.153809,89.2969,432
1569682293,361.652,-138.522,29.1331,178.792,-0.153809,89.2969,432
1569682293,361.652,-138.633,29.1331,178.792,-0.153809,89.2969,432
1569682293,361.652,-138.633,29.1331,178.792,-0.153809,89.2969,432
1569682293,361.652,-138.633,29.1331,178.792,-0.153809,89.2969,432
1569682293,361.652,-138.633,29.1331,178.792,-0.153809,89.2969,432
1569682293,361.652,-138.633,29.1331,178.792,-0.153809,89.2969,432
1569682293,361.652,-138.633,29.1331,178.792,-0.153809,89.2969,432
1569682293,361.652,-138.633,29.1331,178.792,-0.153809,89.2969,432
1569682293,361.652,-138.633,29.1331,178.792,-0.153809,89.2969,432
1569682293,361.652,-138.633,29.1331,178.792,-0.153809,89.2969,432
1569682293,361.652,-138.633,29.1331,178.792,-0.153809,89.2969,432
1569682293,361.652,-138.633,29.1331,178.792,-0.153809,89.2969,432
1569682293,361.652,-138.633,29.1331,178.792,-0.153809,89.2969,432
1569682293,361.652,-138.633,29.1331,178.792,-0.153809,89.2969,432
1569682293,361.652,-138.633,29.1331,178.792,-0.153809,89.2969,432
1569682293,361.652,-138.633,29.1331,178.792,-0.153809,89.2969,432
1569682293,361.652,-138.633,29.2447,178.792,-0.131836,89.2969,432
1569682293,361.652,-138.633,29.2447,178.792,-0.131836,89.2969,428
1569682293,361.652,-138.633,29.2447,178.792,-0.131836,89.2969,428
1569682293,361.652,-138.633,29.2447,178.792,-0.131836,89.2969,428
1569682293,361.652,-138.633,29.2447,178.792,-0.131836,89.2969,428
1569682293,361.652,-138.633,29.2447,178.792,-0.131836,89.2969,428
1569682293,361.652,-138.633,29.1331,178.792,-0.131836,89.2969,428
1569682293,361.652,-138.633,29.1331,178.792,-0.153809,89.2969,428
1569682293,361.652,-138.633,29.1331,178.792,-0.153809,89.2969,428
1569682293,361.652,-138.633,29.1331,178.792,-0.153809,89.2969,428
1569682293,361.652,-138.633,29.1331,178.792,-0.153809,89.2969,428
1569682293,361.652,-138.633,29.1331,178.792,-0.153809,89.2969,428
1569682293,361.652,-138.522,29.1331,178.792,-0.153809,89.2969,428
1569682293,361.652,-138.522,29.1331,178.792,-0.153809,89.2969,428
1569682293,361.652,-138.522,29.1331,178.792,-0.153809,89.2969,428
1569682293,361.652,-138.522,29.1331,178.792,-0.131836,89.2969,432
1569682293,361.652,-138.522,29.2447,178.792,-0.131836,89.2969,432
1569682293,361.652,-138.522,29.2447,178.792,-0.131836,89.2969,432
1569682293,361.652,-138.522,29.2447,178.792,-0.131836,89.2969,432
1569682293,361.652,-138.522,29.2447,178.792,-0.131836,89.2969,432
1569682293,361.652,-138.522,29.2447,178.792,-0.131836,89.2969,432
1569682293,361.652,-138.522,29.2447,178.792,-0.131836,89.2969,432
1569682293,361.652,-138.522,29.2447,178.792,-0.131836,89.2969,432
1569682293,361.652,-138.522,29.2447,178.792,-0.131836,89.2969,432
1569682293,361.652,-138.522,29.2447,178.792,-0.131836,89.2969,432
1569682293,361.652,-138.522,29.2447,178.792,-0.131836,89.2969,432
1569682293,361.652,-138.522,29.2447,178.792,-0.131836,89.2969,432
1569682293,361.652,-138.522,29.2447,178.792,-0.131836,89.2969,432
1569682293,361.764,-138.522,29.2447,178.792,-0.131836,89.2969,432
1569682293,361.764,-138.522,29.2447,178.792,-0.131836,89.2969,432
1569682293,361.764,-138.522,29.2447,178.792,-0.131836,89.2969,432
1569682293,361.764,-138.522,29.2447,178.792,-0.131836,89.2969,432
1569682293,361.764,-138.522,29.2447,178.792,-0.131836,89.2969,432
1569682293,361.764,-138.522,29.2447,178.792,-0.131836,89.2969,432
1569682293,361.764,-138.522,29.2447,178.792,-0.131836,89.2969,432
1569682293,361.764,-138.522,29.2447,178.792,-0.131836,89.2969,432
1569682293,361.764,-138.522,29.2447,178.792,-0.131836,89.2969,432
1569682293,361.764,-138.522,29.2447,178.792,-0.131836,89.2969,432
1569682293,361.764,-138.522,29.1331,178.792,-0.131836,89.2969,432
1569682293,361.764,-138.522,29.2447,178.792,-0.131836,89.2969,432
1569682293,361.764,-138.522,29.2447,178.792,-0.131836,89.2969,432
1569682293,361.764,-138.522,29.2447,178.792,-0.131836,89.2969,432
1569682293,361.764,-138.522,29.2447,178.792,-0.131836,89.2969,432
1569682293,361.764,-138.522,29.2447,178.792,-0.131836,89.2969,432
1569682293,361.764,-138.522,29.2447,178.792,-0.131836,89.2969,432
1569682293,361.764,-138.522,29.2447,178.792,-0.131836,89.2969,432
1569682293,361.764,-138.522,29.2447,178.792,-0.131836,89.2969,432
1569682293,361.764,-138.522,29.2447,178.792,-0.131836,89.2969,432
1569682293,361.764,-138.522,29.2447,178.792,-0.131836,89.2969,432
1569682293,361.764,-138.522,29.1331,178.792,-0.131836,89.2969,432
1569682293,361.764,-138.522,29.1331,178.792,-0.131836,89.2969,432
1569682293,361.764,-138.522,29.1331,178.792,-0.131836,89.2969,432
1569682293,361.764,-138.522,29.1331,178.792,-0.131836,89.2969,432
1569682293,361.764,-138.522,29.1331,178.792,-0.131836,89.2969,432
1569682293,361.764,-138.522,29.1331,178.792,-0.131836,89.2969,432
1569682293,361.652,-138.522,29.1331,178.792,-0.131836,89.2969,432
1569682293,361.652,-138.522,29.1331,178.792,-0.131836,89.2969,432
1569682293,361.652,-138.522,29.1331,178.792,-0.131836,89.2969,432
1569682293,361.652,-138.522,29.1331,178.792,-0.131836,89.2969,432
1569682293,361.652,-138.522,29.1331,178.813,-0.131836,89.2969,432
1569682293,361.652,-138.522,29.1331,178.813,-0.131836,89.2969,432
1569682293,361.652,-138.522,29.1331,178.813,-0.131836,89.2969,432
1569682293,361.652,-138.522,29.1331,178.813,-0.131836,89.2969,432
1569682293,361.652,-138.522,29.1331,178.813,-0.131836,89.2969,432
1569682293,361.652,-138.522,29.1331,178.792,-0.153809,89.2969,432
1569682293,361.652,-138.522,29.1331,178.792,-0.153809,89.2969,432
1569682293,361.652,-138.522,29.1331,178.792,-0.153809,89.2969,432
1569682293,361.652,-138.522,29.1331,178.792,-0.153809,89.2969,432
1569682294,361.652,-138.522,29.1331,178.792,-0.153809,89.2969,432
1569682294,361.652,-138.522,29.1331,178.792,-0.153809,89.2969,432
1569682294,361.652,-138.522,29.1331,178.792,-0.153809,89.2969,432
1569682294,361.652,-138.522,29.1331,178.792,-0.153809,89.2969,432
1569682294,361.652,-138.522,29.1331,178.792,-0.153809,89.2969,432
1569682294,361.652,-138.522,29.1331,178.792,-0.153809,89.2969,432
1569682294,361.652,-138.522,29.1331,178.792,-0.131836,89.2969,432
1569682294,361.652,-138.522,29.1331,178.792,-0.131836,89.2969,432
1569682294,361.652,-138.522,29.2447,178.792,-0.131836,89.2969,432
1569682294,361.652,-138.522,29.2447,178.792,-0.131836,89.2969,432
1569682294,361.652,-138.522,29.2447,178.792,-0.131836,89.2969,432
1569682294,361.652,-138.522,29.2447,178.792,-0.131836,89.2969,432
1569682294,361.652,-138.522,29.2447,178.792,-0.131836,89.2969,432
1569682294,361.652,-138.522,29.2447,178.792,-0.131836,89.2969,432
1569682294,361.652,-138.522,29.2447,178.792,-0.131836,89.2969,432
1569682294,361.652,-138.522,29.2447,178.792,-0.131836,89.2969,432
1569682294,361.652,-138.522,29.2447,178.792,-0.131836,89.2969,432
1569682294,361.652,-138.522,29.2447,178.792,-0.131836,89.2969,432
1569682294,361.652,-138.522,29.2447,178.792,-0.131836,89.2969,432
1569682294,361.652,-138.522,29.2447,178.792,-0.131836,89.2969,432
1569682294,361.652,-138.522,29.2447,178.792,-0.131836,89.2969,432
1569682294,361.652,-138.522,29.2447,178.792,-0.131836,89.2969,432
1569682294,361.652,-138.522,29.1331,178.792,-0.131836,89.2969,432
1569682294,361.652,-138.522,29.1331,178.792,-0.131836,89.2969,432
1569682294,361.652,-138.522,29.1331,178.792,-0.153809,89.2969,432
1569682294,361.652,-138.522,29.1331,178.792,-0.153809,89.2969,432
1569682294,361.652,-138.633,29.1331,178.792,-0.153809,89.2969,432
1569682294,361.652,-138.633,29.1331,178.792,-0.153809,89.2969,432
1569682294,361.652,-138.633,29.1331,178.792,-0.153809,89.2969,432
1569682294,361.652,-138.522,29.1331,178.792,-0.153809,89.2969,432
1569682294,361.652,-138.522,29.1331,178.792,-0.153809,89.2969,432
1569682294,361.652,-138.522,29.1331,178.792,-0.153809,89.2969,432
1569682294,361.652,-138.522,29.1331,178.792,-0.153809,89.2969,432
1569682294,361.652,-138.522,29.1331,178.792,-0.153809,89.2969,432
1569682294,361.652,-138.522,29.1331,178.792,-0.153809,89.2969,432
1569682294,361.652,-138.522,29.1331,178.792,-0.153809,89.2969,432
1569682294,361.652,-138.522,29.1331,178.792,-0.153809,89.2969,432
1569682294,361.652,-138.633,29.1331,178.792,-0.153809,89.2969,432
1569682294,361.652,-138.633,29.1331,178.792,-0.153809,89.2969,432
1569682294,361.652,-138.633,29.1331,178.792,-0.153809,89.2969,432
1569682294,361.652,-138.633,29.1331,178.792,-0.153809,89.2969,432
1569682294,361.652,-138.633,29.1331,178.792,-0.153809,89.2969,432
1569682294,361.652,-138.633,29.1331,178.792,-0.153809,89.2969,432
1569682294,361.652,-138.633,29.1331,178.792,-0.153809,89.2969,432
1569682294,361.652,-138.633,29.1331,178.792,-0.153809,89.2969,432
1569682294,361.652,-138.633,29.1331,178.792,-0.153809,89.2969,432
1569682294,361.652,-138.633,29.1331,178.792,-0.153809,89.2969,428
1569682294,361.652,-138.633,29.1331,178.792,-0.153809,89.2969,428
1569682294,361.652,-138.633,29.1331,178.792,-0.153809,89.2969,428
1569682294,361.652,-138.633,29.1331,178.792,-0.153809,89.2969,428
1569682294,361.652,-138.633,29.1331,178.792,-0.153809,89.2969,428
1569682294,361.652,-138.633,29.1331,178.792,-0.153809,89.2969,428
1569682294,361.652,-138.633,29.1331,178.792,-0.153809,89.2969,428
1569682294,361.652,-138.633,29.1331,178.792,-0.153809,89.2969,428
1569682294,361.652,-138.633,29.1331,178.792,-0.153809,89.2969,428
1569682294,361.652,-138.633,29.1331,178.792,-0.153809,89.2969,428
1569682294,361.652,-138.633,29.1331,178.792,-0.153809,89.2969,428
1569682294,361.652,-138.633,29.1331,178.792,-0.153809,89.2969,428
1569682294,361.652,-138.633,29.1331,178.792,-0.153809,89.2969,428
1569682294,361.652,-138.633,29.1331,178.792,-0.153809,89.2969,428
1569682294,361.652,-138.633,29.1331,178.792,-0.153809,89.2969,428
1569682294,361.652,-138.633,29.1331,178.792,-0.153809,89.2969,428
1569682294,361.652,-138.633,29.1331,178.792,-0.153809,89.2969,428
1569682294,361.652,-138.633,29.1331,178.792,-0.153809,89.2969,432
1569682294,361.652,-138.633,29.1331,178.792,-0.153809,89.2969,428
1569682294,361.652,-138.633,29.1331,178.792,-0.153809,89.2969,428
1569682294,361.652,-138.633,29.1331,178.792,-0.153809,89.2969,428
1569682294,361.652,-138.633,29.1331,178.792,-0.153809,89.2969,428
1569682294,361.652,-138.633,29.1331,178.792,-0.153809,89.2969,428
1569682294,361.652,-138.633,29.1331,178.792,-0.153809,89.2969,428
1569682294,361.652,-138.633,29.1331,178.792,-0.153809,89.2969,428
1569682294,361.652,-138.633,29.1331,178.792,-0.153809,89.2969,428
1569682294,361.652,-138.633,29.1331,178.792,-0.153809,89.2969,428
1569682294,361.652,-138.633,29.1331,178.792,-0.153809,89.2969,428
1569682294,361.652,-138.633,29.1331,178.792,-0.153809,89.2969,428
1569682294,361.652,-138.633,29.1331,178.792,-0.153809,89.2969,428
1569682294,361.652,-138.633,29.1331,178.792,-0.153809,89.2969,428
1569682294,361.652,-138.633,29.1331,178.792,-0.153809,89.2969,428
1569682294,361.652,-138.633,29.1331,178.792,-0.153809,89.2969,428
1569682294,361.652,-138.633,29.1331,178.792,-0.153809,89.2969,428
1569682294,361.652,-138.633,29.1331,178.792,-0.153809,89.2969,428
1569682294,361.652,-138.633,29.1331,178.792,-0.153809,89.2969,428
1569682294,361.652,-138.633,29.1331,178.792,-0.153809,89.2969,428
1569682294,361.652,-138.522,29.1331,178.792,-0.153809,89.2969,428
1569682294,361.652,-138.522,29.1331,178.792,-0.153809,89.2969,428
1569682294,361.652,-138.522,29.1331,178.792,-0.153809,89.2969,428
1569682294,361.652,-138.522,29.1331,178.792,-0.153809,89.2969,428
1569682294,361.652,-138.522,29.1331,178.792,-0.153809,89.2969,428
1569682294,361.652,-138.522,29.1331,178.792,-0.153809,89.2969,428
1569682294,361.652,-138.522,29.1331,178.792,-0.153809,89.2969,428
1569682294,361.652,-138.522,29.1331,178.792,-0.153809,89.2969,428
1569682294,361.652,-138.522,29.1331,178.792,-0.153809,89.2969,428
1569682294,361.652,-138.522,29.1331,178.792,-0.153809,89.2969,428
1569682294,361.652,-138.522,29.1331,178.792,-0.153809,89.2969,428
1569682294,361.652,-138.522,29.1331,178.792,-0.153809,89.2969,428
1569682294,361.652,-138.522,29.1331,178.813,-0.153809,89.2969,428
1569682294,361.652,-138.522,29.1331,178.813,-0.153809,89.2969,428
1569682294,361.652,-138.522,29.1331,178.813,-0.153809,89.2969,428
1569682294,361.652,-138.522,29.1331,178.813,-0.153809,89.2969,428
1569682294,361.652,-138.522,29.1331,178.813,-0.153809,89.2969,428
1569682295,361.764,-138.522,29.1331,178.813,-0.153809,89.2969,428
1569682295,361.764,-138.522,29.1331,178.813,-0.153809,89.2969,432
1569682295,361.764,-138.522,29.1331,178.813,-0.153809,89.2969,432
1569682295,361.764,-138.522,29.1331,178.813,-0.153809,89.2969,432
1569682295,361.764,-138.522,29.1331,178.813,-0.153809,89.2969,432
1569682295,361.764,-138.522,29.1331,178.813,-0.153809,89.2969,432
1569682295,361.764,-138.522,29.1331,178.813,-0.153809,89.2969,432
1569682295,361.764,-138.522,29.1331,178.813,-0.153809,89.2969,432
1569682295,361.764,-138.522,29.1331,178.792,-0.153809,89.2969,432
1569682295,361.764,-138.522,29.1331,178.792,-0.153809,89.2969,432
1569682295,361.764,-138.522,29.1331,178.792,-0.153809,89.2969,432
1569682295,361.764,-138.522,29.1331,178.792,-0.153809,89.2969,432
1569682295,361.764,-138.522,29.1331,178.792,-0.153809,89.2969,432
1569682295,361.764,-138.522,29.1331,178.792,-0.153809,89.2969,432
1569682295,361.652,-138.522,29.1331,178.792,-0.153809,89.2969,432
1569682295,361.652,-138.522,29.1331,178.792,-0.153809,89.2969,432
1569682295,361.652,-138.522,29.1331,178.792,-0.153809,89.2969,432
1569682295,361.652,-138.522,29.1331,178.792,-0.153809,89.2969,432
1569682295,361.652,-138.522,29.1331,178.792,-0.153809,89.2969,432
1569682295,361.652,-138.522,29.1331,178.792,-0.153809,89.2969,432
1569682295,361.652,-138.522,29.1331,178.792,-0.153809,89.2969,432
1569682295,361.652,-138.522,29.1331,178.792,-0.153809,89.2969,432
1569682295,361.652,-138.522,29.1331,178.792,-0.153809,89.2969,432
1569682295,361.652,-138.522,29.1331,178.792,-0.153809,89.2969,432
1569682295,361.652,-138.522,29.1331,178.792,-0.153809,89.2969,432
1569682295,361.652,-138.522,29.1331,178.792,-0.153809,89.2969,432
1569682295,361.652,-138.522,29.1331,178.792,-0.153809,89.2969,432
1569682295,361.652,-138.522,29.1331,178.792,-0.153809,89.2969,432
1569682295,361.652,-138.522,29.1331,178.792,-0.153809,89.2969,432
1569682295,361.652,-138.633,29.1331,178.792,-0.153809,89.2969,432
1569682295,361.652,-138.633,29.1331,178.792,-0.153809,89.2969,432
1569682295,361.652,-138.522,29.1331,178.792,-0.153809,89.2969,432
1569682295,361.652,-138.522,29.1331,178.792,-0.153809,89.2969,432
1569682295,361.652,-138.522,29.1331,178.792,-0.153809,89.2969,428
1569682295,361.652,-138.522,29.1331,178.792,-0.153809,89.2969,428
1569682295,361.652,-138.522,29.1331,178.792,-0.153809,89.2969,428
1569682295,361.652,-138.522,29.1331,178.792,-0.153809,89.2969,428
1569682295,361.652,-138.522,29.1331,178.792,-0.153809,89.2969,428
1569682295,361.652,-138.522,29.1331,178.792,-0.153809,89.2969,428
1569682295,361.652,-138.522,29.1331,178.792,-0.153809,89.2969,428
1569682295,361.652,-138.522,29.1331,178.792,-0.153809,89.2969,428
1569682295,361.652,-138.522,29.1331,178.792,-0.153809,89.2969,432
1569682295,361.652,-138.522,29.1331,178.792,-0.153809,89.2969,432
1569682295,361.652,-138.522,29.1331,178.792,-0.153809,89.2969,432
1569682295,361.652,-138.633,29.1331,178.792,-0.153809,89.2969,432
1569682295,361.652,-138.633,29.1331,178.792,-0.153809,89.2969,432
1569682295,361.652,-138.633,29.1331,178.792,-0.153809,89.2969,432
1569682295,361.652,-138.633,29.1331,178.792,-0.153809,89.2969,432
1569682295,361.652,-138.633,29.1331,178.792,-0.153809,89.2969,432
1569682295,361.652,-138.633,29.1331,178.792,-0.153809,89.2969,432
1569682295,361.652,-138.633,29.1331,178.792,-0.153809,89.2969,432
1569682295,361.652,-138.633,29.1331,178.792,-0.153809,89.2969,432
1569682295,361.652,-138.633,29.1331,178.792,-0.153809,89.2969,432
1569682295,361.652,-138.633,29.1331,178.792,-0.153809,89.2969,432
1569682295,361.652,-138.633,29.1331,178.792,-0.153809,89.2969,432
1569682295,361.652,-138.633,29.1331,178.792,-0.153809,89.2969,432
1569682295,361.652,-138.633,29.1331,178.792,-0.153809,89.2969,432
1569682295,361.652,-138.633,29.1331,178.792,-0.153809,89.2969,432
1569682295,361.652,-138.633,29.1331,178.792,-0.153809,89.2969,432
1569682295,361.652,-138.633,29.1331,178.792,-0.153809,89.2969,432
1569682295,361.652,-138.522,29.1331,178.792,-0.153809,89.2969,432
1569682295,361.652,-138.522,29.1331,178.792,-0.153809,89.2969,432
1569682295,361.652,-138.522,29.1331,178.792,-0.153809,89.2969,432
1569682295,361.652,-138.522,29.1331,178.792,-0.153809,89.2969,432
1569682295,361.652,-138.522,29.1331,178.792,-0.153809,89.2969,432
1569682295,361.652,-138.522,29.1331,178.792,-0.153809,89.2969,432
1569682295,361.764,-138.522,29.1331,178.792,-0.153809,89.2969,432
1569682295,361.764,-138.522,29.1331,178.792,-0.153809,89.2969,432
1569682295,361.764,-138.522,29.1331,178.792,-0.153809,89.2969,432
1569682295,361.764,-138.522,29.1331,178.792,-0.153809,89.2969,432
1569682295,361.764,-138.522,29.1331,178.792,-0.153809,89.2969,432
1569682295,361.652,-138.522,29.1331,178.792,-0.153809,89.2969,432
1569682295,361.652,-138.522,29.1331,178.792,-0.153809,89.2969,432
1569682295,361.652,-138.522,29.1331,178.792,-0.153809,89.2969,432
1569682295,361.652,-138.522,29.1331,178.792,-0.153809,89.2969,432
1569682295,361.652,-138.522,29.1331,178.792,-0.153809,89.2969,432
1569682295,361.652,-138.522,29.1331,178.792,-0.153809,89.2969,432
1569682295,361.652,-138.522,29.1331,178.792,-0.153809,89.2969,432
1569682295,361.652,-138.522,29.1331,178.792,-0.153809,89.2969,432
1569682295,361.652,-138.522,29.1331,178.792,-0.153809,89.2969,432
1569682295,361.652,-138.522,29.1331,178.792,-0.153809,89.2969,432
1569682295,361.652,-138.522,29.1331,178.792,-0.153809,89.2969,432
1569682295,361.652,-138.633,29.1331,178.792,-0.153809,89.2969,432
1569682295,361.652,-138.633,29.1331,178.792,-0.153809,89.2969,432
1569682295,361.652,-138.633,29.1331,178.792,-0.153809,89.2969,432
1569682295,361.652,-138.522,29.1331,178.792,-0.153809,89.2969,432
1569682295,361.652,-138.522,29.1331,178.792,-0.153809,89.2969,428
1569682295,361.652,-138.522,29.1331,178.792,-0.153809,89.2969,428
1569682295,361.652,-138.522,29.1331,178.792,-0.153809,89.2969,428
1569682295,361.652,-138.522,29.1331,178.792,-0.153809,89.2969,428
1569682295,361.652,-138.522,29.1331,178.792,-0.153809,89.2969,428
1569682295,361.652,-138.522,29.1331,178.792,-0.153809,89.2969,428
1569682295,361.652,-138.522,29.1331,178.792,-0.131836,89.2969,428
1569682295,361.652,-138.522,29.1331,178.792,-0.131836,89.2969,428
1569682295,361.652,-138.522,29.1331,178.792,-0.131836,89.2969,428
1569682295,361.652,-138.522,29.1331,178.792,-0.131836,89.2969,428
1569682295,361.652,-138.522,29.1331,178.792,-0.131836,89.2969,428
1569682295,361.652,-138.522,29.1331,178.792,-0.131836,89.2969,428
1569682295,361.652,-138.522,29.1331,178.792,-0.131836,89.2969,428
1569682295,361.652,-138.522,29.1331,178.792,-0.131836,89.2969,428
1569682296,361.652,-138.522,29.1331,178.792,-0.131836,89.2969,428
1569682296,361.652,-138.522,29.1331,178.792,-0.131836,89.2969,428
1569682296,361.652,-138.522,29.1331,178.792,-0.131836,89.2969,428
1569682296,361.652,-138.522,29.1331,178.792,-0.153809,89.2969,428
1569682296,361.652,-138.522,29.1331,178.792,-0.153809,89.2969,428
1569682296,361.652,-138.522,29.1331,178.792,-0.153809,89.2969,428
1569682296,361.652,-138.522,29.1331,178.792,-0.131836,89.2969,428
1569682296,361.652,-138.522,29.1331,178.792,-0.131836,89.2969,428
1569682296,361.652,-138.522,29.1331,178.792,-0.153809,89.2969,428
1569682300,361.764,-138.633,29.2447,178.813,-0.065918,89.3188,428
1569682300,361.764,-138.633,29.2447,178.813,-0.065918,89.3188,428
1569682300,361.764,-138.633,29.2447,178.813,-0.065918,89.3188,428
1569682300,361.764,-138.633,29.2447,178.813,-0.065918,89.3188,428
1569682300,361.764,-138.633,29.2447,178.813,-0.065918,89.3188,428
1569682300,361.652,-138.633,29.2447,178.813,-0.065918,89.3188,428
1569682300,361.652,-138.633,29.2447,178.813,-0.065918,89.3188,428
1569682300,361.652,-138.633,29.2447,178.813,-0.065918,89.3188,428
1569682300,361.652,-138.633,29.2447,178.813,-0.065918,89.3188,428
1569682300,361.652,-138.633,29.2447,178.813,-0.065918,89.3188,428
1569682300,361.652,-138.633,29.2447,178.813,-0.065918,89.3188,428
1569682300,361.652,-138.633,29.2447,178.813,-0.065918,89.3188,428
1569682300,361.652,-138.633,29.2447,178.813,-0.065918,89.3188,428
1569682300,361.652,-138.633,29.2447,178.813,-0.065918,89.3188,428
1569682300,361.652,-138.633,29.2447,178.813,-0.065918,89.3188,428
1569682300,361.652,-138.633,29.2447,178.813,-0.065918,89.3188,428
1569682300,361.652,-138.633,29.2447,178.813,-0.065918,89.3188,428
1569682300,361.652,-138.633,29.2447,178.813,-0.065918,89.3188,428
1569682300,361.652,-138.633,29.2447,178.813,-0.065918,89.3188,428
1569682300,361.652,-138.633,29.2447,178.813,-0.065918,89.3188,428
1569682300,361.652,-138.633,29.2447,178.813,-0.065918,89.3188,428
1569682300,361.652,-138.633,29.2447,178.813,-0.065918,89.3188,428
1569682300,361.652,-138.633,29.2447,178.813,-0.065918,89.3188,428
1569682300,361.652,-138.633,29.2447,178.813,-0.065918,89.3188,428
1569682300,361.652,-138.633,29.2447,178.813,-0.065918,89.3188,428
1569682300,361.652,-138.633,29.2447,178.813,-0.065918,89.3188,428
1569682300,361.652,-138.633,29.2447,178.813,-0.065918,89.3188,428
1569682300,361.652,-138.633,29.2447,178.813,-0.065918,89.3188,428
1569682300,361.652,-138.633,29.2447,178.813,-0.065918,89.3188,428
1569682300,361.652,-138.633,29.2447,178.813,-0.065918,89.3188,428
1569682300,361.652,-138.633,29.2447,178.813,-0.065918,89.3188,428
1569682300,361.652,-138.633,29.2447,178.813,-0.065918,89.3188,428
1569682300,361.652,-138.633,29.2447,178.813,-0.065918,89.3188,428
1569682300,361.652,-138.633,29.2447,178.813,-0.065918,89.3188,428
1569682300,361.652,-138.633,29.2447,178.813,-0.065918,89.3188,428
1569682300,361.652,-138.633,29.2447,178.813,-0.065918,89.3188,428
1569682300,361.764,-138.633,29.2447,178.813,-0.065918,89.3188,428
1569682300,361.764,-138.633,29.2447,178.813,-0.065918,89.3188,428
1569682300,361.764,-138.633,29.2447,178.813,-0.065918,89.3188,428
1569682300,361.764,-138.633,29.2447,178.813,-0.065918,89.3188,428
1569682300,361.764,-138.633,29.2447,178.813,-0.065918,89.3188,428
1569682300,361.764,-138.633,29.2447,178.813,-0.065918,89.3188,428
1569682300,361.764,-138.633,29.2447,178.813,-0.065918,89.3188,428
1569682300,361.764,-138.633,29.2447,178.813,-0.065918,89.3188,428
1569682300,361.764,-138.633,29.2447,178.813,-0.065918,89.3188,428
1569682300,361.764,-138.633,29.2447,178.813,-0.065918,89.3188,428
1569682300,361.764,-138.633,29.2447,178.813,-0.065918,89.3188,428
1569682300,361.764,-138.633,29.2447,178.813,-0.065918,89.3188,428
1569682300,361.764,-138.633,29.2447,178.813,-0.065918,89.3188,428
1569682300,361.764,-138.633,29.2447,178.813,-0.065918,89.3188,428
1569682300,361.764,-138.633,29.2447,178.813,-0.065918,89.3188,428
1569682300,361.764,-138.633,29.2447,178.813,-0.065918,89.3188,428
1569682300,361.764,-138.633,29.2447,178.813,-0.065918,89.3188,428
1569682300,361.764,-138.633,29.2447,178.813,-0.065918,89.3188,428
1569682300,361.764,-138.633,29.2447,178.813,-0.065918,89.3188,428
1569682300,361.764,-138.633,29.2447,178.813,-0.065918,89.3188,428
1569682300,361.764,-138.633,29.2447,178.813,-0.065918,89.3188,428
1569682300,361.764,-138.633,29.2447,178.813,-0.065918,89.3188,428
1569682300,361.764,-138.633,29.2447,178.813,-0.065918,89.3188,428
1569682300,361.764,-138.633,29.2447,178.813,-0.065918,89.3188,428
1569682300,361.764,-138.633,29.2447,178.813,-0.065918,89.3188,428
1569682300,361.764,-138.633,29.2447,178.813,-0.065918,89.3188,428
1569682300,361.652,-138.633,29.2447,178.813,-0.065918,89.3188,428
1569682300,361.652,-138.633,29.2447,178.813,-0.065918,89.3188,428
1569682300,361.764,-138.633,29.2447,178.813,-0.065918,89.3188,428
1569682300,361.764,-138.633,29.2447,178.813,-0.065918,89.3188,428
1569682300,361.764,-138.633,29.2447,178.813,-0.065918,89.3188,428
1569682300,361.764,-138.633,29.2447,178.813,-0.065918,89.3188,428
1569682300,361.764,-138.633,29.2447,178.813,-0.065918,89.3188,428
1569682300,361.764,-138.633,29.2447,178.813,-0.065918,89.3188,428
1569682300,361.764,-138.633,29.2447,178.813,-0.065918,89.3188,428
1569682300,361.764,-138.633,29.2447,178.813,-0.065918,89.3188,428
1569682300,361.764,-138.633,29.2447,178.813,-0.065918,89.3188,428
1569682300,361.764,-138.633,29.2447,178.813,-0.065918,89.3188,428
1569682300,361.764,-138.633,29.2447,178.813,-0.065918,89.3188,428
1569682300,361.764,-138.633,29.2447,178.813,-0.065918,89.3188,428
1569682300,361.764,-138.633,29.2447,178.813,-0.065918,89.3188,428
1569682300,361.764,-138.633,29.2447,178.813,-0.065918,89.3188,428
1569682300,361.764,-138.633,29.2447,178.813,-0.065918,89.3188,428
1569682300,361.764,-138.633,29.2447,178.813,-0.065918,89.3188,428
1569682300,361.764,-138.633,29.2447,178.813,-0.065918,89.3188,428
1569682300,361.764,-138.633,29.2447,178.813,-0.065918,89.3188,428
1569682300,361.764,-138.633,29.2447,178.813,-0.065918,89.3188,428
1569682300,361.764,-138.633,29.2447,178.813,-0.065918,89.3188,428
1569682300,361.764,-138.633,29.2447,178.813,-0.065918,89.3188,428
1569682300,361.764,-138.633,29.2447,178.813,-0.065918,89.3188,428
1569682300,361.764,-138.633,29.2447,178.813,-0.065918,89.3188,428
1569682300,361.764,-138.633,29.2447,178.813,-0.065918,89.3188,428
1569682300,361.764,-138.633,29.2447,178.813,-0.065918,89.3188,428
1569682300,361.764,-138.633,29.2447,178.813,-0.065918,89.3188,428
1569682300,361.764,-138.633,29.2447,178.813,-0.065918,89.3188,428
1569682300,361.764,-138.633,29.2447,178.813,-0.065918,89.3188,428
1569682300,361.764,-138.633,29.2447,178.813,-0.065918,89.3188,428
1569682301,361.764,-138.633,29.2447,178.813,-0.065918,89.3188,428
1569682301,361.764,-138.633,29.2447,178.813,-0.065918,89.3188,428
1569682301,361.764,-138.633,29.2447,178.813,-0.065918,89.3188,428
1569682301,361.764,-138.633,29.2447,178.813,-0.065918,89.3188,428
1569682301,361.764,-138.633,29.2447,178.813,-0.065918,89.3188,428
1569682301,361.764,-138.633,29.2447,178.813,-0.065918,89.3188,428
1569682301,361.764,-138.633,29.2447,178.813,-0.065918,89.3188,428
1569682301,361.764,-138.633,29.2447,178.813,-0.065918,89.3188,428
1569682301,361.764,-138.633,29.2447,178.813,-0.065918,89.3188,428
1569682301,361.764,-138.633,29.2447,178.813,-0.065918,89.3188,428
1569682301,361.764,-138.633,29.2447,178.813,-0.065918,89.3188,428
1569682301,361.764,-138.633,29.2447,178.813,-0.065918,89.3188,428
1569682301,361.764,-138.633,29.2447,178.813,-0.065918,89.3188,428
1569682301,361.764,-138.633,29.2447,178.813,-0.065918,89.3188,428
1569682301,361.764,-138.633,29.2447,178.813,-0.065918,89.3188,428
1569682301,361.764,-138.633,29.2447,178.813,-0.065918,89.3188,428
1569682301,361.764,-138.633,29.2447,178.813,-0.065918,89.3188,428
1569682301,361.764,-138.633,29.2447,178.813,-0.065918,89.3188,428
1569682301,361.764,-138.633,29.2447,178.813,-0.065918,89.3188,428
1569682301,361.764,-138.633,29.2447,178.813,-0.065918,89.3188,428
1569682301,361.764,-138.633,29.2447,178.813,-0.065918,89.3188,428
1569682301,361.764,-138.633,29.2447,178.813,-0.065918,89.3188,428
1569682301,361.652,-138.633,29.2447,178.813,-0.065918,89.3188,428
1569682301,361.652,-138.633,29.2447,178.813,-0.065918,89.3188,428
1569682301,361.652,-138.633,29.2447,178.813,-0.065918,89.3188,428
1569682301,361.652,-138.633,29.2447,178.813,-0.065918,89.3188,428
1569682301,361.652,-138.633,29.2447,178.813,-0.065918,89.3188,428
1569682301,361.652,-138.633,29.2447,178.813,-0.065918,89.3188,428
1569682301,361.652,-138.633,29.2447,178.813,-0.065918,89.3188,428
1569682301,361.652,-138.633,29.2447,178.813,-0.065918,89.3188,428
1569682301,361.652,-138.633,29.2447,178.813,-0.065918,89.3188,428
1569682301,361.652,-138.633,29.2447,178.813,-0.065918,89.3188,428
1569682301,361.652,-138.633,29.2447,178.813,-0.065918,89.3188,428
1569682301,361.652,-138.633,29.2447,178.813,-0.065918,89.3188,428
1569682301,361.652,-138.633,29.2447,178.813,-0.065918,89.3188,428
1569682301,361.652,-138.633,29.2447,178.813,-0.065918,89.3188,428
1569682301,361.764,-138.633,29.2447,178.813,-0.065918,89.3188,428
1569682301,361.764,-138.633,29.2447,178.813,-0.065918,89.3188,428
1569682301,361.764,-138.633,29.2447,178.813,-0.065918,89.3188,428
1569682301,361.764,-138.633,29.2447,178.813,-0.065918,89.3188,428
1569682301,361.764,-138.633,29.2447,178.813,-0.065918,89.3188,428
1569682301,361.764,-138.633,29.2447,178.813,-0.065918,89.3188,428
1569682301,361.764,-138.633,29.2447,178.813,-0.065918,89.3188,428
1569682301,361.764,-138.633,29.2447,178.813,-0.065918,89.3188,428
1569682301,361.764,-138.633,29.2447,178.813,-0.065918,89.3188,428
1569682301,361.764,-138.633,29.2447,178.813,-0.065918,89.3188,428
1569682301,361.764,-138.633,29.2447,178.813,-0.065918,89.3188,428
1569682301,361.764,-138.633,29.2447,178.813,-0.065918,89.3188,428
1569682301,361.764,-138.633,29.2447,178.813,-0.065918,89.3188,428
1569682301,361.764,-138.633,29.2447,178.813,-0.065918,89.3188,428
1569682301,361.764,-138.633,29.2447,178.813,-0.065918,89.3188,428
1569682301,361.764,-138.633,29.2447,178.813,-0.065918,89.3188,428
1569682301,361.764,-138.633,29.2447,178.813,-0.065918,89.3188,428
1569682301,361.764,-138.633,29.2447,178.813,-0.065918,89.3188,428
1569682301,361.764,-138.633,29.2447,178.813,-0.065918,89.3188,428
1569682301,361.764,-138.633,29.2447,178.813,-0.065918,89.3188,428
1569682301,361.764,-138.633,29.2447,178.813,-0.065918,89.3188,428
1569682301,361.764,-138.633,29.2447,178.813,-0.065918,89.3188,428
1569682301,361.764,-138.633,29.2447,178.813,-0.065918,89.3188,428
1569682301,361.764,-138.633,29.2447,178.813,-0.065918,89.3188,428
1569682301,361.764,-138.633,29.2447,178.813,-0.065918,89.3188,428
1569682301,361.764,-138.633,29.2447,178.813,-0.065918,89.3188,428
1569682301,361.764,-138.633,29.2447,178.813,-0.065918,89.3188,428
1569682301,361.764,-138.633,29.2447,178.813,-0.065918,89.3188,428
1569682301,361.764,-138.633,29.2447,178.813,-0.065918,89.3188,428
1569682301,361.764,-138.633,29.2447,178.813,-0.065918,89.3188,428
1569682301,361.764,-138.633,29.2447,178.813,-0.065918,89.3188,428
1569682301,361.764,-138.633,29.2447,178.813,-0.065918,89.3188,428
1569682301,361.764,-138.633,29.2447,178.813,-0.065918,89.3188,428
1569682301,361.764,-138.633,29.2447,178.813,-0.065918,89.3188,428
1569682301,361.764,-138.633,29.2447,178.813,-0.065918,89.3188,428
1569682301,361.764,-138.633,29.2447,178.813,-0.065918,89.3188,428
1569682301,361.764,-138.633,29.2447,178.813,-0.065918,89.3188,428
1569682301,361.764,-138.633,29.2447,178.813,-0.065918,89.3188,428
1569682301,361.764,-138.633,29.2447,178.813,-0.065918,89.3188,428
1569682301,361.764,-138.633,29.2447,178.813,-0.065918,89.3188,428
1569682301,361.764,-138.633,29.2447,178.813,-0.065918,89.3188,428
1569682301,361.764,-138.633,29.2447,178.813,-0.065918,89.3188,428
1569682301,361.764,-138.633,29.2447,178.813,-0.065918,89.3188,428
1569682301,361.764,-138.633,29.2447,178.813,-0.065918,89.3188,428
1569682301,361.764,-138.633,29.2447,178.813,-0.065918,89.3188,428
1569682301,361.764,-138.633,29.2447,178.813,-0.065918,89.3188,428
1569682301,361.764,-138.633,29.2447,178.813,-0.065918,89.3188,428
1569682301,361.764,-138.633,29.2447,178.813,-0.065918,89.3188,428
1569682301,361.764,-138.633,29.2447,178.813,-0.065918,89.3188,424
1569682301,361.764,-138.633,29.2447,178.813,-0.065918,89.3188,424
1569682301,361.764,-138.633,29.2447,178.813,-0.065918,89.3188,424
1569682301,361.764,-138.633,29.2447,178.813,-0.065918,89.3188,424
1569682301,361.764,-138.633,29.2447,178.813,-0.065918,89.3188,424
1569682301,361.764,-138.633,29.2447,178.813,-0.065918,89.3188,424
1569682301,361.764,-138.633,29.2447,178.813,-0.065918,89.3188,424
1569682301,361.764,-138.633,29.2447,178.813,-0.065918,89.3188,424
1569682301,361.764,-138.633,29.2447,178.813,-0.065918,89.3188,428
1569682301,361.764,-138.633,29.2447,178.813,-0.065918,89.3188,428
1569682301,361.764,-138.633,29.2447,178.813,-0.065918,89.3188,428
1569682301,361.764,-138.633,29.2447,178.813,-0.065918,89.3188,428
1569682301,361.764,-138.633,29.2447,178.813,-0.065918,89.3188,428
1569682301,361.764,-138.633,29.2447,178.813,-0.065918,89.3188,428
1569682301,361.764,-138.633,29.2447,178.813,-0.065918,89.3188,428
1569682301,361.764,-138.633,29.2447,178.813,-0.065918,89.3188,428
1569682302,361.764,-138.633,29.2447,178.813,-0.065918,89.3188,428
1569682302,361.764,-138.633,29.2447,178.813,-0.065918,89.3188,428
1569682302,361.764,-138.633,29.2447,178.813,-0.065918,89.3188,428
1569682302,361.764,-138.633,29.2447,178.813,-0.065918,89.3188,428
1569682302,361.764,-138.633,29.2447,178.813,-0.065918,89.3188,428
1569682302,361.764,-138.633,29.2447,178.813,-0.065918,89.3188,428
1569682302,361.764,-138.633,29.2447,178.813,-0.065918,89.3188,428
1569682302,361.764,-138.633,29.2447,178.813,-0.065918,89.3188,428
1569682302,361.764,-138.633,29.2447,178.813,-0.065918,89.3188,428
1569682302,361.764,-138.633,29.2447,178.813,-0.065918,89.3188,428
1569682302,361.764,-138.633,29.2447,178.813,-0.065918,89.3188,428
1569682302,361.764,-138.633,29.2447,178.813,-0.065918,89.3188,428
1569682302,361.764,-138.633,29.2447,178.813,-0.065918,89.3188,428
1569682302,361.764,-138.633,29.2447,178.813,-0.065918,89.3188,428
1569682302,361.764,-138.633,29.2447,178.813,-0.065918,89.3188,428
1569682302,361.764,-138.633,29.2447,178.813,-0.065918,89.3188,428
1569682302,361.764,-138.633,29.2447,178.813,-0.065918,89.3188,428
1569682302,361.764,-138.633,29.2447,178.813,-0.065918,89.3188,428
1569682302,361.764,-138.633,29.2447,178.813,-0.065918,89.3188,428
1569682302,361.764,-138.633,29.2447,178.813,-0.065918,89.3188,428
1569682302,361.764,-138.633,29.2447,178.813,-0.065918,89.3188,428
1569682302,361.764,-138.633,29.2447,178.813,-0.065918,89.3188,428
1569682302,361.764,-138.633,29.2447,178.813,-0.065918,89.3188,428
1569682302,361.764,-138.633,29.2447,178.813,-0.065918,89.3188,428
1569682302,361.764,-138.633,29.2447,178.813,-0.065918,89.3188,428
1569682302,361.764,-138.633,29.2447,178.813,-0.065918,89.3188,428
1569682302,361.764,-138.633,29.2447,178.813,-0.065918,89.3188,428
1569682302,361.764,-138.633,29.2447,178.813,-0.065918,89.3188,428
1569682302,361.764,-138.633,29.2447,178.813,-0.065918,89.3188,428
1569682302,361.764,-138.633,29.2447,178.813,-0.065918,89.3188,428
1569682302,361.764,-138.633,29.2447,178.813,-0.065918,89.3188,428
1569682302,361.764,-138.633,29.2447,178.813,-0.065918,89.3188,428
1569682302,361.764,-138.633,29.2447,178.813,-0.065918,89.3188,428
1569682302,361.764,-138.633,29.2447,178.813,-0.065918,89.3188,428
1569682302,361.764,-138.633,29.2447,178.813,-0.065918,89.3188,428
1569682302,361.764,-138.522,29.2447,178.813,-0.065918,89.3188,428
1569682302,361.764,-138.522,29.2447,178.813,-0.065918,89.3188,428
1569682302,361.764,-138.522,29.2447,178.813,-0.065918,89.3188,428
1569682302,361.764,-138.522,29.2447,178.813,-0.065918,89.3188,428
1569682302,361.764,-138.522,29.2447,178.813,-0.065918,89.3188,428
1569682302,361.764,-138.522,29.2447,178.813,-0.065918,89.3188,428
1569682302,361.764,-138.522,29.2447,178.813,-0.065918,89.3188,428
1569682302,361.764,-138.522,29.2447,178.813,-0.065918,89.3188,428
1569682302,361.764,-138.522,29.2447,178.813,-0.065918,89.3188,428
1569682302,361.764,-138.633,29.2447,178.813,-0.065918,89.3188,428
1569682302,361.764,-138.633,29.2447,178.813,-0.065918,89.3188,428
1569682302,361.764,-138.633,29.2447,178.813,-0.065918,89.3188,428
1569682302,361.764,-138.633,29.2447,178.813,-0.065918,89.3188,428
1569682302,361.764,-138.633,29.2447,178.813,-0.065918,89.3188,428
1569682302,361.764,-138.633,29.2447,178.813,-0.065918,89.3188,428
1569682302,361.764,-138.633,29.2447,178.813,-0.065918,89.3188,428
1569682302,361.764,-138.633,29.2447,178.813,-0.065918,89.3188,428
1569682302,361.764,-138.633,29.2447,178.813,-0.065918,89.3188,428
1569682302,361.764,-138.633,29.2447,178.813,-0.065918,89.3188,428
1569682302,361.764,-138.633,29.2447,178.813,-0.065918,89.3188,428
1569682302,361.764,-138.633,29.2447,178.813,-0.065918,89.3188,428
1569682302,361.764,-138.633,29.2447,178.813,-0.065918,89.3188,428
1569682302,361.764,-138.633,29.2447,178.813,-0.065918,89.3188,428
1569682302,361.764,-138.633,29.2447,178.813,-0.065918,89.3188,428
1569682302,361.764,-138.633,29.2447,178.813,-0.065918,89.3188,428
1569682302,361.764,-138.633,29.2447,178.813,-0.065918,89.3188,428
1569682302,361.764,-138.633,29.2447,178.813,-0.065918,89.3188,428
1569682302,361.764,-138.633,29.2447,178.813,-0.065918,89.3188,428
1569682302,361.764,-138.633,29.2447,178.813,-0.065918,89.3188,428
1569682302,361.764,-138.633,29.2447,178.813,-0.065918,89.3188,428
1569682302,361.764,-138.633,29.2447,178.813,-0.065918,89.3188,428
1569682302,361.764,-138.633,29.2447,178.813,-0.065918,89.3188,428
1569682302,361.764,-138.522,29.2447,178.813,-0.065918,89.3188,428
1569682302,361.764,-138.633,29.2447,178.813,-0.065918,89.3188,428
1569682302,361.764,-138.633,29.2447,178.813,-0.065918,89.3188,428
1569682302,361.764,-138.633,29.2447,178.813,-0.065918,89.3188,428
1569682302,361.764,-138.633,29.2447,178.813,-0.065918,89.3188,428
1569682302,361.764,-138.633,29.2447,178.813,-0.065918,89.3188,428
1569682302,361.764,-138.633,29.2447,178.813,-0.065918,89.3188,428
1569682302,361.764,-138.633,29.2447,178.813,-0.065918,89.3188,428
1569682302,361.764,-138.633,29.2447,178.813,-0.065918,89.3188,428
1569682302,361.764,-138.633,29.2447,178.813,-0.065918,89.3188,428
1569682302,361.764,-138.633,29.2447,178.813,-0.065918,89.3188,428
1569682302,361.764,-138.633,29.2447,178.813,-0.065918,89.3188,428
1569682302,361.764,-138.633,29.2447,178.813,-0.065918,89.3188,428
1569682302,361.764,-138.633,29.2447,178.813,-0.065918,89.3188,428
1569682302,361.764,-138.633,29.2447,178.813,-0.065918,89.3188,428
1569682302,361.764,-138.633,29.2447,178.813,-0.065918,89.3188,428
1569682302,361.764,-138.633,29.2447,178.813,-0.065918,89.3188,428
1569682302,361.764,-138.633,29.2447,178.813,-0.065918,89.3188,428
1569682302,361.764,-138.633,29.2447,178.813,-0.065918,89.3188,428
1569682302,361.764,-138.633,29.2447,178.813,-0.065918,89.3188,428
1569682302,361.764,-138.633,29.2447,178.813,-0.065918,89.3188,428
1569682302,361.764,-138.633,29.2447,178.813,-0.065918,89.3188,428
1569682302,361.764,-138.633,29.2447,178.813,-0.065918,89.3188,428
1569682302,361.764,-138.633,29.2447,178.813,-0.065918,89.3188,428
1569682302,361.764,-138.633,29.2447,178.813,-0.065918,89.3188,428
1569682302,361.764,-138.633,29.2447,178.813,-0.065918,89.3188,428
1569682302,361.764,-138.633,29.2447,178.813,-0.065918,89.3188,428
1569682302,361.764,-138.633,29.2447,178.813,-0.065918,89.3188,428
1569682302,361.764,-138.633,29.2447,178.813,-0.065918,89.3188,428
1569682302,361.764,-138.633,29.2447,178.813,-0.065918,89.3188,428
