time,x,y,z,ax,ay,az,q
1569677274,398.041,-176.361,-12.7248,-179.67,2.46094,-144.514,564
1569677274,398.041,-176.361,-12.7248,-179.67,2.46094,-144.514,564
1569677274,398.041,-176.361,-12.7248,-179.67,2.48291,-144.514,564
1569677274,398.041,-176.361,-12.7248,-179.67,2.48291,-144.514,564
1569677274,398.041,-176.361,-12.7248,-179.67,2.48291,-144.514,564
1569677274,398.041,-176.361,-12.7248,-179.67,2.48291,-144.514,564
1569677274,398.041,-176.361,-12.7248,-179.67,2.48291,-144.514,564
1569677274,398.041,-176.361,-12.6132,-179.67,2.48291,-144.514,564
1569677274,398.152,-176.361,-12.6132,-179.67,2.48291,-144.514,564
1569677274,398.152,-176.361,-12.6132,-179.67,2.48291,-144.492,564
1569677274,398.152,-176.361,-12.6132,-179.67,2.48291,-144.492,564
1569677274,398.041,-176.361,-12.6132,-179.67,2.50488,-144.492,564
1569677274,398.041,-176.361,-12.6132,-179.67,2.50488,-144.492,568
1569677274,398.041,-176.361,-12.6132,-179.67,2.50488,-144.492,568
1569677274,398.041,-176.361,-12.6132,-179.648,2.50488,-144.492,568
1569677274,398.041,-176.361,-12.5016,-179.648,2.50488,-144.492,568
1569677274,398.041,-176.361,-12.5016,-179.648,2.50488,-144.492,572
1569677274,398.041,-176.25,-12.5016,-179.648,2.50488,-144.492,572
1569677274,398.041,-176.25,-12.5016,-179.626,2.50488,-144.492,572
1569677274,398.041,-176.25,-12.5016,-179.626,2.50488,-144.492,576
1569677274,398.041,-176.25,-12.5016,-179.626,2.50488,-144.492,576
1569677274,398.041,-176.25,-12.5016,-179.626,2.50488,-144.492,576
1569677274,398.041,-176.25,-12.5016,-179.604,2.50488,-144.492,580
1569677274,398.041,-176.25,-12.6132,-179.604,2.50488,-144.492,580
1569677274,398.041,-176.25,-12.6132,-179.604,2.50488,-144.492,580
1569677274,398.041,-176.25,-12.6132,-179.604,2.50488,-144.492,580
1569677274,398.041,-176.25,-12.6132,-179.604,2.50488,-144.492,580
1569677274,398.041,-176.25,-12.6132,-179.626,2.50488,-144.492,580
1569677274,398.041,-176.25,-12.6132,-179.626,2.50488,-144.492,580
1569677274,398.041,-176.25,-12.6132,-179.626,2.50488,-144.492,580
1569677274,398.041,-176.25,-12.5016,-179.626,2.50488,-144.492,580
1569677274,398.041,-176.25,-12.5016,-179.626,2.52686,-144.492,580
1569677274,398.041,-176.25,-12.5016,-179.626,2.52686,-144.492,580
1569677274,398.041,-176.25,-12.5016,-179.626,2.52686,-144.492,580
1569677274,398.041,-176.25,-12.5016,-179.626,2.52686,-144.492,580
1569677274,398.041,-176.25,-12.5016,-179.626,2.52686,-144.492,580
1569677274,398.041,-176.138,-12.5016,-179.626,2.52686,-144.492,584
1569677274,398.041,-176.138,-12.5016,-179.626,2.52686,-144.492,584
1569677274,398.041,-176.25,-12.5016,-179.626,2.52686,-144.492,584
1569677274,398.041,-176.25,-12.5016,-179.626,2.50488,-144.492,584
1569677274,398.041,-176.25,-12.5016,-179.626,2.50488,-144.492,584
1569677274,398.041,-176.25,-12.5016,-179.626,2.50488,-144.492,584
1569677274,398.041,-176.25,-12.5016,-179.626,2.50488,-144.492,584
1569677274,398.041,-176.25,-12.6132,-179.626,2.50488,-144.492,584
1569677274,398.041,-176.25,-12.6132,-179.648,2.50488,-144.492,584
1569677274,398.041,-176.25,-12.6132,-179.648,2.50488,-144.514,584
1569677274,398.041,-176.25,-12.6132,-179.648,2.50488,-144.514,584
1569677274,398.041,-176.25,-12.6132,-179.648,2.50488,-144.514,588
1569677274,398.041,-176.25,-12.5016,-179.648,2.50488,-144.514,588
1569677274,397.929,-176.361,-12.5016,-179.648,2.50488,-144.514,588
1569677274,397.929,-176.361,-12.5016,-179.648,2.52686,-144.514,588
1569677274,397.929,-176.361,-12.5016,-179.648,2.52686,-144.514,588
1569677274,397.929,-176.361,-12.6132,-179.67,2.52686,-144.514,592
1569677274,397.929,-176.361,-12.6132,-179.67,2.50488,-144.514,592
1569677274,397.929,-176.361,-12.6132,-179.67,2.50488,-144.514,592
1569677274,397.929,-176.361,-12.6132,-179.67,2.50488,-144.514,596
1569677274,397.929,-176.361,-12.6132,-179.67,2.50488,-144.536,596
1569677274,397.929,-176.361,-12.6132,-179.67,2.50488,-144.536,596
1569677274,397.929,-176.361,-12.6132,-179.692,2.50488,-144.536,596
1569677274,397.929,-176.361,-12.6132,-179.692,2.50488,-144.536,596
1569677274,397.929,-176.361,-12.6132,-179.692,2.48291,-144.536,592
1569677274,397.929,-176.361,-12.6132,-179.692,2.48291,-144.536,592
1569677274,397.929,-176.361,-12.6132,-179.692,2.48291,-144.536,592
1569677274,398.041,-176.361,-12.6132,-179.692,2.48291,-144.536,592
1569677274,398.041,-176.361,-12.6132,-179.692,2.48291,-144.536,588
1569677274,398.041,-176.361,-12.6132,-179.692,2.48291,-144.536,588
1569677274,398.041,-176.361,-12.6132,-179.692,2.48291,-144.536,588
1569677274,398.041,-176.361,-12.6132,-179.67,2.48291,-144.536,588
1569677274,398.041,-176.361,-12.6132,-179.67,2.50488,-144.536,584
1569677274,398.041,-176.361,-12.6132,-179.67,2.50488,-144.536,584
1569677274,398.041,-176.361,-12.6132,-179.67,2.50488,-144.536,584
1569677274,398.041,-176.25,-12.6132,-179.67,2.50488,-144.536,584
1569677274,398.041,-176.25,-12.6132,-179.648,2.50488,-144.536,584
1569677274,398.152,-176.25,-12.6132,-179.648,2.50488,-144.514,580
1569677274,398.152,-176.25,-12.6132,-179.648,2.50488,-144.514,580
1569677274,398.152,-176.25,-12.5016,-179.648,2.50488,-144.514,580
1569677274,398.152,-176.25,-12.5016,-179.626,2.50488,-144.514,580
1569677274,398.152,-176.25,-12.5016,-179.626,2.52686,-144.514,576
1569677274,398.152,-176.25,-12.5016,-179.626,2.52686,-144.514,576
1569677274,398.152,-176.138,-12.5016,-179.626,2.52686,-144.514,576
1569677274,398.152,-176.138,-12.5016,-179.626,2.52686,-144.514,576
1569677274,398.152,-176.138,-12.5016,-179.626,2.52686,-144.514,576
1569677274,398.152,-176.138,-12.5016,-179.604,2.52686,-144.514,576
1569677274,398.041,-176.138,-12.5016,-179.626,2.52686,-144.514,576
1569677274,398.041,-176.138,-12.3899,-179.626,2.52686,-144.514,580
1569677274,398.041,-176.138,-12.3899,-179.604,2.52686,-144.514,580
1569677274,398.041,-176.138,-12.3899,-179.604,2.52686,-144.514,584
1569677274,398.041,-176.138,-12.3899,-179.604,2.52686,-144.514,584
1569677274,398.041,-176.138,-12.5016,-179.604,2.52686,-144.536,584
1569677274,398.041,-176.138,-12.5016,-179.626,2.52686,-144.536,588
1569677274,398.041,-176.138,-12.5016,-179.626,2.52686,-144.536,588
1569677274,398.041,-176.138,-12.5016,-179.626,2.52686,-144.536,588
1569677274,398.041,-176.138,-12.5016,-179.626,2.52686,-144.536,588
1569677274,398.041,-176.138,-12.5016,-179.626,2.50488,-144.536,592
1569677274,397.929,-176.138,-12.5016,-179.626,2.50488,-144.536,592
1569677274,397.929,-176.138,-12.5016,-179.626,2.50488,-144.536,592
1569677274,397.929,-176.138,-12.5016,-179.626,2.50488,-144.536,592
1569677275,397.929,-176.138,-12.5016,-179.626,2.50488,-144.536,592
1569677275,397.929,-176.138,-12.5016,-179.626,2.50488,-144.536,592
1569677275,397.929,-176.138,-12.5016,-179.626,2.50488,-144.514,592
1569677275,397.929,-176.138,-12.5016,-179.648,2.50488,-144.514,596
1569677275,397.929,-176.138,-12.5016,-179.648,2.50488,-144.514,596
1569677275,397.929,-176.138,-12.5016,-179.648,2.50488,-144.514,596
1569677275,397.929,-176.138,-12.5016,-179.648,2.50488,-144.514,596
1569677275,398.041,-176.138,-12.5016,-179.626,2.50488,-144.514,596
1569677275,398.041,-176.25,-12.5016,-179.626,2.52686,-144.514,596
1569677275,398.041,-176.25,-12.5016,-179.626,2.52686,-144.514,592
1569677275,398.041,-176.25,-12.5016,-179.626,2.52686,-144.514,592
1569677275,398.041,-176.25,-12.5016,-179.626,2.50488,-144.514,592
1569677275,398.041,-176.25,-12.5016,-179.626,2.50488,-144.514,588
1569677275,398.041,-176.25,-12.5016,-179.626,2.50488,-144.514,588
1569677275,398.041,-176.25,-12.5016,-179.626,2.50488,-144.514,584
1569677275,398.041,-176.138,-12.6132,-179.626,2.50488,-144.514,584
1569677275,398.041,-176.138,-12.6132,-179.626,2.50488,-144.514,584
1569677275,398.041,-176.138,-12.6132,-179.626,2.50488,-144.514,580
1569677275,398.041,-176.138,-12.6132,-179.626,2.50488,-144.514,580
1569677275,398.041,-176.138,-12.6132,-179.626,2.48291,-144.514,576
1569677275,398.041,-176.138,-12.6132,-179.626,2.48291,-144.514,576
1569677275,398.041,-176.25,-12.6132,-179.626,2.48291,-144.514,572
1569677275,398.041,-176.25,-12.6132,-179.626,2.50488,-144.514,572
1569677275,398.041,-176.25,-12.6132,-179.648,2.50488,-144.514,572
1569677275,398.041,-176.25,-12.6132,-179.648,2.50488,-144.514,572
1569677275,398.041,-176.25,-12.6132,-179.648,2.50488,-144.514,568
1569677275,398.041,-176.25,-12.6132,-179.648,2.50488,-144.514,568
1569677275,398.041,-176.25,-12.6132,-179.648,2.50488,-144.514,568
1569677275,398.041,-176.25,-12.6132,-179.648,2.50488,-144.514,564
1569677275,398.041,-176.361,-12.6132,-179.648,2.50488,-144.514,564
1569677275,398.041,-176.361,-12.6132,-179.648,2.50488,-144.514,564
1569677275,398.041,-176.361,-12.6132,-179.67,2.50488,-144.514,564
1569677275,398.041,-176.361,-12.6132,-179.67,2.50488,-144.514,564
1569677275,398.041,-176.361,-12.6132,-179.67,2.50488,-144.514,564
1569677275,398.041,-176.361,-12.6132,-179.67,2.50488,-144.514,564
1569677275,398.041,-176.361,-12.6132,-179.67,2.50488,-144.514,564
1569677275,398.041,-176.361,-12.6132,-179.67,2.50488,-144.514,564
1569677275,398.041,-176.361,-12.6132,-179.692,2.50488,-144.514,564
1569677275,398.041,-176.361,-12.7248,-179.692,2.50488,-144.514,564
1569677275,398.041,-176.473,-12.7248,-179.692,2.50488,-144.514,564
1569677275,398.041,-176.473,-12.7248,-179.692,2.50488,-144.514,564
1569677275,397.929,-176.361,-12.7248,-179.692,2.50488,-144.514,564
1569677275,397.929,-176.473,-12.7248,-179.692,2.50488,-144.514,564
1569677275,397.929,-176.473,-12.7248,-179.692,2.50488,-144.514,564
1569677275,397.929,-176.473,-12.6132,-179.692,2.50488,-144.514,564
1569677275,397.929,-176.473,-12.6132,-179.692,2.50488,-144.514,564
1569677275,398.041,-176.473,-12.6132,-179.692,2.50488,-144.514,564
1569677275,398.041,-176.473,-12.6132,-179.692,2.50488,-144.514,564
1569677275,398.041,-176.473,-12.6132,-179.692,2.52686,-144.514,564
1569677275,398.041,-176.473,-12.6132,-179.692,2.52686,-144.514,564
1569677275,398.041,-176.473,-12.5016,-179.692,2.52686,-144.514,560
1569677275,398.041,-176.473,-12.5016,-179.692,2.52686,-144.514,560
1569677275,398.041,-176.473,-12.5016,-179.692,2.52686,-144.514,560
1569677275,398.041,-176.473,-12.5016,-179.692,2.52686,-144.514,564
1569677275,398.041,-176.473,-12.5016,-179.692,2.52686,-144.514,564
1569677275,398.041,-176.473,-12.5016,-179.692,2.52686,-144.514,564
1569677275,398.041,-176.361,-12.6132,-179.692,2.52686,-144.514,564
1569677275,398.041,-176.361,-12.6132,-179.692,2.52686,-144.514,564
1569677275,398.041,-176.473,-12.6132,-179.692,2.52686,-144.514,564
1569677275,398.041,-176.473,-12.6132,-179.692,2.52686,-144.514,564
1569677275,398.041,-176.473,-12.6132,-179.692,2.52686,-144.514,564
1569677275,398.041,-176.473,-12.6132,-179.692,2.50488,-144.536,564
1569677275,398.041,-176.473,-12.6132,-179.692,2.50488,-144.536,564
1569677275,398.041,-176.473,-12.6132,-179.692,2.50488,-144.536,564
1569677275,398.041,-176.473,-12.7248,-179.692,2.50488,-144.536,564
1569677275,398.041,-176.473,-12.7248,-179.692,2.50488,-144.536,564
1569677275,398.041,-176.473,-12.7248,-179.692,2.48291,-144.514,564
1569677275,398.041,-176.473,-12.6132,-179.692,2.48291,-144.514,564
1569677275,398.041,-176.473,-12.6132,-179.692,2.48291,-144.514,564
1569677275,398.041,-176.361,-12.6132,-179.692,2.48291,-144.514,564
1569677275,398.041,-176.361,-12.6132,-179.692,2.48291,-144.514,568
1569677275,398.041,-176.361,-12.6132,-179.67,2.48291,-144.514,568
1569677275,398.041,-176.361,-12.7248,-179.67,2.48291,-144.514,568
1569677275,398.041,-176.361,-12.7248,-179.67,2.48291,-144.514,568
1569677275,398.041,-176.361,-12.7248,-179.67,2.48291,-144.514,572
1569677275,398.041,-176.361,-12.7248,-179.67,2.48291,-144.514,572
1569677275,398.041,-176.361,-12.7248,-179.67,2.48291,-144.536,572
1569677275,398.041,-176.361,-12.7248,-179.67,2.46094,-144.536,572
1569677275,398.041,-176.361,-12.7248,-179.67,2.46094,-144.536,572
1569677275,398.041,-176.361,-12.7248,-179.67,2.46094,-144.536,572
1569677275,398.041,-176.361,-12.7248,-179.67,2.46094,-144.536,572
1569677275,398.041,-176.361,-12.7248,-179.67,2.46094,-144.536,572
1569677275,398.041,-176.361,-12.7248,-179.692,2.46094,-144.536,572
1569677275,398.041,-176.361,-12.7248,-179.692,2.46094,-144.536,572
1569677275,398.041,-176.361,-12.7248,-179.692,2.46094,-144.536,572
1569677275,398.041,-176.361,-12.7248,-179.692,2.46094,-144.514,572
1569677275,397.929,-176.361,-12.7248,-179.692,2.46094,-144.514,572
1569677275,397.929,-176.361,-12.7248,-179.692,2.46094,-144.514,572
1569677275,397.929,-176.361,-12.7248,-179.692,2.46094,-144.514,576
1569677275,397.929,-176.361,-12.7248,-179.692,2.46094,-144.514,576
1569677275,397.929,-176.361,-12.6132,-179.692,2.48291,-144.514,576
1569677275,397.929,-176.361,-12.6132,-179.67,2.48291,-144.514,576
1569677275,397.929,-176.361,-12.6132,-179.67,2.48291,-144.514,576
1569677275,397.929,-176.361,-12.6132,-179.67,2.48291,-144.514,576
1569677275,397.929,-176.361,-12.6132,-179.67,2.48291,-144.514,576
1569677275,397.929,-176.361,-12.6132,-179.67,2.48291,-144.514,576
1569677275,397.929,-176.361,-12.6132,-179.67,2.48291,-144.514,576
1569677275,397.929,-176.361,-12.6132,-179.67,2.48291,-144.514,576
1569677275,397.929,-176.361,-12.6132,-179.67,2.48291,-144.514,580
1569677275,397.929,-176.361,-12.6132,-179.67,2.48291,-144.514,580
1569677276,397.929,-176.361,-12.7248,-179.67,2.48291,-144.514,580
1569677276,397.929,-176.361,-12.7248,-179.67,2.48291,-144.514,580
1569677276,397.929,-176.361,-12.7248,-179.67,2.48291,-144.514,576
1569677276,397.929,-176.361,-12.7248,-179.67,2.48291,-144.514,576
1569677276,397.929,-176.361,-12.6132,-179.67,2.48291,-144.514,576
1569677276,397.929,-176.361,-12.6132,-179.67,2.48291,-144.514,580
1569677276,397.929,-176.361,-12.6132,-179.67,2.48291,-144.514,580
1569677276,397.929,-176.361,-12.6132,-179.67,2.48291,-144.514,580
1569677276,397.929,-176.361,-12.6132,-179.67,2.48291,-144.514,580
1569677276,397.929,-176.25,-12.6132,-179.67,2.48291,-144.514,580
1569677276,397.929,-176.25,-12.6132,-179.67,2.48291,-144.514,580
1569677276,397.929,-176.25,-12.6132,-179.67,2.48291,-144.514,584
1569677276,397.929,-176.25,-12.6132,-179.67,2.48291,-144.514,584
1569677276,397.929,-176.25,-12.6132,-179.67,2.48291,-144.514,584
1569677276,397.929,-176.25,-12.6132,-179.648,2.48291,-144.514,584
1569677276,397.929,-176.25,-12.7248,-179.648,2.48291,-144.514,588
1569677276,397.929,-176.25,-12.7248,-179.648,2.46094,-144.514,588
1569677276,397.929,-176.25,-12.7248,-179.648,2.46094,-144.536,588
1569677276,398.041,-176.25,-12.7248,-179.648,2.46094,-144.536,588
1569677276,398.041,-176.25,-12.7248,-179.648,2.46094,-144.536,588
1569677276,398.041,-176.25,-12.8364,-179.648,2.46094,-144.536,588
1569677276,398.041,-176.25,-12.8364,-179.648,2.43896,-144.536,588
1569677276,398.041,-176.25,-12.8364,-179.648,2.43896,-144.536,588
1569677276,398.041,-176.25,-12.8364,-179.648,2.43896,-144.536,588
1569677276,398.041,-176.25,-12.8364,-179.648,2.43896,-144.536,588
1569677276,398.041,-176.25,-12.8364,-179.648,2.43896,-144.536,588
1569677276,398.041,-176.25,-12.8364,-179.648,2.43896,-144.536,584
1569677276,398.041,-176.25,-12.8364,-179.648,2.43896,-144.536,584
1569677276,398.041,-176.25,-12.8364,-179.648,2.43896,-144.558,584
1569677276,398.152,-176.25,-12.8364,-179.648,2.43896,-144.558,584
1569677276,398.152,-176.25,-12.8364,-179.648,2.43896,-144.558,584
1569677276,398.152,-176.25,-12.8364,-179.648,2.43896,-144.558,584
1569677276,398.152,-176.25,-12.8364,-179.648,2.43896,-144.558,580
1569677276,398.152,-176.25,-12.8364,-179.648,2.43896,-144.558,580
1569677276,398.152,-176.25,-12.8364,-179.648,2.43896,-144.558,580
1569677276,398.152,-176.25,-12.8364,-179.648,2.43896,-144.558,580
1569677276,398.152,-176.25,-12.8364,-179.648,2.41699,-144.558,580
1569677276,398.152,-176.25,-12.8364,-179.648,2.43896,-144.558,580
1569677276,398.041,-176.25,-12.8364,-179.648,2.43896,-144.558,580
1569677276,398.041,-176.25,-12.8364,-179.648,2.43896,-144.558,580
1569677276,398.041,-176.25,-12.8364,-179.648,2.43896,-144.558,580
1569677276,398.041,-176.25,-12.8364,-179.67,2.41699,-144.558,580
1569677276,398.041,-176.25,-12.8364,-179.67,2.41699,-144.558,580
1569677276,398.041,-176.25,-12.8364,-179.67,2.41699,-144.536,580
1569677276,398.041,-176.25,-12.8364,-179.67,2.41699,-144.536,580
1569677276,398.041,-176.25,-12.8364,-179.67,2.41699,-144.536,580
1569677276,398.041,-176.25,-12.8364,-179.67,2.41699,-144.536,576
1569677276,398.041,-176.25,-12.8364,-179.67,2.41699,-144.536,576
1569677276,398.041,-176.25,-12.8364,-179.67,2.41699,-144.536,576
1569677276,398.041,-176.25,-12.8364,-179.67,2.41699,-144.536,576
1569677276,398.041,-176.25,-12.8364,-179.67,2.41699,-144.514,576
1569677276,398.041,-176.25,-12.8364,-179.648,2.41699,-144.514,576
1569677276,398.041,-176.25,-12.7248,-179.648,2.43896,-144.514,576
1569677276,398.041,-176.25,-12.7248,-179.648,2.43896,-144.514,576
1569677276,398.041,-176.25,-12.7248,-179.648,2.43896,-144.514,576
1569677276,398.041,-176.25,-12.7248,-179.648,2.43896,-144.514,576
1569677276,398.041,-176.25,-12.7248,-179.648,2.43896,-144.514,572
1569677276,398.041,-176.25,-12.7248,-179.648,2.43896,-144.514,572
1569677276,398.041,-176.25,-12.7248,-179.67,2.46094,-144.514,572
1569677276,398.041,-176.361,-12.7248,-179.67,2.46094,-144.514,572
1569677276,398.041,-176.361,-12.7248,-179.67,2.46094,-144.514,572
1569677276,398.041,-176.361,-12.7248,-179.67,2.46094,-144.514,568
1569677276,398.041,-176.361,-12.7248,-179.67,2.46094,-144.514,568
1569677276,398.041,-176.361,-12.6132,-179.67,2.46094,-144.514,568
1569677276,398.041,-176.361,-12.6132,-179.67,2.48291,-144.514,568
1569677276,398.041,-176.361,-12.6132,-179.67,2.48291,-144.514,568
1569677276,398.041,-176.361,-12.6132,-179.67,2.48291,-144.514,568
1569677276,398.041,-176.361,-12.6132,-179.67,2.48291,-144.514,568
1569677276,398.041,-176.361,-12.6132,-179.67,2.48291,-144.514,568
1569677276,398.041,-176.361,-12.6132,-179.67,2.48291,-144.514,568
1569677276,398.041,-176.361,-12.6132,-179.67,2.48291,-144.514,568
1569677276,398.041,-176.361,-12.6132,-179.67,2.48291,-144.514,568
1569677276,398.041,-176.361,-12.6132,-179.67,2.48291,-144.514,568
1569677276,398.041,-176.361,-12.6132,-179.67,2.48291,-144.514,572
1569677276,398.041,-176.25,-12.6132,-179.67,2.48291,-144.514,572
1569677276,398.041,-176.25,-12.6132,-179.648,2.48291,-144.514,572
1569677276,398.041,-176.25,-12.6132,-179.648,2.48291,-144.514,572
1569677276,398.041,-176.25,-12.6132,-179.648,2.48291,-144.514,572
1569677276,398.041,-176.25,-12.6132,-179.626,2.48291,-144.514,572
1569677276,398.041,-176.25,-12.6132,-179.626,2.48291,-144.514,572
1569677276,398.041,-176.25,-12.6132,-179.626,2.50488,-144.514,572
1569677276,398.041,-176.25,-12.6132,-179.626,2.50488,-144.514,572
1569677276,398.041,-176.25,-12.6132,-179.626,2.50488,-144.514,572
1569677276,398.041,-176.25,-12.6132,-179.626,2.50488,-144.514,576
1569677276,398.041,-176.25,-12.5016,-179.648,2.50488,-144.514,576
1569677276,398.041,-176.25,-12.5016,-179.648,2.50488,-144.514,576
1569677276,398.041,-176.25,-12.5016,-179.648,2.50488,-144.514,580
1569677276,398.041,-176.25,-12.5016,-179.648,2.50488,-144.514,580
1569677276,397.929,-176.25,-12.5016,-179.648,2.50488,-144.514,580
1569677276,397.929,-176.25,-12.5016,-179.67,2.50488,-144.514,584
1569677276,397.929,-176.25,-12.5016,-179.67,2.50488,-144.514,584
1569677276,397.929,-176.25,-12.5016,-179.67,2.50488,-144.514,588
1569677276,397.929,-176.25,-12.5016,-179.67,2.50488,-144.514,588
1569677276,397.929,-176.25,-12.5016,-179.67,2.50488,-144.514,592
1569677276,397.929,-176.25,-12.5016,-179.67,2.50488,-144.514,592
1569677276,397.929,-176.25,-12.5016,-179.67,2.50488,-144.514,596
1569677276,397.929,-176.25,-12.5016,-179.67,2.50488,-144.514,596
1569677276,397.929,-176.25,-12.5016,-179.67,2.50488,-144.514,596
1569677276,397.929,-176.25,-12.5016,-179.67,2.50488,-144.514,600
1569677276,397.818,-176.25,-12.5016,-179.67,2.50488,-144.514,600
1569677277,397.818,-176.361,-12.6132,-179.67,2.50488,-144.514,600
1569677277,397.818,-176.361,-12.6132,-179.67,2.50488,-144.514,600
1569677277,397.818,-176.361,-12.6132,-179.67,2.50488,-144.514,600
1569677277,397.818,-176.361,-12.6132,-179.67,2.50488,-144.514,600
1569677277,397.818,-176.361,-12.6132,-179.67,2.50488,-144.514,600
1569677277,397.818,-176.361,-12.6132,-179.67,2.50488,-144.514,600
1569677277,397.818,-176.361,-12.6132,-179.67,2.50488,-144.514,600
1569677277,397.818,-176.361,-12.6132,-179.692,2.50488,-144.514,600
1569677277,397.818,-176.361,-12.6132,-179.692,2.50488,-144.514,596
1569677277,397.818,-176.361,-12.6132,-179.692,2.50488,-144.514,596
1569677277,397.818,-176.361,-12.6132,-179.692,2.48291,-144.514,596
1569677277,397.818,-176.473,-12.6132,-179.692,2.48291,-144.514,592
1569677277,397.818,-176.473,-12.6132,-179.692,2.50488,-144.514,592
1569677277,397.818,-176.473,-12.5016,-179.692,2.50488,-144.492,592
1569677277,397.818,-176.473,-12.5016,-179.692,2.50488,-144.492,588
1569677277,397.818,-176.473,-12.5016,-179.692,2.50488,-144.492,588
1569677277,397.818,-176.473,-12.5016,-179.692,2.50488,-144.492,588
1569677277,397.818,-176.473,-12.5016,-179.692,2.50488,-144.492,588
1569677277,397.818,-176.361,-12.6132,-179.692,2.50488,-144.492,588
1569677277,397.818,-176.473,-12.6132,-179.692,2.50488,-144.492,588
1569677277,397.818,-176.473,-12.6132,-179.692,2.50488,-144.492,588
1569677277,397.818,-176.473,-12.6132,-179.714,2.50488,-144.492,588
1569677277,397.818,-176.473,-12.6132,-179.714,2.50488,-144.492,588
1569677277,397.818,-176.473,-12.6132,-179.714,2.50488,-144.492,588
1569677277,397.818,-176.473,-12.6132,-179.714,2.50488,-144.492,588
1569677277,397.818,-176.473,-12.6132,-179.714,2.50488,-144.492,588
1569677277,397.818,-176.473,-12.6132,-179.736,2.50488,-144.492,588
1569677277,397.818,-176.473,-12.6132,-179.736,2.50488,-144.492,588
1569677277,397.818,-176.473,-12.6132,-179.736,2.50488,-144.492,588
1569677277,397.818,-176.473,-12.6132,-179.736,2.50488,-144.492,592
1569677277,397.818,-176.473,-12.5016,-179.736,2.52686,-144.492,592
1569677277,397.818,-176.473,-12.5016,-179.736,2.52686,-144.492,592
1569677277,397.818,-176.473,-12.5016,-179.736,2.52686,-144.514,592
1569677277,397.818,-176.361,-12.5016,-179.736,2.52686,-144.514,596
1569677277,397.818,-176.361,-12.5016,-179.714,2.52686,-144.514,596
1569677277,397.818,-176.361,-12.5016,-179.714,2.52686,-144.514,596
1569677277,397.818,-176.361,-12.6132,-179.714,2.52686,-144.514,596
1569677277,397.818,-176.361,-12.6132,-179.714,2.52686,-144.514,596
1569677277,397.818,-176.361,-12.6132,-179.714,2.52686,-144.514,596
1569677277,397.818,-176.361,-12.6132,-179.714,2.52686,-144.514,596
1569677277,397.818,-176.361,-12.6132,-179.714,2.52686,-144.514,592
1569677277,397.818,-176.361,-12.6132,-179.714,2.50488,-144.514,592
1569677277,397.818,-176.361,-12.6132,-179.714,2.50488,-144.514,592
1569677277,397.818,-176.361,-12.6132,-179.714,2.50488,-144.492,592
1569677277,397.818,-176.361,-12.6132,-179.714,2.50488,-144.492,592
1569677277,397.818,-176.361,-12.6132,-179.714,2.50488,-144.492,592
1569677277,397.818,-176.361,-12.6132,-179.714,2.50488,-144.492,592
1569677277,397.818,-176.361,-12.6132,-179.736,2.50488,-144.492,592
1569677277,397.818,-176.473,-12.6132,-179.736,2.50488,-144.492,588
1569677277,397.818,-176.473,-12.6132,-179.736,2.50488,-144.492,588
1569677277,397.818,-176.473,-12.6132,-179.736,2.50488,-144.492,588
1569677277,397.818,-176.473,-12.6132,-179.736,2.50488,-144.492,588
1569677277,397.818,-176.473,-12.6132,-179.736,2.50488,-144.492,588
1569677277,397.818,-176.473,-12.6132,-179.736,2.50488,-144.492,588
1569677277,397.818,-176.473,-12.6132,-179.736,2.50488,-144.492,588
1569677277,397.818,-176.473,-12.6132,-179.736,2.50488,-144.492,588
1569677277,397.818,-176.473,-12.6132,-179.736,2.50488,-144.492,588
1569677277,397.818,-176.473,-12.6132,-179.736,2.50488,-144.492,588
1569677277,397.818,-176.473,-12.7248,-179.736,2.50488,-144.514,588
1569677277,397.818,-176.473,-12.7248,-179.736,2.48291,-144.514,588
1569677277,397.818,-176.473,-12.7248,-179.736,2.48291,-144.514,588
1569677277,397.818,-176.473,-12.7248,-179.736,2.48291,-144.514,588
1569677277,397.818,-176.473,-12.7248,-179.736,2.48291,-144.514,588
1569677277,397.818,-176.473,-12.7248,-179.736,2.48291,-144.514,588
1569677277,397.818,-176.473,-12.7248,-179.736,2.48291,-144.514,588
1569677277,397.818,-176.473,-12.7248,-179.736,2.48291,-144.514,588
1569677277,397.818,-176.473,-12.7248,-179.736,2.48291,-144.514,584
1569677277,397.818,-176.473,-12.7248,-179.736,2.48291,-144.514,584
1569677277,397.818,-176.473,-12.7248,-179.736,2.48291,-144.514,584
1569677277,397.818,-176.473,-12.7248,-179.736,2.48291,-144.514,584
1569677277,397.818,-176.473,-12.7248,-179.736,2.48291,-144.514,584
1569677277,397.818,-176.473,-12.7248,-179.736,2.48291,-144.514,584
1569677277,397.929,-176.473,-12.7248,-179.736,2.46094,-144.514,584
1569677277,397.929,-176.473,-12.7248,-179.714,2.46094,-144.514,584
1569677277,397.929,-176.473,-12.7248,-179.714,2.46094,-144.514,584
1569677277,397.929,-176.473,-12.7248,-179.714,2.46094,-144.514,584
1569677277,397.929,-176.361,-12.7248,-179.692,2.46094,-144.514,584
1569677277,397.929,-176.361,-12.7248,-179.692,2.46094,-144.514,584
1569677277,397.929,-176.361,-12.6132,-179.692,2.46094,-144.514,584
1569677277,397.929,-176.361,-12.6132,-179.692,2.48291,-144.514,584
1569677277,397.929,-176.361,-12.6132,-179.692,2.48291,-144.492,580
1569677277,398.041,-176.361,-12.6132,-179.67,2.48291,-144.492,580
1569677277,398.041,-176.361,-12.6132,-179.67,2.48291,-144.492,580
1569677277,398.041,-176.361,-12.6132,-179.67,2.46094,-144.492,576
1569677277,398.041,-176.361,-12.6132,-179.67,2.46094,-144.514,576
1569677277,398.041,-176.361,-12.6132,-179.67,2.48291,-144.514,576
1569677277,398.041,-176.361,-12.6132,-179.67,2.48291,-144.514,576
1569677277,398.041,-176.361,-12.6132,-179.67,2.48291,-144.514,572
1569677277,397.929,-176.361,-12.6132,-179.67,2.48291,-144.514,572
1569677277,397.929,-176.361,-12.6132,-179.67,2.48291,-144.514,572
1569677277,397.929,-176.361,-12.6132,-179.67,2.48291,-144.514,572
1569677277,397.929,-176.361,-12.6132,-179.67,2.48291,-144.514,572
1569677277,397.929,-176.361,-12.6132,-179.67,2.48291,-144.514,572
1569677277,397.929,-176.361,-12.6132,-179.67,2.48291,-144.514,572
1569677277,397.929,-176.361,-12.6132,-179.67,2.48291,-144.514,572
1569677277,397.929,-176.361,-12.6132,-179.67,2.48291,-144.514,572
1569677277,398.041,-176.361,-12.6132,-179.67,2.48291,-144.514,572
1569677277,398.041,-176.361,-12.6132,-179.67,2.48291,-144.514,568
1569677277,398.041,-176.361,-12.6132,-179.67,2.48291,-144.514,568
1569677277,398.041,-176.361,-12.6132,-179.67,2.48291,-144.514,568
1569677278,398.041,-176.361,-12.6132,-179.67,2.48291,-144.514,568
1569677278,398.041,-176.361,-12.6132,-179.67,2.48291,-144.514,568
1569677278,398.041,-176.361,-12.6132,-179.67,2.50488,-144.514,568
1569677278,397.929,-176.361,-12.6132,-179.67,2.50488,-144.514,568
1569677278,397.929,-176.361,-12.6132,-179.67,2.50488,-144.514,568
1569677278,397.929,-176.361,-12.6132,-179.648,2.50488,-144.514,568
1569677278,397.929,-176.25,-12.6132,-179.648,2.50488,-144.514,568
1569677278,397.929,-176.25,-12.6132,-179.648,2.50488,-144.514,568
1569677278,397.929,-176.25,-12.6132,-179.648,2.50488,-144.514,568
1569677278,397.929,-176.25,-12.6132,-179.648,2.50488,-144.514,568
1569677278,397.929,-176.25,-12.6132,-179.648,2.50488,-144.514,568
1569677278,397.929,-176.25,-12.6132,-179.648,2.50488,-144.514,568
1569677278,397.929,-176.25,-12.6132,-179.648,2.50488,-144.514,568
1569677278,397.929,-176.25,-12.6132,-179.648,2.52686,-144.514,568
1569677278,397.929,-176.25,-12.6132,-179.648,2.52686,-144.514,568
1569677278,397.929,-176.25,-12.6132,-179.648,2.52686,-144.514,568
1569677278,397.929,-176.25,-12.6132,-179.648,2.52686,-144.514,568
1569677278,397.929,-176.25,-12.6132,-179.648,2.52686,-144.514,568
1569677278,397.929,-176.25,-12.6132,-179.648,2.50488,-144.514,568
1569677278,397.929,-176.25,-12.6132,-179.648,2.50488,-144.514,568
1569677278,397.929,-176.25,-12.6132,-179.648,2.50488,-144.514,568
1569677278,397.929,-176.25,-12.6132,-179.648,2.50488,-144.514,568
1569677278,397.929,-176.25,-12.6132,-179.648,2.50488,-144.514,568
1569677278,397.929,-176.25,-12.6132,-179.626,2.50488,-144.514,572
1569677278,397.929,-176.138,-12.6132,-179.626,2.50488,-144.514,572
1569677278,397.929,-176.138,-12.6132,-179.626,2.50488,-144.514,572
1569677278,397.929,-176.138,-12.6132,-179.626,2.50488,-144.514,572
1569677278,397.929,-176.138,-12.6132,-179.626,2.50488,-144.514,572
1569677278,397.929,-176.138,-12.6132,-179.648,2.50488,-144.536,572
1569677278,397.929,-176.138,-12.6132,-179.648,2.50488,-144.536,576
1569677278,397.818,-176.138,-12.6132,-179.648,2.50488,-144.536,576
1569677278,397.818,-176.138,-12.6132,-179.648,2.50488,-144.536,576
1569677278,397.818,-176.138,-12.6132,-179.626,2.50488,-144.536,576
1569677278,397.818,-176.138,-12.7248,-179.626,2.50488,-144.536,580
1569677278,397.818,-176.138,-12.7248,-179.626,2.48291,-144.536,580
1569677278,397.818,-176.138,-12.7248,-179.626,2.48291,-144.536,580
1569677278,397.818,-176.138,-12.7248,-179.626,2.48291,-144.536,584
1569677278,397.818,-176.138,-12.7248,-179.626,2.48291,-144.536,584
1569677278,397.818,-176.138,-12.6132,-179.626,2.48291,-144.536,588
1569677278,397.818,-176.138,-12.6132,-179.626,2.50488,-144.536,588
1569677278,397.818,-176.138,-12.6132,-179.626,2.50488,-144.514,592
1569677278,397.818,-176.138,-12.6132,-179.626,2.50488,-144.514,592
1569677278,397.818,-176.138,-12.6132,-179.626,2.50488,-144.514,596
1569677278,397.818,-176.25,-12.6132,-179.648,2.50488,-144.514,600
1569677278,397.818,-176.25,-12.6132,-179.648,2.50488,-144.514,600
1569677278,397.818,-176.25,-12.6132,-179.648,2.50488,-144.514,604
1569677278,397.818,-176.25,-12.5016,-179.648,2.50488,-144.514,608
1569677278,397.818,-176.25,-12.5016,-179.648,2.50488,-144.514,608
1569677278,397.818,-176.25,-12.5016,-179.648,2.50488,-144.514,612
1569677278,397.818,-176.25,-12.5016,-179.648,2.50488,-144.514,612
1569677278,397.818,-176.25,-12.5016,-179.648,2.50488,-144.492,616
1569677278,397.818,-176.25,-12.5016,-179.648,2.50488,-144.492,616
1569677278,397.929,-176.25,-12.5016,-179.648,2.50488,-144.514,620
1569677278,397.929,-176.25,-12.5016,-179.648,2.52686,-144.492,620
1569677278,397.929,-176.25,-12.5016,-179.626,2.52686,-144.492,620
1569677278,397.929,-176.138,-12.5016,-179.626,2.52686,-144.492,624
1569677278,397.929,-176.138,-12.5016,-179.626,2.52686,-144.492,624
1569677278,397.929,-176.138,-12.5016,-179.626,2.52686,-144.492,624
1569677278,397.929,-176.138,-12.5016,-179.604,2.52686,-144.492,624
1569677278,397.929,-176.138,-12.5016,-179.604,2.52686,-144.492,624
1569677278,397.929,-176.138,-12.5016,-179.604,2.52686,-144.492,624
1569677278,397.929,-176.138,-12.5016,-179.604,2.52686,-144.492,624
1569677278,397.929,-176.138,-12.5016,-179.604,2.52686,-144.492,620
1569677278,398.041,-176.138,-12.5016,-179.604,2.52686,-144.492,620
1569677278,398.041,-176.138,-12.5016,-179.604,2.52686,-144.492,620
1569677278,398.041,-176.138,-12.5016,-179.604,2.52686,-144.492,616
1569677278,398.041,-176.138,-12.5016,-179.604,2.52686,-144.514,616
1569677278,398.041,-176.138,-12.3899,-179.604,2.54883,-144.514,616
1569677278,398.041,-176.25,-12.3899,-179.626,2.54883,-144.514,616
1569677278,397.929,-176.25,-12.3899,-179.626,2.54883,-144.514,616
1569677278,397.929,-176.25,-12.3899,-179.626,2.54883,-144.514,616
1569677278,397.929,-176.25,-12.3899,-179.648,2.54883,-144.514,616
1569677278,397.929,-176.25,-12.3899,-179.648,2.54883,-144.514,616
1569677278,397.929,-176.25,-12.3899,-179.648,2.5708,-144.514,616
1569677278,397.929,-176.361,-12.3899,-179.648,2.5708,-144.514,616
1569677278,397.929,-176.361,-12.2783,-179.648,2.5708,-144.492,616
1569677278,397.929,-176.361,-12.2783,-179.67,2.5708,-144.492,616
1569677278,397.929,-176.361,-12.3899,-179.67,2.54883,-144.492,616
1569677278,397.929,-176.361,-12.3899,-179.67,2.54883,-144.492,616
1569677278,397.929,-176.361,-12.3899,-179.67,2.54883,-144.492,616
1569677278,397.929,-176.361,-12.3899,-179.67,2.54883,-144.492,616
1569677278,397.929,-176.25,-12.3899,-179.67,2.54883,-144.492,616
1569677278,397.929,-176.25,-12.3899,-179.67,2.54883,-144.492,616
1569677278,397.929,-176.25,-12.3899,-179.67,2.54883,-144.492,616
1569677278,397.929,-176.25,-12.3899,-179.67,2.54883,-144.492,616
1569677278,397.929,-176.25,-12.3899,-179.67,2.54883,-144.492,616
1569677278,397.929,-176.25,-12.3899,-179.648,2.54883,-144.492,616
1569677278,397.929,-176.25,-12.3899,-179.648,2.54883,-144.492,616
1569677278,397.929,-176.25,-12.3899,-179.648,2.54883,-144.492,616
1569677278,398.041,-176.25,-12.3899,-179.648,2.52686,-144.514,620
1569677278,398.041,-176.25,-12.3899,-179.648,2.52686,-144.514,620
1569677278,398.041,-176.25,-12.3899,-179.648,2.52686,-144.514,620
1569677278,398.041,-176.25,-12.3899,-179.648,2.52686,-144.514,620
1569677278,398.041,-176.25,-12.5016,-179.648,2.52686,-144.514,620
1569677278,398.041,-176.25,-12.5016,-179.648,2.52686,-144.514,620
1569677278,398.041,-176.25,-12.5016,-179.67,2.52686,-144.514,620
1569677278,398.041,-176.25,-12.5016,-179.67,2.52686,-144.514,620
1569677278,398.041,-176.25,-12.5016,-179.67,2.52686,-144.514,620
1569677278,398.041,-176.25,-12.5016,-179.67,2.52686,-144.514,616
1569677278,398.041,-176.25,-12.5016,-179.67,2.52686,-144.514,616
1569677279,398.041,-176.25,-12.5016,-179.67,2.52686,-144.514,616
1569677279,398.041,-176.25,-12.5016,-179.67,2.50488,-144.514,612
1569677279,398.041,-176.25,-12.5016,-179.67,2.50488,-144.514,612
1569677283,382.637,-160.065,-12.6132,-179.736,2.70264,-144.8,568
1569677283,382.637,-160.065,-12.6132,-179.736,2.70264,-144.8,568
1569677283,382.637,-160.065,-12.6132,-179.714,2.70264,-144.8,568
1569677283,382.637,-160.065,-12.6132,-179.714,2.70264,-144.8,568
1569677283,382.637,-160.065,-12.6132,-179.714,2.70264,-144.822,564
1569677283,382.637,-160.065,-12.6132,-179.714,2.70264,-144.822,564
1569677283,382.637,-160.065,-12.6132,-179.714,2.70264,-144.822,564
1569677283,382.637,-160.065,-12.6132,-179.714,2.70264,-144.822,564
1569677283,382.637,-160.065,-12.6132,-179.714,2.70264,-144.822,560
1569677283,382.637,-160.065,-12.6132,-179.714,2.70264,-144.822,560
1569677283,382.637,-160.065,-12.6132,-179.714,2.70264,-144.822,560
1569677283,382.637,-160.065,-12.6132,-179.714,2.70264,-144.822,556
1569677283,382.637,-160.065,-12.6132,-179.714,2.70264,-144.822,556
1569677283,382.637,-160.065,-12.6132,-179.714,2.70264,-144.822,556
1569677283,382.637,-160.065,-12.6132,-179.714,2.70264,-144.822,556
1569677283,382.637,-160.065,-12.6132,-179.714,2.70264,-144.844,552
1569677283,382.637,-160.065,-12.6132,-179.714,2.70264,-144.844,552
1569677283,382.637,-160.176,-12.6132,-179.736,2.70264,-144.844,552
1569677283,382.637,-160.176,-12.6132,-179.736,2.70264,-144.844,552
1569677283,382.637,-160.176,-12.6132,-179.736,2.70264,-144.844,552
1569677283,382.637,-160.176,-12.6132,-179.736,2.70264,-144.844,552
1569677283,382.637,-160.176,-12.6132,-179.736,2.70264,-144.844,552
1569677283,382.637,-160.176,-12.5016,-179.758,2.70264,-144.844,552
1569677283,382.637,-160.176,-12.5016,-179.758,2.70264,-144.844,552
1569677283,382.637,-160.176,-12.5016,-179.758,2.70264,-144.844,552
1569677283,382.637,-160.176,-12.5016,-179.758,2.70264,-144.844,552
1569677283,382.637,-160.176,-12.5016,-179.758,2.70264,-144.844,552
1569677283,382.637,-160.176,-12.5016,-179.736,2.70264,-144.844,552
1569677283,382.637,-160.176,-12.5016,-179.736,2.70264,-144.844,552
1569677283,382.637,-160.176,-12.5016,-179.736,2.70264,-144.844,552
1569677283,382.637,-160.176,-12.5016,-179.736,2.70264,-144.844,552
1569677283,382.637,-160.176,-12.5016,-179.736,2.70264,-144.844,552
1569677283,382.637,-160.176,-12.5016,-179.736,2.70264,-144.822,552
1569677283,382.637,-160.065,-12.5016,-179.736,2.70264,-144.822,552
1569677283,382.637,-160.065,-12.5016,-179.714,2.70264,-144.822,552
1569677283,382.637,-160.065,-12.5016,-179.714,2.70264,-144.822,548
1569677283,382.637,-160.065,-12.5016,-179.714,2.70264,-144.822,548
1569677283,382.637,-160.065,-12.5016,-179.714,2.70264,-144.822,548
1569677283,382.637,-160.065,-12.5016,-179.736,2.70264,-144.822,548
1569677283,382.637,-160.176,-12.5016,-179.736,2.70264,-144.844,548
1569677283,382.637,-160.176,-12.5016,-179.736,2.70264,-144.844,544
1569677283,382.637,-160.176,-12.5016,-179.736,2.70264,-144.844,544
1569677283,382.637,-160.176,-12.5016,-179.736,2.70264,-144.844,544
1569677283,382.637,-160.176,-12.5016,-179.736,2.70264,-144.844,544
1569677283,382.749,-160.176,-12.5016,-179.736,2.70264,-144.844,544
1569677283,382.749,-160.176,-12.6132,-179.736,2.70264,-144.844,544
1569677283,382.749,-160.176,-12.6132,-179.736,2.70264,-144.844,544
1569677283,382.749,-160.176,-12.6132,-179.736,2.70264,-144.844,544
1569677283,382.749,-160.176,-12.6132,-179.736,2.70264,-144.844,544
1569677283,382.749,-160.176,-12.6132,-179.736,2.70264,-144.844,544
1569677283,382.749,-160.176,-12.6132,-179.736,2.70264,-144.822,540
1569677283,382.749,-160.176,-12.6132,-179.736,2.70264,-144.822,540
1569677283,382.749,-160.176,-12.6132,-179.736,2.70264,-144.822,540
1569677283,382.749,-160.176,-12.6132,-179.736,2.70264,-144.822,540
1569677283,382.749,-160.176,-12.6132,-179.736,2.70264,-144.822,536
1569677283,382.749,-160.176,-12.6132,-179.736,2.70264,-144.822,536
1569677283,382.749,-160.176,-12.6132,-179.736,2.70264,-144.822,536
1569677283,382.749,-160.176,-12.6132,-179.736,2.70264,-144.822,536
1569677283,382.749,-160.176,-12.6132,-179.736,2.70264,-144.822,536
1569677283,382.749,-160.176,-12.6132,-179.736,2.70264,-144.822,532
1569677283,382.749,-160.176,-12.6132,-179.736,2.68066,-144.822,532
1569677283,382.749,-160.288,-12.6132,-179.736,2.68066,-144.822,532
1569677283,382.749,-160.288,-12.6132,-179.736,2.68066,-144.8,532
1569677283,382.749,-160.288,-12.6132,-179.758,2.68066,-144.8,532
1569677283,382.749,-160.288,-12.6132,-179.758,2.68066,-144.8,532
1569677283,382.749,-160.288,-12.6132,-179.758,2.68066,-144.8,532
1569677283,382.749,-160.288,-12.6132,-179.758,2.68066,-144.8,532
1569677283,382.749,-160.288,-12.6132,-179.758,2.68066,-144.8,532
1569677283,382.749,-160.288,-12.6132,-179.758,2.68066,-144.8,532
1569677283,382.749,-160.288,-12.6132,-179.758,2.68066,-144.8,532
1569677283,382.749,-160.288,-12.6132,-179.758,2.70264,-144.8,532
1569677283,382.749,-160.288,-12.5016,-179.758,2.70264,-144.8,532
1569677283,382.749,-160.288,-12.5016,-179.758,2.70264,-144.8,532
1569677283,382.749,-160.288,-12.5016,-179.758,2.70264,-144.8,536
1569677283,382.749,-160.288,-12.5016,-179.758,2.70264,-144.8,536
1569677283,382.749,-160.288,-12.5016,-179.758,2.70264,-144.778,536
1569677283,382.749,-160.288,-12.5016,-179.758,2.70264,-144.778,536
1569677283,382.637,-160.288,-12.5016,-179.78,2.70264,-144.778,536
1569677283,382.637,-160.288,-12.5016,-179.78,2.70264,-144.778,536
1569677283,382.637,-160.288,-12.5016,-179.78,2.70264,-144.778,540
1569677283,382.637,-160.288,-12.5016,-179.78,2.70264,-144.778,540
1569677283,382.637,-160.288,-12.5016,-179.78,2.70264,-144.778,540
1569677284,382.637,-160.288,-12.5016,-179.78,2.70264,-144.778,540
1569677284,382.637,-160.288,-12.5016,-179.78,2.70264,-144.778,540
1569677284,382.637,-160.288,-12.5016,-179.78,2.70264,-144.778,540
1569677284,382.637,-160.288,-12.5016,-179.78,2.70264,-144.8,540
1569677284,382.637,-160.288,-12.5016,-179.78,2.70264,-144.8,540
1569677284,382.637,-160.4,-12.5016,-179.78,2.70264,-144.8,540
1569677284,382.637,-160.4,-12.5016,-179.78,2.70264,-144.8,540
1569677284,382.637,-160.4,-12.5016,-179.78,2.70264,-144.8,540
1569677284,382.637,-160.4,-12.5016,-179.78,2.70264,-144.8,540
1569677284,382.637,-160.4,-12.5016,-179.78,2.70264,-144.8,540
1569677284,382.637,-160.4,-12.5016,-179.78,2.70264,-144.822,540
1569677284,382.637,-160.4,-12.5016,-179.78,2.70264,-144.822,540
1569677284,382.637,-160.4,-12.5016,-179.78,2.70264,-144.822,544
1569677284,382.637,-160.4,-12.5016,-179.78,2.70264,-144.822,544
1569677284,382.637,-160.4,-12.5016,-179.78,2.70264,-144.822,544
1569677284,382.637,-160.4,-12.5016,-179.78,2.70264,-144.822,548
1569677284,382.637,-160.4,-12.5016,-179.78,2.70264,-144.822,548
1569677284,382.637,-160.4,-12.5016,-179.78,2.70264,-144.822,548
1569677284,382.637,-160.4,-12.5016,-179.78,2.70264,-144.822,552
1569677284,382.637,-160.288,-12.5016,-179.78,2.70264,-144.822,552
1569677284,382.749,-160.4,-12.5016,-179.78,2.70264,-144.822,552
1569677284,382.749,-160.4,-12.5016,-179.78,2.72461,-144.822,552
1569677284,382.749,-160.288,-12.5016,-179.78,2.72461,-144.822,556
1569677284,382.749,-160.4,-12.3899,-179.78,2.72461,-144.822,556
1569677284,382.749,-160.4,-12.3899,-179.78,2.72461,-144.822,556
1569677284,382.749,-160.4,-12.3899,-179.758,2.72461,-144.822,556
1569677284,382.749,-160.4,-12.3899,-179.758,2.72461,-144.822,556
1569677284,382.749,-160.4,-12.3899,-179.758,2.72461,-144.822,556
1569677284,382.749,-160.4,-12.3899,-179.758,2.72461,-144.8,556
1569677284,382.749,-160.288,-12.3899,-179.758,2.72461,-144.8,556
1569677284,382.749,-160.288,-12.3899,-179.758,2.72461,-144.8,560
1569677284,382.749,-160.288,-12.5016,-179.758,2.72461,-144.8,560
1569677284,382.749,-160.288,-12.5016,-179.758,2.72461,-144.822,560
1569677284,382.749,-160.288,-12.5016,-179.758,2.70264,-144.822,560
1569677284,382.749,-160.288,-12.5016,-179.758,2.70264,-144.822,560
1569677284,382.749,-160.288,-12.5016,-179.758,2.70264,-144.822,560
1569677284,382.749,-160.288,-12.5016,-179.758,2.70264,-144.822,560
1569677284,382.749,-160.288,-12.5016,-179.758,2.70264,-144.822,560
1569677284,382.749,-160.288,-12.5016,-179.758,2.70264,-144.822,560
1569677284,382.637,-160.288,-12.5016,-179.758,2.70264,-144.822,560
1569677284,382.637,-160.288,-12.5016,-179.758,2.70264,-144.822,560
1569677284,382.637,-160.288,-12.5016,-179.758,2.70264,-144.822,560
1569677284,382.637,-160.288,-12.5016,-179.736,2.70264,-144.822,560
1569677284,382.637,-160.288,-12.5016,-179.736,2.68066,-144.822,560
1569677284,382.637,-160.288,-12.5016,-179.758,2.68066,-144.822,560
1569677284,382.637,-160.288,-12.5016,-179.758,2.68066,-144.822,560
1569677284,382.637,-160.288,-12.5016,-179.758,2.68066,-144.822,560
1569677284,382.637,-160.288,-12.5016,-179.736,2.68066,-144.822,560
1569677284,382.637,-160.288,-12.5016,-179.736,2.68066,-144.822,560
1569677284,382.637,-160.288,-12.5016,-179.736,2.68066,-144.822,560
1569677284,382.637,-160.288,-12.5016,-179.736,2.68066,-144.822,560
1569677284,382.637,-160.288,-12.5016,-179.758,2.68066,-144.822,560
1569677284,382.637,-160.288,-12.5016,-179.758,2.68066,-144.822,560
1569677284,382.637,-160.288,-12.5016,-179.758,2.70264,-144.822,560
1569677284,382.637,-160.288,-12.5016,-179.758,2.70264,-144.822,560
1569677284,382.637,-160.288,-12.5016,-179.758,2.70264,-144.822,560
1569677284,382.637,-160.288,-12.5016,-179.758,2.70264,-144.822,560
1569677284,382.637,-160.288,-12.5016,-179.758,2.70264,-144.822,560
1569677284,382.637,-160.288,-12.5016,-179.758,2.70264,-144.822,560
1569677284,382.637,-160.288,-12.5016,-179.758,2.70264,-144.822,560
1569677284,382.637,-160.288,-12.5016,-179.758,2.70264,-144.822,560
1569677284,382.637,-160.288,-12.5016,-179.758,2.70264,-144.822,560
1569677284,382.637,-160.288,-12.5016,-179.758,2.70264,-144.822,560
1569677284,382.637,-160.288,-12.5016,-179.758,2.70264,-144.822,560
1569677284,382.637,-160.288,-12.5016,-179.758,2.70264,-144.822,560
1569677284,382.637,-160.288,-12.5016,-179.758,2.70264,-144.822,556
1569677284,382.637,-160.288,-12.5016,-179.758,2.70264,-144.822,556
1569677284,382.637,-160.288,-12.5016,-179.758,2.70264,-144.8,556
1569677284,382.637,-160.288,-12.5016,-179.758,2.68066,-144.8,556
1569677284,382.637,-160.288,-12.5016,-179.758,2.68066,-144.8,556
1569677284,382.637,-160.288,-12.5016,-179.758,2.68066,-144.8,556
1569677284,382.637,-160.288,-12.5016,-179.758,2.68066,-144.8,560
1569677284,382.637,-160.288,-12.5016,-179.758,2.68066,-144.8,560
1569677284,382.637,-160.288,-12.5016,-179.758,2.68066,-144.8,560
1569677284,382.637,-160.288,-12.5016,-179.758,2.68066,-144.8,560
1569677284,382.637,-160.288,-12.5016,-179.758,2.68066,-144.8,564
1569677284,382.637,-160.176,-12.5016,-179.758,2.68066,-144.822,564
1569677284,382.637,-160.176,-12.5016,-179.758,2.68066,-144.822,564
1569677284,382.637,-160.176,-12.5016,-179.758,2.70264,-144.822,564
1569677284,382.637,-160.176,-12.5016,-179.758,2.70264,-144.822,568
1569677284,382.637,-160.176,-12.5016,-179.758,2.70264,-144.822,568
1569677284,382.637,-160.176,-12.5016,-179.758,2.70264,-144.822,568
1569677284,382.637,-160.176,-12.5016,-179.758,2.70264,-144.822,568
1569677284,382.637,-160.176,-12.5016,-179.758,2.70264,-144.822,568
1569677284,382.637,-160.176,-12.5016,-179.736,2.70264,-144.822,568
1569677284,382.637,-160.176,-12.5016,-179.736,2.70264,-144.822,568
1569677284,382.637,-160.176,-12.5016,-179.736,2.70264,-144.8,572
1569677284,382.637,-160.176,-12.5016,-179.736,2.70264,-144.8,572
1569677284,382.637,-160.176,-12.5016,-179.736,2.70264,-144.8,572
1569677284,382.637,-160.176,-12.5016,-179.736,2.70264,-144.8,572
1569677284,382.637,-160.176,-12.5016,-179.736,2.70264,-144.8,572
1569677284,382.637,-160.176,-12.5016,-179.736,2.70264,-144.8,572
1569677284,382.637,-160.176,-12.5016,-179.736,2.70264,-144.8,572
1569677284,382.637,-160.176,-12.5016,-179.736,2.70264,-144.8,576
1569677284,382.637,-160.176,-12.5016,-179.736,2.70264,-144.8,576
1569677284,382.637,-160.176,-12.5016,-179.736,2.70264,-144.8,576
1569677284,382.637,-160.176,-12.5016,-179.736,2.70264,-144.8,576
1569677284,382.637,-160.176,-12.5016,-179.736,2.72461,-144.8,576
1569677284,382.637,-160.176,-12.5016,-179.736,2.72461,-144.8,576
1569677284,382.637,-160.176,-12.5016,-179.758,2.72461,-144.822,576
1569677285,382.637,-160.176,-12.3899,-179.758,2.72461,-144.822,576
1569677285,382.637,-160.176,-12.3899,-179.758,2.72461,-144.822,576
1569677285,382.525,-160.288,-12.3899,-179.758,2.72461,-144.822,572
1569677285,382.525,-160.288,-12.3899,-179.758,2.72461,-144.822,572
1569677285,382.525,-160.288,-12.3899,-179.758,2.72461,-144.822,572
1569677285,382.525,-160.288,-12.5016,-179.78,2.72461,-144.822,572
1569677285,382.525,-160.288,-12.5016,-179.78,2.72461,-144.822,572
1569677285,382.525,-160.288,-12.5016,-179.78,2.72461,-144.822,572
1569677285,382.525,-160.288,-12.5016,-179.78,2.72461,-144.822,568
1569677285,382.525,-160.4,-12.5016,-179.78,2.72461,-144.822,568
1569677285,382.637,-160.4,-12.5016,-179.78,2.72461,-144.822,568
1569677285,382.637,-160.4,-12.5016,-179.78,2.72461,-144.822,568
1569677285,382.637,-160.4,-12.5016,-179.78,2.70264,-144.822,564
1569677285,382.637,-160.4,-12.5016,-179.78,2.70264,-144.822,564
1569677285,382.637,-160.4,-12.5016,-179.78,2.70264,-144.822,564
1569677285,382.637,-160.4,-12.5016,-179.78,2.70264,-144.822,560
1569677285,382.637,-160.4,-12.5016,-179.78,2.70264,-144.822,560
1569677285,382.637,-160.4,-12.5016,-179.78,2.70264,-144.822,560
1569677285,382.637,-160.4,-12.5016,-179.78,2.70264,-144.822,560
1569677285,382.637,-160.4,-12.5016,-179.78,2.70264,-144.822,560
1569677285,382.637,-160.4,-12.5016,-179.78,2.70264,-144.822,560
1569677285,382.637,-160.4,-12.5016,-179.78,2.70264,-144.822,560
1569677285,382.637,-160.4,-12.5016,-179.78,2.70264,-144.822,560
1569677285,382.637,-160.4,-12.5016,-179.78,2.70264,-144.822,560
1569677285,382.637,-160.4,-12.6132,-179.78,2.70264,-144.822,560
1569677285,382.637,-160.4,-12.5016,-179.78,2.70264,-144.822,560
1569677285,382.637,-160.4,-12.5016,-179.78,2.70264,-144.822,556
1569677285,382.749,-160.4,-12.5016,-179.78,2.70264,-144.822,556
1569677285,382.749,-160.4,-12.5016,-179.78,2.70264,-144.822,556
1569677285,382.749,-160.4,-12.5016,-179.78,2.70264,-144.822,556
1569677285,382.749,-160.4,-12.5016,-179.78,2.70264,-144.822,556
1569677285,382.749,-160.4,-12.5016,-179.78,2.70264,-144.822,556
1569677285,382.749,-160.4,-12.5016,-179.758,2.72461,-144.822,556
1569677285,382.749,-160.4,-12.5016,-179.758,2.72461,-144.822,556
1569677285,382.749,-160.4,-12.5016,-179.78,2.72461,-144.822,556
1569677285,382.749,-160.4,-12.5016,-179.78,2.72461,-144.822,556
1569677285,382.749,-160.4,-12.5016,-179.78,2.72461,-144.822,556
1569677285,382.749,-160.4,-12.5016,-179.78,2.72461,-144.822,556
1569677285,382.749,-160.4,-12.5016,-179.78,2.72461,-144.822,556
1569677285,382.749,-160.4,-12.5016,-179.78,2.72461,-144.822,556
1569677285,382.749,-160.4,-12.5016,-179.78,2.72461,-144.822,556
1569677285,382.749,-160.4,-12.5016,-179.78,2.72461,-144.822,556
1569677285,382.637,-160.4,-12.5016,-179.802,2.72461,-144.822,556
1569677285,382.637,-160.4,-12.5016,-179.802,2.72461,-144.822,556
1569677285,382.637,-160.4,-12.5016,-179.78,2.72461,-144.822,556
1569677285,382.637,-160.4,-12.5016,-179.78,2.72461,-144.822,556
1569677285,382.637,-160.4,-12.5016,-179.78,2.72461,-144.822,556
1569677285,382.637,-160.288,-12.5016,-179.78,2.72461,-144.822,556
1569677285,382.637,-160.288,-12.5016,-179.78,2.70264,-144.822,556
1569677285,382.637,-160.288,-12.5016,-179.78,2.70264,-144.822,556
1569677285,382.637,-160.288,-12.5016,-179.78,2.70264,-144.822,556
1569677285,382.637,-160.288,-12.5016,-179.78,2.70264,-144.822,556
1569677285,382.637,-160.288,-12.5016,-179.78,2.70264,-144.822,556
1569677285,382.637,-160.288,-12.5016,-179.78,2.70264,-144.822,556
1569677285,382.637,-160.288,-12.5016,-179.78,2.70264,-144.822,556
1569677285,382.637,-160.288,-12.5016,-179.78,2.70264,-144.822,556
1569677285,382.637,-160.288,-12.5016,-179.78,2.70264,-144.822,556
1569677285,382.637,-160.288,-12.5016,-179.78,2.72461,-144.822,556
1569677285,382.637,-160.176,-12.5016,-179.78,2.72461,-144.822,560
1569677285,382.637,-160.176,-12.5016,-179.758,2.72461,-144.822,560
1569677285,382.637,-160.176,-12.5016,-179.758,2.72461,-144.822,560
1569677285,382.637,-160.176,-12.5016,-179.758,2.72461,-144.844,560
1569677285,382.637,-160.176,-12.5016,-179.758,2.72461,-144.844,560
1569677285,382.637,-160.176,-12.5016,-179.758,2.72461,-144.844,564
1569677285,382.637,-160.176,-12.5016,-179.758,2.72461,-144.844,564
1569677285,382.637,-160.176,-12.5016,-179.758,2.72461,-144.844,564
1569677285,382.637,-160.176,-12.5016,-179.758,2.72461,-144.844,568
1569677285,382.637,-160.176,-12.3899,-179.758,2.74658,-144.844,568
1569677285,382.637,-160.176,-12.3899,-179.758,2.74658,-144.844,568
1569677285,382.637,-160.176,-12.3899,-179.758,2.74658,-144.844,568
1569677285,382.637,-160.176,-12.3899,-179.78,2.74658,-144.844,572
1569677285,382.637,-160.176,-12.3899,-179.78,2.74658,-144.844,572
1569677285,382.637,-160.176,-12.3899,-179.78,2.74658,-144.844,572
1569677285,382.637,-160.176,-12.3899,-179.78,2.74658,-144.844,572
1569677285,382.637,-160.288,-12.3899,-179.78,2.74658,-144.844,572
1569677285,382.637,-160.288,-12.3899,-179.78,2.74658,-144.844,572
1569677285,382.749,-160.288,-12.3899,-179.78,2.74658,-144.844,572
1569677285,382.749,-160.288,-12.3899,-179.78,2.72461,-144.822,572
1569677285,382.749,-160.288,-12.3899,-179.78,2.72461,-144.822,572
1569677285,382.749,-160.288,-12.5016,-179.78,2.72461,-144.822,572
1569677285,382.749,-160.288,-12.5016,-179.78,2.72461,-144.822,572
1569677285,382.749,-160.288,-12.5016,-179.78,2.72461,-144.822,572
1569677285,382.749,-160.288,-12.5016,-179.78,2.70264,-144.822,572
1569677285,382.637,-160.288,-12.5016,-179.78,2.70264,-144.822,568
1569677285,382.637,-160.288,-12.5016,-179.78,2.70264,-144.822,568
1569677285,382.637,-160.288,-12.5016,-179.78,2.70264,-144.822,568
1569677285,382.637,-160.288,-12.5016,-179.78,2.70264,-144.822,568
1569677285,382.637,-160.288,-12.5016,-179.78,2.70264,-144.822,568
1569677285,382.637,-160.288,-12.5016,-179.78,2.70264,-144.822,568
1569677285,382.637,-160.288,-12.5016,-179.802,2.70264,-144.822,568
1569677285,382.637,-160.288,-12.5016,-179.802,2.70264,-144.822,568
1569677285,382.637,-160.288,-12.5016,-179.78,2.70264,-144.822,568
1569677285,382.637,-160.288,-12.5016,-179.78,2.70264,-144.822,568
1569677285,382.637,-160.288,-12.5016,-179.78,2.70264,-144.822,568
1569677285,382.637,-160.288,-12.5016,-179.78,2.70264,-144.822,568
1569677285,382.637,-160.288,-12.5016,-179.78,2.68066,-144.822,568
1569677285,382.637,-160.288,-12.6132,-179.78,2.68066,-144.822,568
1569677285,382.637,-160.288,-12.6132,-179.78,2.68066,-144.822,568
1569677285,382.637,-160.288,-12.6132,-179.78,2.68066,-144.822,568
1569677285,382.637,-160.288,-12.6132,-179.78,2.68066,-144.822,568
1569677286,382.637,-160.288,-12.6132,-179.802,2.68066,-144.822,568
1569677286,382.637,-160.288,-12.6132,-179.802,2.68066,-144.822,568
1569677286,382.637,-160.288,-12.6132,-179.802,2.68066,-144.822,568
1569677286,382.637,-160.288,-12.6132,-179.802,2.68066,-144.822,568
1569677286,382.637,-160.288,-12.6132,-179.802,2.68066,-144.822,568
1569677286,382.637,-160.4,-12.6132,-179.802,2.68066,-144.822,568
1569677286,382.637,-160.4,-12.6132,-179.802,2.68066,-144.822,568
1569677286,382.637,-160.4,-12.6132,-179.802,2.68066,-144.822,564
1569677286,382.637,-160.4,-12.6132,-179.802,2.68066,-144.822,564
1569677286,382.637,-160.4,-12.6132,-179.802,2.68066,-144.822,564
1569677286,382.637,-160.4,-12.6132,-179.802,2.68066,-144.822,564
1569677286,382.637,-160.4,-12.6132,-179.802,2.68066,-144.822,564
1569677286,382.637,-160.4,-12.6132,-179.802,2.68066,-144.822,564
1569677286,382.637,-160.4,-12.6132,-179.802,2.70264,-144.822,564
1569677286,382.637,-160.4,-12.6132,-179.802,2.70264,-144.822,564
1569677286,382.637,-160.4,-12.6132,-179.802,2.70264,-144.822,564
1569677286,382.637,-160.4,-12.5016,-179.802,2.70264,-144.822,560
1569677286,382.637,-160.4,-12.5016,-179.802,2.70264,-144.822,560
1569677286,382.637,-160.4,-12.5016,-179.802,2.70264,-144.822,560
1569677286,382.637,-160.4,-12.5016,-179.802,2.70264,-144.822,560
1569677286,382.637,-160.4,-12.5016,-179.802,2.70264,-144.822,560
1569677286,382.637,-160.4,-12.5016,-179.802,2.70264,-144.822,560
1569677286,382.637,-160.4,-12.5016,-179.802,2.70264,-144.822,560
1569677286,382.637,-160.4,-12.5016,-179.802,2.70264,-144.822,556
1569677286,382.637,-160.4,-12.5016,-179.802,2.70264,-144.822,556
1569677286,382.637,-160.4,-12.5016,-179.802,2.70264,-144.822,556
1569677286,382.637,-160.4,-12.5016,-179.802,2.70264,-144.822,556
1569677286,382.637,-160.4,-12.5016,-179.802,2.70264,-144.822,556
1569677286,382.637,-160.4,-12.5016,-179.802,2.70264,-144.822,556
1569677286,382.637,-160.4,-12.5016,-179.824,2.68066,-144.822,556
1569677286,382.637,-160.4,-12.5016,-179.824,2.68066,-144.822,560
1569677286,382.637,-160.4,-12.6132,-179.824,2.68066,-144.822,560
1569677286,382.637,-160.4,-12.6132,-179.824,2.68066,-144.822,560
1569677286,382.637,-160.4,-12.5016,-179.824,2.68066,-144.822,560
1569677286,382.637,-160.4,-12.5016,-179.802,2.68066,-144.822,560
1569677286,382.637,-160.4,-12.5016,-179.802,2.68066,-144.822,564
1569677286,382.637,-160.4,-12.5016,-179.802,2.68066,-144.822,564
1569677286,382.637,-160.4,-12.5016,-179.802,2.68066,-144.822,564
1569677286,382.637,-160.4,-12.5016,-179.802,2.70264,-144.822,568
1569677286,382.637,-160.288,-12.5016,-179.78,2.70264,-144.822,568
1569677286,382.637,-160.288,-12.5016,-179.78,2.70264,-144.822,568
1569677286,382.637,-160.288,-12.5016,-179.78,2.70264,-144.8,572
1569677286,382.637,-160.288,-12.3899,-179.78,2.70264,-144.8,572
1569677286,382.637,-160.288,-12.3899,-179.78,2.70264,-144.8,572
1569677286,382.637,-160.288,-12.3899,-179.78,2.72461,-144.8,576
1569677286,382.637,-160.288,-12.3899,-179.78,2.72461,-144.8,576
1569677286,382.637,-160.288,-12.3899,-179.78,2.72461,-144.8,576
1569677286,382.637,-160.288,-12.3899,-179.78,2.72461,-144.8,576
1569677286,382.637,-160.288,-12.3899,-179.78,2.70264,-144.8,576
1569677286,382.637,-160.288,-12.5016,-179.78,2.70264,-144.8,576
1569677286,382.637,-160.288,-12.5016,-179.78,2.70264,-144.8,576
1569677286,382.637,-160.288,-12.5016,-179.78,2.70264,-144.8,576
1569677286,382.637,-160.288,-12.5016,-179.802,2.68066,-144.8,576
1569677286,382.637,-160.288,-12.5016,-179.78,2.68066,-144.8,576
1569677286,382.525,-160.288,-12.5016,-179.78,2.68066,-144.8,576
1569677286,382.525,-160.288,-12.6132,-179.802,2.68066,-144.822,576
1569677286,382.637,-160.288,-12.6132,-179.802,2.65869,-144.822,576
1569677286,382.637,-160.288,-12.6132,-179.78,2.65869,-144.822,576
1569677286,382.637,-160.288,-12.6132,-179.78,2.65869,-144.822,576
1569677286,382.637,-160.288,-12.6132,-179.78,2.65869,-144.822,580
1569677286,382.637,-160.288,-12.6132,-179.78,2.65869,-144.822,580
1569677286,382.637,-160.288,-12.6132,-179.78,2.65869,-144.822,580
1569677286,382.637,-160.288,-12.6132,-179.78,2.65869,-144.822,580
1569677286,382.637,-160.288,-12.6132,-179.78,2.65869,-144.822,580
1569677286,382.637,-160.288,-12.6132,-179.78,2.65869,-144.822,584
1569677286,382.637,-160.288,-12.6132,-179.78,2.65869,-144.822,584
1569677286,382.637,-160.288,-12.6132,-179.78,2.65869,-144.822,584
1569677286,382.637,-160.288,-12.6132,-179.78,2.65869,-144.8,584
1569677286,382.637,-160.288,-12.5016,-179.78,2.68066,-144.8,584
1569677286,382.637,-160.288,-12.5016,-179.78,2.68066,-144.8,584
1569677286,382.637,-160.288,-12.5016,-179.78,2.68066,-144.8,580
1569677286,382.637,-160.288,-12.5016,-179.78,2.70264,-144.8,580
1569677286,382.637,-160.288,-12.3899,-179.78,2.70264,-144.8,580
1569677286,382.637,-160.288,-12.3899,-179.78,2.70264,-144.8,576
1569677286,382.637,-160.288,-12.3899,-179.78,2.70264,-144.8,576
1569677286,382.637,-160.288,-12.3899,-179.758,2.72461,-144.8,576
1569677286,382.637,-160.288,-12.3899,-179.758,2.72461,-144.8,572
1569677286,382.637,-160.288,-12.3899,-179.758,2.72461,-144.8,572
1569677286,382.637,-160.288,-12.3899,-179.758,2.72461,-144.8,572
1569677286,382.637,-160.288,-12.3899,-179.758,2.72461,-144.8,568
1569677286,382.749,-160.288,-12.3899,-179.758,2.72461,-144.8,568
1569677286,382.749,-160.288,-12.3899,-179.758,2.72461,-144.8,568
1569677286,382.749,-160.288,-12.5016,-179.758,2.72461,-144.8,564
1569677286,382.749,-160.288,-12.5016,-179.758,2.70264,-144.8,564
1569677286,382.749,-160.288,-12.5016,-179.758,2.70264,-144.8,564
1569677286,382.749,-160.288,-12.5016,-179.758,2.70264,-144.8,564
1569677286,382.749,-160.288,-12.5016,-179.758,2.70264,-144.8,564
1569677286,382.749,-160.288,-12.5016,-179.758,2.70264,-144.8,564
1569677286,382.749,-160.288,-12.5016,-179.758,2.70264,-144.8,564
1569677286,382.749,-160.288,-12.5016,-179.758,2.70264,-144.8,564
1569677286,382.749,-160.288,-12.5016,-179.758,2.70264,-144.8,564
1569677286,382.749,-160.288,-12.5016,-179.78,2.70264,-144.8,564
1569677286,382.749,-160.288,-12.5016,-179.78,2.70264,-144.8,564
1569677286,382.749,-160.288,-12.5016,-179.78,2.70264,-144.8,564
1569677286,382.749,-160.288,-12.5016,-179.78,2.68066,-144.8,564
1569677286,382.749,-160.288,-12.5016,-179.78,2.68066,-144.8,564
1569677286,382.749,-160.288,-12.5016,-179.78,2.68066,-144.8,564
1569677286,382.637,-160.288,-12.5016,-179.78,2.68066,-144.8,564
1569677286,382.637,-160.288,-12.5016,-179.78,2.68066,-144.822,564
1569677287,382.637,-160.288,-12.5016,-179.78,2.68066,-144.822,564
1569677287,382.637,-160.288,-12.5016,-179.78,2.68066,-144.822,564
1569677287,382.637,-160.288,-12.6132,-179.78,2.68066,-144.822,564
1569677287,382.637,-160.288,-12.6132,-179.78,2.68066,-144.822,564
1569677287,382.637,-160.288,-12.6132,-179.78,2.68066,-144.822,564
1569677287,382.637,-160.288,-12.6132,-179.78,2.68066,-144.822,564
1569677287,382.637,-160.288,-12.6132,-179.78,2.68066,-144.822,564
1569677287,382.637,-160.288,-12.6132,-179.78,2.68066,-144.822,564
1569677287,382.637,-160.288,-12.6132,-179.78,2.68066,-144.822,564
1569677287,382.637,-160.288,-12.5016,-179.78,2.70264,-144.822,560
1569677287,382.637,-160.288,-12.5016,-179.78,2.70264,-144.822,560
1569677287,382.637,-160.288,-12.5016,-179.78,2.70264,-144.822,560
1569677287,382.637,-160.288,-12.5016,-179.78,2.70264,-144.822,560
1569677287,382.637,-160.288,-12.5016,-179.78,2.72461,-144.822,560
1569677287,382.637,-160.288,-12.3899,-179.78,2.72461,-144.822,556
1569677287,382.637,-160.288,-12.3899,-179.78,2.72461,-144.8,556
1569677287,382.637,-160.288,-12.3899,-179.78,2.72461,-144.8,556
1569677287,382.637,-160.288,-12.3899,-179.78,2.72461,-144.8,552
1569677287,382.637,-160.288,-12.3899,-179.78,2.74658,-144.8,552
1569677287,382.637,-160.288,-12.3899,-179.78,2.74658,-144.8,552
1569677287,382.637,-160.288,-12.3899,-179.78,2.74658,-144.8,552
1569677287,382.637,-160.288,-12.3899,-179.78,2.72461,-144.8,552
1569677287,382.637,-160.288,-12.3899,-179.802,2.72461,-144.8,552
1569677287,382.637,-160.288,-12.3899,-179.802,2.72461,-144.822,552
1569677287,382.637,-160.288,-12.3899,-179.802,2.72461,-144.822,552
1569677287,382.637,-160.288,-12.5016,-179.802,2.72461,-144.822,552
1569677287,382.637,-160.288,-12.5016,-179.802,2.72461,-144.822,552
1569677287,382.637,-160.288,-12.5016,-179.802,2.72461,-144.822,552
1569677287,382.637,-160.4,-12.5016,-179.802,2.72461,-144.822,552
1569677287,382.525,-160.4,-12.5016,-179.824,2.72461,-144.822,552
1569677287,382.525,-160.4,-12.5016,-179.824,2.72461,-144.822,556
1569677287,382.525,-160.4,-12.5016,-179.824,2.72461,-144.822,556
1569677287,382.525,-160.4,-12.5016,-179.824,2.72461,-144.822,556
1569677287,382.525,-160.4,-12.5016,-179.824,2.72461,-144.822,556
1569677287,382.525,-160.4,-12.5016,-179.824,2.72461,-144.822,556
1569677287,382.525,-160.4,-12.5016,-179.846,2.72461,-144.822,556
1569677287,382.525,-160.4,-12.5016,-179.846,2.72461,-144.822,556
1569677287,382.525,-160.4,-12.5016,-179.846,2.70264,-144.822,560
1569677287,382.525,-160.4,-12.5016,-179.846,2.70264,-144.822,560
1569677287,382.525,-160.4,-12.5016,-179.846,2.70264,-144.822,560
1569677287,382.525,-160.511,-12.5016,-179.846,2.70264,-144.822,560
1569677287,382.525,-160.511,-12.5016,-179.824,2.70264,-144.822,560
1569677287,382.525,-160.4,-12.6132,-179.824,2.70264,-144.822,560
1569677287,382.525,-160.4,-12.6132,-179.824,2.70264,-144.822,560
1569677287,382.525,-160.4,-12.6132,-179.824,2.70264,-144.822,560
1569677287,382.637,-160.4,-12.6132,-179.802,2.70264,-144.822,560
1569677287,382.637,-160.4,-12.6132,-179.802,2.70264,-144.822,560
1569677287,382.637,-160.4,-12.6132,-179.802,2.70264,-144.822,560
1569677287,382.637,-160.4,-12.6132,-179.802,2.70264,-144.822,556
1569677287,382.637,-160.4,-12.6132,-179.802,2.70264,-144.822,556
1569677287,382.637,-160.4,-12.6132,-179.78,2.70264,-144.822,556
1569677287,382.637,-160.4,-12.6132,-179.78,2.70264,-144.822,556
1569677287,382.637,-160.288,-12.6132,-179.78,2.70264,-144.822,556
1569677287,382.637,-160.288,-12.5016,-179.78,2.70264,-144.822,556
1569677287,382.637,-160.288,-12.5016,-179.78,2.70264,-144.822,556
1569677287,382.637,-160.288,-12.5016,-179.78,2.70264,-144.822,556
1569677287,382.637,-160.288,-12.5016,-179.78,2.70264,-144.822,552
1569677287,382.637,-160.288,-12.5016,-179.78,2.72461,-144.822,552
1569677287,382.637,-160.288,-12.5016,-179.78,2.72461,-144.822,552
1569677287,382.637,-160.4,-12.5016,-179.78,2.72461,-144.822,552
1569677287,382.637,-160.4,-12.5016,-179.78,2.72461,-144.822,552
1569677287,382.637,-160.4,-12.5016,-179.78,2.72461,-144.822,552
1569677287,382.637,-160.4,-12.3899,-179.78,2.72461,-144.822,552
1569677287,382.637,-160.4,-12.3899,-179.78,2.74658,-144.822,552
1569677287,382.637,-160.4,-12.3899,-179.78,2.74658,-144.822,548
1569677287,382.637,-160.4,-12.3899,-179.78,2.74658,-144.822,548
1569677287,382.637,-160.4,-12.3899,-179.78,2.74658,-144.822,548
1569677287,382.637,-160.4,-12.3899,-179.78,2.74658,-144.822,548
1569677287,382.637,-160.4,-12.3899,-179.78,2.74658,-144.822,548
1569677287,382.637,-160.4,-12.3899,-179.78,2.74658,-144.822,548
1569677287,382.637,-160.288,-12.3899,-179.78,2.74658,-144.822,548
1569677287,382.637,-160.288,-12.3899,-179.78,2.74658,-144.822,548
1569677287,382.637,-160.288,-12.3899,-179.78,2.74658,-144.822,548
1569677287,382.637,-160.288,-12.3899,-179.78,2.74658,-144.822,548
1569677287,382.637,-160.288,-12.3899,-179.78,2.74658,-144.822,548
1569677287,382.637,-160.288,-12.3899,-179.78,2.74658,-144.822,548
1569677287,382.637,-160.288,-12.3899,-179.78,2.74658,-144.822,548
1569677287,382.637,-160.288,-12.3899,-179.78,2.74658,-144.822,548
1569677287,382.637,-160.288,-12.3899,-179.78,2.74658,-144.822,548
1569677287,382.637,-160.288,-12.3899,-179.78,2.74658,-144.822,548
1569677287,382.637,-160.288,-12.3899,-179.78,2.74658,-144.822,548
1569677287,382.637,-160.288,-12.3899,-179.78,2.74658,-144.822,548
1569677287,382.637,-160.4,-12.3899,-179.78,2.76855,-144.822,548
1569677287,382.637,-160.4,-12.2783,-179.78,2.76855,-144.822,548
1569677287,382.637,-160.4,-12.2783,-179.802,2.76855,-144.822,548
1569677287,382.637,-160.4,-12.2783,-179.802,2.76855,-144.822,548
1569677287,382.637,-160.4,-12.2783,-179.802,2.79053,-144.8,548
1569677287,382.637,-160.4,-12.2783,-179.802,2.79053,-144.8,548
1569677287,382.637,-160.4,-12.2783,-179.78,2.79053,-144.8,548
1569677287,382.637,-160.288,-12.2783,-179.78,2.79053,-144.8,548
1569677287,382.637,-160.288,-12.2783,-179.78,2.79053,-144.8,548
1569677287,382.637,-160.288,-12.2783,-179.78,2.79053,-144.8,548
1569677287,382.637,-160.288,-12.2783,-179.78,2.79053,-144.8,548
1569677287,382.637,-160.288,-12.2783,-179.78,2.79053,-144.8,548
1569677287,382.637,-160.288,-12.2783,-179.78,2.79053,-144.8,548
1569677287,382.637,-160.288,-12.2783,-179.78,2.79053,-144.8,548
1569677287,382.637,-160.288,-12.2783,-179.78,2.79053,-144.8,548
1569677287,382.637,-160.288,-12.2783,-179.78,2.79053,-144.8,544
1569677287,382.749,-160.288,-12.2783,-179.78,2.76855,-144.822,544
1569677287,382.749,-160.288,-12.2783,-179.78,2.76855,-144.822,544
1569677288,382.749,-160.288,-12.2783,-179.78,2.76855,-144.822,544
1569677288,382.749,-160.288,-12.2783,-179.78,2.76855,-144.822,544
1569677288,382.749,-160.288,-12.2783,-179.78,2.76855,-144.822,544
1569677288,382.749,-160.288,-12.2783,-179.78,2.76855,-144.822,544
1569677288,382.749,-160.288,-12.3899,-179.78,2.76855,-144.822,544
1569677288,382.749,-160.288,-12.3899,-179.78,2.74658,-144.822,544
1569677288,382.749,-160.288,-12.3899,-179.78,2.74658,-144.822,540
1569677288,382.749,-160.288,-12.3899,-179.78,2.74658,-144.822,540
1569677288,382.637,-160.288,-12.3899,-179.78,2.74658,-144.822,544
1569677288,382.637,-160.288,-12.3899,-179.78,2.74658,-144.822,544
1569677288,382.637,-160.288,-12.3899,-179.78,2.74658,-144.822,544
1569677288,382.637,-160.288,-12.3899,-179.78,2.74658,-144.822,544
1569677288,382.637,-160.288,-12.3899,-179.78,2.74658,-144.822,544
1569677288,382.637,-160.288,-12.3899,-179.78,2.74658,-144.822,544
1569677288,382.637,-160.288,-12.3899,-179.78,2.74658,-144.822,544
1569677288,382.637,-160.288,-12.3899,-179.78,2.72461,-144.822,544
1569677288,382.637,-160.288,-12.5016,-179.78,2.72461,-144.822,544
1569677288,382.637,-160.288,-12.5016,-179.78,2.72461,-144.822,544
1569677288,382.637,-160.288,-12.5016,-179.78,2.72461,-144.8,544
1569677292,359.42,-136.513,-12.948,-179.956,2.59277,-144.514,528
1569677292,359.42,-136.513,-12.948,-179.956,2.59277,-144.536,528
1569677292,359.42,-136.513,-12.948,-179.934,2.59277,-144.536,528
1569677292,359.42,-136.513,-12.948,-179.934,2.59277,-144.536,528
1569677292,359.42,-136.513,-12.948,-179.934,2.5708,-144.536,528
1569677292,359.42,-136.513,-12.948,-179.934,2.5708,-144.536,528
1569677292,359.42,-136.513,-12.948,-179.934,2.5708,-144.536,528
1569677292,359.42,-136.513,-13.0597,-179.934,2.5708,-144.536,528
1569677292,359.42,-136.513,-13.0597,-179.934,2.5708,-144.536,528
1569677292,359.42,-136.513,-13.0597,-179.934,2.5708,-144.536,528
1569677292,359.42,-136.513,-13.0597,-179.934,2.5708,-144.536,532
1569677292,359.42,-136.513,-13.0597,-179.934,2.59277,-144.536,532
1569677292,359.42,-136.513,-13.0597,-179.934,2.59277,-144.536,532
1569677292,359.532,-136.513,-12.948,-179.934,2.59277,-144.536,532
1569677292,359.532,-136.513,-12.948,-179.934,2.59277,-144.536,532
1569677292,359.532,-136.513,-12.948,-179.956,2.59277,-144.536,532
1569677292,359.532,-136.513,-12.948,-179.956,2.59277,-144.536,532
1569677292,359.532,-136.513,-12.948,-179.956,2.59277,-144.536,532
1569677292,359.532,-136.513,-12.948,-179.956,2.59277,-144.536,532
1569677292,359.532,-136.624,-12.948,-179.956,2.59277,-144.536,532
1569677292,359.532,-136.624,-12.948,-179.956,2.59277,-144.536,532
1569677292,359.532,-136.624,-12.948,-179.956,2.59277,-144.536,532
1569677292,359.532,-136.624,-12.948,-179.956,2.59277,-144.536,532
1569677292,359.532,-136.624,-12.948,-179.956,2.59277,-144.536,532
1569677292,359.532,-136.624,-12.948,-179.956,2.59277,-144.536,532
1569677292,359.532,-136.624,-12.948,-179.956,2.59277,-144.536,532
1569677292,359.532,-136.624,-12.948,-179.956,2.59277,-144.536,532
1569677292,359.532,-136.624,-12.948,-179.956,2.59277,-144.536,532
1569677292,359.42,-136.513,-12.948,-179.956,2.59277,-144.536,532
1569677292,359.42,-136.513,-12.948,-179.956,2.59277,-144.536,532
1569677292,359.42,-136.513,-12.948,-179.956,2.59277,-144.536,532
1569677292,359.42,-136.513,-12.948,-179.956,2.59277,-144.536,532
1569677292,359.42,-136.513,-12.948,-179.956,2.59277,-144.536,536
1569677292,359.42,-136.513,-12.948,-179.956,2.59277,-144.536,536
1569677292,359.42,-136.513,-12.948,-179.956,2.59277,-144.536,536
1569677292,359.42,-136.513,-12.948,-179.934,2.59277,-144.536,536
1569677292,359.42,-136.513,-12.948,-179.934,2.59277,-144.536,540
1569677292,359.42,-136.513,-12.948,-179.934,2.59277,-144.536,540
1569677292,359.42,-136.513,-12.948,-179.934,2.59277,-144.536,540
1569677292,359.42,-136.513,-12.948,-179.934,2.59277,-144.536,540
1569677292,359.42,-136.513,-12.948,-179.934,2.59277,-144.536,540
1569677292,359.42,-136.513,-12.948,-179.934,2.59277,-144.536,540
1569677292,359.42,-136.513,-12.948,-179.934,2.59277,-144.536,540
1569677292,359.42,-136.513,-13.0597,-179.934,2.59277,-144.536,540
1569677292,359.42,-136.513,-13.0597,-179.934,2.5708,-144.536,540
1569677293,359.42,-136.513,-13.0597,-179.956,2.5708,-144.536,540
1569677293,359.42,-136.513,-13.0597,-179.956,2.5708,-144.536,540
1569677293,359.42,-136.513,-13.0597,-179.956,2.5708,-144.536,540
1569677293,359.42,-136.513,-13.0597,-179.956,2.5708,-144.536,540
1569677293,359.42,-136.513,-13.0597,-179.956,2.5708,-144.536,540
1569677293,359.42,-136.513,-13.0597,-179.956,2.5708,-144.536,536
1569677293,359.42,-136.513,-13.0597,-179.956,2.5708,-144.536,536
1569677293,359.42,-136.513,-13.0597,-179.956,2.5708,-144.536,536
1569677293,359.42,-136.513,-13.0597,-179.956,2.5708,-144.536,536
1569677293,359.532,-136.513,-13.0597,-179.956,2.5708,-144.536,536
1569677293,359.532,-136.513,-13.0597,-179.956,2.5708,-144.536,532
1569677293,359.532,-136.513,-13.0597,-179.956,2.5708,-144.536,532
1569677293,359.532,-136.513,-13.0597,-179.934,2.5708,-144.536,532
1569677293,359.532,-136.513,-13.0597,-179.934,2.5708,-144.536,532
1569677293,359.532,-136.513,-13.0597,-179.934,2.5708,-144.536,528
1569677293,359.532,-136.513,-13.0597,-179.934,2.5708,-144.536,528
1569677293,359.532,-136.513,-13.0597,-179.934,2.5708,-144.536,528
1569677293,359.532,-136.513,-13.0597,-179.934,2.5708,-144.536,528
1569677293,359.42,-136.513,-13.0597,-179.934,2.5708,-144.536,528
1569677293,359.42,-136.513,-13.0597,-179.934,2.5708,-144.536,528
1569677293,359.42,-136.513,-13.0597,-179.934,2.5708,-144.536,528
1569677293,359.42,-136.513,-13.0597,-179.934,2.5708,-144.536,528
1569677293,359.42,-136.513,-13.0597,-179.934,2.5708,-144.536,528
1569677293,359.42,-136.513,-13.0597,-179.934,2.5708,-144.536,532
1569677293,359.42,-136.513,-13.0597,-179.934,2.5708,-144.536,532
1569677293,359.42,-136.513,-13.0597,-179.934,2.5708,-144.536,532
1569677293,359.42,-136.513,-13.0597,-179.934,2.5708,-144.536,536
1569677293,359.42,-136.513,-13.0597,-179.934,2.5708,-144.536,536
1569677293,359.42,-136.513,-13.0597,-179.934,2.5708,-144.536,536
1569677293,359.42,-136.513,-13.0597,-179.934,2.5708,-144.536,540
1569677293,359.42,-136.513,-13.0597,-179.934,2.5708,-144.536,540
1569677293,359.42,-136.513,-13.0597,-179.934,2.5708,-144.536,540
1569677293,359.42,-136.513,-13.0597,-179.934,2.5708,-144.536,544
1569677293,359.42,-136.513,-13.0597,-179.934,2.5708,-144.536,544
1569677293,359.42,-136.513,-13.0597,-179.956,2.5708,-144.536,544
1569677293,359.42,-136.513,-13.0597,-179.956,2.5708,-144.536,548
1569677293,359.42,-136.513,-13.0597,-179.956,2.5708,-144.536,548
1569677293,359.42,-136.513,-13.0597,-179.956,2.5708,-144.536,548
1569677293,359.42,-136.513,-13.0597,-179.956,2.5708,-144.536,548
1569677293,359.42,-136.513,-13.0597,-179.956,2.5708,-144.536,548
1569677293,359.42,-136.513,-13.0597,-179.978,2.5708,-144.536,548
1569677293,359.42,-136.624,-13.0597,-179.978,2.5708,-144.536,548
1569677293,359.42,-136.624,-13.0597,-179.978,2.5708,-144.536,548
1569677293,359.42,-136.624,-13.0597,-179.978,2.5708,-144.536,548
1569677293,359.42,-136.624,-13.0597,-179.978,2.5708,-144.536,548
1569677293,359.42,-136.624,-13.0597,-180,2.5708,-144.536,548
1569677293,359.42,-136.624,-12.948,-180,2.5708,-144.536,552
1569677293,359.42,-136.624,-12.948,-180,2.5708,-144.536,552
1569677293,359.42,-136.624,-12.948,-180,2.5708,-144.536,552
1569677293,359.42,-136.624,-12.948,-180,2.59277,-144.536,552
1569677293,359.42,-136.624,-12.948,-179.978,2.59277,-144.536,552
1569677293,359.42,-136.624,-12.948,-179.978,2.59277,-144.536,552
1569677293,359.42,-136.624,-12.948,-179.978,2.59277,-144.536,552
1569677293,359.42,-136.624,-12.948,-179.978,2.59277,-144.536,552
1569677293,359.42,-136.624,-12.948,-179.978,2.59277,-144.536,552
1569677293,359.42,-136.624,-12.948,-179.978,2.59277,-144.536,552
1569677293,359.42,-136.624,-12.948,-179.978,2.59277,-144.536,552
1569677293,359.42,-136.624,-12.948,-179.978,2.59277,-144.536,552
1569677293,359.42,-136.624,-12.948,-179.978,2.59277,-144.536,552
1569677293,359.42,-136.624,-12.948,-179.978,2.59277,-144.536,552
1569677293,359.42,-136.513,-12.948,-179.978,2.59277,-144.536,548
1569677293,359.42,-136.513,-12.948,-179.978,2.59277,-144.536,548
1569677293,359.42,-136.513,-12.948,-179.978,2.59277,-144.536,548
1569677293,359.42,-136.513,-12.948,-179.956,2.59277,-144.536,548
1569677293,359.42,-136.513,-12.948,-179.956,2.59277,-144.536,548
1569677293,359.42,-136.513,-12.948,-179.956,2.59277,-144.536,548
1569677293,359.42,-136.513,-12.948,-179.956,2.59277,-144.536,548
1569677293,359.42,-136.513,-12.948,-179.956,2.59277,-144.536,548
1569677293,359.42,-136.513,-12.948,-179.956,2.59277,-144.536,548
1569677293,359.42,-136.513,-12.948,-179.956,2.59277,-144.536,548
1569677293,359.42,-136.513,-12.948,-179.956,2.61475,-144.536,548
1569677293,359.42,-136.513,-12.948,-179.956,2.61475,-144.536,548
1569677293,359.42,-136.513,-12.948,-179.956,2.61475,-144.536,548
1569677293,359.42,-136.513,-12.948,-179.956,2.61475,-144.536,548
1569677293,359.42,-136.513,-12.948,-179.956,2.61475,-144.536,548
1569677293,359.42,-136.513,-12.948,-179.956,2.61475,-144.536,544
1569677293,359.42,-136.513,-12.948,-179.956,2.61475,-144.536,544
1569677293,359.42,-136.513,-12.8364,-179.956,2.61475,-144.536,544
1569677293,359.42,-136.513,-12.8364,-179.956,2.61475,-144.536,544
1569677293,359.42,-136.513,-12.8364,-179.978,2.63672,-144.536,544
1569677293,359.42,-136.624,-12.8364,-179.978,2.63672,-144.536,544
1569677293,359.42,-136.624,-12.8364,-179.978,2.63672,-144.536,544
1569677293,359.42,-136.624,-12.8364,-179.978,2.63672,-144.536,544
1569677293,359.42,-136.624,-12.8364,-179.978,2.63672,-144.536,540
1569677293,359.42,-136.624,-12.8364,-179.978,2.63672,-144.536,544
1569677293,359.42,-136.624,-12.8364,-179.978,2.63672,-144.514,544
1569677293,359.42,-136.624,-12.8364,-179.978,2.63672,-144.514,544
1569677293,359.42,-136.624,-12.8364,-179.978,2.63672,-144.514,544
1569677293,359.42,-136.624,-12.8364,-179.978,2.63672,-144.514,544
1569677293,359.42,-136.624,-12.8364,-179.978,2.63672,-144.514,544
1569677293,359.42,-136.624,-12.8364,-179.978,2.63672,-144.514,544
1569677293,359.42,-136.624,-12.8364,-179.978,2.63672,-144.514,544
1569677293,359.42,-136.624,-12.8364,-179.978,2.63672,-144.514,544
1569677293,359.42,-136.624,-12.8364,-179.978,2.61475,-144.514,544
1569677293,359.42,-136.624,-12.8364,-179.978,2.61475,-144.514,544
1569677293,359.42,-136.624,-12.8364,-179.978,2.61475,-144.514,544
1569677293,359.42,-136.624,-12.8364,-179.978,2.61475,-144.514,544
1569677293,359.42,-136.624,-12.8364,-179.978,2.61475,-144.536,544
1569677293,359.42,-136.624,-12.8364,-179.978,2.61475,-144.536,544
1569677293,359.42,-136.624,-12.8364,-179.978,2.61475,-144.536,544
1569677294,359.42,-136.624,-12.8364,-179.978,2.61475,-144.536,544
1569677294,359.42,-136.624,-12.8364,-179.978,2.61475,-144.536,544
1569677294,359.42,-136.513,-12.8364,-179.978,2.61475,-144.536,544
1569677294,359.42,-136.513,-12.8364,-179.978,2.61475,-144.536,544
1569677294,359.42,-136.513,-12.8364,-179.978,2.61475,-144.536,544
1569677294,359.42,-136.513,-12.948,-179.956,2.59277,-144.536,544
1569677294,359.42,-136.513,-12.948,-179.956,2.59277,-144.536,544
1569677294,359.42,-136.513,-12.948,-179.956,2.59277,-144.536,544
1569677294,359.42,-136.513,-12.948,-179.956,2.59277,-144.536,544
1569677294,359.42,-136.513,-12.948,-179.956,2.59277,-144.536,544
1569677294,359.42,-136.513,-12.948,-179.956,2.59277,-144.536,544
1569677294,359.42,-136.513,-12.948,-179.956,2.59277,-144.514,544
1569677294,359.42,-136.513,-12.948,-179.934,2.59277,-144.514,544
1569677294,359.42,-136.513,-12.948,-179.934,2.59277,-144.514,544
1569677294,359.42,-136.401,-12.948,-179.934,2.59277,-144.514,544
1569677294,359.42,-136.401,-12.948,-179.934,2.59277,-144.536,540
1569677294,359.42,-136.401,-12.948,-179.934,2.59277,-144.536,540
1569677294,359.42,-136.401,-12.948,-179.934,2.59277,-144.536,540
1569677294,359.42,-136.401,-12.948,-179.934,2.59277,-144.536,540
1569677294,359.42,-136.401,-12.948,-179.934,2.59277,-144.536,540
1569677294,359.42,-136.401,-12.948,-179.934,2.59277,-144.514,540
1569677294,359.42,-136.401,-12.948,-179.934,2.59277,-144.514,540
1569677294,359.42,-136.401,-12.948,-179.934,2.59277,-144.514,540
1569677294,359.42,-136.401,-12.948,-179.934,2.59277,-144.514,540
1569677294,359.42,-136.401,-12.948,-179.934,2.59277,-144.514,540
1569677294,359.42,-136.401,-12.948,-179.934,2.59277,-144.514,536
1569677294,359.42,-136.401,-12.948,-179.934,2.59277,-144.514,536
1569677294,359.42,-136.513,-12.948,-179.934,2.59277,-144.514,536
1569677294,359.42,-136.513,-12.948,-179.934,2.59277,-144.514,536
1569677294,359.42,-136.513,-12.948,-179.934,2.59277,-144.514,536
1569677294,359.42,-136.513,-12.948,-179.934,2.59277,-144.514,536
1569677294,359.42,-136.513,-12.948,-179.934,2.59277,-144.514,536
1569677294,359.42,-136.513,-12.948,-179.934,2.59277,-144.514,532
1569677294,359.42,-136.513,-12.948,-179.934,2.59277,-144.514,532
1569677294,359.532,-136.513,-12.948,-179.956,2.59277,-144.514,532
1569677294,359.532,-136.513,-12.948,-179.956,2.59277,-144.514,532
1569677294,359.532,-136.513,-12.948,-179.956,2.59277,-144.514,532
1569677294,359.42,-136.513,-12.948,-179.956,2.59277,-144.514,532
1569677294,359.42,-136.624,-12.948,-179.956,2.59277,-144.514,532
1569677294,359.42,-136.624,-12.948,-179.956,2.59277,-144.514,532
1569677294,359.42,-136.624,-12.948,-179.956,2.5708,-144.514,532
1569677294,359.42,-136.624,-12.948,-179.978,2.5708,-144.514,532
1569677294,359.42,-136.624,-12.948,-179.978,2.5708,-144.514,532
1569677294,359.42,-136.624,-12.948,-179.978,2.5708,-144.514,532
1569677294,359.42,-136.624,-12.948,-179.978,2.5708,-144.514,532
1569677294,359.42,-136.624,-12.948,-179.978,2.5708,-144.514,532
1569677294,359.42,-136.624,-12.948,-179.978,2.5708,-144.514,532
1569677294,359.42,-136.624,-12.948,-179.978,2.5708,-144.514,532
1569677294,359.42,-136.624,-12.948,-179.978,2.5708,-144.514,532
1569677294,359.42,-136.624,-12.948,-179.978,2.5708,-144.514,532
1569677294,359.42,-136.624,-12.948,-179.978,2.5708,-144.514,532
1569677294,359.42,-136.624,-12.948,-179.978,2.5708,-144.514,532
1569677294,359.42,-136.624,-13.0597,-179.978,2.5708,-144.514,532
1569677294,359.42,-136.624,-13.0597,-179.978,2.5708,-144.514,532
1569677294,359.42,-136.624,-13.0597,-179.978,2.5708,-144.514,532
1569677294,359.42,-136.624,-13.0597,-179.978,2.5708,-144.514,532
1569677294,359.42,-136.624,-13.0597,-179.978,2.5708,-144.514,532
1569677294,359.42,-136.624,-13.0597,-179.978,2.5708,-144.514,532
1569677294,359.42,-136.624,-13.0597,-179.978,2.5708,-144.514,532
1569677294,359.42,-136.624,-13.0597,-179.978,2.5708,-144.514,532
1569677294,359.42,-136.624,-13.0597,-179.978,2.5708,-144.514,532
1569677294,359.42,-136.624,-13.0597,-179.978,2.5708,-144.514,532
1569677294,359.42,-136.624,-13.0597,-179.978,2.5708,-144.514,536
1569677294,359.42,-136.624,-13.0597,-179.956,2.5708,-144.514,536
1569677294,359.42,-136.624,-13.0597,-179.956,2.5708,-144.514,536
1569677294,359.42,-136.513,-13.0597,-179.956,2.5708,-144.492,540
1569677294,359.42,-136.513,-13.0597,-179.956,2.5708,-144.492,540
1569677294,359.42,-136.513,-13.0597,-179.956,2.5708,-144.492,540
1569677294,359.42,-136.513,-13.0597,-179.956,2.5708,-144.492,540
1569677294,359.42,-136.513,-13.0597,-179.956,2.5708,-144.492,544
1569677294,359.42,-136.513,-12.948,-179.956,2.5708,-144.492,544
1569677294,359.42,-136.513,-13.0597,-179.956,2.5708,-144.492,544
1569677294,359.42,-136.513,-13.0597,-179.956,2.5708,-144.514,544
1569677294,359.42,-136.513,-13.0597,-179.956,2.5708,-144.514,544
1569677294,359.42,-136.513,-13.0597,-179.956,2.5708,-144.514,544
1569677294,359.42,-136.513,-13.0597,-179.956,2.5708,-144.514,544
1569677294,359.42,-136.513,-13.0597,-179.956,2.5708,-144.514,544
1569677294,359.42,-136.513,-13.0597,-179.956,2.5708,-144.514,540
1569677294,359.42,-136.513,-13.0597,-179.956,2.5708,-144.514,540
1569677294,359.42,-136.513,-13.0597,-179.956,2.5708,-144.536,540
1569677294,359.42,-136.513,-13.0597,-179.956,2.5708,-144.536,540
1569677294,359.42,-136.513,-13.0597,-179.956,2.5708,-144.536,540
1569677294,359.42,-136.513,-13.0597,-179.934,2.5708,-144.536,540
1569677294,359.42,-136.513,-13.0597,-179.934,2.5708,-144.536,540
1569677294,359.42,-136.513,-13.0597,-179.934,2.5708,-144.536,540
1569677294,359.42,-136.513,-13.0597,-179.934,2.5708,-144.536,536
1569677294,359.42,-136.513,-13.0597,-179.934,2.54883,-144.514,536
1569677294,359.42,-136.513,-13.0597,-179.934,2.54883,-144.514,536
1569677294,359.42,-136.513,-13.0597,-179.934,2.54883,-144.514,532
1569677294,359.42,-136.513,-13.0597,-179.934,2.54883,-144.514,532
1569677294,359.42,-136.513,-13.0597,-179.934,2.54883,-144.514,532
1569677294,359.42,-136.513,-13.0597,-179.934,2.54883,-144.514,532
1569677294,359.42,-136.513,-13.0597,-179.934,2.54883,-144.514,532
1569677294,359.42,-136.513,-13.0597,-179.934,2.54883,-144.536,532
1569677294,359.42,-136.513,-13.0597,-179.934,2.54883,-144.536,532
1569677294,359.42,-136.513,-13.0597,-179.934,2.54883,-144.536,532
1569677294,359.42,-136.513,-13.0597,-179.934,2.5708,-144.536,532
1569677294,359.42,-136.513,-13.0597,-179.934,2.5708,-144.536,532
1569677294,359.42,-136.513,-13.0597,-179.934,2.5708,-144.536,532
1569677294,359.42,-136.513,-13.0597,-179.934,2.5708,-144.536,532
1569677295,359.42,-136.513,-13.0597,-179.934,2.5708,-144.536,532
1569677295,359.42,-136.513,-13.0597,-179.934,2.5708,-144.536,532
1569677295,359.42,-136.513,-13.0597,-179.956,2.5708,-144.536,532
1569677295,359.42,-136.513,-13.0597,-179.956,2.5708,-144.536,532
1569677295,359.42,-136.513,-13.0597,-179.956,2.5708,-144.536,532
1569677295,359.42,-136.513,-13.0597,-179.956,2.5708,-144.536,536
1569677295,359.42,-136.513,-12.948,-179.956,2.59277,-144.536,536
1569677295,359.42,-136.624,-12.948,-179.956,2.59277,-144.536,536
1569677295,359.42,-136.624,-12.948,-179.956,2.59277,-144.536,536
1569677295,359.42,-136.624,-12.948,-179.956,2.59277,-144.536,536
1569677295,359.42,-136.624,-12.948,-179.956,2.59277,-144.536,536
1569677295,359.42,-136.624,-12.948,-179.956,2.59277,-144.536,536
1569677295,359.42,-136.513,-12.948,-179.956,2.59277,-144.536,540
1569677295,359.42,-136.513,-12.948,-179.956,2.59277,-144.536,540
1569677295,359.42,-136.513,-12.948,-179.956,2.59277,-144.536,540
1569677295,359.42,-136.513,-12.948,-179.956,2.59277,-144.536,540
1569677295,359.42,-136.513,-12.948,-179.956,2.59277,-144.536,540
1569677295,359.42,-136.513,-12.948,-179.956,2.59277,-144.536,540
1569677295,359.42,-136.513,-12.948,-179.956,2.59277,-144.536,544
1569677295,359.42,-136.513,-12.948,-179.956,2.59277,-144.536,544
1569677295,359.42,-136.513,-12.948,-179.956,2.59277,-144.536,544
1569677295,359.42,-136.513,-12.948,-179.978,2.59277,-144.536,544
1569677295,359.42,-136.513,-12.948,-179.978,2.59277,-144.536,548
1569677295,359.42,-136.513,-12.948,-179.978,2.59277,-144.536,548
1569677295,359.42,-136.513,-12.948,-179.978,2.59277,-144.536,548
1569677295,359.42,-136.513,-12.948,-179.978,2.59277,-144.536,548
1569677295,359.42,-136.513,-12.948,-179.978,2.59277,-144.536,552
1569677295,359.42,-136.513,-12.948,-179.978,2.59277,-144.536,552
1569677295,359.42,-136.513,-12.948,-179.978,2.59277,-144.536,552
1569677295,359.42,-136.513,-12.948,-179.978,2.59277,-144.536,552
1569677295,359.42,-136.513,-12.948,-179.978,2.59277,-144.536,552
1569677295,359.42,-136.513,-12.948,-179.978,2.59277,-144.536,552
1569677295,359.42,-136.513,-12.948,-179.978,2.59277,-144.536,552
1569677295,359.42,-136.513,-12.948,-179.978,2.59277,-144.536,552
1569677295,359.42,-136.513,-12.948,-179.978,2.59277,-144.536,552
1569677295,359.42,-136.513,-12.948,-179.956,2.59277,-144.536,552
1569677295,359.42,-136.513,-12.948,-179.956,2.59277,-144.536,552
1569677295,359.42,-136.513,-12.948,-179.956,2.59277,-144.536,552
1569677295,359.42,-136.513,-12.948,-179.956,2.59277,-144.536,552
1569677295,359.42,-136.513,-12.948,-179.956,2.59277,-144.536,552
1569677295,359.42,-136.513,-12.948,-179.956,2.59277,-144.536,552
1569677295,359.42,-136.513,-12.948,-179.956,2.61475,-144.536,552
1569677295,359.42,-136.513,-12.948,-179.956,2.61475,-144.536,552
1569677295,359.42,-136.513,-12.948,-179.956,2.61475,-144.536,552
1569677295,359.42,-136.513,-12.948,-179.956,2.61475,-144.536,552
1569677295,359.42,-136.513,-12.948,-179.956,2.59277,-144.558,552
1569677295,359.42,-136.513,-12.948,-179.956,2.59277,-144.558,552
1569677295,359.42,-136.513,-12.948,-179.956,2.59277,-144.558,552
1569677295,359.42,-136.513,-12.948,-179.956,2.59277,-144.558,552
1569677295,359.42,-136.513,-12.948,-179.956,2.59277,-144.558,552
1569677295,359.42,-136.513,-12.948,-179.956,2.59277,-144.536,552
1569677295,359.42,-136.513,-12.948,-179.956,2.59277,-144.536,552
1569677295,359.42,-136.401,-12.948,-179.934,2.59277,-144.536,548
1569677295,359.42,-136.401,-12.948,-179.934,2.59277,-144.536,548
1569677295,359.42,-136.401,-12.948,-179.934,2.59277,-144.536,548
1569677295,359.42,-136.401,-12.948,-179.934,2.59277,-144.536,548
1569677295,359.42,-136.401,-12.948,-179.934,2.5708,-144.536,548
1569677295,359.42,-136.401,-12.948,-179.934,2.5708,-144.536,548
1569677295,359.42,-136.401,-12.948,-179.934,2.5708,-144.536,548
1569677295,359.42,-136.401,-12.948,-179.934,2.5708,-144.536,548
1569677295,359.42,-136.401,-12.948,-179.934,2.5708,-144.536,548
1569677295,359.42,-136.401,-12.948,-179.934,2.59277,-144.536,548
1569677295,359.42,-136.401,-12.948,-179.934,2.5708,-144.536,548
1569677295,359.42,-136.401,-12.948,-179.934,2.5708,-144.536,548
1569677295,359.42,-136.401,-12.948,-179.934,2.5708,-144.536,548
1569677295,359.42,-136.401,-12.948,-179.934,2.5708,-144.536,552
1569677295,359.42,-136.513,-12.948,-179.934,2.5708,-144.536,552
1569677295,359.42,-136.513,-12.948,-179.934,2.5708,-144.536,552
1569677295,359.42,-136.513,-12.948,-179.934,2.5708,-144.514,552
1569677295,359.42,-136.513,-12.948,-179.934,2.5708,-144.514,552
1569677295,359.42,-136.513,-12.948,-179.934,2.5708,-144.514,552
1569677295,359.42,-136.513,-12.948,-179.934,2.5708,-144.514,556
1569677295,359.42,-136.513,-12.948,-179.956,2.5708,-144.514,556
1569677295,359.42,-136.513,-12.948,-179.956,2.59277,-144.514,556
1569677295,359.42,-136.513,-12.948,-179.934,2.59277,-144.514,556
1569677295,359.42,-136.513,-12.948,-179.934,2.59277,-144.514,556
1569677295,359.42,-136.513,-12.948,-179.934,2.59277,-144.514,556
1569677295,359.42,-136.513,-12.948,-179.934,2.59277,-144.514,556
1569677295,359.42,-136.513,-12.948,-179.934,2.59277,-144.514,556
1569677295,359.42,-136.513,-12.948,-179.934,2.59277,-144.514,556
1569677295,359.42,-136.513,-12.948,-179.934,2.59277,-144.514,556
1569677295,359.42,-136.513,-12.948,-179.934,2.59277,-144.514,556
1569677295,359.42,-136.513,-12.948,-179.934,2.59277,-144.536,556
1569677295,359.42,-136.401,-12.948,-179.934,2.59277,-144.536,556
1569677295,359.42,-136.401,-12.948,-179.934,2.59277,-144.536,556
1569677295,359.42,-136.401,-12.948,-179.934,2.59277,-144.536,552
1569677295,359.42,-136.401,-12.948,-179.934,2.5708,-144.536,552
1569677295,359.42,-136.401,-12.948,-179.934,2.5708,-144.536,552
1569677295,359.42,-136.401,-12.948,-179.912,2.5708,-144.536,552
1569677295,359.42,-136.401,-12.948,-179.912,2.5708,-144.514,552
1569677295,359.42,-136.401,-12.948,-179.912,2.5708,-144.514,552
1569677295,359.42,-136.401,-12.948,-179.912,2.5708,-144.514,552
1569677295,359.42,-136.401,-12.948,-179.912,2.5708,-144.514,552
1569677295,359.42,-136.401,-12.948,-179.912,2.5708,-144.514,556
1569677295,359.42,-136.401,-12.948,-179.912,2.5708,-144.514,556
1569677295,359.42,-136.289,-12.948,-179.89,2.54883,-144.514,556
1569677295,359.42,-136.289,-12.948,-179.89,2.54883,-144.514,556
1569677295,359.42,-136.289,-12.948,-179.89,2.54883,-144.514,556
1569677295,359.42,-136.289,-12.948,-179.89,2.54883,-144.514,556
1569677295,359.42,-136.289,-12.948,-179.89,2.54883,-144.514,556
1569677296,359.42,-136.289,-12.948,-179.89,2.54883,-144.514,556
1569677296,359.308,-136.289,-12.948,-179.89,2.54883,-144.514,556
1569677296,359.308,-136.289,-12.948,-179.912,2.54883,-144.514,556
1569677296,359.308,-136.289,-12.948,-179.912,2.54883,-144.514,556
1569677296,359.308,-136.289,-12.948,-179.912,2.54883,-144.514,556
1569677296,359.308,-136.401,-12.948,-179.912,2.54883,-144.514,556
1569677296,359.308,-136.401,-12.948,-179.912,2.54883,-144.536,556
1569677296,359.308,-136.401,-12.948,-179.912,2.5708,-144.536,556
1569677296,359.308,-136.401,-12.948,-179.934,2.5708,-144.536,556
1569677296,359.308,-136.401,-12.948,-179.934,2.5708,-144.536,552
1569677296,359.308,-136.401,-12.948,-179.934,2.5708,-144.536,552
1569677296,359.308,-136.401,-12.948,-179.934,2.5708,-144.536,552
1569677296,359.308,-136.401,-12.948,-179.934,2.5708,-144.536,552
1569677296,359.308,-136.513,-12.948,-179.956,2.5708,-144.536,552
1569677296,359.308,-136.513,-12.948,-179.956,2.5708,-144.536,552
1569677296,359.308,-136.513,-12.948,-179.956,2.5708,-144.536,552
1569677296,359.308,-136.513,-12.948,-179.956,2.5708,-144.514,548
1569677296,359.308,-136.513,-12.948,-179.956,2.5708,-144.514,548
1569677296,359.308,-136.513,-12.948,-179.956,2.5708,-144.514,548
1569677296,359.308,-136.513,-12.948,-179.956,2.5708,-144.514,548
1569677296,359.308,-136.513,-12.948,-179.956,2.5708,-144.514,548
1569677296,359.308,-136.513,-12.948,-179.956,2.5708,-144.514,548
1569677296,359.308,-136.513,-12.948,-179.956,2.5708,-144.514,548
1569677296,359.308,-136.513,-12.948,-179.956,2.5708,-144.514,548
1569677296,359.308,-136.513,-12.948,-179.956,2.5708,-144.514,548
1569677296,359.308,-136.513,-12.948,-179.956,2.5708,-144.536,548
1569677296,359.308,-136.513,-12.948,-179.956,2.5708,-144.536,548
1569677296,359.308,-136.513,-12.948,-179.956,2.59277,-144.536,548
1569677296,359.308,-136.513,-12.948,-179.956,2.59277,-144.536,548
1569677296,359.308,-136.513,-12.948,-179.956,2.59277,-144.536,548
1569677296,359.308,-136.513,-12.948,-179.956,2.59277,-144.536,548
1569677296,359.308,-136.513,-12.948,-179.956,2.5708,-144.536,548
1569677296,359.308,-136.513,-13.0597,-179.956,2.5708,-144.536,548
1569677296,359.308,-136.513,-13.0597,-179.956,2.5708,-144.536,544
1569677296,359.308,-136.513,-13.0597,-179.956,2.5708,-144.536,544
1569677296,359.308,-136.513,-13.0597,-179.956,2.5708,-144.536,544
1569677296,359.308,-136.513,-13.0597,-179.934,2.5708,-144.536,544
1569677296,359.308,-136.401,-13.0597,-179.934,2.5708,-144.536,544
1569677296,359.308,-136.401,-13.0597,-179.934,2.5708,-144.536,544
1569677296,359.308,-136.401,-13.0597,-179.934,2.5708,-144.558,544
1569677296,359.308,-136.401,-13.0597,-179.934,2.5708,-144.558,544
1569677296,359.42,-136.401,-13.0597,-179.934,2.5708,-144.558,540
1569677296,359.42,-136.401,-13.0597,-179.934,2.5708,-144.558,540
1569677296,359.42,-136.401,-13.0597,-179.934,2.5708,-144.558,540
1569677296,359.42,-136.401,-13.0597,-179.934,2.5708,-144.558,540
1569677296,359.42,-136.401,-13.0597,-179.934,2.5708,-144.558,540
1569677296,359.42,-136.401,-13.0597,-179.934,2.5708,-144.558,540
1569677296,359.42,-136.401,-13.0597,-179.934,2.5708,-144.558,544
1569677296,359.42,-136.401,-13.0597,-179.934,2.5708,-144.558,544
1569677296,359.42,-136.401,-13.0597,-179.934,2.59277,-144.558,544
1569677296,359.42,-136.513,-12.948,-179.956,2.59277,-144.558,544
1569677296,359.42,-136.513,-12.948,-179.956,2.59277,-144.558,544
1569677296,359.42,-136.513,-12.948,-179.956,2.59277,-144.558,544
1569677296,359.42,-136.513,-12.948,-179.956,2.59277,-144.558,544
1569677296,359.42,-136.513,-12.948,-179.956,2.61475,-144.558,544
1569677296,359.42,-136.513,-12.948,-179.956,2.61475,-144.558,544
1569677296,359.42,-136.513,-12.948,-179.956,2.61475,-144.558,544
1569677296,359.42,-136.513,-12.948,-179.956,2.61475,-144.558,544
1569677296,359.42,-136.513,-12.948,-179.956,2.61475,-144.558,544
1569677296,359.42,-136.513,-12.948,-179.956,2.61475,-144.558,544
1569677296,359.42,-136.513,-12.948,-179.956,2.61475,-144.558,544
1569677296,359.42,-136.513,-12.948,-179.956,2.61475,-144.558,544
1569677296,359.42,-136.513,-12.948,-179.956,2.61475,-144.558,544
1569677296,359.42,-136.513,-12.948,-179.956,2.61475,-144.558,544
1569677296,359.42,-136.513,-12.948,-179.956,2.59277,-144.558,544
1569677296,359.42,-136.513,-12.948,-179.956,2.59277,-144.558,544
1569677296,359.42,-136.513,-12.948,-179.956,2.59277,-144.558,544
1569677296,359.42,-136.513,-12.948,-179.956,2.59277,-144.558,544
1569677296,359.42,-136.513,-12.948,-179.956,2.59277,-144.558,544
1569677296,359.42,-136.513,-12.948,-179.956,2.59277,-144.558,544
1569677296,359.42,-136.513,-12.948,-179.956,2.59277,-144.558,544
1569677296,359.42,-136.513,-12.948,-179.956,2.59277,-144.558,544
1569677296,359.42,-136.513,-12.948,-179.956,2.59277,-144.558,544
1569677296,359.42,-136.513,-12.948,-179.956,2.59277,-144.558,544
1569677296,359.42,-136.624,-12.948,-179.956,2.59277,-144.558,544
1569677296,359.42,-136.624,-12.948,-179.956,2.59277,-144.558,544
1569677296,359.42,-136.624,-12.948,-179.956,2.59277,-144.558,544
1569677296,359.42,-136.624,-12.948,-179.978,2.59277,-144.558,540
1569677296,359.42,-136.624,-12.948,-179.978,2.5708,-144.558,540
1569677296,359.42,-136.624,-12.948,-179.978,2.5708,-144.558,540
1569677296,359.42,-136.624,-12.948,-179.978,2.5708,-144.536,540
1569677296,359.42,-136.624,-12.948,-179.978,2.5708,-144.536,540
1569677296,359.42,-136.624,-12.948,-179.978,2.5708,-144.536,540
1569677296,359.42,-136.624,-12.948,-179.978,2.5708,-144.536,540
1569677296,359.42,-136.624,-12.948,-179.978,2.5708,-144.536,540
1569677296,359.42,-136.624,-12.948,-179.978,2.5708,-144.536,540
1569677296,359.42,-136.624,-12.948,-179.978,2.5708,-144.536,540
1569677296,359.42,-136.624,-12.948,-179.978,2.59277,-144.536,540
1569677296,359.42,-136.624,-12.948,-180,2.59277,-144.536,540
1569677296,359.42,-136.624,-12.948,-180,2.59277,-144.536,540
1569677296,359.42,-136.624,-12.948,-180,2.59277,-144.536,540
1569677296,359.42,-136.624,-12.948,-180,2.59277,-144.536,540
1569677296,359.308,-136.624,-12.948,-180,2.59277,-144.536,540
1569677296,359.308,-136.624,-12.948,-180,2.59277,-144.536,540
1569677296,359.308,-136.624,-12.948,-180,2.59277,-144.536,540
1569677296,359.308,-136.624,-12.948,-180,2.59277,-144.536,540
1569677296,359.308,-136.624,-12.948,-180,2.59277,-144.536,540
1569677296,359.308,-136.624,-12.948,-180,2.59277,-144.536,544
1569677296,359.308,-136.624,-12.948,-180,2.59277,-144.536,544
1569677297,359.308,-136.624,-12.948,-180,2.59277,-144.536,544
1569677297,359.308,-136.624,-12.948,-179.978,2.59277,-144.536,544
1569677297,359.308,-136.513,-12.948,-179.978,2.5708,-144.536,548
1569677297,359.308,-136.513,-12.948,-179.978,2.5708,-144.536,548
1569677297,359.308,-136.513,-12.948,-179.978,2.5708,-144.536,548
1569677297,359.308,-136.513,-12.948,-179.978,2.5708,-144.536,548
1569677297,359.308,-136.513,-12.948,-179.956,2.5708,-144.536,548
1569677297,359.308,-136.513,-12.948,-179.956,2.5708,-144.536,548
1569677297,359.42,-136.513,-12.948,-179.956,2.5708,-144.536,548
1569677297,359.42,-136.513,-12.948,-179.956,2.5708,-144.536,548
1569677297,359.42,-136.513,-12.948,-179.956,2.59277,-144.536,548
1569677297,359.42,-136.513,-12.948,-179.956,2.59277,-144.536,548
1569677297,359.42,-136.513,-12.948,-179.956,2.59277,-144.536,548
1569677297,359.42,-136.513,-12.948,-179.956,2.59277,-144.536,548
1569677297,359.42,-136.513,-12.948,-179.956,2.59277,-144.536,548
1569677297,359.42,-136.513,-12.948,-179.956,2.59277,-144.514,544
1569677297,359.42,-136.513,-12.948,-179.934,2.59277,-144.514,544
1569677297,359.42,-136.513,-12.948,-179.934,2.59277,-144.514,544
1569677297,359.42,-136.401,-12.948,-179.934,2.59277,-144.514,544
1569677297,359.42,-136.401,-12.948,-179.934,2.5708,-144.514,544
1569677297,359.42,-136.401,-12.948,-179.934,2.5708,-144.514,540
1569677297,359.42,-136.401,-13.0597,-179.934,2.5708,-144.514,540
1569677297,359.42,-136.401,-13.0597,-179.934,2.5708,-144.514,540
1569677297,359.42,-136.401,-13.0597,-179.934,2.5708,-144.514,540
1569677297,359.42,-136.401,-13.0597,-179.934,2.5708,-144.514,540
1569677297,359.42,-136.513,-13.0597,-179.934,2.5708,-144.536,540
1569677297,359.308,-136.513,-13.0597,-179.934,2.5708,-144.536,540
1569677297,359.308,-136.513,-13.0597,-179.956,2.5708,-144.536,540
1569677297,359.308,-136.513,-13.0597,-179.956,2.5708,-144.536,540
1569677297,359.308,-136.513,-13.0597,-179.956,2.5708,-144.536,540
1569677297,359.308,-136.513,-13.0597,-179.956,2.5708,-144.536,540
1569677297,359.308,-136.513,-13.0597,-179.956,2.5708,-144.536,540
1569677297,359.308,-136.513,-13.0597,-179.956,2.5708,-144.536,540
1569677297,359.42,-136.513,-13.0597,-179.956,2.5708,-144.536,540
1569677297,359.42,-136.513,-13.0597,-179.956,2.5708,-144.536,540
1569677297,359.42,-136.513,-13.0597,-179.934,2.5708,-144.536,540
1569677297,359.42,-136.513,-13.0597,-179.934,2.5708,-144.536,540
1569677297,359.42,-136.513,-13.0597,-179.934,2.5708,-144.536,540
1569677297,359.42,-136.513,-13.0597,-179.934,2.5708,-144.536,540
1569677297,359.42,-136.513,-13.0597,-179.934,2.5708,-144.536,540
1569677297,359.42,-136.513,-13.0597,-179.934,2.5708,-144.536,540
1569677297,359.42,-136.401,-13.0597,-179.934,2.5708,-144.536,540
1569677297,359.42,-136.401,-13.0597,-179.934,2.5708,-144.536,544
1569677297,359.42,-136.401,-13.0597,-179.934,2.5708,-144.536,544
1569677297,359.42,-136.401,-13.0597,-179.934,2.5708,-144.536,544
1569677297,359.42,-136.401,-13.0597,-179.934,2.5708,-144.536,544
1569677297,359.42,-136.401,-13.0597,-179.934,2.5708,-144.558,544
1569677297,359.42,-136.401,-13.0597,-179.934,2.5708,-144.558,544
1569677297,359.42,-136.401,-13.0597,-179.934,2.5708,-144.558,544
1569677297,359.42,-136.401,-13.0597,-179.934,2.5708,-144.558,540
1569677297,359.42,-136.401,-13.0597,-179.934,2.5708,-144.558,540
1569677297,359.42,-136.401,-13.0597,-179.934,2.5708,-144.558,540
1569677297,359.42,-136.401,-13.0597,-179.934,2.5708,-144.558,540
1569677297,359.42,-136.401,-13.0597,-179.934,2.5708,-144.558,540
1569677297,359.42,-136.401,-13.0597,-179.934,2.5708,-144.536,540
1569677297,359.42,-136.401,-13.0597,-179.934,2.5708,-144.536,540
1569677304,320.576,-96.4406,-14.1759,179.802,2.10938,-144.756,484
1569677304,320.576,-96.4406,-14.1759,179.802,2.10938,-144.756,484
1569677304,320.576,-96.4406,-14.1759,179.802,2.10938,-144.756,484
1569677304,320.576,-96.4406,-14.1759,179.802,2.10938,-144.756,484
1569677304,320.576,-96.4406,-14.1759,179.802,2.10938,-144.756,484
1569677304,320.576,-96.4406,-14.1759,179.802,2.10938,-144.756,484
1569677304,320.576,-96.4406,-14.1759,179.802,2.10938,-144.756,484
1569677304,320.576,-96.4406,-14.1759,179.802,2.10938,-144.756,484
1569677304,320.576,-96.4406,-14.1759,179.802,2.10938,-144.756,484
1569677304,320.576,-96.4406,-14.1759,179.802,2.13135,-144.756,484
1569677304,320.576,-96.4406,-14.1759,179.824,2.13135,-144.756,484
1569677304,320.576,-96.4406,-14.1759,179.824,2.13135,-144.756,484
1569677304,320.576,-96.4406,-14.1759,179.802,2.13135,-144.756,484
1569677304,320.576,-96.4406,-14.1759,179.802,2.13135,-144.756,484
1569677304,320.576,-96.4406,-14.1759,179.802,2.13135,-144.756,484
1569677304,320.576,-96.4406,-14.1759,179.802,2.13135,-144.756,484
1569677304,320.576,-96.4406,-14.1759,179.802,2.13135,-144.756,484
1569677304,320.576,-96.4406,-14.1759,179.802,2.13135,-144.756,484
1569677304,320.576,-96.4406,-14.1759,179.802,2.13135,-144.756,484
1569677304,320.687,-96.4406,-14.1759,179.802,2.13135,-144.756,484
1569677304,320.687,-96.4406,-14.1759,179.802,2.13135,-144.756,484
1569677304,320.687,-96.4406,-14.1759,179.802,2.13135,-144.756,484
1569677304,320.687,-96.4406,-14.1759,179.802,2.13135,-144.756,484
1569677304,320.687,-96.4406,-14.1759,179.802,2.13135,-144.756,484
1569677304,320.687,-96.4406,-14.1759,179.802,2.13135,-144.756,484
1569677304,320.687,-96.4406,-14.1759,179.802,2.13135,-144.756,484
1569677304,320.687,-96.4406,-14.1759,179.802,2.13135,-144.756,484
1569677304,320.687,-96.4406,-14.1759,179.802,2.13135,-144.756,484
1569677304,320.687,-96.4406,-14.1759,179.802,2.13135,-144.756,484
1569677304,320.687,-96.4406,-14.1759,179.802,2.13135,-144.756,480
1569677304,320.687,-96.4406,-14.1759,179.802,2.13135,-144.756,480
1569677304,320.687,-96.4406,-14.1759,179.802,2.13135,-144.756,480
1569677304,320.687,-96.4406,-14.1759,179.802,2.13135,-144.756,480
1569677304,320.687,-96.4406,-14.1759,179.802,2.13135,-144.756,480
1569677304,320.687,-96.4406,-14.1759,179.802,2.13135,-144.756,480
1569677304,320.687,-96.4406,-14.1759,179.802,2.13135,-144.756,480
1569677304,320.687,-96.4406,-14.1759,179.802,2.13135,-144.756,480
1569677304,320.687,-96.4406,-14.1759,179.824,2.13135,-144.756,480
1569677304,320.687,-96.4406,-14.1759,179.824,2.13135,-144.756,480
1569677304,320.687,-96.4406,-14.1759,179.824,2.13135,-144.756,476
1569677304,320.687,-96.4406,-14.1759,179.824,2.13135,-144.756,476
1569677304,320.687,-96.4406,-14.2875,179.824,2.13135,-144.756,476
1569677304,320.687,-96.4406,-14.2875,179.824,2.13135,-144.756,476
1569677304,320.687,-96.4406,-14.2875,179.824,2.13135,-144.756,476
1569677304,320.687,-96.4406,-14.2875,179.824,2.13135,-144.756,476
1569677304,320.687,-96.4406,-14.2875,179.824,2.13135,-144.756,476
1569677304,320.687,-96.4406,-14.2875,179.824,2.13135,-144.756,476
1569677304,320.687,-96.4406,-14.2875,179.824,2.13135,-144.756,476
1569677304,320.687,-96.4406,-14.2875,179.824,2.13135,-144.756,476
1569677304,320.687,-96.4406,-14.2875,179.824,2.13135,-144.756,476
1569677304,320.687,-96.4406,-14.2875,179.824,2.10938,-144.756,476
1569677304,320.687,-96.4406,-14.2875,179.824,2.10938,-144.756,476
1569677304,320.687,-96.4406,-14.2875,179.824,2.10938,-144.756,476
1569677304,320.687,-96.4406,-14.2875,179.824,2.10938,-144.756,476
1569677304,320.687,-96.4406,-14.2875,179.824,2.10938,-144.756,476
1569677304,320.687,-96.329,-14.2875,179.846,2.10938,-144.756,476
1569677304,320.687,-96.329,-14.2875,179.846,2.10938,-144.756,476
1569677304,320.687,-96.329,-14.2875,179.846,2.10938,-144.756,476
1569677304,320.687,-96.329,-14.2875,179.846,2.10938,-144.756,476
1569677304,320.687,-96.329,-14.2875,179.846,2.10938,-144.756,476
1569677304,320.687,-96.329,-14.2875,179.846,2.10938,-144.756,476
1569677304,320.687,-96.329,-14.2875,179.846,2.10938,-144.756,476
1569677304,320.687,-96.329,-14.2875,179.846,2.10938,-144.756,476
1569677304,320.687,-96.329,-14.2875,179.824,2.10938,-144.756,476
1569677304,320.687,-96.329,-14.2875,179.824,2.10938,-144.756,476
1569677304,320.687,-96.329,-14.2875,179.824,2.10938,-144.756,476
1569677304,320.687,-96.329,-14.2875,179.824,2.10938,-144.756,476
1569677304,320.687,-96.329,-14.2875,179.824,2.10938,-144.756,472
1569677304,320.687,-96.329,-14.2875,179.824,2.10938,-144.756,472
1569677304,320.687,-96.329,-14.2875,179.824,2.10938,-144.756,472
1569677304,320.687,-96.329,-14.2875,179.846,2.10938,-144.756,472
1569677304,320.687,-96.329,-14.2875,179.846,2.10938,-144.778,472
1569677304,320.687,-96.329,-14.2875,179.846,2.10938,-144.778,472
1569677304,320.687,-96.329,-14.2875,179.846,2.10938,-144.778,472
1569677304,320.687,-96.329,-14.2875,179.846,2.10938,-144.756,468
1569677304,320.687,-96.329,-14.2875,179.846,2.10938,-144.756,468
1569677305,320.687,-96.329,-14.2875,179.846,2.10938,-144.756,468
1569677305,320.687,-96.329,-14.2875,179.846,2.10938,-144.756,468
1569677305,320.687,-96.329,-14.2875,179.846,2.10938,-144.756,468
1569677305,320.687,-96.329,-14.2875,179.846,2.10938,-144.756,468
1569677305,320.687,-96.329,-14.2875,179.846,2.10938,-144.756,468
1569677305,320.576,-96.329,-14.2875,179.824,2.10938,-144.756,468
1569677305,320.576,-96.329,-14.2875,179.824,2.10938,-144.756,468
1569677305,320.576,-96.329,-14.2875,179.824,2.10938,-144.756,468
1569677305,320.576,-96.329,-14.2875,179.824,2.10938,-144.756,468
1569677305,320.576,-96.329,-14.2875,179.824,2.10938,-144.756,472
1569677305,320.576,-96.4406,-14.2875,179.824,2.10938,-144.756,472
1569677305,320.576,-96.4406,-14.2875,179.824,2.10938,-144.756,472
1569677305,320.576,-96.4406,-14.2875,179.824,2.10938,-144.756,472
1569677305,320.576,-96.4406,-14.2875,179.824,2.10938,-144.756,472
1569677305,320.576,-96.4406,-14.1759,179.824,2.13135,-144.756,472
1569677305,320.576,-96.4406,-14.1759,179.824,2.13135,-144.756,472
1569677305,320.576,-96.4406,-14.1759,179.824,2.13135,-144.756,472
1569677305,320.576,-96.4406,-14.1759,179.802,2.13135,-144.756,472
1569677305,320.576,-96.4406,-14.1759,179.802,2.13135,-144.756,472
1569677305,320.576,-96.4406,-14.1759,179.802,2.13135,-144.756,472
1569677305,320.576,-96.4406,-14.1759,179.802,2.13135,-144.756,472
1569677305,320.576,-96.4406,-14.1759,179.802,2.13135,-144.756,472
1569677305,320.576,-96.4406,-14.1759,179.802,2.13135,-144.756,472
1569677305,320.576,-96.4406,-14.1759,179.802,2.13135,-144.756,476
1569677305,320.576,-96.4406,-14.1759,179.802,2.13135,-144.756,476
1569677305,320.576,-96.4406,-14.1759,179.802,2.13135,-144.756,476
1569677305,320.576,-96.4406,-14.1759,179.802,2.13135,-144.756,476
1569677305,320.576,-96.4406,-14.1759,179.802,2.13135,-144.756,476
1569677305,320.576,-96.4406,-14.1759,179.802,2.13135,-144.756,476
1569677305,320.576,-96.4406,-14.1759,179.802,2.13135,-144.756,476
1569677305,320.576,-96.4406,-14.1759,179.802,2.13135,-144.756,476
1569677305,320.576,-96.4406,-14.1759,179.802,2.13135,-144.756,476
1569677305,320.576,-96.4406,-14.1759,179.802,2.13135,-144.756,476
1569677305,320.576,-96.4406,-14.1759,179.802,2.13135,-144.756,476
1569677305,320.576,-96.4406,-14.1759,179.802,2.13135,-144.756,476
1569677305,320.576,-96.4406,-14.1759,179.802,2.13135,-144.756,476
1569677305,320.576,-96.4406,-14.1759,179.802,2.13135,-144.756,476
1569677305,320.576,-96.4406,-14.1759,179.802,2.13135,-144.756,476
1569677305,320.576,-96.4406,-14.1759,179.802,2.10938,-144.756,476
1569677305,320.576,-96.4406,-14.1759,179.802,2.10938,-144.756,476
1569677305,320.576,-96.4406,-14.1759,179.802,2.13135,-144.756,476
1569677305,320.576,-96.4406,-14.1759,179.802,2.13135,-144.756,476
1569677305,320.576,-96.4406,-14.1759,179.802,2.13135,-144.756,476
1569677305,320.576,-96.4406,-14.1759,179.802,2.13135,-144.756,476
1569677305,320.576,-96.4406,-14.1759,179.802,2.13135,-144.756,476
1569677305,320.576,-96.4406,-14.1759,179.824,2.13135,-144.756,476
1569677305,320.576,-96.4406,-14.2875,179.802,2.10938,-144.756,476
1569677305,320.576,-96.4406,-14.2875,179.802,2.10938,-144.756,472
1569677305,320.576,-96.4406,-14.2875,179.802,2.10938,-144.756,472
1569677305,320.576,-96.4406,-14.2875,179.802,2.10938,-144.756,472
1569677305,320.687,-96.4406,-14.2875,179.802,2.10938,-144.756,472
1569677305,320.687,-96.4406,-14.2875,179.802,2.10938,-144.756,472
1569677305,320.687,-96.4406,-14.2875,179.802,2.10938,-144.756,472
1569677305,320.687,-96.4406,-14.2875,179.802,2.10938,-144.756,472
1569677305,320.687,-96.4406,-14.2875,179.802,2.10938,-144.756,472
1569677305,320.687,-96.4406,-14.2875,179.802,2.10938,-144.756,472
1569677305,320.687,-96.4406,-14.2875,179.802,2.10938,-144.756,472
1569677305,320.687,-96.4406,-14.2875,179.802,2.10938,-144.756,472
1569677305,320.687,-96.4406,-14.2875,179.802,2.10938,-144.756,472
1569677305,320.687,-96.4406,-14.2875,179.802,2.10938,-144.756,472
1569677305,320.687,-96.4406,-14.2875,179.78,2.10938,-144.756,472
1569677305,320.687,-96.4406,-14.1759,179.78,2.13135,-144.756,472
1569677305,320.687,-96.4406,-14.1759,179.78,2.13135,-144.756,468
1569677305,320.687,-96.4406,-14.1759,179.78,2.13135,-144.756,468
1569677305,320.687,-96.4406,-14.1759,179.78,2.13135,-144.756,468
1569677305,320.687,-96.4406,-14.1759,179.78,2.13135,-144.756,468
1569677305,320.687,-96.4406,-14.1759,179.78,2.13135,-144.756,468
1569677305,320.687,-96.4406,-14.1759,179.78,2.13135,-144.756,468
1569677305,320.687,-96.4406,-14.1759,179.78,2.13135,-144.756,468
1569677305,320.687,-96.4406,-14.1759,179.78,2.13135,-144.756,468
1569677305,320.687,-96.4406,-14.1759,179.78,2.13135,-144.778,468
1569677305,320.687,-96.4406,-14.1759,179.78,2.13135,-144.778,468
1569677305,320.687,-96.4406,-14.1759,179.78,2.13135,-144.778,468
1569677305,320.687,-96.4406,-14.2875,179.78,2.13135,-144.778,464
1569677305,320.687,-96.4406,-14.2875,179.78,2.13135,-144.778,464
1569677305,320.687,-96.4406,-14.2875,179.78,2.13135,-144.778,464
1569677305,320.687,-96.4406,-14.2875,179.78,2.13135,-144.778,464
1569677305,320.687,-96.4406,-14.2875,179.78,2.13135,-144.778,464
1569677305,320.687,-96.4406,-14.2875,179.78,2.13135,-144.778,464
1569677305,320.687,-96.4406,-14.2875,179.802,2.13135,-144.778,464
1569677305,320.687,-96.4406,-14.2875,179.802,2.13135,-144.778,464
1569677305,320.687,-96.4406,-14.2875,179.802,2.13135,-144.778,464
1569677305,320.687,-96.4406,-14.2875,179.802,2.13135,-144.778,468
1569677305,320.687,-96.4406,-14.2875,179.802,2.13135,-144.778,468
1569677305,320.687,-96.4406,-14.2875,179.802,2.13135,-144.756,468
1569677305,320.687,-96.4406,-14.2875,179.802,2.10938,-144.756,468
1569677305,320.687,-96.4406,-14.2875,179.802,2.10938,-144.756,468
1569677305,320.687,-96.4406,-14.2875,179.802,2.10938,-144.756,468
1569677305,320.687,-96.4406,-14.2875,179.802,2.10938,-144.756,468
1569677305,320.687,-96.4406,-14.2875,179.802,2.10938,-144.756,468
1569677305,320.687,-96.4406,-14.2875,179.802,2.10938,-144.756,468
1569677305,320.687,-96.4406,-14.2875,179.802,2.10938,-144.756,468
1569677305,320.687,-96.4406,-14.2875,179.802,2.10938,-144.756,468
1569677305,320.687,-96.4406,-14.2875,179.802,2.10938,-144.756,468
1569677305,320.687,-96.4406,-14.2875,179.802,2.10938,-144.756,464
1569677305,320.687,-96.4406,-14.2875,179.802,2.10938,-144.756,464
1569677305,320.687,-96.4406,-14.2875,179.802,2.10938,-144.756,464
1569677305,320.687,-96.4406,-14.2875,179.802,2.10938,-144.756,464
1569677305,320.687,-96.4406,-14.2875,179.802,2.10938,-144.756,464
1569677305,320.687,-96.4406,-14.2875,179.802,2.10938,-144.756,464
1569677306,320.687,-96.4406,-14.2875,179.802,2.13135,-144.756,464
1569677306,320.687,-96.4406,-14.1759,179.802,2.13135,-144.756,460
1569677306,320.687,-96.4406,-14.1759,179.802,2.13135,-144.756,460
1569677306,320.687,-96.4406,-14.1759,179.802,2.13135,-144.756,460
1569677306,320.687,-96.4406,-14.1759,179.802,2.13135,-144.756,460
1569677306,320.687,-96.4406,-14.1759,179.802,2.13135,-144.756,460
1569677306,320.687,-96.4406,-14.1759,179.802,2.13135,-144.756,460
1569677306,320.687,-96.4406,-14.1759,179.802,2.13135,-144.756,460
1569677306,320.687,-96.4406,-14.1759,179.802,2.13135,-144.756,460
1569677306,320.687,-96.4406,-14.1759,179.802,2.13135,-144.756,460
1569677306,320.687,-96.4406,-14.1759,179.802,2.13135,-144.756,460
1569677306,320.687,-96.4406,-14.1759,179.802,2.13135,-144.756,460
1569677306,320.687,-96.4406,-14.1759,179.802,2.13135,-144.756,460
1569677306,320.687,-96.4406,-14.1759,179.802,2.13135,-144.756,460
1569677306,320.687,-96.4406,-14.1759,179.802,2.13135,-144.756,460
1569677306,320.687,-96.4406,-14.1759,179.802,2.10938,-144.756,460
1569677306,320.687,-96.4406,-14.1759,179.802,2.10938,-144.756,460
1569677306,320.687,-96.4406,-14.1759,179.824,2.10938,-144.756,460
1569677306,320.687,-96.4406,-14.1759,179.824,2.10938,-144.756,460
1569677306,320.687,-96.4406,-14.2875,179.824,2.10938,-144.756,460
1569677306,320.687,-96.4406,-14.2875,179.824,2.10938,-144.756,460
1569677306,320.687,-96.4406,-14.2875,179.824,2.10938,-144.756,464
1569677306,320.687,-96.4406,-14.2875,179.824,2.10938,-144.756,464
1569677306,320.687,-96.4406,-14.2875,179.824,2.10938,-144.756,464
1569677306,320.687,-96.4406,-14.2875,179.824,2.10938,-144.756,464
1569677306,320.687,-96.4406,-14.2875,179.824,2.10938,-144.756,464
1569677306,320.687,-96.4406,-14.2875,179.846,2.10938,-144.756,464
1569677306,320.687,-96.4406,-14.2875,179.846,2.10938,-144.756,464
1569677306,320.687,-96.4406,-14.2875,179.846,2.10938,-144.756,464
1569677306,320.687,-96.4406,-14.2875,179.846,2.10938,-144.756,464
1569677306,320.687,-96.4406,-14.2875,179.846,2.10938,-144.756,464
1569677306,320.687,-96.4406,-14.2875,179.846,2.10938,-144.756,464
1569677306,320.687,-96.4406,-14.2875,179.824,2.10938,-144.756,464
1569677306,320.687,-96.4406,-14.2875,179.824,2.10938,-144.756,464
1569677306,320.687,-96.4406,-14.2875,179.824,2.10938,-144.756,468
1569677306,320.687,-96.4406,-14.2875,179.824,2.10938,-144.756,468
1569677306,320.687,-96.4406,-14.2875,179.824,2.10938,-144.756,468
1569677306,320.687,-96.4406,-14.2875,179.824,2.10938,-144.756,468
1569677306,320.687,-96.4406,-14.2875,179.824,2.10938,-144.756,468
1569677306,320.687,-96.4406,-14.2875,179.824,2.10938,-144.756,468
1569677306,320.687,-96.4406,-14.2875,179.824,2.10938,-144.756,468
1569677306,320.687,-96.4406,-14.2875,179.824,2.10938,-144.756,468
1569677306,320.687,-96.4406,-14.2875,179.824,2.10938,-144.756,468
1569677306,320.687,-96.4406,-14.2875,179.824,2.10938,-144.756,468
1569677306,320.687,-96.4406,-14.2875,179.824,2.10938,-144.756,468
1569677306,320.687,-96.4406,-14.2875,179.824,2.10938,-144.756,468
1569677306,320.687,-96.4406,-14.2875,179.824,2.10938,-144.756,468
1569677306,320.687,-96.4406,-14.2875,179.824,2.10938,-144.756,468
1569677306,320.687,-96.4406,-14.2875,179.824,2.10938,-144.756,468
1569677306,320.687,-96.4406,-14.2875,179.824,2.10938,-144.756,468
1569677306,320.687,-96.4406,-14.2875,179.824,2.10938,-144.756,468
1569677306,320.687,-96.4406,-14.2875,179.824,2.10938,-144.756,464
1569677306,320.687,-96.4406,-14.2875,179.824,2.10938,-144.756,464
1569677306,320.687,-96.4406,-14.2875,179.824,2.10938,-144.756,464
1569677306,320.687,-96.4406,-14.2875,179.824,2.10938,-144.756,464
1569677306,320.687,-96.4406,-14.2875,179.824,2.10938,-144.756,464
1569677306,320.687,-96.4406,-14.2875,179.824,2.10938,-144.756,464
1569677306,320.687,-96.4406,-14.2875,179.802,2.10938,-144.756,464
1569677306,320.687,-96.4406,-14.2875,179.802,2.10938,-144.756,468
1569677306,320.687,-96.4406,-14.2875,179.802,2.10938,-144.756,468
1569677306,320.687,-96.4406,-14.2875,179.824,2.0874,-144.756,468
1569677306,320.687,-96.4406,-14.2875,179.824,2.0874,-144.756,468
1569677306,320.687,-96.4406,-14.2875,179.824,2.0874,-144.756,468
1569677306,320.687,-96.4406,-14.2875,179.824,2.0874,-144.756,468
1569677306,320.687,-96.4406,-14.2875,179.824,2.0874,-144.756,468
1569677306,320.687,-96.4406,-14.2875,179.824,2.0874,-144.756,468
1569677306,320.687,-96.4406,-14.2875,179.824,2.10938,-144.756,468
1569677306,320.687,-96.4406,-14.2875,179.824,2.10938,-144.756,468
1569677306,320.687,-96.4406,-14.2875,179.824,2.10938,-144.756,468
1569677306,320.687,-96.4406,-14.2875,179.824,2.10938,-144.756,468
1569677306,320.687,-96.4406,-14.2875,179.824,2.10938,-144.756,468
1569677306,320.687,-96.4406,-14.2875,179.824,2.10938,-144.756,472
1569677306,320.687,-96.4406,-14.2875,179.824,2.10938,-144.756,472
1569677306,320.687,-96.4406,-14.2875,179.824,2.10938,-144.756,472
1569677306,320.687,-96.4406,-14.2875,179.824,2.10938,-144.756,472
1569677306,320.687,-96.4406,-14.2875,179.824,2.10938,-144.756,472
1569677306,320.687,-96.4406,-14.1759,179.824,2.10938,-144.756,472
1569677306,320.687,-96.4406,-14.1759,179.824,2.10938,-144.756,472
1569677306,320.687,-96.4406,-14.1759,179.824,2.10938,-144.756,472
1569677306,320.687,-96.4406,-14.1759,179.824,2.10938,-144.756,472
1569677306,320.687,-96.4406,-14.1759,179.824,2.10938,-144.756,472
1569677306,320.687,-96.4406,-14.2875,179.824,2.10938,-144.756,472
1569677306,320.687,-96.4406,-14.2875,179.824,2.10938,-144.756,472
1569677306,320.687,-96.4406,-14.2875,179.824,2.10938,-144.756,472
1569677306,320.687,-96.4406,-14.2875,179.824,2.10938,-144.756,472
1569677306,320.687,-96.4406,-14.2875,179.824,2.10938,-144.756,472
1569677306,320.687,-96.4406,-14.2875,179.824,2.10938,-144.756,472
1569677306,320.687,-96.4406,-14.2875,179.824,2.10938,-144.756,472
1569677306,320.687,-96.4406,-14.2875,179.824,2.10938,-144.756,472
1569677306,320.687,-96.4406,-14.2875,179.824,2.10938,-144.756,476
1569677306,320.687,-96.4406,-14.2875,179.824,2.10938,-144.756,476
1569677306,320.687,-96.4406,-14.2875,179.824,2.10938,-144.756,476
1569677306,320.687,-96.4406,-14.2875,179.802,2.10938,-144.756,476
1569677306,320.687,-96.4406,-14.2875,179.802,2.10938,-144.756,476
1569677306,320.687,-96.4406,-14.2875,179.802,2.10938,-144.756,476
1569677306,320.687,-96.4406,-14.2875,179.802,2.10938,-144.756,476
1569677306,320.687,-96.4406,-14.2875,179.802,2.10938,-144.756,476
1569677306,320.687,-96.4406,-14.2875,179.802,2.10938,-144.756,476
1569677306,320.687,-96.4406,-14.2875,179.802,2.10938,-144.756,476
1569677306,320.687,-96.4406,-14.2875,179.78,2.10938,-144.756,476
1569677307,320.687,-96.4406,-14.2875,179.78,2.10938,-144.756,472
1569677307,320.576,-96.5522,-14.2875,179.78,2.10938,-144.756,472
1569677307,320.576,-96.5522,-14.2875,179.78,2.10938,-144.756,472
1569677307,320.576,-96.5522,-14.2875,179.78,2.10938,-144.756,472
1569677307,320.576,-96.5522,-14.2875,179.78,2.10938,-144.756,472
1569677307,320.576,-96.5522,-14.2875,179.78,2.10938,-144.756,472
1569677307,320.576,-96.5522,-14.1759,179.78,2.13135,-144.756,472
1569677307,320.576,-96.5522,-14.1759,179.78,2.13135,-144.756,472
1569677307,320.576,-96.5522,-14.1759,179.78,2.13135,-144.756,472
1569677307,320.687,-96.5522,-14.1759,179.78,2.13135,-144.756,472
1569677307,320.687,-96.5522,-14.1759,179.78,2.13135,-144.756,472
1569677307,320.687,-96.5522,-14.1759,179.802,2.13135,-144.756,472
1569677307,320.687,-96.5522,-14.1759,179.802,2.13135,-144.756,472
1569677307,320.687,-96.5522,-14.1759,179.802,2.13135,-144.756,472
1569677307,320.687,-96.5522,-14.1759,179.802,2.13135,-144.756,472
1569677307,320.687,-96.4406,-14.1759,179.802,2.13135,-144.756,468
1569677307,320.687,-96.4406,-14.1759,179.802,2.13135,-144.756,468
1569677307,320.687,-96.4406,-14.1759,179.802,2.13135,-144.756,468
1569677307,320.687,-96.4406,-14.1759,179.802,2.13135,-144.756,468
1569677307,320.687,-96.4406,-14.1759,179.802,2.13135,-144.756,468
1569677307,320.687,-96.4406,-14.1759,179.802,2.13135,-144.756,468
1569677307,320.687,-96.4406,-14.1759,179.802,2.13135,-144.756,468
1569677307,320.687,-96.4406,-14.1759,179.802,2.13135,-144.756,464
1569677307,320.687,-96.4406,-14.1759,179.802,2.13135,-144.756,464
