time,x,y,z,ax,ay,az,q
1567604851,361.206,-176.585,-16.4083,179.824,1.80176,-156.313,244
1567604851,361.206,-176.585,-16.4083,179.824,1.80176,-156.313,244
1567604851,361.206,-176.585,-16.4083,179.824,1.80176,-156.313,244
1567604851,361.206,-176.585,-16.4083,179.824,1.80176,-156.292,244
1567604851,361.206,-176.585,-16.4083,179.824,1.80176,-156.292,248
1567604851,361.206,-176.585,-16.4083,179.824,1.80176,-156.292,248
1567604851,361.206,-176.585,-16.4083,179.824,1.80176,-156.292,248
1567604851,361.206,-176.585,-16.4083,179.824,1.80176,-156.292,248
1567604851,361.206,-176.585,-16.4083,179.824,1.82373,-156.292,248
1567604851,361.206,-176.585,-16.4083,179.824,1.82373,-156.292,252
1567604851,361.206,-176.585,-16.4083,179.824,1.82373,-156.292,252
1567604851,361.206,-176.585,-16.4083,179.824,1.82373,-156.292,252
1567604851,361.206,-176.585,-16.4083,179.824,1.82373,-156.292,252
1567604851,361.206,-176.585,-16.4083,179.824,1.80176,-156.292,256
1567604851,361.206,-176.585,-16.4083,179.824,1.80176,-156.292,256
1567604851,361.206,-176.473,-16.4083,179.824,1.80176,-156.292,256
1567604851,361.206,-176.473,-16.4083,179.824,1.80176,-156.292,260
1567604851,361.206,-176.473,-16.4083,179.824,1.80176,-156.292,260
1567604851,361.206,-176.473,-16.4083,179.824,1.80176,-156.292,260
1567604851,361.206,-176.473,-16.4083,179.824,1.80176,-156.313,260
1567604851,361.206,-176.473,-16.4083,179.824,1.80176,-156.313,264
1567604851,361.206,-176.473,-16.4083,179.824,1.80176,-156.313,264
1567604851,361.094,-176.585,-16.4083,179.824,1.77979,-156.313,268
1567604851,361.094,-176.585,-16.5199,179.824,1.77979,-156.313,268
1567604851,361.094,-176.585,-16.5199,179.824,1.77979,-156.313,268
1567604851,361.094,-176.473,-16.5199,179.824,1.77979,-156.313,268
1567604851,361.094,-176.585,-16.5199,179.824,1.77979,-156.313,272
1567604851,361.094,-176.585,-16.5199,179.824,1.77979,-156.313,272
1567604851,361.206,-176.473,-16.5199,179.824,1.77979,-156.313,272
1567604851,361.206,-176.473,-16.5199,179.824,1.77979,-156.313,272
1567604851,361.206,-176.473,-16.5199,179.846,1.80176,-156.313,272
1567604851,361.206,-176.473,-16.5199,179.846,1.80176,-156.313,276
1567604851,361.206,-176.473,-16.4083,179.846,1.80176,-156.313,276
1567604851,361.206,-176.473,-16.4083,179.846,1.80176,-156.313,276
1567604851,361.206,-176.473,-16.4083,179.846,1.80176,-156.313,276
1567604851,361.206,-176.473,-16.4083,179.846,1.80176,-156.313,276
1567604851,361.206,-176.473,-16.4083,179.846,1.80176,-156.313,276
1567604851,361.206,-176.473,-16.4083,179.846,1.80176,-156.313,276
1567604851,361.094,-176.473,-16.4083,179.824,1.80176,-156.313,276
1567604851,361.094,-176.585,-16.4083,179.824,1.80176,-156.313,276
1567604851,361.094,-176.585,-16.4083,179.824,1.80176,-156.313,276
1567604851,361.094,-176.585,-16.4083,179.824,1.80176,-156.313,272
1567604851,361.094,-176.585,-16.4083,179.824,1.80176,-156.292,272
1567604851,361.094,-176.585,-16.4083,179.824,1.80176,-156.292,272
1567604851,361.094,-176.585,-16.4083,179.824,1.80176,-156.292,268
1567604851,361.094,-176.585,-16.4083,179.824,1.80176,-156.292,268
1567604851,361.094,-176.585,-16.4083,179.824,1.80176,-156.292,268
1567604851,361.094,-176.585,-16.4083,179.824,1.80176,-156.292,268
1567604851,361.094,-176.585,-16.4083,179.824,1.80176,-156.292,264
1567604851,361.094,-176.585,-16.4083,179.824,1.80176,-156.292,264
1567604851,361.094,-176.585,-16.4083,179.824,1.80176,-156.292,264
1567604851,361.094,-176.585,-16.4083,179.824,1.80176,-156.292,264
1567604851,361.094,-176.585,-16.5199,179.824,1.77979,-156.292,264
1567604851,361.206,-176.585,-16.5199,179.824,1.77979,-156.292,264
1567604851,361.206,-176.585,-16.5199,179.824,1.77979,-156.292,260
1567604851,361.206,-176.585,-16.5199,179.846,1.77979,-156.292,260
1567604851,361.206,-176.585,-16.5199,179.846,1.75781,-156.292,260
1567604851,361.206,-176.585,-16.5199,179.846,1.75781,-156.313,260
1567604851,361.206,-176.585,-16.6315,179.824,1.75781,-156.313,260
1567604852,361.206,-176.585,-16.6315,179.824,1.75781,-156.313,256
1567604852,361.206,-176.585,-16.6315,179.824,1.75781,-156.313,256
1567604852,361.206,-176.585,-16.6315,179.846,1.75781,-156.313,256
1567604852,361.206,-176.585,-16.6315,179.846,1.75781,-156.313,256
1567604852,361.206,-176.585,-16.5199,179.846,1.75781,-156.313,256
1567604852,361.206,-176.585,-16.5199,179.846,1.75781,-156.313,252
1567604852,361.206,-176.585,-16.5199,179.846,1.75781,-156.313,252
1567604852,361.206,-176.585,-16.5199,179.846,1.75781,-156.313,252
1567604852,361.094,-176.585,-16.5199,179.846,1.75781,-156.313,252
1567604852,361.094,-176.473,-16.5199,179.846,1.75781,-156.313,252
1567604852,361.094,-176.473,-16.5199,179.846,1.75781,-156.313,252
1567604852,361.206,-176.473,-16.5199,179.846,1.75781,-156.313,252
1567604852,361.206,-176.473,-16.5199,179.846,1.75781,-156.313,252
1567604852,361.206,-176.473,-16.5199,179.846,1.75781,-156.313,252
1567604852,361.206,-176.473,-16.5199,179.846,1.75781,-156.313,252
1567604852,361.206,-176.473,-16.5199,179.846,1.75781,-156.313,252
1567604852,361.206,-176.473,-16.5199,179.846,1.75781,-156.313,252
1567604852,361.206,-176.473,-16.5199,179.846,1.75781,-156.313,252
1567604852,361.206,-176.473,-16.6315,179.846,1.75781,-156.313,256
1567604852,361.206,-176.473,-16.6315,179.846,1.75781,-156.313,256
1567604852,361.206,-176.473,-16.6315,179.846,1.75781,-156.313,256
1567604852,361.206,-176.585,-16.6315,179.846,1.75781,-156.313,256
1567604852,361.206,-176.585,-16.6315,179.846,1.75781,-156.313,256
1567604852,361.094,-176.585,-16.6315,179.824,1.75781,-156.313,256
1567604852,361.094,-176.585,-16.5199,179.824,1.75781,-156.313,256
1567604852,361.094,-176.585,-16.5199,179.824,1.77979,-156.313,256
1567604852,361.094,-176.585,-16.5199,179.824,1.77979,-156.313,260
1567604852,361.094,-176.585,-16.5199,179.824,1.77979,-156.313,260
1567604852,361.094,-176.585,-16.5199,179.802,1.77979,-156.313,260
1567604852,361.094,-176.696,-16.5199,179.802,1.80176,-156.313,260
1567604852,361.094,-176.696,-16.5199,179.802,1.80176,-156.313,256
1567604852,361.094,-176.696,-16.5199,179.802,1.80176,-156.313,256
1567604852,361.094,-176.696,-16.5199,179.802,1.80176,-156.313,256
1567604852,361.094,-176.696,-16.5199,179.802,1.80176,-156.313,256
1567604852,361.094,-176.696,-16.5199,179.802,1.80176,-156.313,256
1567604852,361.094,-176.696,-16.5199,179.802,1.80176,-156.313,252
1567604852,361.094,-176.696,-16.5199,179.802,1.77979,-156.313,252
1567604852,361.094,-176.585,-16.5199,179.802,1.77979,-156.313,252
1567604852,361.094,-176.585,-16.5199,179.824,1.77979,-156.313,252
1567604852,361.094,-176.585,-16.5199,179.824,1.77979,-156.313,252
1567604852,361.094,-176.585,-16.5199,179.824,1.77979,-156.313,248
1567604852,361.094,-176.585,-16.5199,179.824,1.77979,-156.313,248
1567604852,361.094,-176.585,-16.5199,179.824,1.77979,-156.313,248
1567604852,361.206,-176.585,-16.5199,179.824,1.77979,-156.313,248
1567604852,361.206,-176.585,-16.5199,179.824,1.77979,-156.292,248
1567604852,361.206,-176.585,-16.5199,179.824,1.75781,-156.292,248
1567604852,361.206,-176.585,-16.5199,179.824,1.75781,-156.292,248
1567604852,361.206,-176.585,-16.5199,179.824,1.75781,-156.292,248
1567604852,361.206,-176.585,-16.5199,179.824,1.75781,-156.292,248
1567604852,361.206,-176.585,-16.5199,179.824,1.75781,-156.292,248
1567604852,361.094,-176.585,-16.5199,179.824,1.75781,-156.292,248
1567604852,361.094,-176.585,-16.5199,179.824,1.75781,-156.292,248
1567604852,361.094,-176.585,-16.5199,179.824,1.75781,-156.292,248
1567604852,361.094,-176.473,-16.5199,179.846,1.75781,-156.27,248
1567604852,361.094,-176.473,-16.5199,179.846,1.75781,-156.27,248
1567604852,361.206,-176.473,-16.5199,179.846,1.75781,-156.27,248
1567604852,361.206,-176.473,-16.5199,179.846,1.75781,-156.27,252
1567604852,361.206,-176.473,-16.5199,179.846,1.75781,-156.27,252
1567604852,361.206,-176.473,-16.5199,179.846,1.75781,-156.292,252
1567604852,361.206,-176.473,-16.5199,179.868,1.75781,-156.292,252
1567604852,361.206,-176.473,-16.5199,179.868,1.75781,-156.292,252
1567604852,361.206,-176.473,-16.5199,179.868,1.75781,-156.292,252
1567604852,361.206,-176.473,-16.5199,179.868,1.75781,-156.292,252
1567604852,361.206,-176.473,-16.5199,179.868,1.75781,-156.292,252
1567604852,361.206,-176.473,-16.5199,179.868,1.75781,-156.292,252
1567604852,361.206,-176.473,-16.5199,179.868,1.75781,-156.292,252
1567604852,361.206,-176.473,-16.5199,179.868,1.75781,-156.292,252
1567604852,361.206,-176.473,-16.5199,179.846,1.75781,-156.292,252
1567604852,361.206,-176.473,-16.5199,179.846,1.75781,-156.292,248
1567604852,361.206,-176.473,-16.6315,179.846,1.75781,-156.313,252
1567604852,361.206,-176.473,-16.6315,179.846,1.75781,-156.313,252
1567604852,361.206,-176.473,-16.6315,179.846,1.75781,-156.313,252
1567604852,361.206,-176.473,-16.6315,179.846,1.75781,-156.313,252
1567604852,361.094,-176.473,-16.6315,179.846,1.75781,-156.313,252
1567604852,361.094,-176.473,-16.6315,179.846,1.75781,-156.313,252
1567604852,361.206,-176.473,-16.6315,179.846,1.75781,-156.313,252
1567604852,361.206,-176.473,-16.6315,179.846,1.75781,-156.313,252
1567604852,361.206,-176.473,-16.6315,179.846,1.75781,-156.313,252
1567604852,361.206,-176.473,-16.6315,179.846,1.75781,-156.313,252
1567604852,361.206,-176.473,-16.6315,179.846,1.75781,-156.335,252
1567604852,361.206,-176.473,-16.6315,179.846,1.75781,-156.335,252
1567604852,361.206,-176.473,-16.6315,179.846,1.75781,-156.313,252
1567604852,361.206,-176.473,-16.6315,179.846,1.75781,-156.313,252
1567604852,361.206,-176.473,-16.6315,179.846,1.73584,-156.313,252
1567604852,361.206,-176.473,-16.6315,179.846,1.73584,-156.313,252
1567604852,361.206,-176.473,-16.7432,179.846,1.73584,-156.313,252
1567604852,361.206,-176.473,-16.7432,179.846,1.73584,-156.313,252
1567604852,361.206,-176.473,-16.6315,179.846,1.73584,-156.313,252
1567604852,361.206,-176.473,-16.6315,179.846,1.73584,-156.313,252
1567604852,361.206,-176.473,-16.6315,179.846,1.73584,-156.313,252
1567604852,361.206,-176.473,-16.6315,179.846,1.73584,-156.313,252
1567604852,361.206,-176.473,-16.6315,179.846,1.73584,-156.313,252
1567604852,361.206,-176.473,-16.6315,179.846,1.75781,-156.313,252
1567604852,361.206,-176.473,-16.6315,179.846,1.75781,-156.313,256
1567604852,361.206,-176.473,-16.6315,179.846,1.75781,-156.313,256
1567604852,361.206,-176.473,-16.6315,179.846,1.75781,-156.313,256
1567604852,361.206,-176.473,-16.5199,179.846,1.75781,-156.313,256
1567604852,361.206,-176.473,-16.5199,179.846,1.75781,-156.313,256
1567604852,361.206,-176.473,-16.5199,179.846,1.75781,-156.313,256
1567604852,361.206,-176.585,-16.5199,179.824,1.75781,-156.313,256
1567604853,361.206,-176.585,-16.5199,179.824,1.75781,-156.313,256
1567604853,361.206,-176.585,-16.5199,179.824,1.75781,-156.313,256
1567604853,361.206,-176.585,-16.5199,179.824,1.75781,-156.313,252
1567604853,361.206,-176.585,-16.5199,179.824,1.75781,-156.313,252
1567604853,361.094,-176.585,-16.5199,179.824,1.75781,-156.313,252
1567604853,361.094,-176.585,-16.5199,179.824,1.75781,-156.313,252
1567604853,361.094,-176.585,-16.5199,179.824,1.75781,-156.313,252
1567604853,361.094,-176.585,-16.5199,179.824,1.75781,-156.313,252
1567604853,361.094,-176.585,-16.5199,179.824,1.77979,-156.313,252
1567604853,361.094,-176.585,-16.5199,179.824,1.77979,-156.313,252
1567604853,361.094,-176.585,-16.5199,179.824,1.77979,-156.313,252
1567604853,361.094,-176.585,-16.5199,179.824,1.77979,-156.292,252
1567604853,361.094,-176.585,-16.5199,179.824,1.77979,-156.292,252
1567604853,361.094,-176.585,-16.5199,179.824,1.77979,-156.292,252
1567604853,361.094,-176.585,-16.5199,179.824,1.77979,-156.292,252
1567604853,361.094,-176.585,-16.5199,179.824,1.77979,-156.292,256
1567604853,361.094,-176.585,-16.5199,179.824,1.77979,-156.292,256
1567604853,361.094,-176.585,-16.5199,179.824,1.77979,-156.292,256
1567604853,361.094,-176.585,-16.4083,179.824,1.77979,-156.292,256
1567604853,361.094,-176.585,-16.4083,179.824,1.77979,-156.292,256
1567604853,361.094,-176.585,-16.4083,179.824,1.80176,-156.292,260
1567604853,361.094,-176.585,-16.4083,179.824,1.80176,-156.292,260
1567604853,361.094,-176.585,-16.4083,179.824,1.80176,-156.292,260
1567604853,361.094,-176.585,-16.4083,179.824,1.80176,-156.292,260
1567604853,361.094,-176.585,-16.4083,179.824,1.80176,-156.292,260
1567604853,361.206,-176.585,-16.4083,179.824,1.80176,-156.292,260
1567604853,361.206,-176.585,-16.4083,179.824,1.80176,-156.292,260
1567604853,361.206,-176.585,-16.4083,179.824,1.80176,-156.292,260
1567604853,361.206,-176.585,-16.4083,179.824,1.80176,-156.292,260
1567604853,361.206,-176.585,-16.4083,179.824,1.80176,-156.292,256
1567604853,361.206,-176.585,-16.4083,179.824,1.80176,-156.292,256
1567604853,361.206,-176.585,-16.4083,179.824,1.80176,-156.292,256
1567604853,361.206,-176.585,-16.4083,179.824,1.80176,-156.292,252
1567604853,361.206,-176.585,-16.4083,179.824,1.80176,-156.292,252
1567604853,361.206,-176.585,-16.4083,179.846,1.80176,-156.292,252
1567604853,361.206,-176.585,-16.4083,179.846,1.80176,-156.292,248
1567604853,361.206,-176.473,-16.4083,179.846,1.80176,-156.292,248
1567604853,361.206,-176.473,-16.4083,179.846,1.80176,-156.292,248
1567604853,361.206,-176.473,-16.4083,179.846,1.80176,-156.292,248
1567604853,361.317,-176.473,-16.4083,179.868,1.80176,-156.292,244
1567604853,361.317,-176.473,-16.5199,179.868,1.77979,-156.292,244
1567604853,361.317,-176.473,-16.5199,179.868,1.77979,-156.292,244
1567604853,361.317,-176.473,-16.5199,179.868,1.77979,-156.292,244
1567604853,361.317,-176.473,-16.5199,179.868,1.77979,-156.292,240
1567604853,361.317,-176.473,-16.5199,179.868,1.77979,-156.292,240
1567604853,361.317,-176.473,-16.5199,179.868,1.77979,-156.292,240
1567604853,361.206,-176.473,-16.5199,179.846,1.77979,-156.292,240
1567604853,361.206,-176.473,-16.5199,179.846,1.77979,-156.292,240
1567604853,361.206,-176.585,-16.5199,179.846,1.75781,-156.292,240
1567604853,361.206,-176.585,-16.5199,179.846,1.75781,-156.292,240
1567604853,361.206,-176.585,-16.5199,179.846,1.75781,-156.292,240
1567604853,361.206,-176.585,-16.6315,179.846,1.75781,-156.292,236
1567604853,361.206,-176.585,-16.6315,179.846,1.75781,-156.292,236
1567604853,361.206,-176.585,-16.6315,179.846,1.75781,-156.292,236
1567604853,361.206,-176.585,-16.6315,179.846,1.75781,-156.292,236
1567604853,361.206,-176.473,-16.5199,179.846,1.75781,-156.27,240
1567604853,361.206,-176.473,-16.5199,179.846,1.75781,-156.27,240
1567604853,361.206,-176.473,-16.5199,179.846,1.75781,-156.27,240
1567604853,361.206,-176.473,-16.5199,179.846,1.75781,-156.27,240
1567604853,361.206,-176.473,-16.5199,179.846,1.75781,-156.27,240
1567604853,361.206,-176.473,-16.5199,179.846,1.75781,-156.27,240
1567604853,361.206,-176.473,-16.5199,179.846,1.75781,-156.27,240
1567604853,361.206,-176.473,-16.5199,179.846,1.75781,-156.27,240
1567604853,361.206,-176.473,-16.5199,179.846,1.77979,-156.27,240
1567604853,361.206,-176.473,-16.5199,179.868,1.77979,-156.27,240
1567604853,361.206,-176.473,-16.5199,179.868,1.77979,-156.27,244
1567604853,361.206,-176.473,-16.5199,179.868,1.77979,-156.27,244
1567604853,361.206,-176.473,-16.5199,179.868,1.77979,-156.27,244
1567604853,361.206,-176.473,-16.5199,179.846,1.77979,-156.27,244
1567604853,361.206,-176.473,-16.5199,179.846,1.77979,-156.27,244
1567604853,361.206,-176.473,-16.5199,179.846,1.77979,-156.27,244
1567604853,361.206,-176.473,-16.5199,179.846,1.77979,-156.27,244
1567604853,361.206,-176.473,-16.5199,179.846,1.77979,-156.27,248
1567604853,361.206,-176.473,-16.4083,179.846,1.77979,-156.27,248
1567604853,361.206,-176.473,-16.4083,179.846,1.80176,-156.27,248
1567604853,361.206,-176.473,-16.4083,179.846,1.80176,-156.292,248
1567604853,361.206,-176.473,-16.4083,179.846,1.80176,-156.292,248
1567604853,361.206,-176.473,-16.4083,179.846,1.80176,-156.292,248
1567604853,361.206,-176.473,-16.4083,179.868,1.80176,-156.292,248
1567604853,361.206,-176.473,-16.4083,179.868,1.80176,-156.292,248
1567604853,361.206,-176.473,-16.4083,179.868,1.80176,-156.292,248
1567604853,361.206,-176.473,-16.4083,179.868,1.80176,-156.292,248
1567604853,361.206,-176.473,-16.4083,179.868,1.80176,-156.292,248
1567604853,361.206,-176.361,-16.4083,179.868,1.80176,-156.292,248
1567604853,361.206,-176.361,-16.4083,179.868,1.80176,-156.292,248
1567604853,361.206,-176.361,-16.4083,179.868,1.80176,-156.292,248
1567604853,361.206,-176.361,-16.4083,179.868,1.80176,-156.292,252
1567604853,361.206,-176.361,-16.4083,179.868,1.77979,-156.292,252
1567604853,361.094,-176.361,-16.4083,179.868,1.77979,-156.292,252
1567604853,361.094,-176.361,-16.4083,179.868,1.77979,-156.292,256
1567604853,361.094,-176.361,-16.5199,179.868,1.77979,-156.292,256
1567604853,361.094,-176.361,-16.5199,179.868,1.77979,-156.292,260
1567604853,361.094,-176.361,-16.5199,179.868,1.77979,-156.292,260
1567604853,361.094,-176.361,-16.5199,179.868,1.77979,-156.292,264
1567604853,361.094,-176.361,-16.5199,179.868,1.77979,-156.292,264
1567604853,361.094,-176.361,-16.5199,179.868,1.77979,-156.292,268
1567604853,361.094,-176.361,-16.5199,179.868,1.77979,-156.292,268
1567604853,361.094,-176.361,-16.5199,179.868,1.77979,-156.292,268
1567604853,361.094,-176.361,-16.5199,179.868,1.77979,-156.292,268
1567604853,361.094,-176.361,-16.5199,179.846,1.77979,-156.292,272
1567604854,361.094,-176.361,-16.5199,179.846,1.77979,-156.292,272
1567604854,361.094,-176.361,-16.5199,179.846,1.77979,-156.292,272
1567604854,361.094,-176.473,-16.5199,179.846,1.77979,-156.292,272
1567604854,361.094,-176.473,-16.4083,179.846,1.77979,-156.292,272
1567604854,361.094,-176.473,-16.4083,179.846,1.80176,-156.292,272
1567604854,361.094,-176.473,-16.4083,179.846,1.80176,-156.292,272
1567604854,361.094,-176.473,-16.4083,179.824,1.80176,-156.292,272
1567604854,361.094,-176.473,-16.4083,179.824,1.80176,-156.292,272
1567604854,361.094,-176.473,-16.4083,179.824,1.80176,-156.292,276
1567604854,361.094,-176.473,-16.4083,179.824,1.80176,-156.292,276
1567604854,361.094,-176.473,-16.4083,179.824,1.80176,-156.292,276
1567604854,361.094,-176.473,-16.4083,179.824,1.80176,-156.292,276
1567604854,361.094,-176.473,-16.4083,179.824,1.80176,-156.292,276
1567604854,361.094,-176.473,-16.4083,179.824,1.80176,-156.292,276
1567604854,361.094,-176.473,-16.4083,179.824,1.80176,-156.292,276
1567604854,361.094,-176.473,-16.4083,179.824,1.80176,-156.292,280
1567604854,361.094,-176.473,-16.4083,179.824,1.80176,-156.292,280
1567604854,361.094,-176.473,-16.4083,179.824,1.80176,-156.292,280
1567604854,361.094,-176.473,-16.4083,179.824,1.80176,-156.292,280
1567604854,361.094,-176.473,-16.4083,179.824,1.80176,-156.292,280
1567604854,361.094,-176.473,-16.4083,179.824,1.80176,-156.292,280
1567604854,361.094,-176.473,-16.4083,179.824,1.80176,-156.292,280
1567604854,361.094,-176.473,-16.4083,179.824,1.80176,-156.292,280
1567604854,361.094,-176.473,-16.4083,179.824,1.80176,-156.292,280
1567604854,361.094,-176.473,-16.4083,179.824,1.80176,-156.292,280
1567604854,361.094,-176.585,-16.4083,179.824,1.80176,-156.292,284
1567604854,361.094,-176.585,-16.4083,179.824,1.80176,-156.292,284
1567604854,361.094,-176.585,-16.4083,179.824,1.80176,-156.292,284
1567604854,361.094,-176.585,-16.4083,179.802,1.80176,-156.292,284
1567604854,361.094,-176.585,-16.4083,179.802,1.80176,-156.292,284
1567604854,361.094,-176.585,-16.4083,179.802,1.80176,-156.292,284
1567604854,361.094,-176.585,-16.4083,179.802,1.80176,-156.292,284
1567604854,361.094,-176.585,-16.4083,179.802,1.80176,-156.292,284
1567604854,361.094,-176.585,-16.4083,179.802,1.80176,-156.292,284
1567604854,361.094,-176.585,-16.4083,179.802,1.80176,-156.292,284
1567604854,361.094,-176.585,-16.4083,179.824,1.80176,-156.292,284
1567604854,361.094,-176.585,-16.4083,179.824,1.80176,-156.292,284
1567604854,361.094,-176.585,-16.4083,179.824,1.80176,-156.292,284
1567604854,361.094,-176.585,-16.4083,179.824,1.80176,-156.292,284
1567604854,361.094,-176.585,-16.4083,179.824,1.80176,-156.292,280
1567604854,361.094,-176.585,-16.4083,179.824,1.77979,-156.292,280
1567604854,361.094,-176.585,-16.4083,179.824,1.77979,-156.292,280
1567604854,361.094,-176.585,-16.4083,179.824,1.77979,-156.292,276
1567604854,361.094,-176.473,-16.4083,179.824,1.77979,-156.292,276
1567604854,361.094,-176.473,-16.5199,179.824,1.77979,-156.292,276
1567604854,361.094,-176.473,-16.5199,179.824,1.77979,-156.292,276
1567604854,361.094,-176.473,-16.5199,179.824,1.77979,-156.292,272
1567604854,361.094,-176.473,-16.5199,179.824,1.77979,-156.292,272
1567604854,361.094,-176.473,-16.5199,179.824,1.77979,-156.292,272
1567604854,361.094,-176.473,-16.5199,179.824,1.77979,-156.292,272
1567604854,361.094,-176.473,-16.5199,179.846,1.77979,-156.292,272
1567604854,361.094,-176.473,-16.5199,179.846,1.77979,-156.292,272
1567604854,361.094,-176.473,-16.5199,179.846,1.77979,-156.292,272
1567604854,361.094,-176.473,-16.5199,179.846,1.77979,-156.292,272
1567604854,361.094,-176.473,-16.5199,179.846,1.77979,-156.292,272
1567604854,361.094,-176.473,-16.5199,179.846,1.77979,-156.292,268
1567604854,361.094,-176.473,-16.5199,179.846,1.77979,-156.292,268
1567604854,361.094,-176.473,-16.5199,179.846,1.77979,-156.292,268
1567604854,361.094,-176.473,-16.5199,179.846,1.77979,-156.292,268
1567604854,361.094,-176.473,-16.5199,179.846,1.77979,-156.292,268
1567604854,361.094,-176.473,-16.4083,179.846,1.77979,-156.292,268
1567604854,361.094,-176.473,-16.4083,179.846,1.77979,-156.292,268
1567604854,361.094,-176.473,-16.4083,179.846,1.77979,-156.292,268
1567604854,361.094,-176.473,-16.4083,179.846,1.77979,-156.292,268
1567604854,361.094,-176.473,-16.4083,179.846,1.77979,-156.292,268
1567604854,361.094,-176.473,-16.4083,179.846,1.80176,-156.292,268
1567604854,361.094,-176.473,-16.4083,179.846,1.80176,-156.292,268
1567604854,361.094,-176.473,-16.4083,179.846,1.80176,-156.292,268
1567604854,361.094,-176.473,-16.2967,179.846,1.80176,-156.292,268
1567604854,361.094,-176.473,-16.2967,179.846,1.80176,-156.292,268
1567604854,361.094,-176.473,-16.2967,179.846,1.80176,-156.292,268
1567604854,361.094,-176.473,-16.2967,179.846,1.80176,-156.292,268
1567604854,361.094,-176.473,-16.4083,179.846,1.80176,-156.292,268
1567604854,361.094,-176.473,-16.4083,179.846,1.80176,-156.292,268
1567604854,361.094,-176.473,-16.4083,179.846,1.80176,-156.292,268
1567604854,361.094,-176.473,-16.4083,179.846,1.80176,-156.292,268
1567604854,361.094,-176.473,-16.4083,179.846,1.80176,-156.292,268
1567604854,361.094,-176.473,-16.4083,179.846,1.80176,-156.292,272
1567604854,361.094,-176.473,-16.4083,179.846,1.80176,-156.292,272
1567604854,361.094,-176.473,-16.4083,179.846,1.80176,-156.292,272
1567604854,361.094,-176.473,-16.4083,179.846,1.80176,-156.292,272
1567604854,361.094,-176.473,-16.4083,179.846,1.80176,-156.292,272
1567604854,361.094,-176.473,-16.4083,179.846,1.80176,-156.292,272
1567604854,361.094,-176.473,-16.4083,179.846,1.82373,-156.292,272
1567604854,361.094,-176.473,-16.4083,179.846,1.82373,-156.292,276
1567604854,361.094,-176.473,-16.4083,179.846,1.82373,-156.292,276
1567604854,361.094,-176.473,-16.4083,179.846,1.82373,-156.292,276
1567604854,361.094,-176.473,-16.4083,179.846,1.82373,-156.292,276
1567604854,361.094,-176.473,-16.4083,179.846,1.82373,-156.292,276
1567604854,361.094,-176.585,-16.4083,179.824,1.82373,-156.292,276
1567604854,361.094,-176.585,-16.4083,179.824,1.80176,-156.292,276
1567604854,361.094,-176.585,-16.4083,179.824,1.80176,-156.292,276
1567604854,361.094,-176.585,-16.4083,179.824,1.80176,-156.313,276
1567604854,361.094,-176.585,-16.4083,179.824,1.80176,-156.313,272
1567604854,361.094,-176.585,-16.4083,179.824,1.80176,-156.313,272
1567604854,361.094,-176.585,-16.4083,179.824,1.80176,-156.313,272
1567604854,361.094,-176.585,-16.4083,179.824,1.80176,-156.313,272
1567604854,361.094,-176.585,-16.4083,179.824,1.77979,-156.313,272
1567604854,361.094,-176.585,-16.5199,179.824,1.77979,-156.313,268
1567604854,361.094,-176.585,-16.5199,179.802,1.77979,-156.313,268
1567604855,361.094,-176.585,-16.5199,179.802,1.77979,-156.313,268
1567604855,361.094,-176.585,-16.5199,179.802,1.77979,-156.313,268
1567604855,361.094,-176.585,-16.5199,179.802,1.77979,-156.313,264
1567604855,361.094,-176.585,-16.5199,179.802,1.77979,-156.313,264
1567604855,361.094,-176.585,-16.5199,179.802,1.77979,-156.313,264
1567604855,361.094,-176.585,-16.5199,179.802,1.77979,-156.292,260
1567604855,361.094,-176.696,-16.5199,179.802,1.77979,-156.292,260
1567604855,361.094,-176.696,-16.5199,179.802,1.80176,-156.292,260
1567604855,361.094,-176.696,-16.4083,179.802,1.80176,-156.292,260
1567604855,361.094,-176.696,-16.4083,179.802,1.80176,-156.292,260
1567604855,361.094,-176.696,-16.4083,179.802,1.80176,-156.292,260
1567604855,361.094,-176.696,-16.4083,179.802,1.80176,-156.292,260
1567604855,361.094,-176.585,-16.4083,179.802,1.77979,-156.292,260
1567604855,361.094,-176.585,-16.5199,179.802,1.77979,-156.292,260
1567604855,361.094,-176.585,-16.5199,179.802,1.77979,-156.292,260
1567604855,361.094,-176.585,-16.5199,179.802,1.77979,-156.292,256
1567604855,361.094,-176.585,-16.5199,179.802,1.77979,-156.292,256
1567604855,361.094,-176.585,-16.5199,179.802,1.77979,-156.292,256
1567604855,361.094,-176.585,-16.5199,179.802,1.77979,-156.313,256
1567604855,361.094,-176.585,-16.5199,179.802,1.77979,-156.313,256
1567604855,361.094,-176.585,-16.5199,179.802,1.77979,-156.313,256
1567604855,361.094,-176.585,-16.5199,179.802,1.77979,-156.313,256
1567604855,361.094,-176.585,-16.5199,179.802,1.77979,-156.313,256
1567604855,361.094,-176.585,-16.5199,179.802,1.77979,-156.313,256
1567604855,361.094,-176.585,-16.5199,179.802,1.77979,-156.313,260
1567604855,361.094,-176.585,-16.5199,179.802,1.77979,-156.313,260
1567604855,361.094,-176.585,-16.5199,179.802,1.75781,-156.313,260
1567604855,360.983,-176.585,-16.5199,179.802,1.75781,-156.313,260
1567604855,360.983,-176.585,-16.5199,179.802,1.75781,-156.313,260
1567604855,360.983,-176.585,-16.5199,179.802,1.75781,-156.313,260
1567604855,360.983,-176.585,-16.5199,179.802,1.75781,-156.313,264
1567604855,360.983,-176.585,-16.5199,179.802,1.75781,-156.313,264
1567604855,360.983,-176.585,-16.5199,179.78,1.75781,-156.313,264
1567604855,360.983,-176.585,-16.5199,179.78,1.75781,-156.313,264
1567604855,360.983,-176.585,-16.5199,179.78,1.75781,-156.313,264
1567604855,360.983,-176.585,-16.5199,179.78,1.75781,-156.313,264
1567604855,360.983,-176.585,-16.5199,179.78,1.75781,-156.313,264
1567604855,360.983,-176.585,-16.5199,179.78,1.77979,-156.313,264
1567604855,360.983,-176.585,-16.5199,179.78,1.77979,-156.313,264
1567604855,360.983,-176.585,-16.5199,179.78,1.77979,-156.313,264
1567604855,361.094,-176.585,-16.5199,179.78,1.77979,-156.335,264
1567604855,361.094,-176.585,-16.5199,179.78,1.77979,-156.335,264
1567604855,361.094,-176.585,-16.5199,179.78,1.77979,-156.313,264
1567604855,361.094,-176.585,-16.5199,179.78,1.77979,-156.313,264
1567604855,361.094,-176.585,-16.5199,179.78,1.77979,-156.313,260
1567604855,361.094,-176.585,-16.5199,179.78,1.75781,-156.313,260
1567604855,361.094,-176.696,-16.5199,179.78,1.75781,-156.313,260
1567604855,361.094,-176.696,-16.5199,179.78,1.75781,-156.313,260
1567604855,361.094,-176.696,-16.5199,179.78,1.75781,-156.313,260
1567604855,361.094,-176.696,-16.5199,179.78,1.75781,-156.313,260
1567604855,361.094,-176.696,-16.5199,179.78,1.75781,-156.313,260
1567604855,361.094,-176.696,-16.5199,179.78,1.75781,-156.313,260
1567604855,361.094,-176.696,-16.5199,179.78,1.75781,-156.313,260
1567604855,361.094,-176.696,-16.5199,179.78,1.75781,-156.313,260
1567604855,361.094,-176.696,-16.5199,179.78,1.75781,-156.313,260
1567604855,361.094,-176.585,-16.5199,179.78,1.75781,-156.313,260
1567604855,361.094,-176.585,-16.5199,179.78,1.75781,-156.313,260
1567604855,361.094,-176.585,-16.5199,179.802,1.75781,-156.313,260
1567604855,361.094,-176.585,-16.5199,179.802,1.75781,-156.313,260
1567604855,361.094,-176.585,-16.5199,179.802,1.75781,-156.313,260
1567604855,361.094,-176.585,-16.5199,179.802,1.75781,-156.313,260
1567604855,361.094,-176.585,-16.5199,179.802,1.75781,-156.313,260
1567604855,361.094,-176.585,-16.5199,179.802,1.75781,-156.313,260
1567604855,361.206,-176.585,-16.5199,179.824,1.75781,-156.313,260
1567604855,361.206,-176.585,-16.5199,179.824,1.75781,-156.313,260
1567604855,361.206,-176.585,-16.5199,179.824,1.75781,-156.313,260
1567604855,361.206,-176.585,-16.5199,179.824,1.75781,-156.313,264
1567604855,361.206,-176.585,-16.5199,179.824,1.75781,-156.313,264
1567604855,361.206,-176.473,-16.5199,179.824,1.75781,-156.313,264
1567604855,361.206,-176.473,-16.5199,179.824,1.77979,-156.313,264
1567604855,361.206,-176.473,-16.4083,179.846,1.77979,-156.313,264
1567604855,361.206,-176.473,-16.4083,179.846,1.77979,-156.313,264
1567604855,361.206,-176.473,-16.4083,179.846,1.77979,-156.313,268
1567604855,361.206,-176.473,-16.4083,179.846,1.77979,-156.313,268
1567604855,361.206,-176.473,-16.4083,179.846,1.80176,-156.313,268
1567604855,361.206,-176.473,-16.4083,179.846,1.80176,-156.313,268
1567604855,361.206,-176.473,-16.4083,179.846,1.80176,-156.313,268
1567604855,361.206,-176.473,-16.4083,179.846,1.80176,-156.313,272
1567604855,361.206,-176.473,-16.4083,179.846,1.80176,-156.313,272
1567604855,361.206,-176.473,-16.4083,179.846,1.80176,-156.313,272
1567604855,361.094,-176.473,-16.4083,179.824,1.80176,-156.313,276
1567604855,361.094,-176.473,-16.4083,179.824,1.80176,-156.313,276
1567604855,361.094,-176.473,-16.4083,179.824,1.80176,-156.313,276
1567604855,361.094,-176.473,-16.4083,179.824,1.80176,-156.313,280
1567604855,361.094,-176.473,-16.2967,179.824,1.82373,-156.313,280
1567604855,361.094,-176.585,-16.2967,179.824,1.82373,-156.292,280
1567604855,361.094,-176.585,-16.2967,179.824,1.82373,-156.292,280
1567604855,361.094,-176.585,-16.2967,179.824,1.82373,-156.292,284
1567604855,361.094,-176.585,-16.2967,179.824,1.82373,-156.292,284
1567604855,361.094,-176.585,-16.2967,179.824,1.82373,-156.292,284
1567604855,361.094,-176.473,-16.2967,179.824,1.82373,-156.292,284
1567604855,361.094,-176.473,-16.2967,179.824,1.82373,-156.292,284
1567604855,361.094,-176.473,-16.4083,179.824,1.82373,-156.292,284
1567604855,361.094,-176.473,-16.4083,179.824,1.80176,-156.292,284
1567604855,361.094,-176.473,-16.4083,179.824,1.80176,-156.292,284
1567604855,361.094,-176.473,-16.4083,179.824,1.80176,-156.292,284
1567604855,361.094,-176.473,-16.4083,179.824,1.80176,-156.292,280
1567604855,361.094,-176.585,-16.4083,179.824,1.80176,-156.292,280
1567604855,361.206,-176.585,-16.4083,179.824,1.80176,-156.292,280
1567604855,361.206,-176.585,-16.4083,179.824,1.80176,-156.292,276
1567604856,361.206,-176.585,-16.4083,179.824,1.80176,-156.292,276
1567604856,361.206,-176.585,-16.4083,179.824,1.80176,-156.292,276
1567604856,361.206,-176.585,-16.4083,179.824,1.80176,-156.292,272
1567604856,361.206,-176.585,-16.4083,179.824,1.80176,-156.292,272
1567604856,361.206,-176.585,-16.4083,179.824,1.80176,-156.292,268
1567604856,361.206,-176.585,-16.4083,179.824,1.80176,-156.292,268
1567604856,361.206,-176.585,-16.4083,179.824,1.80176,-156.292,264
1567604856,361.206,-176.585,-16.4083,179.824,1.80176,-156.292,264
1567604856,361.206,-176.585,-16.4083,179.824,1.80176,-156.292,260
1567604856,361.206,-176.696,-16.4083,179.802,1.80176,-156.292,260
1567604856,361.206,-176.696,-16.4083,179.802,1.80176,-156.292,260
1567604856,361.206,-176.696,-16.4083,179.802,1.80176,-156.292,260
1567604856,361.206,-176.696,-16.4083,179.802,1.80176,-156.292,256
1567604856,361.206,-176.696,-16.4083,179.802,1.80176,-156.292,256
1567604856,361.206,-176.696,-16.4083,179.802,1.77979,-156.292,256
1567604856,361.206,-176.696,-16.4083,179.802,1.77979,-156.292,256
1567604856,361.206,-176.696,-16.5199,179.802,1.77979,-156.292,252
1567604856,361.206,-176.696,-16.5199,179.802,1.77979,-156.292,252
1567604856,361.206,-176.696,-16.5199,179.802,1.77979,-156.292,252
1567604856,361.206,-176.585,-16.5199,179.802,1.77979,-156.292,252
1567604856,361.206,-176.585,-16.5199,179.802,1.77979,-156.292,252
1567604856,361.206,-176.585,-16.5199,179.802,1.77979,-156.292,248
1567604856,361.206,-176.585,-16.5199,179.824,1.77979,-156.292,248
1567604856,361.206,-176.585,-16.5199,179.824,1.77979,-156.292,248
1567604856,361.206,-176.585,-16.5199,179.824,1.77979,-156.292,248
1567604856,361.206,-176.585,-16.5199,179.824,1.75781,-156.292,248
1567604856,361.206,-176.585,-16.5199,179.824,1.75781,-156.292,248
1567604856,361.206,-176.585,-16.5199,179.824,1.75781,-156.292,248
1567604856,361.206,-176.585,-16.5199,179.824,1.75781,-156.292,248
1567604856,361.206,-176.585,-16.5199,179.824,1.75781,-156.292,248
1567604856,361.317,-176.585,-16.5199,179.824,1.75781,-156.292,244
1567604856,361.317,-176.585,-16.5199,179.846,1.75781,-156.292,244
1567604856,361.317,-176.585,-16.5199,179.846,1.75781,-156.292,244
1567604856,361.317,-176.585,-16.5199,179.846,1.77979,-156.292,244
1567604856,361.317,-176.473,-16.5199,179.846,1.77979,-156.292,244
1567604856,361.317,-176.473,-16.5199,179.846,1.77979,-156.292,244
1567604856,361.317,-176.473,-16.5199,179.846,1.77979,-156.292,244
1567604856,361.317,-176.473,-16.5199,179.846,1.77979,-156.292,244
1567604856,361.206,-176.473,-16.5199,179.846,1.77979,-156.292,244
1567604856,361.206,-176.585,-16.5199,179.846,1.75781,-156.292,244
1567604856,361.206,-176.585,-16.5199,179.846,1.75781,-156.292,244
1567604866,345.467,-160.065,-16.2967,179.78,1.91162,-156.797,244
1567604866,345.467,-160.065,-16.2967,179.78,1.91162,-156.797,244
1567604866,345.467,-160.065,-16.2967,179.78,1.91162,-156.797,248
1567604866,345.579,-160.065,-16.2967,179.78,1.91162,-156.797,248
1567604866,345.579,-160.065,-16.2967,179.78,1.91162,-156.797,248
1567604866,345.579,-160.065,-16.2967,179.78,1.91162,-156.797,248
1567604866,345.579,-160.065,-16.2967,179.78,1.91162,-156.797,248
1567604866,345.579,-160.065,-16.2967,179.802,1.91162,-156.797,248
1567604866,345.579,-160.065,-16.2967,179.802,1.91162,-156.797,248
1567604866,345.579,-160.065,-16.2967,179.802,1.91162,-156.797,248
1567604866,345.579,-160.065,-16.2967,179.802,1.91162,-156.797,252
1567604866,345.579,-160.065,-16.2967,179.802,1.91162,-156.797,252
1567604866,345.579,-159.953,-16.2967,179.802,1.91162,-156.797,252
1567604866,345.579,-159.953,-16.2967,179.824,1.91162,-156.797,252
1567604866,345.579,-159.953,-16.2967,179.824,1.91162,-156.797,252
1567604866,345.579,-159.953,-16.2967,179.824,1.91162,-156.797,252
1567604866,345.579,-159.953,-16.2967,179.824,1.91162,-156.819,256
1567604866,345.579,-159.953,-16.2967,179.802,1.91162,-156.819,256
1567604866,345.579,-160.065,-16.2967,179.802,1.91162,-156.797,256
1567604866,345.579,-160.065,-16.2967,179.802,1.91162,-156.797,256
1567604866,345.579,-160.065,-16.2967,179.802,1.91162,-156.797,256
1567604866,345.579,-160.065,-16.2967,179.802,1.91162,-156.797,256
1567604866,345.579,-160.065,-16.2967,179.802,1.91162,-156.797,256
1567604866,345.579,-160.065,-16.2967,179.802,1.91162,-156.797,256
1567604866,345.579,-160.065,-16.2967,179.802,1.91162,-156.797,256
1567604866,345.579,-160.065,-16.2967,179.802,1.91162,-156.797,256
1567604866,345.579,-160.065,-16.2967,179.802,1.91162,-156.797,256
1567604866,345.579,-160.065,-16.2967,179.802,1.91162,-156.797,256
1567604866,345.579,-160.065,-16.2967,179.802,1.91162,-156.797,256
1567604866,345.579,-160.065,-16.2967,179.802,1.91162,-156.797,256
1567604866,345.579,-160.065,-16.2967,179.802,1.91162,-156.797,256
1567604866,345.579,-160.065,-16.2967,179.802,1.91162,-156.797,256
1567604866,345.579,-160.065,-16.2967,179.802,1.91162,-156.797,256
1567604866,345.579,-160.065,-16.2967,179.802,1.91162,-156.797,256
1567604866,345.579,-160.065,-16.2967,179.802,1.91162,-156.797,256
1567604866,345.579,-160.065,-16.2967,179.802,1.91162,-156.797,256
1567604866,345.579,-160.065,-16.2967,179.802,1.91162,-156.797,256
1567604866,345.579,-160.065,-16.2967,179.802,1.91162,-156.797,260
1567604866,345.579,-160.065,-16.2967,179.802,1.91162,-156.797,260
1567604866,345.579,-160.065,-16.2967,179.802,1.91162,-156.797,260
1567604866,345.579,-160.065,-16.2967,179.802,1.91162,-156.797,260
1567604866,345.579,-160.065,-16.2967,179.824,1.91162,-156.797,260
1567604866,345.579,-160.065,-16.2967,179.824,1.91162,-156.797,260
1567604866,345.579,-160.065,-16.2967,179.824,1.91162,-156.797,260
1567604866,345.579,-160.065,-16.2967,179.824,1.91162,-156.797,260
1567604866,345.579,-160.065,-16.2967,179.824,1.91162,-156.797,260
1567604866,345.579,-160.065,-16.2967,179.824,1.91162,-156.797,260
1567604866,345.579,-160.065,-16.2967,179.824,1.91162,-156.797,260
1567604866,345.691,-160.065,-16.2967,179.824,1.91162,-156.797,260
1567604866,345.691,-160.065,-16.2967,179.824,1.91162,-156.797,256
1567604866,345.691,-160.065,-16.2967,179.824,1.91162,-156.797,256
1567604867,345.691,-160.065,-16.2967,179.824,1.91162,-156.797,256
1567604867,345.691,-160.065,-16.2967,179.824,1.91162,-156.797,256
1567604867,345.691,-160.065,-16.2967,179.802,1.91162,-156.797,256
1567604867,345.691,-160.065,-16.2967,179.802,1.91162,-156.797,252
1567604867,345.691,-160.065,-16.2967,179.802,1.91162,-156.797,252
1567604867,345.691,-160.065,-16.4083,179.802,1.91162,-156.797,252
1567604867,345.579,-160.065,-16.4083,179.802,1.91162,-156.797,252
1567604867,345.579,-160.065,-16.4083,179.802,1.91162,-156.797,252
1567604867,345.579,-160.065,-16.4083,179.802,1.91162,-156.819,248
1567604867,345.579,-160.065,-16.4083,179.802,1.91162,-156.819,248
1567604867,345.579,-160.065,-16.4083,179.802,1.91162,-156.819,248
1567604867,345.579,-160.065,-16.4083,179.802,1.88965,-156.819,248
1567604867,345.579,-160.065,-16.4083,179.802,1.88965,-156.819,248
1567604867,345.579,-160.065,-16.4083,179.802,1.88965,-156.819,244
1567604867,345.579,-160.065,-16.4083,179.78,1.88965,-156.819,244
1567604867,345.579,-160.065,-16.4083,179.78,1.88965,-156.819,244
1567604867,345.579,-160.065,-16.4083,179.78,1.88965,-156.819,244
1567604867,345.579,-160.065,-16.4083,179.78,1.88965,-156.819,244
1567604867,345.579,-160.065,-16.4083,179.78,1.88965,-156.819,240
1567604867,345.579,-160.065,-16.4083,179.78,1.88965,-156.819,240
1567604867,345.579,-160.065,-16.4083,179.78,1.88965,-156.819,240
1567604867,345.579,-160.065,-16.4083,179.78,1.88965,-156.819,240
1567604867,345.579,-160.065,-16.4083,179.78,1.88965,-156.819,240
1567604867,345.579,-160.065,-16.4083,179.78,1.88965,-156.797,240
1567604867,345.579,-160.065,-16.4083,179.78,1.88965,-156.797,240
1567604867,345.579,-160.065,-16.4083,179.78,1.88965,-156.797,240
1567604867,345.579,-160.065,-16.4083,179.78,1.88965,-156.797,240
1567604867,345.579,-160.065,-16.4083,179.78,1.88965,-156.797,240
1567604867,345.579,-160.065,-16.4083,179.78,1.88965,-156.797,240
1567604867,345.579,-160.065,-16.4083,179.78,1.88965,-156.797,240
1567604867,345.579,-160.065,-16.4083,179.802,1.88965,-156.797,240
1567604867,345.579,-160.065,-16.4083,179.802,1.88965,-156.797,240
1567604867,345.579,-160.065,-16.4083,179.802,1.88965,-156.797,240
1567604867,345.579,-160.065,-16.4083,179.802,1.88965,-156.797,240
1567604867,345.579,-160.065,-16.4083,179.802,1.88965,-156.797,240
1567604867,345.579,-160.065,-16.4083,179.802,1.88965,-156.797,244
1567604867,345.579,-160.065,-16.4083,179.802,1.88965,-156.797,244
1567604867,345.579,-160.065,-16.4083,179.802,1.88965,-156.797,244
1567604867,345.579,-160.065,-16.4083,179.802,1.88965,-156.797,244
1567604867,345.579,-160.065,-16.4083,179.802,1.88965,-156.797,244
1567604867,345.579,-160.065,-16.4083,179.802,1.88965,-156.797,244
1567604867,345.579,-160.065,-16.4083,179.802,1.88965,-156.797,244
1567604867,345.579,-160.065,-16.4083,179.802,1.88965,-156.797,244
1567604867,345.579,-160.065,-16.4083,179.802,1.88965,-156.797,244
1567604867,345.579,-160.065,-16.4083,179.802,1.88965,-156.797,244
1567604867,345.579,-160.065,-16.4083,179.802,1.88965,-156.797,244
1567604867,345.579,-160.065,-16.4083,179.802,1.88965,-156.775,244
1567604867,345.579,-160.065,-16.4083,179.802,1.88965,-156.775,244
1567604867,345.579,-160.065,-16.4083,179.802,1.88965,-156.775,244
1567604867,345.579,-160.065,-16.4083,179.802,1.88965,-156.775,248
1567604867,345.579,-159.953,-16.4083,179.802,1.88965,-156.775,248
1567604867,345.579,-159.953,-16.4083,179.802,1.88965,-156.775,248
1567604867,345.579,-159.953,-16.4083,179.802,1.88965,-156.775,248
1567604867,345.579,-159.953,-16.4083,179.802,1.88965,-156.775,248
1567604867,345.579,-159.953,-16.4083,179.802,1.88965,-156.775,248
1567604867,345.579,-159.953,-16.4083,179.802,1.88965,-156.775,248
1567604867,345.579,-159.953,-16.4083,179.802,1.88965,-156.775,248
1567604867,345.579,-159.953,-16.4083,179.802,1.88965,-156.775,248
1567604867,345.579,-160.065,-16.4083,179.802,1.88965,-156.775,248
1567604867,345.579,-160.065,-16.4083,179.802,1.88965,-156.775,248
1567604867,345.579,-160.065,-16.4083,179.802,1.88965,-156.775,248
1567604867,345.579,-160.065,-16.4083,179.802,1.88965,-156.775,248
1567604867,345.579,-160.065,-16.4083,179.802,1.88965,-156.775,248
1567604867,345.579,-160.065,-16.4083,179.802,1.88965,-156.775,248
1567604867,345.579,-160.065,-16.4083,179.802,1.88965,-156.775,244
1567604867,345.579,-160.065,-16.2967,179.802,1.88965,-156.775,244
1567604867,345.579,-160.065,-16.2967,179.802,1.88965,-156.775,244
1567604867,345.579,-160.065,-16.2967,179.802,1.88965,-156.775,244
1567604867,345.579,-160.065,-16.2967,179.802,1.88965,-156.775,240
1567604867,345.579,-160.065,-16.2967,179.802,1.91162,-156.775,240
1567604867,345.579,-160.065,-16.2967,179.802,1.91162,-156.775,240
1567604867,345.579,-160.065,-16.2967,179.802,1.91162,-156.775,240
1567604867,345.579,-160.065,-16.2967,179.802,1.91162,-156.775,240
1567604867,345.579,-160.065,-16.2967,179.802,1.91162,-156.775,240
1567604867,345.579,-160.065,-16.2967,179.802,1.91162,-156.775,240
1567604867,345.579,-160.065,-16.2967,179.802,1.91162,-156.775,236
1567604867,345.579,-160.176,-16.2967,179.78,1.91162,-156.775,236
1567604867,345.579,-160.176,-16.2967,179.78,1.91162,-156.775,236
1567604867,345.579,-160.176,-16.2967,179.78,1.91162,-156.775,236
1567604867,345.579,-160.176,-16.2967,179.78,1.91162,-156.775,240
1567604867,345.579,-160.176,-16.2967,179.78,1.91162,-156.775,240
1567604867,345.579,-160.176,-16.2967,179.78,1.91162,-156.775,240
1567604867,345.579,-160.176,-16.2967,179.78,1.91162,-156.775,240
1567604867,345.579,-160.176,-16.2967,179.78,1.91162,-156.775,240
1567604867,345.579,-160.176,-16.2967,179.78,1.91162,-156.775,240
1567604867,345.579,-160.176,-16.2967,179.78,1.91162,-156.797,240
1567604867,345.579,-160.176,-16.2967,179.78,1.91162,-156.797,240
1567604867,345.579,-160.176,-16.2967,179.78,1.91162,-156.797,240
1567604867,345.691,-160.176,-16.2967,179.78,1.91162,-156.797,240
1567604867,345.691,-160.176,-16.2967,179.78,1.91162,-156.797,240
1567604867,345.691,-160.176,-16.2967,179.78,1.91162,-156.797,240
1567604867,345.691,-160.176,-16.2967,179.78,1.91162,-156.797,240
1567604867,345.691,-160.176,-16.2967,179.78,1.91162,-156.797,240
1567604867,345.691,-160.176,-16.2967,179.78,1.91162,-156.775,240
1567604867,345.691,-160.176,-16.2967,179.78,1.91162,-156.775,240
1567604867,345.691,-160.176,-16.2967,179.78,1.91162,-156.775,240
1567604867,345.691,-160.176,-16.2967,179.78,1.91162,-156.775,240
1567604867,345.691,-160.176,-16.2967,179.78,1.91162,-156.775,240
1567604867,345.691,-160.176,-16.2967,179.78,1.91162,-156.775,240
1567604867,345.691,-160.176,-16.2967,179.78,1.91162,-156.775,240
1567604868,345.691,-160.176,-16.2967,179.78,1.91162,-156.775,240
1567604868,345.691,-160.176,-16.2967,179.78,1.91162,-156.775,240
1567604868,345.691,-160.176,-16.2967,179.78,1.91162,-156.775,240
1567604868,345.579,-160.176,-16.2967,179.78,1.91162,-156.775,240
1567604868,345.579,-160.176,-16.2967,179.78,1.91162,-156.775,236
1567604868,345.579,-160.176,-16.2967,179.758,1.91162,-156.775,236
1567604868,345.579,-160.176,-16.2967,179.758,1.91162,-156.775,236
1567604868,345.579,-160.176,-16.2967,179.758,1.91162,-156.775,236
1567604868,345.579,-160.176,-16.2967,179.758,1.91162,-156.775,236
1567604868,345.579,-160.176,-16.2967,179.758,1.91162,-156.775,236
1567604868,345.579,-160.176,-16.2967,179.758,1.91162,-156.775,236
1567604868,345.579,-160.176,-16.2967,179.758,1.91162,-156.775,236
1567604868,345.579,-160.176,-16.2967,179.758,1.91162,-156.775,236
1567604868,345.579,-160.176,-16.2967,179.758,1.91162,-156.775,236
1567604868,345.579,-160.176,-16.2967,179.758,1.91162,-156.775,236
1567604868,345.579,-160.176,-16.2967,179.758,1.91162,-156.775,236
1567604868,345.579,-160.176,-16.2967,179.758,1.91162,-156.775,236
1567604868,345.579,-160.176,-16.2967,179.758,1.91162,-156.797,236
1567604868,345.579,-160.176,-16.2967,179.758,1.91162,-156.797,236
1567604868,345.579,-160.176,-16.2967,179.758,1.91162,-156.797,236
1567604868,345.579,-160.176,-16.2967,179.78,1.91162,-156.797,236
1567604868,345.579,-160.176,-16.2967,179.78,1.91162,-156.797,236
1567604868,345.579,-160.176,-16.2967,179.78,1.91162,-156.797,236
1567604868,345.579,-160.065,-16.2967,179.78,1.91162,-156.797,236
1567604868,345.579,-160.065,-16.2967,179.78,1.91162,-156.797,236
1567604868,345.579,-160.065,-16.2967,179.802,1.91162,-156.797,236
1567604868,345.579,-160.065,-16.2967,179.802,1.91162,-156.797,236
1567604868,345.579,-160.065,-16.2967,179.802,1.91162,-156.797,236
1567604868,345.579,-160.065,-16.2967,179.802,1.91162,-156.797,236
1567604868,345.579,-160.065,-16.2967,179.802,1.91162,-156.797,236
1567604868,345.579,-160.065,-16.2967,179.802,1.91162,-156.797,236
1567604868,345.579,-160.065,-16.2967,179.802,1.91162,-156.797,236
1567604868,345.579,-160.065,-16.2967,179.802,1.91162,-156.797,236
1567604868,345.579,-160.065,-16.2967,179.802,1.91162,-156.797,236
1567604868,345.579,-160.065,-16.2967,179.78,1.91162,-156.797,236
1567604868,345.579,-160.065,-16.2967,179.78,1.91162,-156.797,236
1567604868,345.579,-160.065,-16.2967,179.802,1.91162,-156.797,240
1567604868,345.579,-160.065,-16.2967,179.802,1.91162,-156.797,240
1567604868,345.579,-160.065,-16.2967,179.802,1.91162,-156.797,240
1567604868,345.579,-160.065,-16.2967,179.802,1.91162,-156.797,240
1567604868,345.579,-160.065,-16.2967,179.802,1.88965,-156.797,240
1567604868,345.579,-160.065,-16.2967,179.802,1.88965,-156.797,240
1567604868,345.579,-160.065,-16.2967,179.802,1.91162,-156.797,240
1567604868,345.579,-160.065,-16.2967,179.802,1.91162,-156.797,240
1567604868,345.579,-160.065,-16.2967,179.78,1.91162,-156.797,240
1567604868,345.579,-160.065,-16.2967,179.78,1.91162,-156.797,240
1567604868,345.579,-160.065,-16.2967,179.78,1.91162,-156.797,240
1567604868,345.579,-160.065,-16.2967,179.78,1.91162,-156.797,240
1567604868,345.579,-160.065,-16.2967,179.78,1.91162,-156.797,240
1567604868,345.579,-160.065,-16.2967,179.78,1.91162,-156.797,240
1567604868,345.579,-160.065,-16.2967,179.78,1.91162,-156.797,240
1567604868,345.579,-160.065,-16.2967,179.78,1.91162,-156.797,240
1567604868,345.579,-160.065,-16.2967,179.78,1.91162,-156.797,240
1567604868,345.579,-160.065,-16.2967,179.78,1.91162,-156.797,240
1567604868,345.579,-160.065,-16.4083,179.78,1.88965,-156.797,240
1567604868,345.579,-160.065,-16.4083,179.78,1.88965,-156.797,240
1567604868,345.579,-160.065,-16.4083,179.78,1.88965,-156.797,240
1567604868,345.579,-160.065,-16.4083,179.78,1.88965,-156.797,240
1567604868,345.579,-160.176,-16.4083,179.78,1.88965,-156.819,244
1567604868,345.579,-160.176,-16.4083,179.78,1.88965,-156.819,244
1567604868,345.579,-160.176,-16.4083,179.78,1.88965,-156.819,244
1567604868,345.579,-160.176,-16.4083,179.758,1.88965,-156.819,244
1567604868,345.579,-160.176,-16.4083,179.758,1.88965,-156.819,240
1567604868,345.579,-160.176,-16.4083,179.758,1.88965,-156.819,240
1567604868,345.579,-160.176,-16.4083,179.758,1.88965,-156.797,240
1567604868,345.579,-160.176,-16.4083,179.758,1.88965,-156.797,240
1567604868,345.579,-160.176,-16.4083,179.758,1.88965,-156.797,240
1567604868,345.579,-160.176,-16.4083,179.758,1.88965,-156.797,240
1567604868,345.579,-160.176,-16.4083,179.758,1.88965,-156.797,240
1567604868,345.579,-160.176,-16.4083,179.758,1.88965,-156.797,240
1567604868,345.579,-160.176,-16.4083,179.758,1.88965,-156.797,240
1567604868,345.579,-160.176,-16.4083,179.758,1.88965,-156.797,240
1567604868,345.579,-160.176,-16.4083,179.758,1.88965,-156.797,240
1567604868,345.579,-160.176,-16.4083,179.758,1.88965,-156.797,240
1567604868,345.579,-160.176,-16.4083,179.758,1.88965,-156.797,240
1567604868,345.579,-160.176,-16.2967,179.78,1.88965,-156.797,240
1567604868,345.579,-160.176,-16.2967,179.78,1.88965,-156.797,244
1567604868,345.579,-160.176,-16.2967,179.78,1.88965,-156.797,244
1567604868,345.579,-160.176,-16.2967,179.78,1.91162,-156.797,244
1567604868,345.579,-160.176,-16.2967,179.78,1.91162,-156.797,244
1567604868,345.579,-160.065,-16.2967,179.802,1.91162,-156.797,244
1567604868,345.579,-160.065,-16.2967,179.802,1.91162,-156.797,244
1567604868,345.579,-160.065,-16.2967,179.802,1.91162,-156.797,244
1567604868,345.579,-160.065,-16.2967,179.802,1.91162,-156.797,244
1567604868,345.579,-160.065,-16.2967,179.802,1.91162,-156.797,244
1567604868,345.691,-160.065,-16.2967,179.802,1.91162,-156.797,244
1567604868,345.691,-160.065,-16.2967,179.802,1.91162,-156.797,244
1567604868,345.691,-160.065,-16.2967,179.802,1.91162,-156.797,244
1567604868,345.691,-160.065,-16.2967,179.802,1.91162,-156.797,244
1567604868,345.691,-160.065,-16.2967,179.802,1.91162,-156.797,240
1567604868,345.691,-160.065,-16.2967,179.802,1.91162,-156.797,240
1567604868,345.691,-160.065,-16.2967,179.802,1.91162,-156.797,240
1567604868,345.691,-160.065,-16.2967,179.802,1.88965,-156.797,240
1567604868,345.691,-160.065,-16.2967,179.802,1.88965,-156.797,236
1567604868,345.691,-160.065,-16.2967,179.802,1.88965,-156.797,236
1567604868,345.691,-160.176,-16.2967,179.802,1.88965,-156.819,236
1567604868,345.691,-160.176,-16.2967,179.802,1.88965,-156.819,232
1567604868,345.691,-160.065,-16.2967,179.802,1.88965,-156.819,232
1567604868,345.691,-160.065,-16.4083,179.802,1.88965,-156.819,232
1567604868,345.691,-160.065,-16.4083,179.802,1.88965,-156.797,232
1567604869,345.691,-160.065,-16.4083,179.802,1.88965,-156.797,232
1567604869,345.691,-160.065,-16.4083,179.802,1.88965,-156.797,232
1567604869,345.691,-160.065,-16.2967,179.802,1.88965,-156.797,232
1567604869,345.691,-160.065,-16.2967,179.802,1.88965,-156.797,232
1567604869,345.691,-160.065,-16.2967,179.802,1.88965,-156.797,232
1567604869,345.691,-160.065,-16.2967,179.802,1.88965,-156.797,232
1567604869,345.691,-160.065,-16.2967,179.802,1.91162,-156.797,236
1567604869,345.691,-160.065,-16.2967,179.802,1.91162,-156.797,236
1567604869,345.691,-160.065,-16.2967,179.802,1.91162,-156.797,236
1567604869,345.691,-160.065,-16.2967,179.802,1.91162,-156.797,236
1567604869,345.691,-160.065,-16.2967,179.802,1.91162,-156.797,236
1567604869,345.691,-160.065,-16.2967,179.802,1.91162,-156.797,240
1567604869,345.691,-160.065,-16.2967,179.802,1.91162,-156.797,240
1567604869,345.579,-160.065,-16.2967,179.802,1.91162,-156.797,240
1567604869,345.579,-160.065,-16.2967,179.802,1.91162,-156.797,240
1567604869,345.579,-160.065,-16.2967,179.802,1.91162,-156.797,240
1567604869,345.579,-160.065,-16.2967,179.802,1.88965,-156.797,240
1567604869,345.579,-160.065,-16.2967,179.78,1.88965,-156.797,240
1567604869,345.579,-160.065,-16.2967,179.78,1.88965,-156.797,240
1567604869,345.579,-160.065,-16.4083,179.78,1.88965,-156.797,244
1567604869,345.579,-160.176,-16.4083,179.78,1.88965,-156.797,244
1567604869,345.579,-160.176,-16.4083,179.78,1.88965,-156.797,244
1567604869,345.579,-160.176,-16.4083,179.78,1.88965,-156.797,244
1567604869,345.579,-160.176,-16.4083,179.78,1.88965,-156.797,244
1567604869,345.691,-160.176,-16.4083,179.78,1.88965,-156.797,244
1567604869,345.691,-160.176,-16.4083,179.78,1.88965,-156.797,244
1567604869,345.691,-160.176,-16.4083,179.78,1.88965,-156.797,244
1567604869,345.691,-160.176,-16.2967,179.78,1.88965,-156.797,244
1567604869,345.579,-160.176,-16.2967,179.78,1.88965,-156.797,244
1567604869,345.579,-160.176,-16.2967,179.78,1.88965,-156.797,244
1567604869,345.579,-160.176,-16.2967,179.78,1.88965,-156.797,244
1567604869,345.579,-160.176,-16.4083,179.78,1.88965,-156.797,244
1567604869,345.579,-160.176,-16.4083,179.78,1.88965,-156.797,244
1567604869,345.579,-160.176,-16.4083,179.78,1.88965,-156.797,248
1567604869,345.579,-160.176,-16.4083,179.78,1.88965,-156.797,248
1567604869,345.579,-160.176,-16.4083,179.78,1.88965,-156.797,248
1567604869,345.579,-160.176,-16.4083,179.758,1.88965,-156.797,248
1567604869,345.579,-160.176,-16.4083,179.758,1.88965,-156.797,248
1567604869,345.579,-160.176,-16.4083,179.758,1.88965,-156.797,248
1567604869,345.579,-160.176,-16.4083,179.758,1.88965,-156.797,248
1567604869,345.579,-160.176,-16.4083,179.758,1.88965,-156.797,248
1567604869,345.579,-160.176,-16.4083,179.758,1.88965,-156.797,248
1567604869,345.579,-160.176,-16.4083,179.758,1.88965,-156.797,244
1567604869,345.579,-160.176,-16.4083,179.758,1.88965,-156.797,244
1567604869,345.579,-160.176,-16.4083,179.758,1.88965,-156.797,244
1567604869,345.579,-160.176,-16.4083,179.758,1.88965,-156.797,244
1567604869,345.579,-160.176,-16.4083,179.758,1.88965,-156.797,244
1567604869,345.579,-160.176,-16.4083,179.758,1.88965,-156.797,244
1567604869,345.579,-160.176,-16.4083,179.758,1.88965,-156.797,244
1567604869,345.579,-160.176,-16.4083,179.758,1.88965,-156.797,244
1567604869,345.579,-160.176,-16.4083,179.758,1.88965,-156.797,244
1567604869,345.579,-160.176,-16.4083,179.758,1.88965,-156.797,244
1567604869,345.579,-160.176,-16.4083,179.758,1.88965,-156.797,240
1567604869,345.579,-160.176,-16.4083,179.758,1.88965,-156.797,240
1567604869,345.579,-160.288,-16.4083,179.758,1.88965,-156.797,240
1567604869,345.579,-160.288,-16.4083,179.758,1.88965,-156.797,240
1567604869,345.579,-160.288,-16.4083,179.758,1.88965,-156.797,240
1567604869,345.579,-160.288,-16.2967,179.736,1.88965,-156.797,240
1567604869,345.579,-160.288,-16.2967,179.736,1.88965,-156.797,240
1567604869,345.579,-160.288,-16.2967,179.736,1.88965,-156.797,240
1567604869,345.579,-160.288,-16.2967,179.736,1.88965,-156.797,240
1567604869,345.579,-160.288,-16.2967,179.736,1.88965,-156.797,240
1567604869,345.579,-160.288,-16.4083,179.736,1.88965,-156.797,244
1567604869,345.579,-160.288,-16.4083,179.736,1.88965,-156.797,244
1567604869,345.579,-160.288,-16.4083,179.736,1.88965,-156.797,244
1567604869,345.579,-160.288,-16.4083,179.736,1.88965,-156.797,244
1567604869,345.579,-160.288,-16.4083,179.736,1.88965,-156.797,244
1567604869,345.579,-160.288,-16.4083,179.736,1.88965,-156.797,244
1567604869,345.579,-160.288,-16.4083,179.736,1.88965,-156.797,248
1567604869,345.579,-160.288,-16.4083,179.736,1.88965,-156.797,248
1567604869,345.579,-160.288,-16.4083,179.736,1.88965,-156.797,248
1567604869,345.579,-160.176,-16.4083,179.736,1.88965,-156.797,248
1567604869,345.579,-160.176,-16.4083,179.736,1.88965,-156.797,248
1567604869,345.579,-160.176,-16.4083,179.758,1.88965,-156.797,252
1567604869,345.579,-160.176,-16.4083,179.758,1.88965,-156.797,252
1567604869,345.579,-160.176,-16.4083,179.758,1.88965,-156.797,252
1567604869,345.579,-160.176,-16.4083,179.758,1.88965,-156.797,252
1567604869,345.579,-160.176,-16.4083,179.758,1.88965,-156.797,252
1567604869,345.579,-160.176,-16.4083,179.758,1.88965,-156.797,252
1567604869,345.579,-160.176,-16.4083,179.758,1.88965,-156.797,252
1567604869,345.579,-160.176,-16.2967,179.78,1.88965,-156.797,252
1567604869,345.579,-160.176,-16.2967,179.78,1.88965,-156.797,252
1567604869,345.579,-160.176,-16.2967,179.78,1.88965,-156.797,252
1567604869,345.579,-160.176,-16.2967,179.78,1.88965,-156.797,248
1567604869,345.579,-160.176,-16.2967,179.78,1.88965,-156.797,248
1567604869,345.579,-160.176,-16.2967,179.78,1.88965,-156.797,248
1567604869,345.579,-160.176,-16.2967,179.78,1.88965,-156.797,248
1567604869,345.579,-160.176,-16.2967,179.78,1.88965,-156.797,248
1567604869,345.579,-160.065,-16.2967,179.78,1.91162,-156.775,248
1567604869,345.579,-160.065,-16.2967,179.78,1.91162,-156.775,248
1567604869,345.579,-160.065,-16.2967,179.78,1.91162,-156.775,248
1567604869,345.579,-160.065,-16.2967,179.78,1.91162,-156.775,248
1567604869,345.579,-160.065,-16.2967,179.802,1.91162,-156.775,248
1567604869,345.579,-160.065,-16.2967,179.802,1.91162,-156.775,248
1567604869,345.579,-160.065,-16.2967,179.802,1.91162,-156.775,248
1567604869,345.579,-160.065,-16.2967,179.78,1.91162,-156.775,248
1567604869,345.579,-160.065,-16.2967,179.78,1.91162,-156.775,248
1567604869,345.579,-160.065,-16.1851,179.78,1.91162,-156.775,248
1567604869,345.579,-160.065,-16.1851,179.78,1.91162,-156.775,248
1567604869,345.579,-160.065,-16.1851,179.78,1.93359,-156.775,248
1567604870,345.579,-160.065,-16.1851,179.78,1.93359,-156.775,252
1567604870,345.579,-160.065,-16.1851,179.78,1.93359,-156.775,252
1567604870,345.579,-160.176,-16.1851,179.78,1.93359,-156.775,252
1567604870,345.579,-160.176,-16.1851,179.78,1.93359,-156.775,252
1567604870,345.579,-160.176,-16.1851,179.78,1.93359,-156.775,252
1567604870,345.579,-160.176,-16.1851,179.78,1.93359,-156.775,252
1567604870,345.579,-160.176,-16.1851,179.78,1.93359,-156.775,252
1567604870,345.579,-160.176,-16.1851,179.758,1.93359,-156.775,252
1567604870,345.579,-160.176,-16.1851,179.758,1.93359,-156.775,252
1567604870,345.579,-160.176,-16.1851,179.758,1.93359,-156.775,252
1567604870,345.579,-160.176,-16.1851,179.758,1.93359,-156.775,252
1567604870,345.579,-160.176,-16.1851,179.758,1.93359,-156.775,252
1567604870,345.579,-160.176,-16.1851,179.758,1.91162,-156.797,252
1567604870,345.579,-160.176,-16.2967,179.758,1.91162,-156.797,252
1567604870,345.579,-160.176,-16.2967,179.758,1.91162,-156.797,248
1567604870,345.579,-160.176,-16.2967,179.758,1.91162,-156.797,248
1567604870,345.579,-160.176,-16.2967,179.78,1.91162,-156.797,248
1567604870,345.579,-160.176,-16.2967,179.78,1.91162,-156.797,248
1567604870,345.579,-160.176,-16.2967,179.78,1.91162,-156.797,248
1567604870,345.579,-160.176,-16.2967,179.78,1.91162,-156.797,248
1567604870,345.579,-160.176,-16.2967,179.78,1.91162,-156.797,248
1567604870,345.579,-160.176,-16.2967,179.78,1.91162,-156.797,248
1567604870,345.579,-160.176,-16.2967,179.78,1.91162,-156.797,248
1567604870,345.691,-160.176,-16.2967,179.78,1.88965,-156.797,248
1567604870,345.691,-160.065,-16.2967,179.78,1.88965,-156.797,244
1567604870,345.691,-160.065,-16.2967,179.78,1.88965,-156.797,244
1567604870,345.691,-160.065,-16.2967,179.78,1.88965,-156.797,244
1567604870,345.691,-160.065,-16.2967,179.78,1.88965,-156.797,244
1567604870,345.691,-160.065,-16.2967,179.78,1.88965,-156.797,244
1567604870,345.691,-160.065,-16.2967,179.802,1.88965,-156.797,244
1567604870,345.691,-160.065,-16.2967,179.802,1.88965,-156.797,244
1567604870,345.691,-160.065,-16.2967,179.802,1.88965,-156.797,244
1567604870,345.691,-160.065,-16.2967,179.802,1.91162,-156.797,244
1567604870,345.691,-160.065,-16.2967,179.802,1.91162,-156.797,240
1567604870,345.691,-160.065,-16.2967,179.802,1.91162,-156.797,240
1567604870,345.691,-160.065,-16.2967,179.802,1.91162,-156.797,240
1567604870,345.691,-160.065,-16.2967,179.802,1.91162,-156.797,240
1567604870,345.691,-160.065,-16.2967,179.802,1.91162,-156.797,240
1567604870,345.691,-160.065,-16.2967,179.802,1.91162,-156.797,240
1567604870,345.691,-160.065,-16.2967,179.802,1.91162,-156.797,236
1567604870,345.691,-160.065,-16.2967,179.802,1.88965,-156.797,236
1567604870,345.691,-160.065,-16.2967,179.802,1.88965,-156.797,236
1567604870,345.691,-160.065,-16.2967,179.802,1.88965,-156.797,236
1567604870,345.691,-160.065,-16.2967,179.802,1.88965,-156.797,236
1567604870,345.691,-160.065,-16.2967,179.802,1.88965,-156.797,232
1567604870,345.691,-160.065,-16.2967,179.802,1.88965,-156.797,232
1567604870,345.691,-160.065,-16.2967,179.802,1.88965,-156.797,232
1567604870,345.691,-160.065,-16.4083,179.802,1.88965,-156.797,232
1567604870,345.691,-160.065,-16.4083,179.802,1.88965,-156.797,232
1567604870,345.691,-160.065,-16.4083,179.802,1.88965,-156.797,232
1567604870,345.691,-160.065,-16.4083,179.802,1.88965,-156.797,232
1567604870,345.691,-160.065,-16.4083,179.802,1.88965,-156.797,232
1567604870,345.691,-160.065,-16.4083,179.802,1.88965,-156.797,232
1567604870,345.691,-160.065,-16.4083,179.802,1.88965,-156.797,232
1567604870,345.691,-160.065,-16.4083,179.802,1.88965,-156.797,232
1567604870,345.691,-160.065,-16.4083,179.802,1.88965,-156.797,232
1567604870,345.691,-160.065,-16.4083,179.802,1.88965,-156.797,232
1567604870,345.691,-160.065,-16.4083,179.802,1.88965,-156.797,232
1567604870,345.691,-160.065,-16.4083,179.802,1.88965,-156.797,232
1567604870,345.691,-160.065,-16.4083,179.802,1.88965,-156.797,232
1567604870,345.691,-160.065,-16.4083,179.802,1.88965,-156.797,232
1567604870,345.691,-160.176,-16.4083,179.802,1.88965,-156.797,232
1567604870,345.691,-160.176,-16.4083,179.802,1.88965,-156.797,232
1567604870,345.691,-160.176,-16.4083,179.802,1.88965,-156.797,232
1567604870,345.691,-160.176,-16.4083,179.802,1.88965,-156.797,232
1567604870,345.691,-160.176,-16.4083,179.802,1.88965,-156.797,228
1567604870,345.691,-160.176,-16.4083,179.802,1.88965,-156.797,228
1567604870,345.691,-160.176,-16.4083,179.802,1.88965,-156.797,228
1567604870,345.802,-160.176,-16.2967,179.802,1.88965,-156.797,228
1567604870,345.802,-160.065,-16.2967,179.802,1.88965,-156.797,228
1567604870,345.802,-160.065,-16.2967,179.824,1.88965,-156.797,228
1567604870,345.802,-160.065,-16.2967,179.824,1.88965,-156.797,228
1567604870,345.802,-160.065,-16.2967,179.824,1.88965,-156.797,228
1567604870,345.802,-160.065,-16.2967,179.824,1.88965,-156.797,228
1567604870,345.802,-160.065,-16.2967,179.824,1.88965,-156.797,228
1567604870,345.802,-160.065,-16.2967,179.824,1.88965,-156.797,228
1567604870,345.802,-160.065,-16.2967,179.824,1.88965,-156.797,228
1567604870,345.802,-160.065,-16.2967,179.824,1.88965,-156.797,232
1567604870,345.802,-160.065,-16.2967,179.824,1.88965,-156.797,232
1567604870,345.802,-160.065,-16.2967,179.824,1.88965,-156.797,232
1567604870,345.691,-160.065,-16.2967,179.802,1.88965,-156.797,232
1567604870,345.691,-160.065,-16.2967,179.802,1.88965,-156.797,232
1567604870,345.691,-160.065,-16.2967,179.802,1.88965,-156.797,232
1567604870,345.691,-160.065,-16.2967,179.802,1.88965,-156.797,232
1567604870,345.691,-160.065,-16.4083,179.802,1.88965,-156.797,232
1567604870,345.691,-160.065,-16.4083,179.802,1.88965,-156.797,232
1567604870,345.691,-160.065,-16.4083,179.802,1.88965,-156.797,232
1567604870,345.691,-160.065,-16.4083,179.802,1.88965,-156.797,232
1567604870,345.691,-160.065,-16.4083,179.802,1.88965,-156.797,232
1567604870,345.691,-160.176,-16.4083,179.802,1.88965,-156.797,232
1567604870,345.691,-160.176,-16.4083,179.802,1.91162,-156.797,232
1567604870,345.691,-160.176,-16.2967,179.802,1.91162,-156.797,232
1567604870,345.691,-160.176,-16.2967,179.802,1.91162,-156.797,232
1567604870,345.691,-160.176,-16.2967,179.802,1.91162,-156.797,232
1567604870,345.691,-160.176,-16.2967,179.802,1.91162,-156.797,228
1567604870,345.691,-160.176,-16.2967,179.802,1.91162,-156.797,228
1567604870,345.691,-160.176,-16.2967,179.802,1.91162,-156.797,228
1567604870,345.691,-160.176,-16.2967,179.802,1.91162,-156.797,228
1567604870,345.691,-160.176,-16.2967,179.802,1.91162,-156.797,224
1567604870,345.691,-160.176,-16.2967,179.802,1.91162,-156.797,224
1567604871,345.691,-160.065,-16.4083,179.802,1.88965,-156.797,224
1567604871,345.691,-160.065,-16.4083,179.802,1.88965,-156.797,224
1567604871,345.691,-160.065,-16.4083,179.802,1.88965,-156.797,224
1567604871,345.691,-160.065,-16.4083,179.802,1.88965,-156.797,224
1567604871,345.691,-160.065,-16.4083,179.802,1.88965,-156.797,224
1567604871,345.691,-160.065,-16.4083,179.824,1.88965,-156.797,224
1567604871,345.691,-160.065,-16.4083,179.824,1.88965,-156.797,220
1567604871,345.691,-160.065,-16.2967,179.824,1.88965,-156.797,220
1567604871,345.691,-160.065,-16.2967,179.802,1.91162,-156.797,220
1567604871,345.691,-160.065,-16.2967,179.802,1.91162,-156.797,224
1567604871,345.691,-160.065,-16.2967,179.802,1.91162,-156.797,224
1567604871,345.691,-160.065,-16.2967,179.802,1.91162,-156.797,224
1567604871,345.691,-160.065,-16.2967,179.802,1.91162,-156.797,224
1567604871,345.691,-160.065,-16.2967,179.802,1.91162,-156.797,224
1567604871,345.691,-160.065,-16.2967,179.802,1.91162,-156.797,224
1567604871,345.691,-160.065,-16.2967,179.802,1.91162,-156.797,224
1567604871,345.691,-160.065,-16.2967,179.802,1.91162,-156.797,224
1567604871,345.691,-160.065,-16.2967,179.802,1.93359,-156.797,224
1567604871,345.691,-160.065,-16.2967,179.802,1.93359,-156.797,224
1567604871,345.691,-160.065,-16.2967,179.802,1.93359,-156.797,228
1567604871,345.691,-160.176,-16.2967,179.802,1.93359,-156.797,228
1567604871,345.691,-160.176,-16.2967,179.802,1.93359,-156.797,228
1567604871,345.691,-160.176,-16.2967,179.78,1.93359,-156.797,228
1567604871,345.691,-160.176,-16.2967,179.78,1.93359,-156.797,228
1567604871,345.691,-160.176,-16.2967,179.78,1.93359,-156.797,228
1567604871,345.691,-160.176,-16.2967,179.78,1.93359,-156.797,228
1567604871,345.691,-160.176,-16.2967,179.78,1.91162,-156.797,228
1567604871,345.691,-160.176,-16.2967,179.78,1.91162,-156.797,232
1567604871,345.691,-160.176,-16.2967,179.78,1.91162,-156.797,232
1567604871,345.691,-160.176,-16.2967,179.78,1.91162,-156.797,232
1567604871,345.691,-160.176,-16.2967,179.78,1.91162,-156.797,232
1567604871,345.691,-160.176,-16.2967,179.78,1.91162,-156.797,232
1567604871,345.579,-160.176,-16.2967,179.758,1.91162,-156.797,232
1567604871,345.579,-160.176,-16.2967,179.758,1.91162,-156.797,232
1567604871,345.579,-160.176,-16.2967,179.758,1.91162,-156.797,236
1567604871,345.579,-160.288,-16.4083,179.758,1.91162,-156.797,236
1567604871,345.579,-160.288,-16.4083,179.758,1.91162,-156.819,236
1567604871,345.579,-160.288,-16.4083,179.758,1.91162,-156.819,236
1567604871,345.579,-160.288,-16.2967,179.758,1.91162,-156.819,236
1567604871,345.579,-160.288,-16.2967,179.758,1.91162,-156.797,236
1567604871,345.579,-160.288,-16.2967,179.758,1.91162,-156.797,236
1567604871,345.579,-160.288,-16.2967,179.758,1.91162,-156.797,236
1567604871,345.691,-160.288,-16.2967,179.758,1.91162,-156.797,236
1567604871,345.691,-160.288,-16.2967,179.758,1.91162,-156.797,236
1567604871,345.691,-160.176,-16.2967,179.758,1.91162,-156.797,236
1567604871,345.691,-160.176,-16.2967,179.758,1.91162,-156.797,236
1567604871,345.579,-160.176,-16.2967,179.758,1.91162,-156.797,236
1567604871,345.579,-160.176,-16.2967,179.78,1.91162,-156.797,236
1567604871,345.579,-160.176,-16.2967,179.78,1.91162,-156.797,236
1567604878,322.138,-136.066,-16.4083,179.78,1.75781,-156.423,208
1567604878,322.138,-136.066,-16.4083,179.78,1.75781,-156.423,208
1567604878,322.138,-136.066,-16.4083,179.78,1.77979,-156.423,208
1567604878,322.138,-136.066,-16.4083,179.78,1.77979,-156.423,208
1567604878,322.138,-136.066,-16.2967,179.78,1.77979,-156.423,208
1567604878,322.138,-136.066,-16.2967,179.78,1.77979,-156.423,208
1567604878,322.138,-136.066,-16.2967,179.78,1.77979,-156.423,208
1567604878,322.138,-136.066,-16.2967,179.78,1.77979,-156.423,208
1567604878,322.138,-136.066,-16.2967,179.78,1.77979,-156.423,208
1567604878,322.138,-136.066,-16.2967,179.78,1.77979,-156.423,208
1567604878,322.138,-136.066,-16.2967,179.78,1.77979,-156.423,208
1567604878,322.138,-136.066,-16.2967,179.78,1.77979,-156.423,208
1567604878,322.138,-136.066,-16.2967,179.78,1.77979,-156.423,208
1567604878,322.138,-136.066,-16.2967,179.78,1.77979,-156.423,212
1567604878,322.138,-136.066,-16.2967,179.78,1.77979,-156.423,212
1567604878,322.138,-136.066,-16.2967,179.78,1.77979,-156.423,212
1567604878,322.138,-136.066,-16.2967,179.78,1.77979,-156.423,208
1567604878,322.138,-136.066,-16.2967,179.78,1.77979,-156.423,208
1567604878,322.138,-136.066,-16.2967,179.78,1.77979,-156.423,208
1567604878,322.138,-136.066,-16.2967,179.78,1.77979,-156.423,208
1567604878,322.138,-136.066,-16.2967,179.78,1.77979,-156.423,212
1567604878,322.138,-136.066,-16.2967,179.78,1.77979,-156.423,212
1567604878,322.138,-136.066,-16.2967,179.78,1.77979,-156.423,212
1567604878,322.138,-136.066,-16.2967,179.78,1.77979,-156.423,212
1567604878,322.138,-136.066,-16.2967,179.78,1.77979,-156.423,212
1567604878,322.138,-136.066,-16.2967,179.78,1.77979,-156.401,212
1567604878,322.138,-136.066,-16.2967,179.78,1.77979,-156.401,212
1567604878,322.138,-136.066,-16.2967,179.78,1.80176,-156.401,212
1567604878,322.138,-136.066,-16.2967,179.78,1.80176,-156.401,212
1567604878,322.138,-136.066,-16.2967,179.78,1.80176,-156.401,212
1567604878,322.027,-136.066,-16.2967,179.78,1.80176,-156.401,212
1567604878,322.027,-136.066,-16.2967,179.758,1.80176,-156.401,212
1567604878,322.027,-136.066,-16.2967,179.758,1.80176,-156.401,216
1567604878,322.027,-136.066,-16.2967,179.758,1.80176,-156.401,216
1567604878,322.027,-136.066,-16.2967,179.758,1.80176,-156.423,216
1567604878,322.027,-136.066,-16.2967,179.758,1.80176,-156.423,216
1567604878,322.027,-136.066,-16.2967,179.758,1.80176,-156.423,216
1567604878,322.027,-136.066,-16.2967,179.758,1.80176,-156.423,216
1567604878,322.027,-136.066,-16.2967,179.758,1.80176,-156.423,216
1567604878,322.027,-136.066,-16.2967,179.758,1.80176,-156.423,216
1567604878,322.027,-136.066,-16.2967,179.758,1.80176,-156.423,216
1567604878,322.027,-136.066,-16.2967,179.758,1.80176,-156.423,216
1567604878,322.027,-136.066,-16.2967,179.758,1.80176,-156.423,216
1567604878,322.027,-136.066,-16.2967,179.758,1.77979,-156.423,216
1567604878,322.027,-136.066,-16.2967,179.758,1.77979,-156.423,220
1567604878,322.027,-136.066,-16.2967,179.758,1.77979,-156.423,220
1567604878,322.027,-136.066,-16.2967,179.758,1.77979,-156.423,220
1567604878,322.027,-136.066,-16.2967,179.758,1.77979,-156.423,220
1567604878,322.027,-136.066,-16.2967,179.758,1.77979,-156.423,220
1567604878,322.027,-136.066,-16.2967,179.758,1.77979,-156.423,220
1567604878,322.027,-136.066,-16.2967,179.758,1.77979,-156.423,220
1567604878,322.027,-136.066,-16.2967,179.758,1.77979,-156.423,220
1567604878,322.027,-136.066,-16.2967,179.78,1.77979,-156.423,220
1567604878,322.027,-136.066,-16.2967,179.78,1.77979,-156.423,220
1567604878,322.027,-136.066,-16.2967,179.78,1.77979,-156.423,220
1567604878,322.027,-136.066,-16.2967,179.78,1.77979,-156.423,220
1567604878,322.027,-136.066,-16.2967,179.78,1.77979,-156.423,220
1567604878,322.027,-136.066,-16.2967,179.78,1.77979,-156.423,220
1567604878,322.027,-136.066,-16.2967,179.78,1.77979,-156.423,220
1567604878,322.027,-136.066,-16.2967,179.78,1.77979,-156.423,220
1567604878,322.027,-136.066,-16.2967,179.78,1.77979,-156.423,224
1567604878,322.027,-136.066,-16.2967,179.78,1.77979,-156.423,224
1567604878,322.027,-136.066,-16.2967,179.78,1.77979,-156.423,224
1567604878,322.027,-136.066,-16.2967,179.78,1.77979,-156.423,224
1567604878,322.027,-136.066,-16.2967,179.78,1.77979,-156.423,224
1567604878,322.027,-136.066,-16.2967,179.78,1.77979,-156.423,224
1567604878,322.027,-136.066,-16.2967,179.78,1.77979,-156.423,224
1567604878,322.027,-136.066,-16.2967,179.78,1.77979,-156.423,224
1567604878,322.027,-136.066,-16.2967,179.78,1.77979,-156.423,224
1567604878,322.027,-136.066,-16.2967,179.78,1.77979,-156.423,224
1567604878,322.027,-136.066,-16.2967,179.78,1.77979,-156.423,224
1567604878,322.027,-136.066,-16.2967,179.78,1.77979,-156.423,224
1567604878,322.027,-136.066,-16.2967,179.78,1.77979,-156.445,224
1567604878,322.027,-136.066,-16.2967,179.78,1.80176,-156.445,224
1567604878,322.027,-136.066,-16.2967,179.78,1.80176,-156.423,224
1567604878,322.027,-136.066,-16.2967,179.78,1.77979,-156.445,224
1567604878,322.027,-136.066,-16.2967,179.78,1.77979,-156.445,224
1567604878,322.027,-136.066,-16.2967,179.78,1.77979,-156.445,224
1567604878,322.027,-136.066,-16.2967,179.78,1.77979,-156.445,224
1567604878,322.027,-136.066,-16.2967,179.78,1.77979,-156.445,224
1567604878,322.027,-136.066,-16.2967,179.78,1.77979,-156.445,224
1567604878,322.027,-136.066,-16.2967,179.78,1.77979,-156.445,224
1567604878,322.027,-136.066,-16.2967,179.78,1.77979,-156.445,224
1567604878,322.027,-136.066,-16.2967,179.78,1.77979,-156.445,224
1567604878,322.027,-136.066,-16.2967,179.78,1.77979,-156.445,224
1567604878,322.027,-136.066,-16.2967,179.78,1.77979,-156.445,224
1567604878,322.027,-136.066,-16.2967,179.78,1.77979,-156.423,224
1567604879,322.027,-136.066,-16.4083,179.78,1.77979,-156.423,224
1567604879,322.027,-136.066,-16.4083,179.78,1.77979,-156.423,224
1567604879,322.027,-136.066,-16.4083,179.78,1.77979,-156.423,224
1567604879,322.027,-136.066,-16.2967,179.78,1.77979,-156.423,224
1567604879,322.027,-136.066,-16.2967,179.78,1.77979,-156.423,224
1567604879,322.027,-136.066,-16.2967,179.78,1.77979,-156.423,224
1567604879,322.027,-136.066,-16.2967,179.78,1.77979,-156.423,220
1567604879,322.138,-136.066,-16.2967,179.78,1.75781,-156.423,220
1567604879,322.138,-136.066,-16.2967,179.78,1.75781,-156.423,220
1567604879,322.138,-135.954,-16.2967,179.802,1.75781,-156.423,220
1567604879,322.138,-135.954,-16.2967,179.802,1.77979,-156.423,220
1567604879,322.138,-135.954,-16.2967,179.802,1.77979,-156.423,220
1567604879,322.138,-135.954,-16.2967,179.802,1.77979,-156.423,220
1567604879,322.138,-135.954,-16.2967,179.802,1.77979,-156.423,220
1567604879,322.138,-135.954,-16.2967,179.802,1.77979,-156.423,220
1567604879,322.138,-135.954,-16.2967,179.802,1.77979,-156.423,220
1567604879,322.138,-135.954,-16.2967,179.802,1.77979,-156.423,220
1567604879,322.138,-135.954,-16.2967,179.802,1.77979,-156.423,220
1567604879,322.138,-135.954,-16.2967,179.802,1.77979,-156.423,220
1567604879,322.138,-135.954,-16.2967,179.802,1.77979,-156.423,220
1567604879,322.138,-135.954,-16.2967,179.802,1.77979,-156.423,220
1567604879,322.138,-135.954,-16.2967,179.802,1.77979,-156.423,216
1567604879,322.138,-135.954,-16.2967,179.802,1.77979,-156.423,216
1567604879,322.138,-135.954,-16.2967,179.802,1.77979,-156.423,216
1567604879,322.138,-135.954,-16.2967,179.802,1.77979,-156.423,216
1567604879,322.138,-135.954,-16.2967,179.802,1.77979,-156.423,216
1567604879,322.138,-135.954,-16.2967,179.802,1.77979,-156.423,216
1567604879,322.138,-135.954,-16.2967,179.802,1.77979,-156.423,216
1567604879,322.138,-135.954,-16.2967,179.802,1.77979,-156.423,216
1567604879,322.138,-135.954,-16.2967,179.802,1.77979,-156.423,216
1567604879,322.138,-135.954,-16.2967,179.802,1.77979,-156.423,216
1567604879,322.138,-135.954,-16.2967,179.802,1.77979,-156.423,216
1567604879,322.138,-135.954,-16.2967,179.802,1.77979,-156.423,216
1567604879,322.138,-135.954,-16.2967,179.802,1.77979,-156.423,216
1567604879,322.138,-135.954,-16.4083,179.802,1.77979,-156.423,216
1567604879,322.138,-135.954,-16.4083,179.802,1.75781,-156.423,216
1567604879,322.138,-135.954,-16.4083,179.802,1.75781,-156.423,216
1567604879,322.138,-135.954,-16.4083,179.78,1.75781,-156.423,216
1567604879,322.027,-135.954,-16.4083,179.78,1.75781,-156.423,220
1567604879,322.027,-135.954,-16.4083,179.78,1.75781,-156.423,220
1567604879,322.027,-135.954,-16.4083,179.78,1.77979,-156.423,220
1567604879,322.027,-135.954,-16.4083,179.78,1.77979,-156.423,220
1567604879,322.027,-135.954,-16.4083,179.78,1.77979,-156.423,220
1567604879,322.027,-135.954,-16.2967,179.78,1.77979,-156.423,220
1567604879,322.027,-135.954,-16.2967,179.78,1.77979,-156.423,220
1567604879,322.027,-135.954,-16.2967,179.78,1.77979,-156.423,224
1567604879,322.027,-135.954,-16.2967,179.78,1.77979,-156.423,224
1567604879,322.027,-135.954,-16.2967,179.802,1.77979,-156.423,224
1567604879,322.027,-135.954,-16.2967,179.802,1.77979,-156.423,224
1567604879,322.027,-135.954,-16.2967,179.802,1.77979,-156.423,224
1567604879,322.027,-135.954,-16.2967,179.802,1.77979,-156.423,224
1567604879,322.027,-135.954,-16.2967,179.802,1.77979,-156.423,228
1567604879,322.027,-135.954,-16.2967,179.802,1.77979,-156.423,228
1567604879,322.138,-135.954,-16.2967,179.802,1.77979,-156.423,228
1567604879,322.138,-135.954,-16.2967,179.802,1.77979,-156.423,228
1567604879,322.138,-135.954,-16.2967,179.802,1.77979,-156.423,228
1567604879,322.138,-135.954,-16.2967,179.802,1.77979,-156.423,228
1567604879,322.138,-135.954,-16.2967,179.802,1.77979,-156.423,228
1567604879,322.138,-135.954,-16.2967,179.802,1.77979,-156.423,228
1567604879,322.138,-135.954,-16.2967,179.802,1.77979,-156.423,228
1567604879,322.138,-135.954,-16.2967,179.802,1.77979,-156.423,228
1567604879,322.138,-135.954,-16.2967,179.802,1.77979,-156.423,228
1567604879,322.027,-135.954,-16.2967,179.802,1.77979,-156.423,224
1567604879,322.027,-135.954,-16.2967,179.78,1.77979,-156.423,224
1567604879,322.027,-135.954,-16.2967,179.78,1.77979,-156.423,224
1567604879,322.027,-135.954,-16.2967,179.78,1.77979,-156.423,224
1567604879,322.027,-135.954,-16.2967,179.78,1.77979,-156.423,224
1567604879,322.027,-135.954,-16.2967,179.802,1.77979,-156.423,224
1567604879,322.027,-135.954,-16.2967,179.802,1.77979,-156.423,224
1567604879,322.138,-135.954,-16.2967,179.802,1.77979,-156.423,224
1567604879,322.138,-135.954,-16.2967,179.802,1.77979,-156.423,220
1567604879,322.138,-135.954,-16.2967,179.802,1.77979,-156.423,220
1567604879,322.138,-135.954,-16.4083,179.802,1.77979,-156.423,220
1567604879,322.138,-135.954,-16.4083,179.802,1.77979,-156.423,220
1567604879,322.138,-135.954,-16.4083,179.802,1.77979,-156.423,220
1567604879,322.138,-135.954,-16.4083,179.802,1.77979,-156.423,220
1567604879,322.138,-135.954,-16.2967,179.802,1.77979,-156.423,220
1567604879,322.138,-135.954,-16.2967,179.802,1.77979,-156.423,220
1567604879,322.138,-135.954,-16.2967,179.802,1.77979,-156.423,220
1567604879,322.138,-135.954,-16.2967,179.802,1.77979,-156.423,220
1567604879,322.138,-135.954,-16.2967,179.802,1.77979,-156.423,220
1567604879,322.138,-135.954,-16.2967,179.802,1.77979,-156.423,220
1567604879,322.138,-135.954,-16.2967,179.802,1.77979,-156.423,220
1567604879,322.138,-135.954,-16.2967,179.802,1.77979,-156.423,220
1567604879,322.138,-135.954,-16.2967,179.802,1.77979,-156.423,220
1567604879,322.138,-135.954,-16.2967,179.802,1.77979,-156.423,220
1567604879,322.138,-135.954,-16.2967,179.802,1.77979,-156.423,220
1567604879,322.138,-135.954,-16.2967,179.802,1.77979,-156.423,220
1567604879,322.138,-135.954,-16.2967,179.802,1.77979,-156.423,220
1567604879,322.138,-135.954,-16.2967,179.802,1.77979,-156.423,220
1567604879,322.138,-135.954,-16.2967,179.802,1.77979,-156.423,220
1567604879,322.138,-135.954,-16.2967,179.802,1.77979,-156.423,220
1567604879,322.138,-135.954,-16.2967,179.802,1.77979,-156.423,220
1567604879,322.138,-135.954,-16.2967,179.802,1.77979,-156.423,216
1567604879,322.138,-135.954,-16.2967,179.802,1.77979,-156.423,216
1567604879,322.138,-135.954,-16.2967,179.802,1.77979,-156.423,216
1567604879,322.138,-135.954,-16.2967,179.802,1.77979,-156.423,216
1567604879,322.138,-135.954,-16.2967,179.802,1.77979,-156.423,216
1567604879,322.138,-135.954,-16.2967,179.802,1.77979,-156.423,216
1567604879,322.138,-136.066,-16.2967,179.78,1.77979,-156.423,216
1567604880,322.138,-136.066,-16.2967,179.78,1.77979,-156.423,216
1567604880,322.138,-136.066,-16.2967,179.78,1.77979,-156.423,216
1567604880,322.138,-136.066,-16.2967,179.78,1.77979,-156.423,216
1567604880,322.138,-136.066,-16.2967,179.78,1.77979,-156.423,216
1567604880,322.138,-136.066,-16.2967,179.78,1.77979,-156.423,216
1567604880,322.138,-136.066,-16.2967,179.78,1.77979,-156.423,216
1567604880,322.138,-136.066,-16.2967,179.78,1.77979,-156.423,216
1567604880,322.138,-136.066,-16.2967,179.78,1.77979,-156.423,216
1567604880,322.138,-136.066,-16.2967,179.78,1.77979,-156.423,216
1567604880,322.138,-136.066,-16.2967,179.78,1.77979,-156.423,216
1567604880,322.138,-135.954,-16.2967,179.78,1.77979,-156.423,216
1567604880,322.138,-135.954,-16.2967,179.78,1.77979,-156.423,216
1567604880,322.138,-135.954,-16.2967,179.78,1.77979,-156.423,216
1567604880,322.138,-135.954,-16.2967,179.802,1.77979,-156.423,216
1567604880,322.138,-135.954,-16.2967,179.802,1.77979,-156.423,216
1567604880,322.138,-135.954,-16.2967,179.802,1.80176,-156.423,216
1567604880,322.138,-135.954,-16.2967,179.802,1.77979,-156.423,216
1567604880,322.138,-135.954,-16.2967,179.802,1.77979,-156.423,216
1567604880,322.138,-135.954,-16.2967,179.802,1.77979,-156.423,216
1567604880,322.138,-135.954,-16.2967,179.802,1.77979,-156.423,216
1567604880,322.138,-135.954,-16.2967,179.802,1.77979,-156.423,216
1567604880,322.138,-135.954,-16.4083,179.802,1.77979,-156.423,216
1567604880,322.138,-135.954,-16.4083,179.802,1.77979,-156.423,216
1567604880,322.138,-135.954,-16.4083,179.802,1.77979,-156.423,216
1567604880,322.138,-135.954,-16.4083,179.802,1.77979,-156.423,216
1567604880,322.138,-135.954,-16.4083,179.802,1.77979,-156.423,220
1567604880,322.138,-135.954,-16.4083,179.802,1.77979,-156.423,220
1567604880,322.138,-135.954,-16.4083,179.802,1.77979,-156.423,220
1567604880,322.138,-135.954,-16.4083,179.802,1.77979,-156.423,220
1567604880,322.138,-135.954,-16.4083,179.802,1.77979,-156.423,220
1567604880,322.138,-135.954,-16.4083,179.802,1.77979,-156.423,220
1567604880,322.138,-135.954,-16.4083,179.802,1.77979,-156.423,220
1567604880,322.138,-135.954,-16.4083,179.802,1.77979,-156.423,220
1567604880,322.138,-135.954,-16.4083,179.802,1.77979,-156.423,220
1567604880,322.138,-135.954,-16.4083,179.802,1.77979,-156.423,220
1567604880,322.138,-135.954,-16.4083,179.802,1.77979,-156.423,220
1567604880,322.138,-135.954,-16.4083,179.802,1.77979,-156.423,220
1567604880,322.138,-135.954,-16.4083,179.802,1.77979,-156.423,220
1567604880,322.138,-135.954,-16.4083,179.802,1.77979,-156.423,220
1567604880,322.138,-135.954,-16.4083,179.802,1.77979,-156.423,220
1567604880,322.138,-135.954,-16.4083,179.802,1.77979,-156.423,220
1567604880,322.138,-135.954,-16.4083,179.802,1.77979,-156.423,220
1567604880,322.138,-135.954,-16.2967,179.802,1.77979,-156.423,220
1567604880,322.138,-135.954,-16.4083,179.802,1.77979,-156.423,220
1567604880,322.138,-135.954,-16.4083,179.802,1.77979,-156.423,220
1567604880,322.138,-135.954,-16.4083,179.802,1.77979,-156.423,220
1567604880,322.138,-135.954,-16.4083,179.78,1.77979,-156.423,216
1567604880,322.138,-135.954,-16.4083,179.78,1.77979,-156.423,216
1567604880,322.138,-135.954,-16.2967,179.78,1.77979,-156.423,216
1567604880,322.138,-135.954,-16.2967,179.78,1.77979,-156.423,216
1567604880,322.138,-135.954,-16.2967,179.78,1.77979,-156.423,216
1567604880,322.138,-135.954,-16.4083,179.78,1.77979,-156.423,216
1567604880,322.138,-135.954,-16.2967,179.78,1.77979,-156.423,216
1567604880,322.138,-135.954,-16.2967,179.78,1.77979,-156.423,216
1567604880,322.138,-135.954,-16.2967,179.802,1.77979,-156.423,216
1567604880,322.138,-135.954,-16.2967,179.802,1.77979,-156.423,216
1567604880,322.138,-135.954,-16.2967,179.802,1.77979,-156.423,216
1567604880,322.138,-135.954,-16.2967,179.802,1.77979,-156.423,216
1567604880,322.138,-135.954,-16.2967,179.802,1.77979,-156.423,216
1567604880,322.138,-135.954,-16.2967,179.78,1.77979,-156.423,216
1567604880,322.138,-135.954,-16.2967,179.78,1.77979,-156.423,216
1567604880,322.138,-135.954,-16.2967,179.78,1.77979,-156.423,216
1567604880,322.138,-135.954,-16.2967,179.78,1.77979,-156.423,216
1567604880,322.138,-136.066,-16.2967,179.78,1.77979,-156.423,216
1567604880,322.138,-136.066,-16.2967,179.78,1.77979,-156.423,216
1567604880,322.138,-136.066,-16.2967,179.78,1.77979,-156.423,216
1567604880,322.138,-136.066,-16.2967,179.78,1.77979,-156.423,216
1567604880,322.138,-136.066,-16.2967,179.78,1.77979,-156.423,216
1567604880,322.138,-136.066,-16.2967,179.78,1.77979,-156.423,216
1567604880,322.027,-136.066,-16.2967,179.78,1.77979,-156.423,216
1567604880,322.027,-136.066,-16.2967,179.78,1.77979,-156.423,216
1567604880,322.027,-136.066,-16.2967,179.78,1.77979,-156.423,216
1567604880,322.027,-136.066,-16.2967,179.78,1.77979,-156.423,216
1567604880,322.027,-136.066,-16.2967,179.78,1.77979,-156.423,216
1567604880,322.027,-136.066,-16.2967,179.78,1.77979,-156.423,216
1567604880,322.027,-135.954,-16.2967,179.78,1.77979,-156.423,216
1567604880,322.027,-135.954,-16.2967,179.78,1.77979,-156.423,216
1567604880,322.027,-135.954,-16.2967,179.78,1.77979,-156.423,220
1567604880,322.027,-135.954,-16.4083,179.78,1.77979,-156.423,220
1567604880,322.027,-135.954,-16.4083,179.78,1.77979,-156.423,220
1567604880,322.027,-136.066,-16.4083,179.78,1.77979,-156.423,220
1567604880,322.027,-136.066,-16.4083,179.78,1.77979,-156.423,220
1567604880,322.027,-136.066,-16.4083,179.78,1.77979,-156.423,220
1567604880,322.027,-136.066,-16.4083,179.78,1.77979,-156.423,220
1567604880,322.027,-136.066,-16.4083,179.758,1.77979,-156.423,220
1567604880,322.027,-136.066,-16.4083,179.758,1.77979,-156.423,220
1567604880,322.027,-136.066,-16.4083,179.758,1.77979,-156.423,220
1567604880,322.027,-136.066,-16.4083,179.758,1.75781,-156.423,220
1567604880,322.027,-136.066,-16.4083,179.758,1.75781,-156.423,220
1567604880,322.027,-136.066,-16.4083,179.758,1.75781,-156.423,220
1567604880,322.027,-136.066,-16.4083,179.758,1.75781,-156.423,220
1567604880,322.027,-136.066,-16.4083,179.758,1.75781,-156.423,220
1567604880,322.027,-136.066,-16.4083,179.758,1.75781,-156.423,220
1567604880,322.027,-136.066,-16.4083,179.758,1.75781,-156.423,220
1567604880,322.027,-136.066,-16.4083,179.758,1.75781,-156.423,220
1567604880,322.027,-136.066,-16.4083,179.78,1.75781,-156.423,216
1567604880,322.027,-136.066,-16.4083,179.78,1.75781,-156.423,216
1567604880,322.027,-136.066,-16.4083,179.78,1.77979,-156.423,216
1567604880,322.027,-136.066,-16.4083,179.78,1.77979,-156.423,216
1567604880,322.138,-136.066,-16.2967,179.78,1.77979,-156.423,216
1567604881,322.138,-136.066,-16.2967,179.78,1.77979,-156.423,216
1567604881,322.138,-136.066,-16.2967,179.78,1.77979,-156.423,216
1567604881,322.138,-136.066,-16.2967,179.78,1.77979,-156.423,216
1567604881,322.138,-136.066,-16.2967,179.78,1.77979,-156.423,216
1567604881,322.138,-136.066,-16.2967,179.78,1.77979,-156.423,216
1567604881,322.138,-135.954,-16.2967,179.802,1.77979,-156.423,216
1567604881,322.138,-135.954,-16.2967,179.802,1.77979,-156.423,216
1567604881,322.138,-135.954,-16.2967,179.802,1.77979,-156.423,216
1567604881,322.138,-135.954,-16.2967,179.802,1.77979,-156.423,216
1567604881,322.138,-135.954,-16.2967,179.802,1.77979,-156.423,216
1567604881,322.138,-135.954,-16.2967,179.802,1.80176,-156.423,216
1567604881,322.138,-135.954,-16.2967,179.802,1.80176,-156.423,216
1567604881,322.138,-135.954,-16.2967,179.802,1.80176,-156.423,216
1567604881,322.138,-135.954,-16.2967,179.802,1.80176,-156.423,216
1567604881,322.138,-135.954,-16.2967,179.802,1.80176,-156.423,216
1567604881,322.138,-135.954,-16.2967,179.78,1.80176,-156.423,216
1567604881,322.138,-135.954,-16.2967,179.78,1.80176,-156.423,216
1567604881,322.138,-135.954,-16.2967,179.78,1.80176,-156.423,216
1567604881,322.138,-135.954,-16.2967,179.78,1.80176,-156.423,216
1567604881,322.138,-135.954,-16.2967,179.78,1.80176,-156.423,216
1567604881,322.138,-135.954,-16.2967,179.78,1.80176,-156.423,216
1567604881,322.138,-135.954,-16.2967,179.802,1.80176,-156.423,216
1567604881,322.138,-135.954,-16.2967,179.802,1.80176,-156.423,216
1567604881,322.138,-135.954,-16.2967,179.802,1.80176,-156.423,216
1567604881,322.138,-135.954,-16.2967,179.802,1.80176,-156.423,216
1567604881,322.138,-135.954,-16.2967,179.802,1.80176,-156.423,216
1567604881,322.138,-135.954,-16.2967,179.802,1.80176,-156.423,216
1567604881,322.138,-135.954,-16.2967,179.802,1.80176,-156.423,216
1567604881,322.138,-135.954,-16.2967,179.802,1.80176,-156.423,216
1567604881,322.138,-135.954,-16.2967,179.802,1.80176,-156.423,216
1567604881,322.138,-135.954,-16.2967,179.802,1.80176,-156.423,216
1567604881,322.138,-135.954,-16.2967,179.802,1.80176,-156.423,216
1567604881,322.138,-135.954,-16.2967,179.802,1.80176,-156.423,216
1567604881,322.138,-135.954,-16.2967,179.802,1.80176,-156.423,216
1567604881,322.138,-136.066,-16.2967,179.802,1.80176,-156.423,216
1567604881,322.138,-136.066,-16.2967,179.78,1.80176,-156.423,216
1567604881,322.138,-136.066,-16.2967,179.78,1.80176,-156.423,216
1567604881,322.138,-136.066,-16.2967,179.78,1.80176,-156.423,216
1567604881,322.138,-136.066,-16.2967,179.78,1.80176,-156.423,216
1567604881,322.138,-136.066,-16.2967,179.78,1.80176,-156.423,216
1567604881,322.138,-136.066,-16.2967,179.78,1.80176,-156.423,212
1567604881,322.138,-136.066,-16.2967,179.78,1.80176,-156.423,212
1567604881,322.138,-136.066,-16.2967,179.758,1.80176,-156.423,212
1567604881,322.138,-136.066,-16.2967,179.758,1.80176,-156.423,212
1567604881,322.138,-136.066,-16.2967,179.758,1.80176,-156.423,212
1567604881,322.138,-136.066,-16.2967,179.758,1.77979,-156.423,212
1567604881,322.138,-136.066,-16.2967,179.758,1.77979,-156.423,212
1567604881,322.138,-136.066,-16.4083,179.758,1.77979,-156.423,212
1567604881,322.138,-136.066,-16.4083,179.758,1.77979,-156.423,212
1567604881,322.138,-136.066,-16.4083,179.758,1.77979,-156.423,212
1567604881,322.138,-136.066,-16.4083,179.758,1.77979,-156.423,212
1567604881,322.138,-136.066,-16.4083,179.758,1.77979,-156.423,212
1567604881,322.138,-136.066,-16.4083,179.78,1.77979,-156.445,212
1567604881,322.138,-136.066,-16.4083,179.78,1.77979,-156.445,212
1567604881,322.138,-136.066,-16.4083,179.78,1.77979,-156.445,212
1567604881,322.138,-136.066,-16.4083,179.78,1.77979,-156.445,212
1567604881,322.138,-136.066,-16.4083,179.78,1.77979,-156.445,212
1567604881,322.138,-136.066,-16.4083,179.78,1.77979,-156.445,212
1567604881,322.138,-136.066,-16.4083,179.78,1.77979,-156.445,212
1567604881,322.138,-136.066,-16.4083,179.78,1.77979,-156.445,212
1567604881,322.138,-136.066,-16.4083,179.78,1.77979,-156.445,212
1567604881,322.138,-136.066,-16.4083,179.78,1.77979,-156.445,212
1567604881,322.138,-136.066,-16.4083,179.78,1.77979,-156.445,216
1567604881,322.138,-136.066,-16.4083,179.78,1.77979,-156.445,216
1567604881,322.138,-136.066,-16.4083,179.802,1.77979,-156.445,212
1567604881,322.138,-136.066,-16.4083,179.802,1.75781,-156.445,212
1567604881,322.138,-136.066,-16.4083,179.802,1.75781,-156.445,212
1567604881,322.138,-136.066,-16.4083,179.802,1.77979,-156.445,212
1567604881,322.138,-136.066,-16.4083,179.802,1.77979,-156.445,212
1567604881,322.138,-136.066,-16.4083,179.802,1.75781,-156.445,212
1567604881,322.138,-135.954,-16.4083,179.802,1.75781,-156.445,212
1567604881,322.138,-135.954,-16.4083,179.802,1.77979,-156.445,212
1567604881,322.138,-135.954,-16.4083,179.802,1.77979,-156.445,212
1567604881,322.138,-135.954,-16.4083,179.802,1.77979,-156.445,212
1567604881,322.138,-135.954,-16.4083,179.802,1.77979,-156.445,212
1567604881,322.138,-135.954,-16.2967,179.802,1.77979,-156.445,212
1567604881,322.138,-135.954,-16.2967,179.802,1.77979,-156.423,216
1567604881,322.138,-135.954,-16.2967,179.802,1.77979,-156.423,216
1567604881,322.138,-135.954,-16.2967,179.802,1.77979,-156.423,216
1567604881,322.138,-135.954,-16.2967,179.802,1.77979,-156.423,216
1567604881,322.138,-135.954,-16.2967,179.802,1.77979,-156.423,216
1567604881,322.138,-135.954,-16.2967,179.802,1.77979,-156.423,216
1567604881,322.138,-135.954,-16.2967,179.802,1.77979,-156.423,216
1567604881,322.138,-135.954,-16.2967,179.802,1.77979,-156.423,216
1567604881,322.138,-135.954,-16.2967,179.802,1.77979,-156.445,216
1567604881,322.138,-135.954,-16.2967,179.802,1.77979,-156.445,216
1567604881,322.138,-135.954,-16.2967,179.802,1.77979,-156.445,216
1567604881,322.138,-135.954,-16.2967,179.802,1.77979,-156.445,216
1567604881,322.138,-135.954,-16.2967,179.802,1.77979,-156.445,216
1567604881,322.138,-135.954,-16.2967,179.802,1.77979,-156.445,216
1567604881,322.138,-135.954,-16.2967,179.802,1.77979,-156.445,220
1567604881,322.138,-135.954,-16.2967,179.802,1.77979,-156.445,220
1567604881,322.027,-135.954,-16.2967,179.802,1.77979,-156.445,220
1567604881,322.027,-135.954,-16.2967,179.78,1.77979,-156.445,220
1567604881,322.027,-135.954,-16.2967,179.78,1.77979,-156.423,220
1567604881,322.027,-135.954,-16.2967,179.78,1.77979,-156.423,220
1567604881,322.027,-135.954,-16.2967,179.78,1.77979,-156.423,220
1567604881,322.027,-135.954,-16.2967,179.78,1.77979,-156.423,220
1567604881,322.027,-135.954,-16.2967,179.78,1.77979,-156.423,224
1567604881,322.027,-135.954,-16.2967,179.78,1.77979,-156.423,224
1567604882,322.027,-136.066,-16.2967,179.78,1.77979,-156.423,224
1567604882,322.027,-136.066,-16.2967,179.78,1.77979,-156.423,224
1567604882,322.027,-136.066,-16.2967,179.78,1.77979,-156.423,224
1567604882,322.027,-136.066,-16.2967,179.78,1.77979,-156.423,224
1567604882,322.027,-136.066,-16.2967,179.78,1.77979,-156.423,224
1567604882,322.027,-136.066,-16.2967,179.78,1.80176,-156.423,224
1567604882,322.027,-136.066,-16.2967,179.78,1.80176,-156.423,224
1567604882,322.027,-136.066,-16.2967,179.78,1.80176,-156.423,220
1567604882,322.027,-136.066,-16.2967,179.78,1.80176,-156.423,220
1567604882,322.027,-136.066,-16.2967,179.78,1.80176,-156.423,220
1567604882,322.027,-135.954,-16.2967,179.78,1.80176,-156.423,220
1567604882,322.027,-135.954,-16.2967,179.78,1.80176,-156.423,220
1567604882,322.027,-135.954,-16.2967,179.78,1.80176,-156.423,220
1567604882,322.027,-135.954,-16.2967,179.78,1.80176,-156.423,220
1567604882,322.027,-135.954,-16.2967,179.78,1.80176,-156.423,220
1567604882,322.027,-135.954,-16.2967,179.78,1.80176,-156.423,220
1567604882,322.027,-136.066,-16.2967,179.78,1.80176,-156.423,220
1567604882,322.027,-136.066,-16.2967,179.78,1.80176,-156.423,220
1567604882,322.027,-135.954,-16.2967,179.78,1.80176,-156.423,220
1567604882,322.027,-135.954,-16.2967,179.78,1.80176,-156.423,220
1567604882,322.027,-135.954,-16.2967,179.78,1.80176,-156.423,220
1567604882,322.027,-135.954,-16.2967,179.78,1.80176,-156.423,220
1567604882,322.027,-135.954,-16.2967,179.78,1.80176,-156.423,220
1567604882,322.027,-135.954,-16.2967,179.78,1.80176,-156.423,220
1567604882,322.027,-135.954,-16.2967,179.78,1.80176,-156.423,220
1567604882,322.027,-135.954,-16.2967,179.802,1.80176,-156.423,220
1567604882,322.027,-135.954,-16.2967,179.802,1.80176,-156.423,220
1567604882,322.027,-135.954,-16.2967,179.802,1.80176,-156.423,220
1567604882,322.027,-135.954,-16.2967,179.802,1.77979,-156.423,220
1567604882,322.027,-135.954,-16.2967,179.802,1.77979,-156.423,220
1567604882,322.027,-135.954,-16.2967,179.802,1.77979,-156.423,220
1567604882,322.027,-135.954,-16.2967,179.802,1.77979,-156.423,220
1567604882,322.027,-135.954,-16.2967,179.78,1.77979,-156.423,224
1567604882,322.027,-135.954,-16.2967,179.78,1.77979,-156.423,224
1567604882,322.027,-135.954,-16.2967,179.78,1.75781,-156.423,224
1567604882,322.027,-135.954,-16.4083,179.78,1.75781,-156.423,224
1567604882,322.027,-135.954,-16.4083,179.78,1.75781,-156.423,224
1567604882,322.027,-135.954,-16.4083,179.78,1.75781,-156.423,224
1567604882,322.027,-135.954,-16.4083,179.78,1.75781,-156.423,224
1567604882,322.027,-135.954,-16.4083,179.78,1.75781,-156.423,224
1567604882,322.027,-135.954,-16.2967,179.78,1.75781,-156.423,224
1567604882,322.027,-135.954,-16.2967,179.78,1.75781,-156.423,224
1567604882,322.138,-135.954,-16.2967,179.78,1.75781,-156.423,224
1567604882,322.138,-135.954,-16.2967,179.78,1.77979,-156.423,224
1567604882,322.138,-135.954,-16.2967,179.78,1.77979,-156.423,224
1567604882,322.138,-135.954,-16.2967,179.802,1.77979,-156.423,224
1567604882,322.138,-135.954,-16.2967,179.802,1.77979,-156.423,224
1567604882,322.138,-135.954,-16.2967,179.802,1.77979,-156.423,224
1567604882,322.138,-135.954,-16.2967,179.802,1.77979,-156.423,224
1567604882,322.138,-135.954,-16.2967,179.802,1.77979,-156.423,224
1567604882,322.138,-135.954,-16.2967,179.802,1.77979,-156.423,224
1567604882,322.138,-135.954,-16.2967,179.802,1.77979,-156.423,224
1567604882,322.138,-135.954,-16.2967,179.802,1.77979,-156.423,224
1567604882,322.138,-135.954,-16.2967,179.802,1.77979,-156.423,224
1567604882,322.138,-135.954,-16.2967,179.802,1.77979,-156.423,224
1567604882,322.138,-135.954,-16.2967,179.802,1.77979,-156.423,224
1567604882,322.138,-135.954,-16.2967,179.802,1.77979,-156.423,224
1567604882,322.138,-135.954,-16.2967,179.802,1.77979,-156.423,224
1567604882,322.138,-135.954,-16.2967,179.824,1.77979,-156.423,224
1567604882,322.138,-135.954,-16.2967,179.824,1.77979,-156.401,224
1567604882,322.138,-135.954,-16.2967,179.824,1.77979,-156.401,224
1567604882,322.138,-135.954,-16.2967,179.824,1.77979,-156.401,224
1567604882,322.138,-135.954,-16.2967,179.824,1.77979,-156.401,224
1567604882,322.138,-135.954,-16.2967,179.824,1.77979,-156.401,224
1567604882,322.138,-135.954,-16.2967,179.824,1.77979,-156.401,224
1567604882,322.138,-135.954,-16.2967,179.824,1.77979,-156.423,224
1567604882,322.138,-135.954,-16.2967,179.824,1.77979,-156.423,220
1567604882,322.138,-135.954,-16.2967,179.824,1.80176,-156.423,220
1567604882,322.138,-135.954,-16.2967,179.824,1.80176,-156.423,220
1567604882,322.138,-135.843,-16.2967,179.824,1.80176,-156.423,220
1567604882,322.138,-135.843,-16.2967,179.824,1.80176,-156.423,220
1567604882,322.138,-135.843,-16.2967,179.824,1.80176,-156.423,220
1567604882,322.138,-135.843,-16.2967,179.824,1.80176,-156.423,216
1567604882,322.138,-135.843,-16.2967,179.824,1.80176,-156.423,216
1567604882,322.138,-135.843,-16.2967,179.824,1.80176,-156.423,216
1567604882,322.138,-135.843,-16.2967,179.824,1.80176,-156.423,216
1567604882,322.138,-135.843,-16.2967,179.824,1.80176,-156.423,216
1567604882,322.138,-135.843,-16.2967,179.824,1.80176,-156.423,216
1567604882,322.138,-135.843,-16.2967,179.824,1.80176,-156.423,216
1567604882,322.138,-135.843,-16.2967,179.824,1.80176,-156.423,216
1567604882,322.138,-135.843,-16.2967,179.824,1.80176,-156.423,216
1567604882,322.138,-135.843,-16.2967,179.824,1.80176,-156.423,216
1567604882,322.138,-135.843,-16.2967,179.824,1.80176,-156.423,216
1567604882,322.138,-135.954,-16.2967,179.824,1.80176,-156.423,216
1567604882,322.138,-135.843,-16.2967,179.824,1.80176,-156.423,216
1567604882,322.138,-135.843,-16.2967,179.824,1.80176,-156.423,216
1567604882,322.138,-135.843,-16.2967,179.824,1.80176,-156.423,216
1567604882,322.138,-135.843,-16.2967,179.824,1.80176,-156.423,216
1567604882,322.138,-135.843,-16.2967,179.824,1.80176,-156.423,216
1567604882,322.138,-135.843,-16.2967,179.824,1.80176,-156.423,216
1567604882,322.138,-135.843,-16.2967,179.824,1.80176,-156.423,216
1567604882,322.138,-135.954,-16.2967,179.824,1.80176,-156.423,216
1567604882,322.138,-135.954,-16.2967,179.824,1.80176,-156.423,216
1567604882,322.138,-135.954,-16.2967,179.824,1.80176,-156.423,216
1567604882,322.138,-135.954,-16.2967,179.802,1.80176,-156.423,216
1567604882,322.138,-135.954,-16.2967,179.802,1.80176,-156.445,216
1567604882,322.138,-135.954,-16.2967,179.802,1.80176,-156.445,216
1567604882,322.138,-135.954,-16.2967,179.802,1.80176,-156.445,212
1567604882,322.138,-135.954,-16.2967,179.802,1.80176,-156.445,212
1567604882,322.138,-135.954,-16.2967,179.802,1.80176,-156.445,212
1567604883,322.138,-135.954,-16.2967,179.802,1.80176,-156.445,212
1567604883,322.138,-135.954,-16.2967,179.802,1.80176,-156.445,212
1567604883,322.138,-135.954,-16.2967,179.802,1.80176,-156.445,212
1567604883,322.138,-135.954,-16.2967,179.802,1.80176,-156.423,212
1567604883,322.138,-135.954,-16.2967,179.802,1.80176,-156.423,212
1567604883,322.138,-135.954,-16.2967,179.802,1.80176,-156.423,212
1567604883,322.138,-135.954,-16.2967,179.802,1.80176,-156.423,212
1567604883,322.138,-135.954,-16.2967,179.802,1.80176,-156.423,212
1567604883,322.138,-135.954,-16.2967,179.802,1.80176,-156.423,212
1567604883,322.138,-135.954,-16.2967,179.802,1.80176,-156.423,212
1567604883,322.138,-135.954,-16.2967,179.802,1.80176,-156.423,212
1567604883,322.138,-135.954,-16.2967,179.802,1.80176,-156.423,212
1567604883,322.138,-135.954,-16.2967,179.802,1.80176,-156.423,212
1567604889,282.848,-95.5477,-16.6315,179.714,1.71387,-156.204,224
1567604889,282.848,-95.5477,-16.6315,179.714,1.71387,-156.204,224
1567604889,282.848,-95.5477,-16.6315,179.714,1.71387,-156.204,224
1567604889,282.848,-95.5477,-16.6315,179.714,1.73584,-156.204,224
1567604889,282.848,-95.5477,-16.6315,179.714,1.73584,-156.204,224
1567604889,282.848,-95.5477,-16.6315,179.714,1.73584,-156.204,224
1567604889,282.848,-95.5477,-16.6315,179.714,1.73584,-156.204,224
1567604889,282.848,-95.5477,-16.6315,179.714,1.73584,-156.204,224
1567604889,282.848,-95.5477,-16.6315,179.736,1.73584,-156.204,224
1567604889,282.848,-95.5477,-16.6315,179.736,1.73584,-156.204,224
1567604889,282.848,-95.5477,-16.6315,179.736,1.73584,-156.204,224
1567604889,282.848,-95.5477,-16.6315,179.736,1.73584,-156.204,224
1567604889,282.848,-95.5477,-16.6315,179.736,1.73584,-156.204,224
1567604889,282.848,-95.5477,-16.6315,179.736,1.73584,-156.204,228
1567604889,282.848,-95.5477,-16.6315,179.736,1.73584,-156.204,228
1567604889,282.848,-95.5477,-16.6315,179.714,1.73584,-156.204,228
1567604889,282.848,-95.5477,-16.6315,179.714,1.73584,-156.204,228
1567604889,282.848,-95.5477,-16.6315,179.714,1.73584,-156.204,228
1567604889,282.848,-95.5477,-16.6315,179.714,1.71387,-156.204,228
1567604889,282.848,-95.5477,-16.6315,179.714,1.71387,-156.204,228
1567604889,282.848,-95.5477,-16.6315,179.714,1.71387,-156.204,228
1567604889,282.848,-95.5477,-16.6315,179.714,1.71387,-156.204,228
1567604889,282.848,-95.5477,-16.6315,179.714,1.71387,-156.204,228
1567604889,282.848,-95.5477,-16.6315,179.714,1.71387,-156.204,228
1567604889,282.848,-95.5477,-16.6315,179.714,1.71387,-156.204,228
1567604889,282.848,-95.5477,-16.6315,179.714,1.71387,-156.204,228
1567604889,282.848,-95.5477,-16.6315,179.714,1.71387,-156.204,228
1567604889,282.959,-95.5477,-16.6315,179.714,1.71387,-156.204,228
1567604889,282.959,-95.5477,-16.6315,179.714,1.71387,-156.204,228
1567604889,282.959,-95.5477,-16.6315,179.714,1.71387,-156.204,228
1567604889,282.959,-95.5477,-16.6315,179.714,1.71387,-156.204,228
1567604889,282.959,-95.5477,-16.6315,179.714,1.71387,-156.204,228
1567604890,282.959,-95.5477,-16.6315,179.714,1.71387,-156.204,228
1567604890,282.959,-95.5477,-16.6315,179.714,1.71387,-156.204,224
1567604890,282.959,-95.5477,-16.6315,179.714,1.71387,-156.204,224
1567604890,282.959,-95.5477,-16.6315,179.714,1.71387,-156.204,224
1567604890,282.959,-95.5477,-16.6315,179.714,1.73584,-156.204,224
1567604890,282.959,-95.5477,-16.6315,179.714,1.73584,-156.204,224
1567604890,282.959,-95.5477,-16.6315,179.714,1.73584,-156.204,224
1567604890,282.959,-95.5477,-16.6315,179.714,1.73584,-156.204,224
1567604890,282.959,-95.5477,-16.6315,179.714,1.73584,-156.204,224
1567604890,282.959,-95.5477,-16.6315,179.714,1.73584,-156.204,224
1567604890,282.959,-95.5477,-16.6315,179.714,1.73584,-156.182,224
1567604890,282.959,-95.5477,-16.6315,179.714,1.71387,-156.182,220
1567604890,282.959,-95.5477,-16.6315,179.714,1.71387,-156.182,220
1567604890,282.959,-95.5477,-16.6315,179.714,1.71387,-156.182,220
1567604890,282.959,-95.5477,-16.6315,179.714,1.71387,-156.182,220
1567604890,282.959,-95.5477,-16.6315,179.714,1.71387,-156.182,224
1567604890,282.959,-95.5477,-16.6315,179.714,1.71387,-156.182,224
1567604890,282.959,-95.5477,-16.6315,179.714,1.71387,-156.182,224
1567604890,282.959,-95.5477,-16.6315,179.714,1.71387,-156.182,224
1567604890,282.959,-95.5477,-16.6315,179.714,1.71387,-156.182,224
1567604890,282.959,-95.5477,-16.6315,179.714,1.71387,-156.182,224
1567604890,282.959,-95.5477,-16.6315,179.714,1.71387,-156.182,224
1567604890,282.959,-95.5477,-16.6315,179.714,1.71387,-156.182,224
1567604890,282.959,-95.5477,-16.6315,179.714,1.71387,-156.182,224
1567604890,282.959,-95.5477,-16.6315,179.714,1.71387,-156.182,224
1567604890,282.959,-95.5477,-16.6315,179.714,1.71387,-156.182,224
1567604890,282.959,-95.5477,-16.6315,179.714,1.71387,-156.182,228
1567604890,282.959,-95.5477,-16.6315,179.714,1.71387,-156.182,228
1567604890,282.959,-95.5477,-16.6315,179.714,1.71387,-156.182,228
1567604890,282.959,-95.5477,-16.6315,179.714,1.71387,-156.182,228
1567604890,282.959,-95.5477,-16.6315,179.714,1.71387,-156.182,228
1567604890,282.959,-95.5477,-16.6315,179.714,1.71387,-156.182,228
1567604890,282.959,-95.5477,-16.6315,179.714,1.71387,-156.182,228
1567604890,282.959,-95.5477,-16.6315,179.714,1.71387,-156.182,228
1567604890,282.959,-95.5477,-16.6315,179.714,1.71387,-156.182,228
1567604890,282.959,-95.5477,-16.6315,179.714,1.71387,-156.182,228
1567604890,282.959,-95.5477,-16.6315,179.714,1.71387,-156.182,228
1567604890,282.959,-95.5477,-16.6315,179.714,1.71387,-156.204,228
1567604890,282.959,-95.5477,-16.6315,179.714,1.71387,-156.204,228
1567604890,282.959,-95.5477,-16.6315,179.714,1.71387,-156.204,228
1567604890,282.959,-95.5477,-16.6315,179.714,1.73584,-156.204,228
1567604890,282.959,-95.5477,-16.6315,179.714,1.73584,-156.204,228
1567604890,282.959,-95.5477,-16.6315,179.714,1.73584,-156.204,228
1567604890,282.959,-95.5477,-16.6315,179.714,1.73584,-156.204,228
1567604890,282.848,-95.5477,-16.6315,179.714,1.73584,-156.204,228
1567604890,282.848,-95.5477,-16.6315,179.714,1.73584,-156.204,228
1567604890,282.848,-95.5477,-16.6315,179.714,1.73584,-156.204,228
1567604890,282.848,-95.5477,-16.5199,179.714,1.73584,-156.204,228
1567604890,282.848,-95.5477,-16.5199,179.714,1.73584,-156.204,228
1567604890,282.848,-95.5477,-16.5199,179.714,1.73584,-156.204,228
1567604890,282.848,-95.5477,-16.5199,179.714,1.73584,-156.204,228
1567604890,282.848,-95.5477,-16.5199,179.714,1.73584,-156.204,228
1567604890,282.848,-95.5477,-16.5199,179.714,1.73584,-156.204,228
1567604890,282.848,-95.5477,-16.5199,179.714,1.73584,-156.204,228
1567604890,282.848,-95.5477,-16.5199,179.714,1.73584,-156.204,228
1567604890,282.848,-95.5477,-16.5199,179.714,1.73584,-156.204,228
1567604890,282.848,-95.5477,-16.6315,179.714,1.73584,-156.204,228
1567604890,282.848,-95.5477,-16.6315,179.714,1.73584,-156.204,228
1567604890,282.848,-95.5477,-16.6315,179.692,1.73584,-156.204,228
1567604890,282.848,-95.6593,-16.6315,179.692,1.73584,-156.204,228
1567604890,282.848,-95.6593,-16.6315,179.692,1.71387,-156.204,228
1567604890,282.848,-95.6593,-16.6315,179.692,1.71387,-156.204,228
1567604890,282.848,-95.6593,-16.6315,179.692,1.71387,-156.204,228
1567604890,282.848,-95.6593,-16.6315,179.692,1.71387,-156.204,228
1567604890,282.848,-95.6593,-16.6315,179.692,1.71387,-156.182,228
1567604890,282.848,-95.6593,-16.6315,179.692,1.71387,-156.182,228
1567604890,282.848,-95.6593,-16.6315,179.692,1.71387,-156.182,228
1567604890,282.848,-95.6593,-16.6315,179.692,1.71387,-156.182,228
1567604890,282.848,-95.6593,-16.6315,179.692,1.71387,-156.182,228
1567604890,282.848,-95.6593,-16.6315,179.692,1.71387,-156.182,232
1567604890,282.848,-95.6593,-16.6315,179.692,1.71387,-156.182,232
1567604890,282.848,-95.6593,-16.6315,179.692,1.71387,-156.182,232
1567604890,282.848,-95.6593,-16.6315,179.692,1.71387,-156.182,232
1567604890,282.848,-95.6593,-16.6315,179.692,1.71387,-156.182,232
1567604890,282.848,-95.6593,-16.6315,179.692,1.71387,-156.182,232
1567604890,282.848,-95.6593,-16.6315,179.692,1.71387,-156.182,232
1567604890,282.848,-95.6593,-16.6315,179.692,1.71387,-156.182,232
1567604890,282.848,-95.6593,-16.6315,179.692,1.71387,-156.182,232
1567604890,282.848,-95.6593,-16.6315,179.692,1.71387,-156.182,232
1567604890,282.848,-95.6593,-16.6315,179.692,1.71387,-156.182,232
1567604890,282.848,-95.6593,-16.6315,179.692,1.71387,-156.182,228
1567604890,282.848,-95.6593,-16.6315,179.692,1.71387,-156.204,228
1567604890,282.848,-95.6593,-16.6315,179.692,1.71387,-156.204,228
1567604890,282.848,-95.6593,-16.6315,179.692,1.71387,-156.204,228
1567604890,282.848,-95.6593,-16.6315,179.692,1.71387,-156.204,228
1567604890,282.848,-95.6593,-16.6315,179.692,1.71387,-156.204,228
1567604890,282.848,-95.6593,-16.6315,179.692,1.71387,-156.204,228
1567604890,282.848,-95.6593,-16.6315,179.692,1.71387,-156.204,228
1567604890,282.848,-95.6593,-16.6315,179.692,1.71387,-156.204,228
1567604890,282.848,-95.6593,-16.6315,179.692,1.71387,-156.204,228
1567604890,282.848,-95.6593,-16.6315,179.692,1.71387,-156.204,228
1567604890,282.848,-95.5477,-16.6315,179.692,1.71387,-156.204,228
1567604890,282.848,-95.5477,-16.6315,179.692,1.71387,-156.204,228
1567604890,282.848,-95.5477,-16.6315,179.692,1.71387,-156.204,228
1567604890,282.848,-95.5477,-16.6315,179.692,1.71387,-156.204,224
1567604890,282.848,-95.5477,-16.6315,179.692,1.71387,-156.204,224
1567604890,282.848,-95.5477,-16.6315,179.714,1.71387,-156.204,224
1567604890,282.848,-95.5477,-16.6315,179.692,1.71387,-156.204,224
1567604890,282.848,-95.5477,-16.6315,179.692,1.71387,-156.204,224
1567604890,282.848,-95.5477,-16.6315,179.692,1.71387,-156.204,224
1567604891,282.848,-95.5477,-16.6315,179.692,1.73584,-156.204,224
1567604891,282.848,-95.5477,-16.6315,179.692,1.73584,-156.204,224
1567604891,282.848,-95.5477,-16.6315,179.692,1.73584,-156.204,224
1567604891,282.848,-95.5477,-16.6315,179.692,1.73584,-156.204,224
1567604891,282.848,-95.5477,-16.6315,179.692,1.73584,-156.204,224
1567604891,282.848,-95.5477,-16.6315,179.692,1.73584,-156.204,224
1567604891,282.848,-95.5477,-16.6315,179.692,1.73584,-156.204,224
1567604891,282.848,-95.5477,-16.6315,179.692,1.73584,-156.204,224
1567604891,282.848,-95.5477,-16.6315,179.692,1.73584,-156.204,224
1567604891,282.848,-95.5477,-16.6315,179.714,1.73584,-156.204,224
1567604891,282.848,-95.5477,-16.6315,179.714,1.73584,-156.204,224
1567604891,282.848,-95.5477,-16.6315,179.714,1.71387,-156.204,224
1567604891,282.848,-95.5477,-16.6315,179.714,1.71387,-156.204,224
1567604891,282.848,-95.5477,-16.6315,179.714,1.71387,-156.204,224
1567604891,282.848,-95.5477,-16.6315,179.714,1.71387,-156.204,224
1567604891,282.848,-95.5477,-16.6315,179.714,1.71387,-156.204,224
1567604891,282.848,-95.5477,-16.6315,179.714,1.71387,-156.204,224
1567604891,282.848,-95.5477,-16.6315,179.714,1.71387,-156.204,224
1567604891,282.848,-95.5477,-16.6315,179.714,1.71387,-156.204,224
1567604891,282.848,-95.5477,-16.6315,179.714,1.71387,-156.204,224
1567604891,282.848,-95.5477,-16.6315,179.714,1.71387,-156.204,224
1567604891,282.848,-95.5477,-16.6315,179.714,1.71387,-156.204,224
1567604891,282.848,-95.5477,-16.6315,179.714,1.71387,-156.204,224
1567604891,282.848,-95.5477,-16.6315,179.714,1.71387,-156.204,224
1567604891,282.848,-95.5477,-16.6315,179.714,1.71387,-156.204,228
1567604891,282.848,-95.5477,-16.6315,179.714,1.71387,-156.204,228
1567604891,282.848,-95.5477,-16.6315,179.714,1.71387,-156.204,228
1567604891,282.848,-95.5477,-16.6315,179.714,1.71387,-156.204,228
1567604891,282.848,-95.5477,-16.6315,179.714,1.71387,-156.204,228
1567604891,282.848,-95.5477,-16.6315,179.714,1.71387,-156.204,228
1567604891,282.848,-95.5477,-16.6315,179.714,1.71387,-156.204,228
1567604891,282.848,-95.5477,-16.6315,179.714,1.71387,-156.204,228
1567604891,282.848,-95.5477,-16.6315,179.714,1.71387,-156.204,228
1567604891,282.848,-95.5477,-16.6315,179.714,1.71387,-156.204,228
1567604891,282.848,-95.5477,-16.6315,179.714,1.71387,-156.204,228
1567604891,282.848,-95.5477,-16.6315,179.714,1.71387,-156.204,228
1567604891,282.848,-95.5477,-16.6315,179.714,1.71387,-156.204,228
1567604891,282.848,-95.5477,-16.6315,179.714,1.71387,-156.204,228
1567604891,282.848,-95.5477,-16.6315,179.714,1.71387,-156.204,228
1567604891,282.848,-95.5477,-16.6315,179.714,1.71387,-156.204,228
1567604891,282.848,-95.5477,-16.6315,179.714,1.71387,-156.204,228
1567604891,282.848,-95.5477,-16.6315,179.714,1.71387,-156.204,228
1567604891,282.848,-95.5477,-16.6315,179.714,1.71387,-156.204,228
1567604891,282.848,-95.5477,-16.6315,179.714,1.71387,-156.204,228
1567604891,282.959,-95.5477,-16.6315,179.714,1.71387,-156.204,228
1567604891,282.959,-95.5477,-16.6315,179.714,1.71387,-156.204,228
1567604891,282.959,-95.5477,-16.6315,179.714,1.71387,-156.204,228
1567604891,282.959,-95.5477,-16.6315,179.714,1.71387,-156.204,228
1567604891,282.959,-95.5477,-16.6315,179.714,1.71387,-156.204,228
1567604891,282.959,-95.5477,-16.6315,179.714,1.71387,-156.204,228
1567604891,282.959,-95.5477,-16.6315,179.714,1.71387,-156.204,228
1567604891,282.959,-95.5477,-16.6315,179.714,1.71387,-156.204,228
1567604891,282.959,-95.5477,-16.6315,179.714,1.71387,-156.204,228
1567604891,282.959,-95.5477,-16.6315,179.714,1.71387,-156.204,228
1567604891,282.959,-95.5477,-16.6315,179.714,1.71387,-156.204,228
1567604891,282.959,-95.5477,-16.6315,179.714,1.71387,-156.204,228
1567604891,282.959,-95.5477,-16.6315,179.714,1.71387,-156.204,228
1567604891,282.959,-95.5477,-16.6315,179.714,1.71387,-156.204,228
1567604891,282.959,-95.5477,-16.6315,179.714,1.71387,-156.204,228
1567604891,282.959,-95.5477,-16.6315,179.714,1.71387,-156.204,228
1567604891,282.959,-95.5477,-16.6315,179.714,1.71387,-156.204,224
1567604891,282.959,-95.5477,-16.6315,179.714,1.71387,-156.204,224
1567604891,282.959,-95.5477,-16.6315,179.714,1.71387,-156.204,224
1567604891,282.959,-95.5477,-16.6315,179.714,1.71387,-156.204,224
1567604891,282.959,-95.5477,-16.6315,179.714,1.71387,-156.204,224
1567604891,282.959,-95.5477,-16.6315,179.714,1.71387,-156.204,224
1567604891,282.959,-95.5477,-16.6315,179.714,1.71387,-156.204,224
1567604891,282.959,-95.5477,-16.6315,179.714,1.71387,-156.204,224
1567604891,282.959,-95.5477,-16.6315,179.714,1.71387,-156.204,224
1567604891,282.959,-95.5477,-16.6315,179.714,1.71387,-156.204,224
1567604891,282.959,-95.5477,-16.6315,179.714,1.71387,-156.204,224
1567604891,282.959,-95.5477,-16.6315,179.714,1.71387,-156.204,224
1567604891,282.959,-95.5477,-16.6315,179.714,1.71387,-156.204,224
1567604891,282.959,-95.5477,-16.6315,179.736,1.71387,-156.204,224
1567604891,282.959,-95.5477,-16.6315,179.736,1.71387,-156.204,224
1567604891,282.959,-95.5477,-16.6315,179.736,1.71387,-156.204,224
1567604891,282.959,-95.5477,-16.6315,179.736,1.71387,-156.204,224
1567604891,282.959,-95.5477,-16.6315,179.736,1.71387,-156.204,224
1567604891,282.959,-95.5477,-16.6315,179.736,1.71387,-156.204,224
1567604891,282.959,-95.5477,-16.6315,179.736,1.71387,-156.204,224
1567604891,282.959,-95.5477,-16.6315,179.736,1.73584,-156.204,224
1567604891,282.959,-95.5477,-16.6315,179.736,1.73584,-156.204,224
1567604891,282.959,-95.5477,-16.6315,179.736,1.73584,-156.204,224
1567604891,282.959,-95.5477,-16.6315,179.736,1.73584,-156.204,224
1567604891,282.959,-95.5477,-16.6315,179.736,1.73584,-156.204,224
1567604891,282.959,-95.5477,-16.6315,179.736,1.73584,-156.204,224
1567604891,282.959,-95.5477,-16.6315,179.736,1.73584,-156.182,224
1567604891,282.959,-95.5477,-16.6315,179.714,1.73584,-156.182,224
1567604891,282.959,-95.5477,-16.6315,179.714,1.73584,-156.182,224
1567604891,282.959,-95.5477,-16.6315,179.714,1.73584,-156.182,224
1567604891,282.959,-95.5477,-16.6315,179.714,1.73584,-156.182,224
1567604891,282.959,-95.5477,-16.6315,179.714,1.73584,-156.182,224
1567604891,282.959,-95.5477,-16.6315,179.714,1.73584,-156.182,224
1567604891,282.959,-95.5477,-16.6315,179.714,1.73584,-156.182,228
1567604891,282.959,-95.5477,-16.6315,179.714,1.73584,-156.182,228
1567604891,282.848,-95.5477,-16.6315,179.714,1.73584,-156.182,228
1567604891,282.848,-95.5477,-16.6315,179.714,1.73584,-156.182,228
1567604891,282.848,-95.5477,-16.6315,179.714,1.71387,-156.182,228
1567604891,282.848,-95.5477,-16.6315,179.714,1.73584,-156.182,228
1567604891,282.848,-95.5477,-16.6315,179.714,1.73584,-156.182,228
1567604892,282.848,-95.5477,-16.6315,179.714,1.73584,-156.182,228
1567604892,282.848,-95.5477,-16.6315,179.714,1.73584,-156.204,228
1567604892,282.848,-95.5477,-16.6315,179.714,1.73584,-156.204,228
1567604892,282.848,-95.5477,-16.6315,179.714,1.73584,-156.204,228
1567604892,282.848,-95.5477,-16.6315,179.714,1.73584,-156.204,228
1567604892,282.848,-95.5477,-16.6315,179.714,1.73584,-156.204,228
1567604892,282.848,-95.5477,-16.6315,179.714,1.73584,-156.204,228
1567604892,282.848,-95.5477,-16.6315,179.714,1.73584,-156.204,228
1567604892,282.848,-95.5477,-16.6315,179.714,1.73584,-156.204,232
1567604892,282.848,-95.5477,-16.6315,179.714,1.73584,-156.204,232
1567604892,282.848,-95.5477,-16.6315,179.714,1.73584,-156.204,232
1567604892,282.848,-95.5477,-16.6315,179.714,1.73584,-156.204,232
1567604892,282.848,-95.5477,-16.6315,179.714,1.73584,-156.204,232
1567604892,282.848,-95.5477,-16.6315,179.714,1.71387,-156.204,228
1567604892,282.848,-95.5477,-16.6315,179.714,1.71387,-156.204,228
1567604892,282.848,-95.5477,-16.6315,179.714,1.71387,-156.204,228
1567604892,282.848,-95.5477,-16.6315,179.714,1.73584,-156.204,228
1567604892,282.848,-95.5477,-16.6315,179.714,1.73584,-156.204,228
1567604892,282.848,-95.5477,-16.6315,179.714,1.73584,-156.204,228
1567604892,282.848,-95.5477,-16.6315,179.714,1.73584,-156.204,228
1567604892,282.848,-95.5477,-16.6315,179.714,1.73584,-156.204,228
1567604892,282.848,-95.5477,-16.5199,179.714,1.73584,-156.204,228
1567604892,282.959,-95.5477,-16.5199,179.714,1.73584,-156.204,224
1567604892,282.959,-95.5477,-16.5199,179.714,1.73584,-156.204,224
1567604892,282.959,-95.5477,-16.5199,179.714,1.73584,-156.204,224
1567604892,282.959,-95.5477,-16.5199,179.714,1.73584,-156.204,224
1567604892,282.959,-95.5477,-16.5199,179.714,1.73584,-156.204,224
1567604892,282.959,-95.5477,-16.5199,179.714,1.73584,-156.204,224
1567604892,282.959,-95.5477,-16.5199,179.714,1.73584,-156.204,220
1567604892,282.959,-95.5477,-16.5199,179.714,1.73584,-156.204,220
1567604892,282.959,-95.5477,-16.5199,179.714,1.73584,-156.204,220
1567604892,282.959,-95.5477,-16.5199,179.714,1.73584,-156.182,220
1567604892,282.959,-95.5477,-16.5199,179.714,1.73584,-156.204,220
1567604892,282.959,-95.5477,-16.5199,179.714,1.73584,-156.204,220
1567604892,282.959,-95.5477,-16.5199,179.714,1.73584,-156.204,220
1567604892,282.959,-95.5477,-16.5199,179.714,1.73584,-156.204,220
1567604892,282.959,-95.5477,-16.5199,179.714,1.73584,-156.204,220
1567604892,282.959,-95.5477,-16.6315,179.714,1.73584,-156.204,216
1567604892,282.959,-95.5477,-16.6315,179.714,1.73584,-156.204,216
1567604892,282.959,-95.5477,-16.6315,179.714,1.73584,-156.204,216
1567604892,282.959,-95.5477,-16.6315,179.714,1.73584,-156.204,216
1567604892,282.959,-95.5477,-16.6315,179.714,1.73584,-156.204,216
1567604892,282.959,-95.5477,-16.6315,179.714,1.73584,-156.204,216
1567604892,282.959,-95.5477,-16.6315,179.714,1.71387,-156.204,216
1567604892,282.959,-95.5477,-16.6315,179.714,1.71387,-156.204,216
1567604892,282.959,-95.5477,-16.6315,179.714,1.71387,-156.204,216
1567604892,282.959,-95.5477,-16.6315,179.714,1.71387,-156.204,216
1567604892,282.959,-95.5477,-16.6315,179.714,1.71387,-156.204,216
1567604892,282.959,-95.5477,-16.6315,179.714,1.71387,-156.204,216
1567604892,282.959,-95.5477,-16.6315,179.714,1.71387,-156.204,216
1567604892,282.959,-95.5477,-16.6315,179.714,1.71387,-156.204,216
1567604892,282.959,-95.5477,-16.6315,179.714,1.71387,-156.204,216
1567604892,282.959,-95.5477,-16.6315,179.714,1.71387,-156.204,216
1567604892,282.959,-95.5477,-16.6315,179.714,1.71387,-156.204,216
1567604892,282.959,-95.5477,-16.6315,179.714,1.71387,-156.204,216
1567604892,282.959,-95.5477,-16.6315,179.714,1.71387,-156.204,216
1567604892,282.959,-95.5477,-16.6315,179.714,1.71387,-156.204,216
1567604892,282.959,-95.5477,-16.6315,179.714,1.71387,-156.204,216
1567604892,282.848,-95.5477,-16.6315,179.714,1.71387,-156.204,216
1567604892,282.848,-95.5477,-16.6315,179.714,1.71387,-156.204,220
1567604892,282.848,-95.5477,-16.6315,179.714,1.71387,-156.204,220
1567604892,282.848,-95.5477,-16.6315,179.714,1.71387,-156.204,220
1567604892,282.848,-95.5477,-16.6315,179.714,1.71387,-156.204,220
1567604892,282.848,-95.5477,-16.6315,179.714,1.71387,-156.204,220
