time,x,y,z,ax,ay,az,q
1567593978,400.72,-177.366,-16.5199,179.78,1.66992,-156.072,316
1567593978,400.72,-177.366,-16.5199,179.78,1.66992,-156.072,316
1567593978,400.72,-177.366,-16.5199,179.78,1.66992,-156.072,312
1567593978,400.72,-177.366,-16.4083,179.78,1.66992,-156.072,312
1567593978,400.72,-177.366,-16.4083,179.78,1.66992,-156.072,312
1567593978,400.72,-177.366,-16.4083,179.78,1.66992,-156.072,312
1567593978,400.72,-177.366,-16.4083,179.78,1.66992,-156.072,312
1567593978,400.72,-177.366,-16.4083,179.78,1.66992,-156.072,312
1567593979,400.72,-177.478,-16.4083,179.78,1.66992,-156.072,312
1567593979,400.72,-177.478,-16.4083,179.78,1.66992,-156.072,312
1567593979,400.72,-177.478,-16.4083,179.758,1.66992,-156.072,312
1567593979,400.72,-177.478,-16.4083,179.758,1.66992,-156.072,316
1567593979,400.72,-177.478,-16.4083,179.758,1.66992,-156.05,316
1567593979,400.72,-177.478,-16.4083,179.758,1.66992,-156.05,316
1567593979,400.72,-177.478,-16.4083,179.758,1.66992,-156.05,316
1567593979,400.72,-177.478,-16.4083,179.758,1.66992,-156.05,316
1567593979,400.72,-177.478,-16.4083,179.758,1.66992,-156.05,316
1567593979,400.72,-177.478,-16.4083,179.758,1.66992,-156.05,316
1567593979,400.72,-177.478,-16.4083,179.758,1.66992,-156.05,320
1567593979,400.72,-177.478,-16.4083,179.758,1.66992,-156.05,320
1567593979,400.72,-177.478,-16.4083,179.758,1.66992,-156.05,320
1567593979,400.72,-177.478,-16.4083,179.758,1.69189,-156.028,320
1567593979,400.72,-177.478,-16.4083,179.758,1.69189,-156.028,320
1567593979,400.72,-177.478,-16.4083,179.758,1.69189,-156.028,320
1567593979,400.72,-177.478,-16.4083,179.758,1.69189,-156.028,320
1567593979,400.72,-177.478,-16.4083,179.758,1.69189,-156.028,320
1567593979,400.72,-177.478,-16.4083,179.758,1.69189,-156.028,320
1567593979,400.72,-177.478,-16.4083,179.758,1.69189,-156.028,320
1567593979,400.72,-177.478,-16.4083,179.758,1.69189,-156.006,320
1567593979,400.72,-177.478,-16.4083,179.758,1.69189,-156.006,320
1567593979,400.72,-177.478,-16.4083,179.758,1.69189,-156.006,320
1567593979,400.608,-177.478,-16.4083,179.758,1.69189,-156.006,320
1567593979,400.608,-177.478,-16.4083,179.758,1.69189,-156.006,320
1567593979,400.608,-177.366,-16.2967,179.758,1.69189,-156.006,324
1567593979,400.608,-177.366,-16.4083,179.758,1.69189,-156.006,324
1567593979,400.608,-177.366,-16.4083,179.758,1.69189,-156.006,324
1567593979,400.608,-177.366,-16.2967,179.758,1.69189,-156.006,324
1567593979,400.608,-177.366,-16.2967,179.758,1.69189,-156.006,324
1567593979,400.608,-177.366,-16.2967,179.78,1.69189,-156.006,324
1567593979,400.608,-177.366,-16.2967,179.78,1.69189,-156.006,324
1567593979,400.608,-177.366,-16.4083,179.78,1.69189,-156.006,324
1567593979,400.72,-177.366,-16.4083,179.78,1.69189,-156.006,324
1567593979,400.72,-177.366,-16.4083,179.78,1.69189,-156.006,324
1567593979,400.72,-177.366,-16.4083,179.78,1.69189,-156.006,324
1567593979,400.72,-177.366,-16.4083,179.78,1.69189,-156.006,324
1567593979,400.72,-177.366,-16.4083,179.78,1.69189,-156.006,324
1567593979,400.72,-177.366,-16.4083,179.78,1.69189,-156.006,320
1567593979,400.72,-177.366,-16.4083,179.802,1.69189,-156.006,320
1567593979,400.72,-177.366,-16.4083,179.802,1.69189,-156.028,320
1567593979,400.72,-177.366,-16.4083,179.802,1.69189,-156.028,320
1567593979,400.72,-177.366,-16.4083,179.802,1.69189,-156.028,320
1567593979,400.72,-177.366,-16.4083,179.802,1.69189,-156.028,320
1567593979,400.831,-177.366,-16.4083,179.802,1.69189,-156.028,316
1567593979,400.831,-177.366,-16.4083,179.802,1.69189,-156.028,316
1567593979,400.72,-177.366,-16.4083,179.802,1.69189,-156.028,316
1567593979,400.72,-177.366,-16.4083,179.802,1.69189,-156.028,316
1567593979,400.72,-177.366,-16.4083,179.802,1.69189,-156.028,312
1567593979,400.72,-177.366,-16.4083,179.802,1.69189,-156.028,312
1567593979,400.72,-177.366,-16.4083,179.802,1.69189,-156.05,312
1567593979,400.72,-177.366,-16.4083,179.802,1.69189,-156.05,312
1567593979,400.72,-177.366,-16.4083,179.802,1.69189,-156.05,308
1567593979,400.72,-177.366,-16.5199,179.802,1.66992,-156.05,308
1567593979,400.72,-177.366,-16.5199,179.802,1.66992,-156.05,308
1567593979,400.831,-177.366,-16.5199,179.802,1.66992,-156.05,308
1567593979,400.831,-177.366,-16.5199,179.802,1.66992,-156.05,308
1567593979,400.831,-177.366,-16.5199,179.802,1.66992,-156.05,308
1567593979,400.831,-177.366,-16.5199,179.802,1.69189,-156.05,308
1567593979,400.831,-177.366,-16.5199,179.802,1.69189,-156.05,308
1567593979,400.831,-177.478,-16.4083,179.78,1.69189,-156.05,308
1567593979,400.831,-177.478,-16.4083,179.78,1.69189,-156.05,308
1567593979,400.831,-177.478,-16.4083,179.78,1.69189,-156.05,308
1567593979,400.831,-177.478,-16.4083,179.78,1.69189,-156.05,308
1567593979,400.831,-177.478,-16.4083,179.78,1.69189,-156.05,308
1567593979,400.831,-177.478,-16.4083,179.78,1.69189,-156.05,308
1567593979,400.831,-177.478,-16.4083,179.78,1.69189,-156.05,308
1567593979,400.943,-177.478,-16.4083,179.78,1.69189,-156.05,304
1567593979,400.943,-177.478,-16.4083,179.78,1.69189,-156.05,304
1567593979,400.943,-177.478,-16.4083,179.78,1.69189,-156.05,304
1567593979,400.943,-177.478,-16.4083,179.78,1.69189,-156.05,300
1567593979,400.943,-177.478,-16.5199,179.78,1.69189,-156.05,300
1567593979,400.943,-177.478,-16.5199,179.78,1.69189,-156.05,300
1567593979,400.943,-177.478,-16.5199,179.78,1.69189,-156.05,296
1567593979,400.943,-177.478,-16.5199,179.78,1.69189,-156.05,296
1567593979,400.943,-177.366,-16.5199,179.802,1.69189,-156.05,296
1567593979,400.943,-177.366,-16.5199,179.802,1.66992,-156.05,292
1567593979,400.943,-177.366,-16.5199,179.802,1.66992,-156.072,292
1567593979,400.943,-177.366,-16.5199,179.802,1.66992,-156.072,292
1567593979,400.831,-177.366,-16.5199,179.802,1.66992,-156.072,292
1567593979,400.831,-177.366,-16.6315,179.802,1.66992,-156.072,292
1567593979,400.831,-177.366,-16.6315,179.802,1.66992,-156.05,292
1567593979,400.831,-177.366,-16.6315,179.802,1.64795,-156.05,292
1567593979,400.831,-177.366,-16.6315,179.802,1.64795,-156.05,292
1567593979,400.831,-177.366,-16.6315,179.802,1.64795,-156.05,296
1567593979,400.831,-177.366,-16.5199,179.802,1.64795,-156.05,296
1567593979,400.831,-177.366,-16.5199,179.802,1.64795,-156.05,296
1567593979,400.831,-177.366,-16.5199,179.802,1.64795,-156.05,296
1567593979,400.831,-177.366,-16.5199,179.802,1.64795,-156.05,296
1567593979,400.831,-177.366,-16.5199,179.802,1.64795,-156.05,300
1567593979,400.831,-177.366,-16.5199,179.802,1.64795,-156.05,300
1567593979,400.831,-177.366,-16.5199,179.802,1.64795,-156.05,300
1567593979,400.831,-177.366,-16.5199,179.802,1.64795,-156.05,300
1567593979,400.831,-177.366,-16.5199,179.802,1.64795,-156.05,300
1567593979,400.831,-177.366,-16.6315,179.802,1.64795,-156.05,300
1567593979,400.831,-177.366,-16.6315,179.802,1.64795,-156.05,300
1567593979,400.831,-177.366,-16.6315,179.802,1.64795,-156.05,300
1567593979,400.831,-177.366,-16.5199,179.802,1.64795,-156.05,300
1567593979,400.831,-177.366,-16.5199,179.802,1.64795,-156.05,300
1567593979,400.831,-177.366,-16.6315,179.802,1.64795,-156.05,300
1567593980,400.831,-177.366,-16.6315,179.802,1.64795,-156.05,300
1567593980,400.831,-177.366,-16.6315,179.802,1.64795,-156.05,300
1567593980,400.831,-177.366,-16.6315,179.802,1.64795,-156.05,300
1567593980,400.831,-177.366,-16.6315,179.802,1.64795,-156.05,300
1567593980,400.831,-177.366,-16.6315,179.802,1.64795,-156.05,300
1567593980,400.831,-177.366,-16.6315,179.802,1.64795,-156.05,300
1567593980,400.831,-177.366,-16.6315,179.78,1.64795,-156.05,296
1567593980,400.831,-177.366,-16.6315,179.78,1.64795,-156.05,296
1567593980,400.831,-177.366,-16.6315,179.78,1.64795,-156.05,296
1567593980,400.72,-177.478,-16.6315,179.78,1.64795,-156.05,296
1567593980,400.72,-177.478,-16.6315,179.78,1.64795,-156.05,296
1567593980,400.72,-177.478,-16.6315,179.758,1.64795,-156.05,292
1567593980,400.72,-177.478,-16.6315,179.758,1.64795,-156.05,292
1567593980,400.72,-177.478,-16.6315,179.758,1.64795,-156.05,292
1567593980,400.72,-177.478,-16.6315,179.758,1.64795,-156.05,292
1567593980,400.72,-177.478,-16.6315,179.758,1.64795,-156.028,292
1567593980,400.72,-177.478,-16.6315,179.758,1.64795,-156.028,292
1567593980,400.72,-177.478,-16.5199,179.78,1.64795,-156.028,292
1567593980,400.72,-177.478,-16.5199,179.78,1.64795,-156.028,292
1567593980,400.72,-177.478,-16.5199,179.78,1.64795,-156.028,292
1567593980,400.72,-177.478,-16.5199,179.758,1.66992,-156.028,292
1567593980,400.72,-177.478,-16.5199,179.758,1.66992,-156.028,292
1567593980,400.72,-177.478,-16.5199,179.758,1.66992,-156.006,292
1567593980,400.72,-177.478,-16.5199,179.758,1.66992,-156.006,296
1567593980,400.72,-177.478,-16.5199,179.758,1.66992,-156.006,296
1567593980,400.72,-177.478,-16.5199,179.758,1.66992,-156.006,296
1567593980,400.72,-177.478,-16.5199,179.758,1.66992,-156.006,296
1567593980,400.72,-177.478,-16.5199,179.758,1.66992,-156.006,296
1567593980,400.72,-177.478,-16.5199,179.736,1.66992,-156.006,300
1567593980,400.72,-177.478,-16.5199,179.736,1.66992,-156.006,300
1567593980,400.72,-177.478,-16.5199,179.736,1.66992,-156.006,300
1567593980,400.608,-177.478,-16.5199,179.736,1.66992,-156.006,300
1567593980,400.608,-177.478,-16.4083,179.736,1.66992,-156.006,304
1567593980,400.608,-177.478,-16.4083,179.736,1.66992,-156.006,304
1567593980,400.608,-177.478,-16.4083,179.736,1.66992,-156.006,304
1567593980,400.608,-177.478,-16.4083,179.736,1.66992,-156.006,304
1567593980,400.608,-177.589,-16.4083,179.736,1.66992,-156.006,304
1567593980,400.72,-177.589,-16.4083,179.736,1.66992,-156.006,304
1567593980,400.72,-177.589,-16.4083,179.736,1.66992,-156.006,308
1567593980,400.72,-177.589,-16.4083,179.736,1.66992,-156.006,308
1567593980,400.72,-177.589,-16.4083,179.736,1.66992,-156.006,308
1567593980,400.72,-177.589,-16.4083,179.736,1.66992,-156.028,308
1567593980,400.72,-177.589,-16.4083,179.736,1.66992,-156.028,308
1567593980,400.72,-177.478,-16.5199,179.736,1.66992,-156.028,308
1567593980,400.72,-177.478,-16.5199,179.736,1.66992,-156.028,308
1567593980,400.72,-177.478,-16.5199,179.736,1.66992,-156.028,308
1567593980,400.72,-177.478,-16.5199,179.736,1.66992,-156.028,308
1567593980,400.72,-177.478,-16.5199,179.736,1.66992,-156.028,308
1567593980,400.72,-177.478,-16.5199,179.758,1.66992,-156.05,308
1567593980,400.72,-177.478,-16.5199,179.758,1.66992,-156.05,308
1567593980,400.72,-177.478,-16.5199,179.758,1.64795,-156.05,308
1567593980,400.72,-177.366,-16.5199,179.758,1.64795,-156.05,308
1567593980,400.72,-177.366,-16.5199,179.758,1.64795,-156.05,308
1567593980,400.72,-177.366,-16.5199,179.78,1.64795,-156.05,312
1567593980,400.72,-177.366,-16.5199,179.78,1.64795,-156.05,312
1567593980,400.72,-177.254,-16.5199,179.78,1.64795,-156.05,312
1567593980,400.72,-177.254,-16.5199,179.802,1.66992,-156.05,312
1567593980,400.72,-177.254,-16.5199,179.802,1.66992,-156.05,312
1567593980,400.72,-177.254,-16.4083,179.802,1.66992,-156.05,316
1567593980,400.72,-177.254,-16.4083,179.802,1.66992,-156.05,316
1567593980,400.72,-177.254,-16.4083,179.802,1.69189,-156.05,316
1567593980,400.72,-177.254,-16.4083,179.802,1.69189,-156.05,316
1567593980,400.72,-177.254,-16.4083,179.824,1.69189,-156.05,316
1567593980,400.72,-177.254,-16.4083,179.824,1.69189,-156.05,316
1567593980,400.72,-177.254,-16.4083,179.824,1.69189,-156.05,316
1567593980,400.72,-177.254,-16.4083,179.824,1.69189,-156.05,316
1567593980,400.72,-177.254,-16.4083,179.802,1.69189,-156.05,316
1567593980,400.72,-177.254,-16.4083,179.802,1.69189,-156.05,316
1567593980,400.72,-177.254,-16.4083,179.802,1.69189,-156.05,312
1567593980,400.72,-177.254,-16.4083,179.802,1.69189,-156.05,312
1567593980,400.72,-177.254,-16.4083,179.802,1.69189,-156.05,312
1567593980,400.72,-177.366,-16.4083,179.802,1.69189,-156.05,312
1567593980,400.72,-177.366,-16.4083,179.78,1.69189,-156.05,312
1567593980,400.72,-177.366,-16.4083,179.78,1.69189,-156.028,312
1567593980,400.72,-177.366,-16.4083,179.78,1.69189,-156.028,312
1567593980,400.72,-177.366,-16.4083,179.78,1.69189,-156.028,312
1567593980,400.72,-177.366,-16.4083,179.78,1.69189,-156.028,312
1567593980,400.72,-177.366,-16.4083,179.78,1.69189,-156.028,312
1567593980,400.72,-177.366,-16.4083,179.78,1.69189,-156.028,312
1567593980,400.72,-177.366,-16.4083,179.78,1.69189,-156.028,316
1567593980,400.72,-177.366,-16.4083,179.78,1.69189,-156.028,316
1567593980,400.72,-177.366,-16.4083,179.78,1.69189,-156.028,316
1567593980,400.72,-177.366,-16.4083,179.78,1.69189,-156.028,316
1567593980,400.608,-177.366,-16.4083,179.78,1.69189,-156.028,316
1567593980,400.608,-177.366,-16.4083,179.78,1.66992,-156.028,316
1567593980,400.608,-177.366,-16.5199,179.78,1.66992,-156.028,316
1567593980,400.608,-177.366,-16.5199,179.78,1.66992,-156.028,316
1567593980,400.608,-177.366,-16.5199,179.78,1.66992,-156.028,316
1567593980,400.608,-177.366,-16.5199,179.78,1.66992,-156.028,316
1567593980,400.608,-177.366,-16.5199,179.78,1.66992,-156.028,316
1567593980,400.608,-177.366,-16.5199,179.758,1.66992,-156.028,316
1567593980,400.608,-177.366,-16.5199,179.758,1.66992,-156.028,316
1567593980,400.608,-177.366,-16.5199,179.758,1.66992,-156.028,316
1567593980,400.608,-177.366,-16.5199,179.758,1.66992,-156.028,316
1567593980,400.608,-177.366,-16.5199,179.758,1.66992,-156.028,316
1567593980,400.608,-177.366,-16.5199,179.758,1.66992,-156.028,316
1567593980,400.608,-177.366,-16.5199,179.758,1.66992,-156.028,316
1567593980,400.608,-177.478,-16.5199,179.758,1.69189,-156.028,316
1567593980,400.608,-177.478,-16.5199,179.736,1.69189,-156.028,320
1567593980,400.608,-177.478,-16.5199,179.736,1.69189,-156.028,320
1567593981,400.608,-177.478,-16.4083,179.736,1.69189,-156.028,320
1567593981,400.608,-177.478,-16.4083,179.736,1.69189,-156.028,324
1567593981,400.608,-177.478,-16.4083,179.736,1.69189,-156.028,324
1567593981,400.608,-177.478,-16.4083,179.736,1.71387,-156.028,324
1567593981,400.608,-177.478,-16.4083,179.736,1.71387,-156.028,324
1567593981,400.608,-177.478,-16.4083,179.736,1.71387,-156.028,328
1567593981,400.608,-177.478,-16.4083,179.736,1.71387,-156.028,328
1567593981,400.608,-177.478,-16.4083,179.736,1.71387,-156.028,328
1567593981,400.608,-177.478,-16.4083,179.736,1.71387,-156.05,328
1567593981,400.608,-177.478,-16.5199,179.736,1.69189,-156.05,328
1567593981,400.608,-177.478,-16.5199,179.736,1.69189,-156.05,328
1567593981,400.608,-177.478,-16.5199,179.736,1.69189,-156.05,328
1567593981,400.608,-177.478,-16.5199,179.736,1.69189,-156.05,328
1567593981,400.608,-177.478,-16.5199,179.736,1.69189,-156.05,324
1567593981,400.608,-177.478,-16.5199,179.736,1.69189,-156.05,324
1567593981,400.72,-177.478,-16.5199,179.736,1.69189,-156.05,324
1567593981,400.72,-177.478,-16.4083,179.736,1.71387,-156.05,320
1567593981,400.72,-177.478,-16.4083,179.736,1.71387,-156.05,320
1567593981,400.72,-177.478,-16.4083,179.736,1.71387,-156.05,320
1567593981,400.72,-177.478,-16.4083,179.758,1.71387,-156.05,320
1567593981,400.72,-177.478,-16.4083,179.758,1.71387,-156.05,320
1567593981,400.72,-177.478,-16.4083,179.758,1.71387,-156.05,320
1567593981,400.72,-177.478,-16.4083,179.758,1.71387,-156.05,320
1567593981,400.72,-177.478,-16.4083,179.758,1.71387,-156.05,320
1567593981,400.72,-177.478,-16.4083,179.758,1.73584,-156.05,320
1567593981,400.72,-177.478,-16.4083,179.736,1.71387,-156.05,320
1567593981,400.72,-177.478,-16.4083,179.736,1.71387,-156.05,320
1567593981,400.608,-177.478,-16.4083,179.736,1.71387,-156.05,320
1567593981,400.608,-177.478,-16.4083,179.736,1.71387,-156.05,320
1567593981,400.608,-177.478,-16.4083,179.736,1.71387,-156.05,320
1567593981,400.608,-177.478,-16.4083,179.736,1.71387,-156.05,320
1567593981,400.608,-177.478,-16.4083,179.736,1.71387,-156.05,320
1567593981,400.608,-177.478,-16.4083,179.736,1.71387,-156.05,320
1567593981,400.608,-177.478,-16.4083,179.736,1.69189,-156.05,320
1567593981,400.608,-177.478,-16.5199,179.736,1.69189,-156.05,320
1567593981,400.608,-177.478,-16.5199,179.736,1.69189,-156.05,320
1567593981,400.608,-177.478,-16.5199,179.736,1.69189,-156.05,320
1567593981,400.608,-177.478,-16.5199,179.736,1.69189,-156.05,320
1567593981,400.608,-177.589,-16.5199,179.736,1.69189,-156.05,320
1567593981,400.608,-177.589,-16.5199,179.736,1.69189,-156.05,316
1567593981,400.608,-177.589,-16.4083,179.736,1.69189,-156.05,316
1567593981,400.608,-177.589,-16.4083,179.758,1.69189,-156.05,316
1567593981,400.608,-177.589,-16.4083,179.758,1.69189,-156.05,316
1567593981,400.608,-177.478,-16.4083,179.758,1.69189,-156.05,316
1567593981,400.608,-177.478,-16.4083,179.758,1.69189,-156.05,316
1567593981,400.608,-177.478,-16.4083,179.758,1.69189,-156.05,316
1567593981,400.608,-177.478,-16.4083,179.78,1.69189,-156.05,316
1567593981,400.608,-177.478,-16.4083,179.78,1.69189,-156.05,316
1567593981,400.608,-177.478,-16.5199,179.78,1.69189,-156.05,320
1567593981,400.608,-177.478,-16.5199,179.78,1.69189,-156.05,320
1567593981,400.608,-177.366,-16.5199,179.78,1.69189,-156.05,320
1567593981,400.608,-177.366,-16.5199,179.78,1.69189,-156.05,324
1567593981,400.608,-177.366,-16.5199,179.78,1.69189,-156.05,324
1567593981,400.608,-177.366,-16.5199,179.78,1.66992,-156.05,324
1567593981,400.608,-177.366,-16.5199,179.78,1.66992,-156.05,324
1567593981,400.608,-177.366,-16.5199,179.78,1.66992,-156.05,328
1567593981,400.608,-177.366,-16.5199,179.78,1.66992,-156.05,328
1567593981,400.608,-177.366,-16.5199,179.78,1.66992,-156.05,328
1567593981,400.608,-177.366,-16.5199,179.78,1.66992,-156.05,328
1567593981,400.608,-177.366,-16.5199,179.78,1.66992,-156.05,328
1567593981,400.608,-177.366,-16.5199,179.78,1.66992,-156.05,328
1567593981,400.608,-177.366,-16.5199,179.78,1.66992,-156.05,328
1567593981,400.608,-177.366,-16.5199,179.78,1.66992,-156.05,328
1567593981,400.608,-177.366,-16.4083,179.78,1.66992,-156.05,328
1567593981,400.608,-177.366,-16.4083,179.78,1.66992,-156.05,328
1567593981,400.608,-177.366,-16.4083,179.78,1.69189,-156.05,328
1567593981,400.608,-177.366,-16.4083,179.78,1.69189,-156.028,328
1567593981,400.608,-177.366,-16.4083,179.78,1.66992,-156.028,328
1567593981,400.608,-177.366,-16.4083,179.78,1.66992,-156.028,328
1567593981,400.608,-177.366,-16.4083,179.78,1.66992,-156.028,328
1567593981,400.608,-177.366,-16.4083,179.78,1.66992,-156.05,328
1567593981,400.608,-177.366,-16.4083,179.78,1.66992,-156.05,332
1567593981,400.608,-177.366,-16.4083,179.78,1.66992,-156.05,332
1567593981,400.608,-177.366,-16.5199,179.78,1.66992,-156.05,332
1567593981,400.608,-177.366,-16.5199,179.78,1.66992,-156.05,332
1567593981,400.608,-177.366,-16.5199,179.78,1.66992,-156.05,332
1567593981,400.608,-177.366,-16.5199,179.78,1.66992,-156.05,332
1567593981,400.608,-177.366,-16.5199,179.78,1.66992,-156.05,328
1567593981,400.608,-177.366,-16.5199,179.78,1.66992,-156.05,328
1567593981,400.608,-177.366,-16.5199,179.78,1.66992,-156.05,328
1567593981,400.608,-177.366,-16.5199,179.78,1.66992,-156.05,328
1567593981,400.608,-177.366,-16.5199,179.78,1.66992,-156.05,328
1567593981,400.608,-177.366,-16.5199,179.78,1.66992,-156.05,328
1567593981,400.608,-177.366,-16.5199,179.78,1.66992,-156.05,328
1567593981,400.608,-177.366,-16.5199,179.78,1.66992,-156.05,328
1567593981,400.608,-177.366,-16.5199,179.78,1.69189,-156.05,328
1567593981,400.608,-177.366,-16.5199,179.78,1.69189,-156.028,328
1567593981,400.608,-177.366,-16.4083,179.758,1.69189,-156.028,328
1567593981,400.608,-177.366,-16.4083,179.758,1.69189,-156.028,328
1567593981,400.608,-177.366,-16.4083,179.758,1.69189,-156.028,332
1567593981,400.608,-177.478,-16.4083,179.758,1.69189,-156.028,332
1567593981,400.608,-177.478,-16.4083,179.758,1.69189,-156.028,328
1567593981,400.608,-177.478,-16.4083,179.758,1.69189,-156.028,328
1567593981,400.608,-177.478,-16.4083,179.758,1.69189,-156.028,328
1567593981,400.608,-177.478,-16.4083,179.736,1.69189,-156.028,328
1567593981,400.608,-177.478,-16.4083,179.736,1.69189,-156.028,332
1567593981,400.608,-177.478,-16.4083,179.736,1.69189,-156.028,332
1567593981,400.608,-177.478,-16.4083,179.736,1.69189,-156.028,332
1567593981,400.608,-177.478,-16.4083,179.736,1.69189,-156.028,332
1567593981,400.608,-177.478,-16.4083,179.758,1.69189,-156.028,332
1567593982,400.608,-177.366,-16.4083,179.758,1.69189,-156.028,336
1567593982,400.608,-177.366,-16.4083,179.758,1.69189,-156.028,336
1567593982,400.608,-177.366,-16.4083,179.758,1.69189,-156.028,340
1567593982,400.608,-177.366,-16.2967,179.758,1.69189,-156.028,340
1567593982,400.608,-177.366,-16.2967,179.758,1.69189,-156.028,344
1567593982,400.608,-177.366,-16.2967,179.758,1.71387,-156.028,344
1567593982,400.608,-177.366,-16.2967,179.758,1.71387,-156.028,344
1567593982,400.608,-177.366,-16.2967,179.758,1.71387,-156.028,344
1567593982,400.608,-177.366,-16.2967,179.758,1.71387,-156.028,344
1567593982,400.608,-177.366,-16.2967,179.758,1.71387,-156.028,344
1567593982,400.72,-177.366,-16.2967,179.758,1.71387,-156.028,340
1567593982,400.72,-177.366,-16.2967,179.758,1.71387,-156.006,340
1567593982,400.72,-177.366,-16.2967,179.758,1.71387,-156.006,340
1567593982,400.72,-177.366,-16.2967,179.758,1.71387,-156.006,336
1567593982,400.72,-177.478,-16.2967,179.758,1.71387,-156.006,336
1567593982,400.72,-177.478,-16.2967,179.758,1.69189,-156.006,336
1567593982,400.72,-177.478,-16.2967,179.758,1.69189,-156.006,336
1567593982,400.72,-177.478,-16.2967,179.758,1.69189,-156.006,336
1567593982,400.72,-177.478,-16.2967,179.758,1.69189,-156.006,336
1567593982,400.72,-177.478,-16.2967,179.758,1.69189,-156.006,336
1567593982,400.72,-177.478,-16.2967,179.758,1.69189,-156.006,336
1567593982,400.72,-177.478,-16.2967,179.78,1.69189,-156.006,336
1567593982,400.72,-177.366,-16.2967,179.78,1.69189,-156.006,332
1567593982,400.72,-177.366,-16.2967,179.78,1.69189,-156.006,332
1567593982,400.72,-177.366,-16.2967,179.78,1.69189,-156.006,332
1567593982,400.72,-177.366,-16.2967,179.78,1.69189,-156.006,332
1567593982,400.72,-177.366,-16.2967,179.78,1.69189,-156.028,332
1567593982,400.72,-177.366,-16.4083,179.78,1.69189,-156.028,336
1567593982,400.72,-177.366,-16.4083,179.802,1.69189,-156.028,336
1567593982,400.72,-177.254,-16.4083,179.802,1.69189,-156.028,336
1567593982,400.72,-177.254,-16.4083,179.802,1.69189,-156.028,336
1567593982,400.72,-177.254,-16.4083,179.802,1.69189,-156.028,336
1567593982,400.72,-177.254,-16.4083,179.802,1.69189,-156.028,336
1567593982,400.72,-177.254,-16.4083,179.78,1.69189,-156.028,340
1567593982,400.608,-177.254,-16.4083,179.78,1.69189,-156.028,340
1567593982,400.608,-177.254,-16.4083,179.78,1.69189,-156.028,340
1567593982,400.608,-177.366,-16.4083,179.78,1.69189,-156.028,340
1567593982,400.608,-177.366,-16.4083,179.758,1.66992,-156.028,344
1567593982,400.608,-177.366,-16.4083,179.758,1.66992,-156.028,344
1567593982,400.608,-177.366,-16.4083,179.758,1.66992,-156.028,344
1567593982,400.608,-177.366,-16.4083,179.758,1.66992,-156.028,344
1567593982,400.608,-177.366,-16.5199,179.758,1.66992,-156.006,344
1567593982,400.608,-177.366,-16.4083,179.758,1.66992,-156.006,344
1567593982,400.608,-177.366,-16.4083,179.758,1.66992,-156.006,344
1567593982,400.608,-177.478,-16.4083,179.758,1.66992,-156.006,344
1567593982,400.608,-177.478,-16.4083,179.758,1.66992,-156.006,344
1567593982,400.608,-177.478,-16.4083,179.758,1.66992,-156.006,344
1567593982,400.608,-177.478,-16.4083,179.758,1.66992,-156.006,344
1567593982,400.72,-177.478,-16.4083,179.758,1.69189,-156.006,344
1567593982,400.72,-177.478,-16.4083,179.758,1.69189,-156.006,344
1567593982,400.72,-177.478,-16.4083,179.758,1.69189,-156.006,344
1567593982,400.72,-177.478,-16.4083,179.758,1.69189,-156.006,344
1567593982,400.72,-177.478,-16.5199,179.758,1.66992,-156.006,344
1567593982,400.72,-177.478,-16.5199,179.758,1.66992,-156.006,344
1567593982,400.72,-177.478,-16.5199,179.758,1.66992,-156.006,344
1567593982,400.608,-177.478,-16.5199,179.758,1.66992,-156.006,344
1567593982,400.608,-177.478,-16.5199,179.758,1.66992,-156.006,344
1567593982,400.608,-177.478,-16.5199,179.758,1.66992,-156.028,344
1567593982,400.608,-177.478,-16.5199,179.758,1.64795,-156.028,344
1567593982,400.608,-177.478,-16.5199,179.758,1.64795,-156.028,344
1567593982,400.608,-177.478,-16.6315,179.758,1.64795,-156.028,340
1567593982,400.608,-177.478,-16.6315,179.758,1.64795,-156.028,340
1567593982,400.608,-177.478,-16.6315,179.758,1.64795,-156.028,336
1567593982,400.608,-177.478,-16.6315,179.758,1.62598,-156.028,336
1567593982,400.608,-177.478,-16.6315,179.736,1.62598,-156.028,332
1567593982,400.608,-177.478,-16.6315,179.736,1.62598,-156.028,332
1567593982,400.608,-177.478,-16.6315,179.736,1.62598,-156.028,332
1567593982,400.608,-177.478,-16.6315,179.736,1.62598,-156.028,328
1567593982,400.608,-177.478,-16.6315,179.736,1.62598,-156.028,328
1567593982,400.608,-177.478,-16.6315,179.736,1.62598,-156.028,328
1567593982,400.608,-177.478,-16.6315,179.736,1.64795,-156.028,328
1567593982,400.608,-177.589,-16.6315,179.736,1.64795,-156.028,328
1567593982,400.608,-177.589,-16.6315,179.736,1.64795,-156.028,328
1567593982,400.608,-177.589,-16.6315,179.736,1.64795,-156.028,328
1567593982,400.608,-177.589,-16.6315,179.736,1.64795,-156.028,328
1567593982,400.608,-177.589,-16.6315,179.714,1.64795,-156.028,328
1567593982,400.608,-177.589,-16.6315,179.714,1.64795,-156.028,328
1567593982,400.608,-177.589,-16.5199,179.714,1.64795,-156.028,328
1567593982,400.608,-177.589,-16.5199,179.714,1.66992,-156.028,328
1567593982,400.608,-177.589,-16.5199,179.714,1.66992,-156.028,324
1567593982,400.608,-177.589,-16.5199,179.714,1.66992,-156.028,324
1567593982,400.608,-177.589,-16.5199,179.714,1.66992,-156.028,324
1567593982,400.608,-177.589,-16.5199,179.714,1.66992,-156.028,324
1567593982,400.608,-177.589,-16.4083,179.714,1.66992,-156.028,324
1567593982,400.608,-177.589,-16.4083,179.736,1.69189,-156.028,324
1567593982,400.608,-177.589,-16.4083,179.736,1.69189,-156.028,324
1567593982,400.72,-177.589,-16.4083,179.736,1.69189,-156.028,324
1567593982,400.72,-177.589,-16.4083,179.736,1.69189,-156.028,324
1567593982,400.72,-177.589,-16.4083,179.736,1.69189,-156.028,324
1567593982,400.72,-177.589,-16.4083,179.736,1.69189,-156.028,324
1567593982,400.72,-177.478,-16.4083,179.758,1.71387,-156.028,324
1567593982,400.72,-177.478,-16.4083,179.758,1.69189,-156.028,324
1567593982,400.72,-177.478,-16.4083,179.758,1.69189,-156.028,320
1567593982,400.72,-177.478,-16.4083,179.758,1.69189,-156.028,320
1567593982,400.72,-177.478,-16.4083,179.758,1.69189,-156.028,320
1567593982,400.72,-177.478,-16.4083,179.758,1.69189,-156.028,320
1567593982,400.72,-177.478,-16.4083,179.758,1.69189,-156.028,320
1567593982,400.72,-177.478,-16.4083,179.758,1.69189,-156.006,316
1567593982,400.72,-177.478,-16.4083,179.758,1.69189,-156.006,316
1567593982,400.608,-177.478,-16.4083,179.758,1.69189,-156.006,316
1567593983,400.608,-177.478,-16.4083,179.758,1.69189,-156.006,316
1567593983,400.608,-177.478,-16.4083,179.758,1.66992,-156.006,316
1567593983,400.608,-177.478,-16.4083,179.758,1.66992,-156.006,316
1567593983,400.608,-177.478,-16.4083,179.758,1.66992,-156.006,316
1567593983,400.608,-177.478,-16.4083,179.758,1.66992,-156.006,316
1567593983,400.608,-177.478,-16.5199,179.758,1.66992,-156.006,316
1567593983,400.608,-177.478,-16.5199,179.758,1.64795,-156.006,316
1567593983,400.608,-177.478,-16.5199,179.758,1.64795,-156.006,312
1567593983,400.608,-177.478,-16.5199,179.758,1.64795,-156.006,312
1567593983,400.608,-177.478,-16.5199,179.758,1.64795,-156.006,312
1567593983,400.608,-177.478,-16.5199,179.758,1.64795,-156.006,312
1567593983,400.608,-177.478,-16.5199,179.758,1.64795,-156.006,312
1567593983,400.608,-177.478,-16.5199,179.758,1.64795,-156.006,312
1567593983,400.608,-177.478,-16.5199,179.758,1.64795,-156.006,312
1567593983,400.608,-177.478,-16.5199,179.758,1.64795,-156.006,312
1567593983,400.608,-177.478,-16.5199,179.736,1.64795,-156.006,312
1567593983,400.608,-177.478,-16.5199,179.736,1.64795,-156.006,312
1567593983,400.608,-177.478,-16.5199,179.736,1.66992,-156.028,312
1567593983,400.608,-177.478,-16.5199,179.736,1.66992,-156.028,312
1567593983,400.608,-177.478,-16.5199,179.736,1.66992,-156.028,312
1567593983,400.608,-177.478,-16.5199,179.736,1.66992,-156.028,312
1567593983,400.608,-177.478,-16.5199,179.736,1.66992,-156.028,312
1567593983,400.608,-177.478,-16.5199,179.736,1.69189,-156.028,308
1567593983,400.608,-177.589,-16.4083,179.736,1.69189,-156.028,308
1567593983,400.608,-177.589,-16.4083,179.736,1.69189,-156.028,308
1567593983,400.608,-177.589,-16.4083,179.736,1.69189,-156.028,308
1567593983,400.608,-177.589,-16.4083,179.736,1.69189,-156.028,308
1567593983,400.608,-177.589,-16.4083,179.736,1.69189,-156.028,308
1567593983,400.608,-177.589,-16.4083,179.736,1.69189,-156.028,308
1567593983,400.608,-177.589,-16.4083,179.736,1.69189,-156.028,308
1567593983,400.608,-177.589,-16.4083,179.736,1.69189,-156.028,308
1567593983,400.608,-177.589,-16.4083,179.736,1.71387,-156.028,308
1567593983,400.608,-177.589,-16.4083,179.736,1.71387,-156.028,308
1567593983,400.608,-177.589,-16.4083,179.736,1.69189,-156.028,308
1567593983,400.608,-177.589,-16.4083,179.736,1.69189,-156.028,308
1567593983,400.608,-177.589,-16.4083,179.736,1.69189,-156.05,308
1567593983,400.72,-177.589,-16.4083,179.758,1.71387,-156.05,308
1567593983,400.72,-177.589,-16.4083,179.758,1.71387,-156.05,308
1567593983,400.72,-177.589,-16.4083,179.758,1.71387,-156.05,308
1567593983,400.72,-177.589,-16.4083,179.758,1.71387,-156.05,308
1567593983,400.72,-177.589,-16.4083,179.758,1.71387,-156.05,308
1567593983,400.72,-177.589,-16.4083,179.758,1.71387,-156.05,308
1567593983,400.72,-177.589,-16.4083,179.758,1.71387,-156.05,308
1567593983,400.72,-177.589,-16.4083,179.736,1.71387,-156.05,308
1567593983,400.72,-177.589,-16.4083,179.736,1.71387,-156.05,308
1567593983,400.72,-177.589,-16.4083,179.736,1.71387,-156.05,308
1567593983,400.72,-177.589,-16.4083,179.736,1.71387,-156.05,308
1567593983,400.72,-177.589,-16.4083,179.736,1.69189,-156.028,308
1567593983,400.72,-177.589,-16.4083,179.736,1.69189,-156.028,304
1567593983,400.72,-177.589,-16.4083,179.758,1.69189,-156.028,304
1567593983,400.72,-177.589,-16.4083,179.758,1.69189,-156.028,304
1567593983,400.72,-177.589,-16.4083,179.758,1.69189,-156.028,304
1567593983,400.72,-177.478,-16.5199,179.758,1.69189,-156.028,304
1567593983,400.72,-177.478,-16.5199,179.758,1.69189,-156.028,304
1567593983,400.72,-177.478,-16.5199,179.758,1.69189,-156.028,304
1567593983,400.72,-177.478,-16.5199,179.758,1.69189,-156.028,304
1567593983,400.72,-177.478,-16.4083,179.758,1.69189,-156.028,304
1567593983,400.72,-177.478,-16.4083,179.758,1.69189,-156.028,304
1567593983,400.72,-177.478,-16.5199,179.758,1.69189,-156.028,304
1567593983,400.72,-177.478,-16.5199,179.758,1.69189,-156.028,304
1567593983,400.72,-177.478,-16.5199,179.758,1.69189,-156.05,304
1567593983,400.72,-177.478,-16.5199,179.758,1.69189,-156.05,308
1567593983,400.72,-177.478,-16.5199,179.736,1.69189,-156.05,308
1567593983,400.608,-177.478,-16.5199,179.736,1.69189,-156.05,312
1567593983,400.608,-177.478,-16.5199,179.736,1.69189,-156.05,312
1567593983,400.608,-177.478,-16.5199,179.736,1.66992,-156.05,316
1567593983,400.608,-177.478,-16.5199,179.736,1.66992,-156.05,316
1567593983,400.608,-177.478,-16.5199,179.736,1.66992,-156.05,320
1567593983,400.608,-177.478,-16.5199,179.736,1.66992,-156.05,320
1567593983,400.608,-177.478,-16.5199,179.736,1.66992,-156.05,324
1567593983,400.608,-177.478,-16.5199,179.736,1.66992,-156.05,328
1567593983,400.608,-177.478,-16.5199,179.736,1.64795,-156.05,328
1567593983,400.608,-177.478,-16.5199,179.758,1.64795,-156.05,328
1567593983,400.608,-177.478,-16.5199,179.758,1.64795,-156.05,332
1567593983,400.72,-177.478,-16.6315,179.758,1.64795,-156.05,332
1567593983,400.72,-177.478,-16.6315,179.758,1.64795,-156.05,332
1567593983,400.72,-177.366,-16.6315,179.78,1.64795,-156.05,332
1567593983,400.72,-177.366,-16.5199,179.78,1.64795,-156.05,336
1567593983,400.72,-177.366,-16.5199,179.78,1.64795,-156.028,332
1567593983,400.72,-177.366,-16.5199,179.78,1.66992,-156.028,332
1567593983,400.72,-177.366,-16.5199,179.78,1.66992,-156.028,332
1567593983,400.72,-177.366,-16.5199,179.78,1.66992,-156.028,332
1567593983,400.72,-177.366,-16.5199,179.78,1.66992,-156.028,332
1567593983,400.72,-177.366,-16.5199,179.78,1.66992,-156.006,332
1567593983,400.72,-177.366,-16.4083,179.758,1.66992,-156.006,332
1567593983,400.72,-177.366,-16.4083,179.758,1.69189,-156.006,328
1567593983,400.72,-177.366,-16.4083,179.758,1.69189,-156.006,328
1567593983,400.72,-177.478,-16.4083,179.758,1.69189,-156.006,328
1567593983,400.72,-177.478,-16.4083,179.758,1.69189,-156.006,328
1567593983,400.72,-177.478,-16.4083,179.758,1.69189,-156.006,328
1567593983,400.72,-177.478,-16.4083,179.758,1.69189,-156.006,328
1567593983,400.72,-177.478,-16.4083,179.758,1.69189,-156.006,328
1567593994,385.093,-161.069,-16.1851,179.714,1.82373,-156.555,300
1567593994,385.093,-161.069,-16.1851,179.714,1.82373,-156.555,300
1567593994,385.093,-161.069,-16.1851,179.714,1.82373,-156.555,300
1567593994,385.093,-160.958,-16.1851,179.736,1.82373,-156.555,300
1567593994,385.093,-160.958,-16.1851,179.736,1.82373,-156.555,300
1567593994,385.093,-161.069,-16.1851,179.736,1.80176,-156.555,300
1567593994,385.093,-161.069,-16.1851,179.714,1.80176,-156.555,300
1567593994,385.093,-161.069,-16.2967,179.714,1.80176,-156.555,300
1567593994,385.093,-161.069,-16.2967,179.714,1.80176,-156.555,300
1567593994,385.093,-161.069,-16.2967,179.714,1.80176,-156.555,300
1567593994,385.093,-161.069,-16.2967,179.714,1.80176,-156.555,296
1567593994,385.093,-161.069,-16.2967,179.714,1.80176,-156.533,296
1567593994,385.093,-161.069,-16.2967,179.714,1.80176,-156.533,296
1567593994,385.093,-161.069,-16.2967,179.714,1.80176,-156.533,296
1567593994,385.093,-161.069,-16.2967,179.714,1.80176,-156.533,296
1567593994,385.093,-161.069,-16.2967,179.714,1.80176,-156.533,292
1567593994,385.093,-161.069,-16.2967,179.714,1.80176,-156.533,292
1567593994,385.204,-161.069,-16.2967,179.714,1.80176,-156.533,292
1567593994,385.204,-161.069,-16.2967,179.736,1.80176,-156.533,292
1567593994,385.204,-161.069,-16.2967,179.736,1.80176,-156.533,288
1567593994,385.204,-161.069,-16.2967,179.736,1.80176,-156.533,288
1567593994,385.204,-161.069,-16.2967,179.736,1.80176,-156.533,288
1567593994,385.204,-161.069,-16.2967,179.736,1.80176,-156.533,288
1567593994,385.204,-161.069,-16.2967,179.736,1.80176,-156.533,288
1567593994,385.204,-161.069,-16.2967,179.736,1.80176,-156.533,292
1567593994,385.204,-161.069,-16.2967,179.736,1.80176,-156.533,292
1567593994,385.204,-161.069,-16.2967,179.736,1.80176,-156.533,292
1567593994,385.204,-161.069,-16.2967,179.736,1.82373,-156.533,292
1567593994,385.204,-161.069,-16.2967,179.736,1.82373,-156.533,292
1567593994,385.204,-161.069,-16.2967,179.736,1.82373,-156.533,292
1567593994,385.204,-161.069,-16.2967,179.736,1.82373,-156.533,292
1567593994,385.204,-161.069,-16.2967,179.736,1.80176,-156.533,296
1567593994,385.204,-161.069,-16.2967,179.736,1.80176,-156.533,296
1567593994,385.204,-161.069,-16.2967,179.736,1.80176,-156.533,296
1567593994,385.204,-161.069,-16.2967,179.736,1.80176,-156.533,296
1567593994,385.204,-161.069,-16.2967,179.736,1.80176,-156.533,296
1567593994,385.204,-161.069,-16.2967,179.736,1.80176,-156.533,300
1567593995,385.204,-161.069,-16.2967,179.736,1.80176,-156.533,300
1567593995,385.204,-161.069,-16.2967,179.736,1.80176,-156.533,300
1567593995,385.204,-161.069,-16.2967,179.736,1.80176,-156.533,304
1567593995,385.204,-161.069,-16.2967,179.736,1.80176,-156.533,304
1567593995,385.204,-161.069,-16.2967,179.736,1.80176,-156.533,308
1567593995,385.204,-161.069,-16.2967,179.736,1.80176,-156.533,308
1567593995,385.204,-161.069,-16.2967,179.736,1.80176,-156.533,308
1567593995,385.204,-161.069,-16.2967,179.736,1.80176,-156.533,312
1567593995,385.204,-161.069,-16.2967,179.736,1.80176,-156.511,312
1567593995,385.204,-161.069,-16.2967,179.736,1.80176,-156.511,312
1567593995,385.204,-161.069,-16.2967,179.736,1.80176,-156.511,312
1567593995,385.204,-161.069,-16.2967,179.736,1.80176,-156.511,316
1567593995,385.204,-161.069,-16.2967,179.736,1.82373,-156.511,316
1567593995,385.204,-161.069,-16.2967,179.736,1.82373,-156.511,316
1567593995,385.204,-161.069,-16.2967,179.714,1.82373,-156.511,316
1567593995,385.204,-161.069,-16.2967,179.736,1.82373,-156.511,316
1567593995,385.204,-161.069,-16.2967,179.736,1.82373,-156.511,316
1567593995,385.204,-161.069,-16.1851,179.736,1.82373,-156.511,316
1567593995,385.204,-161.069,-16.1851,179.736,1.82373,-156.511,316
1567593995,385.204,-161.069,-16.1851,179.736,1.82373,-156.511,316
1567593995,385.204,-161.069,-16.1851,179.736,1.82373,-156.511,316
1567593995,385.204,-161.069,-16.1851,179.736,1.82373,-156.511,316
1567593995,385.204,-161.069,-16.1851,179.736,1.82373,-156.511,316
1567593995,385.204,-161.069,-16.1851,179.736,1.82373,-156.511,312
1567593995,385.204,-161.069,-16.2967,179.736,1.82373,-156.511,312
1567593995,385.204,-161.069,-16.2967,179.736,1.80176,-156.511,312
1567593995,385.204,-161.069,-16.2967,179.736,1.80176,-156.511,308
1567593995,385.204,-161.069,-16.2967,179.736,1.80176,-156.511,308
1567593995,385.204,-161.069,-16.2967,179.736,1.80176,-156.511,304
1567593995,385.204,-160.958,-16.2967,179.736,1.80176,-156.511,304
1567593995,385.204,-160.958,-16.2967,179.736,1.80176,-156.533,304
1567593995,385.204,-160.958,-16.2967,179.736,1.80176,-156.533,300
1567593995,385.204,-160.958,-16.2967,179.736,1.80176,-156.533,300
1567593995,385.204,-160.958,-16.2967,179.736,1.80176,-156.533,300
1567593995,385.204,-160.958,-16.2967,179.736,1.80176,-156.533,296
1567593995,385.204,-160.958,-16.2967,179.758,1.77979,-156.533,296
1567593995,385.204,-160.958,-16.2967,179.758,1.77979,-156.533,292
1567593995,385.204,-160.958,-16.2967,179.758,1.77979,-156.533,292
1567593995,385.316,-160.958,-16.4083,179.758,1.77979,-156.533,292
1567593995,385.316,-160.958,-16.4083,179.758,1.77979,-156.533,288
1567593995,385.316,-160.958,-16.4083,179.758,1.77979,-156.533,288
1567593995,385.316,-160.958,-16.4083,179.758,1.77979,-156.555,288
1567593995,385.316,-160.958,-16.4083,179.758,1.77979,-156.555,288
1567593995,385.316,-160.958,-16.4083,179.758,1.77979,-156.555,288
1567593995,385.316,-160.958,-16.4083,179.758,1.77979,-156.555,288
1567593995,385.316,-160.958,-16.4083,179.758,1.77979,-156.555,288
1567593995,385.316,-160.958,-16.4083,179.758,1.77979,-156.555,288
1567593995,385.316,-160.958,-16.4083,179.758,1.77979,-156.555,288
1567593995,385.316,-160.958,-16.4083,179.758,1.77979,-156.555,292
1567593995,385.316,-160.958,-16.4083,179.758,1.77979,-156.555,292
1567593995,385.316,-160.958,-16.4083,179.758,1.77979,-156.555,292
1567593995,385.316,-160.958,-16.4083,179.758,1.77979,-156.555,292
1567593995,385.316,-160.958,-16.4083,179.758,1.77979,-156.555,292
1567593995,385.316,-160.958,-16.4083,179.758,1.77979,-156.555,292
1567593995,385.316,-160.958,-16.4083,179.758,1.77979,-156.555,292
1567593995,385.316,-160.958,-16.4083,179.758,1.77979,-156.555,292
1567593995,385.316,-160.958,-16.4083,179.758,1.77979,-156.555,292
1567593995,385.316,-160.846,-16.2967,179.758,1.80176,-156.555,292
1567593995,385.316,-160.846,-16.2967,179.78,1.80176,-156.555,292
1567593995,385.316,-160.846,-16.2967,179.78,1.80176,-156.555,292
1567593995,385.204,-160.846,-16.2967,179.78,1.80176,-156.555,296
1567593995,385.204,-160.846,-16.2967,179.78,1.80176,-156.555,296
1567593995,385.204,-160.846,-16.2967,179.78,1.80176,-156.555,296
1567593995,385.204,-160.846,-16.2967,179.78,1.80176,-156.555,300
1567593995,385.204,-160.846,-16.2967,179.78,1.82373,-156.555,300
1567593995,385.204,-160.846,-16.2967,179.78,1.82373,-156.555,300
1567593995,385.204,-160.846,-16.2967,179.78,1.82373,-156.555,304
1567593995,385.204,-160.846,-16.2967,179.78,1.82373,-156.555,304
1567593995,385.204,-160.846,-16.2967,179.78,1.82373,-156.555,308
1567593995,385.204,-160.846,-16.2967,179.78,1.82373,-156.555,308
1567593995,385.204,-160.846,-16.2967,179.78,1.82373,-156.555,308
1567593995,385.204,-160.846,-16.2967,179.78,1.82373,-156.555,312
1567593995,385.204,-160.846,-16.2967,179.78,1.82373,-156.555,312
1567593995,385.204,-160.958,-16.2967,179.758,1.82373,-156.555,312
1567593995,385.204,-160.958,-16.2967,179.758,1.82373,-156.555,312
1567593995,385.204,-160.958,-16.2967,179.758,1.82373,-156.555,312
1567593995,385.204,-160.958,-16.2967,179.758,1.80176,-156.555,312
1567593995,385.204,-160.958,-16.2967,179.758,1.80176,-156.555,312
1567593995,385.204,-160.958,-16.2967,179.736,1.80176,-156.533,308
1567593995,385.204,-160.958,-16.2967,179.736,1.80176,-156.533,308
1567593995,385.204,-161.069,-16.2967,179.736,1.80176,-156.533,308
1567593995,385.204,-161.069,-16.2967,179.736,1.80176,-156.533,308
1567593995,385.204,-161.069,-16.2967,179.736,1.80176,-156.533,308
1567593995,385.204,-161.069,-16.2967,179.736,1.80176,-156.533,308
1567593995,385.204,-161.069,-16.2967,179.736,1.80176,-156.533,304
1567593995,385.204,-160.958,-16.2967,179.736,1.80176,-156.533,304
1567593995,385.204,-160.958,-16.2967,179.736,1.80176,-156.533,304
1567593995,385.204,-160.958,-16.2967,179.736,1.82373,-156.533,304
1567593995,385.204,-160.958,-16.2967,179.736,1.82373,-156.533,304
1567593995,385.204,-160.958,-16.2967,179.736,1.82373,-156.533,304
1567593995,385.204,-160.958,-16.1851,179.736,1.82373,-156.533,304
1567593995,385.204,-160.958,-16.1851,179.736,1.82373,-156.533,304
1567593995,385.204,-160.958,-16.1851,179.736,1.82373,-156.533,304
1567593995,385.204,-160.958,-16.1851,179.736,1.8457,-156.533,304
1567593995,385.204,-160.958,-16.1851,179.736,1.8457,-156.533,304
1567593995,385.204,-160.958,-16.1851,179.736,1.8457,-156.533,304
1567593995,385.204,-160.958,-16.1851,179.736,1.8457,-156.533,304
1567593995,385.204,-160.958,-16.1851,179.736,1.8457,-156.533,304
1567593995,385.204,-160.958,-16.1851,179.736,1.8457,-156.533,304
1567593995,385.204,-160.958,-16.1851,179.736,1.8457,-156.533,304
1567593996,385.204,-161.069,-16.1851,179.736,1.8457,-156.533,304
1567593996,385.204,-161.069,-16.1851,179.736,1.8457,-156.533,304
1567593996,385.204,-161.069,-16.1851,179.736,1.8457,-156.533,304
1567593996,385.204,-161.069,-16.1851,179.736,1.82373,-156.533,304
1567593996,385.093,-161.069,-16.1851,179.736,1.82373,-156.533,304
1567593996,385.093,-161.069,-16.1851,179.714,1.82373,-156.533,304
1567593996,385.093,-161.069,-16.2967,179.714,1.82373,-156.533,304
1567593996,385.093,-161.069,-16.2967,179.714,1.82373,-156.533,304
1567593996,385.093,-161.069,-16.2967,179.714,1.80176,-156.533,304
1567593996,385.093,-161.069,-16.2967,179.714,1.80176,-156.533,304
1567593996,385.204,-161.069,-16.2967,179.714,1.80176,-156.533,300
1567593996,385.204,-161.069,-16.4083,179.714,1.80176,-156.533,300
1567593996,385.204,-161.069,-16.4083,179.714,1.80176,-156.533,300
1567593996,385.204,-161.069,-16.4083,179.714,1.77979,-156.533,300
1567593996,385.204,-161.069,-16.4083,179.714,1.77979,-156.533,300
1567593996,385.204,-161.069,-16.4083,179.714,1.80176,-156.533,296
1567593996,385.204,-161.069,-16.4083,179.714,1.80176,-156.533,296
1567593996,385.204,-161.069,-16.4083,179.714,1.80176,-156.533,296
1567593996,385.093,-161.069,-16.4083,179.714,1.80176,-156.533,296
1567593996,385.093,-161.069,-16.4083,179.714,1.80176,-156.533,296
1567593996,385.093,-161.069,-16.2967,179.714,1.80176,-156.533,296
1567593996,385.093,-161.069,-16.2967,179.714,1.80176,-156.533,296
1567593996,385.093,-161.069,-16.2967,179.714,1.80176,-156.533,296
1567593996,385.093,-161.069,-16.2967,179.714,1.80176,-156.533,296
1567593996,385.093,-161.069,-16.2967,179.714,1.80176,-156.533,296
1567593996,385.093,-161.069,-16.2967,179.714,1.80176,-156.533,296
1567593996,385.093,-161.069,-16.2967,179.714,1.80176,-156.533,296
1567593996,385.093,-161.069,-16.2967,179.714,1.80176,-156.533,296
1567593996,385.093,-161.069,-16.2967,179.714,1.80176,-156.533,296
1567593996,385.093,-161.069,-16.2967,179.714,1.80176,-156.533,296
1567593996,385.093,-161.069,-16.2967,179.714,1.80176,-156.533,300
1567593996,385.093,-161.181,-16.2967,179.714,1.80176,-156.533,300
1567593996,385.204,-161.181,-16.2967,179.714,1.82373,-156.533,300
1567593996,385.204,-161.181,-16.2967,179.714,1.82373,-156.533,300
1567593996,385.204,-161.181,-16.1851,179.714,1.82373,-156.533,300
1567593996,385.204,-161.181,-16.1851,179.714,1.82373,-156.533,304
1567593996,385.204,-161.181,-16.1851,179.714,1.82373,-156.533,304
1567593996,385.204,-161.181,-16.1851,179.714,1.82373,-156.533,304
1567593996,385.093,-161.181,-16.1851,179.714,1.82373,-156.533,304
1567593996,385.093,-161.069,-16.1851,179.714,1.82373,-156.533,308
1567593996,385.093,-161.069,-16.1851,179.714,1.82373,-156.533,308
1567593996,385.093,-161.069,-16.1851,179.714,1.8457,-156.533,308
1567593996,385.093,-161.069,-16.1851,179.714,1.8457,-156.533,312
1567593996,385.093,-161.069,-16.1851,179.736,1.8457,-156.533,312
1567593996,385.093,-161.069,-16.1851,179.736,1.8457,-156.533,312
1567593996,385.093,-161.069,-16.1851,179.736,1.8457,-156.511,316
1567593996,385.093,-161.069,-16.1851,179.736,1.8457,-156.511,316
1567593996,385.093,-161.069,-16.1851,179.736,1.8457,-156.511,316
1567593996,385.204,-161.069,-16.1851,179.736,1.82373,-156.511,316
1567593996,385.204,-161.069,-16.1851,179.736,1.82373,-156.511,316
1567593996,385.204,-161.069,-16.1851,179.736,1.82373,-156.511,316
1567593996,385.204,-160.958,-16.2967,179.736,1.82373,-156.511,320
1567593996,385.204,-160.958,-16.2967,179.736,1.82373,-156.511,320
1567593996,385.204,-160.958,-16.2967,179.736,1.80176,-156.511,320
1567593996,385.204,-160.958,-16.2967,179.736,1.80176,-156.511,320
1567593996,385.204,-160.958,-16.2967,179.736,1.80176,-156.511,316
1567593996,385.204,-160.958,-16.2967,179.736,1.80176,-156.511,316
1567593996,385.204,-160.958,-16.2967,179.736,1.80176,-156.511,316
1567593996,385.204,-160.958,-16.2967,179.736,1.80176,-156.511,316
1567593996,385.204,-160.958,-16.2967,179.736,1.80176,-156.511,316
1567593996,385.204,-160.958,-16.2967,179.736,1.80176,-156.511,312
1567593996,385.204,-160.958,-16.2967,179.736,1.80176,-156.511,312
1567593996,385.204,-160.958,-16.2967,179.736,1.77979,-156.511,312
1567593996,385.204,-160.958,-16.2967,179.736,1.77979,-156.511,312
1567593996,385.204,-160.958,-16.2967,179.736,1.77979,-156.533,312
1567593996,385.204,-160.958,-16.2967,179.736,1.77979,-156.533,312
1567593996,385.204,-160.958,-16.2967,179.736,1.77979,-156.533,312
1567593996,385.204,-160.958,-16.2967,179.736,1.77979,-156.533,308
1567593996,385.204,-160.958,-16.4083,179.736,1.77979,-156.533,308
1567593996,385.204,-160.958,-16.4083,179.736,1.77979,-156.533,308
1567593996,385.204,-160.958,-16.4083,179.736,1.77979,-156.533,308
1567593996,385.204,-160.958,-16.4083,179.736,1.77979,-156.533,308
1567593996,385.204,-160.958,-16.4083,179.736,1.75781,-156.533,308
1567593996,385.204,-160.958,-16.4083,179.736,1.75781,-156.533,308
1567593996,385.204,-160.958,-16.4083,179.736,1.75781,-156.533,308
1567593996,385.093,-160.958,-16.4083,179.736,1.75781,-156.533,308
1567593996,385.093,-160.958,-16.4083,179.714,1.75781,-156.533,308
1567593996,385.093,-160.958,-16.4083,179.714,1.77979,-156.533,308
1567593996,385.093,-160.958,-16.4083,179.714,1.77979,-156.533,308
1567593996,385.093,-161.069,-16.4083,179.714,1.77979,-156.533,308
1567593996,385.093,-161.069,-16.4083,179.714,1.77979,-156.533,308
1567593996,385.093,-161.069,-16.4083,179.714,1.77979,-156.533,308
1567593996,385.093,-161.069,-16.4083,179.714,1.77979,-156.533,304
1567593996,385.093,-161.069,-16.4083,179.714,1.77979,-156.533,304
1567593996,385.093,-161.069,-16.4083,179.714,1.77979,-156.533,304
1567593996,385.093,-161.069,-16.2967,179.714,1.77979,-156.533,304
1567593996,385.093,-161.069,-16.2967,179.714,1.77979,-156.533,304
1567593996,385.093,-161.069,-16.2967,179.714,1.77979,-156.555,300
1567593996,385.093,-161.069,-16.2967,179.714,1.80176,-156.555,300
1567593996,385.093,-161.069,-16.2967,179.714,1.80176,-156.555,300
1567593996,385.093,-161.069,-16.2967,179.714,1.80176,-156.555,300
1567593996,385.093,-161.069,-16.2967,179.714,1.80176,-156.555,300
1567593996,385.093,-161.069,-16.2967,179.714,1.80176,-156.555,300
1567593996,385.093,-161.069,-16.1851,179.714,1.82373,-156.555,300
1567593996,385.093,-161.069,-16.1851,179.714,1.82373,-156.555,300
1567593996,385.093,-161.069,-16.1851,179.714,1.82373,-156.555,300
1567593996,385.093,-161.069,-16.1851,179.714,1.8457,-156.555,300
1567593996,385.093,-161.069,-16.1851,179.736,1.8457,-156.555,304
1567593996,385.093,-160.958,-16.1851,179.714,1.8457,-156.555,304
1567593996,385.093,-160.958,-16.1851,179.714,1.8457,-156.555,304
1567593997,385.093,-160.958,-16.1851,179.714,1.8457,-156.555,308
1567593997,385.093,-160.958,-16.1851,179.714,1.8457,-156.555,308
1567593997,385.093,-161.069,-16.1851,179.714,1.8457,-156.555,312
1567593997,385.093,-161.069,-16.1851,179.714,1.8457,-156.555,312
1567593997,385.093,-161.069,-16.1851,179.714,1.8457,-156.555,312
1567593997,385.093,-161.069,-16.1851,179.714,1.82373,-156.555,316
1567593997,385.093,-161.069,-16.1851,179.714,1.82373,-156.555,316
1567593997,385.093,-161.069,-16.1851,179.714,1.82373,-156.555,320
1567593997,385.093,-161.069,-16.2967,179.714,1.80176,-156.555,320
1567593997,385.204,-161.069,-16.2967,179.714,1.80176,-156.555,320
1567593997,385.204,-161.069,-16.2967,179.714,1.80176,-156.555,320
1567593997,385.204,-161.069,-16.2967,179.736,1.80176,-156.555,320
1567593997,385.204,-161.069,-16.2967,179.736,1.80176,-156.555,320
1567593997,385.204,-161.069,-16.2967,179.736,1.80176,-156.555,320
1567593997,385.316,-161.069,-16.2967,179.736,1.80176,-156.555,320
1567593997,385.316,-161.069,-16.2967,179.736,1.80176,-156.555,320
1567593997,385.316,-161.069,-16.2967,179.736,1.82373,-156.555,316
1567593997,385.316,-161.069,-16.2967,179.736,1.82373,-156.555,316
1567593997,385.316,-161.069,-16.2967,179.736,1.82373,-156.555,316
1567593997,385.316,-161.069,-16.1851,179.736,1.82373,-156.555,316
1567593997,385.316,-161.069,-16.1851,179.736,1.82373,-156.555,316
1567593997,385.316,-161.069,-16.1851,179.736,1.82373,-156.555,316
1567593997,385.316,-161.069,-16.1851,179.736,1.82373,-156.533,316
1567593997,385.316,-161.069,-16.1851,179.736,1.82373,-156.533,316
1567593997,385.316,-161.069,-16.1851,179.736,1.82373,-156.533,316
1567593997,385.204,-161.069,-16.1851,179.736,1.82373,-156.533,316
1567593997,385.204,-161.069,-16.1851,179.736,1.82373,-156.533,316
1567593997,385.204,-161.069,-16.1851,179.736,1.82373,-156.533,316
1567593997,385.204,-161.069,-16.1851,179.736,1.82373,-156.533,316
1567593997,385.204,-161.069,-16.2967,179.736,1.82373,-156.533,316
1567593997,385.204,-161.069,-16.2967,179.714,1.82373,-156.533,316
1567593997,385.204,-161.069,-16.2967,179.714,1.82373,-156.533,316
1567593997,385.204,-161.069,-16.2967,179.714,1.82373,-156.555,316
1567593997,385.204,-161.069,-16.2967,179.714,1.82373,-156.555,316
1567593997,385.204,-161.069,-16.2967,179.714,1.82373,-156.555,316
1567593997,385.204,-161.069,-16.2967,179.714,1.82373,-156.555,316
1567593997,385.204,-161.069,-16.2967,179.714,1.82373,-156.555,316
1567593997,385.204,-161.069,-16.2967,179.714,1.82373,-156.555,316
1567593997,385.093,-161.069,-16.2967,179.714,1.82373,-156.555,316
1567593997,385.093,-161.069,-16.2967,179.714,1.82373,-156.555,316
1567593997,385.093,-161.069,-16.2967,179.714,1.82373,-156.555,316
1567593997,385.093,-161.069,-16.2967,179.714,1.82373,-156.555,316
1567593997,385.093,-161.069,-16.2967,179.714,1.82373,-156.555,316
1567593997,385.093,-161.069,-16.2967,179.714,1.82373,-156.555,312
1567593997,385.093,-161.069,-16.2967,179.714,1.82373,-156.577,312
1567593997,385.093,-161.069,-16.2967,179.714,1.82373,-156.577,312
1567593997,385.093,-161.069,-16.2967,179.714,1.8457,-156.577,312
1567593997,385.093,-160.958,-16.1851,179.714,1.8457,-156.577,312
1567593997,385.093,-160.958,-16.1851,179.714,1.8457,-156.577,312
1567593997,385.093,-160.958,-16.1851,179.714,1.8457,-156.577,312
1567593997,385.093,-160.958,-16.1851,179.714,1.8457,-156.577,312
1567593997,385.093,-160.958,-16.1851,179.736,1.8457,-156.577,312
1567593997,385.093,-160.958,-16.1851,179.736,1.8457,-156.577,312
1567593997,385.093,-160.958,-16.1851,179.736,1.8457,-156.577,312
1567593997,385.093,-160.958,-16.1851,179.736,1.8457,-156.577,312
1567593997,385.204,-160.958,-16.1851,179.736,1.8457,-156.577,316
1567593997,385.204,-160.958,-16.2967,179.736,1.82373,-156.577,316
1567593997,385.204,-160.958,-16.2967,179.736,1.82373,-156.577,316
1567593997,385.204,-160.958,-16.2967,179.736,1.82373,-156.577,316
1567593997,385.204,-160.958,-16.2967,179.736,1.82373,-156.577,316
1567593997,385.204,-160.958,-16.2967,179.736,1.82373,-156.577,316
1567593997,385.204,-160.958,-16.2967,179.736,1.82373,-156.577,316
1567593997,385.204,-160.958,-16.2967,179.736,1.80176,-156.577,312
1567593997,385.204,-160.958,-16.2967,179.758,1.80176,-156.577,312
1567593997,385.204,-160.958,-16.2967,179.758,1.80176,-156.577,312
1567593997,385.204,-160.958,-16.2967,179.758,1.80176,-156.577,312
1567593997,385.204,-160.958,-16.2967,179.758,1.80176,-156.577,312
1567593997,385.204,-160.958,-16.2967,179.758,1.80176,-156.577,312
1567593997,385.204,-160.958,-16.2967,179.758,1.80176,-156.577,308
1567593997,385.204,-160.958,-16.2967,179.758,1.80176,-156.577,308
1567593997,385.204,-160.958,-16.4083,179.758,1.80176,-156.577,308
1567593997,385.204,-160.958,-16.4083,179.758,1.80176,-156.577,308
1567593997,385.204,-160.958,-16.4083,179.758,1.80176,-156.577,308
1567593997,385.204,-160.958,-16.4083,179.758,1.80176,-156.577,308
1567593997,385.204,-160.958,-16.4083,179.758,1.80176,-156.577,308
1567593997,385.204,-160.958,-16.4083,179.758,1.77979,-156.577,308
1567593997,385.204,-160.958,-16.4083,179.758,1.77979,-156.577,308
1567593997,385.204,-160.958,-16.4083,179.758,1.77979,-156.599,308
1567593997,385.204,-160.958,-16.4083,179.758,1.77979,-156.599,308
1567593997,385.204,-160.958,-16.4083,179.758,1.77979,-156.599,308
1567593997,385.204,-160.958,-16.4083,179.758,1.80176,-156.599,308
1567593997,385.204,-160.958,-16.4083,179.758,1.80176,-156.599,308
1567593997,385.204,-160.958,-16.4083,179.758,1.80176,-156.599,308
1567593997,385.204,-160.958,-16.4083,179.758,1.80176,-156.599,308
1567593997,385.204,-160.958,-16.4083,179.758,1.80176,-156.599,308
1567593997,385.204,-160.958,-16.4083,179.736,1.80176,-156.599,308
1567593997,385.204,-161.069,-16.4083,179.736,1.80176,-156.599,308
1567593997,385.204,-161.069,-16.4083,179.736,1.80176,-156.599,304
1567593997,385.204,-161.069,-16.4083,179.736,1.80176,-156.599,304
1567593997,385.204,-161.069,-16.4083,179.736,1.80176,-156.599,304
1567593997,385.204,-161.069,-16.4083,179.736,1.80176,-156.599,300
1567593997,385.204,-161.069,-16.4083,179.736,1.80176,-156.599,300
1567593997,385.204,-161.069,-16.4083,179.736,1.80176,-156.599,300
1567593997,385.204,-160.958,-16.4083,179.736,1.80176,-156.577,296
1567593997,385.204,-160.958,-16.4083,179.736,1.80176,-156.577,296
1567593997,385.204,-160.958,-16.4083,179.736,1.80176,-156.577,296
1567593997,385.204,-160.958,-16.4083,179.736,1.80176,-156.577,296
1567593997,385.204,-160.958,-16.4083,179.758,1.80176,-156.577,296
1567593997,385.204,-160.958,-16.4083,179.758,1.80176,-156.577,296
1567593997,385.204,-160.958,-16.4083,179.758,1.80176,-156.577,296
1567593998,385.204,-160.958,-16.4083,179.758,1.80176,-156.577,296
1567593998,385.204,-160.958,-16.4083,179.758,1.80176,-156.577,296
1567593998,385.204,-160.958,-16.4083,179.758,1.80176,-156.577,296
1567593998,385.204,-160.958,-16.4083,179.758,1.80176,-156.577,296
1567593998,385.204,-160.958,-16.4083,179.758,1.80176,-156.577,296
1567593998,385.204,-160.958,-16.4083,179.758,1.77979,-156.577,296
1567593998,385.204,-160.958,-16.4083,179.758,1.77979,-156.577,296
1567593998,385.204,-160.958,-16.4083,179.758,1.77979,-156.577,296
1567593998,385.316,-160.958,-16.4083,179.758,1.77979,-156.577,296
1567593998,385.316,-160.958,-16.4083,179.758,1.77979,-156.577,292
1567593998,385.316,-160.958,-16.4083,179.758,1.75781,-156.577,292
1567593998,385.316,-160.958,-16.5199,179.758,1.75781,-156.577,292
1567593998,385.316,-160.958,-16.5199,179.758,1.75781,-156.577,292
1567593998,385.204,-160.958,-16.5199,179.758,1.75781,-156.577,288
1567593998,385.204,-160.958,-16.5199,179.758,1.75781,-156.577,288
1567593998,385.204,-160.958,-16.5199,179.758,1.75781,-156.577,288
1567593998,385.204,-160.958,-16.5199,179.758,1.75781,-156.577,288
1567593998,385.204,-160.958,-16.5199,179.758,1.75781,-156.577,288
1567593998,385.204,-160.958,-16.5199,179.758,1.75781,-156.577,288
1567593998,385.204,-160.958,-16.5199,179.758,1.75781,-156.577,288
1567593998,385.204,-160.958,-16.5199,179.736,1.75781,-156.577,288
1567593998,385.204,-160.958,-16.5199,179.736,1.75781,-156.577,284
1567593998,385.204,-160.958,-16.5199,179.736,1.75781,-156.577,284
1567593998,385.204,-160.958,-16.5199,179.736,1.77979,-156.577,284
1567593998,385.204,-160.958,-16.5199,179.736,1.77979,-156.577,284
1567593998,385.204,-160.958,-16.5199,179.736,1.77979,-156.577,284
1567593998,385.204,-161.069,-16.5199,179.714,1.77979,-156.577,284
1567593998,385.204,-161.069,-16.4083,179.714,1.77979,-156.577,284
1567593998,385.204,-161.069,-16.4083,179.714,1.77979,-156.577,284
1567593998,385.204,-161.069,-16.4083,179.714,1.77979,-156.577,284
1567593998,385.204,-161.069,-16.4083,179.714,1.77979,-156.577,284
1567593998,385.204,-161.069,-16.4083,179.714,1.77979,-156.555,284
1567593998,385.204,-161.069,-16.4083,179.714,1.77979,-156.555,284
1567593998,385.204,-161.069,-16.4083,179.714,1.77979,-156.555,284
1567593998,385.204,-161.069,-16.4083,179.714,1.77979,-156.555,284
1567593998,385.204,-161.069,-16.4083,179.714,1.77979,-156.555,284
1567593998,385.204,-161.069,-16.4083,179.714,1.77979,-156.555,284
1567593998,385.204,-161.069,-16.4083,179.714,1.77979,-156.577,284
1567593998,385.204,-161.069,-16.4083,179.714,1.77979,-156.577,280
1567593998,385.204,-161.069,-16.4083,179.714,1.77979,-156.577,280
1567593998,385.204,-161.069,-16.4083,179.714,1.77979,-156.577,280
1567593998,385.204,-161.069,-16.4083,179.714,1.77979,-156.577,280
1567593998,385.204,-161.069,-16.4083,179.714,1.77979,-156.577,280
1567593998,385.204,-161.069,-16.4083,179.714,1.77979,-156.577,280
1567593998,385.204,-161.069,-16.4083,179.714,1.77979,-156.577,280
1567593998,385.204,-161.069,-16.5199,179.714,1.77979,-156.577,280
1567593998,385.204,-161.069,-16.5199,179.714,1.77979,-156.577,280
1567593998,385.204,-161.069,-16.5199,179.714,1.77979,-156.577,280
1567593998,385.204,-161.069,-16.5199,179.714,1.77979,-156.577,280
1567593998,385.204,-161.069,-16.5199,179.714,1.77979,-156.577,284
1567593998,385.204,-161.069,-16.5199,179.714,1.77979,-156.555,284
1567593998,385.204,-161.069,-16.5199,179.714,1.77979,-156.555,284
1567593998,385.204,-161.069,-16.5199,179.714,1.75781,-156.555,284
1567593998,385.204,-161.069,-16.5199,179.736,1.75781,-156.555,284
1567593998,385.204,-160.958,-16.5199,179.736,1.75781,-156.555,288
1567593998,385.204,-160.958,-16.4083,179.736,1.75781,-156.555,288
1567593998,385.204,-160.958,-16.4083,179.736,1.75781,-156.555,288
1567593998,385.204,-160.958,-16.5199,179.736,1.75781,-156.555,288
1567593998,385.204,-160.958,-16.5199,179.736,1.75781,-156.555,288
1567593998,385.204,-160.958,-16.5199,179.736,1.75781,-156.555,288
1567593998,385.204,-160.958,-16.4083,179.736,1.75781,-156.555,288
1567593998,385.204,-160.958,-16.4083,179.736,1.75781,-156.555,288
1567593998,385.204,-160.958,-16.4083,179.736,1.75781,-156.555,288
1567593998,385.204,-160.958,-16.4083,179.736,1.75781,-156.555,288
1567593998,385.204,-160.958,-16.4083,179.736,1.75781,-156.555,288
1567593998,385.093,-160.958,-16.4083,179.736,1.75781,-156.555,292
1567593998,385.093,-160.958,-16.4083,179.736,1.75781,-156.555,292
1567593998,385.093,-160.958,-16.4083,179.736,1.75781,-156.555,292
1567593998,385.093,-160.958,-16.4083,179.736,1.75781,-156.555,292
1567593998,385.093,-160.958,-16.4083,179.736,1.75781,-156.555,296
1567593998,385.093,-160.958,-16.4083,179.736,1.75781,-156.555,296
1567593998,385.093,-160.958,-16.4083,179.736,1.75781,-156.555,296
1567593998,385.093,-160.958,-16.4083,179.714,1.77979,-156.555,300
1567593998,385.093,-160.958,-16.4083,179.714,1.77979,-156.533,300
1567593998,385.093,-160.958,-16.4083,179.714,1.77979,-156.533,300
1567593998,385.093,-160.958,-16.2967,179.714,1.77979,-156.533,304
1567593998,385.093,-160.958,-16.2967,179.714,1.77979,-156.533,304
1567593998,385.093,-160.958,-16.2967,179.714,1.80176,-156.533,308
1567593998,385.093,-160.958,-16.2967,179.714,1.80176,-156.533,308
1567593998,385.093,-160.958,-16.2967,179.714,1.80176,-156.533,308
1567593998,385.093,-160.958,-16.2967,179.714,1.80176,-156.533,312
1567593998,385.093,-160.958,-16.2967,179.714,1.80176,-156.533,312
1567593998,385.093,-160.958,-16.2967,179.714,1.80176,-156.555,312
1567593998,385.093,-160.958,-16.2967,179.714,1.80176,-156.555,312
1567593998,385.093,-160.958,-16.2967,179.714,1.80176,-156.555,316
1567593998,385.093,-160.958,-16.2967,179.714,1.80176,-156.555,316
1567593998,385.093,-160.958,-16.2967,179.714,1.80176,-156.555,316
1567593998,385.093,-160.958,-16.2967,179.714,1.80176,-156.555,316
1567593998,385.093,-160.958,-16.2967,179.714,1.80176,-156.555,316
1567593998,385.093,-161.069,-16.2967,179.714,1.80176,-156.555,316
1567593998,385.093,-161.069,-16.2967,179.714,1.80176,-156.555,316
1567593998,385.093,-161.069,-16.2967,179.714,1.80176,-156.555,316
1567593998,385.093,-160.958,-16.2967,179.736,1.80176,-156.555,316
1567593998,385.093,-160.958,-16.2967,179.736,1.80176,-156.555,312
1567593998,385.204,-160.958,-16.2967,179.736,1.80176,-156.555,312
1567593998,385.204,-160.958,-16.2967,179.736,1.80176,-156.555,308
1567593998,385.204,-160.958,-16.2967,179.736,1.80176,-156.555,308
1567593998,385.204,-160.958,-16.2967,179.736,1.80176,-156.555,304
1567593998,385.204,-160.958,-16.2967,179.758,1.80176,-156.555,304
1567593998,385.204,-160.958,-16.2967,179.758,1.80176,-156.555,304
1567593999,385.204,-160.958,-16.2967,179.758,1.80176,-156.555,300
1567593999,385.204,-160.958,-16.2967,179.758,1.80176,-156.555,300
1567593999,385.204,-160.958,-16.2967,179.758,1.80176,-156.533,296
1567593999,385.204,-160.958,-16.2967,179.758,1.80176,-156.533,296
1567593999,385.204,-161.069,-16.2967,179.758,1.80176,-156.533,296
1567593999,385.204,-161.069,-16.2967,179.758,1.82373,-156.533,292
1567593999,385.204,-161.069,-16.2967,179.736,1.82373,-156.533,292
1567593999,385.204,-161.069,-16.2967,179.736,1.82373,-156.533,288
1567593999,385.204,-161.069,-16.2967,179.736,1.82373,-156.533,288
1567593999,385.204,-161.069,-16.2967,179.736,1.82373,-156.533,288
1567593999,385.204,-161.069,-16.2967,179.736,1.80176,-156.533,288
1567593999,385.204,-161.069,-16.2967,179.736,1.80176,-156.533,288
1567593999,385.204,-161.069,-16.2967,179.736,1.82373,-156.533,288
1567593999,385.204,-161.069,-16.2967,179.736,1.82373,-156.533,288
1567593999,385.204,-161.069,-16.2967,179.736,1.82373,-156.533,288
1567593999,385.204,-161.069,-16.2967,179.736,1.82373,-156.533,288
1567593999,385.204,-161.069,-16.2967,179.736,1.82373,-156.533,288
1567593999,385.204,-161.069,-16.2967,179.736,1.82373,-156.533,292
1567593999,385.204,-161.069,-16.1851,179.714,1.82373,-156.533,292
1567593999,385.204,-161.069,-16.1851,179.714,1.82373,-156.533,292
1567593999,385.204,-161.069,-16.1851,179.714,1.8457,-156.533,292
1567593999,385.204,-161.069,-16.1851,179.736,1.8457,-156.533,296
1567593999,385.204,-161.069,-16.1851,179.736,1.8457,-156.533,296
1567593999,385.204,-161.069,-16.1851,179.736,1.8457,-156.533,296
1567593999,385.204,-161.069,-16.1851,179.736,1.8457,-156.533,296
1567593999,385.204,-161.069,-16.1851,179.736,1.8457,-156.533,296
1567593999,385.204,-160.958,-16.1851,179.736,1.8457,-156.533,300
1567593999,385.204,-160.958,-16.2967,179.736,1.8457,-156.533,300
1567593999,385.204,-160.958,-16.2967,179.736,1.8457,-156.533,300
1567593999,385.204,-160.958,-16.2967,179.736,1.8457,-156.533,300
1567593999,385.093,-160.958,-16.2967,179.736,1.8457,-156.555,304
1567593999,385.093,-160.958,-16.2967,179.736,1.82373,-156.555,304
1567593999,385.093,-160.958,-16.2967,179.736,1.82373,-156.555,304
1567593999,385.093,-160.846,-16.2967,179.736,1.82373,-156.555,304
1567593999,385.093,-160.846,-16.2967,179.736,1.82373,-156.555,308
1567593999,385.093,-160.846,-16.4083,179.736,1.80176,-156.555,308
1567593999,385.093,-160.846,-16.4083,179.736,1.80176,-156.555,308
1567593999,385.093,-160.846,-16.4083,179.736,1.80176,-156.555,308
1567593999,385.093,-160.846,-16.4083,179.736,1.80176,-156.555,308
1567593999,385.093,-160.846,-16.4083,179.736,1.77979,-156.555,308
1567593999,385.093,-160.846,-16.4083,179.736,1.77979,-156.555,308
1567593999,385.093,-160.846,-16.4083,179.736,1.77979,-156.555,308
1567593999,385.093,-160.846,-16.5199,179.736,1.77979,-156.555,308
1567593999,385.093,-160.846,-16.5199,179.736,1.77979,-156.555,308
1567593999,385.093,-160.846,-16.5199,179.736,1.77979,-156.555,308
1567593999,385.093,-160.846,-16.4083,179.736,1.77979,-156.555,308
1567593999,385.093,-160.846,-16.4083,179.758,1.77979,-156.555,308
1567593999,385.093,-160.846,-16.4083,179.758,1.77979,-156.555,312
1567593999,385.093,-160.846,-16.4083,179.758,1.77979,-156.555,312
1567593999,385.093,-160.846,-16.4083,179.758,1.77979,-156.555,312
1567593999,385.093,-160.846,-16.4083,179.758,1.77979,-156.555,312
1567593999,385.093,-160.846,-16.4083,179.758,1.77979,-156.555,316
1567593999,385.093,-160.846,-16.4083,179.758,1.77979,-156.555,316
1567593999,385.093,-160.846,-16.4083,179.758,1.77979,-156.533,316
1567593999,385.093,-160.846,-16.4083,179.758,1.75781,-156.533,316
1567593999,385.093,-160.846,-16.4083,179.758,1.75781,-156.533,316
1567593999,385.093,-160.846,-16.4083,179.758,1.75781,-156.533,316
1567593999,385.093,-160.846,-16.5199,179.758,1.75781,-156.533,316
1567593999,385.093,-160.846,-16.5199,179.758,1.75781,-156.533,316
1567593999,385.093,-160.846,-16.5199,179.78,1.75781,-156.555,316
1567593999,385.093,-160.846,-16.5199,179.78,1.75781,-156.555,316
1567593999,385.093,-160.846,-16.5199,179.78,1.73584,-156.555,316
1567593999,385.093,-160.846,-16.5199,179.78,1.73584,-156.555,316
1567594011,361.652,-136.847,-16.2967,179.714,1.62598,-156.335,276
1567594011,361.652,-136.847,-16.2967,179.714,1.62598,-156.335,276
1567594011,361.652,-136.847,-16.2967,179.714,1.62598,-156.335,276
1567594011,361.652,-136.847,-16.2967,179.692,1.62598,-156.335,276
1567594011,361.652,-136.847,-16.2967,179.692,1.64795,-156.335,276
1567594011,361.652,-136.847,-16.2967,179.692,1.64795,-156.335,276
1567594011,361.652,-136.847,-16.2967,179.692,1.64795,-156.335,276
1567594011,361.652,-136.847,-16.2967,179.714,1.64795,-156.335,276
1567594011,361.652,-136.847,-16.2967,179.714,1.64795,-156.335,276
1567594011,361.652,-136.847,-16.2967,179.714,1.64795,-156.335,276
1567594011,361.652,-136.847,-16.2967,179.714,1.64795,-156.335,276
1567594011,361.652,-136.847,-16.2967,179.714,1.64795,-156.335,276
1567594011,361.652,-136.847,-16.2967,179.714,1.64795,-156.335,276
1567594011,361.652,-136.847,-16.2967,179.714,1.64795,-156.335,276
1567594011,361.652,-136.847,-16.2967,179.714,1.64795,-156.335,276
1567594011,361.652,-136.847,-16.2967,179.714,1.64795,-156.335,280
1567594011,361.652,-136.847,-16.2967,179.714,1.64795,-156.335,280
1567594011,361.652,-136.847,-16.2967,179.714,1.64795,-156.335,280
1567594011,361.652,-136.847,-16.2967,179.714,1.64795,-156.335,280
1567594011,361.652,-136.847,-16.2967,179.714,1.64795,-156.335,280
1567594011,361.652,-136.847,-16.2967,179.714,1.64795,-156.335,280
1567594011,361.652,-136.847,-16.2967,179.714,1.64795,-156.335,280
1567594011,361.652,-136.847,-16.2967,179.714,1.64795,-156.335,280
1567594011,361.652,-136.847,-16.2967,179.714,1.62598,-156.335,280
1567594011,361.652,-136.847,-16.2967,179.714,1.62598,-156.335,280
1567594011,361.652,-136.847,-16.2967,179.714,1.62598,-156.335,280
1567594011,361.652,-136.847,-16.2967,179.714,1.62598,-156.335,280
1567594011,361.652,-136.847,-16.2967,179.714,1.62598,-156.335,280
1567594011,361.652,-136.847,-16.2967,179.714,1.62598,-156.335,280
1567594011,361.652,-136.847,-16.2967,179.714,1.62598,-156.335,280
1567594011,361.652,-136.847,-16.2967,179.714,1.62598,-156.335,280
1567594011,361.652,-136.847,-16.2967,179.714,1.62598,-156.335,280
1567594011,361.652,-136.847,-16.2967,179.714,1.62598,-156.335,280
1567594011,361.652,-136.847,-16.2967,179.714,1.62598,-156.335,280
1567594011,361.652,-136.847,-16.2967,179.714,1.62598,-156.335,280
1567594011,361.652,-136.847,-16.4083,179.714,1.62598,-156.335,280
1567594011,361.652,-136.847,-16.4083,179.714,1.62598,-156.335,280
1567594011,361.652,-136.847,-16.4083,179.714,1.62598,-156.313,280
1567594011,361.652,-136.847,-16.4083,179.714,1.62598,-156.313,280
1567594011,361.652,-136.847,-16.4083,179.714,1.62598,-156.313,280
1567594011,361.652,-136.847,-16.4083,179.714,1.62598,-156.313,280
1567594011,361.652,-136.847,-16.4083,179.714,1.62598,-156.313,280
1567594011,361.652,-136.847,-16.4083,179.714,1.62598,-156.313,280
1567594011,361.652,-136.847,-16.4083,179.714,1.62598,-156.313,280
1567594011,361.652,-136.959,-16.4083,179.714,1.62598,-156.313,280
1567594011,361.652,-136.959,-16.4083,179.714,1.604,-156.313,280
1567594011,361.652,-136.959,-16.4083,179.714,1.604,-156.313,276
1567594011,361.652,-136.959,-16.4083,179.714,1.604,-156.313,276
1567594011,361.652,-136.959,-16.4083,179.714,1.604,-156.313,276
1567594011,361.652,-136.959,-16.4083,179.714,1.604,-156.313,276
1567594011,361.652,-136.959,-16.4083,179.692,1.604,-156.313,276
1567594011,361.652,-136.959,-16.4083,179.692,1.604,-156.313,276
1567594011,361.652,-136.959,-16.4083,179.692,1.604,-156.313,272
1567594011,361.652,-136.959,-16.4083,179.692,1.604,-156.313,272
1567594012,361.652,-136.959,-16.4083,179.692,1.604,-156.313,272
1567594012,361.652,-136.959,-16.4083,179.692,1.604,-156.313,268
1567594012,361.652,-136.959,-16.4083,179.692,1.604,-156.313,268
1567594012,361.652,-136.959,-16.4083,179.692,1.604,-156.313,268
1567594012,361.652,-136.959,-16.4083,179.692,1.604,-156.313,268
1567594012,361.652,-136.959,-16.4083,179.692,1.604,-156.313,268
1567594012,361.652,-136.959,-16.4083,179.692,1.62598,-156.292,268
1567594012,361.652,-136.959,-16.4083,179.692,1.62598,-156.292,268
1567594012,361.652,-136.959,-16.4083,179.692,1.62598,-156.292,268
1567594012,361.652,-136.847,-16.2967,179.692,1.62598,-156.292,268
1567594012,361.652,-136.847,-16.2967,179.692,1.62598,-156.292,268
1567594012,361.652,-136.959,-16.2967,179.692,1.62598,-156.292,272
1567594012,361.652,-136.959,-16.2967,179.692,1.62598,-156.292,272
1567594012,361.652,-136.959,-16.2967,179.692,1.62598,-156.292,272
1567594012,361.652,-136.959,-16.2967,179.692,1.62598,-156.292,272
1567594012,361.652,-136.959,-16.2967,179.692,1.62598,-156.292,272
1567594012,361.652,-136.959,-16.4083,179.692,1.62598,-156.292,272
1567594012,361.652,-136.959,-16.4083,179.692,1.62598,-156.292,272
1567594012,361.652,-136.959,-16.4083,179.692,1.62598,-156.292,272
1567594012,361.652,-136.959,-16.4083,179.692,1.62598,-156.292,272
1567594012,361.652,-136.959,-16.4083,179.692,1.62598,-156.292,272
1567594012,361.652,-136.959,-16.4083,179.692,1.62598,-156.292,268
1567594012,361.652,-136.959,-16.4083,179.692,1.62598,-156.292,268
1567594012,361.652,-136.959,-16.4083,179.692,1.62598,-156.292,268
1567594012,361.652,-136.959,-16.4083,179.692,1.62598,-156.292,268
1567594012,361.652,-136.959,-16.4083,179.692,1.604,-156.292,268
1567594012,361.652,-136.959,-16.4083,179.67,1.604,-156.292,268
1567594012,361.652,-136.959,-16.4083,179.67,1.604,-156.292,268
1567594012,361.652,-136.959,-16.4083,179.67,1.604,-156.292,268
1567594012,361.652,-136.959,-16.4083,179.67,1.604,-156.292,268
1567594012,361.652,-137.071,-16.4083,179.67,1.604,-156.292,268
1567594012,361.652,-137.071,-16.4083,179.67,1.604,-156.292,268
1567594012,361.652,-137.071,-16.5199,179.67,1.604,-156.292,268
1567594012,361.652,-137.071,-16.5199,179.67,1.58203,-156.292,264
1567594012,361.652,-137.071,-16.5199,179.67,1.58203,-156.292,264
1567594012,361.652,-137.071,-16.5199,179.67,1.58203,-156.292,264
1567594012,361.652,-137.071,-16.5199,179.67,1.58203,-156.313,264
1567594012,361.652,-137.071,-16.5199,179.67,1.58203,-156.313,264
1567594012,361.652,-137.071,-16.5199,179.67,1.604,-156.313,264
1567594012,361.652,-137.071,-16.5199,179.67,1.604,-156.313,260
1567594012,361.652,-137.071,-16.5199,179.67,1.604,-156.313,260
1567594012,361.652,-137.071,-16.4083,179.67,1.604,-156.313,260
1567594012,361.652,-137.071,-16.4083,179.67,1.604,-156.313,260
1567594012,361.652,-137.071,-16.4083,179.67,1.604,-156.313,260
1567594012,361.652,-137.071,-16.4083,179.67,1.604,-156.313,260
1567594012,361.652,-137.071,-16.4083,179.67,1.604,-156.313,260
1567594012,361.652,-137.071,-16.4083,179.692,1.604,-156.313,260
1567594012,361.652,-137.071,-16.4083,179.692,1.604,-156.313,260
1567594012,361.652,-136.959,-16.4083,179.692,1.604,-156.313,260
1567594012,361.652,-136.959,-16.4083,179.692,1.604,-156.313,260
1567594012,361.652,-136.959,-16.4083,179.692,1.604,-156.313,260
1567594012,361.652,-136.959,-16.4083,179.692,1.604,-156.313,260
1567594012,361.652,-136.959,-16.4083,179.692,1.604,-156.313,264
1567594012,361.652,-136.959,-16.4083,179.692,1.604,-156.313,264
1567594012,361.652,-136.959,-16.4083,179.692,1.604,-156.313,264
1567594012,361.652,-136.959,-16.4083,179.692,1.604,-156.313,264
1567594012,361.652,-136.959,-16.4083,179.692,1.604,-156.313,268
1567594012,361.652,-136.959,-16.4083,179.692,1.604,-156.313,268
1567594012,361.652,-136.959,-16.4083,179.692,1.604,-156.313,268
1567594012,361.652,-136.959,-16.4083,179.692,1.604,-156.313,268
1567594012,361.652,-136.959,-16.4083,179.714,1.604,-156.313,268
1567594012,361.652,-136.959,-16.4083,179.714,1.604,-156.313,272
1567594012,361.652,-136.959,-16.4083,179.714,1.58203,-156.313,272
1567594012,361.652,-136.959,-16.4083,179.714,1.58203,-156.313,272
1567594012,361.652,-136.959,-16.4083,179.714,1.58203,-156.313,272
1567594012,361.652,-136.959,-16.4083,179.714,1.58203,-156.313,272
1567594012,361.652,-136.959,-16.4083,179.714,1.604,-156.313,272
1567594012,361.652,-136.959,-16.4083,179.714,1.604,-156.313,272
1567594012,361.652,-136.959,-16.4083,179.714,1.604,-156.313,272
1567594012,361.652,-136.959,-16.4083,179.714,1.604,-156.313,272
1567594012,361.652,-136.959,-16.4083,179.714,1.604,-156.313,272
1567594012,361.652,-136.959,-16.4083,179.714,1.604,-156.313,272
1567594012,361.652,-136.959,-16.4083,179.714,1.604,-156.313,272
1567594012,361.652,-136.959,-16.4083,179.714,1.604,-156.313,272
1567594012,361.652,-136.959,-16.4083,179.714,1.604,-156.313,272
1567594012,361.764,-136.847,-16.4083,179.714,1.604,-156.313,272
1567594012,361.764,-136.847,-16.4083,179.714,1.604,-156.313,272
1567594012,361.764,-136.847,-16.4083,179.714,1.604,-156.313,272
1567594012,361.764,-136.847,-16.4083,179.736,1.604,-156.313,272
1567594012,361.764,-136.847,-16.4083,179.736,1.604,-156.313,272
1567594012,361.764,-136.847,-16.4083,179.736,1.604,-156.313,272
1567594012,361.764,-136.847,-16.4083,179.736,1.604,-156.313,272
1567594012,361.764,-136.847,-16.4083,179.736,1.604,-156.313,272
1567594012,361.764,-136.847,-16.4083,179.736,1.58203,-156.313,268
1567594012,361.764,-136.847,-16.5199,179.736,1.58203,-156.313,268
1567594012,361.764,-136.847,-16.5199,179.736,1.58203,-156.313,268
1567594012,361.764,-136.847,-16.5199,179.736,1.58203,-156.313,268
1567594012,361.764,-136.847,-16.5199,179.736,1.58203,-156.313,268
1567594012,361.652,-136.847,-16.5199,179.714,1.604,-156.313,268
1567594012,361.652,-136.847,-16.4083,179.714,1.604,-156.313,268
1567594012,361.652,-136.847,-16.4083,179.714,1.604,-156.313,268
1567594012,361.652,-136.847,-16.4083,179.714,1.604,-156.313,268
1567594012,361.652,-136.847,-16.4083,179.714,1.604,-156.335,264
1567594012,361.652,-136.847,-16.4083,179.714,1.604,-156.335,264
1567594012,361.652,-136.847,-16.4083,179.714,1.62598,-156.335,264
1567594012,361.652,-136.847,-16.4083,179.714,1.62598,-156.335,268
1567594012,361.652,-136.847,-16.4083,179.714,1.62598,-156.335,268
1567594012,361.652,-136.847,-16.4083,179.714,1.62598,-156.335,268
1567594012,361.652,-136.847,-16.4083,179.714,1.62598,-156.335,268
1567594012,361.652,-136.847,-16.4083,179.714,1.62598,-156.335,268
1567594013,361.652,-136.847,-16.4083,179.714,1.62598,-156.335,272
1567594013,361.652,-136.847,-16.4083,179.714,1.62598,-156.335,272
1567594013,361.652,-136.847,-16.4083,179.714,1.62598,-156.335,272
1567594013,361.652,-136.847,-16.4083,179.714,1.62598,-156.335,276
1567594013,361.652,-136.847,-16.4083,179.714,1.62598,-156.335,276
1567594013,361.652,-136.847,-16.4083,179.714,1.62598,-156.335,276
1567594013,361.652,-136.847,-16.4083,179.714,1.62598,-156.335,280
1567594013,361.652,-136.847,-16.4083,179.714,1.62598,-156.335,280
1567594013,361.652,-136.847,-16.4083,179.692,1.62598,-156.335,280
1567594013,361.652,-136.847,-16.4083,179.692,1.62598,-156.335,284
1567594013,361.652,-136.847,-16.4083,179.692,1.62598,-156.335,284
1567594013,361.652,-136.847,-16.4083,179.692,1.62598,-156.335,284
1567594013,361.652,-136.847,-16.4083,179.692,1.62598,-156.335,288
1567594013,361.652,-136.847,-16.4083,179.692,1.62598,-156.335,288
1567594013,361.652,-136.959,-16.4083,179.692,1.62598,-156.335,288
1567594013,361.652,-136.959,-16.4083,179.692,1.62598,-156.335,288
1567594013,361.541,-136.959,-16.4083,179.692,1.62598,-156.335,288
1567594013,361.541,-136.959,-16.4083,179.692,1.62598,-156.335,288
1567594013,361.541,-136.959,-16.4083,179.67,1.62598,-156.335,288
1567594013,361.541,-136.959,-16.4083,179.67,1.62598,-156.313,288
1567594013,361.541,-136.959,-16.4083,179.67,1.62598,-156.313,288
1567594013,361.541,-136.959,-16.4083,179.67,1.62598,-156.313,288
1567594013,361.541,-136.959,-16.4083,179.67,1.62598,-156.313,288
1567594013,361.541,-136.959,-16.4083,179.67,1.62598,-156.313,284
1567594013,361.541,-136.959,-16.4083,179.67,1.62598,-156.313,284
1567594013,361.541,-136.959,-16.4083,179.67,1.62598,-156.313,284
1567594013,361.541,-136.959,-16.4083,179.67,1.62598,-156.313,284
1567594013,361.541,-136.959,-16.4083,179.67,1.62598,-156.313,284
1567594013,361.541,-136.959,-16.4083,179.67,1.62598,-156.313,280
1567594013,361.541,-136.959,-16.4083,179.67,1.62598,-156.313,280
1567594013,361.541,-136.959,-16.4083,179.67,1.62598,-156.313,280
1567594013,361.541,-136.959,-16.4083,179.692,1.62598,-156.313,280
1567594013,361.541,-136.959,-16.4083,179.692,1.62598,-156.313,280
1567594013,361.541,-136.959,-16.4083,179.692,1.62598,-156.313,280
1567594013,361.541,-136.959,-16.4083,179.692,1.62598,-156.313,280
1567594013,361.541,-136.959,-16.4083,179.692,1.62598,-156.313,280
1567594013,361.541,-136.959,-16.4083,179.692,1.62598,-156.313,276
1567594013,361.652,-136.959,-16.4083,179.692,1.62598,-156.313,276
1567594013,361.652,-136.847,-16.4083,179.692,1.62598,-156.313,276
1567594013,361.652,-136.847,-16.4083,179.692,1.62598,-156.313,276
1567594013,361.652,-136.847,-16.4083,179.692,1.62598,-156.313,276
1567594013,361.652,-136.847,-16.4083,179.692,1.62598,-156.313,276
1567594013,361.652,-136.847,-16.4083,179.714,1.62598,-156.313,276
1567594013,361.652,-136.847,-16.4083,179.714,1.604,-156.335,272
1567594013,361.652,-136.847,-16.4083,179.714,1.604,-156.335,272
1567594013,361.652,-136.847,-16.4083,179.714,1.604,-156.335,272
1567594013,361.652,-136.847,-16.4083,179.714,1.604,-156.335,272
1567594013,361.652,-136.847,-16.4083,179.714,1.604,-156.335,272
1567594013,361.652,-136.847,-16.4083,179.736,1.604,-156.335,272
1567594013,361.652,-136.736,-16.4083,179.736,1.604,-156.335,272
1567594013,361.652,-136.736,-16.5199,179.736,1.604,-156.335,272
1567594013,361.652,-136.736,-16.5199,179.736,1.604,-156.335,272
1567594013,361.652,-136.736,-16.5199,179.736,1.604,-156.335,272
1567594013,361.652,-136.736,-16.4083,179.736,1.604,-156.335,272
1567594013,361.652,-136.736,-16.4083,179.736,1.604,-156.335,272
1567594013,361.652,-136.736,-16.4083,179.736,1.604,-156.335,272
1567594013,361.652,-136.736,-16.4083,179.736,1.604,-156.335,272
1567594013,361.652,-136.736,-16.4083,179.736,1.62598,-156.335,272
1567594013,361.652,-136.736,-16.4083,179.736,1.62598,-156.335,272
1567594013,361.652,-136.736,-16.4083,179.736,1.62598,-156.335,272
1567594013,361.652,-136.736,-16.4083,179.736,1.62598,-156.335,272
1567594013,361.652,-136.736,-16.4083,179.736,1.62598,-156.335,272
1567594013,361.764,-136.736,-16.4083,179.736,1.62598,-156.335,272
1567594013,361.764,-136.736,-16.4083,179.736,1.62598,-156.335,272
1567594013,361.764,-136.736,-16.4083,179.736,1.62598,-156.335,272
1567594013,361.764,-136.847,-16.4083,179.736,1.62598,-156.335,272
1567594013,361.764,-136.847,-16.4083,179.736,1.62598,-156.335,272
1567594013,361.764,-136.847,-16.4083,179.736,1.62598,-156.335,272
1567594013,361.764,-136.847,-16.4083,179.736,1.62598,-156.335,272
1567594013,361.764,-136.847,-16.4083,179.736,1.62598,-156.335,272
1567594013,361.764,-136.847,-16.4083,179.736,1.62598,-156.335,272
1567594013,361.652,-136.847,-16.4083,179.736,1.62598,-156.335,272
1567594013,361.652,-136.847,-16.4083,179.736,1.62598,-156.335,276
1567594013,361.652,-136.847,-16.4083,179.714,1.62598,-156.335,276
1567594013,361.652,-136.847,-16.4083,179.714,1.62598,-156.335,276
1567594013,361.652,-136.847,-16.4083,179.714,1.62598,-156.335,276
1567594013,361.652,-136.847,-16.4083,179.714,1.62598,-156.335,276
1567594013,361.652,-136.847,-16.4083,179.714,1.62598,-156.335,276
1567594013,361.652,-136.847,-16.4083,179.714,1.62598,-156.335,276
1567594013,361.652,-136.847,-16.4083,179.714,1.62598,-156.335,276
1567594013,361.652,-136.847,-16.4083,179.714,1.62598,-156.335,276
1567594013,361.652,-136.847,-16.4083,179.714,1.62598,-156.335,276
1567594013,361.652,-136.847,-16.4083,179.714,1.62598,-156.335,276
1567594013,361.652,-136.847,-16.4083,179.714,1.62598,-156.335,276
1567594013,361.652,-136.847,-16.4083,179.714,1.62598,-156.335,276
1567594013,361.652,-136.847,-16.4083,179.714,1.62598,-156.335,276
1567594013,361.652,-136.847,-16.4083,179.714,1.62598,-156.357,276
1567594013,361.652,-136.847,-16.4083,179.714,1.62598,-156.357,276
1567594013,361.652,-136.847,-16.4083,179.714,1.62598,-156.357,276
1567594013,361.652,-136.847,-16.4083,179.714,1.62598,-156.357,276
1567594013,361.652,-136.847,-16.4083,179.714,1.62598,-156.357,276
1567594013,361.652,-136.847,-16.4083,179.714,1.62598,-156.357,276
1567594013,361.652,-136.847,-16.4083,179.714,1.62598,-156.357,276
1567594013,361.652,-136.847,-16.4083,179.714,1.62598,-156.357,276
1567594013,361.652,-136.847,-16.4083,179.714,1.62598,-156.357,276
1567594013,361.652,-136.847,-16.4083,179.714,1.62598,-156.357,276
1567594013,361.652,-136.847,-16.4083,179.714,1.62598,-156.357,276
1567594013,361.652,-136.847,-16.4083,179.714,1.62598,-156.357,276
1567594013,361.652,-136.847,-16.4083,179.714,1.62598,-156.357,276
1567594013,361.652,-136.847,-16.4083,179.714,1.62598,-156.357,276
1567594014,361.652,-136.847,-16.4083,179.714,1.62598,-156.335,276
1567594014,361.652,-136.847,-16.4083,179.714,1.62598,-156.335,276
1567594014,361.652,-136.847,-16.4083,179.714,1.62598,-156.335,276
1567594014,361.652,-136.847,-16.4083,179.714,1.62598,-156.335,276
1567594014,361.652,-136.847,-16.4083,179.714,1.62598,-156.335,276
1567594014,361.652,-136.847,-16.4083,179.736,1.62598,-156.335,276
1567594014,361.652,-136.847,-16.4083,179.736,1.62598,-156.335,276
1567594014,361.652,-136.847,-16.4083,179.736,1.62598,-156.335,276
1567594014,361.652,-136.847,-16.4083,179.736,1.62598,-156.335,276
1567594014,361.652,-136.847,-16.4083,179.736,1.62598,-156.335,276
1567594014,361.652,-136.847,-16.4083,179.736,1.62598,-156.335,276
1567594014,361.652,-136.847,-16.4083,179.736,1.62598,-156.335,276
1567594014,361.652,-136.847,-16.4083,179.736,1.62598,-156.335,276
1567594014,361.652,-136.847,-16.2967,179.736,1.64795,-156.335,276
1567594014,361.652,-136.847,-16.2967,179.736,1.64795,-156.335,276
1567594014,361.652,-136.847,-16.2967,179.736,1.64795,-156.335,276
1567594014,361.652,-136.847,-16.2967,179.736,1.64795,-156.335,276
1567594014,361.652,-136.847,-16.2967,179.736,1.64795,-156.335,276
1567594014,361.652,-136.847,-16.2967,179.736,1.64795,-156.335,280
1567594014,361.652,-136.847,-16.2967,179.736,1.64795,-156.335,280
1567594014,361.652,-136.847,-16.2967,179.736,1.64795,-156.335,280
1567594014,361.652,-136.847,-16.2967,179.736,1.64795,-156.335,280
1567594014,361.652,-136.847,-16.2967,179.736,1.64795,-156.335,280
1567594014,361.652,-136.847,-16.2967,179.736,1.64795,-156.335,280
1567594014,361.652,-136.847,-16.2967,179.736,1.64795,-156.335,280
1567594014,361.652,-136.847,-16.2967,179.736,1.64795,-156.335,280
1567594014,361.652,-136.847,-16.2967,179.736,1.64795,-156.335,284
1567594014,361.652,-136.847,-16.2967,179.736,1.64795,-156.335,284
1567594014,361.652,-136.847,-16.2967,179.736,1.64795,-156.335,284
1567594014,361.652,-136.736,-16.2967,179.736,1.64795,-156.335,284
1567594014,361.652,-136.736,-16.2967,179.736,1.64795,-156.335,284
1567594014,361.652,-136.736,-16.2967,179.736,1.64795,-156.335,284
1567594014,361.652,-136.736,-16.2967,179.736,1.64795,-156.335,284
1567594014,361.652,-136.847,-16.2967,179.714,1.64795,-156.335,288
1567594014,361.652,-136.847,-16.2967,179.714,1.64795,-156.335,288
1567594014,361.652,-136.847,-16.2967,179.714,1.64795,-156.335,288
1567594014,361.652,-136.847,-16.2967,179.714,1.64795,-156.335,288
1567594014,361.652,-136.847,-16.2967,179.714,1.64795,-156.335,288
1567594014,361.652,-136.847,-16.2967,179.714,1.64795,-156.335,288
1567594014,361.652,-136.847,-16.2967,179.714,1.64795,-156.335,288
1567594014,361.541,-136.847,-16.2967,179.714,1.64795,-156.335,288
1567594014,361.541,-136.847,-16.2967,179.714,1.64795,-156.335,288
1567594014,361.541,-136.847,-16.2967,179.714,1.64795,-156.335,288
1567594014,361.541,-136.847,-16.2967,179.714,1.62598,-156.335,288
1567594014,361.541,-136.847,-16.2967,179.714,1.62598,-156.335,288
1567594014,361.541,-136.847,-16.2967,179.714,1.62598,-156.335,288
1567594014,361.541,-136.847,-16.4083,179.714,1.62598,-156.335,288
1567594014,361.652,-136.847,-16.4083,179.714,1.62598,-156.335,288
1567594014,361.652,-136.847,-16.4083,179.714,1.62598,-156.335,288
1567594014,361.652,-136.847,-16.4083,179.714,1.62598,-156.335,288
1567594014,361.652,-136.847,-16.4083,179.714,1.62598,-156.335,288
1567594014,361.652,-136.847,-16.4083,179.714,1.62598,-156.357,288
1567594014,361.652,-136.847,-16.4083,179.714,1.62598,-156.357,288
1567594014,361.652,-136.847,-16.4083,179.714,1.62598,-156.357,288
1567594014,361.652,-136.847,-16.4083,179.714,1.62598,-156.357,288
1567594014,361.652,-136.847,-16.4083,179.714,1.62598,-156.357,288
1567594014,361.652,-136.847,-16.4083,179.714,1.62598,-156.357,284
1567594014,361.652,-136.847,-16.4083,179.714,1.62598,-156.357,284
1567594014,361.652,-136.847,-16.4083,179.714,1.62598,-156.357,284
1567594014,361.652,-136.847,-16.4083,179.714,1.62598,-156.357,284
1567594014,361.652,-136.847,-16.4083,179.714,1.62598,-156.357,280
1567594014,361.652,-136.847,-16.4083,179.714,1.62598,-156.357,280
1567594014,361.652,-136.847,-16.4083,179.714,1.62598,-156.357,280
1567594014,361.652,-136.847,-16.4083,179.714,1.62598,-156.335,280
1567594014,361.652,-136.847,-16.4083,179.714,1.62598,-156.335,280
1567594014,361.652,-136.847,-16.4083,179.714,1.62598,-156.335,280
1567594014,361.652,-136.847,-16.4083,179.714,1.62598,-156.335,280
1567594014,361.652,-136.847,-16.4083,179.714,1.62598,-156.335,276
1567594014,361.652,-136.847,-16.4083,179.714,1.62598,-156.335,276
1567594014,361.652,-136.847,-16.4083,179.714,1.62598,-156.335,276
1567594014,361.652,-136.847,-16.4083,179.714,1.62598,-156.335,276
1567594014,361.652,-136.847,-16.4083,179.714,1.62598,-156.335,276
1567594014,361.652,-136.847,-16.4083,179.714,1.62598,-156.335,276
1567594014,361.652,-136.847,-16.4083,179.714,1.62598,-156.335,276
1567594014,361.652,-136.847,-16.4083,179.714,1.62598,-156.335,276
1567594014,361.652,-136.847,-16.4083,179.714,1.604,-156.335,276
1567594014,361.652,-136.847,-16.4083,179.714,1.604,-156.335,276
1567594014,361.652,-136.847,-16.4083,179.714,1.604,-156.335,276
1567594014,361.652,-136.847,-16.4083,179.714,1.604,-156.335,276
1567594014,361.652,-136.847,-16.4083,179.714,1.604,-156.335,276
1567594014,361.652,-136.847,-16.5199,179.714,1.58203,-156.335,276
1567594014,361.652,-136.847,-16.5199,179.714,1.58203,-156.335,272
1567594014,361.652,-136.847,-16.5199,179.714,1.58203,-156.335,272
1567594014,361.652,-136.847,-16.5199,179.714,1.58203,-156.335,272
1567594014,361.652,-136.847,-16.5199,179.714,1.58203,-156.335,272
1567594014,361.652,-136.847,-16.5199,179.714,1.58203,-156.335,272
1567594014,361.652,-136.847,-16.5199,179.714,1.58203,-156.335,272
1567594014,361.652,-136.847,-16.5199,179.714,1.58203,-156.335,272
1567594014,361.652,-136.847,-16.5199,179.714,1.58203,-156.335,272
1567594014,361.652,-136.847,-16.5199,179.714,1.58203,-156.313,272
1567594014,361.652,-136.847,-16.5199,179.714,1.58203,-156.313,272
1567594014,361.652,-136.847,-16.5199,179.714,1.58203,-156.313,272
1567594014,361.652,-136.847,-16.5199,179.714,1.58203,-156.313,272
1567594014,361.652,-136.847,-16.5199,179.714,1.58203,-156.313,272
1567594014,361.652,-136.847,-16.5199,179.714,1.58203,-156.313,272
1567594014,361.652,-136.847,-16.5199,179.714,1.58203,-156.313,272
1567594014,361.652,-136.847,-16.5199,179.714,1.58203,-156.313,272
1567594014,361.652,-136.847,-16.5199,179.714,1.58203,-156.335,272
1567594014,361.652,-136.847,-16.5199,179.714,1.58203,-156.335,272
1567594014,361.652,-136.847,-16.5199,179.714,1.58203,-156.335,272
1567594015,361.652,-136.847,-16.5199,179.714,1.58203,-156.335,272
1567594015,361.652,-136.847,-16.5199,179.714,1.58203,-156.335,272
1567594015,361.652,-136.847,-16.5199,179.714,1.58203,-156.335,272
1567594015,361.652,-136.847,-16.4083,179.714,1.58203,-156.335,272
1567594015,361.652,-136.847,-16.4083,179.714,1.58203,-156.335,272
1567594015,361.652,-136.847,-16.4083,179.714,1.604,-156.335,272
1567594015,361.652,-136.847,-16.4083,179.714,1.604,-156.335,272
1567594015,361.652,-136.847,-16.4083,179.714,1.604,-156.335,272
1567594015,361.652,-136.847,-16.4083,179.736,1.604,-156.335,272
1567594015,361.652,-136.847,-16.4083,179.736,1.604,-156.335,272
1567594015,361.652,-136.847,-16.4083,179.736,1.604,-156.335,272
1567594015,361.652,-136.847,-16.4083,179.736,1.604,-156.335,272
1567594015,361.652,-136.847,-16.4083,179.736,1.604,-156.335,268
1567594015,361.652,-136.847,-16.4083,179.736,1.604,-156.335,268
1567594015,361.652,-136.847,-16.4083,179.736,1.58203,-156.335,268
1567594015,361.652,-136.847,-16.4083,179.736,1.604,-156.335,268
1567594015,361.652,-136.847,-16.4083,179.736,1.604,-156.313,268
1567594015,361.652,-136.847,-16.4083,179.736,1.604,-156.313,268
1567594015,361.652,-136.847,-16.4083,179.736,1.604,-156.313,268
1567594015,361.652,-136.847,-16.4083,179.736,1.604,-156.313,268
1567594015,361.652,-136.847,-16.4083,179.736,1.604,-156.313,268
1567594015,361.652,-136.847,-16.4083,179.736,1.604,-156.313,268
1567594015,361.652,-136.847,-16.4083,179.736,1.62598,-156.313,268
1567594015,361.652,-136.847,-16.2967,179.714,1.62598,-156.313,268
1567594015,361.652,-136.959,-16.2967,179.714,1.62598,-156.313,268
1567594015,361.652,-136.959,-16.2967,179.714,1.62598,-156.313,268
1567594015,361.652,-136.959,-16.2967,179.714,1.62598,-156.313,268
1567594015,361.652,-136.959,-16.2967,179.714,1.62598,-156.313,268
1567594015,361.652,-136.959,-16.4083,179.714,1.62598,-156.313,268
1567594015,361.652,-136.959,-16.4083,179.714,1.62598,-156.313,268
1567594015,361.652,-136.959,-16.4083,179.714,1.62598,-156.313,268
1567594015,361.652,-136.959,-16.4083,179.714,1.62598,-156.313,268
1567594015,361.652,-136.959,-16.4083,179.714,1.62598,-156.313,268
1567594015,361.652,-136.959,-16.4083,179.714,1.62598,-156.313,268
1567594015,361.652,-136.959,-16.4083,179.714,1.62598,-156.313,268
1567594015,361.652,-136.959,-16.4083,179.714,1.62598,-156.313,268
1567594015,361.652,-136.959,-16.4083,179.714,1.62598,-156.335,264
1567594015,361.652,-136.847,-16.4083,179.714,1.62598,-156.335,264
1567594015,361.652,-136.847,-16.4083,179.714,1.62598,-156.335,264
1567594015,361.652,-136.847,-16.4083,179.714,1.62598,-156.335,264
1567594015,361.652,-136.847,-16.4083,179.714,1.62598,-156.335,264
1567594015,361.652,-136.847,-16.4083,179.714,1.62598,-156.335,264
1567594015,361.652,-136.847,-16.4083,179.714,1.62598,-156.335,264
1567594015,361.652,-136.847,-16.4083,179.714,1.604,-156.335,264
1567594015,361.652,-136.847,-16.4083,179.714,1.604,-156.335,264
1567594015,361.652,-136.847,-16.4083,179.714,1.604,-156.335,264
1567594015,361.652,-136.847,-16.4083,179.714,1.604,-156.335,264
1567594015,361.652,-136.847,-16.4083,179.714,1.604,-156.335,264
1567594015,361.652,-136.847,-16.4083,179.714,1.604,-156.335,268
1567594015,361.652,-136.847,-16.4083,179.714,1.604,-156.335,268
1567594015,361.652,-136.847,-16.4083,179.714,1.604,-156.335,268
1567594015,361.652,-136.847,-16.4083,179.714,1.604,-156.335,268
1567594015,361.652,-136.847,-16.4083,179.714,1.604,-156.335,268
1567594015,361.652,-136.847,-16.4083,179.714,1.58203,-156.335,268
1567594015,361.652,-136.847,-16.4083,179.714,1.58203,-156.357,272
1567594015,361.652,-136.847,-16.5199,179.714,1.58203,-156.357,272
1567594015,361.652,-136.847,-16.5199,179.714,1.58203,-156.357,272
1567594015,361.652,-136.847,-16.5199,179.714,1.58203,-156.357,272
1567594015,361.652,-136.847,-16.5199,179.714,1.58203,-156.357,272
1567594015,361.652,-136.847,-16.5199,179.714,1.58203,-156.357,272
1567594015,361.652,-136.847,-16.5199,179.714,1.58203,-156.357,272
1567594015,361.652,-136.847,-16.5199,179.714,1.58203,-156.357,272
1567594015,361.652,-136.847,-16.5199,179.714,1.58203,-156.357,272
1567594015,361.652,-136.847,-16.5199,179.714,1.604,-156.357,272
1567594015,361.652,-136.847,-16.5199,179.692,1.604,-156.357,272
1567594015,361.652,-136.847,-16.4083,179.692,1.604,-156.357,272
1567594015,361.652,-136.847,-16.4083,179.692,1.604,-156.357,272
1567594015,361.652,-136.847,-16.4083,179.692,1.604,-156.357,276
1567594015,361.652,-136.847,-16.4083,179.692,1.604,-156.357,276
1567594015,361.652,-136.959,-16.4083,179.692,1.604,-156.357,276
1567594015,361.652,-136.959,-16.4083,179.692,1.604,-156.357,276
1567594015,361.652,-136.847,-16.4083,179.692,1.604,-156.335,276
1567594015,361.652,-136.847,-16.4083,179.692,1.604,-156.335,276
1567594015,361.652,-136.847,-16.4083,179.692,1.604,-156.335,276
1567594015,361.652,-136.847,-16.4083,179.692,1.604,-156.335,276
1567594015,361.652,-136.847,-16.4083,179.714,1.604,-156.335,276
1567594015,361.652,-136.847,-16.4083,179.714,1.604,-156.335,276
1567594015,361.652,-136.847,-16.4083,179.714,1.604,-156.335,276
1567594015,361.652,-136.847,-16.4083,179.714,1.604,-156.335,276
1567594015,361.652,-136.847,-16.4083,179.714,1.604,-156.335,276
1567594015,361.652,-136.847,-16.4083,179.714,1.62598,-156.335,276
1567594015,361.652,-136.847,-16.4083,179.714,1.62598,-156.335,276
1567594015,361.652,-136.847,-16.4083,179.714,1.62598,-156.335,276
1567594015,361.652,-136.847,-16.4083,179.714,1.62598,-156.335,276
1567594015,361.652,-136.847,-16.4083,179.736,1.62598,-156.335,276
1567594015,361.652,-136.847,-16.4083,179.736,1.62598,-156.335,276
1567594015,361.652,-136.847,-16.4083,179.736,1.62598,-156.335,276
1567594015,361.652,-136.847,-16.4083,179.736,1.62598,-156.335,276
1567594015,361.652,-136.847,-16.4083,179.736,1.62598,-156.335,276
1567594015,361.652,-136.847,-16.4083,179.736,1.62598,-156.335,276
1567594015,361.652,-136.847,-16.4083,179.736,1.62598,-156.335,280
1567594015,361.652,-136.847,-16.4083,179.736,1.62598,-156.335,280
1567594015,361.652,-136.847,-16.4083,179.736,1.62598,-156.335,280
1567594015,361.652,-136.847,-16.4083,179.736,1.62598,-156.335,280
1567594015,361.652,-136.847,-16.4083,179.736,1.62598,-156.335,280
1567594015,361.652,-136.847,-16.4083,179.736,1.62598,-156.335,280
1567594015,361.652,-136.847,-16.4083,179.736,1.62598,-156.335,280
1567594015,361.652,-136.847,-16.4083,179.736,1.62598,-156.335,280
1567594015,361.652,-136.847,-16.4083,179.736,1.62598,-156.335,280
1567594015,361.652,-136.847,-16.4083,179.736,1.62598,-156.357,280
1567594016,361.652,-136.847,-16.4083,179.714,1.62598,-156.357,280
1567594016,361.652,-136.847,-16.4083,179.714,1.62598,-156.357,280
1567594016,361.652,-136.847,-16.4083,179.714,1.62598,-156.357,280
1567594016,361.652,-136.847,-16.4083,179.714,1.62598,-156.357,280
1567594016,361.652,-136.847,-16.4083,179.714,1.62598,-156.357,280
1567594016,361.652,-136.847,-16.4083,179.714,1.604,-156.357,280
1567594016,361.652,-136.847,-16.4083,179.714,1.604,-156.357,280
1567594016,361.652,-136.847,-16.4083,179.714,1.604,-156.357,280
1567594016,361.652,-136.847,-16.5199,179.714,1.604,-156.357,280
1567594016,361.652,-136.847,-16.5199,179.714,1.604,-156.357,280
1567594016,361.652,-136.847,-16.5199,179.714,1.604,-156.357,280
1567594016,361.652,-136.847,-16.5199,179.714,1.604,-156.357,280
1567594016,361.652,-136.847,-16.5199,179.714,1.604,-156.357,276
1567594016,361.652,-136.847,-16.5199,179.714,1.604,-156.357,276
1567594016,361.652,-136.847,-16.5199,179.714,1.604,-156.357,276
1567594016,361.764,-136.847,-16.5199,179.714,1.604,-156.357,276
1567594016,361.764,-136.847,-16.5199,179.714,1.58203,-156.357,276
1567594016,361.764,-136.847,-16.5199,179.714,1.58203,-156.357,272
1567594016,361.764,-136.847,-16.5199,179.714,1.58203,-156.357,272
1567594016,361.764,-136.847,-16.5199,179.714,1.604,-156.357,272
1567594016,361.764,-136.847,-16.5199,179.714,1.604,-156.357,268
1567594016,361.764,-136.847,-16.5199,179.736,1.604,-156.357,268
1567594016,361.764,-136.847,-16.5199,179.736,1.604,-156.335,268
1567594016,361.764,-136.847,-16.5199,179.736,1.604,-156.335,268
1567594016,361.764,-136.847,-16.5199,179.736,1.604,-156.335,268
1567594016,361.764,-136.736,-16.4083,179.736,1.604,-156.335,268
1567594016,361.764,-136.736,-16.4083,179.736,1.604,-156.335,268
1567594016,361.764,-136.736,-16.4083,179.736,1.62598,-156.335,268
1567594016,361.764,-136.736,-16.4083,179.736,1.62598,-156.335,268
1567594016,361.764,-136.736,-16.4083,179.736,1.62598,-156.335,268
1567594016,361.764,-136.736,-16.4083,179.736,1.62598,-156.335,268
1567594016,361.652,-136.736,-16.4083,179.736,1.62598,-156.357,268
1567594016,361.764,-136.736,-16.4083,179.736,1.62598,-156.357,268
1567594016,361.764,-136.736,-16.4083,179.736,1.62598,-156.357,268
1567594016,361.764,-136.736,-16.4083,179.736,1.62598,-156.357,268
1567594016,361.652,-136.736,-16.4083,179.736,1.62598,-156.357,268
1567594016,361.652,-136.736,-16.4083,179.736,1.62598,-156.357,268
1567594016,361.652,-136.736,-16.4083,179.736,1.62598,-156.357,268
1567594016,361.652,-136.736,-16.4083,179.736,1.62598,-156.357,268
1567594016,361.652,-136.736,-16.4083,179.736,1.62598,-156.357,268
1567594016,361.652,-136.736,-16.4083,179.736,1.62598,-156.357,268
1567594016,361.652,-136.736,-16.4083,179.736,1.62598,-156.357,268
1567594016,361.652,-136.736,-16.4083,179.714,1.62598,-156.357,268
1567594016,361.652,-136.736,-16.4083,179.714,1.62598,-156.357,268
1567594016,361.652,-136.847,-16.4083,179.714,1.62598,-156.357,268
1567594016,361.652,-136.847,-16.4083,179.714,1.62598,-156.357,268
1567594027,322.585,-96.5522,-16.5199,179.648,1.604,-155.874,260
1567594027,322.585,-96.5522,-16.5199,179.648,1.604,-155.874,260
1567594027,322.585,-96.5522,-16.5199,179.648,1.604,-155.874,260
1567594027,322.585,-96.5522,-16.5199,179.648,1.604,-155.874,260
1567594027,322.585,-96.5522,-16.5199,179.648,1.604,-155.874,260
1567594027,322.585,-96.5522,-16.5199,179.648,1.604,-155.874,260
1567594027,322.585,-96.5522,-16.5199,179.648,1.604,-155.874,260
1567594027,322.585,-96.5522,-16.5199,179.648,1.604,-155.874,260
1567594027,322.585,-96.5522,-16.5199,179.648,1.604,-155.874,260
1567594027,322.585,-96.5522,-16.5199,179.648,1.604,-155.896,260
1567594027,322.585,-96.5522,-16.5199,179.648,1.604,-155.896,260
1567594027,322.585,-96.5522,-16.5199,179.648,1.604,-155.896,260
1567594027,322.585,-96.6639,-16.5199,179.648,1.604,-155.896,260
1567594027,322.585,-96.6639,-16.5199,179.648,1.62598,-155.896,260
1567594027,322.585,-96.6639,-16.5199,179.626,1.62598,-155.896,260
1567594027,322.585,-96.6639,-16.5199,179.626,1.62598,-155.896,260
1567594027,322.585,-96.6639,-16.5199,179.626,1.62598,-155.896,260
1567594027,322.585,-96.6639,-16.5199,179.626,1.62598,-155.896,260
1567594027,322.585,-96.6639,-16.5199,179.626,1.62598,-155.896,260
1567594027,322.585,-96.6639,-16.5199,179.626,1.62598,-155.874,256
1567594027,322.585,-96.6639,-16.5199,179.626,1.62598,-155.874,256
1567594027,322.585,-96.6639,-16.5199,179.626,1.62598,-155.874,256
1567594028,322.585,-96.6639,-16.5199,179.626,1.62598,-155.874,256
1567594028,322.585,-96.6639,-16.5199,179.626,1.62598,-155.874,256
1567594028,322.585,-96.6639,-16.5199,179.626,1.62598,-155.874,252
1567594028,322.585,-96.6639,-16.5199,179.626,1.62598,-155.874,252
1567594028,322.585,-96.6639,-16.5199,179.626,1.62598,-155.874,252
1567594028,322.585,-96.6639,-16.5199,179.626,1.62598,-155.874,252
1567594028,322.585,-96.6639,-16.5199,179.626,1.62598,-155.874,252
1567594028,322.585,-96.6639,-16.5199,179.626,1.62598,-155.874,252
1567594028,322.585,-96.6639,-16.5199,179.626,1.62598,-155.874,252
1567594028,322.585,-96.6639,-16.5199,179.648,1.62598,-155.874,252
1567594028,322.585,-96.6639,-16.5199,179.648,1.604,-155.874,252
1567594028,322.585,-96.6639,-16.5199,179.648,1.604,-155.874,248
1567594028,322.585,-96.6639,-16.5199,179.648,1.604,-155.874,248
1567594028,322.585,-96.6639,-16.5199,179.648,1.604,-155.874,248
1567594028,322.585,-96.6639,-16.5199,179.648,1.604,-155.874,252
1567594028,322.585,-96.6639,-16.5199,179.648,1.604,-155.874,252
1567594028,322.585,-96.6639,-16.5199,179.648,1.604,-155.874,252
1567594028,322.585,-96.5522,-16.5199,179.648,1.604,-155.874,252
1567594028,322.585,-96.5522,-16.5199,179.648,1.604,-155.874,252
1567594028,322.585,-96.5522,-16.5199,179.648,1.604,-155.874,252
1567594028,322.585,-96.5522,-16.5199,179.648,1.604,-155.874,252
1567594028,322.585,-96.5522,-16.5199,179.648,1.604,-155.874,252
1567594028,322.585,-96.5522,-16.5199,179.648,1.604,-155.874,252
1567594028,322.585,-96.5522,-16.5199,179.648,1.604,-155.874,252
1567594028,322.585,-96.5522,-16.5199,179.648,1.604,-155.874,252
1567594028,322.585,-96.5522,-16.5199,179.648,1.604,-155.874,256
1567594028,322.585,-96.5522,-16.5199,179.67,1.604,-155.874,256
1567594028,322.585,-96.5522,-16.5199,179.67,1.604,-155.874,256
1567594028,322.585,-96.5522,-16.5199,179.67,1.604,-155.874,256
1567594028,322.585,-96.5522,-16.5199,179.648,1.604,-155.874,256
1567594028,322.585,-96.5522,-16.5199,179.648,1.604,-155.874,256
1567594028,322.585,-96.5522,-16.5199,179.648,1.604,-155.874,256
1567594028,322.585,-96.5522,-16.5199,179.648,1.604,-155.874,256
1567594028,322.585,-96.6639,-16.5199,179.648,1.604,-155.874,256
1567594028,322.585,-96.6639,-16.5199,179.648,1.604,-155.874,256
1567594028,322.585,-96.6639,-16.5199,179.648,1.604,-155.874,256
1567594028,322.585,-96.6639,-16.5199,179.648,1.604,-155.852,256
1567594028,322.585,-96.6639,-16.5199,179.626,1.604,-155.852,256
1567594028,322.585,-96.6639,-16.5199,179.626,1.604,-155.852,256
1567594028,322.585,-96.6639,-16.5199,179.626,1.604,-155.852,256
1567594028,322.585,-96.6639,-16.5199,179.626,1.62598,-155.852,256
1567594028,322.585,-96.6639,-16.5199,179.648,1.62598,-155.852,256
1567594028,322.585,-96.6639,-16.5199,179.648,1.62598,-155.852,256
1567594028,322.585,-96.6639,-16.5199,179.648,1.62598,-155.874,256
1567594028,322.585,-96.6639,-16.5199,179.648,1.62598,-155.874,256
1567594028,322.585,-96.6639,-16.5199,179.648,1.62598,-155.874,256
1567594028,322.585,-96.6639,-16.5199,179.648,1.62598,-155.874,256
1567594028,322.585,-96.6639,-16.5199,179.648,1.62598,-155.874,256
1567594028,322.585,-96.6639,-16.5199,179.648,1.62598,-155.874,260
1567594028,322.585,-96.6639,-16.5199,179.648,1.62598,-155.874,260
1567594028,322.585,-96.6639,-16.5199,179.648,1.604,-155.874,260
1567594028,322.585,-96.6639,-16.5199,179.648,1.604,-155.874,260
1567594028,322.585,-96.6639,-16.5199,179.626,1.604,-155.874,260
1567594028,322.585,-96.6639,-16.5199,179.626,1.604,-155.874,260
1567594028,322.585,-96.6639,-16.5199,179.626,1.604,-155.874,260
1567594028,322.585,-96.6639,-16.5199,179.626,1.604,-155.874,260
1567594028,322.585,-96.6639,-16.5199,179.626,1.604,-155.874,260
1567594028,322.585,-96.6639,-16.5199,179.626,1.604,-155.874,260
1567594028,322.585,-96.6639,-16.5199,179.626,1.604,-155.874,260
1567594028,322.585,-96.6639,-16.5199,179.626,1.604,-155.874,260
1567594028,322.585,-96.6639,-16.6315,179.626,1.604,-155.874,260
1567594028,322.585,-96.6639,-16.6315,179.626,1.604,-155.874,260
1567594028,322.585,-96.6639,-16.6315,179.626,1.604,-155.874,260
1567594028,322.585,-96.6639,-16.6315,179.626,1.604,-155.874,260
1567594028,322.585,-96.6639,-16.6315,179.626,1.604,-155.874,260
1567594028,322.585,-96.6639,-16.6315,179.626,1.604,-155.874,260
1567594028,322.585,-96.6639,-16.6315,179.626,1.58203,-155.874,260
1567594028,322.585,-96.6639,-16.6315,179.648,1.58203,-155.874,260
1567594028,322.585,-96.6639,-16.6315,179.648,1.58203,-155.874,260
1567594028,322.585,-96.6639,-16.6315,179.648,1.58203,-155.874,260
1567594028,322.585,-96.6639,-16.6315,179.648,1.58203,-155.874,260
1567594028,322.585,-96.6639,-16.6315,179.648,1.58203,-155.874,260
1567594028,322.585,-96.6639,-16.6315,179.648,1.58203,-155.874,260
1567594028,322.585,-96.6639,-16.6315,179.648,1.58203,-155.852,260
1567594028,322.585,-96.6639,-16.6315,179.648,1.58203,-155.852,260
1567594028,322.585,-96.6639,-16.6315,179.648,1.58203,-155.852,260
1567594028,322.585,-96.6639,-16.6315,179.648,1.58203,-155.852,260
1567594028,322.585,-96.6639,-16.6315,179.648,1.58203,-155.852,260
1567594028,322.585,-96.6639,-16.6315,179.648,1.604,-155.852,260
1567594028,322.585,-96.6639,-16.6315,179.648,1.604,-155.852,260
1567594028,322.585,-96.6639,-16.5199,179.648,1.604,-155.852,260
1567594028,322.585,-96.6639,-16.5199,179.648,1.604,-155.852,256
1567594028,322.585,-96.6639,-16.5199,179.648,1.604,-155.852,256
1567594028,322.585,-96.6639,-16.5199,179.648,1.604,-155.874,256
1567594028,322.585,-96.6639,-16.5199,179.648,1.604,-155.874,256
1567594028,322.585,-96.6639,-16.5199,179.648,1.604,-155.874,256
1567594028,322.585,-96.6639,-16.5199,179.648,1.604,-155.874,256
1567594028,322.585,-96.6639,-16.5199,179.648,1.604,-155.874,256
1567594028,322.585,-96.6639,-16.5199,179.648,1.604,-155.874,256
1567594028,322.585,-96.6639,-16.5199,179.648,1.604,-155.874,256
1567594028,322.585,-96.6639,-16.5199,179.648,1.604,-155.874,256
1567594028,322.585,-96.6639,-16.5199,179.648,1.604,-155.874,256
1567594028,322.585,-96.6639,-16.5199,179.648,1.604,-155.874,256
1567594028,322.585,-96.6639,-16.5199,179.648,1.604,-155.874,256
1567594028,322.585,-96.6639,-16.5199,179.648,1.604,-155.874,256
1567594028,322.585,-96.6639,-16.5199,179.648,1.604,-155.874,256
1567594028,322.585,-96.6639,-16.5199,179.648,1.604,-155.874,256
1567594028,322.585,-96.6639,-16.5199,179.648,1.604,-155.874,256
1567594028,322.585,-96.6639,-16.5199,179.648,1.604,-155.874,256
1567594028,322.585,-96.6639,-16.5199,179.648,1.604,-155.874,256
1567594029,322.585,-96.6639,-16.5199,179.648,1.604,-155.874,256
1567594029,322.585,-96.6639,-16.5199,179.648,1.604,-155.852,256
1567594029,322.585,-96.6639,-16.5199,179.626,1.604,-155.852,256
1567594029,322.585,-96.6639,-16.5199,179.626,1.604,-155.852,256
1567594029,322.585,-96.6639,-16.5199,179.626,1.604,-155.852,256
1567594029,322.585,-96.6639,-16.5199,179.626,1.604,-155.874,256
1567594029,322.585,-96.6639,-16.5199,179.626,1.604,-155.874,256
1567594029,322.585,-96.6639,-16.5199,179.626,1.604,-155.874,256
1567594029,322.585,-96.6639,-16.5199,179.626,1.604,-155.874,256
1567594029,322.585,-96.6639,-16.5199,179.626,1.604,-155.874,256
1567594029,322.585,-96.6639,-16.5199,179.626,1.604,-155.874,256
1567594029,322.585,-96.6639,-16.5199,179.626,1.604,-155.874,252
1567594029,322.585,-96.6639,-16.5199,179.648,1.604,-155.874,252
1567594029,322.585,-96.6639,-16.5199,179.648,1.604,-155.874,252
1567594029,322.585,-96.6639,-16.5199,179.648,1.604,-155.874,252
1567594029,322.585,-96.6639,-16.5199,179.648,1.604,-155.874,252
1567594029,322.585,-96.6639,-16.5199,179.648,1.604,-155.874,256
1567594029,322.585,-96.6639,-16.5199,179.648,1.604,-155.874,256
1567594029,322.585,-96.6639,-16.5199,179.648,1.604,-155.874,256
1567594029,322.585,-96.6639,-16.5199,179.648,1.604,-155.874,256
1567594029,322.585,-96.6639,-16.5199,179.648,1.604,-155.874,256
1567594029,322.585,-96.6639,-16.5199,179.648,1.604,-155.874,256
1567594029,322.585,-96.6639,-16.5199,179.648,1.604,-155.852,256
1567594029,322.585,-96.6639,-16.5199,179.648,1.604,-155.852,256
1567594029,322.585,-96.6639,-16.5199,179.648,1.604,-155.852,256
1567594029,322.585,-96.6639,-16.5199,179.648,1.604,-155.852,256
1567594029,322.585,-96.6639,-16.5199,179.648,1.604,-155.852,256
1567594029,322.585,-96.6639,-16.5199,179.648,1.604,-155.852,256
1567594029,322.585,-96.6639,-16.5199,179.648,1.604,-155.852,256
1567594029,322.585,-96.6639,-16.5199,179.648,1.604,-155.852,256
1567594029,322.585,-96.6639,-16.5199,179.648,1.604,-155.852,256
1567594029,322.585,-96.5522,-16.5199,179.648,1.604,-155.874,256
1567594029,322.585,-96.5522,-16.5199,179.648,1.604,-155.874,256
1567594029,322.585,-96.5522,-16.5199,179.648,1.604,-155.874,256
1567594029,322.585,-96.5522,-16.5199,179.648,1.604,-155.874,256
1567594029,322.585,-96.5522,-16.5199,179.648,1.604,-155.874,256
1567594029,322.585,-96.5522,-16.5199,179.648,1.604,-155.874,256
1567594029,322.585,-96.5522,-16.5199,179.648,1.62598,-155.874,256
1567594029,322.585,-96.5522,-16.5199,179.648,1.62598,-155.874,256
1567594029,322.585,-96.5522,-16.5199,179.648,1.62598,-155.874,256
1567594029,322.585,-96.5522,-16.5199,179.648,1.62598,-155.852,256
1567594029,322.473,-96.5522,-16.4083,179.648,1.62598,-155.852,256
1567594029,322.473,-96.5522,-16.4083,179.648,1.62598,-155.852,256
1567594029,322.473,-96.5522,-16.4083,179.648,1.62598,-155.852,260
1567594029,322.473,-96.5522,-16.4083,179.648,1.62598,-155.852,260
1567594029,322.473,-96.5522,-16.4083,179.648,1.62598,-155.852,260
1567594029,322.473,-96.5522,-16.4083,179.648,1.62598,-155.874,260
1567594029,322.585,-96.5522,-16.4083,179.648,1.62598,-155.874,260
1567594029,322.585,-96.5522,-16.4083,179.648,1.62598,-155.874,260
1567594029,322.585,-96.5522,-16.4083,179.648,1.62598,-155.874,260
1567594029,322.585,-96.5522,-16.5199,179.648,1.62598,-155.874,260
1567594029,322.585,-96.5522,-16.5199,179.648,1.62598,-155.874,260
1567594029,322.585,-96.5522,-16.5199,179.648,1.62598,-155.874,260
1567594029,322.585,-96.5522,-16.5199,179.648,1.62598,-155.874,260
1567594029,322.585,-96.5522,-16.5199,179.648,1.62598,-155.874,260
1567594029,322.585,-96.5522,-16.5199,179.648,1.62598,-155.874,260
1567594029,322.585,-96.5522,-16.5199,179.648,1.62598,-155.874,260
1567594029,322.585,-96.5522,-16.5199,179.648,1.62598,-155.874,260
1567594029,322.585,-96.5522,-16.5199,179.648,1.62598,-155.874,256
1567594029,322.585,-96.5522,-16.5199,179.648,1.62598,-155.874,256
1567594029,322.585,-96.5522,-16.5199,179.648,1.62598,-155.874,256
1567594029,322.585,-96.5522,-16.5199,179.648,1.62598,-155.874,256
1567594029,322.585,-96.5522,-16.5199,179.648,1.62598,-155.874,256
1567594029,322.585,-96.5522,-16.5199,179.648,1.62598,-155.874,260
1567594029,322.585,-96.5522,-16.4083,179.648,1.64795,-155.874,260
1567594029,322.585,-96.5522,-16.4083,179.648,1.64795,-155.874,260
1567594029,322.585,-96.5522,-16.4083,179.648,1.64795,-155.874,260
1567594029,322.585,-96.5522,-16.4083,179.648,1.64795,-155.874,260
1567594029,322.585,-96.5522,-16.4083,179.648,1.64795,-155.874,260
1567594029,322.585,-96.5522,-16.4083,179.648,1.64795,-155.874,260
1567594029,322.585,-96.5522,-16.4083,179.648,1.64795,-155.874,260
1567594029,322.585,-96.5522,-16.4083,179.648,1.64795,-155.874,260
1567594029,322.585,-96.5522,-16.4083,179.648,1.64795,-155.874,256
1567594029,322.585,-96.5522,-16.4083,179.648,1.62598,-155.874,256
1567594029,322.585,-96.5522,-16.5199,179.648,1.62598,-155.874,256
1567594029,322.585,-96.5522,-16.5199,179.648,1.62598,-155.874,256
1567594029,322.585,-96.5522,-16.5199,179.648,1.62598,-155.874,256
1567594029,322.585,-96.5522,-16.5199,179.648,1.62598,-155.874,256
1567594029,322.585,-96.5522,-16.5199,179.648,1.62598,-155.874,256
1567594029,322.585,-96.5522,-16.5199,179.648,1.62598,-155.874,256
1567594029,322.585,-96.5522,-16.5199,179.648,1.62598,-155.874,256
1567594029,322.585,-96.6639,-16.5199,179.648,1.62598,-155.874,256
1567594029,322.585,-96.6639,-16.5199,179.648,1.62598,-155.874,256
1567594029,322.585,-96.6639,-16.5199,179.648,1.62598,-155.874,256
1567594029,322.585,-96.6639,-16.5199,179.648,1.62598,-155.874,256
1567594029,322.585,-96.6639,-16.5199,179.648,1.62598,-155.874,256
1567594029,322.585,-96.6639,-16.5199,179.648,1.62598,-155.874,256
1567594029,322.585,-96.6639,-16.5199,179.648,1.62598,-155.874,256
1567594029,322.585,-96.6639,-16.5199,179.648,1.62598,-155.874,256
1567594029,322.585,-96.6639,-16.5199,179.648,1.62598,-155.874,256
1567594029,322.585,-96.6639,-16.5199,179.648,1.62598,-155.874,256
1567594029,322.585,-96.6639,-16.5199,179.648,1.62598,-155.874,252
1567594029,322.585,-96.6639,-16.5199,179.648,1.62598,-155.874,252
1567594029,322.585,-96.6639,-16.5199,179.648,1.62598,-155.874,252
1567594029,322.585,-96.6639,-16.5199,179.648,1.62598,-155.874,252
1567594029,322.585,-96.6639,-16.5199,179.648,1.62598,-155.874,252
1567594029,322.585,-96.6639,-16.5199,179.648,1.62598,-155.874,252
1567594029,322.585,-96.6639,-16.5199,179.648,1.604,-155.874,252
1567594029,322.585,-96.6639,-16.5199,179.648,1.604,-155.874,252
1567594029,322.585,-96.6639,-16.5199,179.648,1.604,-155.874,252
1567594030,322.585,-96.6639,-16.5199,179.648,1.604,-155.874,252
1567594030,322.585,-96.6639,-16.5199,179.648,1.604,-155.874,252
1567594030,322.585,-96.6639,-16.5199,179.648,1.604,-155.874,252
1567594030,322.585,-96.6639,-16.5199,179.648,1.604,-155.874,252
1567594030,322.585,-96.5522,-16.5199,179.648,1.604,-155.874,252
1567594030,322.585,-96.5522,-16.5199,179.648,1.604,-155.874,252
1567594030,322.585,-96.5522,-16.5199,179.648,1.62598,-155.874,252
1567594030,322.585,-96.5522,-16.5199,179.648,1.62598,-155.874,252
1567594030,322.585,-96.5522,-16.5199,179.648,1.62598,-155.874,252
1567594030,322.585,-96.5522,-16.5199,179.648,1.62598,-155.874,252
1567594030,322.585,-96.5522,-16.5199,179.648,1.62598,-155.874,252
1567594030,322.585,-96.5522,-16.5199,179.648,1.62598,-155.874,252
1567594030,322.585,-96.5522,-16.5199,179.648,1.62598,-155.874,252
1567594030,322.585,-96.5522,-16.5199,179.648,1.62598,-155.874,252
1567594030,322.585,-96.5522,-16.5199,179.648,1.62598,-155.874,252
1567594030,322.585,-96.5522,-16.5199,179.648,1.62598,-155.874,252
1567594030,322.585,-96.5522,-16.5199,179.648,1.62598,-155.874,252
1567594030,322.585,-96.5522,-16.5199,179.648,1.62598,-155.874,252
1567594030,322.585,-96.5522,-16.5199,179.648,1.62598,-155.874,252
1567594030,322.585,-96.5522,-16.5199,179.648,1.62598,-155.874,252
1567594030,322.585,-96.5522,-16.5199,179.648,1.62598,-155.874,252
1567594030,322.585,-96.5522,-16.5199,179.648,1.62598,-155.874,252
1567594030,322.585,-96.5522,-16.5199,179.648,1.62598,-155.874,252
1567594030,322.585,-96.5522,-16.5199,179.648,1.62598,-155.874,252
1567594030,322.585,-96.5522,-16.5199,179.648,1.62598,-155.874,252
1567594030,322.585,-96.5522,-16.5199,179.648,1.62598,-155.874,252
1567594030,322.585,-96.5522,-16.5199,179.648,1.62598,-155.874,252
1567594030,322.585,-96.5522,-16.5199,179.648,1.62598,-155.874,252
1567594030,322.585,-96.5522,-16.5199,179.648,1.62598,-155.874,252
1567594030,322.585,-96.5522,-16.5199,179.648,1.62598,-155.874,252
1567594030,322.585,-96.5522,-16.5199,179.648,1.62598,-155.874,252
1567594030,322.585,-96.5522,-16.5199,179.67,1.62598,-155.874,252
1567594030,322.585,-96.5522,-16.5199,179.67,1.62598,-155.874,252
1567594030,322.585,-96.5522,-16.5199,179.67,1.62598,-155.874,252
1567594030,322.585,-96.5522,-16.5199,179.67,1.62598,-155.874,252
1567594030,322.585,-96.5522,-16.5199,179.67,1.62598,-155.874,252
1567594030,322.585,-96.5522,-16.5199,179.67,1.62598,-155.874,252
1567594030,322.585,-96.5522,-16.5199,179.648,1.62598,-155.874,252
1567594030,322.585,-96.5522,-16.5199,179.648,1.62598,-155.874,252
1567594030,322.585,-96.5522,-16.5199,179.648,1.62598,-155.874,252
1567594030,322.585,-96.5522,-16.5199,179.648,1.62598,-155.874,252
1567594030,322.585,-96.5522,-16.5199,179.648,1.604,-155.874,252
1567594030,322.585,-96.5522,-16.5199,179.648,1.604,-155.874,252
1567594030,322.585,-96.5522,-16.5199,179.648,1.604,-155.874,252
1567594030,322.585,-96.5522,-16.5199,179.648,1.604,-155.874,252
1567594030,322.585,-96.5522,-16.5199,179.648,1.604,-155.874,252
1567594030,322.585,-96.6639,-16.5199,179.648,1.604,-155.874,252
1567594030,322.585,-96.6639,-16.5199,179.648,1.604,-155.874,252
1567594030,322.585,-96.6639,-16.5199,179.648,1.604,-155.874,252
1567594030,322.585,-96.6639,-16.5199,179.648,1.604,-155.874,252
1567594030,322.585,-96.6639,-16.5199,179.648,1.604,-155.874,252
1567594030,322.585,-96.6639,-16.5199,179.648,1.604,-155.874,248
1567594030,322.585,-96.6639,-16.5199,179.648,1.604,-155.874,248
1567594030,322.585,-96.6639,-16.5199,179.648,1.604,-155.874,248
1567594030,322.585,-96.6639,-16.5199,179.648,1.604,-155.874,248
1567594030,322.585,-96.6639,-16.5199,179.648,1.604,-155.874,248
1567594030,322.585,-96.6639,-16.5199,179.648,1.604,-155.874,248
1567594030,322.585,-96.6639,-16.5199,179.648,1.604,-155.874,248
1567594030,322.585,-96.6639,-16.5199,179.648,1.604,-155.874,248
1567594030,322.585,-96.6639,-16.5199,179.648,1.604,-155.874,248
1567594030,322.585,-96.6639,-16.5199,179.648,1.604,-155.874,248
1567594030,322.585,-96.6639,-16.5199,179.648,1.604,-155.874,248
1567594030,322.585,-96.6639,-16.5199,179.648,1.604,-155.874,248
1567594030,322.585,-96.6639,-16.5199,179.648,1.604,-155.874,248
1567594030,322.585,-96.6639,-16.5199,179.648,1.604,-155.874,248
1567594030,322.585,-96.6639,-16.5199,179.648,1.604,-155.874,248
1567594030,322.585,-96.6639,-16.5199,179.648,1.604,-155.874,248
1567594030,322.585,-96.6639,-16.5199,179.648,1.604,-155.874,248
1567594030,322.585,-96.5522,-16.5199,179.648,1.604,-155.874,252
1567594030,322.585,-96.5522,-16.5199,179.648,1.604,-155.874,252
1567594030,322.585,-96.5522,-16.5199,179.648,1.604,-155.874,252
1567594030,322.585,-96.5522,-16.5199,179.648,1.604,-155.874,252
1567594030,322.585,-96.5522,-16.5199,179.648,1.604,-155.874,252
1567594030,322.585,-96.5522,-16.5199,179.648,1.604,-155.874,256
1567594030,322.585,-96.5522,-16.5199,179.67,1.604,-155.874,256
1567594030,322.585,-96.5522,-16.5199,179.67,1.604,-155.874,256
1567594030,322.585,-96.5522,-16.5199,179.67,1.604,-155.874,256
1567594030,322.585,-96.5522,-16.5199,179.67,1.604,-155.874,256
1567594030,322.585,-96.5522,-16.5199,179.67,1.604,-155.874,256
1567594030,322.585,-96.5522,-16.5199,179.67,1.604,-155.874,260
1567594030,322.585,-96.5522,-16.5199,179.67,1.604,-155.874,260
1567594030,322.585,-96.5522,-16.5199,179.67,1.604,-155.874,256
1567594030,322.585,-96.5522,-16.5199,179.67,1.604,-155.874,256
1567594030,322.585,-96.5522,-16.5199,179.67,1.604,-155.874,256
1567594030,322.585,-96.5522,-16.5199,179.67,1.604,-155.874,256
1567594030,322.585,-96.5522,-16.5199,179.67,1.604,-155.874,256
1567594030,322.585,-96.5522,-16.5199,179.67,1.604,-155.852,256
1567594030,322.585,-96.5522,-16.5199,179.67,1.604,-155.852,256
