time,x,y,z,ax,ay,az,q
1569661099,285.304,29.9145,-16.7432,179.099,1.25244,-144.932,296
1569661099,285.304,29.9145,-16.7432,179.099,1.25244,-144.932,296
1569661099,285.304,29.9145,-16.7432,179.099,1.25244,-144.932,296
1569661099,285.304,29.9145,-16.7432,179.099,1.25244,-144.932,296
1569661099,285.304,29.9145,-16.7432,179.099,1.25244,-144.932,296
1569661099,285.304,29.9145,-16.7432,179.099,1.25244,-144.932,296
1569661099,285.304,29.9145,-16.7432,179.099,1.25244,-144.932,296
1569661099,285.304,29.9145,-16.7432,179.099,1.25244,-144.932,296
1569661099,285.304,29.9145,-16.7432,179.099,1.25244,-144.932,296
1569661099,285.304,29.9145,-16.7432,179.099,1.25244,-144.932,296
1569661099,285.304,29.9145,-16.7432,179.099,1.25244,-144.932,296
1569661099,285.304,29.9145,-16.7432,179.099,1.25244,-144.932,296
1569661099,285.304,29.9145,-16.7432,179.099,1.25244,-144.932,296
1569661099,285.304,29.9145,-16.7432,179.099,1.25244,-144.932,296
1569661099,285.304,29.9145,-16.7432,179.099,1.25244,-144.932,296
1569661099,285.304,29.9145,-16.7432,179.099,1.25244,-144.932,296
1569661099,285.304,29.9145,-16.7432,179.099,1.25244,-144.932,296
1569661099,285.304,29.9145,-16.7432,179.121,1.25244,-144.932,296
1569661099,285.304,29.9145,-16.7432,179.121,1.25244,-144.932,296
1569661099,285.304,29.9145,-16.7432,179.121,1.25244,-144.932,296
1569661099,285.304,29.9145,-16.7432,179.099,1.25244,-144.932,296
1569661099,285.304,29.9145,-16.7432,179.099,1.25244,-144.932,296
1569661099,285.304,29.9145,-16.7432,179.099,1.25244,-144.932,296
1569661099,285.304,29.9145,-16.7432,179.099,1.25244,-144.932,296
1569661099,285.304,29.9145,-16.7432,179.099,1.25244,-144.932,296
1569661099,285.304,29.9145,-16.7432,179.099,1.25244,-144.932,296
1569661099,285.304,29.9145,-16.7432,179.099,1.25244,-144.932,296
1569661099,285.304,29.9145,-16.7432,179.099,1.25244,-144.932,296
1569661099,285.304,29.9145,-16.7432,179.099,1.25244,-144.932,296
1569661099,285.304,29.9145,-16.7432,179.099,1.25244,-144.932,296
1569661099,285.304,29.9145,-16.7432,179.099,1.25244,-144.932,296
1569661099,285.304,29.9145,-16.7432,179.099,1.25244,-144.932,296
1569661099,285.304,29.9145,-16.7432,179.099,1.25244,-144.932,296
1569661100,285.304,29.9145,-16.7432,179.099,1.25244,-144.932,296
1569661100,285.304,29.9145,-16.7432,179.099,1.25244,-144.932,296
1569661100,285.304,29.9145,-16.7432,179.099,1.25244,-144.932,296
1569661100,285.304,29.9145,-16.7432,179.099,1.25244,-144.932,296
1569661100,285.304,29.9145,-16.7432,179.099,1.25244,-144.932,296
1569661100,285.304,29.9145,-16.7432,179.099,1.25244,-144.932,296
1569661100,285.304,29.9145,-16.7432,179.099,1.25244,-144.932,296
1569661100,285.304,29.9145,-16.7432,179.099,1.25244,-144.932,296
1569661100,285.304,29.9145,-16.7432,179.099,1.25244,-144.932,296
1569661100,285.304,29.9145,-16.7432,179.099,1.25244,-144.932,296
1569661100,285.304,29.9145,-16.7432,179.099,1.25244,-144.932,296
1569661100,285.304,29.9145,-16.7432,179.099,1.25244,-144.932,296
1569661100,285.304,29.9145,-16.7432,179.099,1.25244,-144.932,296
1569661100,285.304,29.9145,-16.7432,179.099,1.25244,-144.932,296
1569661100,285.304,29.9145,-16.7432,179.099,1.25244,-144.932,296
1569661100,285.304,29.9145,-16.7432,179.099,1.25244,-144.932,296
1569661100,285.304,29.9145,-16.7432,179.099,1.25244,-144.932,296
1569661100,285.304,29.9145,-16.7432,179.099,1.25244,-144.932,300
1569661100,285.304,29.9145,-16.7432,179.099,1.25244,-144.932,300
1569661100,285.304,29.9145,-16.7432,179.099,1.25244,-144.932,296
1569661100,285.304,29.9145,-16.7432,179.099,1.25244,-144.932,296
1569661100,285.304,29.9145,-16.7432,179.099,1.25244,-144.932,296
1569661100,285.304,29.9145,-16.7432,179.099,1.25244,-144.932,296
1569661100,285.304,29.9145,-16.7432,179.099,1.25244,-144.932,296
1569661100,285.304,29.9145,-16.7432,179.099,1.25244,-144.932,296
1569661100,285.304,29.9145,-16.7432,179.099,1.25244,-144.932,296
1569661100,285.304,29.9145,-16.7432,179.099,1.25244,-144.932,296
1569661100,285.304,29.9145,-16.7432,179.099,1.25244,-144.932,296
1569661100,285.304,29.9145,-16.7432,179.099,1.25244,-144.932,296
1569661100,285.304,29.9145,-16.7432,179.099,1.25244,-144.932,296
1569661100,285.304,29.9145,-16.7432,179.099,1.25244,-144.932,296
1569661100,285.304,29.9145,-16.7432,179.099,1.25244,-144.932,296
1569661100,285.304,29.9145,-16.7432,179.099,1.25244,-144.932,296
1569661100,285.304,29.9145,-16.7432,179.099,1.25244,-144.932,296
1569661100,285.304,29.9145,-16.7432,179.099,1.25244,-144.932,296
1569661100,285.304,29.9145,-16.7432,179.099,1.25244,-144.932,296
1569661100,285.304,29.9145,-16.7432,179.099,1.25244,-144.932,296
1569661100,285.304,29.9145,-16.7432,179.099,1.25244,-144.932,296
1569661100,285.304,29.9145,-16.7432,179.121,1.25244,-144.932,296
1569661100,285.304,29.9145,-16.7432,179.121,1.25244,-144.932,296
1569661100,285.304,29.9145,-16.7432,179.121,1.25244,-144.932,296
1569661100,285.304,29.9145,-16.7432,179.121,1.25244,-144.932,292
1569661100,285.304,29.9145,-16.7432,179.121,1.25244,-144.932,292
1569661100,285.304,29.9145,-16.7432,179.121,1.25244,-144.932,292
1569661100,285.304,29.9145,-16.7432,179.121,1.25244,-144.932,292
1569661100,285.304,29.9145,-16.7432,179.121,1.25244,-144.932,292
1569661100,285.304,29.9145,-16.7432,179.121,1.25244,-144.932,292
1569661100,285.304,29.9145,-16.7432,179.121,1.25244,-144.932,292
1569661100,285.304,29.9145,-16.7432,179.121,1.25244,-144.932,292
1569661100,285.304,29.9145,-16.7432,179.121,1.25244,-144.932,292
1569661100,285.304,29.9145,-16.7432,179.121,1.25244,-144.932,292
1569661100,285.304,29.9145,-16.7432,179.121,1.25244,-144.932,292
1569661100,285.304,29.9145,-16.7432,179.121,1.25244,-144.932,292
1569661100,285.304,29.9145,-16.7432,179.121,1.25244,-144.932,292
1569661100,285.304,29.9145,-16.7432,179.121,1.25244,-144.932,292
1569661100,285.304,29.9145,-16.7432,179.121,1.25244,-144.932,292
1569661100,285.304,29.9145,-16.7432,179.121,1.25244,-144.932,292
1569661100,285.304,29.9145,-16.7432,179.121,1.25244,-144.932,292
1569661100,285.304,29.9145,-16.7432,179.121,1.25244,-144.932,292
1569661100,285.304,29.9145,-16.7432,179.121,1.25244,-144.932,292
1569661100,285.304,29.9145,-16.7432,179.121,1.25244,-144.932,296
1569661100,285.304,29.9145,-16.7432,179.121,1.25244,-144.932,296
1569661100,285.304,30.0261,-16.7432,179.121,1.25244,-144.932,296
1569661100,285.304,29.9145,-16.7432,179.121,1.25244,-144.932,296
1569661100,285.304,29.9145,-16.7432,179.121,1.25244,-144.932,296
1569661100,285.304,29.9145,-16.7432,179.121,1.25244,-144.932,296
1569661100,285.304,29.9145,-16.7432,179.121,1.25244,-144.932,296
1569661100,285.304,29.9145,-16.7432,179.121,1.25244,-144.932,296
1569661100,285.304,29.9145,-16.7432,179.099,1.25244,-144.932,296
1569661100,285.304,29.9145,-16.7432,179.099,1.25244,-144.932,296
1569661100,285.304,29.9145,-16.7432,179.099,1.25244,-144.932,296
1569661100,285.304,29.9145,-16.7432,179.099,1.25244,-144.932,300
1569661100,285.304,29.9145,-16.7432,179.099,1.25244,-144.932,300
1569661100,285.304,29.9145,-16.7432,179.099,1.25244,-144.932,300
1569661100,285.304,29.9145,-16.7432,179.099,1.25244,-144.932,300
1569661100,285.304,29.9145,-16.7432,179.121,1.25244,-144.932,300
1569661100,285.304,29.9145,-16.7432,179.121,1.25244,-144.932,300
1569661100,285.304,29.9145,-16.7432,179.121,1.25244,-144.932,300
1569661100,285.304,29.9145,-16.7432,179.121,1.25244,-144.932,300
1569661100,285.304,29.9145,-16.7432,179.121,1.25244,-144.932,300
1569661100,285.304,29.9145,-16.7432,179.121,1.25244,-144.932,300
1569661100,285.304,29.9145,-16.7432,179.121,1.25244,-144.932,300
1569661100,285.304,29.9145,-16.7432,179.121,1.25244,-144.932,300
1569661100,285.304,29.9145,-16.7432,179.121,1.25244,-144.932,300
1569661100,285.304,29.9145,-16.7432,179.121,1.25244,-144.932,300
1569661100,285.304,29.9145,-16.7432,179.121,1.25244,-144.954,300
1569661100,285.304,29.9145,-16.7432,179.121,1.25244,-144.954,300
1569661100,285.304,29.9145,-16.7432,179.121,1.25244,-144.954,300
1569661100,285.304,29.9145,-16.7432,179.121,1.25244,-144.954,300
1569661100,285.304,29.9145,-16.7432,179.121,1.25244,-144.954,300
1569661100,285.304,29.9145,-16.7432,179.121,1.25244,-144.932,300
1569661100,285.304,29.9145,-16.7432,179.121,1.25244,-144.932,300
1569661100,285.304,29.9145,-16.7432,179.121,1.25244,-144.932,300
1569661100,285.304,29.9145,-16.7432,179.121,1.25244,-144.932,300
1569661100,285.304,29.9145,-16.7432,179.121,1.25244,-144.932,296
1569661100,285.304,29.9145,-16.7432,179.121,1.25244,-144.932,296
1569661100,285.304,29.9145,-16.7432,179.121,1.25244,-144.932,296
1569661100,285.304,29.9145,-16.7432,179.121,1.25244,-144.932,296
1569661100,285.304,30.0261,-16.7432,179.121,1.25244,-144.932,296
1569661100,285.304,30.0261,-16.7432,179.121,1.25244,-144.932,296
1569661101,285.304,30.0261,-16.7432,179.121,1.25244,-144.932,296
1569661101,285.304,30.0261,-16.7432,179.121,1.25244,-144.932,296
1569661101,285.304,30.0261,-16.7432,179.121,1.25244,-144.932,296
1569661101,285.304,30.0261,-16.7432,179.121,1.25244,-144.932,296
1569661101,285.304,30.0261,-16.7432,179.121,1.25244,-144.932,292
1569661101,285.304,30.0261,-16.7432,179.121,1.25244,-144.932,292
1569661101,285.304,30.0261,-16.7432,179.121,1.25244,-144.932,292
1569661101,285.304,30.0261,-16.7432,179.121,1.25244,-144.932,292
1569661101,285.304,30.0261,-16.7432,179.121,1.25244,-144.932,292
1569661101,285.304,29.9145,-16.7432,179.121,1.25244,-144.932,292
1569661101,285.304,29.9145,-16.7432,179.121,1.25244,-144.932,292
1569661101,285.304,29.9145,-16.7432,179.121,1.25244,-144.932,292
1569661101,285.304,29.9145,-16.7432,179.121,1.25244,-144.932,292
1569661101,285.304,29.9145,-16.7432,179.121,1.25244,-144.932,292
1569661101,285.304,29.9145,-16.7432,179.121,1.25244,-144.932,292
1569661101,285.304,29.9145,-16.7432,179.121,1.25244,-144.932,292
1569661101,285.304,29.9145,-16.7432,179.121,1.25244,-144.932,292
1569661101,285.304,29.9145,-16.7432,179.099,1.25244,-144.932,292
1569661101,285.304,29.9145,-16.7432,179.099,1.25244,-144.932,292
1569661101,285.304,29.9145,-16.7432,179.099,1.25244,-144.932,292
1569661101,285.304,29.9145,-16.7432,179.099,1.25244,-144.932,292
1569661101,285.304,29.9145,-16.7432,179.099,1.25244,-144.932,292
1569661101,285.304,29.9145,-16.7432,179.099,1.25244,-144.932,292
1569661101,285.304,29.9145,-16.7432,179.099,1.25244,-144.932,292
1569661101,285.304,29.9145,-16.7432,179.099,1.25244,-144.932,292
1569661101,285.304,29.9145,-16.7432,179.099,1.25244,-144.932,292
1569661101,285.304,29.9145,-16.7432,179.099,1.25244,-144.932,292
1569661101,285.304,29.9145,-16.7432,179.099,1.25244,-144.932,292
1569661101,285.304,29.9145,-16.7432,179.099,1.25244,-144.932,292
1569661101,285.304,29.9145,-16.7432,179.099,1.25244,-144.932,292
1569661101,285.304,29.9145,-16.7432,179.099,1.25244,-144.932,288
1569661101,285.304,29.9145,-16.7432,179.099,1.25244,-144.932,288
1569661101,285.304,29.9145,-16.7432,179.099,1.25244,-144.932,288
1569661101,285.304,29.9145,-16.7432,179.099,1.25244,-144.932,288
1569661101,285.304,29.9145,-16.7432,179.099,1.25244,-144.932,288
1569661101,285.304,29.9145,-16.7432,179.099,1.25244,-144.932,288
1569661101,285.304,29.9145,-16.7432,179.099,1.25244,-144.932,288
1569661101,285.304,29.9145,-16.7432,179.099,1.25244,-144.932,288
1569661101,285.304,29.9145,-16.7432,179.099,1.25244,-144.932,288
1569661101,285.304,29.9145,-16.7432,179.099,1.25244,-144.932,288
1569661101,285.304,29.9145,-16.7432,179.099,1.25244,-144.932,292
1569661101,285.304,29.9145,-16.7432,179.099,1.25244,-144.932,292
1569661101,285.304,29.9145,-16.7432,179.099,1.25244,-144.932,292
1569661101,285.304,29.9145,-16.7432,179.099,1.25244,-144.932,292
1569661101,285.304,29.9145,-16.7432,179.099,1.25244,-144.932,292
1569661101,285.304,29.9145,-16.7432,179.099,1.25244,-144.932,292
1569661101,285.304,29.9145,-16.7432,179.099,1.25244,-144.932,292
1569661101,285.304,29.9145,-16.7432,179.099,1.25244,-144.932,292
1569661101,285.304,29.9145,-16.7432,179.099,1.25244,-144.932,292
1569661101,285.304,29.9145,-16.7432,179.099,1.25244,-144.932,296
1569661101,285.304,29.9145,-16.7432,179.099,1.25244,-144.932,296
1569661101,285.304,29.9145,-16.7432,179.099,1.25244,-144.932,296
1569661101,285.304,29.9145,-16.7432,179.099,1.25244,-144.932,296
1569661101,285.304,29.9145,-16.7432,179.099,1.25244,-144.932,296
1569661101,285.304,29.9145,-16.7432,179.099,1.23047,-144.932,296
1569661101,285.304,29.9145,-16.7432,179.099,1.23047,-144.932,296
1569661101,285.304,29.9145,-16.7432,179.099,1.23047,-144.932,296
1569661101,285.304,29.9145,-16.7432,179.099,1.23047,-144.932,296
1569661101,285.304,29.9145,-16.7432,179.099,1.23047,-144.932,296
1569661101,285.304,29.9145,-16.7432,179.099,1.23047,-144.932,296
1569661101,285.304,29.9145,-16.7432,179.099,1.23047,-144.932,296
1569661101,285.304,29.9145,-16.7432,179.099,1.23047,-144.932,296
1569661101,285.304,29.9145,-16.7432,179.099,1.23047,-144.932,296
1569661101,285.304,29.9145,-16.7432,179.121,1.23047,-144.932,296
1569661101,285.304,29.9145,-16.7432,179.121,1.23047,-144.932,296
1569661101,285.304,29.9145,-16.7432,179.121,1.23047,-144.932,296
1569661101,285.304,29.9145,-16.7432,179.121,1.23047,-144.932,296
1569661101,285.304,29.9145,-16.7432,179.121,1.23047,-144.932,296
1569661101,285.304,29.9145,-16.7432,179.121,1.23047,-144.932,296
1569661101,285.304,29.9145,-16.7432,179.121,1.23047,-144.932,296
1569661101,285.304,29.9145,-16.7432,179.121,1.25244,-144.932,296
1569661101,285.304,29.9145,-16.7432,179.121,1.25244,-144.932,296
1569661101,285.304,29.9145,-16.7432,179.121,1.25244,-144.932,296
1569661101,285.304,29.9145,-16.7432,179.121,1.25244,-144.932,296
1569661101,285.304,29.9145,-16.7432,179.121,1.25244,-144.932,296
1569661101,285.304,29.9145,-16.7432,179.121,1.25244,-144.932,296
1569661101,285.304,29.9145,-16.7432,179.121,1.25244,-144.932,296
1569661101,285.304,29.9145,-16.7432,179.121,1.25244,-144.932,296
1569661101,285.304,29.9145,-16.7432,179.099,1.25244,-144.932,296
1569661101,285.304,29.9145,-16.7432,179.099,1.25244,-144.932,296
1569661101,285.304,29.9145,-16.7432,179.099,1.25244,-144.932,296
1569661101,285.304,29.9145,-16.7432,179.099,1.25244,-144.932,296
1569661101,285.304,29.9145,-16.7432,179.121,1.25244,-144.932,296
1569661101,285.304,29.9145,-16.7432,179.121,1.25244,-144.932,296
1569661101,285.304,29.9145,-16.7432,179.121,1.25244,-144.932,296
1569661101,285.304,29.9145,-16.7432,179.121,1.25244,-144.932,296
1569661101,285.304,29.9145,-16.7432,179.121,1.25244,-144.932,296
1569661101,285.304,29.9145,-16.7432,179.099,1.25244,-144.932,296
1569661101,285.304,29.9145,-16.7432,179.099,1.25244,-144.932,296
1569661101,285.304,29.9145,-16.7432,179.099,1.25244,-144.932,296
1569661101,285.304,29.9145,-16.7432,179.121,1.25244,-144.932,296
1569661101,285.304,29.9145,-16.7432,179.121,1.25244,-144.932,292
1569661101,285.304,29.9145,-16.7432,179.121,1.25244,-144.932,292
1569661101,285.304,29.9145,-16.7432,179.121,1.25244,-144.932,292
1569661101,285.304,29.9145,-16.7432,179.121,1.25244,-144.932,292
1569661101,285.304,29.9145,-16.7432,179.121,1.25244,-144.932,292
1569661101,285.304,29.9145,-16.7432,179.121,1.25244,-144.932,292
1569661101,285.304,29.9145,-16.7432,179.121,1.25244,-144.932,292
1569661101,285.304,29.9145,-16.7432,179.121,1.25244,-144.932,292
1569661101,285.304,29.9145,-16.7432,179.121,1.25244,-144.932,292
1569661102,285.304,29.9145,-16.7432,179.121,1.25244,-144.932,292
1569661102,285.304,29.9145,-16.7432,179.121,1.25244,-144.932,292
1569661102,285.304,29.9145,-16.7432,179.121,1.25244,-144.932,292
1569661102,285.304,29.9145,-16.7432,179.121,1.25244,-144.932,292
1569661102,285.304,29.9145,-16.7432,179.121,1.25244,-144.932,292
1569661102,285.304,29.9145,-16.7432,179.121,1.23047,-144.932,292
1569661102,285.304,29.9145,-16.7432,179.121,1.23047,-144.932,292
1569661102,285.304,29.9145,-16.7432,179.121,1.23047,-144.932,292
1569661102,285.304,29.9145,-16.7432,179.121,1.23047,-144.932,292
1569661102,285.304,29.9145,-16.7432,179.121,1.23047,-144.932,292
1569661102,285.304,29.9145,-16.7432,179.121,1.23047,-144.932,292
1569661102,285.304,29.9145,-16.7432,179.121,1.23047,-144.932,292
1569661102,285.304,29.9145,-16.7432,179.121,1.23047,-144.932,292
1569661102,285.304,29.9145,-16.7432,179.121,1.23047,-144.932,292
1569661102,285.304,29.9145,-16.7432,179.099,1.23047,-144.932,292
1569661102,285.304,29.9145,-16.7432,179.099,1.23047,-144.932,292
1569661102,285.304,29.9145,-16.7432,179.099,1.23047,-144.932,292
1569661102,285.304,29.9145,-16.7432,179.099,1.23047,-144.932,292
1569661102,285.304,29.9145,-16.7432,179.099,1.23047,-144.932,292
1569661102,285.304,29.9145,-16.7432,179.099,1.23047,-144.932,288
1569661102,285.304,29.9145,-16.7432,179.121,1.23047,-144.932,288
1569661102,285.304,29.9145,-16.7432,179.121,1.23047,-144.932,288
1569661102,285.304,29.9145,-16.7432,179.121,1.23047,-144.932,288
1569661102,285.304,29.9145,-16.7432,179.121,1.23047,-144.932,288
1569661102,285.304,29.9145,-16.7432,179.121,1.23047,-144.932,288
1569661102,285.304,29.9145,-16.7432,179.121,1.23047,-144.932,288
1569661102,285.304,29.9145,-16.7432,179.121,1.25244,-144.932,288
1569661102,285.304,30.0261,-16.7432,179.121,1.25244,-144.932,288
1569661102,285.304,30.0261,-16.7432,179.121,1.25244,-144.932,288
1569661102,285.304,30.0261,-16.7432,179.121,1.25244,-144.932,288
1569661102,285.304,30.0261,-16.7432,179.121,1.25244,-144.932,288
1569661102,285.304,30.0261,-16.7432,179.121,1.25244,-144.932,288
1569661102,285.304,30.0261,-16.7432,179.121,1.25244,-144.932,288
1569661102,285.304,30.0261,-16.7432,179.121,1.25244,-144.932,292
1569661102,285.304,30.0261,-16.7432,179.121,1.25244,-144.932,292
1569661102,285.304,30.0261,-16.7432,179.121,1.25244,-144.932,292
1569661102,285.304,30.0261,-16.7432,179.121,1.25244,-144.932,292
1569661102,285.304,30.0261,-16.7432,179.121,1.25244,-144.932,292
1569661102,285.304,30.0261,-16.7432,179.121,1.25244,-144.932,292
1569661102,285.304,30.0261,-16.7432,179.121,1.25244,-144.932,292
1569661102,285.304,30.0261,-16.7432,179.121,1.25244,-144.932,292
1569661102,285.304,30.0261,-16.7432,179.121,1.25244,-144.932,292
1569661102,285.304,30.0261,-16.7432,179.121,1.25244,-144.932,292
1569661102,285.304,30.0261,-16.7432,179.121,1.25244,-144.932,292
1569661102,285.304,30.0261,-16.7432,179.121,1.25244,-144.932,296
1569661102,285.304,30.0261,-16.7432,179.121,1.25244,-144.932,296
1569661102,285.304,30.0261,-16.7432,179.121,1.25244,-144.932,296
1569661102,285.304,30.0261,-16.7432,179.121,1.25244,-144.932,296
1569661102,285.304,30.0261,-16.7432,179.121,1.25244,-144.932,296
1569661102,285.304,30.0261,-16.7432,179.121,1.25244,-144.932,292
1569661102,285.304,30.0261,-16.7432,179.121,1.25244,-144.932,292
1569661102,285.304,30.0261,-16.7432,179.121,1.25244,-144.932,292
1569661102,285.304,30.0261,-16.7432,179.121,1.25244,-144.932,292
1569661102,285.304,30.0261,-16.7432,179.121,1.25244,-144.932,292
1569661102,285.304,30.0261,-16.7432,179.121,1.25244,-144.932,292
1569661102,285.304,30.0261,-16.7432,179.121,1.23047,-144.932,292
1569661102,285.304,30.0261,-16.7432,179.121,1.23047,-144.932,292
1569661102,285.304,30.0261,-16.7432,179.121,1.23047,-144.932,292
1569661102,285.304,30.0261,-16.7432,179.121,1.25244,-144.932,292
1569661102,285.304,30.0261,-16.7432,179.121,1.25244,-144.932,292
1569661102,285.304,30.0261,-16.7432,179.121,1.25244,-144.932,292
1569661102,285.304,30.0261,-16.7432,179.121,1.25244,-144.932,292
1569661102,285.304,30.0261,-16.7432,179.121,1.25244,-144.932,292
1569661102,285.304,30.0261,-16.7432,179.121,1.25244,-144.932,292
1569661102,285.304,30.0261,-16.7432,179.121,1.25244,-144.932,292
1569661102,285.304,30.0261,-16.7432,179.121,1.25244,-144.932,292
1569661102,285.304,30.0261,-16.7432,179.121,1.25244,-144.932,292
1569661102,285.304,30.0261,-16.7432,179.121,1.25244,-144.932,292
1569661102,285.304,30.0261,-16.7432,179.121,1.25244,-144.932,292
1569661102,285.304,30.0261,-16.7432,179.121,1.25244,-144.932,292
1569661102,285.304,30.0261,-16.7432,179.121,1.25244,-144.932,292
1569661102,285.304,30.0261,-16.7432,179.121,1.25244,-144.932,292
1569661102,285.304,30.0261,-16.7432,179.121,1.25244,-144.932,292
1569661102,285.304,30.0261,-16.7432,179.121,1.25244,-144.932,292
1569661102,285.304,30.0261,-16.7432,179.121,1.25244,-144.932,292
1569661102,285.304,30.0261,-16.7432,179.121,1.25244,-144.932,296
1569661102,285.304,30.0261,-16.7432,179.121,1.25244,-144.932,296
1569661102,285.304,30.0261,-16.7432,179.121,1.25244,-144.932,296
1569661102,285.304,30.0261,-16.7432,179.121,1.25244,-144.932,296
1569661102,285.304,30.0261,-16.7432,179.121,1.25244,-144.932,296
1569661102,285.304,29.9145,-16.7432,179.121,1.25244,-144.932,296
1569661102,285.304,29.9145,-16.7432,179.121,1.25244,-144.932,296
1569661102,285.304,29.9145,-16.7432,179.121,1.25244,-144.932,296
1569661102,285.304,29.9145,-16.7432,179.121,1.25244,-144.932,296
1569661102,285.304,29.9145,-16.7432,179.121,1.25244,-144.932,296
1569661102,285.304,29.9145,-16.7432,179.121,1.25244,-144.932,296
1569661102,285.304,29.9145,-16.7432,179.121,1.25244,-144.932,296
1569661102,285.304,29.9145,-16.7432,179.099,1.25244,-144.932,296
1569661102,285.304,29.9145,-16.7432,179.099,1.25244,-144.932,296
1569661102,285.304,29.9145,-16.7432,179.099,1.25244,-144.932,296
1569661102,285.304,29.9145,-16.7432,179.099,1.25244,-144.932,296
1569661102,285.304,29.9145,-16.6315,179.099,1.25244,-144.932,296
1569661102,285.304,29.9145,-16.6315,179.099,1.25244,-144.932,292
1569661102,285.304,29.9145,-16.6315,179.099,1.25244,-144.932,292
1569661102,285.304,29.9145,-16.6315,179.099,1.25244,-144.932,292
1569661102,285.304,29.9145,-16.6315,179.099,1.25244,-144.932,292
1569661102,285.304,29.9145,-16.6315,179.099,1.25244,-144.932,292
1569661102,285.304,29.9145,-16.7432,179.099,1.25244,-144.932,292
1569661102,285.304,29.9145,-16.7432,179.099,1.25244,-144.932,292
1569661102,285.304,29.9145,-16.7432,179.099,1.25244,-144.932,292
1569661103,285.304,29.9145,-16.7432,179.099,1.25244,-144.932,292
1569661103,285.304,29.9145,-16.7432,179.099,1.25244,-144.932,288
1569661103,285.304,29.9145,-16.7432,179.099,1.25244,-144.932,288
1569661103,285.304,29.9145,-16.7432,179.099,1.25244,-144.932,288
1569661103,285.304,29.9145,-16.7432,179.099,1.25244,-144.932,288
1569661103,285.304,29.9145,-16.7432,179.099,1.25244,-144.932,288
1569661103,285.304,29.9145,-16.7432,179.099,1.25244,-144.932,288
1569661103,285.304,29.9145,-16.7432,179.099,1.25244,-144.932,288
1569661103,285.304,29.9145,-16.7432,179.099,1.25244,-144.932,288
1569661103,285.304,29.9145,-16.7432,179.099,1.25244,-144.932,288
1569661103,285.304,29.9145,-16.7432,179.099,1.25244,-144.932,288
1569661103,285.304,29.9145,-16.7432,179.099,1.25244,-144.932,288
1569661103,285.304,29.9145,-16.7432,179.099,1.25244,-144.932,288
1569661103,285.304,29.9145,-16.7432,179.099,1.25244,-144.932,288
1569661103,285.304,29.9145,-16.7432,179.099,1.25244,-144.932,288
1569661103,285.304,29.9145,-16.7432,179.099,1.25244,-144.932,288
1569661103,285.304,29.9145,-16.7432,179.099,1.25244,-144.932,288
1569661103,285.304,29.9145,-16.7432,179.099,1.25244,-144.932,288
1569661103,285.304,29.9145,-16.7432,179.099,1.25244,-144.932,288
1569661103,285.304,29.9145,-16.7432,179.099,1.25244,-144.932,288
1569661103,285.304,29.9145,-16.7432,179.099,1.25244,-144.932,288
1569661103,285.304,29.9145,-16.7432,179.099,1.25244,-144.932,288
1569661103,285.304,29.9145,-16.7432,179.099,1.25244,-144.932,288
1569661103,285.304,29.9145,-16.7432,179.077,1.25244,-144.932,288
1569661103,285.304,29.9145,-16.7432,179.077,1.25244,-144.932,288
1569661103,285.304,29.9145,-16.7432,179.077,1.25244,-144.932,288
1569661103,285.304,29.9145,-16.7432,179.077,1.25244,-144.932,288
1569661103,285.304,29.9145,-16.7432,179.077,1.25244,-144.932,288
1569661103,285.304,29.9145,-16.7432,179.077,1.25244,-144.932,288
1569661103,285.304,29.9145,-16.7432,179.077,1.25244,-144.932,288
1569661103,285.304,29.9145,-16.7432,179.077,1.25244,-144.932,288
1569661103,285.304,29.9145,-16.7432,179.077,1.25244,-144.932,288
1569661103,285.304,29.9145,-16.7432,179.099,1.25244,-144.932,288
1569661103,285.304,29.9145,-16.7432,179.099,1.25244,-144.932,288
1569661103,285.304,29.9145,-16.7432,179.099,1.25244,-144.932,288
1569661103,285.304,29.9145,-16.7432,179.099,1.23047,-144.932,288
1569661103,285.304,29.9145,-16.7432,179.099,1.23047,-144.932,288
1569661103,285.304,29.9145,-16.7432,179.099,1.23047,-144.932,288
1569661103,285.304,29.9145,-16.7432,179.099,1.23047,-144.932,288
1569661103,285.304,29.9145,-16.7432,179.099,1.23047,-144.932,288
1569661103,285.304,29.9145,-16.7432,179.099,1.23047,-144.932,288
1569661103,285.304,29.9145,-16.7432,179.099,1.23047,-144.932,292
1569661103,285.304,29.9145,-16.7432,179.099,1.23047,-144.932,292
1569661103,285.304,29.9145,-16.7432,179.099,1.23047,-144.932,292
1569661103,285.304,29.9145,-16.7432,179.099,1.25244,-144.932,292
1569661103,285.304,29.9145,-16.7432,179.099,1.25244,-144.932,292
1569661103,285.304,29.9145,-16.7432,179.099,1.25244,-144.932,292
1569661103,285.304,29.9145,-16.7432,179.099,1.25244,-144.932,292
1569661103,285.304,29.9145,-16.7432,179.099,1.25244,-144.932,292
1569661103,285.304,29.9145,-16.7432,179.099,1.25244,-144.932,292
1569661103,285.304,29.9145,-16.7432,179.099,1.25244,-144.932,292
1569661103,285.304,29.9145,-16.7432,179.099,1.25244,-144.932,292
1569661103,285.304,29.9145,-16.7432,179.099,1.25244,-144.932,292
1569661103,285.304,29.9145,-16.7432,179.099,1.25244,-144.932,292
1569661103,285.304,29.9145,-16.7432,179.099,1.25244,-144.932,292
1569661103,285.304,29.9145,-16.7432,179.099,1.25244,-144.932,292
1569661103,285.304,29.9145,-16.7432,179.099,1.25244,-144.932,292
1569661103,285.304,29.9145,-16.7432,179.099,1.25244,-144.932,292
1569661103,285.304,29.9145,-16.7432,179.099,1.25244,-144.932,292
1569661103,285.304,29.9145,-16.7432,179.099,1.25244,-144.932,292
1569661103,285.304,29.9145,-16.7432,179.099,1.25244,-144.932,292
1569661103,285.304,29.9145,-16.7432,179.099,1.25244,-144.932,292
1569661103,285.304,29.9145,-16.7432,179.099,1.25244,-144.932,292
1569661103,285.304,29.9145,-16.7432,179.099,1.25244,-144.932,292
1569661103,285.304,29.9145,-16.7432,179.099,1.25244,-144.932,292
1569661103,285.304,29.9145,-16.7432,179.099,1.25244,-144.932,292
1569661103,285.304,29.9145,-16.7432,179.099,1.25244,-144.932,292
1569661103,285.304,29.9145,-16.7432,179.099,1.25244,-144.932,292
1569661103,285.304,29.9145,-16.7432,179.099,1.25244,-144.932,292
1569661103,285.304,29.9145,-16.7432,179.099,1.25244,-144.932,292
1569661103,285.304,29.9145,-16.7432,179.099,1.25244,-144.932,292
1569661103,285.304,29.9145,-16.7432,179.099,1.25244,-144.954,292
1569661103,285.304,29.9145,-16.7432,179.099,1.25244,-144.954,292
1569661103,285.304,29.9145,-16.7432,179.099,1.25244,-144.954,292
1569661103,285.304,29.9145,-16.7432,179.099,1.25244,-144.954,292
1569661103,285.304,29.9145,-16.7432,179.099,1.25244,-144.954,292
1569661103,285.304,29.9145,-16.7432,179.099,1.25244,-144.954,292
1569661103,285.304,29.9145,-16.7432,179.099,1.25244,-144.954,292
1569661103,285.304,29.9145,-16.7432,179.099,1.25244,-144.954,292
1569661103,285.304,29.9145,-16.7432,179.099,1.25244,-144.954,292
1569661103,285.304,29.9145,-16.7432,179.099,1.25244,-144.954,292
1569661103,285.304,29.9145,-16.7432,179.099,1.25244,-144.954,292
1569661103,285.304,29.9145,-16.7432,179.099,1.25244,-144.954,292
1569661103,285.304,29.9145,-16.7432,179.099,1.25244,-144.954,292
1569661103,285.304,29.9145,-16.7432,179.099,1.25244,-144.954,292
1569661103,285.304,29.9145,-16.7432,179.099,1.25244,-144.954,292
1569661103,285.304,29.9145,-16.7432,179.099,1.25244,-144.954,292
1569661103,285.304,29.9145,-16.7432,179.099,1.25244,-144.954,292
1569661103,285.304,29.9145,-16.7432,179.099,1.25244,-144.954,292
1569661103,285.304,29.9145,-16.7432,179.099,1.25244,-144.954,292
1569661103,285.304,29.9145,-16.7432,179.099,1.25244,-144.954,292
1569661103,285.304,29.9145,-16.7432,179.099,1.25244,-144.954,292
1569661103,285.304,29.9145,-16.7432,179.099,1.25244,-144.954,292
1569661103,285.304,29.9145,-16.7432,179.099,1.25244,-144.932,292
1569661103,285.304,29.9145,-16.7432,179.099,1.25244,-144.932,288
1569661103,285.304,29.9145,-16.7432,179.099,1.25244,-144.932,288
1569661103,285.304,29.9145,-16.7432,179.099,1.25244,-144.932,288
1569661103,285.304,29.9145,-16.7432,179.099,1.25244,-144.932,288
1569661103,285.304,29.9145,-16.7432,179.099,1.25244,-144.932,288
1569661104,285.304,29.9145,-16.7432,179.099,1.25244,-144.932,288
1569661104,285.304,29.9145,-16.7432,179.099,1.25244,-144.932,288
1569661104,285.304,29.9145,-16.7432,179.099,1.25244,-144.932,288
1569661104,285.304,29.9145,-16.7432,179.099,1.25244,-144.932,288
1569661104,285.304,29.9145,-16.7432,179.099,1.25244,-144.932,288
1569661104,285.304,29.9145,-16.7432,179.099,1.25244,-144.932,292
1569661104,285.304,29.9145,-16.7432,179.099,1.25244,-144.932,292
1569661104,285.304,29.9145,-16.7432,179.099,1.25244,-144.932,292
1569661104,285.304,29.9145,-16.7432,179.099,1.25244,-144.932,292
1569661104,285.304,29.9145,-16.7432,179.099,1.25244,-144.932,292
1569661104,285.304,29.9145,-16.7432,179.099,1.25244,-144.932,292
1569661104,285.304,29.9145,-16.7432,179.099,1.25244,-144.932,292
1569661104,285.304,29.9145,-16.7432,179.099,1.25244,-144.932,292
1569661104,285.304,29.9145,-16.7432,179.099,1.25244,-144.932,292
1569661104,285.304,29.9145,-16.7432,179.099,1.25244,-144.932,292
1569661104,285.304,29.9145,-16.7432,179.099,1.25244,-144.932,292
1569661104,285.304,29.9145,-16.7432,179.099,1.25244,-144.932,292
1569661104,285.304,29.9145,-16.7432,179.099,1.25244,-144.932,292
1569661104,285.304,29.9145,-16.7432,179.099,1.25244,-144.932,292
1569661104,285.304,29.9145,-16.7432,179.099,1.25244,-144.932,292
1569661104,285.304,29.9145,-16.7432,179.099,1.25244,-144.932,292
1569661104,285.304,29.9145,-16.7432,179.099,1.25244,-144.932,292
1569661104,285.304,29.9145,-16.7432,179.099,1.25244,-144.932,292
1569661104,285.304,29.9145,-16.7432,179.099,1.25244,-144.932,292
1569661104,285.304,29.9145,-16.7432,179.099,1.25244,-144.932,292
1569661104,285.304,29.9145,-16.7432,179.099,1.25244,-144.932,296
1569661104,285.304,29.9145,-16.7432,179.099,1.25244,-144.932,296
1569661104,285.304,29.9145,-16.7432,179.099,1.25244,-144.932,296
1569661104,285.304,29.9145,-16.7432,179.099,1.25244,-144.932,296
1569661104,285.304,29.9145,-16.7432,179.099,1.25244,-144.932,296
1569661104,285.304,29.9145,-16.7432,179.099,1.25244,-144.954,296
1569661104,285.304,29.9145,-16.7432,179.099,1.25244,-144.954,296
1569661104,285.304,29.9145,-16.7432,179.099,1.25244,-144.954,296
1569661104,285.304,29.9145,-16.7432,179.099,1.25244,-144.954,296
1569661104,285.304,29.9145,-16.7432,179.099,1.25244,-144.954,296
1569661104,285.304,29.9145,-16.7432,179.099,1.25244,-144.954,296
1569661104,285.304,29.9145,-16.7432,179.099,1.25244,-144.954,296
1569661104,285.304,29.9145,-16.7432,179.099,1.25244,-144.954,296
1569661104,285.304,29.9145,-16.7432,179.099,1.25244,-144.954,296
1569661104,285.304,29.9145,-16.7432,179.099,1.25244,-144.954,296
1569661104,285.304,29.9145,-16.7432,179.099,1.25244,-144.954,296
1569661104,285.304,29.9145,-16.7432,179.099,1.25244,-144.954,296
1569661104,285.304,29.9145,-16.7432,179.099,1.25244,-144.954,296
1569661104,285.304,29.9145,-16.7432,179.099,1.25244,-144.954,296
1569661104,285.304,29.9145,-16.7432,179.099,1.25244,-144.954,296
1569661104,285.304,29.9145,-16.7432,179.099,1.25244,-144.954,296
1569661104,285.304,29.9145,-16.7432,179.099,1.25244,-144.954,296
1569661104,285.304,29.9145,-16.7432,179.099,1.25244,-144.954,296
1569661104,285.304,29.9145,-16.7432,179.099,1.25244,-144.954,296
1569661104,285.304,29.9145,-16.7432,179.099,1.25244,-144.954,296
1569661104,285.304,29.9145,-16.7432,179.099,1.25244,-144.954,296
1569661104,285.304,29.9145,-16.7432,179.099,1.25244,-144.954,296
1569661104,285.304,29.9145,-16.7432,179.099,1.25244,-144.932,296
1569661104,285.304,29.9145,-16.7432,179.099,1.25244,-144.932,296
1569661104,285.304,29.9145,-16.7432,179.099,1.25244,-144.932,296
1569661104,285.304,29.9145,-16.7432,179.099,1.25244,-144.932,296
1569661104,285.304,29.9145,-16.7432,179.099,1.25244,-144.932,296
1569661104,285.304,29.9145,-16.7432,179.099,1.25244,-144.932,296
1569661104,285.304,29.9145,-16.7432,179.099,1.25244,-144.932,296
1569661104,285.304,29.9145,-16.7432,179.099,1.25244,-144.932,296
1569661104,285.304,29.9145,-16.7432,179.099,1.25244,-144.932,296
1569661104,285.304,29.9145,-16.7432,179.099,1.25244,-144.932,296
1569661104,285.304,29.9145,-16.7432,179.099,1.25244,-144.932,296
1569661104,285.304,29.9145,-16.7432,179.099,1.25244,-144.932,296
1569661104,285.304,29.9145,-16.7432,179.099,1.25244,-144.932,296
1569661104,285.304,29.9145,-16.7432,179.099,1.25244,-144.932,296
1569661104,285.304,29.9145,-16.7432,179.099,1.25244,-144.932,296
1569661104,285.304,29.9145,-16.7432,179.099,1.25244,-144.932,296
1569661111,300.596,13.5062,-16.7432,179.165,1.03271,-144.712,316
1569661111,300.596,13.5062,-16.7432,179.165,1.03271,-144.712,316
1569661111,300.596,13.5062,-16.7432,179.165,1.03271,-144.712,316
1569661111,300.596,13.5062,-16.7432,179.165,1.03271,-144.712,316
1569661111,300.596,13.5062,-16.7432,179.165,1.03271,-144.712,316
1569661111,300.596,13.5062,-16.7432,179.165,1.03271,-144.712,316
1569661111,300.596,13.5062,-16.7432,179.165,1.03271,-144.712,316
1569661111,300.596,13.5062,-16.7432,179.165,1.03271,-144.712,316
1569661111,300.596,13.5062,-16.7432,179.165,1.03271,-144.712,316
1569661111,300.596,13.5062,-16.7432,179.165,1.03271,-144.712,316
1569661111,300.596,13.5062,-16.7432,179.165,1.03271,-144.712,316
1569661111,300.596,13.5062,-16.7432,179.165,1.03271,-144.712,316
1569661111,300.596,13.5062,-16.7432,179.165,1.03271,-144.712,316
1569661111,300.596,13.5062,-16.7432,179.165,1.03271,-144.712,316
1569661111,300.596,13.5062,-16.7432,179.165,1.03271,-144.712,312
1569661111,300.596,13.5062,-16.7432,179.143,1.03271,-144.712,312
1569661111,300.596,13.5062,-16.7432,179.143,1.03271,-144.712,312
1569661111,300.596,13.5062,-16.7432,179.143,1.03271,-144.712,312
1569661111,300.596,13.5062,-16.7432,179.143,1.03271,-144.712,312
1569661111,300.596,13.5062,-16.7432,179.143,1.03271,-144.712,312
1569661111,300.596,13.5062,-16.7432,179.143,1.03271,-144.712,312
1569661111,300.596,13.5062,-16.7432,179.143,1.03271,-144.712,312
1569661111,300.596,13.5062,-16.7432,179.143,1.03271,-144.712,312
1569661111,300.596,13.5062,-16.7432,179.143,1.03271,-144.712,308
1569661111,300.596,13.5062,-16.7432,179.143,1.03271,-144.712,308
1569661111,300.596,13.5062,-16.7432,179.143,1.03271,-144.712,308
1569661111,300.596,13.5062,-16.7432,179.143,1.03271,-144.712,308
1569661111,300.596,13.5062,-16.7432,179.143,1.03271,-144.712,308
1569661111,300.596,13.5062,-16.7432,179.143,1.03271,-144.712,308
1569661111,300.596,13.5062,-16.7432,179.143,1.03271,-144.712,308
1569661111,300.596,13.5062,-16.7432,179.143,1.03271,-144.712,308
1569661111,300.596,13.5062,-16.7432,179.143,1.03271,-144.712,308
1569661111,300.596,13.5062,-16.7432,179.143,1.03271,-144.712,308
1569661111,300.596,13.5062,-16.7432,179.143,1.03271,-144.712,308
1569661111,300.596,13.5062,-16.7432,179.143,1.03271,-144.712,308
1569661111,300.596,13.5062,-16.8548,179.143,1.03271,-144.712,308
1569661111,300.596,13.5062,-16.8548,179.143,1.03271,-144.712,308
1569661111,300.596,13.5062,-16.8548,179.143,1.03271,-144.712,308
1569661111,300.596,13.5062,-16.8548,179.143,1.03271,-144.712,308
1569661111,300.596,13.5062,-16.8548,179.143,1.03271,-144.712,308
1569661111,300.596,13.5062,-16.8548,179.143,1.03271,-144.712,308
1569661111,300.596,13.5062,-16.8548,179.143,1.03271,-144.712,308
1569661111,300.596,13.5062,-16.8548,179.143,1.03271,-144.712,308
1569661111,300.596,13.5062,-16.8548,179.143,1.03271,-144.712,304
1569661111,300.596,13.5062,-16.8548,179.143,1.03271,-144.712,304
1569661111,300.596,13.5062,-16.8548,179.143,1.03271,-144.712,308
1569661111,300.596,13.5062,-16.8548,179.143,1.03271,-144.712,308
1569661111,300.596,13.5062,-16.8548,179.143,1.03271,-144.712,308
1569661111,300.596,13.5062,-16.8548,179.143,1.03271,-144.712,308
1569661111,300.596,13.5062,-16.8548,179.143,1.03271,-144.712,308
1569661111,300.596,13.5062,-16.8548,179.143,1.03271,-144.712,308
1569661111,300.596,13.5062,-16.8548,179.143,1.03271,-144.712,308
1569661111,300.596,13.5062,-16.8548,179.143,1.03271,-144.712,312
1569661111,300.596,13.5062,-16.8548,179.143,1.03271,-144.712,312
1569661111,300.596,13.5062,-16.8548,179.143,1.03271,-144.712,312
1569661111,300.596,13.5062,-16.8548,179.143,1.03271,-144.712,312
1569661111,300.596,13.5062,-16.8548,179.143,1.03271,-144.712,312
1569661111,300.596,13.5062,-16.8548,179.143,1.03271,-144.712,316
1569661111,300.596,13.5062,-16.8548,179.143,1.03271,-144.712,316
1569661111,300.596,13.5062,-16.8548,179.143,1.03271,-144.712,316
1569661111,300.596,13.5062,-16.8548,179.143,1.03271,-144.712,316
1569661111,300.596,13.5062,-16.8548,179.143,1.03271,-144.712,316
1569661111,300.596,13.5062,-16.8548,179.143,1.03271,-144.712,316
1569661111,300.596,13.5062,-16.8548,179.143,1.03271,-144.712,316
1569661111,300.596,13.5062,-16.8548,179.143,1.01074,-144.712,320
1569661111,300.596,13.5062,-16.8548,179.143,1.01074,-144.712,320
1569661111,300.596,13.5062,-16.8548,179.143,1.01074,-144.712,320
1569661111,300.596,13.5062,-16.8548,179.143,1.01074,-144.712,320
1569661111,300.596,13.5062,-16.8548,179.143,1.01074,-144.712,320
1569661111,300.596,13.5062,-16.8548,179.143,1.01074,-144.712,320
1569661111,300.596,13.5062,-16.8548,179.143,1.01074,-144.712,320
1569661111,300.596,13.5062,-16.8548,179.143,1.01074,-144.712,320
1569661111,300.596,13.5062,-16.8548,179.165,1.01074,-144.712,320
1569661111,300.596,13.5062,-16.8548,179.165,1.01074,-144.712,320
1569661111,300.596,13.5062,-16.8548,179.165,1.01074,-144.712,320
1569661111,300.596,13.5062,-16.8548,179.165,1.01074,-144.712,320
1569661111,300.596,13.5062,-16.8548,179.165,1.01074,-144.712,320
1569661111,300.596,13.5062,-16.8548,179.165,1.01074,-144.712,320
1569661111,300.596,13.5062,-16.8548,179.165,1.01074,-144.712,320
1569661111,300.596,13.5062,-16.8548,179.165,1.01074,-144.712,320
1569661111,300.596,13.5062,-16.8548,179.165,1.01074,-144.712,320
1569661111,300.596,13.5062,-16.8548,179.165,1.01074,-144.712,320
1569661111,300.596,13.5062,-16.8548,179.165,1.01074,-144.712,320
1569661111,300.596,13.5062,-16.8548,179.165,1.01074,-144.712,320
1569661111,300.596,13.5062,-16.8548,179.165,1.01074,-144.712,320
1569661111,300.596,13.5062,-16.8548,179.165,1.01074,-144.712,320
1569661111,300.596,13.5062,-16.8548,179.165,1.01074,-144.712,320
1569661111,300.596,13.5062,-16.8548,179.165,1.01074,-144.712,316
1569661111,300.596,13.5062,-16.8548,179.165,1.01074,-144.712,316
1569661111,300.596,13.5062,-16.8548,179.165,1.01074,-144.712,316
1569661111,300.596,13.5062,-16.8548,179.165,1.01074,-144.712,316
1569661111,300.596,13.5062,-16.8548,179.165,1.01074,-144.712,316
1569661111,300.596,13.5062,-16.8548,179.165,1.01074,-144.712,316
1569661111,300.596,13.5062,-16.8548,179.165,1.01074,-144.712,316
1569661111,300.596,13.5062,-16.8548,179.165,1.01074,-144.712,316
1569661111,300.596,13.5062,-16.8548,179.165,1.01074,-144.712,316
1569661111,300.596,13.5062,-16.8548,179.165,1.01074,-144.712,316
1569661111,300.596,13.5062,-16.8548,179.165,1.01074,-144.712,316
1569661111,300.596,13.5062,-16.8548,179.165,1.01074,-144.712,316
1569661112,300.596,13.5062,-16.8548,179.165,1.01074,-144.712,316
1569661112,300.596,13.5062,-16.8548,179.165,1.01074,-144.712,316
1569661112,300.596,13.5062,-16.8548,179.165,1.01074,-144.712,316
1569661112,300.596,13.5062,-16.8548,179.165,1.01074,-144.712,316
1569661112,300.596,13.5062,-16.8548,179.165,1.01074,-144.712,316
1569661112,300.596,13.5062,-16.8548,179.165,1.01074,-144.712,312
1569661112,300.596,13.5062,-16.8548,179.165,1.01074,-144.712,312
1569661112,300.596,13.5062,-16.8548,179.165,1.01074,-144.712,312
1569661112,300.596,13.5062,-16.8548,179.165,1.01074,-144.712,312
1569661112,300.596,13.5062,-16.8548,179.165,1.01074,-144.712,312
1569661112,300.596,13.5062,-16.8548,179.165,1.01074,-144.712,312
1569661112,300.596,13.5062,-16.8548,179.165,1.01074,-144.712,312
1569661112,300.596,13.5062,-16.8548,179.165,1.01074,-144.712,312
1569661112,300.596,13.5062,-16.8548,179.165,1.01074,-144.712,312
1569661112,300.596,13.5062,-16.8548,179.165,1.01074,-144.712,312
1569661112,300.596,13.5062,-16.8548,179.165,1.01074,-144.712,312
1569661112,300.596,13.5062,-16.8548,179.165,1.01074,-144.712,312
1569661112,300.596,13.5062,-16.8548,179.165,1.01074,-144.712,312
1569661112,300.596,13.5062,-16.8548,179.165,1.01074,-144.712,312
1569661112,300.596,13.5062,-16.8548,179.165,1.03271,-144.712,312
1569661112,300.596,13.5062,-16.8548,179.165,1.03271,-144.712,312
1569661112,300.596,13.5062,-16.8548,179.165,1.03271,-144.712,312
1569661112,300.596,13.5062,-16.8548,179.165,1.03271,-144.712,312
1569661112,300.596,13.5062,-16.8548,179.165,1.03271,-144.712,312
1569661112,300.596,13.5062,-16.8548,179.165,1.03271,-144.712,312
1569661112,300.596,13.5062,-16.8548,179.165,1.03271,-144.712,312
1569661112,300.596,13.5062,-16.7432,179.165,1.03271,-144.712,312
1569661112,300.596,13.5062,-16.7432,179.165,1.03271,-144.712,312
1569661112,300.596,13.5062,-16.7432,179.165,1.03271,-144.712,312
1569661112,300.596,13.5062,-16.7432,179.187,1.03271,-144.712,312
1569661112,300.596,13.5062,-16.7432,179.187,1.03271,-144.712,312
1569661112,300.596,13.5062,-16.7432,179.187,1.03271,-144.712,308
1569661112,300.596,13.5062,-16.7432,179.187,1.03271,-144.712,308
1569661112,300.596,13.5062,-16.7432,179.187,1.03271,-144.712,308
1569661112,300.596,13.5062,-16.7432,179.187,1.03271,-144.712,308
1569661112,300.596,13.5062,-16.7432,179.187,1.03271,-144.712,308
1569661112,300.596,13.5062,-16.7432,179.187,1.03271,-144.712,308
1569661112,300.596,13.5062,-16.7432,179.187,1.03271,-144.712,308
1569661112,300.596,13.6178,-16.7432,179.187,1.03271,-144.712,308
1569661112,300.596,13.6178,-16.7432,179.187,1.03271,-144.712,308
1569661112,300.596,13.6178,-16.7432,179.187,1.03271,-144.712,308
1569661112,300.596,13.6178,-16.7432,179.187,1.03271,-144.712,308
1569661112,300.596,13.6178,-16.7432,179.187,1.03271,-144.712,304
1569661112,300.596,13.6178,-16.7432,179.187,1.03271,-144.712,304
1569661112,300.596,13.6178,-16.7432,179.187,1.03271,-144.712,304
1569661112,300.596,13.5062,-16.7432,179.187,1.03271,-144.712,304
1569661112,300.596,13.5062,-16.7432,179.187,1.03271,-144.712,304
1569661112,300.596,13.5062,-16.7432,179.187,1.03271,-144.712,304
1569661112,300.596,13.5062,-16.7432,179.187,1.03271,-144.712,304
1569661112,300.596,13.5062,-16.7432,179.165,1.03271,-144.712,304
1569661112,300.596,13.5062,-16.7432,179.165,1.03271,-144.712,304
1569661112,300.596,13.5062,-16.7432,179.165,1.03271,-144.712,304
1569661112,300.596,13.5062,-16.7432,179.165,1.03271,-144.712,304
1569661112,300.596,13.5062,-16.7432,179.165,1.03271,-144.712,304
1569661112,300.596,13.5062,-16.7432,179.165,1.03271,-144.712,304
1569661112,300.596,13.5062,-16.7432,179.165,1.03271,-144.712,304
1569661112,300.596,13.5062,-16.7432,179.165,1.03271,-144.712,304
1569661112,300.596,13.5062,-16.7432,179.165,1.03271,-144.712,304
1569661112,300.596,13.5062,-16.7432,179.165,1.03271,-144.712,304
1569661112,300.596,13.5062,-16.7432,179.165,1.03271,-144.712,304
1569661112,300.596,13.5062,-16.7432,179.165,1.03271,-144.712,304
1569661112,300.596,13.5062,-16.7432,179.165,1.03271,-144.712,304
1569661112,300.596,13.5062,-16.7432,179.165,1.03271,-144.712,304
1569661112,300.596,13.5062,-16.7432,179.165,1.03271,-144.712,304
1569661112,300.596,13.5062,-16.7432,179.165,1.03271,-144.712,304
1569661112,300.596,13.5062,-16.7432,179.165,1.03271,-144.712,304
1569661112,300.596,13.5062,-16.7432,179.165,1.03271,-144.712,304
1569661112,300.596,13.5062,-16.7432,179.165,1.03271,-144.712,304
1569661112,300.596,13.5062,-16.7432,179.165,1.03271,-144.712,304
1569661112,300.596,13.5062,-16.8548,179.165,1.03271,-144.712,304
1569661112,300.596,13.5062,-16.8548,179.165,1.01074,-144.712,304
1569661112,300.596,13.5062,-16.8548,179.165,1.01074,-144.712,304
1569661112,300.596,13.5062,-16.8548,179.165,1.01074,-144.712,304
1569661112,300.596,13.5062,-16.8548,179.165,1.01074,-144.712,304
1569661112,300.596,13.5062,-16.8548,179.165,1.01074,-144.712,308
1569661112,300.596,13.5062,-16.8548,179.165,1.01074,-144.712,308
1569661112,300.596,13.5062,-16.8548,179.165,1.01074,-144.712,308
1569661112,300.596,13.5062,-16.8548,179.165,1.01074,-144.712,308
1569661112,300.596,13.5062,-16.8548,179.165,1.01074,-144.69,308
1569661112,300.596,13.5062,-16.8548,179.165,1.01074,-144.69,308
1569661112,300.596,13.5062,-16.8548,179.165,1.01074,-144.69,308
1569661112,300.596,13.5062,-16.8548,179.165,1.01074,-144.69,308
1569661112,300.596,13.5062,-16.8548,179.165,1.01074,-144.69,308
1569661112,300.596,13.5062,-16.8548,179.165,1.01074,-144.69,308
1569661112,300.596,13.5062,-16.8548,179.165,1.01074,-144.69,308
1569661112,300.596,13.5062,-16.8548,179.165,1.01074,-144.69,308
1569661112,300.596,13.5062,-16.8548,179.165,1.01074,-144.712,312
1569661112,300.596,13.5062,-16.8548,179.165,1.01074,-144.712,312
1569661112,300.596,13.5062,-16.8548,179.165,1.01074,-144.712,312
1569661112,300.596,13.5062,-16.8548,179.165,1.01074,-144.712,312
1569661112,300.596,13.5062,-16.8548,179.165,1.03271,-144.712,312
1569661112,300.596,13.5062,-16.8548,179.165,1.03271,-144.712,312
1569661112,300.596,13.5062,-16.8548,179.165,1.03271,-144.712,312
1569661112,300.596,13.5062,-16.8548,179.165,1.03271,-144.712,312
1569661112,300.596,13.5062,-16.8548,179.165,1.03271,-144.712,312
1569661112,300.596,13.5062,-16.8548,179.165,1.03271,-144.712,312
1569661112,300.596,13.5062,-16.8548,179.165,1.03271,-144.712,312
1569661112,300.596,13.5062,-16.7432,179.165,1.03271,-144.712,312
1569661112,300.596,13.5062,-16.7432,179.165,1.03271,-144.712,312
1569661112,300.596,13.5062,-16.7432,179.165,1.03271,-144.712,312
1569661113,300.596,13.5062,-16.7432,179.165,1.03271,-144.69,312
1569661113,300.596,13.5062,-16.7432,179.165,1.03271,-144.69,316
1569661113,300.596,13.5062,-16.7432,179.165,1.03271,-144.69,316
1569661113,300.596,13.5062,-16.7432,179.165,1.03271,-144.69,316
1569661113,300.596,13.5062,-16.7432,179.165,1.03271,-144.69,316
1569661113,300.596,13.5062,-16.7432,179.165,1.03271,-144.69,312
1569661113,300.596,13.5062,-16.7432,179.165,1.03271,-144.69,312
1569661113,300.596,13.5062,-16.7432,179.165,1.03271,-144.69,312
1569661113,300.596,13.5062,-16.7432,179.165,1.03271,-144.69,312
1569661113,300.596,13.5062,-16.7432,179.165,1.03271,-144.69,312
1569661113,300.596,13.5062,-16.7432,179.165,1.03271,-144.69,312
1569661113,300.596,13.5062,-16.7432,179.165,1.03271,-144.69,312
1569661113,300.596,13.5062,-16.7432,179.165,1.03271,-144.69,312
1569661113,300.596,13.5062,-16.7432,179.165,1.03271,-144.69,312
1569661113,300.596,13.5062,-16.7432,179.165,1.03271,-144.69,312
1569661113,300.596,13.5062,-16.7432,179.165,1.03271,-144.69,312
1569661113,300.596,13.5062,-16.7432,179.165,1.03271,-144.69,312
1569661113,300.596,13.5062,-16.7432,179.165,1.03271,-144.69,312
1569661113,300.596,13.5062,-16.7432,179.165,1.03271,-144.69,312
1569661113,300.596,13.5062,-16.7432,179.165,1.03271,-144.69,316
1569661113,300.596,13.5062,-16.7432,179.165,1.03271,-144.69,316
1569661113,300.596,13.5062,-16.7432,179.165,1.03271,-144.69,316
1569661113,300.596,13.5062,-16.7432,179.165,1.03271,-144.69,316
1569661113,300.596,13.5062,-16.7432,179.165,1.03271,-144.69,316
1569661113,300.596,13.5062,-16.7432,179.165,1.03271,-144.69,316
1569661113,300.596,13.5062,-16.7432,179.165,1.03271,-144.69,316
1569661113,300.596,13.5062,-16.7432,179.165,1.03271,-144.69,316
1569661113,300.596,13.5062,-16.7432,179.165,1.03271,-144.69,316
1569661113,300.596,13.5062,-16.7432,179.165,1.03271,-144.69,320
1569661113,300.596,13.5062,-16.7432,179.165,1.03271,-144.712,320
1569661113,300.596,13.5062,-16.7432,179.165,1.03271,-144.712,320
1569661113,300.596,13.5062,-16.7432,179.165,1.03271,-144.712,320
1569661113,300.596,13.5062,-16.8548,179.165,1.03271,-144.712,320
1569661113,300.596,13.5062,-16.8548,179.165,1.03271,-144.712,320
1569661113,300.596,13.5062,-16.7432,179.165,1.03271,-144.712,320
1569661113,300.596,13.5062,-16.7432,179.165,1.03271,-144.712,320
1569661113,300.596,13.5062,-16.7432,179.165,1.03271,-144.712,320
1569661113,300.596,13.5062,-16.7432,179.165,1.03271,-144.712,320
1569661113,300.596,13.5062,-16.7432,179.165,1.03271,-144.712,320
1569661113,300.596,13.5062,-16.7432,179.165,1.03271,-144.712,320
1569661113,300.596,13.5062,-16.7432,179.165,1.03271,-144.712,320
1569661113,300.596,13.5062,-16.7432,179.165,1.03271,-144.712,320
1569661113,300.596,13.5062,-16.7432,179.165,1.03271,-144.712,320
1569661113,300.596,13.5062,-16.7432,179.165,1.03271,-144.712,320
1569661113,300.596,13.5062,-16.7432,179.165,1.03271,-144.712,320
1569661113,300.596,13.5062,-16.7432,179.165,1.03271,-144.712,320
1569661113,300.596,13.5062,-16.7432,179.165,1.03271,-144.712,320
1569661113,300.596,13.5062,-16.7432,179.165,1.03271,-144.712,320
1569661113,300.596,13.5062,-16.7432,179.165,1.03271,-144.712,320
1569661113,300.596,13.5062,-16.7432,179.165,1.03271,-144.712,320
1569661113,300.596,13.5062,-16.7432,179.165,1.03271,-144.712,316
1569661113,300.596,13.5062,-16.7432,179.165,1.03271,-144.712,316
1569661113,300.596,13.5062,-16.7432,179.165,1.03271,-144.712,316
1569661113,300.596,13.5062,-16.7432,179.165,1.03271,-144.712,316
1569661113,300.596,13.5062,-16.7432,179.165,1.03271,-144.712,316
1569661113,300.596,13.5062,-16.7432,179.165,1.03271,-144.712,316
1569661113,300.596,13.5062,-16.7432,179.165,1.03271,-144.712,316
1569661113,300.596,13.5062,-16.7432,179.165,1.03271,-144.712,316
1569661113,300.596,13.5062,-16.7432,179.165,1.03271,-144.712,316
1569661113,300.596,13.5062,-16.7432,179.165,1.03271,-144.712,312
1569661113,300.596,13.5062,-16.7432,179.165,1.03271,-144.712,312
1569661113,300.596,13.5062,-16.7432,179.165,1.03271,-144.712,312
1569661113,300.596,13.5062,-16.7432,179.165,1.03271,-144.712,312
1569661113,300.596,13.5062,-16.7432,179.165,1.03271,-144.712,312
1569661113,300.596,13.5062,-16.7432,179.165,1.03271,-144.712,312
1569661113,300.596,13.5062,-16.7432,179.165,1.03271,-144.712,312
1569661113,300.596,13.5062,-16.7432,179.165,1.03271,-144.712,312
1569661113,300.596,13.5062,-16.7432,179.165,1.03271,-144.712,312
1569661113,300.596,13.5062,-16.7432,179.165,1.03271,-144.712,312
1569661113,300.596,13.5062,-16.7432,179.165,1.03271,-144.712,312
1569661113,300.596,13.5062,-16.7432,179.165,1.03271,-144.712,312
1569661113,300.596,13.5062,-16.7432,179.165,1.05469,-144.712,312
1569661113,300.596,13.5062,-16.7432,179.165,1.05469,-144.712,312
1569661113,300.596,13.5062,-16.7432,179.165,1.05469,-144.712,312
1569661113,300.596,13.5062,-16.7432,179.165,1.05469,-144.712,312
1569661113,300.596,13.5062,-16.7432,179.165,1.03271,-144.712,312
1569661113,300.596,13.5062,-16.7432,179.165,1.03271,-144.712,308
1569661113,300.596,13.5062,-16.7432,179.165,1.03271,-144.712,308
1569661113,300.596,13.5062,-16.7432,179.165,1.03271,-144.712,308
1569661113,300.596,13.5062,-16.7432,179.165,1.03271,-144.712,308
1569661113,300.596,13.5062,-16.7432,179.165,1.03271,-144.712,308
1569661113,300.596,13.5062,-16.7432,179.165,1.03271,-144.712,308
1569661113,300.596,13.5062,-16.7432,179.165,1.03271,-144.712,308
1569661113,300.596,13.5062,-16.7432,179.165,1.03271,-144.712,308
1569661113,300.596,13.5062,-16.7432,179.165,1.03271,-144.712,308
1569661113,300.596,13.5062,-16.7432,179.165,1.03271,-144.712,308
1569661113,300.596,13.5062,-16.7432,179.165,1.03271,-144.712,308
1569661113,300.596,13.5062,-16.7432,179.165,1.03271,-144.712,308
1569661113,300.596,13.5062,-16.7432,179.165,1.03271,-144.712,308
1569661113,300.596,13.5062,-16.7432,179.165,1.03271,-144.712,308
1569661113,300.596,13.5062,-16.7432,179.165,1.03271,-144.712,308
1569661113,300.596,13.5062,-16.7432,179.165,1.03271,-144.712,308
1569661113,300.596,13.5062,-16.7432,179.165,1.03271,-144.712,308
1569661113,300.596,13.5062,-16.7432,179.165,1.03271,-144.712,308
1569661113,300.596,13.5062,-16.7432,179.165,1.03271,-144.712,308
1569661113,300.596,13.5062,-16.7432,179.165,1.03271,-144.712,308
1569661113,300.596,13.5062,-16.7432,179.165,1.03271,-144.712,308
1569661113,300.596,13.5062,-16.7432,179.165,1.03271,-144.712,308
1569661113,300.596,13.5062,-16.7432,179.165,1.03271,-144.712,308
1569661113,300.596,13.5062,-16.7432,179.165,1.03271,-144.712,308
1569661114,300.596,13.5062,-16.7432,179.165,1.03271,-144.712,308
1569661114,300.596,13.5062,-16.7432,179.165,1.03271,-144.712,308
1569661114,300.596,13.5062,-16.7432,179.165,1.03271,-144.712,308
1569661114,300.596,13.5062,-16.7432,179.165,1.03271,-144.712,308
1569661114,300.596,13.5062,-16.7432,179.165,1.03271,-144.712,304
1569661114,300.596,13.5062,-16.7432,179.165,1.03271,-144.712,304
1569661114,300.596,13.5062,-16.7432,179.165,1.03271,-144.712,304
1569661114,300.596,13.5062,-16.7432,179.165,1.03271,-144.712,304
1569661114,300.596,13.5062,-16.7432,179.165,1.03271,-144.712,304
1569661114,300.596,13.5062,-16.7432,179.165,1.03271,-144.712,304
1569661114,300.596,13.5062,-16.7432,179.165,1.03271,-144.712,304
1569661114,300.596,13.5062,-16.7432,179.165,1.03271,-144.712,304
1569661114,300.596,13.5062,-16.7432,179.165,1.03271,-144.712,304
1569661114,300.596,13.5062,-16.7432,179.165,1.03271,-144.712,304
1569661114,300.596,13.5062,-16.7432,179.165,1.03271,-144.712,304
1569661114,300.596,13.5062,-16.7432,179.165,1.03271,-144.712,300
1569661114,300.596,13.5062,-16.7432,179.165,1.03271,-144.712,300
1569661114,300.596,13.5062,-16.7432,179.165,1.03271,-144.712,300
1569661114,300.596,13.5062,-16.7432,179.165,1.03271,-144.712,300
1569661114,300.596,13.5062,-16.7432,179.165,1.03271,-144.712,300
1569661114,300.596,13.5062,-16.7432,179.187,1.03271,-144.712,300
1569661114,300.596,13.5062,-16.7432,179.187,1.03271,-144.712,300
1569661114,300.596,13.5062,-16.7432,179.187,1.03271,-144.712,300
1569661114,300.596,13.5062,-16.7432,179.187,1.03271,-144.712,300
1569661114,300.596,13.5062,-16.7432,179.187,1.03271,-144.712,300
1569661114,300.596,13.5062,-16.7432,179.187,1.03271,-144.712,300
1569661114,300.596,13.5062,-16.7432,179.187,1.03271,-144.712,300
1569661114,300.596,13.6178,-16.7432,179.187,1.03271,-144.712,300
1569661114,300.596,13.6178,-16.7432,179.187,1.03271,-144.712,300
1569661114,300.596,13.6178,-16.7432,179.187,1.03271,-144.712,300
1569661114,300.596,13.6178,-16.7432,179.187,1.03271,-144.712,300
1569661114,300.596,13.6178,-16.7432,179.187,1.03271,-144.712,300
1569661114,300.596,13.6178,-16.7432,179.187,1.03271,-144.712,300
1569661114,300.596,13.6178,-16.7432,179.187,1.03271,-144.712,300
1569661114,300.596,13.6178,-16.7432,179.187,1.03271,-144.712,300
1569661114,300.596,13.6178,-16.7432,179.187,1.03271,-144.712,300
1569661114,300.596,13.6178,-16.7432,179.187,1.03271,-144.712,300
1569661114,300.596,13.6178,-16.7432,179.187,1.03271,-144.712,300
1569661114,300.596,13.6178,-16.7432,179.187,1.03271,-144.712,300
1569661114,300.596,13.6178,-16.7432,179.187,1.03271,-144.712,300
1569661114,300.596,13.6178,-16.7432,179.187,1.03271,-144.712,300
1569661114,300.596,13.5062,-16.7432,179.187,1.03271,-144.712,300
1569661114,300.596,13.5062,-16.7432,179.187,1.03271,-144.712,300
1569661114,300.596,13.5062,-16.7432,179.187,1.03271,-144.712,300
1569661114,300.596,13.5062,-16.7432,179.187,1.03271,-144.712,300
1569661114,300.596,13.5062,-16.7432,179.187,1.03271,-144.712,300
1569661114,300.596,13.5062,-16.7432,179.187,1.03271,-144.712,300
1569661114,300.596,13.5062,-16.7432,179.187,1.03271,-144.712,300
1569661114,300.596,13.5062,-16.7432,179.187,1.03271,-144.712,300
1569661114,300.596,13.5062,-16.7432,179.187,1.03271,-144.712,300
1569661114,300.596,13.5062,-16.7432,179.165,1.03271,-144.712,300
1569661114,300.596,13.5062,-16.7432,179.165,1.03271,-144.712,300
1569661114,300.596,13.5062,-16.7432,179.165,1.03271,-144.712,300
1569661114,300.596,13.5062,-16.7432,179.165,1.03271,-144.712,300
1569661114,300.596,13.5062,-16.7432,179.165,1.03271,-144.69,300
1569661114,300.596,13.5062,-16.7432,179.165,1.03271,-144.69,300
1569661114,300.596,13.5062,-16.7432,179.165,1.03271,-144.69,300
1569661114,300.596,13.5062,-16.7432,179.165,1.03271,-144.69,300
1569661114,300.596,13.5062,-16.7432,179.165,1.03271,-144.69,300
1569661114,300.596,13.5062,-16.7432,179.165,1.03271,-144.69,300
1569661114,300.596,13.5062,-16.7432,179.165,1.03271,-144.69,300
1569661114,300.596,13.5062,-16.7432,179.165,1.03271,-144.69,300
1569661114,300.596,13.5062,-16.7432,179.165,1.03271,-144.69,300
1569661114,300.596,13.5062,-16.7432,179.165,1.03271,-144.69,300
1569661114,300.596,13.5062,-16.7432,179.165,1.03271,-144.69,300
1569661114,300.596,13.5062,-16.7432,179.165,1.03271,-144.69,300
1569661114,300.596,13.5062,-16.7432,179.165,1.03271,-144.69,300
1569661114,300.596,13.5062,-16.7432,179.165,1.03271,-144.69,300
1569661114,300.596,13.5062,-16.7432,179.165,1.03271,-144.69,300
1569661114,300.596,13.5062,-16.7432,179.165,1.03271,-144.69,300
1569661114,300.596,13.5062,-16.7432,179.165,1.03271,-144.712,296
1569661114,300.596,13.5062,-16.7432,179.165,1.03271,-144.712,296
1569661114,300.596,13.5062,-16.7432,179.165,1.03271,-144.712,296
1569661114,300.596,13.5062,-16.7432,179.165,1.03271,-144.712,296
1569661114,300.596,13.5062,-16.7432,179.165,1.03271,-144.712,296
1569661114,300.596,13.5062,-16.7432,179.165,1.03271,-144.712,300
1569661114,300.596,13.5062,-16.7432,179.165,1.03271,-144.712,300
1569661114,300.596,13.5062,-16.7432,179.165,1.03271,-144.712,300
1569661114,300.596,13.5062,-16.7432,179.165,1.03271,-144.712,300
1569661114,300.596,13.5062,-16.7432,179.165,1.03271,-144.712,300
1569661114,300.596,13.5062,-16.7432,179.165,1.03271,-144.712,300
1569661114,300.596,13.5062,-16.7432,179.165,1.03271,-144.712,300
1569661114,300.596,13.5062,-16.7432,179.165,1.03271,-144.712,300
1569661114,300.596,13.5062,-16.7432,179.165,1.03271,-144.712,300
1569661114,300.596,13.5062,-16.7432,179.165,1.03271,-144.712,304
1569661114,300.596,13.5062,-16.7432,179.165,1.03271,-144.712,304
1569661114,300.596,13.5062,-16.7432,179.165,1.03271,-144.712,304
1569661114,300.596,13.5062,-16.7432,179.165,1.03271,-144.712,304
1569661114,300.596,13.5062,-16.7432,179.165,1.03271,-144.712,304
1569661114,300.596,13.5062,-16.7432,179.165,1.03271,-144.712,304
1569661114,300.596,13.5062,-16.7432,179.165,1.03271,-144.712,304
1569661114,300.596,13.5062,-16.7432,179.165,1.03271,-144.712,304
1569661114,300.596,13.5062,-16.7432,179.165,1.03271,-144.712,304
1569661114,300.596,13.5062,-16.7432,179.165,1.03271,-144.712,304
1569661114,300.596,13.5062,-16.7432,179.165,1.03271,-144.712,304
1569661114,300.596,13.5062,-16.7432,179.165,1.03271,-144.712,304
1569661114,300.596,13.5062,-16.7432,179.165,1.03271,-144.712,304
1569661114,300.596,13.5062,-16.7432,179.165,1.03271,-144.712,308
1569661114,300.596,13.5062,-16.7432,179.165,1.03271,-144.712,308
1569661114,300.596,13.5062,-16.7432,179.165,1.03271,-144.712,308
1569661115,300.596,13.5062,-16.7432,179.165,1.03271,-144.712,308
1569661115,300.596,13.5062,-16.7432,179.165,1.03271,-144.712,308
1569661115,300.596,13.5062,-16.7432,179.165,1.03271,-144.712,308
1569661115,300.596,13.5062,-16.8548,179.165,1.03271,-144.712,312
1569661115,300.596,13.5062,-16.8548,179.165,1.03271,-144.712,312
1569661115,300.596,13.5062,-16.8548,179.165,1.03271,-144.712,312
1569661115,300.596,13.5062,-16.8548,179.165,1.03271,-144.712,312
1569661115,300.596,13.5062,-16.8548,179.165,1.03271,-144.712,312
1569661115,300.596,13.5062,-16.8548,179.165,1.03271,-144.712,312
1569661115,300.596,13.5062,-16.8548,179.165,1.03271,-144.712,316
1569661115,300.596,13.5062,-16.8548,179.165,1.03271,-144.712,316
1569661115,300.596,13.5062,-16.8548,179.165,1.03271,-144.712,316
1569661115,300.596,13.5062,-16.8548,179.165,1.03271,-144.712,316
1569661115,300.596,13.5062,-16.7432,179.165,1.03271,-144.712,316
1569661115,300.596,13.5062,-16.7432,179.165,1.03271,-144.712,316
1569661115,300.596,13.5062,-16.7432,179.165,1.03271,-144.712,316
1569661115,300.596,13.5062,-16.7432,179.165,1.03271,-144.712,316
1569661115,300.596,13.5062,-16.7432,179.165,1.03271,-144.712,316
1569661115,300.596,13.5062,-16.7432,179.165,1.03271,-144.712,316
1569661115,300.596,13.5062,-16.7432,179.165,1.03271,-144.712,316
1569661115,300.596,13.5062,-16.7432,179.165,1.03271,-144.712,316
1569661115,300.596,13.5062,-16.7432,179.165,1.03271,-144.712,316
1569661115,300.596,13.5062,-16.7432,179.165,1.03271,-144.712,316
1569661115,300.596,13.5062,-16.7432,179.165,1.03271,-144.712,316
1569661115,300.596,13.5062,-16.7432,179.165,1.03271,-144.712,316
1569661115,300.596,13.5062,-16.7432,179.165,1.03271,-144.712,316
1569661115,300.596,13.5062,-16.7432,179.165,1.03271,-144.712,316
1569661115,300.596,13.5062,-16.7432,179.165,1.03271,-144.712,316
1569661115,300.596,13.5062,-16.7432,179.165,1.03271,-144.712,316
1569661115,300.596,13.5062,-16.7432,179.165,1.03271,-144.712,316
1569661115,300.596,13.5062,-16.7432,179.165,1.03271,-144.712,316
1569661115,300.596,13.5062,-16.7432,179.165,1.03271,-144.712,316
1569661115,300.596,13.5062,-16.7432,179.165,1.03271,-144.712,316
1569661115,300.596,13.5062,-16.7432,179.165,1.03271,-144.712,316
1569661115,300.596,13.5062,-16.7432,179.165,1.03271,-144.712,316
1569661115,300.596,13.5062,-16.7432,179.165,1.03271,-144.712,316
1569661115,300.596,13.5062,-16.7432,179.165,1.03271,-144.712,316
1569661115,300.596,13.5062,-16.7432,179.165,1.03271,-144.712,316
1569661115,300.596,13.5062,-16.7432,179.165,1.03271,-144.712,316
1569661115,300.596,13.5062,-16.7432,179.165,1.03271,-144.712,316
1569661115,300.596,13.5062,-16.7432,179.165,1.03271,-144.712,316
1569661115,300.596,13.5062,-16.7432,179.165,1.03271,-144.712,316
1569661115,300.596,13.5062,-16.7432,179.165,1.05469,-144.712,316
1569661115,300.596,13.5062,-16.7432,179.165,1.05469,-144.712,316
1569661115,300.596,13.5062,-16.7432,179.165,1.05469,-144.712,316
1569661115,300.596,13.5062,-16.7432,179.165,1.05469,-144.712,316
1569661115,300.596,13.5062,-16.7432,179.165,1.05469,-144.712,316
1569661115,300.596,13.5062,-16.7432,179.165,1.05469,-144.712,316
1569661115,300.596,13.5062,-16.7432,179.165,1.05469,-144.712,316
1569661115,300.596,13.5062,-16.7432,179.165,1.05469,-144.712,316
1569661115,300.596,13.5062,-16.7432,179.165,1.05469,-144.712,316
1569661115,300.596,13.5062,-16.7432,179.165,1.05469,-144.712,312
1569661115,300.596,13.5062,-16.7432,179.165,1.05469,-144.712,312
1569661115,300.596,13.5062,-16.7432,179.165,1.05469,-144.712,312
1569661115,300.596,13.5062,-16.7432,179.165,1.05469,-144.712,312
1569661115,300.596,13.5062,-16.7432,179.165,1.05469,-144.712,312
1569661115,300.596,13.5062,-16.7432,179.165,1.05469,-144.712,312
1569661115,300.596,13.5062,-16.7432,179.165,1.05469,-144.712,312
1569661115,300.596,13.5062,-16.7432,179.165,1.05469,-144.712,312
1569661115,300.596,13.5062,-16.7432,179.165,1.05469,-144.712,312
1569661115,300.596,13.5062,-16.7432,179.165,1.05469,-144.712,308
1569661115,300.596,13.5062,-16.7432,179.165,1.05469,-144.712,308
1569661115,300.596,13.5062,-16.7432,179.165,1.05469,-144.712,308
1569661115,300.596,13.5062,-16.7432,179.165,1.05469,-144.712,308
1569661115,300.596,13.5062,-16.7432,179.165,1.05469,-144.712,312
1569661115,300.596,13.5062,-16.7432,179.165,1.05469,-144.712,312
1569661115,300.596,13.5062,-16.7432,179.165,1.05469,-144.712,312
1569661115,300.596,13.5062,-16.7432,179.165,1.05469,-144.712,312
1569661115,300.596,13.5062,-16.7432,179.165,1.05469,-144.712,312
1569661115,300.596,13.5062,-16.7432,179.165,1.05469,-144.712,312
1569661115,300.596,13.5062,-16.7432,179.165,1.05469,-144.712,312
1569661115,300.596,13.5062,-16.7432,179.165,1.05469,-144.712,312
1569661115,300.596,13.5062,-16.7432,179.165,1.05469,-144.712,312
1569661115,300.596,13.5062,-16.7432,179.165,1.03271,-144.712,312
1569661115,300.596,13.5062,-16.7432,179.165,1.03271,-144.712,312
1569661115,300.596,13.5062,-16.7432,179.165,1.03271,-144.712,312
1569661115,300.596,13.5062,-16.7432,179.165,1.03271,-144.712,312
1569661115,300.596,13.5062,-16.7432,179.165,1.03271,-144.712,312
1569661115,300.596,13.5062,-16.7432,179.165,1.03271,-144.712,312
1569661115,300.596,13.5062,-16.7432,179.165,1.03271,-144.712,312
1569661115,300.596,13.5062,-16.7432,179.165,1.03271,-144.712,312
1569661115,300.596,13.5062,-16.7432,179.165,1.03271,-144.712,312
1569661115,300.596,13.5062,-16.7432,179.165,1.03271,-144.712,312
1569661115,300.596,13.5062,-16.7432,179.165,1.03271,-144.712,312
1569661115,300.596,13.5062,-16.7432,179.165,1.03271,-144.712,312
1569661115,300.596,13.5062,-16.7432,179.165,1.03271,-144.712,312
1569661115,300.596,13.5062,-16.7432,179.165,1.03271,-144.712,312
1569661115,300.596,13.5062,-16.7432,179.165,1.03271,-144.712,312
1569661115,300.596,13.5062,-16.7432,179.165,1.03271,-144.712,312
1569661115,300.596,13.5062,-16.7432,179.165,1.03271,-144.712,312
1569661115,300.596,13.5062,-16.7432,179.165,1.03271,-144.712,312
1569661115,300.596,13.5062,-16.7432,179.165,1.03271,-144.712,312
1569661115,300.596,13.5062,-16.7432,179.165,1.03271,-144.712,312
1569661115,300.596,13.5062,-16.7432,179.165,1.03271,-144.712,312
1569661115,300.596,13.5062,-16.7432,179.165,1.03271,-144.712,312
1569661115,300.596,13.5062,-16.7432,179.165,1.03271,-144.712,312
1569661115,300.596,13.5062,-16.7432,179.165,1.03271,-144.712,312
1569661115,300.596,13.5062,-16.7432,179.165,1.03271,-144.712,312
1569661115,300.484,13.5062,-16.7432,179.165,1.03271,-144.712,316
1569661115,300.484,13.5062,-16.7432,179.165,1.03271,-144.712,316
1569661116,300.484,13.5062,-16.8548,179.165,1.03271,-144.712,316
1569661123,323.701,-10.9389,-16.4083,179.187,1.29639,-144.976,356
1569661123,323.701,-10.9389,-16.4083,179.187,1.29639,-144.976,356
1569661123,323.701,-10.9389,-16.4083,179.187,1.29639,-144.976,356
1569661123,323.701,-10.9389,-16.4083,179.187,1.29639,-144.976,356
1569661123,323.701,-10.9389,-16.4083,179.187,1.29639,-144.976,356
1569661123,323.701,-10.9389,-16.4083,179.209,1.29639,-144.976,356
1569661123,323.701,-10.9389,-16.4083,179.209,1.29639,-144.976,360
1569661123,323.701,-10.9389,-16.4083,179.209,1.29639,-144.976,360
1569661123,323.701,-10.9389,-16.4083,179.209,1.29639,-144.976,360
1569661123,323.701,-10.9389,-16.4083,179.209,1.29639,-144.976,360
1569661123,323.701,-10.9389,-16.4083,179.209,1.29639,-144.976,360
1569661123,323.701,-10.9389,-16.4083,179.187,1.29639,-144.998,360
1569661123,323.701,-10.9389,-16.4083,179.187,1.29639,-144.998,360
1569661123,323.701,-10.9389,-16.4083,179.187,1.29639,-144.998,360
1569661123,323.701,-10.9389,-16.4083,179.187,1.29639,-144.998,360
1569661123,323.701,-10.9389,-16.4083,179.187,1.29639,-144.998,356
1569661123,323.701,-10.9389,-16.4083,179.187,1.29639,-144.998,356
1569661123,323.701,-10.9389,-16.4083,179.187,1.29639,-144.998,356
1569661123,323.701,-10.9389,-16.4083,179.209,1.29639,-144.976,356
1569661123,323.701,-10.9389,-16.4083,179.209,1.29639,-144.976,356
1569661123,323.701,-10.9389,-16.4083,179.209,1.29639,-144.976,356
1569661123,323.701,-10.9389,-16.4083,179.209,1.29639,-144.976,356
1569661123,323.701,-10.9389,-16.4083,179.209,1.29639,-144.976,356
1569661123,323.701,-10.9389,-16.4083,179.209,1.29639,-144.976,356
1569661123,323.701,-10.9389,-16.4083,179.209,1.29639,-144.976,356
1569661123,323.701,-10.9389,-16.4083,179.209,1.29639,-144.976,356
1569661123,323.701,-10.9389,-16.4083,179.209,1.27441,-144.976,356
1569661123,323.701,-10.9389,-16.4083,179.209,1.27441,-144.976,356
1569661123,323.701,-10.9389,-16.4083,179.209,1.27441,-144.976,356
1569661123,323.701,-10.9389,-16.4083,179.209,1.27441,-144.976,356
1569661123,323.701,-10.9389,-16.4083,179.209,1.27441,-144.976,356
1569661123,323.701,-10.9389,-16.4083,179.209,1.27441,-144.976,356
1569661123,323.701,-10.9389,-16.4083,179.209,1.27441,-144.976,356
1569661123,323.701,-10.9389,-16.4083,179.209,1.27441,-144.976,356
1569661123,323.701,-10.9389,-16.4083,179.209,1.27441,-144.976,356
1569661123,323.701,-10.9389,-16.4083,179.209,1.27441,-144.976,356
1569661123,323.701,-10.9389,-16.4083,179.209,1.27441,-144.976,356
1569661123,323.701,-10.9389,-16.4083,179.209,1.27441,-144.976,356
1569661123,323.701,-10.9389,-16.4083,179.209,1.27441,-144.976,356
1569661123,323.701,-10.9389,-16.4083,179.209,1.27441,-144.976,356
1569661123,323.701,-10.9389,-16.4083,179.209,1.29639,-144.976,356
1569661123,323.701,-10.9389,-16.4083,179.209,1.29639,-144.976,360
1569661123,323.701,-10.9389,-16.4083,179.209,1.29639,-144.976,360
1569661123,323.701,-10.9389,-16.4083,179.209,1.29639,-144.976,360
1569661123,323.701,-10.9389,-16.4083,179.209,1.29639,-144.976,360
1569661123,323.701,-10.9389,-16.4083,179.209,1.27441,-144.976,360
1569661123,323.701,-10.9389,-16.4083,179.209,1.27441,-144.976,360
1569661123,323.701,-10.9389,-16.4083,179.209,1.27441,-144.976,360
1569661123,323.701,-10.9389,-16.4083,179.209,1.27441,-144.976,360
1569661123,323.701,-10.9389,-16.4083,179.209,1.27441,-144.976,356
1569661123,323.701,-10.9389,-16.4083,179.209,1.27441,-144.976,356
1569661123,323.701,-10.9389,-16.4083,179.209,1.27441,-144.976,356
1569661123,323.701,-10.9389,-16.4083,179.209,1.27441,-144.976,356
1569661123,323.701,-10.9389,-16.4083,179.209,1.27441,-144.976,356
1569661123,323.701,-10.9389,-16.4083,179.209,1.27441,-144.976,356
1569661123,323.701,-10.9389,-16.4083,179.209,1.27441,-144.976,356
1569661123,323.701,-10.9389,-16.4083,179.209,1.27441,-144.976,356
1569661123,323.701,-10.9389,-16.4083,179.209,1.27441,-144.976,356
1569661123,323.701,-10.9389,-16.4083,179.209,1.27441,-144.976,356
1569661123,323.701,-10.9389,-16.4083,179.209,1.27441,-144.976,356
1569661123,323.701,-10.9389,-16.4083,179.209,1.27441,-144.976,356
1569661123,323.701,-10.9389,-16.4083,179.209,1.27441,-144.976,356
1569661123,323.701,-10.9389,-16.4083,179.209,1.27441,-144.976,356
1569661123,323.701,-10.9389,-16.4083,179.209,1.27441,-144.976,356
1569661123,323.701,-10.9389,-16.4083,179.209,1.27441,-144.976,356
1569661123,323.701,-10.9389,-16.4083,179.209,1.27441,-144.976,356
1569661123,323.701,-10.9389,-16.4083,179.209,1.27441,-144.976,356
1569661123,323.701,-10.9389,-16.4083,179.209,1.27441,-144.976,356
1569661124,323.701,-10.9389,-16.4083,179.209,1.27441,-144.976,360
1569661124,323.701,-10.9389,-16.4083,179.209,1.27441,-144.976,360
1569661124,323.701,-10.9389,-16.4083,179.209,1.27441,-144.976,360
1569661124,323.701,-10.9389,-16.4083,179.209,1.27441,-144.976,360
1569661124,323.701,-10.9389,-16.4083,179.209,1.27441,-144.976,360
1569661124,323.701,-10.9389,-16.4083,179.209,1.27441,-144.976,360
1569661124,323.701,-10.9389,-16.4083,179.209,1.27441,-144.976,360
1569661124,323.701,-10.9389,-16.4083,179.209,1.27441,-144.976,360
1569661124,323.701,-10.9389,-16.4083,179.209,1.27441,-144.976,360
1569661124,323.701,-10.9389,-16.4083,179.209,1.27441,-144.976,360
1569661124,323.701,-10.9389,-16.4083,179.209,1.27441,-144.976,360
1569661124,323.701,-10.9389,-16.4083,179.209,1.27441,-144.976,360
1569661124,323.701,-10.9389,-16.4083,179.209,1.27441,-144.976,360
1569661124,323.701,-10.9389,-16.4083,179.187,1.27441,-144.976,360
1569661124,323.701,-10.9389,-16.4083,179.187,1.27441,-144.976,360
1569661124,323.701,-10.9389,-16.4083,179.187,1.27441,-144.976,360
1569661124,323.701,-10.9389,-16.4083,179.187,1.27441,-144.976,360
1569661124,323.701,-10.9389,-16.4083,179.187,1.27441,-144.976,356
1569661124,323.701,-10.9389,-16.4083,179.187,1.27441,-144.976,356
1569661124,323.701,-10.9389,-16.4083,179.187,1.27441,-144.976,356
1569661124,323.701,-10.9389,-16.4083,179.187,1.27441,-144.976,356
1569661124,323.701,-10.9389,-16.4083,179.187,1.27441,-144.976,356
1569661124,323.701,-10.9389,-16.4083,179.209,1.27441,-144.976,356
1569661124,323.701,-10.9389,-16.4083,179.209,1.27441,-144.976,356
1569661124,323.701,-10.9389,-16.4083,179.209,1.27441,-144.976,356
1569661124,323.701,-10.9389,-16.4083,179.209,1.27441,-144.976,356
1569661124,323.701,-10.9389,-16.4083,179.209,1.27441,-144.976,356
1569661124,323.701,-10.9389,-16.4083,179.209,1.27441,-144.976,356
1569661124,323.701,-10.9389,-16.4083,179.209,1.27441,-144.976,356
1569661124,323.701,-10.9389,-16.4083,179.209,1.27441,-144.976,356
1569661124,323.701,-10.9389,-16.4083,179.209,1.27441,-144.976,356
1569661124,323.701,-10.9389,-16.4083,179.209,1.27441,-144.976,356
1569661124,323.701,-10.9389,-16.5199,179.209,1.27441,-144.976,356
1569661124,323.701,-10.9389,-16.5199,179.209,1.27441,-144.976,356
1569661124,323.701,-10.9389,-16.5199,179.209,1.27441,-144.976,356
1569661124,323.701,-10.9389,-16.5199,179.209,1.27441,-144.976,356
1569661124,323.701,-10.9389,-16.5199,179.209,1.27441,-144.976,356
1569661124,323.701,-10.9389,-16.5199,179.209,1.27441,-144.976,356
1569661124,323.701,-10.9389,-16.5199,179.209,1.27441,-144.976,352
1569661124,323.701,-10.9389,-16.5199,179.209,1.27441,-144.976,352
1569661124,323.701,-10.9389,-16.5199,179.209,1.27441,-144.976,352
1569661124,323.701,-10.9389,-16.5199,179.209,1.27441,-144.976,352
1569661124,323.701,-10.9389,-16.5199,179.209,1.27441,-144.976,352
1569661124,323.701,-10.9389,-16.5199,179.209,1.27441,-144.976,352
1569661124,323.701,-10.9389,-16.5199,179.209,1.27441,-144.976,352
1569661124,323.701,-10.9389,-16.5199,179.209,1.27441,-144.976,352
1569661124,323.701,-10.9389,-16.5199,179.209,1.27441,-144.976,352
1569661124,323.701,-10.9389,-16.5199,179.231,1.27441,-144.976,352
1569661124,323.701,-10.9389,-16.5199,179.231,1.27441,-144.976,352
1569661124,323.701,-10.9389,-16.5199,179.231,1.27441,-144.976,352
1569661124,323.701,-10.9389,-16.5199,179.231,1.27441,-144.976,352
1569661124,323.701,-10.9389,-16.5199,179.231,1.27441,-144.976,352
1569661124,323.701,-10.9389,-16.5199,179.231,1.27441,-144.976,352
1569661124,323.701,-10.9389,-16.5199,179.231,1.27441,-144.976,352
1569661124,323.701,-10.9389,-16.5199,179.231,1.27441,-144.976,352
1569661124,323.701,-10.9389,-16.5199,179.231,1.27441,-144.976,352
1569661124,323.701,-10.9389,-16.5199,179.231,1.27441,-144.976,352
1569661124,323.701,-10.9389,-16.5199,179.231,1.27441,-144.976,352
1569661124,323.701,-10.9389,-16.5199,179.231,1.27441,-144.976,352
1569661124,323.701,-10.9389,-16.5199,179.231,1.27441,-144.976,352
1569661124,323.701,-10.9389,-16.5199,179.231,1.27441,-144.976,352
1569661124,323.701,-10.8272,-16.5199,179.231,1.27441,-144.976,352
1569661124,323.701,-10.8272,-16.5199,179.231,1.27441,-144.976,352
1569661124,323.701,-10.8272,-16.5199,179.231,1.27441,-144.976,356
1569661124,323.701,-10.8272,-16.5199,179.231,1.25244,-144.976,356
1569661124,323.701,-10.8272,-16.5199,179.231,1.25244,-144.976,356
1569661124,323.701,-10.8272,-16.5199,179.231,1.25244,-144.976,356
1569661124,323.701,-10.8272,-16.5199,179.231,1.25244,-144.976,356
1569661124,323.701,-10.8272,-16.5199,179.231,1.25244,-144.976,356
1569661124,323.701,-10.8272,-16.5199,179.231,1.25244,-144.976,356
1569661124,323.701,-10.8272,-16.5199,179.231,1.25244,-144.976,356
1569661124,323.701,-10.8272,-16.5199,179.231,1.25244,-144.976,356
1569661124,323.701,-10.8272,-16.5199,179.231,1.25244,-144.976,356
1569661124,323.701,-10.8272,-16.5199,179.231,1.25244,-144.976,356
1569661124,323.701,-10.8272,-16.5199,179.231,1.25244,-144.976,356
1569661124,323.701,-10.8272,-16.5199,179.231,1.25244,-144.976,356
1569661124,323.701,-10.8272,-16.5199,179.231,1.25244,-144.976,360
1569661124,323.701,-10.8272,-16.5199,179.231,1.25244,-144.976,360
1569661124,323.701,-10.8272,-16.5199,179.231,1.25244,-144.976,360
1569661124,323.701,-10.8272,-16.5199,179.231,1.25244,-144.976,360
1569661124,323.701,-10.8272,-16.5199,179.231,1.25244,-144.976,356
1569661124,323.701,-10.8272,-16.5199,179.231,1.25244,-144.976,356
1569661124,323.701,-10.8272,-16.5199,179.231,1.25244,-144.976,356
1569661124,323.701,-10.9389,-16.5199,179.231,1.25244,-144.976,356
1569661124,323.701,-10.9389,-16.5199,179.231,1.25244,-144.976,356
1569661124,323.701,-10.9389,-16.5199,179.231,1.25244,-144.976,356
1569661124,323.701,-10.9389,-16.5199,179.231,1.25244,-144.976,356
1569661124,323.701,-10.9389,-16.5199,179.231,1.25244,-144.976,352
1569661124,323.701,-10.9389,-16.5199,179.231,1.25244,-144.976,352
1569661124,323.701,-10.9389,-16.5199,179.231,1.25244,-144.976,352
1569661124,323.701,-10.9389,-16.5199,179.231,1.25244,-144.976,352
1569661124,323.701,-10.8272,-16.5199,179.231,1.27441,-144.976,348
1569661124,323.701,-10.8272,-16.5199,179.231,1.27441,-144.976,348
1569661124,323.701,-10.8272,-16.4083,179.231,1.27441,-144.976,348
1569661124,323.701,-10.8272,-16.4083,179.231,1.27441,-144.976,348
1569661124,323.701,-10.8272,-16.4083,179.231,1.27441,-144.976,348
1569661124,323.701,-10.8272,-16.4083,179.231,1.27441,-144.976,348
1569661124,323.701,-10.8272,-16.4083,179.231,1.27441,-144.976,348
1569661124,323.701,-10.8272,-16.4083,179.231,1.27441,-144.976,348
1569661124,323.701,-10.8272,-16.4083,179.231,1.27441,-144.976,348
1569661125,323.701,-10.8272,-16.4083,179.231,1.27441,-144.976,348
1569661125,323.701,-10.8272,-16.4083,179.231,1.27441,-144.954,348
1569661125,323.701,-10.8272,-16.4083,179.231,1.27441,-144.954,348
1569661125,323.701,-10.8272,-16.4083,179.231,1.27441,-144.954,348
1569661125,323.701,-10.8272,-16.4083,179.231,1.27441,-144.954,348
1569661125,323.701,-10.9389,-16.4083,179.209,1.27441,-144.954,348
1569661125,323.701,-10.9389,-16.4083,179.209,1.27441,-144.954,348
1569661125,323.701,-10.9389,-16.4083,179.209,1.27441,-144.954,348
1569661125,323.701,-10.9389,-16.4083,179.209,1.27441,-144.954,348
1569661125,323.701,-10.8272,-16.4083,179.209,1.27441,-144.954,348
1569661125,323.701,-10.8272,-16.4083,179.209,1.27441,-144.954,348
1569661125,323.701,-10.8272,-16.4083,179.209,1.27441,-144.954,348
1569661125,323.701,-10.8272,-16.4083,179.209,1.27441,-144.954,348
1569661125,323.701,-10.8272,-16.4083,179.209,1.27441,-144.954,348
1569661125,323.701,-10.8272,-16.4083,179.209,1.27441,-144.954,344
1569661125,323.701,-10.8272,-16.4083,179.209,1.27441,-144.976,344
1569661125,323.701,-10.8272,-16.4083,179.209,1.27441,-144.976,344
1569661125,323.701,-10.8272,-16.4083,179.209,1.27441,-144.976,344
1569661125,323.701,-10.8272,-16.4083,179.209,1.27441,-144.976,344
1569661125,323.701,-10.8272,-16.4083,179.209,1.27441,-144.976,344
1569661125,323.701,-10.8272,-16.4083,179.209,1.27441,-144.976,348
1569661125,323.701,-10.8272,-16.4083,179.209,1.27441,-144.976,348
1569661125,323.701,-10.8272,-16.4083,179.209,1.27441,-144.976,348
1569661125,323.701,-10.8272,-16.4083,179.209,1.27441,-144.976,348
1569661125,323.701,-10.8272,-16.4083,179.209,1.27441,-144.976,348
1569661125,323.701,-10.8272,-16.5199,179.209,1.27441,-144.976,348
1569661125,323.701,-10.8272,-16.5199,179.209,1.27441,-144.976,348
1569661125,323.701,-10.8272,-16.5199,179.209,1.25244,-144.976,348
1569661125,323.701,-10.8272,-16.5199,179.209,1.25244,-144.976,348
1569661125,323.701,-10.8272,-16.5199,179.209,1.25244,-144.976,348
1569661125,323.701,-10.9389,-16.5199,179.209,1.25244,-144.976,352
1569661125,323.701,-10.9389,-16.5199,179.209,1.25244,-144.976,352
1569661125,323.701,-10.9389,-16.5199,179.209,1.25244,-144.976,352
1569661125,323.701,-10.9389,-16.5199,179.209,1.25244,-144.976,352
1569661125,323.701,-10.9389,-16.5199,179.209,1.25244,-144.976,352
1569661125,323.701,-10.9389,-16.5199,179.209,1.25244,-144.976,352
1569661125,323.701,-10.9389,-16.5199,179.209,1.25244,-144.976,352
1569661125,323.701,-10.9389,-16.5199,179.209,1.25244,-144.976,352
1569661125,323.701,-10.9389,-16.5199,179.209,1.25244,-144.976,352
1569661125,323.701,-10.9389,-16.5199,179.209,1.25244,-144.976,352
1569661125,323.701,-10.9389,-16.5199,179.209,1.25244,-144.976,352
1569661125,323.701,-10.9389,-16.5199,179.209,1.25244,-144.976,352
1569661125,323.701,-10.9389,-16.5199,179.209,1.25244,-144.976,356
1569661125,323.701,-10.9389,-16.5199,179.209,1.25244,-144.976,356
1569661125,323.701,-10.9389,-16.5199,179.209,1.25244,-144.954,356
1569661125,323.701,-10.9389,-16.5199,179.209,1.25244,-144.954,356
1569661125,323.701,-10.9389,-16.5199,179.209,1.27441,-144.954,356
1569661125,323.701,-10.9389,-16.5199,179.209,1.27441,-144.976,356
1569661125,323.701,-10.9389,-16.4083,179.209,1.27441,-144.976,356
1569661125,323.701,-10.9389,-16.4083,179.209,1.27441,-144.976,356
1569661125,323.701,-10.9389,-16.4083,179.209,1.27441,-144.976,356
1569661125,323.701,-10.9389,-16.4083,179.209,1.27441,-144.976,360
1569661125,323.59,-10.9389,-16.4083,179.209,1.27441,-144.976,360
1569661125,323.59,-10.9389,-16.4083,179.209,1.27441,-144.976,360
1569661125,323.59,-10.9389,-16.4083,179.209,1.27441,-144.976,360
1569661125,323.59,-10.9389,-16.4083,179.209,1.27441,-144.976,360
1569661125,323.59,-10.9389,-16.4083,179.209,1.27441,-144.976,360
1569661125,323.59,-10.9389,-16.4083,179.209,1.27441,-144.976,360
1569661125,323.59,-10.9389,-16.4083,179.209,1.27441,-144.976,360
1569661125,323.59,-10.9389,-16.4083,179.209,1.27441,-144.976,360
1569661125,323.59,-10.9389,-16.4083,179.209,1.27441,-144.976,360
1569661125,323.59,-10.9389,-16.4083,179.209,1.27441,-144.976,360
1569661125,323.59,-10.9389,-16.4083,179.209,1.27441,-144.976,360
1569661125,323.59,-10.9389,-16.4083,179.209,1.27441,-144.976,360
1569661125,323.59,-10.9389,-16.4083,179.209,1.27441,-144.976,360
1569661125,323.59,-10.8272,-16.4083,179.209,1.27441,-144.976,360
1569661125,323.59,-10.8272,-16.4083,179.209,1.27441,-144.976,360
1569661125,323.59,-10.8272,-16.4083,179.231,1.27441,-144.976,360
1569661125,323.701,-10.8272,-16.4083,179.231,1.27441,-144.976,360
1569661125,323.701,-10.8272,-16.4083,179.231,1.27441,-144.976,360
1569661125,323.701,-10.8272,-16.4083,179.231,1.27441,-144.976,360
1569661125,323.701,-10.8272,-16.4083,179.231,1.27441,-144.976,360
1569661125,323.701,-10.8272,-16.4083,179.209,1.27441,-144.976,360
1569661125,323.701,-10.8272,-16.4083,179.209,1.27441,-144.976,360
1569661125,323.701,-10.9389,-16.4083,179.209,1.27441,-144.976,360
1569661125,323.701,-10.9389,-16.4083,179.209,1.27441,-144.976,356
1569661125,323.701,-10.9389,-16.4083,179.209,1.27441,-144.976,356
1569661125,323.701,-10.9389,-16.4083,179.209,1.27441,-144.976,356
1569661125,323.701,-10.9389,-16.4083,179.209,1.27441,-144.976,356
1569661125,323.701,-10.9389,-16.4083,179.209,1.27441,-144.976,356
1569661125,323.59,-10.9389,-16.4083,179.209,1.27441,-144.976,356
1569661125,323.59,-10.9389,-16.4083,179.209,1.27441,-144.976,356
1569661125,323.59,-10.9389,-16.4083,179.209,1.27441,-144.976,356
1569661125,323.59,-10.9389,-16.4083,179.209,1.27441,-144.976,356
1569661125,323.59,-10.9389,-16.4083,179.209,1.27441,-144.976,356
1569661125,323.59,-10.9389,-16.4083,179.209,1.27441,-144.976,356
1569661125,323.59,-10.9389,-16.4083,179.209,1.27441,-144.976,356
1569661125,323.59,-10.9389,-16.4083,179.209,1.27441,-144.976,356
1569661125,323.59,-10.9389,-16.4083,179.209,1.27441,-144.976,356
1569661125,323.59,-10.9389,-16.4083,179.209,1.27441,-144.976,356
1569661125,323.59,-10.9389,-16.4083,179.209,1.27441,-144.976,360
1569661125,323.59,-10.9389,-16.5199,179.209,1.27441,-144.976,360
1569661125,323.701,-10.9389,-16.5199,179.209,1.27441,-144.976,360
1569661125,323.701,-10.9389,-16.5199,179.209,1.27441,-144.976,360
1569661125,323.701,-10.9389,-16.5199,179.209,1.27441,-144.976,360
1569661125,323.59,-10.9389,-16.5199,179.209,1.27441,-144.976,360
1569661125,323.59,-10.9389,-16.5199,179.209,1.25244,-144.976,360
1569661125,323.59,-10.9389,-16.5199,179.209,1.25244,-144.976,360
1569661125,323.59,-10.9389,-16.5199,179.209,1.25244,-144.976,360
1569661125,323.59,-10.9389,-16.5199,179.209,1.25244,-144.976,360
1569661126,323.59,-10.9389,-16.5199,179.209,1.25244,-144.976,360
1569661126,323.59,-10.9389,-16.5199,179.209,1.25244,-144.976,360
1569661126,323.59,-10.9389,-16.5199,179.209,1.25244,-144.976,360
1569661126,323.59,-10.9389,-16.5199,179.209,1.27441,-144.976,360
1569661126,323.59,-10.9389,-16.5199,179.209,1.27441,-144.976,360
1569661126,323.59,-10.9389,-16.5199,179.209,1.25244,-144.976,360
1569661126,323.59,-10.9389,-16.5199,179.209,1.25244,-144.976,360
1569661126,323.59,-10.9389,-16.5199,179.209,1.25244,-144.976,360
1569661126,323.59,-10.9389,-16.5199,179.209,1.27441,-144.976,360
1569661126,323.59,-10.9389,-16.5199,179.209,1.27441,-144.976,360
1569661126,323.59,-10.9389,-16.5199,179.209,1.27441,-144.976,360
1569661126,323.59,-10.9389,-16.5199,179.209,1.27441,-144.976,360
1569661126,323.59,-10.9389,-16.5199,179.209,1.27441,-144.976,360
1569661126,323.701,-10.9389,-16.5199,179.209,1.27441,-144.976,360
1569661126,323.701,-10.9389,-16.5199,179.209,1.27441,-144.976,360
1569661126,323.701,-10.9389,-16.5199,179.209,1.27441,-144.976,356
1569661126,323.701,-10.9389,-16.5199,179.209,1.27441,-144.976,356
1569661126,323.701,-10.9389,-16.4083,179.209,1.27441,-144.976,356
1569661126,323.701,-10.9389,-16.4083,179.209,1.27441,-144.976,356
1569661126,323.701,-10.9389,-16.4083,179.209,1.27441,-144.976,356
1569661126,323.701,-10.9389,-16.4083,179.209,1.27441,-144.976,356
1569661126,323.701,-10.9389,-16.4083,179.209,1.27441,-144.976,356
1569661126,323.701,-10.9389,-16.4083,179.209,1.27441,-144.976,356
1569661126,323.701,-10.9389,-16.4083,179.209,1.27441,-144.976,356
1569661126,323.701,-10.9389,-16.4083,179.209,1.27441,-144.976,356
1569661126,323.701,-10.9389,-16.4083,179.209,1.27441,-144.976,356
1569661126,323.701,-10.9389,-16.4083,179.209,1.27441,-144.976,356
1569661126,323.701,-10.9389,-16.4083,179.209,1.27441,-144.976,356
1569661126,323.701,-10.9389,-16.4083,179.209,1.27441,-144.976,356
1569661126,323.701,-10.9389,-16.4083,179.231,1.27441,-144.976,356
1569661126,323.701,-10.9389,-16.4083,179.209,1.27441,-144.976,356
1569661126,323.701,-10.9389,-16.4083,179.209,1.27441,-144.976,356
1569661126,323.701,-10.9389,-16.4083,179.209,1.27441,-144.976,356
1569661126,323.701,-10.9389,-16.4083,179.209,1.27441,-144.976,356
1569661126,323.701,-10.9389,-16.4083,179.209,1.27441,-144.976,356
1569661126,323.701,-10.9389,-16.4083,179.209,1.27441,-144.976,356
1569661126,323.701,-10.9389,-16.4083,179.209,1.27441,-144.976,356
1569661126,323.701,-10.9389,-16.4083,179.209,1.27441,-144.976,356
1569661126,323.701,-10.9389,-16.4083,179.209,1.27441,-144.976,356
1569661126,323.701,-10.9389,-16.4083,179.209,1.27441,-144.976,356
1569661126,323.701,-10.9389,-16.4083,179.209,1.27441,-144.976,356
1569661126,323.701,-10.9389,-16.5199,179.209,1.27441,-144.976,356
1569661126,323.701,-10.9389,-16.5199,179.209,1.27441,-144.976,356
1569661126,323.701,-10.9389,-16.5199,179.231,1.27441,-144.976,356
1569661126,323.701,-10.9389,-16.5199,179.231,1.27441,-144.976,356
1569661126,323.701,-10.9389,-16.4083,179.231,1.27441,-144.976,356
1569661126,323.701,-10.9389,-16.4083,179.231,1.27441,-144.976,356
1569661126,323.701,-10.8272,-16.4083,179.231,1.27441,-144.976,356
1569661126,323.701,-10.8272,-16.4083,179.231,1.27441,-144.976,356
1569661126,323.701,-10.8272,-16.4083,179.231,1.27441,-144.976,356
1569661126,323.701,-10.8272,-16.4083,179.231,1.27441,-144.976,360
1569661126,323.701,-10.8272,-16.4083,179.231,1.27441,-144.976,360
1569661126,323.701,-10.8272,-16.4083,179.231,1.27441,-144.976,360
1569661126,323.701,-10.8272,-16.4083,179.231,1.27441,-144.976,360
1569661126,323.701,-10.8272,-16.4083,179.231,1.27441,-144.976,360
1569661126,323.701,-10.8272,-16.4083,179.231,1.27441,-144.976,360
1569661126,323.701,-10.8272,-16.4083,179.231,1.27441,-144.976,360
1569661126,323.701,-10.8272,-16.4083,179.231,1.27441,-144.976,360
1569661126,323.701,-10.8272,-16.4083,179.231,1.27441,-144.976,360
1569661126,323.701,-10.8272,-16.4083,179.231,1.27441,-144.976,360
1569661126,323.701,-10.8272,-16.4083,179.231,1.27441,-144.976,360
1569661126,323.701,-10.8272,-16.5199,179.231,1.27441,-144.976,360
1569661126,323.701,-10.8272,-16.5199,179.231,1.27441,-144.976,356
1569661126,323.59,-10.8272,-16.5199,179.231,1.27441,-144.976,356
1569661126,323.59,-10.8272,-16.5199,179.231,1.27441,-144.976,356
1569661126,323.59,-10.8272,-16.5199,179.231,1.27441,-144.976,356
1569661126,323.59,-10.8272,-16.4083,179.231,1.27441,-144.976,360
1569661126,323.59,-10.8272,-16.4083,179.231,1.27441,-144.976,360
1569661126,323.701,-10.8272,-16.4083,179.231,1.27441,-144.976,360
1569661126,323.701,-10.8272,-16.4083,179.231,1.27441,-144.976,360
1569661126,323.701,-10.8272,-16.4083,179.231,1.27441,-144.976,360
1569661126,323.701,-10.8272,-16.4083,179.231,1.27441,-144.976,360
1569661126,323.701,-10.8272,-16.4083,179.231,1.27441,-144.976,360
1569661126,323.701,-10.8272,-16.4083,179.231,1.27441,-144.976,360
1569661126,323.701,-10.8272,-16.4083,179.231,1.27441,-144.976,356
1569661126,323.701,-10.8272,-16.4083,179.231,1.27441,-144.976,356
1569661126,323.701,-10.8272,-16.4083,179.231,1.27441,-144.976,356
1569661126,323.701,-10.8272,-16.4083,179.231,1.27441,-144.976,356
1569661126,323.701,-10.9389,-16.4083,179.231,1.27441,-144.976,356
1569661126,323.701,-10.9389,-16.4083,179.231,1.27441,-144.976,356
1569661126,323.701,-10.9389,-16.4083,179.209,1.27441,-144.976,356
1569661126,323.701,-10.9389,-16.4083,179.209,1.27441,-144.976,356
1569661126,323.701,-10.9389,-16.4083,179.209,1.29639,-144.976,356
1569661126,323.701,-10.9389,-16.4083,179.209,1.29639,-144.976,356
1569661126,323.701,-10.9389,-16.4083,179.209,1.29639,-144.976,352
1569661126,323.701,-10.9389,-16.4083,179.209,1.29639,-144.976,352
1569661126,323.701,-10.9389,-16.4083,179.209,1.29639,-144.976,352
1569661126,323.701,-10.9389,-16.4083,179.209,1.29639,-144.976,352
1569661126,323.701,-10.9389,-16.4083,179.209,1.29639,-144.976,352
1569661126,323.701,-10.9389,-16.4083,179.209,1.29639,-144.976,352
1569661126,323.701,-10.9389,-16.4083,179.209,1.29639,-144.976,352
1569661126,323.701,-10.9389,-16.4083,179.209,1.29639,-144.976,352
1569661126,323.701,-10.9389,-16.4083,179.209,1.29639,-144.976,356
1569661126,323.701,-10.9389,-16.4083,179.209,1.27441,-144.976,356
1569661126,323.701,-10.9389,-16.4083,179.209,1.27441,-144.976,356
1569661126,323.701,-10.9389,-16.4083,179.209,1.27441,-144.976,356
1569661126,323.701,-10.9389,-16.4083,179.209,1.27441,-144.976,356
1569661126,323.701,-10.9389,-16.4083,179.209,1.27441,-144.976,356
1569661126,323.701,-10.9389,-16.4083,179.209,1.27441,-144.976,356
1569661126,323.701,-10.9389,-16.5199,179.209,1.27441,-144.954,356
1569661127,323.701,-10.9389,-16.5199,179.209,1.27441,-144.954,356
1569661127,323.701,-10.9389,-16.5199,179.209,1.27441,-144.954,356
1569661127,323.701,-10.9389,-16.5199,179.209,1.27441,-144.954,356
1569661127,323.59,-10.9389,-16.5199,179.209,1.27441,-144.954,356
1569661127,323.59,-10.9389,-16.5199,179.209,1.27441,-144.954,356
1569661127,323.59,-10.9389,-16.5199,179.209,1.27441,-144.954,356
1569661127,323.59,-10.9389,-16.5199,179.209,1.27441,-144.954,356
1569661127,323.59,-10.9389,-16.5199,179.209,1.27441,-144.954,356
1569661127,323.59,-10.9389,-16.5199,179.209,1.27441,-144.954,356
1569661127,323.59,-10.9389,-16.5199,179.187,1.27441,-144.954,360
1569661127,323.59,-10.9389,-16.5199,179.187,1.27441,-144.954,360
1569661127,323.59,-10.9389,-16.5199,179.187,1.27441,-144.954,360
1569661127,323.59,-10.9389,-16.5199,179.187,1.27441,-144.954,360
1569661127,323.701,-10.9389,-16.5199,179.187,1.27441,-144.954,360
1569661127,323.701,-10.9389,-16.5199,179.187,1.25244,-144.976,360
1569661127,323.701,-10.9389,-16.5199,179.209,1.25244,-144.976,360
1569661127,323.701,-10.9389,-16.5199,179.209,1.25244,-144.976,360
1569661127,323.701,-10.9389,-16.5199,179.209,1.25244,-144.976,356
1569661127,323.701,-10.9389,-16.5199,179.209,1.25244,-144.976,356
1569661127,323.701,-10.9389,-16.5199,179.209,1.25244,-144.976,356
1569661127,323.701,-10.9389,-16.5199,179.209,1.25244,-144.976,356
1569661127,323.701,-10.9389,-16.5199,179.209,1.25244,-144.976,356
1569661127,323.701,-10.9389,-16.5199,179.209,1.25244,-144.976,356
1569661127,323.701,-10.9389,-16.5199,179.209,1.25244,-144.976,356
1569661127,323.701,-10.9389,-16.5199,179.209,1.25244,-144.976,356
1569661127,323.701,-10.9389,-16.5199,179.209,1.25244,-144.976,356
1569661127,323.701,-10.9389,-16.5199,179.187,1.25244,-144.976,356
1569661127,323.701,-10.9389,-16.5199,179.187,1.27441,-144.976,356
1569661127,323.701,-10.9389,-16.5199,179.187,1.27441,-144.976,356
1569661127,323.701,-10.9389,-16.4083,179.187,1.27441,-144.976,356
1569661127,323.701,-10.9389,-16.4083,179.209,1.27441,-144.954,356
1569661127,323.701,-10.9389,-16.4083,179.209,1.27441,-144.954,356
1569661127,323.701,-10.9389,-16.4083,179.209,1.27441,-144.954,356
1569661127,323.701,-10.9389,-16.4083,179.209,1.27441,-144.954,356
1569661127,323.701,-10.9389,-16.4083,179.209,1.27441,-144.954,356
1569661127,323.701,-10.9389,-16.4083,179.209,1.27441,-144.954,356
1569661127,323.701,-10.9389,-16.4083,179.209,1.27441,-144.954,356
1569661127,323.701,-10.9389,-16.4083,179.209,1.27441,-144.954,356
1569661127,323.701,-10.9389,-16.4083,179.209,1.27441,-144.954,356
1569661127,323.701,-10.9389,-16.4083,179.209,1.27441,-144.954,356
1569661127,323.701,-10.9389,-16.4083,179.209,1.27441,-144.954,356
1569661127,323.701,-10.9389,-16.4083,179.209,1.27441,-144.954,360
1569661127,323.701,-10.9389,-16.4083,179.209,1.27441,-144.954,360
1569661127,323.701,-10.9389,-16.4083,179.209,1.27441,-144.954,360
1569661127,323.701,-10.8272,-16.4083,179.209,1.27441,-144.954,360
1569661127,323.701,-10.8272,-16.5199,179.209,1.27441,-144.954,360
1569661127,323.701,-10.8272,-16.5199,179.209,1.27441,-144.954,360
1569661127,323.701,-10.9389,-16.5199,179.209,1.27441,-144.954,360
1569661127,323.701,-10.9389,-16.5199,179.209,1.27441,-144.954,360
1569661127,323.701,-10.9389,-16.5199,179.209,1.27441,-144.954,360
1569661127,323.701,-10.9389,-16.5199,179.209,1.27441,-144.954,360
1569661127,323.701,-10.9389,-16.5199,179.209,1.27441,-144.954,360
1569661127,323.701,-10.9389,-16.4083,179.209,1.27441,-144.976,360
1569661127,323.701,-10.9389,-16.4083,179.209,1.27441,-144.976,360
1569661127,323.701,-10.9389,-16.4083,179.209,1.27441,-144.976,356
1569661127,323.701,-10.9389,-16.4083,179.209,1.27441,-144.976,356
1569661127,323.701,-10.9389,-16.4083,179.209,1.27441,-144.976,356
1569661127,323.701,-10.9389,-16.4083,179.209,1.27441,-144.976,356
1569661127,323.701,-10.9389,-16.5199,179.209,1.27441,-144.976,356
1569661127,323.701,-10.9389,-16.5199,179.209,1.27441,-144.976,356
1569661127,323.701,-10.9389,-16.5199,179.209,1.27441,-144.976,356
1569661127,323.701,-10.8272,-16.5199,179.209,1.27441,-144.976,356
1569661127,323.701,-10.8272,-16.5199,179.209,1.27441,-144.976,356
1569661127,323.701,-10.8272,-16.5199,179.209,1.27441,-144.976,356
1569661127,323.701,-10.8272,-16.5199,179.209,1.27441,-144.976,356
1569661127,323.701,-10.8272,-16.5199,179.209,1.27441,-144.976,356
1569661127,323.701,-10.8272,-16.5199,179.209,1.27441,-144.976,356
1569661127,323.701,-10.9389,-16.5199,179.209,1.27441,-144.976,356
1569661127,323.701,-10.9389,-16.5199,179.209,1.27441,-144.976,356
1569661127,323.701,-10.9389,-16.5199,179.209,1.27441,-144.976,360
1569661127,323.701,-10.9389,-16.5199,179.209,1.27441,-144.954,360
1569661127,323.701,-10.9389,-16.5199,179.209,1.27441,-144.954,360
1569661127,323.701,-10.9389,-16.5199,179.209,1.25244,-144.954,360
1569661127,323.701,-10.9389,-16.5199,179.209,1.25244,-144.954,360
1569661127,323.701,-10.9389,-16.5199,179.209,1.25244,-144.954,360
1569661127,323.701,-10.9389,-16.5199,179.209,1.25244,-144.954,360
1569661127,323.701,-10.9389,-16.5199,179.209,1.25244,-144.954,360
1569661127,323.701,-10.9389,-16.5199,179.209,1.25244,-144.954,360
1569661127,323.701,-10.9389,-16.5199,179.209,1.25244,-144.954,360
1569661127,323.701,-10.9389,-16.5199,179.209,1.25244,-144.954,360
1569661127,323.701,-10.9389,-16.5199,179.209,1.25244,-144.954,360
1569661127,323.701,-10.9389,-16.5199,179.209,1.25244,-144.954,360
1569661127,323.701,-10.9389,-16.5199,179.209,1.25244,-144.954,360
1569661127,323.701,-10.9389,-16.5199,179.209,1.25244,-144.954,360
1569661127,323.701,-10.9389,-16.5199,179.209,1.25244,-144.954,360
1569661127,323.701,-10.9389,-16.5199,179.209,1.25244,-144.954,360
1569661127,323.701,-10.9389,-16.5199,179.209,1.25244,-144.954,360
1569661127,323.701,-10.9389,-16.5199,179.209,1.25244,-144.954,360
1569661127,323.701,-10.9389,-16.5199,179.209,1.25244,-144.954,360
1569661127,323.701,-10.9389,-16.5199,179.209,1.25244,-144.976,356
1569661127,323.701,-10.9389,-16.5199,179.209,1.25244,-144.976,356
1569661127,323.701,-10.9389,-16.5199,179.209,1.25244,-144.976,356
1569661127,323.701,-10.9389,-16.5199,179.209,1.25244,-144.976,356
1569661127,323.701,-10.9389,-16.5199,179.209,1.25244,-144.976,356
1569661127,323.701,-10.9389,-16.5199,179.209,1.25244,-144.976,356
1569661127,323.701,-10.9389,-16.5199,179.209,1.25244,-144.976,356
1569661127,323.701,-10.9389,-16.5199,179.209,1.27441,-144.976,356
1569661127,323.701,-10.9389,-16.5199,179.209,1.27441,-144.976,356
1569661127,323.701,-10.9389,-16.5199,179.209,1.27441,-144.976,356
1569661127,323.701,-10.9389,-16.5199,179.209,1.27441,-144.976,356
1569661128,323.701,-10.8272,-16.5199,179.209,1.27441,-144.976,356
1569661128,323.701,-10.8272,-16.5199,179.209,1.27441,-144.976,356
1569661128,323.701,-10.8272,-16.5199,179.209,1.27441,-144.976,356
1569661128,323.701,-10.8272,-16.5199,179.231,1.27441,-144.976,356
1569661128,323.701,-10.8272,-16.5199,179.231,1.27441,-144.976,356
1569661128,323.701,-10.8272,-16.5199,179.231,1.27441,-144.976,356
1569661128,323.701,-10.8272,-16.5199,179.231,1.27441,-144.976,356
1569661128,323.701,-10.8272,-16.5199,179.231,1.27441,-144.976,356
1569661128,323.701,-10.8272,-16.5199,179.231,1.27441,-144.976,356
1569661128,323.59,-10.8272,-16.5199,179.231,1.27441,-144.976,360
1569661128,323.59,-10.8272,-16.5199,179.231,1.27441,-144.976,360
1569661128,323.59,-10.8272,-16.5199,179.231,1.27441,-144.976,360
1569661128,323.59,-10.8272,-16.5199,179.231,1.27441,-144.976,360
1569661128,323.59,-10.8272,-16.5199,179.231,1.27441,-144.976,360
1569661128,323.59,-10.8272,-16.5199,179.231,1.27441,-144.976,364
1569661128,323.59,-10.8272,-16.5199,179.231,1.27441,-144.976,364
1569661128,323.59,-10.8272,-16.5199,179.231,1.27441,-144.976,364
1569661128,323.59,-10.8272,-16.5199,179.231,1.27441,-144.976,364
1569661128,323.59,-10.8272,-16.5199,179.231,1.27441,-144.976,364
1569661128,323.59,-10.8272,-16.5199,179.231,1.27441,-144.976,364
1569661128,323.59,-10.8272,-16.5199,179.231,1.27441,-144.976,364
1569661128,323.59,-10.8272,-16.5199,179.231,1.27441,-144.976,364
1569661128,323.59,-10.8272,-16.5199,179.231,1.27441,-144.976,368
1569661128,323.59,-10.8272,-16.5199,179.231,1.27441,-144.976,368
1569661128,323.59,-10.8272,-16.5199,179.209,1.27441,-144.976,368
1569661128,323.59,-10.8272,-16.5199,179.209,1.27441,-144.976,368
1569661128,323.59,-10.8272,-16.4083,179.209,1.27441,-144.976,368
1569661128,323.59,-10.8272,-16.5199,179.209,1.27441,-144.976,368
1569661128,323.59,-10.8272,-16.5199,179.209,1.27441,-144.976,368
1569661128,323.59,-10.8272,-16.5199,179.209,1.27441,-144.976,368
1569661128,323.59,-10.8272,-16.5199,179.209,1.27441,-144.976,368
1569661128,323.59,-10.8272,-16.5199,179.209,1.27441,-144.976,368
1569661135,362.099,-51.9038,-15.7386,179.319,1.62598,-144.844,436
1569661135,362.099,-51.9038,-15.7386,179.319,1.62598,-144.844,436
1569661135,362.099,-51.9038,-15.7386,179.319,1.62598,-144.844,436
1569661135,362.099,-51.9038,-15.7386,179.319,1.62598,-144.844,436
1569661135,362.099,-51.9038,-15.7386,179.319,1.62598,-144.844,436
1569661135,362.099,-51.9038,-15.7386,179.319,1.62598,-144.844,436
1569661135,362.099,-51.7922,-15.7386,179.319,1.62598,-144.844,436
1569661135,362.099,-51.7922,-15.7386,179.341,1.62598,-144.844,432
1569661135,362.099,-51.7922,-15.7386,179.341,1.62598,-144.844,432
1569661135,362.099,-51.7922,-15.7386,179.319,1.62598,-144.844,432
1569661135,362.099,-51.9038,-15.7386,179.319,1.62598,-144.844,432
1569661135,362.099,-51.9038,-15.7386,179.319,1.62598,-144.844,432
1569661135,362.099,-51.9038,-15.7386,179.319,1.62598,-144.844,432
1569661135,362.099,-51.9038,-15.7386,179.319,1.62598,-144.844,432
1569661135,362.099,-51.9038,-15.7386,179.319,1.62598,-144.844,432
1569661135,362.099,-51.9038,-15.7386,179.319,1.62598,-144.844,432
1569661135,362.099,-51.9038,-15.7386,179.319,1.62598,-144.844,432
1569661135,362.099,-51.9038,-15.7386,179.319,1.62598,-144.844,432
1569661135,362.099,-51.9038,-15.7386,179.319,1.62598,-144.844,428
1569661135,362.099,-51.9038,-15.7386,179.319,1.62598,-144.844,428
1569661135,362.099,-51.9038,-15.7386,179.319,1.62598,-144.844,428
1569661135,362.099,-51.9038,-15.7386,179.319,1.62598,-144.844,428
1569661135,362.099,-51.9038,-15.7386,179.319,1.64795,-144.844,428
1569661135,362.099,-51.9038,-15.7386,179.319,1.64795,-144.844,428
1569661135,362.099,-51.9038,-15.7386,179.319,1.64795,-144.844,428
1569661135,362.099,-51.9038,-15.7386,179.319,1.64795,-144.844,428
1569661136,362.099,-51.9038,-15.7386,179.319,1.64795,-144.844,428
1569661136,362.099,-51.9038,-15.7386,179.319,1.64795,-144.844,428
1569661136,362.099,-51.9038,-15.7386,179.319,1.64795,-144.844,428
1569661136,362.099,-51.9038,-15.7386,179.319,1.64795,-144.844,428
1569661136,362.099,-51.9038,-15.7386,179.319,1.64795,-144.844,428
1569661136,362.099,-51.9038,-15.7386,179.319,1.64795,-144.844,432
1569661136,362.099,-51.9038,-15.7386,179.319,1.64795,-144.844,432
1569661136,362.099,-51.9038,-15.7386,179.319,1.64795,-144.844,432
1569661136,362.099,-51.9038,-15.7386,179.319,1.64795,-144.844,432
1569661136,362.099,-51.9038,-15.7386,179.319,1.64795,-144.844,432
1569661136,362.099,-51.9038,-15.7386,179.297,1.64795,-144.844,436
1569661136,362.099,-51.9038,-15.7386,179.297,1.64795,-144.844,436
1569661136,362.099,-51.9038,-15.7386,179.297,1.64795,-144.844,436
1569661136,362.099,-51.9038,-15.7386,179.297,1.64795,-144.844,436
1569661136,362.099,-51.9038,-15.7386,179.297,1.64795,-144.844,440
1569661136,362.099,-51.9038,-15.7386,179.297,1.64795,-144.844,440
1569661136,362.099,-51.9038,-15.7386,179.297,1.64795,-144.844,440
1569661136,362.099,-51.9038,-15.7386,179.297,1.64795,-144.844,440
1569661136,362.099,-51.9038,-15.8502,179.297,1.62598,-144.844,444
1569661136,362.099,-52.0154,-15.8502,179.297,1.62598,-144.844,444
1569661136,361.987,-52.0154,-15.8502,179.297,1.62598,-144.844,444
1569661136,361.987,-52.0154,-15.8502,179.297,1.62598,-144.844,444
1569661136,361.987,-52.0154,-15.8502,179.297,1.62598,-144.844,444
1569661136,361.987,-52.0154,-15.8502,179.297,1.64795,-144.844,448
1569661136,361.987,-52.0154,-15.7386,179.297,1.64795,-144.844,448
1569661136,362.099,-52.0154,-15.7386,179.297,1.64795,-144.844,448
1569661136,362.099,-52.0154,-15.7386,179.297,1.64795,-144.844,448
1569661136,362.099,-52.0154,-15.7386,179.297,1.64795,-144.844,448
1569661136,362.099,-52.0154,-15.7386,179.297,1.64795,-144.844,448
1569661136,362.099,-52.0154,-15.7386,179.297,1.64795,-144.844,448
1569661136,362.099,-52.0154,-15.7386,179.297,1.64795,-144.844,448
1569661136,362.099,-52.0154,-15.7386,179.297,1.64795,-144.844,448
1569661136,362.099,-52.0154,-15.7386,179.297,1.64795,-144.844,448
1569661136,362.099,-52.0154,-15.7386,179.297,1.64795,-144.844,448
1569661136,362.099,-52.0154,-15.7386,179.297,1.64795,-144.844,444
1569661136,362.099,-52.0154,-15.8502,179.297,1.64795,-144.844,444
1569661136,362.099,-52.0154,-15.8502,179.297,1.62598,-144.844,444
1569661136,362.099,-52.0154,-15.8502,179.297,1.62598,-144.844,444
1569661136,362.099,-52.0154,-15.8502,179.297,1.62598,-144.866,444
1569661136,362.099,-52.0154,-15.8502,179.297,1.62598,-144.866,440
1569661136,362.099,-52.0154,-15.8502,179.297,1.62598,-144.866,440
1569661136,362.099,-52.0154,-15.8502,179.297,1.62598,-144.866,440
1569661136,362.099,-51.9038,-15.8502,179.297,1.62598,-144.866,436
1569661136,362.099,-51.9038,-15.8502,179.297,1.62598,-144.866,436
1569661136,362.099,-51.9038,-15.8502,179.319,1.62598,-144.866,432
1569661136,362.099,-51.9038,-15.8502,179.319,1.62598,-144.866,432
1569661136,362.21,-51.9038,-15.8502,179.319,1.62598,-144.866,432
1569661136,362.21,-51.9038,-15.8502,179.319,1.62598,-144.866,428
1569661136,362.21,-51.9038,-15.8502,179.319,1.62598,-144.844,428
1569661136,362.21,-51.9038,-15.8502,179.319,1.62598,-144.844,424
1569661136,362.21,-51.9038,-15.8502,179.319,1.62598,-144.844,424
1569661136,362.21,-51.9038,-15.8502,179.319,1.62598,-144.844,424
1569661136,362.21,-51.9038,-15.8502,179.319,1.62598,-144.844,420
1569661136,362.21,-51.9038,-15.8502,179.319,1.62598,-144.844,420
1569661136,362.21,-51.9038,-15.8502,179.319,1.62598,-144.844,416
1569661136,362.21,-51.9038,-15.8502,179.319,1.62598,-144.844,416
1569661136,362.21,-51.9038,-15.8502,179.319,1.62598,-144.844,416
1569661136,362.21,-51.9038,-15.8502,179.319,1.62598,-144.844,416
1569661136,362.21,-51.9038,-15.8502,179.341,1.62598,-144.844,412
1569661136,362.21,-51.9038,-15.8502,179.341,1.62598,-144.844,412
1569661136,362.21,-51.9038,-15.8502,179.341,1.62598,-144.844,412
1569661136,362.21,-51.9038,-15.8502,179.341,1.62598,-144.844,412
1569661136,362.21,-51.9038,-15.8502,179.341,1.62598,-144.844,408
1569661136,362.21,-51.9038,-15.8502,179.341,1.62598,-144.844,408
1569661136,362.21,-51.9038,-15.8502,179.341,1.62598,-144.844,408
1569661136,362.21,-51.9038,-15.8502,179.341,1.62598,-144.844,408
1569661136,362.21,-51.9038,-15.8502,179.341,1.62598,-144.844,408
1569661136,362.21,-51.9038,-15.8502,179.341,1.62598,-144.844,408
1569661136,362.21,-51.9038,-15.8502,179.341,1.62598,-144.844,412
1569661136,362.21,-51.9038,-15.8502,179.341,1.62598,-144.844,412
1569661136,362.21,-51.9038,-15.8502,179.341,1.62598,-144.844,412
1569661136,362.099,-51.9038,-15.8502,179.341,1.62598,-144.844,412
1569661136,362.099,-51.7922,-15.7386,179.341,1.62598,-144.844,416
1569661136,362.099,-51.7922,-15.7386,179.341,1.62598,-144.844,416
1569661136,362.099,-51.7922,-15.7386,179.341,1.62598,-144.844,416
1569661136,362.099,-51.9038,-15.7386,179.341,1.64795,-144.844,420
1569661136,362.099,-51.9038,-15.7386,179.341,1.64795,-144.844,420
1569661136,362.099,-51.9038,-15.7386,179.341,1.64795,-144.844,420
1569661136,362.099,-51.9038,-15.7386,179.341,1.64795,-144.844,424
1569661136,362.099,-51.9038,-15.7386,179.341,1.64795,-144.844,424
1569661136,362.099,-51.9038,-15.7386,179.341,1.64795,-144.844,424
1569661136,362.099,-51.9038,-15.7386,179.341,1.64795,-144.844,424
1569661136,362.099,-51.9038,-15.7386,179.341,1.64795,-144.844,428
1569661136,362.099,-51.9038,-15.7386,179.341,1.64795,-144.844,428
1569661136,362.099,-51.9038,-15.7386,179.341,1.64795,-144.844,428
1569661136,362.099,-51.7922,-15.7386,179.341,1.64795,-144.844,428
1569661136,362.099,-51.7922,-15.7386,179.341,1.64795,-144.844,428
1569661136,362.099,-51.7922,-15.7386,179.341,1.64795,-144.844,432
1569661136,362.099,-51.7922,-15.7386,179.341,1.64795,-144.844,432
1569661136,362.099,-51.7922,-15.7386,179.341,1.64795,-144.844,432
1569661136,362.099,-51.7922,-15.7386,179.341,1.64795,-144.844,432
1569661136,362.099,-51.7922,-15.7386,179.341,1.64795,-144.844,432
1569661136,362.099,-51.9038,-15.7386,179.341,1.64795,-144.844,432
1569661136,362.099,-51.9038,-15.7386,179.341,1.64795,-144.844,432
1569661136,362.099,-51.9038,-15.7386,179.341,1.64795,-144.844,436
1569661136,362.099,-51.9038,-15.7386,179.341,1.62598,-144.844,436
1569661136,362.099,-51.9038,-15.7386,179.341,1.62598,-144.844,436
1569661136,362.099,-51.9038,-15.7386,179.341,1.62598,-144.844,436
1569661136,362.099,-51.9038,-15.7386,179.341,1.62598,-144.844,436
1569661136,362.099,-51.9038,-15.7386,179.341,1.62598,-144.844,436
1569661137,362.099,-51.9038,-15.7386,179.341,1.62598,-144.844,436
1569661137,362.099,-51.9038,-15.7386,179.341,1.62598,-144.844,436
1569661137,362.099,-51.9038,-15.8502,179.341,1.62598,-144.866,436
1569661137,362.099,-51.9038,-15.8502,179.319,1.604,-144.866,436
1569661137,362.099,-51.9038,-15.8502,179.319,1.604,-144.866,436
1569661137,362.099,-51.9038,-15.8502,179.319,1.604,-144.866,436
1569661137,362.099,-51.9038,-15.8502,179.319,1.604,-144.866,436
1569661137,362.099,-51.9038,-15.8502,179.319,1.604,-144.866,436
1569661137,362.099,-51.9038,-15.8502,179.319,1.62598,-144.866,436
1569661137,362.099,-51.9038,-15.8502,179.319,1.62598,-144.866,436
1569661137,362.099,-51.9038,-15.8502,179.319,1.62598,-144.866,436
1569661137,362.099,-51.9038,-15.8502,179.319,1.62598,-144.866,436
1569661137,362.099,-51.9038,-15.8502,179.319,1.62598,-144.866,432
1569661137,362.099,-51.9038,-15.7386,179.319,1.62598,-144.866,432
1569661137,362.099,-51.9038,-15.7386,179.319,1.62598,-144.866,432
1569661137,362.099,-51.9038,-15.7386,179.319,1.62598,-144.866,432
1569661137,362.099,-51.9038,-15.7386,179.319,1.62598,-144.866,432
1569661137,362.099,-51.9038,-15.7386,179.319,1.62598,-144.866,436
1569661137,362.099,-51.9038,-15.7386,179.319,1.64795,-144.866,436
1569661137,362.099,-51.9038,-15.7386,179.319,1.64795,-144.866,436
1569661137,362.099,-51.9038,-15.7386,179.319,1.64795,-144.866,436
1569661137,362.099,-51.9038,-15.7386,179.319,1.64795,-144.866,436
1569661137,362.099,-51.9038,-15.7386,179.319,1.64795,-144.844,436
1569661137,362.099,-51.9038,-15.7386,179.319,1.64795,-144.844,436
1569661137,362.099,-51.9038,-15.7386,179.319,1.64795,-144.844,440
1569661137,362.099,-51.9038,-15.7386,179.341,1.64795,-144.844,440
1569661137,362.099,-51.9038,-15.7386,179.341,1.64795,-144.844,440
1569661137,362.099,-51.9038,-15.7386,179.341,1.64795,-144.844,440
1569661137,362.099,-51.7922,-15.7386,179.341,1.64795,-144.844,440
1569661137,362.099,-51.9038,-15.7386,179.341,1.64795,-144.844,440
1569661137,362.099,-51.9038,-15.7386,179.341,1.64795,-144.844,440
1569661137,362.099,-51.9038,-15.7386,179.341,1.64795,-144.844,440
1569661137,362.099,-51.9038,-15.7386,179.341,1.64795,-144.844,440
1569661137,362.099,-51.9038,-15.7386,179.341,1.64795,-144.866,440
1569661137,362.099,-51.9038,-15.7386,179.319,1.64795,-144.866,440
1569661137,362.099,-51.9038,-15.7386,179.319,1.64795,-144.866,440
1569661137,362.099,-51.9038,-15.7386,179.319,1.64795,-144.866,440
1569661137,362.099,-51.9038,-15.7386,179.319,1.64795,-144.866,440
1569661137,362.099,-51.9038,-15.7386,179.319,1.62598,-144.866,440
1569661137,362.099,-51.9038,-15.7386,179.319,1.62598,-144.866,440
1569661137,362.099,-51.9038,-15.7386,179.319,1.62598,-144.866,440
1569661137,362.099,-51.9038,-15.8502,179.319,1.62598,-144.866,436
1569661137,362.099,-51.9038,-15.8502,179.319,1.62598,-144.866,436
1569661137,362.099,-51.9038,-15.8502,179.319,1.62598,-144.844,436
1569661137,362.099,-51.9038,-15.8502,179.319,1.62598,-144.844,436
1569661137,362.099,-51.9038,-15.8502,179.319,1.62598,-144.844,436
1569661137,362.099,-51.9038,-15.8502,179.319,1.62598,-144.844,436
1569661137,362.099,-51.9038,-15.8502,179.319,1.62598,-144.844,436
1569661137,362.099,-51.9038,-15.8502,179.319,1.62598,-144.844,436
1569661137,362.099,-51.9038,-15.8502,179.319,1.62598,-144.844,436
1569661137,362.099,-51.9038,-15.8502,179.319,1.62598,-144.844,436
1569661137,362.099,-51.9038,-15.8502,179.319,1.62598,-144.844,436
1569661137,362.099,-51.9038,-15.8502,179.319,1.62598,-144.844,436
1569661137,362.099,-51.9038,-15.8502,179.319,1.62598,-144.844,436
1569661137,362.099,-51.9038,-15.8502,179.319,1.62598,-144.844,436
1569661137,362.099,-51.9038,-15.8502,179.319,1.62598,-144.844,436
1569661137,362.099,-51.9038,-15.8502,179.319,1.62598,-144.844,436
1569661137,362.099,-51.9038,-15.8502,179.319,1.62598,-144.844,436
1569661137,362.099,-51.9038,-15.8502,179.319,1.62598,-144.844,436
1569661137,362.099,-51.9038,-15.8502,179.319,1.62598,-144.844,436
1569661137,362.099,-51.9038,-15.8502,179.319,1.62598,-144.844,436
1569661137,362.099,-51.9038,-15.8502,179.319,1.62598,-144.844,436
1569661137,362.099,-51.9038,-15.7386,179.297,1.62598,-144.844,436
1569661137,362.099,-51.9038,-15.7386,179.297,1.62598,-144.844,436
1569661137,362.099,-52.0154,-15.7386,179.297,1.62598,-144.844,432
1569661137,362.099,-52.0154,-15.7386,179.297,1.62598,-144.844,432
1569661137,362.099,-52.0154,-15.8502,179.297,1.62598,-144.844,432
1569661137,362.099,-52.0154,-15.8502,179.297,1.62598,-144.844,432
1569661137,362.099,-52.0154,-15.8502,179.297,1.62598,-144.844,432
1569661137,362.099,-52.0154,-15.8502,179.297,1.62598,-144.844,432
1569661137,362.099,-52.0154,-15.8502,179.297,1.62598,-144.844,428
1569661137,362.099,-52.0154,-15.8502,179.275,1.62598,-144.844,428
1569661137,362.099,-52.0154,-15.8502,179.275,1.62598,-144.844,428
1569661137,362.099,-52.0154,-15.8502,179.275,1.62598,-144.844,428
1569661137,362.099,-52.0154,-15.7386,179.275,1.62598,-144.844,424
1569661137,362.099,-52.0154,-15.7386,179.275,1.62598,-144.844,424
1569661137,362.099,-52.0154,-15.7386,179.275,1.62598,-144.844,424
1569661137,362.099,-52.0154,-15.7386,179.275,1.62598,-144.844,424
1569661137,362.099,-52.0154,-15.7386,179.275,1.62598,-144.844,424
1569661137,362.099,-52.0154,-15.7386,179.275,1.64795,-144.844,424
1569661137,362.099,-52.0154,-15.7386,179.275,1.64795,-144.844,424
1569661137,362.099,-52.0154,-15.7386,179.275,1.64795,-144.844,424
1569661137,362.099,-52.0154,-15.7386,179.275,1.64795,-144.844,428
1569661137,362.099,-52.0154,-15.7386,179.275,1.64795,-144.844,428
1569661137,362.099,-52.0154,-15.7386,179.275,1.64795,-144.844,428
1569661137,362.099,-52.0154,-15.7386,179.275,1.64795,-144.844,428
1569661137,362.099,-52.0154,-15.7386,179.275,1.64795,-144.844,428
1569661137,362.099,-52.0154,-15.7386,179.275,1.62598,-144.866,432
1569661137,362.099,-52.0154,-15.7386,179.275,1.62598,-144.866,432
1569661137,362.099,-52.0154,-15.7386,179.275,1.62598,-144.866,432
1569661137,362.099,-52.0154,-15.7386,179.275,1.62598,-144.866,432
1569661137,362.099,-52.0154,-15.7386,179.297,1.62598,-144.866,432
1569661137,362.099,-52.0154,-15.7386,179.297,1.62598,-144.866,432
1569661137,362.099,-52.0154,-15.7386,179.297,1.62598,-144.866,436
1569661137,362.099,-52.0154,-15.7386,179.297,1.62598,-144.866,436
1569661137,362.099,-52.0154,-15.7386,179.297,1.62598,-144.866,436
1569661137,362.099,-52.0154,-15.7386,179.297,1.62598,-144.866,436
1569661137,362.099,-51.9038,-15.7386,179.297,1.62598,-144.866,436
1569661137,362.099,-51.9038,-15.7386,179.297,1.62598,-144.844,436
1569661137,362.099,-51.9038,-15.7386,179.297,1.62598,-144.844,436
1569661138,362.099,-51.9038,-15.7386,179.297,1.62598,-144.866,436
1569661138,362.099,-51.9038,-15.7386,179.297,1.62598,-144.866,436
1569661138,362.099,-51.9038,-15.8502,179.297,1.62598,-144.866,436
1569661138,362.099,-51.9038,-15.8502,179.297,1.62598,-144.866,436
1569661138,362.099,-52.0154,-15.8502,179.297,1.62598,-144.866,436
1569661138,362.099,-52.0154,-15.8502,179.275,1.62598,-144.866,436
1569661138,362.099,-52.0154,-15.8502,179.275,1.62598,-144.866,436
1569661138,362.099,-52.0154,-15.7386,179.275,1.62598,-144.866,436
1569661138,362.099,-52.0154,-15.7386,179.275,1.62598,-144.866,436
1569661138,362.099,-52.0154,-15.7386,179.275,1.62598,-144.866,436
1569661138,362.099,-52.0154,-15.7386,179.275,1.62598,-144.866,436
1569661138,362.099,-52.0154,-15.7386,179.275,1.62598,-144.866,436
1569661138,362.099,-52.0154,-15.8502,179.275,1.62598,-144.866,436
1569661138,362.099,-52.0154,-15.8502,179.275,1.62598,-144.866,436
1569661138,362.099,-52.0154,-15.8502,179.275,1.62598,-144.844,436
1569661138,362.099,-52.0154,-15.8502,179.275,1.62598,-144.844,436
1569661138,362.099,-52.0154,-15.8502,179.297,1.62598,-144.844,436
1569661138,362.099,-52.0154,-15.8502,179.297,1.62598,-144.844,436
1569661138,362.099,-52.0154,-15.8502,179.275,1.62598,-144.844,436
1569661138,362.099,-52.0154,-15.8502,179.275,1.62598,-144.844,436
1569661138,362.099,-52.0154,-15.8502,179.275,1.62598,-144.844,436
1569661138,362.099,-52.0154,-15.8502,179.275,1.62598,-144.844,436
1569661138,362.099,-52.0154,-15.8502,179.275,1.62598,-144.844,436
1569661138,362.099,-52.0154,-15.8502,179.275,1.62598,-144.844,436
1569661138,362.099,-52.0154,-15.8502,179.297,1.62598,-144.844,432
1569661138,362.099,-52.0154,-15.8502,179.297,1.62598,-144.844,432
1569661138,362.099,-52.0154,-15.8502,179.297,1.62598,-144.844,432
1569661138,362.099,-52.0154,-15.8502,179.297,1.62598,-144.844,432
1569661138,362.099,-52.0154,-15.8502,179.297,1.62598,-144.844,432
1569661138,362.099,-52.0154,-15.8502,179.297,1.62598,-144.844,432
1569661138,362.099,-52.0154,-15.8502,179.297,1.62598,-144.844,432
1569661138,362.099,-52.0154,-15.8502,179.297,1.62598,-144.844,432
1569661138,362.099,-52.0154,-15.8502,179.297,1.62598,-144.844,432
1569661138,362.099,-52.0154,-15.8502,179.297,1.62598,-144.844,432
1569661138,362.099,-52.0154,-15.8502,179.297,1.62598,-144.844,432
1569661138,362.099,-52.0154,-15.7386,179.297,1.62598,-144.844,432
1569661138,362.099,-52.0154,-15.7386,179.297,1.64795,-144.844,432
1569661138,362.099,-52.0154,-15.7386,179.297,1.64795,-144.844,432
1569661138,362.099,-52.0154,-15.7386,179.297,1.64795,-144.844,432
1569661138,362.099,-52.0154,-15.7386,179.297,1.64795,-144.844,432
1569661138,362.099,-52.0154,-15.7386,179.297,1.64795,-144.844,432
1569661138,362.099,-52.0154,-15.7386,179.297,1.64795,-144.844,432
1569661138,362.099,-52.0154,-15.7386,179.297,1.64795,-144.844,432
1569661138,362.099,-52.0154,-15.7386,179.297,1.64795,-144.844,432
1569661138,362.099,-52.0154,-15.7386,179.297,1.64795,-144.844,432
1569661138,362.099,-52.0154,-15.7386,179.297,1.64795,-144.844,432
1569661138,362.099,-52.0154,-15.7386,179.297,1.64795,-144.844,432
1569661138,362.099,-51.9038,-15.7386,179.297,1.64795,-144.844,432
1569661138,362.099,-51.9038,-15.7386,179.297,1.64795,-144.844,432
1569661138,362.099,-51.9038,-15.7386,179.297,1.64795,-144.844,432
1569661138,362.099,-51.9038,-15.7386,179.297,1.64795,-144.844,432
1569661138,362.099,-51.9038,-15.7386,179.319,1.64795,-144.844,432
1569661138,362.099,-51.9038,-15.7386,179.319,1.64795,-144.844,436
1569661138,362.099,-51.9038,-15.7386,179.319,1.64795,-144.844,436
1569661138,362.099,-51.9038,-15.7386,179.319,1.66992,-144.844,436
1569661138,362.099,-51.9038,-15.7386,179.319,1.64795,-144.844,436
1569661138,362.099,-51.9038,-15.7386,179.319,1.64795,-144.844,436
1569661138,362.099,-51.9038,-15.7386,179.319,1.64795,-144.844,436
1569661138,362.099,-51.9038,-15.7386,179.319,1.64795,-144.844,436
1569661138,362.099,-51.9038,-15.7386,179.319,1.64795,-144.844,436
1569661138,362.099,-51.9038,-15.7386,179.319,1.64795,-144.844,436
1569661138,362.099,-51.9038,-15.7386,179.319,1.64795,-144.844,440
1569661138,362.099,-51.9038,-15.7386,179.319,1.64795,-144.844,440
1569661138,362.099,-51.9038,-15.7386,179.319,1.64795,-144.844,440
1569661138,362.099,-51.9038,-15.7386,179.319,1.64795,-144.844,440
1569661138,362.099,-51.9038,-15.7386,179.319,1.64795,-144.844,444
1569661138,362.099,-51.9038,-15.7386,179.319,1.64795,-144.844,444
1569661138,362.099,-51.9038,-15.7386,179.319,1.62598,-144.844,444
1569661138,362.099,-51.9038,-15.7386,179.319,1.62598,-144.844,444
1569661138,362.099,-51.9038,-15.7386,179.319,1.62598,-144.866,448
1569661138,362.099,-51.9038,-15.7386,179.319,1.62598,-144.866,448
1569661138,362.099,-51.9038,-15.7386,179.319,1.62598,-144.866,448
1569661138,362.099,-51.9038,-15.7386,179.319,1.62598,-144.866,448
1569661138,362.099,-51.9038,-15.7386,179.319,1.62598,-144.866,448
1569661138,362.099,-51.9038,-15.7386,179.319,1.62598,-144.866,448
1569661138,362.099,-51.9038,-15.7386,179.319,1.62598,-144.866,448
1569661138,362.099,-51.9038,-15.7386,179.319,1.62598,-144.866,448
1569661138,362.099,-51.9038,-15.7386,179.297,1.62598,-144.866,448
1569661138,362.099,-51.9038,-15.7386,179.297,1.62598,-144.866,448
1569661138,362.099,-51.9038,-15.7386,179.297,1.62598,-144.866,448
1569661138,362.099,-51.9038,-15.7386,179.297,1.62598,-144.866,448
1569661138,362.099,-51.9038,-15.7386,179.297,1.62598,-144.844,448
