time,x,y,z,ax,ay,az,q
1569940568,360.648,-146.335,28.2401,176.287,1.27441,88.7476,544
1569940568,360.648,-146.335,28.2401,176.287,1.27441,88.7476,544
1569940568,360.648,-146.335,28.2401,176.287,1.27441,88.7476,544
1569940568,360.648,-146.335,28.2401,176.287,1.27441,88.7476,544
1569940568,360.648,-146.335,28.2401,176.287,1.27441,88.7476,544
1569940568,360.648,-146.335,28.2401,176.287,1.27441,88.7476,544
1569940568,360.648,-146.335,28.2401,176.287,1.27441,88.7476,544
1569940568,360.648,-146.335,28.2401,176.287,1.27441,88.7476,544
1569940568,360.648,-146.335,28.2401,176.287,1.27441,88.7476,544
1569940568,360.648,-146.335,28.2401,176.287,1.27441,88.7476,544
1569940568,360.648,-146.335,28.2401,176.287,1.27441,88.7476,544
1569940568,360.648,-146.335,28.2401,176.287,1.27441,88.7476,544
1569940568,360.648,-146.335,28.2401,176.287,1.27441,88.7476,544
1569940568,360.648,-146.335,28.2401,176.287,1.27441,88.7476,544
1569940568,360.648,-146.335,28.2401,176.287,1.27441,88.7476,544
1569940568,360.648,-146.335,28.2401,176.287,1.27441,88.7476,544
1569940568,360.648,-146.335,28.2401,176.287,1.27441,88.7476,544
1569940568,360.648,-146.335,28.2401,176.287,1.27441,88.7476,544
1569940568,360.648,-146.335,28.2401,176.287,1.27441,88.7476,544
1569940568,360.648,-146.335,28.2401,176.287,1.27441,88.7476,544
1569940568,360.648,-146.335,28.2401,176.287,1.27441,88.7476,544
1569940568,360.648,-146.335,28.2401,176.287,1.27441,88.7476,544
1569940568,360.648,-146.335,28.2401,176.287,1.27441,88.7476,544
1569940568,360.648,-146.335,28.2401,176.287,1.27441,88.7476,544
1569940568,360.648,-146.335,28.2401,176.287,1.27441,88.7476,544
1569940568,360.648,-146.335,28.2401,176.287,1.27441,88.7476,544
1569940568,360.648,-146.335,28.2401,176.287,1.27441,88.7476,544
1569940568,360.648,-146.335,28.2401,176.287,1.27441,88.7476,544
1569940568,360.648,-146.335,28.2401,176.287,1.27441,88.7476,544
1569940568,360.648,-146.335,28.2401,176.287,1.27441,88.7476,544
1569940568,360.648,-146.335,28.2401,176.287,1.27441,88.7476,544
1569940568,360.648,-146.335,28.2401,176.287,1.27441,88.7476,544
1569940568,360.648,-146.335,28.2401,176.287,1.27441,88.7476,544
1569940568,360.648,-146.335,28.2401,176.287,1.27441,88.7476,544
1569940568,360.648,-146.335,28.2401,176.287,1.27441,88.7476,544
1569940568,360.648,-146.335,28.2401,176.287,1.27441,88.7476,544
1569940568,360.648,-146.335,28.2401,176.287,1.27441,88.7476,544
1569940568,360.648,-146.335,28.2401,176.287,1.27441,88.7476,544
1569940568,360.648,-146.335,28.2401,176.287,1.27441,88.7476,544
1569940568,360.648,-146.335,28.2401,176.287,1.27441,88.7476,544
1569940568,360.648,-146.335,28.2401,176.287,1.27441,88.7476,544
1569940568,360.648,-146.335,28.2401,176.287,1.27441,88.7476,544
1569940568,360.648,-146.335,28.2401,176.287,1.27441,88.7476,544
1569940568,360.648,-146.335,28.2401,176.287,1.27441,88.7476,544
1569940568,360.648,-146.335,28.2401,176.287,1.27441,88.7476,544
1569940568,360.648,-146.335,28.2401,176.287,1.27441,88.7476,544
1569940568,360.648,-146.335,28.2401,176.287,1.27441,88.7476,544
1569940568,360.648,-146.335,28.2401,176.287,1.27441,88.7476,544
1569940568,360.648,-146.335,28.2401,176.287,1.27441,88.7476,544
1569940568,360.648,-146.335,28.2401,176.287,1.27441,88.7476,544
1569940568,360.648,-146.335,28.2401,176.287,1.27441,88.7476,544
1569940568,360.648,-146.335,28.2401,176.287,1.27441,88.7476,544
1569940568,360.648,-146.335,28.2401,176.287,1.27441,88.7476,544
1569940568,360.648,-146.335,28.2401,176.287,1.27441,88.7476,544
1569940568,360.648,-146.335,28.2401,176.287,1.27441,88.7476,544
1569940568,360.648,-146.335,28.2401,176.287,1.27441,88.7476,544
1569940568,360.648,-146.335,28.2401,176.287,1.27441,88.7476,544
1569940568,360.648,-146.335,28.2401,176.287,1.27441,88.7476,544
1569940568,360.648,-146.335,28.2401,176.287,1.27441,88.7476,544
1569940568,360.648,-146.335,28.2401,176.287,1.27441,88.7476,544
1569940568,360.648,-146.335,28.2401,176.287,1.27441,88.7476,544
1569940568,360.648,-146.335,28.2401,176.287,1.27441,88.7476,544
1569940568,360.648,-146.335,28.2401,176.287,1.27441,88.7476,544
1569940568,360.648,-146.335,28.2401,176.287,1.27441,88.7476,544
1569940568,360.648,-146.335,28.2401,176.287,1.27441,88.7476,544
1569940568,360.648,-146.335,28.2401,176.287,1.27441,88.7476,544
1569940568,360.648,-146.335,28.2401,176.287,1.27441,88.7476,544
1569940568,360.648,-146.335,28.2401,176.287,1.27441,88.7476,544
1569940568,360.648,-146.335,28.2401,176.287,1.27441,88.7476,544
1569940568,360.648,-146.335,28.2401,176.287,1.27441,88.7476,544
1569940568,360.648,-146.335,28.2401,176.287,1.27441,88.7476,544
1569940568,360.648,-146.335,28.2401,176.287,1.27441,88.7476,544
1569940568,360.648,-146.335,28.2401,176.287,1.27441,88.7476,544
1569940568,360.648,-146.335,28.2401,176.287,1.27441,88.7476,544
1569940568,360.648,-146.335,28.2401,176.287,1.27441,88.7476,544
1569940568,360.648,-146.335,28.2401,176.287,1.27441,88.7476,544
1569940568,360.648,-146.335,28.2401,176.287,1.27441,88.7476,544
1569940568,360.648,-146.335,28.2401,176.287,1.27441,88.7476,548
1569940568,360.648,-146.335,28.2401,176.287,1.27441,88.7476,548
1569940568,360.648,-146.335,28.2401,176.287,1.27441,88.7476,548
1569940568,360.648,-146.335,28.2401,176.287,1.27441,88.7476,544
1569940568,360.648,-146.335,28.2401,176.265,1.27441,88.7476,544
1569940568,360.648,-146.335,28.2401,176.265,1.27441,88.7476,544
1569940569,360.648,-146.335,28.2401,176.265,1.27441,88.7476,544
1569940569,360.648,-146.335,28.2401,176.265,1.27441,88.7476,544
1569940569,360.648,-146.335,28.2401,176.265,1.27441,88.7476,544
1569940569,360.648,-146.335,28.2401,176.265,1.27441,88.7476,544
1569940569,360.648,-146.335,28.2401,176.265,1.27441,88.7476,544
1569940569,360.648,-146.335,28.2401,176.287,1.27441,88.7476,544
1569940569,360.648,-146.335,28.2401,176.287,1.27441,88.7476,544
1569940569,360.648,-146.335,28.2401,176.287,1.27441,88.7476,544
1569940569,360.648,-146.335,28.2401,176.287,1.27441,88.7476,544
1569940569,360.648,-146.335,28.2401,176.287,1.27441,88.7476,544
1569940569,360.648,-146.335,28.2401,176.287,1.27441,88.7476,544
1569940569,360.648,-146.335,28.2401,176.287,1.27441,88.7476,544
1569940569,360.648,-146.335,28.2401,176.287,1.27441,88.7476,544
1569940569,360.648,-146.335,28.2401,176.287,1.27441,88.7476,544
1569940569,360.648,-146.335,28.2401,176.287,1.27441,88.7476,544
1569940569,360.648,-146.335,28.2401,176.287,1.27441,88.7476,544
1569940569,360.648,-146.335,28.2401,176.287,1.27441,88.7476,544
1569940569,360.648,-146.335,28.2401,176.287,1.27441,88.7476,544
1569940569,360.648,-146.335,28.2401,176.287,1.27441,88.7476,544
1569940569,360.648,-146.335,28.2401,176.287,1.27441,88.7476,544
1569940569,360.648,-146.335,28.2401,176.287,1.27441,88.7476,544
1569940569,360.648,-146.335,28.2401,176.287,1.27441,88.7476,544
1569940569,360.648,-146.335,28.2401,176.287,1.27441,88.7476,544
1569940569,360.648,-146.335,28.2401,176.287,1.27441,88.7476,544
1569940569,360.648,-146.335,28.2401,176.287,1.27441,88.7476,544
1569940569,360.648,-146.335,28.2401,176.287,1.27441,88.7476,544
1569940569,360.648,-146.335,28.2401,176.287,1.27441,88.7476,544
1569940569,360.648,-146.335,28.2401,176.287,1.27441,88.7476,548
1569940569,360.648,-146.335,28.2401,176.287,1.27441,88.7476,548
1569940569,360.648,-146.335,28.2401,176.287,1.27441,88.7476,548
1569940569,360.648,-146.335,28.2401,176.287,1.27441,88.7476,548
1569940569,360.648,-146.335,28.2401,176.287,1.27441,88.7476,548
1569940569,360.648,-146.335,28.2401,176.287,1.27441,88.7476,548
1569940569,360.648,-146.335,28.2401,176.287,1.27441,88.7476,548
1569940569,360.648,-146.335,28.2401,176.287,1.27441,88.7476,548
1569940569,360.648,-146.335,28.2401,176.287,1.27441,88.7476,548
1569940569,360.648,-146.335,28.2401,176.287,1.27441,88.7476,548
1569940569,360.648,-146.335,28.2401,176.287,1.27441,88.7476,548
1569940569,360.648,-146.335,28.2401,176.287,1.27441,88.7476,548
1569940569,360.648,-146.335,28.2401,176.287,1.27441,88.7476,548
1569940569,360.648,-146.335,28.2401,176.287,1.27441,88.7476,548
1569940569,360.648,-146.335,28.2401,176.287,1.27441,88.7476,548
1569940569,360.648,-146.335,28.2401,176.287,1.27441,88.7476,548
1569940569,360.648,-146.335,28.2401,176.287,1.27441,88.7476,548
1569940569,360.648,-146.335,28.2401,176.287,1.27441,88.7476,548
1569940569,360.648,-146.335,28.2401,176.287,1.27441,88.7476,548
1569940569,360.648,-146.335,28.2401,176.287,1.27441,88.7476,548
1569940569,360.648,-146.335,28.2401,176.287,1.27441,88.7476,548
1569940569,360.648,-146.335,28.2401,176.287,1.27441,88.7476,548
1569940569,360.648,-146.335,28.2401,176.287,1.27441,88.7476,548
1569940569,360.648,-146.335,28.2401,176.287,1.27441,88.7476,548
1569940569,360.648,-146.335,28.2401,176.287,1.27441,88.7476,548
1569940569,360.648,-146.335,28.2401,176.287,1.27441,88.7476,548
1569940569,360.648,-146.335,28.2401,176.287,1.27441,88.7476,548
1569940569,360.648,-146.335,28.2401,176.287,1.27441,88.7476,548
1569940569,360.648,-146.335,28.2401,176.287,1.27441,88.7476,548
1569940569,360.648,-146.335,28.2401,176.287,1.27441,88.7476,548
1569940569,360.648,-146.335,28.2401,176.287,1.27441,88.7476,548
1569940569,360.648,-146.335,28.2401,176.287,1.27441,88.7476,548
1569940569,360.648,-146.335,28.2401,176.287,1.27441,88.7476,548
1569940569,360.648,-146.335,28.2401,176.287,1.27441,88.7476,548
1569940569,360.648,-146.335,28.2401,176.265,1.27441,88.7476,548
1569940569,360.648,-146.335,28.2401,176.287,1.27441,88.7476,548
1569940569,360.648,-146.335,28.2401,176.287,1.27441,88.7476,548
1569940569,360.648,-146.335,28.2401,176.265,1.27441,88.7476,548
1569940569,360.648,-146.335,28.2401,176.265,1.27441,88.7476,548
1569940569,360.648,-146.335,28.2401,176.287,1.27441,88.7476,548
1569940569,360.648,-146.335,28.2401,176.287,1.27441,88.7476,548
1569940569,360.648,-146.335,28.2401,176.287,1.27441,88.7476,548
1569940569,360.648,-146.335,28.2401,176.287,1.27441,88.7476,548
1569940569,360.648,-146.335,28.2401,176.287,1.27441,88.7476,544
1569940569,360.648,-146.335,28.2401,176.287,1.27441,88.7476,544
1569940569,360.648,-146.335,28.2401,176.287,1.27441,88.7476,544
1569940569,360.648,-146.335,28.2401,176.287,1.27441,88.7476,544
1569940569,360.648,-146.335,28.2401,176.287,1.27441,88.7476,544
1569940569,360.648,-146.335,28.2401,176.287,1.27441,88.7476,544
1569940569,360.648,-146.335,28.2401,176.287,1.27441,88.7476,544
1569940569,360.648,-146.335,28.2401,176.287,1.27441,88.7476,544
1569940569,360.648,-146.335,28.2401,176.287,1.27441,88.7476,544
1569940569,360.648,-146.335,28.2401,176.287,1.27441,88.7476,544
1569940569,360.648,-146.335,28.2401,176.287,1.27441,88.7476,544
1569940569,360.648,-146.335,28.2401,176.287,1.27441,88.7476,544
1569940569,360.648,-146.335,28.2401,176.287,1.27441,88.7476,544
1569940569,360.648,-146.335,28.2401,176.287,1.27441,88.7476,544
1569940569,360.648,-146.335,28.2401,176.287,1.27441,88.7476,544
1569940569,360.648,-146.335,28.2401,176.287,1.27441,88.7476,544
1569940569,360.648,-146.335,28.2401,176.287,1.27441,88.7476,544
1569940569,360.648,-146.335,28.2401,176.287,1.27441,88.7476,544
1569940569,360.648,-146.335,28.2401,176.287,1.27441,88.7476,544
1569940569,360.648,-146.335,28.2401,176.287,1.27441,88.7476,544
1569940569,360.648,-146.335,28.2401,176.287,1.27441,88.7476,544
1569940569,360.648,-146.335,28.2401,176.287,1.27441,88.7476,544
1569940569,360.648,-146.335,28.2401,176.287,1.27441,88.7476,544
1569940569,360.648,-146.335,28.2401,176.287,1.27441,88.7476,544
1569940569,360.648,-146.335,28.2401,176.287,1.27441,88.7476,544
1569940569,360.648,-146.335,28.2401,176.287,1.27441,88.7476,544
1569940569,360.648,-146.335,28.2401,176.287,1.27441,88.7476,544
1569940569,360.648,-146.335,28.2401,176.287,1.27441,88.7476,544
1569940569,360.648,-146.335,28.2401,176.287,1.27441,88.7476,544
1569940569,360.648,-146.335,28.2401,176.287,1.27441,88.7476,544
1569940570,360.648,-146.335,28.2401,176.287,1.27441,88.7476,544
1569940570,360.648,-146.335,28.2401,176.287,1.27441,88.7476,544
1569940570,360.648,-146.335,28.2401,176.287,1.27441,88.7476,544
1569940570,360.648,-146.335,28.2401,176.287,1.27441,88.7476,544
1569940570,360.648,-146.335,28.2401,176.287,1.27441,88.7476,544
1569940570,360.648,-146.335,28.2401,176.287,1.27441,88.7476,544
1569940570,360.648,-146.335,28.2401,176.287,1.27441,88.7476,544
1569940570,360.648,-146.335,28.2401,176.287,1.27441,88.7476,544
1569940570,360.648,-146.335,28.2401,176.287,1.27441,88.7476,544
1569940570,360.648,-146.335,28.2401,176.287,1.27441,88.7476,544
1569940570,360.648,-146.335,28.2401,176.287,1.27441,88.7476,544
1569940570,360.648,-146.335,28.2401,176.287,1.27441,88.7476,544
1569940570,360.648,-146.335,28.2401,176.287,1.27441,88.7476,544
1569940570,360.648,-146.335,28.2401,176.287,1.27441,88.7476,544
1569940570,360.648,-146.335,28.2401,176.287,1.27441,88.7476,544
1569940570,360.648,-146.335,28.2401,176.287,1.27441,88.7476,544
1569940570,360.648,-146.335,28.2401,176.287,1.27441,88.7476,544
1569940570,360.648,-146.335,28.2401,176.287,1.27441,88.7476,544
1569940570,360.648,-146.335,28.2401,176.287,1.27441,88.7476,544
1569940570,360.648,-146.335,28.2401,176.287,1.27441,88.7476,544
1569940570,360.648,-146.335,28.2401,176.287,1.27441,88.7476,544
1569940570,360.648,-146.335,28.2401,176.287,1.27441,88.7476,544
1569940570,360.648,-146.335,28.2401,176.287,1.27441,88.7476,544
1569940570,360.648,-146.335,28.2401,176.287,1.27441,88.7476,544
1569940570,360.648,-146.335,28.2401,176.287,1.27441,88.7476,544
1569940570,360.648,-146.335,28.2401,176.287,1.27441,88.7476,544
1569940570,360.648,-146.335,28.2401,176.287,1.27441,88.7476,544
1569940570,360.648,-146.335,28.2401,176.287,1.27441,88.7476,544
1569940570,360.648,-146.335,28.2401,176.287,1.27441,88.7476,544
1569940570,360.648,-146.335,28.2401,176.287,1.27441,88.7476,544
1569940570,360.648,-146.335,28.2401,176.287,1.27441,88.7476,544
1569940570,360.648,-146.335,28.2401,176.265,1.27441,88.7476,544
1569940570,360.648,-146.335,28.2401,176.265,1.27441,88.7476,544
1569940570,360.648,-146.335,28.2401,176.265,1.27441,88.7476,544
1569940570,360.648,-146.335,28.2401,176.265,1.27441,88.7476,544
1569940570,360.648,-146.335,28.2401,176.265,1.27441,88.7476,544
1569940570,360.648,-146.335,28.2401,176.265,1.27441,88.7476,544
1569940570,360.648,-146.335,28.2401,176.265,1.27441,88.7476,544
1569940570,360.648,-146.335,28.2401,176.265,1.27441,88.7476,544
1569940570,360.648,-146.335,28.2401,176.265,1.27441,88.7476,544
1569940570,360.648,-146.335,28.2401,176.287,1.27441,88.7476,544
1569940570,360.648,-146.335,28.2401,176.287,1.27441,88.7476,544
1569940570,360.648,-146.335,28.2401,176.287,1.27441,88.7476,544
1569940570,360.648,-146.335,28.2401,176.287,1.27441,88.7476,544
1569940570,360.648,-146.335,28.2401,176.287,1.27441,88.7476,544
1569940570,360.648,-146.335,28.2401,176.287,1.27441,88.7476,544
1569940570,360.648,-146.335,28.2401,176.287,1.27441,88.7476,544
1569940570,360.648,-146.335,28.2401,176.287,1.27441,88.7476,544
1569940570,360.648,-146.335,28.2401,176.265,1.27441,88.7476,544
1569940570,360.648,-146.335,28.2401,176.265,1.27441,88.7476,544
1569940570,360.648,-146.335,28.2401,176.265,1.27441,88.7476,544
1569940570,360.648,-146.335,28.2401,176.265,1.27441,88.7476,544
1569940570,360.648,-146.335,28.2401,176.265,1.27441,88.7476,544
1569940570,360.648,-146.335,28.2401,176.265,1.27441,88.7476,544
1569940570,360.648,-146.335,28.2401,176.265,1.27441,88.7476,544
1569940570,360.648,-146.335,28.2401,176.265,1.27441,88.7476,544
1569940570,360.648,-146.335,28.2401,176.287,1.27441,88.7476,544
1569940570,360.648,-146.335,28.2401,176.287,1.27441,88.7476,544
1569940570,360.648,-146.335,28.2401,176.287,1.27441,88.7476,544
1569940570,360.648,-146.335,28.2401,176.287,1.27441,88.7476,544
1569940570,360.648,-146.335,28.2401,176.265,1.27441,88.7476,544
1569940570,360.648,-146.335,28.2401,176.265,1.27441,88.7476,544
1569940570,360.648,-146.335,28.2401,176.265,1.27441,88.7476,544
1569940570,360.648,-146.335,28.2401,176.265,1.27441,88.7476,544
1569940570,360.648,-146.335,28.2401,176.265,1.27441,88.7476,544
1569940570,360.648,-146.335,28.2401,176.265,1.27441,88.7476,544
1569940570,360.648,-146.335,28.2401,176.265,1.27441,88.7476,544
1569940570,360.648,-146.335,28.2401,176.265,1.27441,88.7476,544
1569940570,360.648,-146.335,28.2401,176.265,1.27441,88.7476,544
1569940570,360.648,-146.335,28.2401,176.265,1.27441,88.7476,544
1569940570,360.648,-146.335,28.2401,176.287,1.27441,88.7476,544
1569940570,360.648,-146.335,28.2401,176.287,1.27441,88.7476,544
1569940570,360.648,-146.335,28.2401,176.287,1.27441,88.7476,544
1569940570,360.648,-146.335,28.2401,176.287,1.27441,88.7476,544
1569940570,360.648,-146.335,28.2401,176.287,1.27441,88.7476,544
1569940570,360.648,-146.335,28.2401,176.287,1.27441,88.7476,544
1569940570,360.648,-146.335,28.2401,176.287,1.27441,88.7476,544
1569940570,360.648,-146.335,28.2401,176.287,1.27441,88.7476,544
1569940570,360.648,-146.335,28.2401,176.287,1.27441,88.7476,544
1569940570,360.648,-146.335,28.2401,176.287,1.27441,88.7476,544
1569940570,360.648,-146.335,28.2401,176.287,1.27441,88.7476,544
1569940570,360.648,-146.335,28.2401,176.287,1.27441,88.7476,544
1569940570,360.648,-146.335,28.2401,176.287,1.27441,88.7476,544
1569940570,360.648,-146.335,28.2401,176.287,1.27441,88.7476,544
1569940570,360.648,-146.335,28.2401,176.287,1.27441,88.7476,544
1569940570,360.648,-146.335,28.2401,176.287,1.27441,88.7476,544
1569940570,360.648,-146.335,28.2401,176.287,1.27441,88.7476,544
1569940570,360.648,-146.335,28.2401,176.287,1.27441,88.7476,544
1569940570,360.648,-146.335,28.2401,176.265,1.27441,88.7476,544
1569940570,360.648,-146.335,28.2401,176.265,1.27441,88.7476,544
1569940570,360.648,-146.335,28.2401,176.265,1.27441,88.7476,544
1569940570,360.648,-146.335,28.2401,176.265,1.27441,88.7476,544
1569940570,360.648,-146.335,28.2401,176.265,1.27441,88.7476,544
1569940570,360.648,-146.335,28.2401,176.265,1.27441,88.7476,544
1569940570,360.648,-146.335,28.2401,176.265,1.27441,88.7476,544
1569940570,360.648,-146.335,28.2401,176.265,1.27441,88.7476,548
1569940570,360.648,-146.335,28.2401,176.265,1.27441,88.7476,548
1569940570,360.648,-146.335,28.2401,176.265,1.27441,88.7476,548
1569940570,360.648,-146.335,28.2401,176.265,1.27441,88.7476,548
1569940570,360.648,-146.335,28.2401,176.265,1.27441,88.7476,548
1569940571,360.648,-146.335,28.2401,176.265,1.27441,88.7476,548
1569940571,360.648,-146.335,28.2401,176.287,1.27441,88.7476,548
1569940571,360.648,-146.335,28.2401,176.287,1.27441,88.7476,548
1569940571,360.648,-146.335,28.2401,176.287,1.27441,88.7476,548
1569940571,360.648,-146.335,28.2401,176.287,1.27441,88.7476,544
1569940571,360.648,-146.335,28.2401,176.287,1.27441,88.7476,548
1569940571,360.648,-146.335,28.2401,176.287,1.27441,88.7476,548
1569940571,360.648,-146.335,28.2401,176.287,1.27441,88.7476,548
1569940571,360.648,-146.335,28.2401,176.287,1.27441,88.7476,548
1569940571,360.648,-146.335,28.2401,176.287,1.27441,88.7476,548
1569940571,360.648,-146.335,28.2401,176.287,1.27441,88.7476,548
1569940571,360.648,-146.335,28.2401,176.287,1.27441,88.7476,548
1569940571,360.648,-146.335,28.2401,176.287,1.27441,88.7476,548
1569940571,360.648,-146.335,28.2401,176.287,1.27441,88.7476,548
1569940571,360.648,-146.335,28.2401,176.287,1.27441,88.7476,548
1569940571,360.648,-146.335,28.2401,176.287,1.27441,88.7476,548
1569940571,360.648,-146.335,28.2401,176.287,1.27441,88.7476,548
1569940571,360.648,-146.335,28.2401,176.287,1.27441,88.7476,548
1569940571,360.648,-146.335,28.2401,176.287,1.27441,88.7476,548
1569940571,360.648,-146.335,28.2401,176.287,1.27441,88.7476,548
1569940571,360.648,-146.335,28.2401,176.287,1.27441,88.7476,548
1569940571,360.648,-146.335,28.2401,176.287,1.27441,88.7476,548
1569940571,360.648,-146.335,28.2401,176.287,1.27441,88.7476,548
1569940571,360.648,-146.335,28.2401,176.287,1.27441,88.7476,548
1569940571,360.648,-146.335,28.2401,176.287,1.27441,88.7476,548
1569940571,360.648,-146.335,28.2401,176.287,1.27441,88.7476,548
1569940571,360.648,-146.335,28.2401,176.287,1.27441,88.7476,548
1569940571,360.648,-146.335,28.2401,176.287,1.27441,88.7476,548
1569940571,360.648,-146.335,28.2401,176.287,1.27441,88.7476,548
1569940571,360.648,-146.335,28.2401,176.287,1.27441,88.7476,548
1569940571,360.648,-146.335,28.2401,176.287,1.27441,88.7476,544
1569940571,360.648,-146.335,28.2401,176.287,1.27441,88.7476,544
1569940571,360.648,-146.335,28.2401,176.287,1.27441,88.7476,544
1569940571,360.648,-146.335,28.2401,176.287,1.27441,88.7476,544
1569940571,360.648,-146.335,28.2401,176.287,1.27441,88.7476,544
1569940571,360.648,-146.335,28.2401,176.287,1.27441,88.7476,544
1569940571,360.648,-146.335,28.2401,176.287,1.27441,88.7476,544
1569940571,360.648,-146.335,28.2401,176.287,1.27441,88.7476,544
1569940571,360.648,-146.335,28.2401,176.287,1.27441,88.7476,544
1569940571,360.648,-146.335,28.2401,176.287,1.27441,88.7476,544
1569940571,360.648,-146.335,28.2401,176.287,1.27441,88.7476,544
1569940571,360.648,-146.335,28.2401,176.287,1.27441,88.7476,544
1569940571,360.648,-146.335,28.2401,176.287,1.27441,88.7476,544
1569940571,360.648,-146.335,28.2401,176.287,1.27441,88.7476,544
1569940571,360.648,-146.335,28.2401,176.265,1.27441,88.7476,544
1569940571,360.648,-146.335,28.2401,176.265,1.27441,88.7476,544
1569940571,360.648,-146.335,28.2401,176.265,1.27441,88.7476,544
1569940571,360.648,-146.335,28.2401,176.265,1.27441,88.7476,544
1569940571,360.648,-146.335,28.2401,176.265,1.27441,88.7476,544
1569940571,360.648,-146.335,28.2401,176.265,1.27441,88.7476,544
1569940571,360.648,-146.335,28.2401,176.265,1.27441,88.7476,544
1569940571,360.648,-146.335,28.2401,176.265,1.27441,88.7476,544
1569940571,360.648,-146.335,28.2401,176.265,1.27441,88.7476,544
1569940571,360.648,-146.335,28.2401,176.265,1.27441,88.7476,544
1569940571,360.648,-146.335,28.2401,176.265,1.27441,88.7476,544
1569940571,360.648,-146.335,28.2401,176.265,1.27441,88.7476,544
1569940571,360.648,-146.335,28.2401,176.265,1.27441,88.7476,544
1569940571,360.648,-146.335,28.2401,176.265,1.27441,88.7476,544
1569940571,360.648,-146.335,28.2401,176.265,1.27441,88.7476,544
1569940571,360.648,-146.335,28.2401,176.265,1.27441,88.7476,544
1569940571,360.648,-146.335,28.2401,176.287,1.27441,88.7476,544
1569940571,360.648,-146.335,28.2401,176.287,1.27441,88.7476,544
1569940571,360.648,-146.335,28.2401,176.287,1.27441,88.7476,544
1569940571,360.648,-146.335,28.2401,176.287,1.27441,88.7476,544
1569940571,360.648,-146.335,28.2401,176.287,1.27441,88.7476,544
1569940571,360.648,-146.335,28.2401,176.287,1.27441,88.7476,544
1569940571,360.648,-146.335,28.2401,176.287,1.27441,88.7476,544
1569940571,360.648,-146.335,28.2401,176.287,1.27441,88.7476,544
1569940571,360.648,-146.335,28.2401,176.287,1.27441,88.7476,544
1569940571,360.648,-146.335,28.2401,176.265,1.27441,88.7476,544
1569940571,360.648,-146.335,28.2401,176.265,1.27441,88.7476,544
1569940571,360.648,-146.335,28.2401,176.287,1.27441,88.7476,544
1569940571,360.648,-146.335,28.2401,176.287,1.27441,88.7476,544
1569940571,360.648,-146.335,28.2401,176.287,1.27441,88.7476,544
1569940571,360.648,-146.335,28.2401,176.287,1.27441,88.7476,544
1569940571,360.648,-146.335,28.2401,176.287,1.27441,88.7476,544
1569940571,360.648,-146.335,28.2401,176.287,1.27441,88.7476,544
1569940571,360.648,-146.335,28.2401,176.287,1.27441,88.7476,544
1569940571,360.648,-146.335,28.2401,176.287,1.27441,88.7476,544
1569940571,360.648,-146.335,28.2401,176.287,1.27441,88.7476,544
1569940571,360.648,-146.335,28.2401,176.287,1.27441,88.7476,544
1569940571,360.648,-146.335,28.2401,176.287,1.27441,88.7476,544
1569940571,360.648,-146.335,28.2401,176.287,1.27441,88.7476,544
1569940571,360.648,-146.335,28.2401,176.287,1.27441,88.7476,544
1569940571,360.648,-146.335,28.2401,176.287,1.27441,88.7476,544
1569940571,360.648,-146.335,28.2401,176.287,1.27441,88.7476,544
1569940571,360.648,-146.335,28.2401,176.287,1.27441,88.7476,544
1569940571,360.648,-146.335,28.2401,176.287,1.27441,88.7476,544
1569940571,360.648,-146.335,28.2401,176.287,1.27441,88.7476,544
1569940571,360.648,-146.335,28.2401,176.287,1.27441,88.7476,544
1569940571,360.648,-146.335,28.2401,176.287,1.27441,88.7476,544
1569940571,360.648,-146.335,28.2401,176.287,1.27441,88.7476,544
1569940571,360.648,-146.335,28.2401,176.287,1.27441,88.7476,544
1569940571,360.648,-146.335,28.2401,176.287,1.27441,88.7476,544
1569940571,360.648,-146.335,28.2401,176.287,1.27441,88.7476,544
1569940571,360.648,-146.335,28.2401,176.287,1.27441,88.7476,544
1569940571,360.648,-146.335,28.2401,176.287,1.27441,88.7476,544
1569940571,360.648,-146.335,28.2401,176.287,1.27441,88.7476,544
1569940571,360.648,-146.335,28.2401,176.287,1.27441,88.7476,544
1569940571,360.648,-146.335,28.2401,176.287,1.27441,88.7476,544
1569940572,360.648,-146.335,28.2401,176.287,1.27441,88.7476,544
1569940572,360.648,-146.335,28.2401,176.287,1.27441,88.7476,544
1569940572,360.648,-146.335,28.2401,176.287,1.27441,88.7476,544
1569940572,360.648,-146.335,28.2401,176.287,1.27441,88.7476,544
1569940572,360.648,-146.335,28.2401,176.287,1.27441,88.7476,544
1569940572,360.648,-146.335,28.2401,176.287,1.27441,88.7476,544
1569940572,360.648,-146.335,28.2401,176.287,1.27441,88.7476,544
1569940572,360.648,-146.335,28.2401,176.287,1.27441,88.7476,544
1569940572,360.648,-146.335,28.2401,176.287,1.27441,88.7476,544
1569940572,360.648,-146.335,28.2401,176.287,1.27441,88.7476,544
1569940572,360.648,-146.335,28.2401,176.265,1.27441,88.7476,544
1569940572,360.648,-146.335,28.2401,176.265,1.27441,88.7476,544
1569940572,360.648,-146.335,28.2401,176.265,1.27441,88.7476,544
1569940572,360.648,-146.335,28.2401,176.265,1.27441,88.7476,544
1569940572,360.648,-146.335,28.2401,176.265,1.27441,88.7476,544
1569940572,360.648,-146.335,28.2401,176.265,1.27441,88.7476,544
1569940572,360.648,-146.335,28.2401,176.265,1.27441,88.7476,544
1569940572,360.648,-146.335,28.2401,176.265,1.27441,88.7476,544
1569940572,360.648,-146.335,28.2401,176.265,1.27441,88.7476,544
1569940572,360.648,-146.335,28.2401,176.287,1.27441,88.7476,548
1569940572,360.648,-146.335,28.2401,176.287,1.27441,88.7476,548
1569940572,360.648,-146.335,28.2401,176.287,1.27441,88.7476,548
1569940572,360.648,-146.335,28.2401,176.287,1.27441,88.7476,548
1569940572,360.648,-146.335,28.2401,176.287,1.27441,88.7476,548
1569940572,360.648,-146.335,28.2401,176.287,1.27441,88.7476,548
1569940572,360.648,-146.335,28.2401,176.287,1.27441,88.7476,548
1569940572,360.648,-146.335,28.2401,176.287,1.27441,88.7476,548
1569940572,360.648,-146.335,28.2401,176.287,1.27441,88.7476,548
1569940572,360.648,-146.335,28.2401,176.287,1.27441,88.7476,548
1569940572,360.648,-146.335,28.2401,176.287,1.27441,88.7476,548
1569940572,360.648,-146.335,28.2401,176.287,1.27441,88.7476,548
1569940572,360.648,-146.335,28.2401,176.287,1.27441,88.7476,548
1569940572,360.648,-146.335,28.2401,176.287,1.27441,88.7476,548
1569940572,360.648,-146.335,28.2401,176.287,1.27441,88.7476,548
1569940572,360.648,-146.335,28.2401,176.287,1.27441,88.7476,548
1569940572,360.648,-146.335,28.2401,176.287,1.27441,88.7476,548
1569940572,360.648,-146.335,28.2401,176.287,1.27441,88.7476,548
1569940572,360.648,-146.335,28.2401,176.287,1.27441,88.7476,548
1569940572,360.648,-146.335,28.2401,176.287,1.27441,88.7476,548
1569940572,360.648,-146.335,28.2401,176.287,1.27441,88.7476,548
1569940572,360.648,-146.335,28.2401,176.287,1.27441,88.7476,548
1569940572,360.648,-146.335,28.2401,176.287,1.27441,88.7476,548
1569940572,360.648,-146.335,28.2401,176.287,1.27441,88.7476,548
1569940572,360.648,-146.335,28.2401,176.287,1.27441,88.7476,548
1569940572,360.648,-146.335,28.2401,176.287,1.27441,88.7476,548
1569940572,360.648,-146.335,28.2401,176.287,1.27441,88.7476,548
1569940572,360.648,-146.335,28.2401,176.287,1.27441,88.7476,548
1569940572,360.648,-146.335,28.2401,176.287,1.27441,88.7476,548
1569940572,360.648,-146.335,28.2401,176.287,1.27441,88.7476,548
1569940572,360.648,-146.335,28.2401,176.287,1.27441,88.7476,548
1569940572,360.648,-146.335,28.2401,176.287,1.27441,88.7476,548
1569940572,360.648,-146.335,28.2401,176.287,1.27441,88.7476,548
1569940572,360.648,-146.335,28.2401,176.287,1.27441,88.7476,548
1569940572,360.648,-146.335,28.2401,176.287,1.27441,88.7476,548
1569940572,360.648,-146.335,28.2401,176.287,1.27441,88.7476,548
1569940572,360.648,-146.335,28.2401,176.287,1.27441,88.7476,548
1569940572,360.648,-146.335,28.2401,176.287,1.27441,88.7476,544
1569940572,360.648,-146.335,28.2401,176.287,1.27441,88.7476,544
1569940572,360.648,-146.335,28.2401,176.287,1.27441,88.7476,544
1569940572,360.648,-146.335,28.2401,176.287,1.27441,88.7476,544
1569940572,360.648,-146.335,28.2401,176.287,1.27441,88.7476,544
1569940572,360.648,-146.335,28.2401,176.287,1.27441,88.7476,544
1569940572,360.648,-146.335,28.2401,176.287,1.27441,88.7476,544
1569940572,360.648,-146.335,28.2401,176.287,1.27441,88.7476,544
1569940572,360.648,-146.335,28.2401,176.287,1.27441,88.7476,544
1569940572,360.648,-146.335,28.2401,176.287,1.27441,88.7476,544
1569940572,360.648,-146.335,28.2401,176.287,1.27441,88.7476,544
1569940572,360.648,-146.335,28.2401,176.287,1.27441,88.7476,544
1569940572,360.648,-146.335,28.2401,176.287,1.27441,88.7476,544
1569940572,360.648,-146.335,28.2401,176.287,1.27441,88.7476,544
1569940572,360.648,-146.335,28.2401,176.287,1.27441,88.7476,544
1569940572,360.648,-146.335,28.2401,176.287,1.27441,88.7476,544
1569940572,360.648,-146.335,28.2401,176.287,1.27441,88.7476,544
1569940572,360.648,-146.335,28.2401,176.287,1.27441,88.7476,544
1569940572,360.648,-146.335,28.2401,176.287,1.27441,88.7476,544
1569940572,360.648,-146.335,28.2401,176.287,1.27441,88.7476,544
1569940572,360.648,-146.335,28.2401,176.287,1.27441,88.7476,544
1569940572,360.648,-146.335,28.2401,176.287,1.27441,88.7476,544
1569940572,360.648,-146.335,28.2401,176.287,1.27441,88.7476,544
1569940572,360.648,-146.335,28.2401,176.287,1.27441,88.7476,544
1569940572,360.648,-146.335,28.2401,176.287,1.27441,88.7476,544
1569940572,360.648,-146.335,28.2401,176.287,1.27441,88.7476,544
1569940572,360.648,-146.335,28.2401,176.287,1.27441,88.7476,544
1569940572,360.648,-146.335,28.2401,176.287,1.27441,88.7476,544
1569940572,360.648,-146.335,28.2401,176.287,1.27441,88.7476,544
1569940572,360.648,-146.335,28.2401,176.287,1.27441,88.7476,544
1569940572,360.648,-146.335,28.2401,176.287,1.27441,88.7476,544
1569940572,360.648,-146.335,28.2401,176.287,1.27441,88.7476,544
1569940572,360.648,-146.335,28.2401,176.287,1.27441,88.7476,544
1569940572,360.648,-146.335,28.2401,176.287,1.27441,88.7476,544
1569940572,360.648,-146.335,28.2401,176.287,1.27441,88.7476,544
1569940572,360.648,-146.335,28.2401,176.287,1.27441,88.7476,544
1569940572,360.648,-146.335,28.2401,176.287,1.27441,88.7476,544
1569940572,360.648,-146.335,28.2401,176.287,1.27441,88.7476,544
1569940572,360.648,-146.335,28.2401,176.287,1.27441,88.7476,544
1569940572,360.648,-146.335,28.2401,176.287,1.27441,88.7476,544
1569940572,360.648,-146.335,28.2401,176.287,1.27441,88.7476,544
1569940572,360.648,-146.335,28.2401,176.287,1.27441,88.7476,544
1569940572,360.648,-146.335,28.2401,176.287,1.27441,88.7476,544
1569940572,360.648,-146.335,28.2401,176.287,1.27441,88.7476,544
1569940573,360.648,-146.335,28.2401,176.287,1.27441,88.7476,544
1569940573,360.648,-146.335,28.2401,176.287,1.27441,88.7476,544
1569940573,360.648,-146.335,28.2401,176.287,1.27441,88.7476,544
1569940573,360.648,-146.335,28.2401,176.287,1.27441,88.7476,544
1569940573,360.648,-146.335,28.2401,176.287,1.27441,88.7476,544
1569940573,360.648,-146.335,28.2401,176.287,1.27441,88.7476,544
1569940573,360.648,-146.335,28.2401,176.287,1.27441,88.7476,544
1569940573,360.648,-146.335,28.2401,176.287,1.27441,88.7476,544
1569940573,360.648,-146.335,28.2401,176.287,1.27441,88.7476,544
1569940573,360.648,-146.335,28.2401,176.287,1.27441,88.7476,544
1569940573,360.648,-146.335,28.2401,176.287,1.27441,88.7476,544
1569940573,360.648,-146.335,28.2401,176.287,1.27441,88.7476,544
1569940573,360.648,-146.335,28.2401,176.287,1.27441,88.7476,544
1569940573,360.648,-146.335,28.2401,176.287,1.27441,88.7476,544
1569940573,360.648,-146.335,28.2401,176.287,1.27441,88.7476,544
1569940573,360.648,-146.335,28.2401,176.287,1.27441,88.7476,544
1569940573,360.648,-146.335,28.2401,176.287,1.27441,88.7476,544
1569940576,360.648,-146.335,28.2401,176.287,1.27441,88.7476,544
1569940576,360.648,-146.335,28.2401,176.287,1.27441,88.7476,544
1569940576,360.648,-146.335,28.2401,176.287,1.27441,88.7476,544
1569940576,360.648,-146.335,28.2401,176.287,1.27441,88.7476,544
1569940576,360.648,-146.335,28.2401,176.287,1.27441,88.7476,544
1569940576,360.648,-146.335,28.2401,176.287,1.27441,88.7476,544
1569940576,360.648,-146.335,28.2401,176.287,1.27441,88.7476,544
1569940576,360.648,-146.335,28.2401,176.287,1.27441,88.7476,544
1569940576,360.648,-146.335,28.2401,176.287,1.27441,88.7476,544
1569940576,360.648,-146.335,28.2401,176.287,1.27441,88.7476,544
1569940576,360.648,-146.335,28.2401,176.287,1.27441,88.7476,544
1569940576,360.648,-146.335,28.2401,176.287,1.27441,88.7476,544
1569940576,360.648,-146.335,28.2401,176.287,1.27441,88.7476,544
1569940576,360.648,-146.335,28.2401,176.287,1.27441,88.7476,544
1569940576,360.648,-146.335,28.2401,176.287,1.27441,88.7476,544
1569940576,360.648,-146.335,28.2401,176.287,1.27441,88.7476,544
1569940576,360.648,-146.335,28.2401,176.287,1.27441,88.7476,544
1569940576,360.648,-146.335,28.2401,176.287,1.27441,88.7476,544
1569940576,360.648,-146.335,28.2401,176.287,1.27441,88.7476,544
1569940576,360.648,-146.335,28.2401,176.287,1.27441,88.7476,544
1569940576,360.648,-146.335,28.2401,176.287,1.27441,88.7476,544
1569940576,360.648,-146.335,28.2401,176.287,1.27441,88.7476,544
1569940576,360.648,-146.335,28.2401,176.287,1.27441,88.7476,544
1569940576,360.648,-146.335,28.2401,176.287,1.27441,88.7476,544
1569940576,360.648,-146.335,28.2401,176.287,1.27441,88.7476,544
1569940576,360.648,-146.335,28.2401,176.287,1.27441,88.7476,544
1569940576,360.648,-146.335,28.2401,176.287,1.27441,88.7476,544
1569940576,360.648,-146.335,28.2401,176.287,1.27441,88.7476,544
1569940576,360.648,-146.335,28.2401,176.287,1.27441,88.7476,544
1569940576,360.648,-146.335,28.2401,176.287,1.27441,88.7476,544
1569940576,360.648,-146.335,28.2401,176.287,1.27441,88.7476,544
1569940576,360.648,-146.335,28.2401,176.287,1.27441,88.7476,544
1569940576,360.648,-146.335,28.2401,176.287,1.27441,88.7476,544
1569940576,360.648,-146.335,28.2401,176.287,1.27441,88.7476,544
1569940576,360.648,-146.335,28.2401,176.287,1.27441,88.7476,544
1569940576,360.648,-146.335,28.2401,176.287,1.27441,88.7476,544
1569940577,360.648,-146.335,28.2401,176.287,1.27441,88.7476,544
1569940577,360.648,-146.335,28.2401,176.287,1.27441,88.7476,544
1569940577,360.648,-146.335,28.2401,176.287,1.27441,88.7476,544
1569940577,360.648,-146.335,28.2401,176.287,1.27441,88.7476,544
1569940577,360.648,-146.335,28.2401,176.287,1.27441,88.7476,544
1569940577,360.648,-146.335,28.2401,176.287,1.27441,88.7476,544
1569940577,360.648,-146.335,28.2401,176.287,1.27441,88.7476,544
1569940577,360.648,-146.335,28.2401,176.287,1.27441,88.7476,544
1569940577,360.648,-146.335,28.2401,176.287,1.27441,88.7476,544
1569940577,360.648,-146.335,28.2401,176.287,1.27441,88.7476,544
1569940577,360.648,-146.335,28.2401,176.287,1.27441,88.7476,544
1569940577,360.648,-146.335,28.2401,176.287,1.27441,88.7476,544
1569940577,360.648,-146.335,28.2401,176.287,1.27441,88.7476,544
1569940577,360.648,-146.335,28.2401,176.287,1.27441,88.7476,544
1569940577,360.648,-146.335,28.2401,176.287,1.27441,88.7476,544
1569940577,360.648,-146.335,28.2401,176.287,1.27441,88.7476,544
1569940577,360.648,-146.335,28.2401,176.287,1.27441,88.7476,544
1569940577,360.648,-146.335,28.2401,176.287,1.27441,88.7476,544
1569940577,360.648,-146.335,28.2401,176.287,1.27441,88.7476,544
1569940577,360.648,-146.335,28.2401,176.265,1.27441,88.7476,544
1569940577,360.648,-146.335,28.2401,176.265,1.27441,88.7476,544
1569940577,360.648,-146.335,28.2401,176.265,1.27441,88.7476,544
1569940577,360.648,-146.335,28.2401,176.265,1.27441,88.7476,544
1569940577,360.648,-146.335,28.2401,176.265,1.27441,88.7476,544
1569940577,360.648,-146.335,28.2401,176.265,1.27441,88.7476,544
1569940577,360.648,-146.335,28.2401,176.265,1.27441,88.7476,544
1569940577,360.648,-146.335,28.2401,176.265,1.27441,88.7476,544
1569940577,360.648,-146.335,28.2401,176.265,1.27441,88.7476,544
1569940577,360.648,-146.335,28.2401,176.265,1.27441,88.7476,544
1569940577,360.648,-146.335,28.2401,176.265,1.27441,88.7476,544
1569940577,360.648,-146.335,28.2401,176.265,1.27441,88.7476,544
1569940577,360.648,-146.335,28.2401,176.265,1.27441,88.7476,544
1569940577,360.648,-146.335,28.2401,176.265,1.27441,88.7476,544
1569940577,360.648,-146.335,28.2401,176.265,1.27441,88.7476,544
1569940577,360.648,-146.335,28.2401,176.265,1.27441,88.7476,544
1569940577,360.648,-146.335,28.2401,176.265,1.27441,88.7476,544
1569940577,360.648,-146.335,28.2401,176.265,1.27441,88.7476,544
1569940577,360.648,-146.335,28.2401,176.265,1.27441,88.7476,544
1569940577,360.648,-146.335,28.2401,176.265,1.27441,88.7476,544
1569940577,360.648,-146.335,28.2401,176.265,1.27441,88.7476,544
1569940577,360.648,-146.335,28.2401,176.265,1.27441,88.7476,544
1569940577,360.648,-146.335,28.2401,176.265,1.27441,88.7476,544
1569940577,360.648,-146.335,28.2401,176.265,1.27441,88.7476,544
1569940577,360.648,-146.335,28.2401,176.265,1.27441,88.7476,544
1569940577,360.648,-146.335,28.2401,176.265,1.27441,88.7476,544
1569940577,360.648,-146.335,28.2401,176.265,1.27441,88.7476,544
1569940577,360.648,-146.335,28.2401,176.265,1.27441,88.7476,544
1569940577,360.648,-146.335,28.2401,176.265,1.27441,88.7476,544
1569940577,360.648,-146.335,28.2401,176.265,1.27441,88.7476,544
1569940577,360.648,-146.335,28.2401,176.265,1.27441,88.7476,544
1569940577,360.648,-146.335,28.2401,176.265,1.27441,88.7476,544
1569940577,360.648,-146.335,28.2401,176.265,1.27441,88.7476,544
1569940577,360.648,-146.335,28.2401,176.265,1.27441,88.7476,544
1569940577,360.648,-146.335,28.2401,176.265,1.27441,88.7476,544
1569940577,360.648,-146.335,28.2401,176.265,1.27441,88.7476,544
1569940577,360.648,-146.335,28.2401,176.265,1.27441,88.7476,544
1569940577,360.648,-146.335,28.2401,176.265,1.27441,88.7476,544
1569940577,360.648,-146.335,28.2401,176.265,1.27441,88.7476,544
1569940577,360.648,-146.335,28.2401,176.265,1.27441,88.7476,544
1569940577,360.648,-146.335,28.2401,176.265,1.27441,88.7476,544
1569940577,360.648,-146.335,28.2401,176.265,1.27441,88.7476,544
1569940577,360.648,-146.335,28.2401,176.265,1.27441,88.7476,544
1569940577,360.648,-146.335,28.2401,176.265,1.27441,88.7476,544
1569940577,360.648,-146.335,28.2401,176.265,1.27441,88.7476,544
1569940577,360.648,-146.335,28.2401,176.265,1.27441,88.7476,544
1569940577,360.648,-146.335,28.2401,176.265,1.27441,88.7476,544
1569940577,360.648,-146.335,28.2401,176.265,1.27441,88.7476,544
1569940577,360.648,-146.335,28.2401,176.265,1.27441,88.7476,544
1569940577,360.648,-146.335,28.2401,176.265,1.27441,88.7476,544
1569940577,360.648,-146.335,28.2401,176.265,1.27441,88.7476,544
1569940577,360.648,-146.335,28.2401,176.265,1.27441,88.7476,544
1569940577,360.648,-146.335,28.2401,176.265,1.27441,88.7476,544
1569940577,360.648,-146.335,28.2401,176.265,1.27441,88.7476,544
1569940577,360.648,-146.335,28.2401,176.265,1.27441,88.7476,544
1569940577,360.648,-146.335,28.2401,176.265,1.27441,88.7476,544
1569940577,360.648,-146.335,28.2401,176.287,1.27441,88.7476,544
1569940577,360.648,-146.335,28.2401,176.287,1.27441,88.7476,544
1569940577,360.648,-146.335,28.2401,176.287,1.27441,88.7476,544
1569940577,360.648,-146.335,28.2401,176.287,1.27441,88.7476,544
1569940577,360.648,-146.335,28.2401,176.287,1.27441,88.7476,544
1569940577,360.648,-146.335,28.2401,176.287,1.27441,88.7476,544
1569940577,360.648,-146.335,28.2401,176.287,1.27441,88.7476,544
1569940577,360.648,-146.335,28.2401,176.287,1.27441,88.7476,544
1569940577,360.648,-146.335,28.2401,176.287,1.27441,88.7476,544
1569940577,360.648,-146.335,28.2401,176.287,1.27441,88.7476,544
1569940577,360.648,-146.335,28.2401,176.287,1.27441,88.7476,544
1569940577,360.648,-146.335,28.2401,176.287,1.27441,88.7476,544
1569940577,360.648,-146.335,28.2401,176.287,1.27441,88.7476,544
1569940577,360.648,-146.335,28.2401,176.287,1.27441,88.7476,544
1569940577,360.648,-146.335,28.2401,176.287,1.27441,88.7476,544
1569940577,360.648,-146.335,28.2401,176.287,1.27441,88.7476,544
1569940577,360.648,-146.335,28.2401,176.287,1.27441,88.7476,544
1569940577,360.648,-146.335,28.2401,176.287,1.27441,88.7476,544
1569940577,360.648,-146.335,28.2401,176.287,1.27441,88.7476,544
1569940577,360.648,-146.335,28.2401,176.287,1.27441,88.7476,544
1569940577,360.648,-146.335,28.2401,176.287,1.27441,88.7476,544
1569940577,360.648,-146.335,28.2401,176.287,1.27441,88.7476,544
1569940577,360.648,-146.335,28.2401,176.287,1.27441,88.7476,544
1569940577,360.648,-146.335,28.2401,176.287,1.27441,88.7476,544
1569940577,360.648,-146.335,28.2401,176.287,1.27441,88.7476,544
1569940578,360.648,-146.335,28.2401,176.287,1.27441,88.7476,544
1569940578,360.648,-146.335,28.2401,176.287,1.27441,88.7476,544
1569940578,360.648,-146.335,28.2401,176.287,1.27441,88.7476,544
1569940578,360.648,-146.335,28.2401,176.287,1.27441,88.7476,544
1569940578,360.648,-146.335,28.2401,176.287,1.27441,88.7476,544
1569940578,360.648,-146.335,28.2401,176.287,1.27441,88.7476,544
1569940578,360.648,-146.335,28.2401,176.287,1.27441,88.7476,544
1569940578,360.648,-146.335,28.2401,176.287,1.27441,88.7476,544
1569940578,360.648,-146.335,28.2401,176.287,1.27441,88.7476,544
1569940578,360.648,-146.335,28.2401,176.287,1.27441,88.7476,544
1569940578,360.648,-146.335,28.2401,176.287,1.27441,88.7476,544
1569940578,360.648,-146.335,28.2401,176.287,1.27441,88.7476,544
1569940578,360.648,-146.335,28.2401,176.287,1.27441,88.7476,544
1569940578,360.648,-146.335,28.2401,176.287,1.27441,88.7476,544
1569940578,360.648,-146.335,28.2401,176.287,1.27441,88.7476,544
1569940578,360.648,-146.335,28.2401,176.287,1.27441,88.7476,544
1569940578,360.648,-146.335,28.2401,176.287,1.27441,88.7476,544
1569940578,360.648,-146.335,28.2401,176.287,1.27441,88.7476,544
1569940578,360.648,-146.335,28.2401,176.287,1.27441,88.7476,544
1569940578,360.648,-146.335,28.2401,176.287,1.27441,88.7476,544
1569940578,360.648,-146.335,28.2401,176.287,1.27441,88.7476,544
1569940578,360.648,-146.335,28.2401,176.287,1.27441,88.7476,544
1569940578,360.648,-146.335,28.2401,176.287,1.27441,88.7476,544
1569940578,360.648,-146.335,28.2401,176.287,1.27441,88.7476,544
1569940578,360.648,-146.335,28.2401,176.287,1.27441,88.7476,544
1569940578,360.648,-146.335,28.2401,176.265,1.27441,88.7476,544
1569940578,360.648,-146.335,28.2401,176.265,1.27441,88.7476,544
1569940578,360.648,-146.335,28.2401,176.265,1.27441,88.7476,544
1569940578,360.648,-146.335,28.2401,176.265,1.27441,88.7476,544
1569940578,360.648,-146.335,28.2401,176.287,1.27441,88.7476,544
1569940578,360.648,-146.335,28.2401,176.287,1.27441,88.7476,540
1569940578,360.648,-146.335,28.2401,176.287,1.27441,88.7476,540
1569940578,360.648,-146.335,28.2401,176.287,1.27441,88.7476,540
1569940578,360.648,-146.335,28.2401,176.287,1.27441,88.7476,540
1569940578,360.648,-146.335,28.2401,176.287,1.27441,88.7476,540
1569940578,360.648,-146.335,28.2401,176.287,1.27441,88.7476,540
1569940578,360.648,-146.335,28.2401,176.287,1.27441,88.7476,540
1569940578,360.648,-146.335,28.2401,176.287,1.27441,88.7476,540
1569940578,360.648,-146.335,28.2401,176.287,1.27441,88.7476,540
1569940578,360.648,-146.335,28.2401,176.287,1.27441,88.7476,540
1569940578,360.648,-146.335,28.2401,176.287,1.27441,88.7476,540
1569940578,360.648,-146.335,28.2401,176.287,1.27441,88.7476,540
1569940578,360.648,-146.335,28.2401,176.287,1.27441,88.7476,540
1569940578,360.648,-146.335,28.2401,176.287,1.27441,88.7476,540
1569940578,360.648,-146.335,28.2401,176.287,1.27441,88.7476,540
1569940578,360.648,-146.335,28.2401,176.287,1.27441,88.7476,540
1569940578,360.648,-146.335,28.2401,176.287,1.27441,88.7476,540
1569940578,360.648,-146.335,28.2401,176.287,1.27441,88.7476,540
1569940578,360.648,-146.335,28.2401,176.287,1.27441,88.7476,540
1569940578,360.648,-146.335,28.2401,176.287,1.27441,88.7476,540
1569940578,360.648,-146.335,28.2401,176.287,1.27441,88.7476,540
1569940578,360.648,-146.335,28.2401,176.287,1.27441,88.7476,540
1569940578,360.648,-146.335,28.2401,176.287,1.27441,88.7476,540
1569940578,360.648,-146.335,28.2401,176.287,1.27441,88.7476,540
1569940578,360.648,-146.335,28.2401,176.287,1.27441,88.7476,540
1569940578,360.648,-146.335,28.2401,176.287,1.27441,88.7476,540
1569940578,360.648,-146.335,28.2401,176.287,1.27441,88.7476,540
1569940578,360.648,-146.335,28.2401,176.287,1.27441,88.7476,540
1569940578,360.648,-146.335,28.2401,176.287,1.27441,88.7476,540
1569940578,360.648,-146.335,28.2401,176.287,1.27441,88.7476,544
1569940578,360.648,-146.335,28.2401,176.287,1.27441,88.7476,544
1569940578,360.648,-146.335,28.2401,176.287,1.27441,88.7476,544
1569940578,360.648,-146.335,28.2401,176.287,1.27441,88.7476,544
1569940578,360.648,-146.335,28.2401,176.287,1.27441,88.7476,544
1569940578,360.648,-146.335,28.2401,176.287,1.27441,88.7476,544
1569940578,360.648,-146.335,28.2401,176.287,1.27441,88.7476,544
1569940578,360.648,-146.335,28.2401,176.287,1.27441,88.7476,544
1569940578,360.648,-146.335,28.2401,176.287,1.27441,88.7476,544
1569940578,360.648,-146.335,28.2401,176.287,1.27441,88.7476,544
1569940578,360.648,-146.335,28.2401,176.287,1.27441,88.7476,544
1569940578,360.648,-146.335,28.2401,176.287,1.27441,88.7476,544
1569940578,360.648,-146.335,28.2401,176.287,1.27441,88.7476,544
1569940578,360.648,-146.335,28.2401,176.287,1.27441,88.7476,544
1569940578,360.648,-146.335,28.2401,176.287,1.27441,88.7476,544
1569940578,360.648,-146.335,28.2401,176.287,1.27441,88.7476,544
1569940578,360.648,-146.335,28.2401,176.287,1.27441,88.7476,544
1569940578,360.648,-146.335,28.2401,176.287,1.27441,88.7476,544
1569940578,360.648,-146.335,28.2401,176.287,1.27441,88.7476,544
1569940578,360.648,-146.335,28.2401,176.287,1.27441,88.7476,544
1569940578,360.648,-146.335,28.2401,176.287,1.27441,88.7476,544
1569940578,360.648,-146.335,28.2401,176.287,1.27441,88.7476,544
1569940578,360.648,-146.335,28.2401,176.287,1.27441,88.7476,544
1569940578,360.648,-146.335,28.2401,176.287,1.27441,88.7476,544
1569940578,360.648,-146.335,28.2401,176.287,1.27441,88.7476,544
1569940578,360.648,-146.335,28.2401,176.287,1.27441,88.7476,544
1569940578,360.648,-146.335,28.2401,176.287,1.27441,88.7476,544
1569940578,360.648,-146.335,28.2401,176.287,1.27441,88.7476,544
1569940578,360.648,-146.335,28.2401,176.287,1.27441,88.7476,544
1569940578,360.648,-146.335,28.2401,176.287,1.27441,88.7476,544
1569940578,360.648,-146.335,28.2401,176.287,1.27441,88.7476,544
1569940578,360.648,-146.335,28.2401,176.287,1.27441,88.7476,544
1569940578,360.648,-146.335,28.2401,176.287,1.27441,88.7476,544
1569940578,360.648,-146.335,28.2401,176.287,1.27441,88.7476,544
1569940578,360.648,-146.335,28.2401,176.287,1.27441,88.7476,544
1569940578,360.648,-146.335,28.2401,176.287,1.27441,88.7476,544
1569940578,360.648,-146.335,28.2401,176.287,1.27441,88.7476,544
1569940578,360.648,-146.335,28.2401,176.287,1.27441,88.7476,544
1569940578,360.648,-146.335,28.2401,176.287,1.27441,88.7476,544
1569940578,360.648,-146.335,28.2401,176.287,1.27441,88.7476,544
1569940579,360.648,-146.335,28.2401,176.287,1.27441,88.7476,544
1569940579,360.648,-146.335,28.2401,176.287,1.27441,88.7476,544
1569940579,360.648,-146.335,28.2401,176.287,1.27441,88.7476,544
1569940579,360.648,-146.335,28.2401,176.287,1.27441,88.7476,544
1569940579,360.648,-146.335,28.2401,176.287,1.27441,88.7476,544
1569940579,360.648,-146.335,28.2401,176.287,1.27441,88.7476,544
1569940579,360.648,-146.335,28.2401,176.287,1.27441,88.7476,544
1569940579,360.648,-146.335,28.2401,176.287,1.27441,88.7476,544
1569940579,360.648,-146.335,28.2401,176.287,1.27441,88.7476,544
1569940579,360.648,-146.335,28.2401,176.287,1.27441,88.7476,544
1569940579,360.648,-146.335,28.2401,176.287,1.27441,88.7476,544
1569940579,360.648,-146.335,28.2401,176.287,1.27441,88.7476,544
1569940579,360.648,-146.335,28.2401,176.287,1.27441,88.7476,544
1569940579,360.648,-146.335,28.2401,176.287,1.27441,88.7476,544
1569940579,360.648,-146.335,28.2401,176.287,1.27441,88.7476,544
1569940579,360.648,-146.335,28.2401,176.287,1.27441,88.7476,544
1569940579,360.648,-146.335,28.2401,176.287,1.27441,88.7476,544
1569940579,360.648,-146.335,28.2401,176.287,1.27441,88.7476,544
1569940579,360.648,-146.335,28.2401,176.287,1.27441,88.7476,544
1569940579,360.648,-146.335,28.2401,176.287,1.27441,88.7476,544
1569940579,360.648,-146.335,28.2401,176.287,1.27441,88.7476,544
1569940579,360.648,-146.335,28.2401,176.287,1.27441,88.7476,544
1569940579,360.648,-146.335,28.2401,176.287,1.27441,88.7476,544
1569940579,360.648,-146.335,28.2401,176.287,1.27441,88.7476,544
1569940579,360.648,-146.335,28.2401,176.287,1.27441,88.7476,544
1569940579,360.648,-146.335,28.2401,176.287,1.27441,88.7476,544
1569940579,360.648,-146.335,28.2401,176.287,1.27441,88.7476,544
1569940579,360.648,-146.335,28.2401,176.287,1.27441,88.7476,544
1569940579,360.648,-146.335,28.2401,176.287,1.27441,88.7476,544
1569940579,360.648,-146.335,28.2401,176.287,1.27441,88.7476,544
1569940579,360.648,-146.335,28.2401,176.287,1.27441,88.7476,544
1569940579,360.648,-146.335,28.2401,176.287,1.27441,88.7476,544
1569940579,360.648,-146.335,28.2401,176.287,1.27441,88.7476,544
1569940579,360.648,-146.335,28.2401,176.287,1.27441,88.7476,544
1569940579,360.648,-146.335,28.2401,176.287,1.27441,88.7476,544
1569940579,360.648,-146.335,28.2401,176.287,1.27441,88.7476,544
1569940579,360.648,-146.335,28.2401,176.287,1.27441,88.7476,544
1569940579,360.648,-146.335,28.2401,176.287,1.27441,88.7476,544
1569940579,360.648,-146.335,28.2401,176.287,1.27441,88.7476,544
1569940579,360.648,-146.335,28.2401,176.287,1.27441,88.7476,544
1569940579,360.648,-146.335,28.2401,176.287,1.27441,88.7476,544
1569940579,360.648,-146.335,28.2401,176.287,1.27441,88.7476,544
1569940579,360.648,-146.335,28.2401,176.287,1.27441,88.7476,544
1569940579,360.648,-146.335,28.2401,176.287,1.27441,88.7476,544
1569940579,360.648,-146.335,28.2401,176.287,1.27441,88.7476,544
1569940579,360.648,-146.335,28.2401,176.287,1.27441,88.7476,544
1569940579,360.648,-146.335,28.2401,176.287,1.27441,88.7476,544
1569940579,360.648,-146.335,28.2401,176.287,1.27441,88.7476,544
1569940579,360.648,-146.335,28.2401,176.287,1.27441,88.7476,544
1569940579,360.648,-146.335,28.2401,176.287,1.27441,88.7476,544
1569940579,360.648,-146.335,28.2401,176.287,1.27441,88.7476,544
1569940579,360.648,-146.335,28.2401,176.287,1.27441,88.7476,544
1569940579,360.648,-146.335,28.2401,176.287,1.27441,88.7476,544
1569940579,360.648,-146.335,28.2401,176.287,1.27441,88.7476,544
1569940579,360.648,-146.335,28.2401,176.287,1.27441,88.7476,544
1569940579,360.648,-146.335,28.2401,176.287,1.27441,88.7476,544
1569940579,360.648,-146.335,28.2401,176.287,1.27441,88.7476,544
1569940579,360.648,-146.335,28.2401,176.287,1.27441,88.7476,544
1569940579,360.648,-146.335,28.2401,176.287,1.27441,88.7476,544
1569940579,360.648,-146.335,28.2401,176.287,1.27441,88.7476,544
1569940579,360.648,-146.335,28.2401,176.287,1.27441,88.7476,544
1569940579,360.648,-146.335,28.2401,176.287,1.27441,88.7476,544
1569940579,360.648,-146.335,28.2401,176.287,1.27441,88.7476,544
1569940579,360.648,-146.335,28.2401,176.287,1.27441,88.7476,544
1569940579,360.648,-146.335,28.2401,176.287,1.27441,88.7476,544
1569940579,360.648,-146.335,28.2401,176.287,1.27441,88.7476,544
1569940579,360.648,-146.335,28.2401,176.287,1.27441,88.7476,544
1569940579,360.648,-146.335,28.2401,176.287,1.27441,88.7476,544
1569940579,360.648,-146.335,28.2401,176.287,1.27441,88.7476,544
1569940579,360.648,-146.335,28.2401,176.287,1.27441,88.7476,544
1569940579,360.648,-146.335,28.2401,176.287,1.27441,88.7476,544
1569940579,360.648,-146.335,28.2401,176.287,1.27441,88.7476,544
1569940579,360.648,-146.335,28.2401,176.287,1.27441,88.7476,544
1569940579,360.648,-146.335,28.2401,176.287,1.27441,88.7476,544
1569940579,360.648,-146.335,28.2401,176.287,1.27441,88.7476,544
1569940579,360.648,-146.335,28.2401,176.287,1.27441,88.7476,544
1569940579,360.648,-146.335,28.2401,176.287,1.27441,88.7476,544
1569940579,360.648,-146.335,28.2401,176.287,1.27441,88.7476,544
1569940579,360.648,-146.335,28.2401,176.287,1.27441,88.7476,544
1569940579,360.648,-146.335,28.2401,176.287,1.27441,88.7476,544
1569940579,360.648,-146.335,28.2401,176.287,1.27441,88.7476,544
1569940579,360.648,-146.335,28.2401,176.287,1.27441,88.7476,544
1569940579,360.648,-146.335,28.2401,176.287,1.27441,88.7476,544
1569940579,360.648,-146.335,28.2401,176.287,1.27441,88.7476,544
1569940579,360.648,-146.335,28.2401,176.287,1.27441,88.7476,544
1569940579,360.648,-146.335,28.2401,176.287,1.27441,88.7476,544
1569940579,360.648,-146.335,28.2401,176.287,1.27441,88.7476,544
1569940579,360.648,-146.335,28.2401,176.287,1.27441,88.7476,544
1569940579,360.648,-146.335,28.2401,176.287,1.27441,88.7476,544
1569940579,360.648,-146.335,28.2401,176.287,1.27441,88.7476,544
1569940579,360.648,-146.335,28.2401,176.287,1.27441,88.7476,544
1569940579,360.648,-146.335,28.2401,176.287,1.27441,88.7476,544
1569940579,360.648,-146.335,28.2401,176.287,1.27441,88.7476,544
1569940579,360.648,-146.335,28.2401,176.265,1.27441,88.7476,544
1569940579,360.648,-146.335,28.2401,176.287,1.27441,88.7476,544
1569940579,360.648,-146.335,28.2401,176.287,1.27441,88.7476,544
1569940579,360.648,-146.335,28.2401,176.287,1.27441,88.7476,544
1569940579,360.648,-146.335,28.2401,176.287,1.27441,88.7476,544
1569940579,360.648,-146.335,28.2401,176.287,1.27441,88.7476,544
1569940579,360.648,-146.335,28.2401,176.287,1.27441,88.7476,544
1569940580,360.648,-146.335,28.2401,176.287,1.27441,88.7476,544
1569940580,360.648,-146.335,28.2401,176.287,1.27441,88.7476,544
1569940580,360.648,-146.335,28.2401,176.287,1.27441,88.7476,544
1569940580,360.648,-146.335,28.2401,176.287,1.27441,88.7476,544
1569940580,360.648,-146.335,28.2401,176.287,1.27441,88.7476,544
1569940580,360.648,-146.335,28.2401,176.287,1.27441,88.7476,544
1569940580,360.648,-146.335,28.2401,176.265,1.27441,88.7476,544
1569940580,360.648,-146.335,28.2401,176.265,1.27441,88.7476,544
1569940580,360.648,-146.335,28.2401,176.265,1.27441,88.7476,544
1569940580,360.648,-146.335,28.2401,176.265,1.27441,88.7476,544
1569940580,360.648,-146.335,28.2401,176.265,1.27441,88.7476,544
1569940580,360.648,-146.335,28.2401,176.265,1.27441,88.7476,544
1569940580,360.648,-146.335,28.2401,176.265,1.27441,88.7476,544
1569940580,360.648,-146.335,28.2401,176.265,1.27441,88.7476,544
1569940580,360.648,-146.335,28.2401,176.265,1.27441,88.7476,544
1569940580,360.648,-146.335,28.2401,176.265,1.27441,88.7476,544
1569940580,360.648,-146.335,28.2401,176.265,1.27441,88.7476,544
1569940580,360.648,-146.335,28.2401,176.265,1.27441,88.7476,544
1569940580,360.648,-146.335,28.2401,176.265,1.27441,88.7476,544
1569940580,360.648,-146.335,28.2401,176.265,1.27441,88.7476,544
1569940580,360.648,-146.335,28.2401,176.265,1.27441,88.7476,544
1569940580,360.648,-146.335,28.2401,176.265,1.27441,88.7476,544
1569940580,360.648,-146.335,28.2401,176.265,1.27441,88.7476,544
1569940580,360.648,-146.335,28.2401,176.265,1.27441,88.7476,544
1569940580,360.648,-146.335,28.2401,176.265,1.27441,88.7476,544
1569940580,360.648,-146.335,28.2401,176.265,1.27441,88.7476,544
1569940580,360.648,-146.335,28.2401,176.265,1.27441,88.7476,544
1569940580,360.648,-146.335,28.2401,176.265,1.27441,88.7476,544
1569940580,360.648,-146.335,28.2401,176.265,1.27441,88.7476,544
1569940580,360.648,-146.335,28.2401,176.265,1.27441,88.7476,544
1569940580,360.648,-146.335,28.2401,176.265,1.27441,88.7476,544
1569940580,360.648,-146.335,28.2401,176.265,1.27441,88.7476,544
1569940580,360.648,-146.335,28.2401,176.265,1.27441,88.7476,544
1569940580,360.648,-146.335,28.2401,176.265,1.27441,88.7476,544
1569940580,360.648,-146.335,28.2401,176.265,1.27441,88.7476,544
1569940580,360.648,-146.335,28.2401,176.265,1.27441,88.7476,544
1569940580,360.648,-146.335,28.2401,176.265,1.27441,88.7476,544
1569940580,360.648,-146.335,28.2401,176.287,1.27441,88.7476,544
1569940580,360.648,-146.335,28.2401,176.287,1.27441,88.7476,544
1569940580,360.648,-146.335,28.2401,176.287,1.27441,88.7476,544
1569940580,360.648,-146.335,28.2401,176.287,1.27441,88.7476,544
1569940580,360.648,-146.335,28.2401,176.287,1.27441,88.7476,544
1569940580,360.648,-146.335,28.2401,176.287,1.27441,88.7476,544
1569940580,360.648,-146.335,28.2401,176.287,1.27441,88.7476,544
1569940580,360.648,-146.335,28.2401,176.287,1.27441,88.7476,544
1569940580,360.648,-146.335,28.2401,176.287,1.27441,88.7476,544
1569940580,360.648,-146.335,28.2401,176.287,1.27441,88.7476,544
1569940580,360.648,-146.335,28.2401,176.287,1.27441,88.7476,544
1569940580,360.648,-146.335,28.2401,176.287,1.27441,88.7476,544
1569940580,360.648,-146.335,28.2401,176.287,1.27441,88.7476,544
1569940580,360.648,-146.335,28.2401,176.287,1.27441,88.7476,544
1569940580,360.648,-146.335,28.2401,176.287,1.27441,88.7476,544
1569940580,360.648,-146.335,28.2401,176.287,1.27441,88.7476,544
1569940580,360.648,-146.335,28.2401,176.287,1.27441,88.7476,544
1569940580,360.648,-146.335,28.2401,176.287,1.27441,88.7476,544
1569940580,360.648,-146.335,28.2401,176.287,1.27441,88.7476,544
1569940580,360.648,-146.335,28.2401,176.287,1.27441,88.7476,544
1569940580,360.648,-146.335,28.2401,176.287,1.27441,88.7476,544
1569940580,360.648,-146.335,28.2401,176.287,1.27441,88.7476,544
1569940580,360.648,-146.335,28.2401,176.287,1.27441,88.7476,544
1569940580,360.648,-146.335,28.2401,176.287,1.27441,88.7476,544
1569940580,360.648,-146.335,28.2401,176.287,1.27441,88.7476,544
1569940580,360.648,-146.335,28.2401,176.287,1.27441,88.7476,544
1569940580,360.648,-146.335,28.2401,176.287,1.27441,88.7476,544
1569940580,360.648,-146.335,28.2401,176.287,1.27441,88.7476,544
1569940580,360.648,-146.335,28.2401,176.287,1.27441,88.7476,544
1569940580,360.648,-146.335,28.2401,176.287,1.27441,88.7476,544
1569940580,360.648,-146.335,28.2401,176.287,1.27441,88.7476,544
1569940580,360.648,-146.335,28.2401,176.287,1.27441,88.7476,544
1569940580,360.648,-146.335,28.2401,176.287,1.27441,88.7476,544
1569940580,360.648,-146.335,28.2401,176.287,1.27441,88.7476,544
1569940580,360.648,-146.335,28.2401,176.287,1.27441,88.7476,544
1569940580,360.648,-146.335,28.2401,176.287,1.27441,88.7476,544
1569940580,360.648,-146.335,28.2401,176.287,1.27441,88.7476,544
1569940580,360.648,-146.335,28.2401,176.287,1.27441,88.7476,544
1569940580,360.648,-146.335,28.2401,176.287,1.27441,88.7476,544
1569940580,360.648,-146.335,28.2401,176.287,1.27441,88.7476,544
1569940580,360.648,-146.335,28.2401,176.287,1.27441,88.7476,544
1569940580,360.648,-146.335,28.2401,176.287,1.27441,88.7476,544
1569940580,360.648,-146.335,28.2401,176.287,1.27441,88.7476,544
1569940580,360.648,-146.335,28.2401,176.287,1.27441,88.7476,544
1569940580,360.648,-146.335,28.2401,176.287,1.27441,88.7476,544
1569940580,360.648,-146.335,28.2401,176.287,1.27441,88.7476,544
1569940580,360.648,-146.335,28.2401,176.287,1.27441,88.7476,544
1569940580,360.648,-146.335,28.2401,176.287,1.27441,88.7476,544
1569940580,360.648,-146.335,28.2401,176.287,1.27441,88.7476,544
1569940580,360.648,-146.335,28.2401,176.287,1.27441,88.7476,544
1569940580,360.648,-146.335,28.2401,176.287,1.27441,88.7476,544
1569940580,360.648,-146.335,28.2401,176.287,1.27441,88.7476,544
1569940580,360.648,-146.335,28.2401,176.287,1.27441,88.7476,544
1569940580,360.648,-146.335,28.2401,176.287,1.27441,88.7476,544
1569940580,360.648,-146.335,28.2401,176.287,1.27441,88.7476,544
1569940580,360.648,-146.335,28.2401,176.287,1.27441,88.7476,544
1569940580,360.648,-146.335,28.2401,176.287,1.27441,88.7476,544
1569940580,360.648,-146.335,28.2401,176.287,1.27441,88.7476,544
1569940580,360.648,-146.335,28.2401,176.287,1.27441,88.7476,544
1569940580,360.648,-146.335,28.2401,176.287,1.27441,88.7476,544
1569940580,360.648,-146.335,28.2401,176.287,1.27441,88.7476,544
1569940580,360.648,-146.335,28.2401,176.287,1.27441,88.7476,544
1569940580,360.648,-146.335,28.2401,176.287,1.27441,88.7476,544
1569940581,360.648,-146.335,28.2401,176.287,1.27441,88.7476,544
1569940581,360.648,-146.335,28.2401,176.287,1.27441,88.7476,544
1569940581,360.648,-146.335,28.2401,176.287,1.27441,88.7476,544
1569940581,360.648,-146.335,28.2401,176.287,1.27441,88.7476,544
1569940581,360.648,-146.335,28.2401,176.287,1.27441,88.7476,544
1569940581,360.648,-146.335,28.2401,176.287,1.27441,88.7476,544
1569940581,360.648,-146.335,28.2401,176.287,1.27441,88.7476,544
1569940581,360.648,-146.335,28.2401,176.287,1.27441,88.7476,544
1569940581,360.648,-146.335,28.2401,176.287,1.27441,88.7476,544
1569940581,360.648,-146.335,28.2401,176.287,1.27441,88.7476,544
1569940581,360.648,-146.335,28.2401,176.287,1.27441,88.7476,544
1569940581,360.648,-146.335,28.2401,176.287,1.27441,88.7476,544
1569940581,360.648,-146.335,28.2401,176.287,1.27441,88.7476,544
1569940581,360.648,-146.335,28.2401,176.287,1.27441,88.7476,544
1569940581,360.648,-146.335,28.2401,176.287,1.27441,88.7476,544
1569940581,360.648,-146.335,28.2401,176.287,1.27441,88.7476,544
1569940581,360.648,-146.335,28.2401,176.287,1.27441,88.7476,544
1569940581,360.648,-146.335,28.2401,176.287,1.27441,88.7476,544
1569940581,360.648,-146.335,28.2401,176.287,1.27441,88.7476,544
1569940581,360.648,-146.335,28.2401,176.287,1.27441,88.7476,544
1569940581,360.648,-146.335,28.2401,176.287,1.27441,88.7476,544
1569940581,360.648,-146.335,28.2401,176.287,1.27441,88.7476,544
1569940581,360.648,-146.335,28.2401,176.287,1.27441,88.7476,544
1569940581,360.648,-146.335,28.2401,176.287,1.27441,88.7476,544
1569940581,360.648,-146.335,28.2401,176.287,1.27441,88.7476,544
1569940581,360.648,-146.335,28.2401,176.287,1.27441,88.7476,544
1569940581,360.648,-146.335,28.2401,176.287,1.27441,88.7476,544
1569940581,360.648,-146.335,28.2401,176.287,1.27441,88.7476,544
1569940581,360.648,-146.335,28.2401,176.287,1.27441,88.7476,544
1569940581,360.648,-146.335,28.2401,176.287,1.27441,88.7476,544
1569940581,360.648,-146.335,28.2401,176.287,1.27441,88.7476,544
1569940581,360.648,-146.335,28.2401,176.287,1.27441,88.7476,544
1569940581,360.648,-146.335,28.2401,176.287,1.27441,88.7476,544
1569940581,360.648,-146.335,28.2401,176.287,1.27441,88.7476,544
1569940581,360.648,-146.335,28.2401,176.287,1.27441,88.7476,544
1569940581,360.648,-146.335,28.2401,176.287,1.27441,88.7476,544
1569940581,360.648,-146.335,28.2401,176.287,1.27441,88.7476,544
1569940581,360.648,-146.335,28.2401,176.287,1.27441,88.7476,544
1569940581,360.648,-146.335,28.2401,176.287,1.27441,88.7476,544
1569940581,360.648,-146.335,28.2401,176.287,1.27441,88.7476,544
1569940581,360.648,-146.335,28.2401,176.287,1.27441,88.7476,544
1569940581,360.648,-146.335,28.2401,176.287,1.27441,88.7476,544
1569940581,360.648,-146.335,28.2401,176.287,1.27441,88.7476,544
1569940581,360.648,-146.335,28.2401,176.287,1.27441,88.7476,544
1569940581,360.648,-146.335,28.2401,176.287,1.27441,88.7476,544
1569940581,360.648,-146.335,28.2401,176.287,1.27441,88.7476,544
1569940581,360.648,-146.335,28.2401,176.287,1.27441,88.7476,544
1569940581,360.648,-146.335,28.2401,176.287,1.27441,88.7476,544
1569940581,360.648,-146.335,28.2401,176.287,1.27441,88.7476,544
1569940581,360.648,-146.335,28.2401,176.287,1.27441,88.7476,544
1569940581,360.648,-146.335,28.2401,176.287,1.27441,88.7476,544
1569940581,360.648,-146.335,28.2401,176.287,1.27441,88.7476,544
1569940581,360.648,-146.335,28.2401,176.287,1.27441,88.7476,544
1569940581,360.648,-146.335,28.2401,176.287,1.27441,88.7476,544
1569940581,360.648,-146.335,28.2401,176.287,1.27441,88.7476,544
1569940581,360.648,-146.335,28.2401,176.287,1.27441,88.7476,544
1569940581,360.648,-146.335,28.2401,176.287,1.27441,88.7476,544
1569940581,360.648,-146.335,28.2401,176.287,1.27441,88.7476,544
1569940581,360.648,-146.335,28.2401,176.287,1.27441,88.7476,544
1569940581,360.648,-146.335,28.2401,176.287,1.27441,88.7476,544
1569940581,360.648,-146.335,28.2401,176.287,1.27441,88.7476,544
1569940581,360.648,-146.335,28.2401,176.287,1.27441,88.7476,544
1569940581,360.648,-146.335,28.2401,176.287,1.27441,88.7476,544
1569940581,360.648,-146.335,28.2401,176.287,1.27441,88.7476,544
1569940581,360.648,-146.335,28.2401,176.287,1.27441,88.7476,544
1569940585,360.648,-146.335,28.2401,176.265,1.27441,88.7476,544
1569940585,360.648,-146.335,28.2401,176.265,1.27441,88.7476,544
1569940585,360.648,-146.335,28.2401,176.265,1.27441,88.7476,544
1569940585,360.648,-146.335,28.2401,176.265,1.27441,88.7476,544
1569940585,360.648,-146.335,28.2401,176.265,1.27441,88.7476,544
1569940585,360.648,-146.335,28.2401,176.265,1.27441,88.7476,544
1569940585,360.648,-146.335,28.2401,176.265,1.27441,88.7476,544
1569940585,360.648,-146.335,28.2401,176.265,1.27441,88.7476,544
1569940585,360.648,-146.335,28.2401,176.265,1.27441,88.7476,544
1569940585,360.648,-146.335,28.2401,176.265,1.27441,88.7476,544
1569940585,360.648,-146.335,28.2401,176.265,1.27441,88.7476,544
1569940585,360.648,-146.335,28.2401,176.265,1.27441,88.7476,544
1569940585,360.648,-146.335,28.2401,176.265,1.27441,88.7476,544
1569940585,360.648,-146.335,28.2401,176.265,1.27441,88.7476,544
1569940585,360.648,-146.335,28.2401,176.265,1.27441,88.7476,544
1569940585,360.648,-146.335,28.2401,176.265,1.27441,88.7476,544
1569940585,360.648,-146.335,28.2401,176.265,1.27441,88.7476,544
1569940585,360.648,-146.335,28.2401,176.265,1.27441,88.7476,544
1569940585,360.648,-146.335,28.2401,176.265,1.27441,88.7476,544
1569940585,360.648,-146.335,28.2401,176.265,1.27441,88.7476,544
1569940585,360.648,-146.335,28.2401,176.287,1.27441,88.7476,544
1569940585,360.648,-146.335,28.2401,176.287,1.27441,88.7476,544
1569940585,360.648,-146.335,28.2401,176.287,1.27441,88.7476,544
1569940585,360.648,-146.335,28.2401,176.287,1.27441,88.7476,544
1569940585,360.648,-146.335,28.2401,176.287,1.27441,88.7476,544
1569940585,360.648,-146.335,28.2401,176.287,1.27441,88.7476,544
1569940585,360.648,-146.335,28.2401,176.287,1.27441,88.7476,544
1569940585,360.648,-146.335,28.2401,176.287,1.27441,88.7476,544
1569940585,360.648,-146.335,28.2401,176.287,1.27441,88.7476,544
1569940585,360.648,-146.335,28.2401,176.287,1.27441,88.7476,544
1569940585,360.648,-146.335,28.2401,176.287,1.27441,88.7476,544
1569940585,360.648,-146.335,28.2401,176.287,1.27441,88.7476,544
1569940585,360.648,-146.335,28.2401,176.287,1.27441,88.7476,544
1569940585,360.648,-146.335,28.2401,176.287,1.27441,88.7476,544
1569940585,360.648,-146.335,28.2401,176.287,1.27441,88.7476,544
1569940585,360.648,-146.335,28.2401,176.287,1.27441,88.7476,544
1569940585,360.648,-146.335,28.2401,176.287,1.27441,88.7476,544
1569940585,360.648,-146.335,28.2401,176.287,1.27441,88.7476,544
1569940585,360.648,-146.335,28.2401,176.287,1.27441,88.7476,544
1569940585,360.648,-146.335,28.2401,176.287,1.27441,88.7476,544
1569940585,360.648,-146.335,28.2401,176.287,1.27441,88.7476,544
1569940585,360.648,-146.335,28.2401,176.287,1.27441,88.7476,544
1569940585,360.648,-146.335,28.2401,176.287,1.27441,88.7476,544
1569940585,360.648,-146.335,28.2401,176.287,1.27441,88.7476,544
1569940585,360.648,-146.335,28.2401,176.287,1.27441,88.7476,544
1569940585,360.648,-146.335,28.2401,176.287,1.27441,88.7476,544
1569940585,360.648,-146.335,28.2401,176.287,1.27441,88.7476,544
1569940585,360.648,-146.335,28.2401,176.287,1.27441,88.7476,544
1569940585,360.648,-146.335,28.2401,176.287,1.27441,88.7476,544
1569940585,360.648,-146.335,28.2401,176.287,1.27441,88.7476,544
1569940585,360.648,-146.335,28.2401,176.287,1.27441,88.7476,544
1569940585,360.648,-146.335,28.2401,176.287,1.27441,88.7476,544
1569940585,360.648,-146.335,28.2401,176.287,1.27441,88.7476,544
1569940585,360.648,-146.335,28.2401,176.287,1.27441,88.7476,544
1569940585,360.648,-146.335,28.2401,176.287,1.27441,88.7476,544
1569940585,360.648,-146.335,28.2401,176.287,1.27441,88.7476,544
1569940585,360.648,-146.335,28.2401,176.287,1.27441,88.7476,544
1569940585,360.648,-146.335,28.2401,176.287,1.27441,88.7476,544
1569940585,360.648,-146.335,28.2401,176.287,1.27441,88.7476,544
1569940585,360.648,-146.335,28.2401,176.287,1.27441,88.7476,544
1569940585,360.648,-146.335,28.2401,176.287,1.27441,88.7476,544
1569940585,360.648,-146.335,28.2401,176.287,1.27441,88.7476,544
1569940585,360.648,-146.335,28.2401,176.287,1.27441,88.7476,544
1569940585,360.648,-146.335,28.2401,176.287,1.27441,88.7476,544
1569940585,360.648,-146.335,28.2401,176.287,1.27441,88.7476,544
1569940585,360.648,-146.335,28.2401,176.287,1.27441,88.7476,544
1569940585,360.648,-146.335,28.2401,176.287,1.27441,88.7476,544
1569940585,360.648,-146.335,28.2401,176.287,1.27441,88.7476,544
1569940585,360.648,-146.335,28.2401,176.287,1.27441,88.7476,544
1569940585,360.648,-146.335,28.2401,176.287,1.27441,88.7476,544
1569940585,360.648,-146.335,28.2401,176.287,1.27441,88.7476,544
1569940585,360.648,-146.335,28.2401,176.287,1.27441,88.7476,544
1569940585,360.648,-146.335,28.2401,176.287,1.27441,88.7476,544
1569940585,360.648,-146.335,28.2401,176.287,1.27441,88.7476,544
1569940585,360.648,-146.335,28.2401,176.287,1.27441,88.7476,544
1569940585,360.648,-146.335,28.2401,176.287,1.27441,88.7476,544
1569940585,360.648,-146.335,28.2401,176.287,1.27441,88.7476,544
1569940585,360.648,-146.335,28.2401,176.287,1.27441,88.7476,544
1569940585,360.648,-146.335,28.2401,176.287,1.27441,88.7476,544
1569940585,360.648,-146.335,28.2401,176.287,1.27441,88.7476,544
1569940585,360.648,-146.335,28.2401,176.287,1.27441,88.7476,544
1569940585,360.648,-146.335,28.2401,176.287,1.27441,88.7476,544
1569940585,360.648,-146.335,28.2401,176.287,1.27441,88.7476,544
1569940585,360.648,-146.335,28.2401,176.287,1.27441,88.7476,544
1569940585,360.648,-146.335,28.2401,176.287,1.27441,88.7476,544
1569940585,360.648,-146.335,28.2401,176.287,1.27441,88.7476,544
1569940585,360.648,-146.335,28.2401,176.287,1.27441,88.7476,544
1569940585,360.648,-146.335,28.2401,176.287,1.27441,88.7476,544
1569940585,360.648,-146.335,28.2401,176.287,1.27441,88.7476,544
1569940585,360.648,-146.335,28.2401,176.287,1.27441,88.7476,544
1569940586,360.648,-146.335,28.2401,176.287,1.27441,88.7476,544
1569940586,360.648,-146.335,28.2401,176.287,1.27441,88.7476,544
1569940586,360.648,-146.335,28.2401,176.265,1.27441,88.7476,544
1569940586,360.648,-146.335,28.2401,176.265,1.27441,88.7476,544
1569940586,360.648,-146.335,28.2401,176.265,1.27441,88.7476,544
1569940586,360.648,-146.335,28.2401,176.265,1.27441,88.7476,544
1569940586,360.648,-146.335,28.2401,176.265,1.27441,88.7476,544
1569940586,360.648,-146.335,28.2401,176.265,1.27441,88.7476,544
1569940586,360.648,-146.335,28.2401,176.265,1.27441,88.7476,544
1569940586,360.648,-146.335,28.2401,176.265,1.27441,88.7476,544
1569940586,360.648,-146.335,28.2401,176.265,1.27441,88.7476,544
1569940586,360.648,-146.335,28.2401,176.265,1.27441,88.7476,544
1569940586,360.648,-146.335,28.2401,176.265,1.27441,88.7476,544
1569940586,360.648,-146.335,28.2401,176.265,1.27441,88.7476,544
1569940586,360.648,-146.335,28.2401,176.265,1.27441,88.7476,544
1569940586,360.648,-146.335,28.2401,176.265,1.27441,88.7476,544
1569940586,360.648,-146.335,28.2401,176.265,1.27441,88.7476,544
1569940586,360.648,-146.335,28.2401,176.265,1.27441,88.7476,544
1569940586,360.648,-146.335,28.2401,176.265,1.27441,88.7476,544
1569940586,360.648,-146.335,28.2401,176.265,1.27441,88.7476,544
1569940586,360.648,-146.335,28.2401,176.265,1.27441,88.7476,544
1569940586,360.648,-146.335,28.2401,176.265,1.27441,88.7476,544
1569940586,360.648,-146.335,28.2401,176.265,1.27441,88.7476,544
1569940586,360.648,-146.335,28.2401,176.265,1.27441,88.7476,544
1569940586,360.648,-146.335,28.2401,176.265,1.27441,88.7476,544
1569940586,360.648,-146.335,28.2401,176.265,1.27441,88.7476,544
1569940586,360.648,-146.335,28.2401,176.265,1.27441,88.7476,544
1569940586,360.648,-146.335,28.2401,176.265,1.27441,88.7476,544
1569940586,360.648,-146.335,28.2401,176.265,1.27441,88.7476,544
1569940586,360.648,-146.335,28.2401,176.265,1.27441,88.7476,544
1569940586,360.648,-146.335,28.2401,176.265,1.27441,88.7476,544
1569940586,360.648,-146.335,28.2401,176.265,1.27441,88.7476,544
1569940586,360.648,-146.335,28.2401,176.265,1.27441,88.7476,544
1569940586,360.648,-146.335,28.2401,176.265,1.27441,88.7476,544
1569940586,360.648,-146.335,28.2401,176.265,1.27441,88.7476,544
1569940586,360.648,-146.335,28.2401,176.265,1.27441,88.7476,544
1569940586,360.648,-146.335,28.2401,176.265,1.27441,88.7476,544
1569940586,360.648,-146.335,28.2401,176.287,1.27441,88.7476,544
1569940586,360.648,-146.335,28.2401,176.287,1.27441,88.7476,544
1569940586,360.648,-146.335,28.2401,176.287,1.27441,88.7476,544
1569940586,360.648,-146.335,28.2401,176.287,1.27441,88.7476,544
1569940586,360.648,-146.335,28.2401,176.287,1.27441,88.7476,544
1569940586,360.648,-146.335,28.2401,176.287,1.27441,88.7476,544
1569940586,360.648,-146.335,28.2401,176.287,1.27441,88.7476,544
1569940586,360.648,-146.335,28.2401,176.287,1.27441,88.7476,544
1569940586,360.648,-146.335,28.2401,176.287,1.27441,88.7476,544
1569940586,360.648,-146.335,28.2401,176.287,1.27441,88.7476,544
1569940586,360.648,-146.335,28.2401,176.287,1.27441,88.7476,544
1569940586,360.648,-146.335,28.2401,176.287,1.27441,88.7476,544
1569940586,360.648,-146.335,28.2401,176.287,1.27441,88.7476,544
1569940586,360.648,-146.335,28.2401,176.287,1.27441,88.7476,544
1569940586,360.648,-146.335,28.2401,176.287,1.27441,88.7476,544
1569940586,360.648,-146.335,28.2401,176.287,1.27441,88.7476,544
1569940586,360.648,-146.335,28.2401,176.287,1.27441,88.7476,544
1569940586,360.648,-146.335,28.2401,176.287,1.27441,88.7476,544
1569940586,360.648,-146.335,28.2401,176.287,1.27441,88.7476,544
1569940586,360.648,-146.335,28.2401,176.287,1.27441,88.7476,544
1569940586,360.648,-146.335,28.2401,176.265,1.27441,88.7476,544
1569940586,360.648,-146.335,28.2401,176.265,1.27441,88.7476,544
1569940586,360.648,-146.335,28.2401,176.265,1.27441,88.7476,544
1569940586,360.648,-146.335,28.2401,176.265,1.27441,88.7476,544
1569940586,360.648,-146.335,28.2401,176.265,1.27441,88.7476,544
1569940586,360.648,-146.335,28.2401,176.287,1.27441,88.7476,544
1569940586,360.648,-146.335,28.2401,176.287,1.27441,88.7476,544
1569940586,360.648,-146.335,28.2401,176.287,1.27441,88.7476,544
1569940586,360.648,-146.335,28.2401,176.287,1.27441,88.7476,544
1569940586,360.648,-146.335,28.2401,176.287,1.27441,88.7476,544
1569940586,360.648,-146.335,28.2401,176.287,1.27441,88.7476,540
1569940586,360.648,-146.335,28.2401,176.287,1.27441,88.7476,540
1569940586,360.648,-146.335,28.2401,176.287,1.27441,88.7476,540
1569940586,360.648,-146.335,28.2401,176.287,1.27441,88.7476,540
1569940586,360.648,-146.335,28.2401,176.287,1.27441,88.7476,540
1569940586,360.648,-146.335,28.2401,176.287,1.27441,88.7476,540
1569940586,360.648,-146.335,28.2401,176.287,1.27441,88.7476,540
1569940586,360.648,-146.335,28.2401,176.287,1.27441,88.7476,540
1569940586,360.648,-146.335,28.2401,176.287,1.27441,88.7476,540
1569940586,360.648,-146.335,28.2401,176.287,1.27441,88.7476,540
1569940586,360.648,-146.335,28.2401,176.287,1.27441,88.7476,540
1569940586,360.648,-146.335,28.2401,176.287,1.27441,88.7476,544
1569940586,360.648,-146.335,28.2401,176.287,1.27441,88.7476,544
1569940586,360.648,-146.335,28.2401,176.287,1.27441,88.7476,544
1569940586,360.648,-146.335,28.2401,176.287,1.27441,88.7476,544
1569940586,360.648,-146.335,28.2401,176.287,1.27441,88.7476,544
1569940586,360.648,-146.335,28.2401,176.287,1.27441,88.7476,544
1569940586,360.648,-146.335,28.2401,176.287,1.27441,88.7476,544
1569940586,360.648,-146.335,28.2401,176.287,1.27441,88.7476,544
1569940586,360.648,-146.335,28.2401,176.287,1.27441,88.7476,544
1569940586,360.648,-146.335,28.2401,176.287,1.27441,88.7476,544
1569940586,360.648,-146.335,28.2401,176.287,1.27441,88.7476,544
1569940586,360.648,-146.335,28.2401,176.287,1.27441,88.7476,544
1569940586,360.648,-146.335,28.2401,176.287,1.27441,88.7476,544
1569940586,360.648,-146.335,28.2401,176.287,1.27441,88.7476,544
1569940586,360.648,-146.335,28.2401,176.287,1.27441,88.7476,544
1569940586,360.648,-146.335,28.2401,176.287,1.27441,88.7476,544
1569940586,360.648,-146.335,28.2401,176.287,1.27441,88.7476,544
1569940586,360.648,-146.335,28.2401,176.287,1.27441,88.7476,544
1569940586,360.648,-146.335,28.2401,176.287,1.27441,88.7476,544
1569940586,360.648,-146.335,28.2401,176.287,1.27441,88.7476,544
1569940586,360.648,-146.335,28.2401,176.287,1.27441,88.7476,544
1569940586,360.648,-146.335,28.2401,176.287,1.27441,88.7476,544
1569940587,360.648,-146.335,28.2401,176.287,1.27441,88.7476,544
1569940587,360.648,-146.335,28.2401,176.287,1.27441,88.7476,544
1569940587,360.648,-146.335,28.2401,176.287,1.27441,88.7476,544
1569940587,360.648,-146.335,28.2401,176.287,1.27441,88.7476,544
1569940587,360.648,-146.335,28.2401,176.287,1.27441,88.7476,544
1569940587,360.648,-146.335,28.2401,176.287,1.27441,88.7476,544
1569940587,360.648,-146.335,28.2401,176.287,1.27441,88.7476,544
1569940587,360.648,-146.335,28.2401,176.287,1.27441,88.7476,544
1569940587,360.648,-146.335,28.2401,176.287,1.27441,88.7476,544
1569940587,360.648,-146.335,28.2401,176.287,1.27441,88.7476,544
1569940587,360.648,-146.335,28.2401,176.287,1.27441,88.7476,544
1569940587,360.648,-146.335,28.2401,176.287,1.27441,88.7476,544
1569940587,360.648,-146.335,28.2401,176.287,1.27441,88.7476,544
1569940587,360.648,-146.335,28.2401,176.287,1.27441,88.7476,544
1569940587,360.648,-146.335,28.2401,176.287,1.27441,88.7476,544
1569940587,360.648,-146.335,28.2401,176.287,1.27441,88.7476,544
1569940587,360.648,-146.335,28.2401,176.287,1.27441,88.7476,544
1569940587,360.648,-146.335,28.2401,176.287,1.27441,88.7476,544
1569940587,360.648,-146.335,28.2401,176.287,1.27441,88.7476,544
1569940587,360.648,-146.335,28.2401,176.287,1.27441,88.7476,544
1569940587,360.648,-146.335,28.2401,176.287,1.27441,88.7476,544
1569940587,360.648,-146.335,28.2401,176.287,1.27441,88.7476,544
1569940587,360.648,-146.335,28.2401,176.287,1.27441,88.7476,544
1569940587,360.648,-146.335,28.2401,176.287,1.27441,88.7476,544
1569940587,360.648,-146.335,28.2401,176.287,1.27441,88.7476,544
1569940587,360.648,-146.335,28.2401,176.287,1.27441,88.7476,544
1569940587,360.648,-146.335,28.2401,176.287,1.27441,88.7476,544
1569940587,360.648,-146.335,28.2401,176.287,1.27441,88.7476,544
1569940587,360.648,-146.335,28.2401,176.287,1.27441,88.7476,544
1569940587,360.648,-146.335,28.2401,176.287,1.27441,88.7476,544
1569940587,360.648,-146.335,28.2401,176.287,1.27441,88.7476,544
1569940587,360.648,-146.335,28.2401,176.287,1.27441,88.7476,544
1569940587,360.648,-146.335,28.2401,176.287,1.27441,88.7476,544
1569940587,360.648,-146.335,28.2401,176.287,1.27441,88.7476,544
1569940587,360.648,-146.335,28.2401,176.287,1.27441,88.7476,544
1569940587,360.648,-146.335,28.2401,176.287,1.27441,88.7476,544
1569940587,360.648,-146.335,28.2401,176.287,1.27441,88.7476,544
1569940587,360.648,-146.335,28.2401,176.287,1.27441,88.7476,544
1569940587,360.648,-146.335,28.2401,176.287,1.27441,88.7476,544
1569940587,360.648,-146.335,28.2401,176.287,1.27441,88.7476,544
1569940587,360.648,-146.335,28.2401,176.287,1.27441,88.7476,544
1569940587,360.648,-146.335,28.2401,176.287,1.27441,88.7476,544
1569940587,360.648,-146.335,28.2401,176.287,1.27441,88.7476,544
1569940587,360.648,-146.335,28.2401,176.287,1.27441,88.7476,544
1569940587,360.648,-146.335,28.2401,176.287,1.27441,88.7476,544
1569940587,360.648,-146.335,28.2401,176.287,1.27441,88.7476,544
1569940587,360.648,-146.335,28.2401,176.287,1.27441,88.7476,544
1569940587,360.648,-146.335,28.2401,176.287,1.27441,88.7476,544
1569940587,360.648,-146.335,28.2401,176.287,1.27441,88.7476,544
1569940587,360.648,-146.335,28.2401,176.287,1.27441,88.7476,544
1569940587,360.648,-146.335,28.2401,176.287,1.27441,88.7476,544
1569940587,360.648,-146.335,28.2401,176.287,1.27441,88.7476,544
1569940587,360.648,-146.335,28.2401,176.287,1.27441,88.7476,544
1569940587,360.648,-146.335,28.2401,176.287,1.27441,88.7476,544
1569940587,360.648,-146.335,28.2401,176.287,1.27441,88.7476,544
1569940587,360.648,-146.335,28.2401,176.287,1.27441,88.7476,544
1569940587,360.648,-146.335,28.2401,176.287,1.27441,88.7476,544
1569940587,360.648,-146.335,28.2401,176.287,1.27441,88.7476,544
1569940587,360.648,-146.335,28.2401,176.287,1.27441,88.7476,544
1569940587,360.648,-146.335,28.2401,176.287,1.27441,88.7476,544
1569940587,360.648,-146.335,28.2401,176.287,1.27441,88.7476,544
1569940587,360.648,-146.335,28.2401,176.287,1.27441,88.7476,544
1569940587,360.648,-146.335,28.2401,176.287,1.27441,88.7476,544
1569940587,360.648,-146.335,28.2401,176.287,1.27441,88.7476,544
1569940587,360.648,-146.335,28.2401,176.265,1.27441,88.7476,544
1569940587,360.648,-146.335,28.2401,176.265,1.27441,88.7476,544
1569940587,360.648,-146.335,28.2401,176.287,1.27441,88.7476,544
1569940587,360.648,-146.335,28.2401,176.287,1.27441,88.7476,544
1569940587,360.648,-146.335,28.2401,176.287,1.27441,88.7476,544
1569940587,360.648,-146.335,28.2401,176.287,1.27441,88.7476,544
1569940587,360.648,-146.335,28.2401,176.287,1.27441,88.7476,544
1569940587,360.648,-146.335,28.2401,176.287,1.27441,88.7476,544
1569940587,360.648,-146.335,28.2401,176.287,1.27441,88.7476,544
1569940587,360.648,-146.335,28.2401,176.287,1.27441,88.7476,544
1569940587,360.648,-146.335,28.2401,176.287,1.27441,88.7476,544
1569940587,360.648,-146.335,28.2401,176.287,1.27441,88.7476,544
1569940587,360.648,-146.335,28.2401,176.287,1.27441,88.7476,544
1569940587,360.648,-146.335,28.2401,176.287,1.27441,88.7476,544
1569940587,360.648,-146.335,28.2401,176.287,1.27441,88.7476,544
1569940587,360.648,-146.335,28.2401,176.287,1.27441,88.7476,544
1569940587,360.648,-146.335,28.2401,176.287,1.27441,88.7476,544
1569940587,360.648,-146.335,28.2401,176.287,1.27441,88.7476,544
1569940587,360.648,-146.335,28.2401,176.287,1.27441,88.7476,544
1569940587,360.648,-146.335,28.2401,176.287,1.27441,88.7476,544
1569940587,360.648,-146.335,28.2401,176.287,1.27441,88.7476,544
1569940587,360.648,-146.335,28.2401,176.287,1.27441,88.7476,544
1569940587,360.648,-146.335,28.2401,176.287,1.27441,88.7476,544
1569940587,360.648,-146.335,28.2401,176.287,1.27441,88.7476,544
1569940587,360.648,-146.335,28.2401,176.287,1.27441,88.7476,544
1569940587,360.648,-146.335,28.2401,176.287,1.27441,88.7476,544
1569940587,360.648,-146.335,28.2401,176.287,1.27441,88.7476,544
1569940587,360.648,-146.335,28.2401,176.287,1.27441,88.7476,544
1569940587,360.648,-146.335,28.2401,176.287,1.27441,88.7476,544
1569940587,360.648,-146.335,28.2401,176.287,1.27441,88.7476,544
1569940587,360.648,-146.335,28.2401,176.287,1.27441,88.7476,544
1569940587,360.648,-146.335,28.2401,176.287,1.27441,88.7476,544
1569940587,360.648,-146.335,28.2401,176.287,1.27441,88.7476,544
1569940587,360.648,-146.335,28.2401,176.287,1.27441,88.7476,544
1569940587,360.648,-146.335,28.2401,176.287,1.27441,88.7476,544
1569940587,360.648,-146.335,28.2401,176.287,1.27441,88.7476,544
1569940588,360.648,-146.335,28.2401,176.287,1.27441,88.7476,544
1569940588,360.648,-146.335,28.2401,176.287,1.27441,88.7476,544
1569940588,360.648,-146.335,28.2401,176.287,1.27441,88.7476,544
1569940588,360.648,-146.335,28.2401,176.287,1.27441,88.7476,544
1569940588,360.648,-146.335,28.2401,176.287,1.27441,88.7476,544
1569940588,360.648,-146.335,28.2401,176.287,1.27441,88.7476,544
1569940588,360.648,-146.335,28.2401,176.287,1.27441,88.7476,544
1569940588,360.648,-146.335,28.2401,176.287,1.27441,88.7476,540
1569940588,360.648,-146.335,28.2401,176.287,1.27441,88.7476,540
1569940588,360.648,-146.335,28.2401,176.287,1.27441,88.7476,540
1569940588,360.648,-146.335,28.2401,176.287,1.27441,88.7476,540
1569940588,360.648,-146.335,28.2401,176.287,1.27441,88.7476,540
1569940588,360.648,-146.335,28.2401,176.287,1.27441,88.7476,540
1569940588,360.648,-146.335,28.2401,176.287,1.27441,88.7476,540
1569940588,360.648,-146.335,28.2401,176.287,1.27441,88.7476,540
1569940588,360.648,-146.335,28.2401,176.287,1.27441,88.7476,540
1569940588,360.648,-146.335,28.2401,176.287,1.27441,88.7476,540
1569940588,360.648,-146.335,28.2401,176.287,1.27441,88.7476,540
1569940588,360.648,-146.335,28.2401,176.287,1.27441,88.7476,540
1569940588,360.648,-146.335,28.2401,176.287,1.27441,88.7476,544
1569940588,360.648,-146.335,28.2401,176.287,1.27441,88.7476,544
1569940588,360.648,-146.335,28.2401,176.287,1.27441,88.7476,544
1569940588,360.648,-146.335,28.2401,176.287,1.27441,88.7476,544
1569940588,360.648,-146.335,28.2401,176.287,1.27441,88.7476,544
1569940588,360.648,-146.335,28.2401,176.287,1.27441,88.7476,544
1569940588,360.648,-146.335,28.2401,176.287,1.27441,88.7476,544
1569940588,360.648,-146.335,28.2401,176.287,1.27441,88.7476,544
1569940588,360.648,-146.335,28.2401,176.287,1.27441,88.7476,544
1569940588,360.648,-146.335,28.2401,176.287,1.27441,88.7476,544
1569940588,360.648,-146.335,28.2401,176.287,1.27441,88.7476,544
1569940588,360.648,-146.335,28.2401,176.287,1.27441,88.7476,544
1569940588,360.648,-146.335,28.2401,176.287,1.27441,88.7476,544
1569940588,360.648,-146.335,28.2401,176.287,1.27441,88.7476,544
1569940588,360.648,-146.335,28.2401,176.287,1.27441,88.7476,544
1569940588,360.648,-146.335,28.2401,176.287,1.27441,88.7476,544
1569940588,360.648,-146.335,28.2401,176.287,1.27441,88.7476,544
1569940588,360.648,-146.335,28.2401,176.287,1.27441,88.7476,544
1569940588,360.648,-146.335,28.2401,176.287,1.27441,88.7476,544
1569940588,360.648,-146.335,28.2401,176.287,1.27441,88.7476,544
1569940588,360.648,-146.335,28.2401,176.287,1.27441,88.7476,544
1569940588,360.648,-146.335,28.2401,176.287,1.27441,88.7476,544
1569940588,360.648,-146.335,28.2401,176.287,1.27441,88.7476,544
1569940588,360.648,-146.335,28.2401,176.287,1.27441,88.7476,544
1569940588,360.648,-146.335,28.2401,176.287,1.27441,88.7476,544
1569940588,360.648,-146.335,28.2401,176.287,1.27441,88.7476,544
1569940588,360.648,-146.335,28.2401,176.287,1.27441,88.7476,544
1569940588,360.648,-146.335,28.2401,176.287,1.27441,88.7476,544
1569940588,360.648,-146.335,28.2401,176.287,1.27441,88.7476,544
1569940588,360.648,-146.335,28.2401,176.287,1.27441,88.7476,544
1569940588,360.648,-146.335,28.2401,176.287,1.27441,88.7476,544
1569940588,360.648,-146.335,28.2401,176.287,1.27441,88.7476,544
1569940588,360.648,-146.335,28.2401,176.287,1.27441,88.7476,544
1569940588,360.648,-146.335,28.2401,176.287,1.27441,88.7476,544
1569940588,360.648,-146.335,28.2401,176.287,1.27441,88.7476,544
1569940588,360.648,-146.335,28.2401,176.287,1.27441,88.7476,544
1569940588,360.648,-146.335,28.2401,176.287,1.27441,88.7476,544
1569940588,360.648,-146.335,28.2401,176.287,1.27441,88.7476,544
1569940588,360.648,-146.335,28.2401,176.287,1.27441,88.7476,544
1569940588,360.648,-146.335,28.2401,176.287,1.27441,88.7476,544
1569940588,360.648,-146.335,28.2401,176.287,1.27441,88.7476,544
1569940588,360.648,-146.335,28.2401,176.287,1.27441,88.7476,544
1569940588,360.648,-146.335,28.2401,176.287,1.27441,88.7476,544
1569940588,360.648,-146.335,28.2401,176.287,1.27441,88.7476,544
1569940588,360.648,-146.335,28.2401,176.287,1.27441,88.7476,544
1569940588,360.648,-146.335,28.2401,176.287,1.27441,88.7476,544
1569940588,360.648,-146.335,28.2401,176.287,1.27441,88.7476,544
1569940588,360.648,-146.335,28.2401,176.287,1.27441,88.7476,544
1569940588,360.648,-146.335,28.2401,176.265,1.27441,88.7476,544
1569940588,360.648,-146.335,28.2401,176.265,1.27441,88.7476,544
1569940588,360.648,-146.335,28.2401,176.265,1.27441,88.7476,544
1569940588,360.648,-146.335,28.2401,176.265,1.27441,88.7476,544
1569940588,360.648,-146.335,28.2401,176.265,1.27441,88.7476,544
1569940588,360.648,-146.335,28.2401,176.265,1.27441,88.7476,544
1569940588,360.648,-146.335,28.2401,176.265,1.27441,88.7476,544
1569940588,360.648,-146.335,28.2401,176.265,1.27441,88.7476,544
1569940588,360.648,-146.335,28.2401,176.287,1.27441,88.7476,544
1569940588,360.648,-146.335,28.2401,176.287,1.27441,88.7476,544
1569940588,360.648,-146.335,28.2401,176.287,1.27441,88.7476,544
1569940588,360.648,-146.335,28.2401,176.287,1.27441,88.7476,544
1569940588,360.648,-146.335,28.2401,176.287,1.27441,88.7476,544
1569940588,360.648,-146.335,28.2401,176.287,1.27441,88.7476,544
1569940588,360.648,-146.335,28.2401,176.287,1.27441,88.7476,544
1569940588,360.648,-146.335,28.2401,176.265,1.27441,88.7476,544
1569940588,360.648,-146.335,28.2401,176.265,1.27441,88.7476,544
1569940588,360.648,-146.335,28.2401,176.265,1.27441,88.7476,544
1569940588,360.648,-146.335,28.2401,176.265,1.27441,88.7476,544
1569940588,360.648,-146.335,28.2401,176.265,1.27441,88.7476,544
1569940588,360.648,-146.335,28.2401,176.265,1.27441,88.7476,544
1569940588,360.648,-146.335,28.2401,176.265,1.27441,88.7476,544
1569940588,360.648,-146.335,28.2401,176.265,1.27441,88.7476,544
1569940588,360.648,-146.335,28.2401,176.265,1.27441,88.7476,544
1569940588,360.648,-146.335,28.2401,176.265,1.27441,88.7476,544
1569940588,360.648,-146.335,28.2401,176.265,1.27441,88.7476,544
1569940588,360.648,-146.335,28.2401,176.265,1.27441,88.7476,544
1569940588,360.648,-146.335,28.2401,176.265,1.27441,88.7476,544
1569940588,360.648,-146.335,28.2401,176.265,1.27441,88.7476,544
1569940588,360.648,-146.335,28.2401,176.287,1.27441,88.7476,544
1569940588,360.648,-146.335,28.2401,176.287,1.27441,88.7476,544
1569940588,360.648,-146.335,28.2401,176.287,1.27441,88.7476,544
1569940588,360.648,-146.335,28.2401,176.287,1.27441,88.7476,544
1569940589,360.648,-146.335,28.2401,176.287,1.27441,88.7476,544
1569940589,360.648,-146.335,28.2401,176.287,1.27441,88.7476,544
1569940589,360.648,-146.335,28.2401,176.287,1.27441,88.7476,544
1569940589,360.648,-146.335,28.2401,176.287,1.27441,88.7476,544
1569940589,360.648,-146.335,28.2401,176.287,1.27441,88.7476,544
1569940589,360.648,-146.335,28.2401,176.287,1.27441,88.7476,544
1569940589,360.648,-146.335,28.2401,176.287,1.27441,88.7476,544
1569940589,360.648,-146.335,28.2401,176.287,1.27441,88.7476,544
1569940589,360.648,-146.335,28.2401,176.287,1.27441,88.7476,544
1569940589,360.648,-146.335,28.2401,176.287,1.27441,88.7476,544
1569940589,360.648,-146.335,28.2401,176.287,1.27441,88.7476,544
1569940589,360.648,-146.335,28.2401,176.287,1.27441,88.7476,544
1569940589,360.648,-146.335,28.2401,176.287,1.27441,88.7476,544
1569940589,360.648,-146.335,28.2401,176.287,1.27441,88.7476,544
1569940589,360.648,-146.335,28.2401,176.287,1.27441,88.7476,544
1569940589,360.648,-146.335,28.2401,176.287,1.27441,88.7476,544
1569940589,360.648,-146.335,28.2401,176.287,1.27441,88.7476,544
1569940589,360.648,-146.335,28.2401,176.287,1.27441,88.7476,544
1569940589,360.648,-146.335,28.2401,176.287,1.27441,88.7476,544
1569940589,360.648,-146.335,28.2401,176.287,1.27441,88.7476,544
1569940589,360.648,-146.335,28.2401,176.287,1.27441,88.7476,544
1569940589,360.648,-146.335,28.2401,176.287,1.27441,88.7476,544
1569940589,360.648,-146.335,28.2401,176.287,1.27441,88.7476,544
1569940589,360.648,-146.335,28.2401,176.287,1.27441,88.7476,544
1569940589,360.648,-146.335,28.2401,176.287,1.27441,88.7476,544
1569940589,360.648,-146.335,28.2401,176.287,1.27441,88.7476,544
1569940589,360.648,-146.335,28.2401,176.287,1.27441,88.7476,544
1569940589,360.648,-146.335,28.2401,176.287,1.27441,88.7476,544
1569940589,360.648,-146.335,28.2401,176.287,1.27441,88.7476,544
1569940589,360.648,-146.335,28.2401,176.287,1.27441,88.7476,544
1569940589,360.648,-146.335,28.2401,176.287,1.27441,88.7476,544
1569940589,360.648,-146.335,28.2401,176.287,1.27441,88.7476,544
1569940589,360.648,-146.335,28.2401,176.287,1.27441,88.7476,544
1569940589,360.648,-146.335,28.2401,176.287,1.27441,88.7476,544
1569940589,360.648,-146.335,28.2401,176.287,1.27441,88.7476,544
1569940589,360.648,-146.335,28.2401,176.287,1.27441,88.7476,544
1569940589,360.648,-146.335,28.2401,176.287,1.27441,88.7476,544
1569940589,360.648,-146.335,28.2401,176.287,1.27441,88.7476,544
1569940589,360.648,-146.335,28.2401,176.287,1.27441,88.7476,544
1569940589,360.648,-146.335,28.2401,176.287,1.27441,88.7476,544
1569940589,360.648,-146.335,28.2401,176.287,1.27441,88.7476,544
1569940589,360.648,-146.335,28.2401,176.287,1.27441,88.7476,544
1569940589,360.648,-146.335,28.2401,176.287,1.27441,88.7476,544
1569940589,360.648,-146.335,28.2401,176.287,1.27441,88.7476,544
1569940589,360.648,-146.335,28.2401,176.287,1.27441,88.7476,544
1569940589,360.648,-146.335,28.2401,176.287,1.27441,88.7476,544
1569940589,360.648,-146.335,28.2401,176.287,1.27441,88.7476,544
1569940589,360.648,-146.335,28.2401,176.287,1.27441,88.7476,544
1569940589,360.648,-146.335,28.2401,176.287,1.27441,88.7476,544
1569940589,360.648,-146.335,28.2401,176.287,1.27441,88.7476,544
1569940589,360.648,-146.335,28.2401,176.287,1.27441,88.7476,544
1569940589,360.648,-146.335,28.2401,176.287,1.27441,88.7476,544
1569940589,360.648,-146.335,28.2401,176.287,1.27441,88.7476,544
1569940589,360.648,-146.335,28.2401,176.287,1.27441,88.7476,544
1569940589,360.648,-146.335,28.2401,176.287,1.27441,88.7476,544
1569940589,360.648,-146.335,28.2401,176.287,1.27441,88.7476,544
1569940589,360.648,-146.335,28.2401,176.287,1.27441,88.7476,544
1569940589,360.648,-146.335,28.2401,176.287,1.27441,88.7476,544
1569940589,360.648,-146.335,28.2401,176.287,1.27441,88.7476,544
1569940589,360.648,-146.335,28.2401,176.287,1.27441,88.7476,544
1569940589,360.648,-146.335,28.2401,176.287,1.27441,88.7476,544
1569940589,360.648,-146.335,28.2401,176.287,1.27441,88.7476,544
1569940589,360.648,-146.335,28.2401,176.287,1.27441,88.7476,544
1569940589,360.648,-146.335,28.2401,176.287,1.27441,88.7476,544
1569940589,360.648,-146.335,28.2401,176.287,1.27441,88.7476,544
1569940589,360.648,-146.335,28.2401,176.287,1.27441,88.7476,544
1569940589,360.648,-146.335,28.2401,176.287,1.27441,88.7476,544
1569940589,360.648,-146.335,28.2401,176.287,1.27441,88.7476,544
1569940589,360.648,-146.335,28.2401,176.287,1.27441,88.7476,544
1569940589,360.648,-146.335,28.2401,176.287,1.27441,88.7476,544
1569940589,360.648,-146.335,28.2401,176.287,1.27441,88.7476,544
1569940589,360.648,-146.335,28.2401,176.287,1.27441,88.7476,544
1569940589,360.648,-146.335,28.2401,176.287,1.27441,88.7476,544
1569940589,360.648,-146.335,28.2401,176.287,1.27441,88.7476,544
1569940589,360.648,-146.335,28.2401,176.287,1.27441,88.7476,544
1569940589,360.648,-146.335,28.2401,176.287,1.27441,88.7476,544
1569940589,360.648,-146.335,28.2401,176.287,1.27441,88.7476,544
1569940589,360.648,-146.335,28.2401,176.287,1.27441,88.7476,544
1569940589,360.648,-146.335,28.2401,176.287,1.27441,88.7476,544
1569940589,360.648,-146.335,28.2401,176.287,1.27441,88.7476,544
1569940589,360.648,-146.335,28.2401,176.287,1.27441,88.7476,544
1569940589,360.648,-146.335,28.2401,176.287,1.27441,88.7476,544
1569940589,360.648,-146.335,28.2401,176.287,1.27441,88.7476,544
1569940589,360.648,-146.335,28.2401,176.287,1.27441,88.7476,544
1569940589,360.648,-146.335,28.2401,176.287,1.27441,88.7476,544
1569940589,360.648,-146.335,28.2401,176.287,1.27441,88.7476,544
1569940589,360.648,-146.335,28.2401,176.287,1.27441,88.7476,544
1569940589,360.648,-146.335,28.2401,176.287,1.27441,88.7476,544
1569940589,360.648,-146.335,28.2401,176.287,1.27441,88.7476,544
1569940589,360.648,-146.335,28.2401,176.287,1.27441,88.7476,544
1569940589,360.648,-146.335,28.2401,176.287,1.27441,88.7476,544
1569940589,360.648,-146.335,28.2401,176.287,1.27441,88.7476,544
1569940589,360.648,-146.335,28.2401,176.287,1.27441,88.7476,544
1569940589,360.648,-146.335,28.2401,176.287,1.27441,88.7476,544
1569940589,360.648,-146.335,28.2401,176.287,1.27441,88.7476,544
1569940589,360.648,-146.335,28.2401,176.287,1.27441,88.7476,544
1569940589,360.648,-146.335,28.2401,176.287,1.27441,88.7476,544
1569940589,360.648,-146.335,28.2401,176.287,1.27441,88.7476,544
1569940589,360.648,-146.335,28.2401,176.287,1.27441,88.7476,544
1569940589,360.648,-146.335,28.2401,176.287,1.27441,88.7476,544
1569940590,360.648,-146.335,28.2401,176.287,1.27441,88.7476,544
1569940590,360.648,-146.335,28.2401,176.287,1.27441,88.7476,544
1569940590,360.648,-146.335,28.2401,176.287,1.27441,88.7476,544
1569940590,360.648,-146.335,28.2401,176.287,1.27441,88.7476,544
1569940590,360.648,-146.335,28.2401,176.287,1.27441,88.7476,544
1569940590,360.648,-146.335,28.2401,176.287,1.27441,88.7476,544
1569940590,360.648,-146.335,28.2401,176.287,1.27441,88.7476,544
1569940590,360.648,-146.335,28.2401,176.287,1.27441,88.7476,544
1569940590,360.648,-146.335,28.2401,176.287,1.27441,88.7476,544
1569940590,360.648,-146.335,28.2401,176.287,1.27441,88.7476,544
1569940593,360.648,-146.335,28.2401,176.287,1.27441,88.7476,548
1569940593,360.648,-146.335,28.2401,176.287,1.27441,88.7476,548
1569940593,360.648,-146.335,28.2401,176.287,1.27441,88.7476,548
1569940593,360.648,-146.335,28.2401,176.287,1.27441,88.7476,548
1569940593,360.648,-146.335,28.2401,176.287,1.27441,88.7476,548
1569940593,360.648,-146.335,28.2401,176.287,1.27441,88.7476,548
1569940593,360.648,-146.335,28.2401,176.287,1.27441,88.7476,548
1569940593,360.648,-146.335,28.2401,176.287,1.27441,88.7476,548
1569940593,360.648,-146.335,28.2401,176.287,1.27441,88.7476,548
1569940593,360.648,-146.335,28.2401,176.287,1.27441,88.7476,548
1569940593,360.648,-146.335,28.2401,176.287,1.27441,88.7476,544
1569940593,360.648,-146.335,28.2401,176.287,1.27441,88.7476,544
1569940593,360.648,-146.335,28.2401,176.287,1.27441,88.7476,544
1569940593,360.648,-146.335,28.2401,176.287,1.27441,88.7476,544
1569940593,360.648,-146.335,28.2401,176.287,1.27441,88.7476,544
1569940593,360.648,-146.335,28.2401,176.287,1.27441,88.7476,544
1569940593,360.648,-146.335,28.2401,176.287,1.27441,88.7476,544
1569940594,360.648,-146.335,28.2401,176.287,1.27441,88.7476,544
1569940594,360.648,-146.335,28.2401,176.287,1.27441,88.7476,544
1569940594,360.648,-146.335,28.2401,176.287,1.27441,88.7476,544
1569940594,360.648,-146.335,28.2401,176.287,1.27441,88.7476,544
1569940594,360.648,-146.335,28.2401,176.287,1.27441,88.7476,544
1569940594,360.648,-146.335,28.2401,176.287,1.27441,88.7476,544
1569940594,360.648,-146.335,28.2401,176.287,1.27441,88.7476,544
1569940594,360.648,-146.335,28.2401,176.287,1.27441,88.7476,544
1569940594,360.648,-146.335,28.2401,176.287,1.27441,88.7476,544
1569940594,360.648,-146.335,28.2401,176.287,1.27441,88.7476,544
1569940594,360.648,-146.335,28.2401,176.287,1.27441,88.7476,544
1569940594,360.648,-146.335,28.2401,176.287,1.27441,88.7476,544
1569940594,360.648,-146.335,28.2401,176.287,1.27441,88.7476,544
1569940594,360.648,-146.335,28.2401,176.287,1.27441,88.7476,544
1569940594,360.648,-146.335,28.2401,176.287,1.27441,88.7476,544
1569940594,360.648,-146.335,28.2401,176.287,1.27441,88.7476,544
1569940594,360.648,-146.335,28.2401,176.287,1.27441,88.7476,544
1569940594,360.648,-146.335,28.2401,176.287,1.27441,88.7476,544
1569940594,360.648,-146.335,28.2401,176.287,1.27441,88.7476,544
1569940594,360.648,-146.335,28.2401,176.287,1.27441,88.7476,544
1569940594,360.648,-146.335,28.2401,176.287,1.27441,88.7476,544
1569940594,360.648,-146.335,28.2401,176.287,1.27441,88.7476,544
1569940594,360.648,-146.335,28.2401,176.287,1.27441,88.7476,544
1569940594,360.648,-146.335,28.2401,176.287,1.27441,88.7476,544
1569940594,360.648,-146.335,28.2401,176.287,1.27441,88.7476,544
1569940594,360.648,-146.335,28.2401,176.287,1.27441,88.7476,544
1569940594,360.648,-146.335,28.2401,176.287,1.27441,88.7476,544
1569940594,360.648,-146.335,28.2401,176.287,1.27441,88.7476,544
1569940594,360.648,-146.335,28.2401,176.287,1.27441,88.7476,544
1569940594,360.648,-146.335,28.2401,176.287,1.27441,88.7476,544
1569940594,360.648,-146.335,28.2401,176.287,1.27441,88.7476,544
1569940594,360.648,-146.335,28.2401,176.287,1.27441,88.7476,544
1569940594,360.648,-146.335,28.2401,176.287,1.27441,88.7476,544
1569940594,360.648,-146.335,28.2401,176.287,1.27441,88.7476,544
1569940594,360.648,-146.335,28.2401,176.287,1.27441,88.7476,544
1569940594,360.648,-146.335,28.2401,176.287,1.27441,88.7476,544
1569940594,360.648,-146.335,28.2401,176.287,1.27441,88.7476,544
1569940594,360.648,-146.335,28.2401,176.287,1.27441,88.7476,544
1569940594,360.648,-146.335,28.2401,176.287,1.27441,88.7476,544
1569940594,360.648,-146.335,28.2401,176.287,1.27441,88.7476,544
1569940594,360.648,-146.335,28.2401,176.287,1.27441,88.7476,544
1569940594,360.648,-146.335,28.2401,176.287,1.27441,88.7476,544
1569940594,360.648,-146.335,28.2401,176.287,1.27441,88.7476,544
1569940594,360.648,-146.335,28.2401,176.287,1.27441,88.7476,544
1569940594,360.648,-146.335,28.2401,176.287,1.27441,88.7476,544
1569940594,360.648,-146.335,28.2401,176.287,1.27441,88.7476,544
1569940594,360.648,-146.335,28.2401,176.287,1.27441,88.7476,544
1569940594,360.648,-146.335,28.2401,176.287,1.27441,88.7476,544
1569940594,360.648,-146.335,28.2401,176.287,1.27441,88.7476,544
1569940594,360.648,-146.335,28.2401,176.287,1.27441,88.7476,544
1569940594,360.648,-146.335,28.2401,176.287,1.27441,88.7476,544
1569940594,360.648,-146.335,28.2401,176.287,1.27441,88.7476,544
1569940594,360.648,-146.335,28.2401,176.287,1.27441,88.7476,544
1569940594,360.648,-146.335,28.2401,176.287,1.27441,88.7476,544
1569940594,360.648,-146.335,28.2401,176.287,1.27441,88.7476,544
1569940594,360.648,-146.335,28.2401,176.287,1.27441,88.7476,544
1569940594,360.648,-146.335,28.2401,176.287,1.27441,88.7476,544
1569940594,360.648,-146.335,28.2401,176.287,1.27441,88.7476,544
1569940594,360.648,-146.335,28.2401,176.287,1.27441,88.7476,544
1569940594,360.648,-146.335,28.2401,176.287,1.27441,88.7476,544
1569940594,360.648,-146.335,28.2401,176.287,1.27441,88.7476,544
1569940594,360.648,-146.335,28.2401,176.287,1.27441,88.7476,544
1569940594,360.648,-146.335,28.2401,176.287,1.27441,88.7476,544
1569940594,360.648,-146.335,28.2401,176.287,1.27441,88.7476,544
1569940594,360.648,-146.335,28.2401,176.287,1.27441,88.7476,544
1569940594,360.648,-146.335,28.2401,176.287,1.27441,88.7476,544
1569940594,360.648,-146.335,28.2401,176.287,1.27441,88.7476,544
1569940594,360.648,-146.335,28.2401,176.287,1.27441,88.7476,544
1569940594,360.648,-146.335,28.2401,176.287,1.27441,88.7476,544
1569940594,360.648,-146.335,28.2401,176.287,1.27441,88.7476,544
1569940594,360.648,-146.335,28.2401,176.287,1.27441,88.7476,544
1569940594,360.648,-146.335,28.2401,176.287,1.27441,88.7476,544
1569940594,360.648,-146.335,28.2401,176.287,1.27441,88.7476,544
1569940594,360.648,-146.335,28.2401,176.287,1.27441,88.7476,544
1569940594,360.648,-146.335,28.2401,176.287,1.27441,88.7476,544
1569940594,360.648,-146.335,28.2401,176.287,1.27441,88.7476,544
1569940594,360.648,-146.335,28.2401,176.287,1.27441,88.7476,544
1569940594,360.648,-146.335,28.2401,176.287,1.27441,88.7476,544
1569940594,360.648,-146.335,28.3518,176.287,1.27441,88.7476,544
1569940594,360.648,-146.335,28.3518,176.287,1.27441,88.7476,544
1569940594,360.648,-146.335,28.3518,176.287,1.27441,88.7476,544
1569940594,360.648,-146.335,28.3518,176.287,1.27441,88.7476,544
1569940594,360.648,-146.335,28.3518,176.287,1.27441,88.7476,544
1569940594,360.648,-146.335,28.3518,176.287,1.27441,88.7476,544
1569940594,360.648,-146.335,28.3518,176.287,1.27441,88.7476,544
1569940594,360.648,-146.335,28.3518,176.287,1.27441,88.7476,544
1569940594,360.648,-146.335,28.3518,176.287,1.27441,88.7476,544
1569940594,360.648,-146.335,28.3518,176.287,1.27441,88.7476,544
1569940594,360.648,-146.335,28.3518,176.287,1.27441,88.7476,544
1569940594,360.648,-146.335,28.3518,176.287,1.27441,88.7476,544
1569940594,360.648,-146.335,28.3518,176.287,1.27441,88.7476,544
1569940594,360.648,-146.335,28.3518,176.287,1.27441,88.7476,544
1569940594,360.648,-146.335,28.3518,176.287,1.27441,88.7476,544
1569940594,360.648,-146.335,28.3518,176.287,1.27441,88.7476,544
1569940594,360.648,-146.335,28.2401,176.287,1.27441,88.7476,544
1569940594,360.648,-146.335,28.2401,176.287,1.27441,88.7476,544
1569940594,360.648,-146.335,28.2401,176.287,1.27441,88.7476,544
1569940594,360.648,-146.335,28.2401,176.287,1.27441,88.7476,544
1569940594,360.648,-146.335,28.2401,176.287,1.27441,88.7476,544
1569940594,360.648,-146.335,28.2401,176.287,1.27441,88.7476,544
1569940595,360.648,-146.335,28.2401,176.287,1.27441,88.7476,544
1569940595,360.648,-146.335,28.2401,176.287,1.27441,88.7476,544
1569940595,360.648,-146.335,28.2401,176.287,1.27441,88.7476,544
1569940595,360.648,-146.335,28.2401,176.287,1.27441,88.7476,544
1569940595,360.648,-146.335,28.2401,176.287,1.27441,88.7476,544
1569940595,360.648,-146.335,28.2401,176.287,1.27441,88.7476,544
1569940595,360.648,-146.335,28.2401,176.287,1.27441,88.7476,544
1569940595,360.648,-146.335,28.2401,176.287,1.27441,88.7476,544
1569940595,360.648,-146.335,28.2401,176.287,1.27441,88.7476,544
1569940595,360.648,-146.335,28.2401,176.287,1.27441,88.7476,544
1569940595,360.648,-146.335,28.2401,176.287,1.27441,88.7476,544
1569940595,360.648,-146.335,28.2401,176.287,1.27441,88.7476,544
1569940595,360.648,-146.335,28.2401,176.287,1.27441,88.7476,544
1569940595,360.648,-146.335,28.2401,176.287,1.27441,88.7476,544
1569940595,360.648,-146.335,28.2401,176.287,1.27441,88.7476,544
1569940595,360.648,-146.335,28.2401,176.287,1.27441,88.7476,544
1569940595,360.648,-146.335,28.2401,176.287,1.27441,88.7476,544
1569940595,360.648,-146.335,28.2401,176.287,1.27441,88.7476,544
1569940595,360.648,-146.335,28.2401,176.287,1.27441,88.7476,544
1569940595,360.648,-146.335,28.2401,176.287,1.27441,88.7476,544
1569940595,360.648,-146.335,28.2401,176.287,1.27441,88.7476,544
1569940595,360.648,-146.335,28.2401,176.287,1.27441,88.7476,544
1569940595,360.648,-146.335,28.2401,176.287,1.27441,88.7476,544
1569940595,360.648,-146.335,28.2401,176.287,1.27441,88.7476,544
1569940595,360.648,-146.335,28.2401,176.287,1.27441,88.7476,544
1569940595,360.648,-146.335,28.2401,176.287,1.27441,88.7476,544
1569940595,360.648,-146.335,28.2401,176.287,1.27441,88.7476,544
1569940595,360.648,-146.335,28.3518,176.287,1.27441,88.7476,544
1569940595,360.648,-146.335,28.3518,176.287,1.27441,88.7476,544
1569940595,360.648,-146.335,28.3518,176.287,1.27441,88.7476,544
1569940595,360.648,-146.335,28.3518,176.287,1.27441,88.7476,544
1569940595,360.648,-146.335,28.3518,176.287,1.27441,88.7476,544
1569940595,360.648,-146.335,28.3518,176.287,1.27441,88.7476,544
1569940595,360.648,-146.335,28.3518,176.287,1.27441,88.7476,544
1569940595,360.648,-146.335,28.3518,176.287,1.27441,88.7476,544
1569940595,360.648,-146.335,28.3518,176.287,1.27441,88.7476,544
1569940595,360.648,-146.335,28.3518,176.287,1.27441,88.7476,544
1569940595,360.648,-146.335,28.3518,176.287,1.27441,88.7476,544
1569940595,360.648,-146.335,28.3518,176.287,1.27441,88.7476,544
1569940595,360.648,-146.335,28.3518,176.287,1.27441,88.7476,544
1569940595,360.648,-146.335,28.3518,176.287,1.27441,88.7476,544
1569940595,360.648,-146.335,28.3518,176.287,1.27441,88.7476,544
1569940595,360.648,-146.335,28.3518,176.287,1.27441,88.7476,544
1569940595,360.648,-146.335,28.2401,176.287,1.27441,88.7476,544
1569940595,360.648,-146.335,28.2401,176.287,1.27441,88.7476,544
1569940595,360.648,-146.335,28.2401,176.287,1.27441,88.7476,544
1569940595,360.648,-146.335,28.2401,176.287,1.27441,88.7476,544
1569940595,360.648,-146.335,28.2401,176.287,1.27441,88.7476,544
1569940595,360.648,-146.335,28.2401,176.287,1.27441,88.7476,544
1569940595,360.648,-146.335,28.2401,176.287,1.27441,88.7476,544
1569940595,360.648,-146.335,28.2401,176.287,1.27441,88.7476,544
1569940595,360.648,-146.335,28.2401,176.287,1.27441,88.7476,544
1569940595,360.648,-146.335,28.2401,176.287,1.27441,88.7476,544
1569940595,360.648,-146.335,28.2401,176.287,1.27441,88.7476,544
1569940595,360.648,-146.335,28.2401,176.287,1.27441,88.7476,544
1569940595,360.648,-146.335,28.2401,176.287,1.27441,88.7476,544
1569940595,360.648,-146.335,28.2401,176.287,1.27441,88.7476,544
1569940595,360.648,-146.335,28.2401,176.287,1.27441,88.7476,544
1569940595,360.648,-146.335,28.2401,176.287,1.27441,88.7476,544
1569940595,360.648,-146.335,28.2401,176.287,1.27441,88.7476,544
1569940595,360.648,-146.335,28.2401,176.287,1.27441,88.7476,544
1569940595,360.648,-146.335,28.2401,176.287,1.27441,88.7476,544
1569940595,360.648,-146.335,28.2401,176.287,1.27441,88.7476,544
1569940595,360.648,-146.335,28.2401,176.287,1.27441,88.7476,544
1569940595,360.648,-146.335,28.2401,176.287,1.27441,88.7476,544
1569940595,360.648,-146.335,28.2401,176.287,1.27441,88.7476,544
1569940595,360.648,-146.335,28.2401,176.287,1.27441,88.7476,544
1569940595,360.648,-146.335,28.2401,176.287,1.27441,88.7476,544
1569940595,360.648,-146.335,28.2401,176.287,1.27441,88.7476,544
1569940595,360.648,-146.335,28.2401,176.287,1.27441,88.7476,544
1569940595,360.648,-146.335,28.2401,176.287,1.27441,88.7476,544
1569940595,360.648,-146.335,28.2401,176.287,1.27441,88.7476,544
1569940595,360.648,-146.335,28.2401,176.287,1.27441,88.7476,544
1569940595,360.648,-146.335,28.2401,176.287,1.27441,88.7476,544
1569940595,360.648,-146.335,28.2401,176.287,1.27441,88.7476,544
1569940595,360.648,-146.335,28.2401,176.287,1.27441,88.7476,544
1569940595,360.648,-146.335,28.2401,176.287,1.27441,88.7476,544
1569940595,360.648,-146.335,28.2401,176.287,1.27441,88.7476,544
1569940595,360.648,-146.335,28.2401,176.287,1.27441,88.7476,544
1569940595,360.648,-146.335,28.2401,176.287,1.27441,88.7476,544
1569940595,360.648,-146.335,28.2401,176.287,1.27441,88.7476,544
1569940595,360.648,-146.335,28.2401,176.287,1.27441,88.7476,544
1569940595,360.648,-146.335,28.2401,176.287,1.27441,88.7476,544
1569940595,360.648,-146.335,28.2401,176.287,1.27441,88.7476,544
1569940595,360.648,-146.335,28.2401,176.287,1.27441,88.7476,544
1569940595,360.648,-146.335,28.2401,176.287,1.27441,88.7476,544
1569940595,360.648,-146.335,28.2401,176.287,1.27441,88.7476,544
1569940595,360.648,-146.335,28.2401,176.287,1.27441,88.7476,544
1569940595,360.648,-146.335,28.2401,176.287,1.27441,88.7476,544
1569940595,360.648,-146.335,28.2401,176.287,1.27441,88.7476,544
1569940595,360.648,-146.335,28.2401,176.287,1.27441,88.7476,544
1569940595,360.648,-146.335,28.2401,176.287,1.27441,88.7476,544
1569940595,360.648,-146.335,28.2401,176.287,1.27441,88.7476,544
1569940595,360.648,-146.335,28.2401,176.287,1.27441,88.7476,544
1569940595,360.648,-146.335,28.2401,176.287,1.27441,88.7476,544
1569940595,360.648,-146.335,28.2401,176.287,1.27441,88.7476,544
1569940595,360.648,-146.335,28.2401,176.287,1.27441,88.7476,544
1569940595,360.648,-146.335,28.2401,176.287,1.27441,88.7476,544
1569940595,360.648,-146.335,28.2401,176.287,1.27441,88.7476,544
1569940595,360.648,-146.335,28.2401,176.287,1.27441,88.7476,544
1569940596,360.648,-146.335,28.2401,176.287,1.27441,88.7476,544
1569940596,360.648,-146.335,28.2401,176.287,1.27441,88.7476,544
1569940596,360.648,-146.335,28.2401,176.287,1.27441,88.7476,544
1569940596,360.648,-146.335,28.2401,176.287,1.27441,88.7476,544
1569940596,360.648,-146.335,28.2401,176.287,1.27441,88.7476,544
1569940596,360.648,-146.335,28.2401,176.287,1.27441,88.7476,544
1569940596,360.648,-146.335,28.2401,176.287,1.27441,88.7476,544
1569940596,360.648,-146.335,28.2401,176.287,1.27441,88.7476,544
1569940596,360.648,-146.335,28.2401,176.287,1.27441,88.7476,544
1569940596,360.648,-146.335,28.2401,176.287,1.27441,88.7476,544
1569940596,360.648,-146.335,28.2401,176.287,1.27441,88.7476,544
1569940596,360.648,-146.335,28.2401,176.287,1.27441,88.7476,544
1569940596,360.648,-146.335,28.2401,176.287,1.27441,88.7476,544
1569940596,360.648,-146.335,28.2401,176.287,1.27441,88.7476,544
1569940596,360.648,-146.335,28.2401,176.287,1.27441,88.7476,544
1569940596,360.648,-146.335,28.2401,176.287,1.27441,88.7476,544
1569940596,360.648,-146.335,28.2401,176.287,1.27441,88.7476,544
1569940596,360.648,-146.335,28.2401,176.287,1.27441,88.7476,544
1569940596,360.648,-146.335,28.2401,176.287,1.27441,88.7476,544
1569940596,360.648,-146.335,28.2401,176.287,1.27441,88.7476,544
1569940596,360.648,-146.335,28.2401,176.287,1.27441,88.7476,544
1569940596,360.648,-146.335,28.2401,176.287,1.27441,88.7476,544
1569940596,360.648,-146.335,28.2401,176.287,1.27441,88.7476,544
1569940596,360.648,-146.335,28.2401,176.287,1.27441,88.7476,544
1569940596,360.648,-146.335,28.2401,176.287,1.27441,88.7476,544
1569940596,360.648,-146.335,28.2401,176.287,1.27441,88.7476,544
1569940596,360.648,-146.335,28.2401,176.287,1.27441,88.7476,544
1569940596,360.648,-146.335,28.2401,176.287,1.27441,88.7476,544
1569940596,360.648,-146.335,28.2401,176.287,1.27441,88.7476,544
1569940596,360.648,-146.335,28.2401,176.287,1.27441,88.7476,544
1569940596,360.648,-146.335,28.2401,176.287,1.27441,88.7476,544
1569940596,360.648,-146.335,28.2401,176.287,1.27441,88.7476,544
1569940596,360.648,-146.335,28.2401,176.287,1.27441,88.7476,544
1569940596,360.648,-146.335,28.2401,176.287,1.27441,88.7476,544
1569940596,360.648,-146.335,28.2401,176.287,1.27441,88.7476,544
1569940596,360.648,-146.335,28.2401,176.287,1.27441,88.7476,544
1569940596,360.648,-146.335,28.2401,176.287,1.27441,88.7476,544
1569940596,360.648,-146.335,28.2401,176.287,1.27441,88.7476,544
1569940596,360.648,-146.335,28.2401,176.287,1.27441,88.7476,544
1569940596,360.648,-146.335,28.2401,176.287,1.27441,88.7476,544
1569940596,360.648,-146.335,28.2401,176.287,1.27441,88.7476,544
1569940596,360.648,-146.335,28.2401,176.287,1.27441,88.7476,544
1569940596,360.648,-146.335,28.2401,176.287,1.27441,88.7476,544
1569940596,360.648,-146.335,28.2401,176.287,1.27441,88.7476,544
1569940596,360.648,-146.335,28.2401,176.287,1.27441,88.7476,544
1569940596,360.648,-146.335,28.2401,176.287,1.27441,88.7476,544
1569940596,360.648,-146.335,28.2401,176.287,1.27441,88.7476,544
1569940596,360.648,-146.335,28.2401,176.287,1.27441,88.7476,544
1569940596,360.648,-146.335,28.2401,176.287,1.27441,88.7476,544
1569940596,360.648,-146.335,28.2401,176.287,1.27441,88.7476,544
1569940596,360.648,-146.335,28.2401,176.287,1.27441,88.7476,544
1569940596,360.648,-146.335,28.2401,176.287,1.27441,88.7476,544
1569940596,360.648,-146.335,28.2401,176.287,1.27441,88.7476,544
1569940596,360.648,-146.335,28.2401,176.287,1.27441,88.7476,544
1569940596,360.648,-146.335,28.2401,176.287,1.27441,88.7476,544
1569940596,360.648,-146.335,28.2401,176.287,1.27441,88.7476,544
1569940596,360.648,-146.335,28.2401,176.287,1.27441,88.7476,544
1569940596,360.648,-146.335,28.2401,176.287,1.27441,88.7476,544
1569940596,360.648,-146.335,28.2401,176.287,1.27441,88.7476,544
1569940596,360.648,-146.335,28.2401,176.287,1.27441,88.7476,544
1569940596,360.648,-146.335,28.2401,176.287,1.27441,88.7476,544
1569940596,360.648,-146.335,28.2401,176.287,1.27441,88.7476,544
1569940596,360.648,-146.335,28.2401,176.287,1.27441,88.7476,544
1569940596,360.648,-146.335,28.2401,176.287,1.27441,88.7476,544
1569940596,360.648,-146.335,28.2401,176.287,1.27441,88.7476,544
1569940596,360.648,-146.335,28.2401,176.287,1.27441,88.7476,544
1569940596,360.648,-146.335,28.2401,176.287,1.27441,88.7476,544
1569940596,360.648,-146.335,28.2401,176.287,1.27441,88.7476,544
1569940596,360.648,-146.335,28.2401,176.287,1.27441,88.7476,544
1569940596,360.648,-146.335,28.2401,176.287,1.27441,88.7476,544
1569940596,360.648,-146.335,28.2401,176.287,1.27441,88.7476,544
1569940596,360.648,-146.335,28.2401,176.287,1.27441,88.7476,544
1569940596,360.648,-146.335,28.2401,176.287,1.27441,88.7476,544
1569940596,360.648,-146.335,28.2401,176.287,1.27441,88.7476,544
1569940596,360.648,-146.335,28.2401,176.287,1.27441,88.7476,544
1569940596,360.648,-146.335,28.2401,176.287,1.27441,88.7476,544
1569940596,360.648,-146.335,28.2401,176.287,1.27441,88.7476,544
1569940596,360.648,-146.335,28.2401,176.287,1.27441,88.7476,544
1569940596,360.648,-146.335,28.2401,176.287,1.27441,88.7476,544
1569940596,360.648,-146.335,28.2401,176.287,1.27441,88.7476,544
1569940596,360.648,-146.335,28.2401,176.287,1.27441,88.7476,544
1569940596,360.648,-146.335,28.2401,176.287,1.27441,88.7476,544
1569940596,360.648,-146.335,28.2401,176.287,1.27441,88.7476,544
1569940596,360.648,-146.335,28.2401,176.287,1.27441,88.7476,544
1569940596,360.648,-146.335,28.2401,176.287,1.27441,88.7476,544
1569940596,360.648,-146.335,28.2401,176.287,1.27441,88.7476,544
1569940596,360.648,-146.335,28.2401,176.287,1.27441,88.7476,544
1569940596,360.648,-146.335,28.2401,176.287,1.27441,88.7476,544
1569940596,360.648,-146.335,28.2401,176.287,1.27441,88.7476,544
1569940596,360.648,-146.335,28.2401,176.287,1.27441,88.7476,544
1569940596,360.648,-146.335,28.2401,176.287,1.27441,88.7476,544
1569940596,360.648,-146.335,28.2401,176.287,1.27441,88.7476,544
1569940596,360.648,-146.335,28.2401,176.287,1.27441,88.7476,544
1569940596,360.648,-146.335,28.2401,176.287,1.27441,88.7476,544
1569940596,360.648,-146.335,28.2401,176.287,1.27441,88.7476,544
1569940596,360.648,-146.335,28.2401,176.287,1.27441,88.7476,544
1569940596,360.648,-146.335,28.2401,176.287,1.27441,88.7476,544
1569940596,360.648,-146.335,28.2401,176.287,1.27441,88.7476,544
1569940596,360.648,-146.335,28.2401,176.287,1.27441,88.7476,544
1569940596,360.648,-146.335,28.2401,176.287,1.27441,88.7476,544
1569940597,360.648,-146.335,28.2401,176.287,1.27441,88.7476,544
1569940597,360.648,-146.335,28.2401,176.287,1.27441,88.7476,548
1569940597,360.648,-146.335,28.2401,176.287,1.27441,88.7476,548
1569940597,360.648,-146.335,28.2401,176.287,1.27441,88.7476,548
1569940597,360.648,-146.335,28.2401,176.287,1.27441,88.7476,548
1569940597,360.648,-146.335,28.2401,176.287,1.27441,88.7476,548
1569940597,360.648,-146.335,28.2401,176.287,1.27441,88.7476,548
1569940597,360.648,-146.335,28.2401,176.287,1.27441,88.7476,548
1569940597,360.648,-146.335,28.2401,176.287,1.27441,88.7476,548
1569940597,360.648,-146.335,28.2401,176.287,1.27441,88.7476,548
1569940597,360.648,-146.335,28.2401,176.287,1.27441,88.7476,548
1569940597,360.648,-146.335,28.2401,176.287,1.27441,88.7476,548
1569940597,360.648,-146.335,28.2401,176.287,1.27441,88.7476,548
1569940597,360.648,-146.335,28.2401,176.287,1.27441,88.7476,548
1569940597,360.648,-146.335,28.2401,176.287,1.27441,88.7476,544
1569940597,360.648,-146.335,28.2401,176.287,1.27441,88.7476,544
1569940597,360.648,-146.335,28.2401,176.287,1.27441,88.7476,544
1569940597,360.648,-146.335,28.2401,176.287,1.27441,88.7476,544
1569940597,360.648,-146.335,28.2401,176.287,1.27441,88.7476,544
1569940597,360.648,-146.335,28.2401,176.287,1.27441,88.7476,544
1569940597,360.648,-146.335,28.2401,176.287,1.27441,88.7476,544
1569940597,360.648,-146.335,28.2401,176.287,1.27441,88.7476,544
1569940597,360.648,-146.335,28.2401,176.287,1.27441,88.7476,544
1569940597,360.648,-146.335,28.2401,176.287,1.27441,88.7476,544
1569940597,360.648,-146.335,28.2401,176.287,1.27441,88.7476,544
1569940597,360.648,-146.335,28.2401,176.287,1.27441,88.7476,544
1569940597,360.648,-146.335,28.2401,176.287,1.27441,88.7476,544
1569940597,360.648,-146.335,28.2401,176.287,1.27441,88.7476,544
