time,x,y,z,ax,ay,az,q
1569937863,289.657,155.265,-16.6315,178.352,1.3623,-145.217,296
1569937863,289.657,155.265,-16.6315,178.352,1.3623,-145.217,296
1569937863,289.657,155.265,-16.6315,178.352,1.3623,-145.217,296
1569937863,289.657,155.265,-16.6315,178.352,1.3623,-145.217,296
1569937863,289.657,155.265,-16.6315,178.374,1.3623,-145.217,296
1569937863,289.657,155.265,-16.6315,178.374,1.3623,-145.217,296
1569937863,289.657,155.265,-16.6315,178.374,1.3623,-145.217,296
1569937863,289.657,155.265,-16.6315,178.374,1.3623,-145.217,296
1569937863,289.657,155.265,-16.6315,178.374,1.3623,-145.217,296
1569937863,289.657,155.265,-16.6315,178.374,1.3623,-145.217,296
1569937863,289.657,155.265,-16.6315,178.374,1.3623,-145.217,296
1569937863,289.657,155.265,-16.6315,178.374,1.3623,-145.217,296
1569937863,289.657,155.265,-16.6315,178.374,1.3623,-145.217,296
1569937863,289.545,155.265,-16.6315,178.374,1.3623,-145.217,296
1569937863,289.545,155.265,-16.6315,178.374,1.3623,-145.217,296
1569937863,289.545,155.265,-16.6315,178.374,1.3623,-145.217,296
1569937863,289.545,155.265,-16.6315,178.374,1.3623,-145.217,296
1569937863,289.545,155.265,-16.6315,178.374,1.3623,-145.217,296
1569937863,289.545,155.265,-16.6315,178.374,1.3623,-145.217,296
1569937863,289.545,155.265,-16.6315,178.374,1.3623,-145.217,300
1569937863,289.545,155.265,-16.6315,178.374,1.3623,-145.217,300
1569937863,289.545,155.265,-16.6315,178.374,1.3623,-145.217,300
1569937863,289.545,155.265,-16.6315,178.352,1.3623,-145.217,300
1569937863,289.657,155.265,-16.6315,178.352,1.3623,-145.217,300
1569937863,289.657,155.265,-16.6315,178.352,1.3623,-145.217,300
1569937863,289.657,155.265,-16.6315,178.352,1.3623,-145.217,300
1569937863,289.657,155.265,-16.6315,178.352,1.3623,-145.217,300
1569937863,289.657,155.265,-16.6315,178.352,1.3623,-145.217,300
1569937863,289.657,155.265,-16.6315,178.352,1.3623,-145.217,300
1569937863,289.657,155.265,-16.6315,178.352,1.3623,-145.217,300
1569937863,289.657,155.265,-16.6315,178.352,1.3623,-145.217,304
1569937863,289.657,155.265,-16.6315,178.352,1.3623,-145.217,304
1569937863,289.657,155.265,-16.6315,178.352,1.3623,-145.217,304
1569937863,289.657,155.265,-16.6315,178.352,1.3623,-145.217,304
1569937863,289.657,155.265,-16.6315,178.352,1.3623,-145.217,304
1569937863,289.657,155.265,-16.6315,178.352,1.3623,-145.217,304
1569937863,289.657,155.265,-16.6315,178.352,1.3623,-145.217,304
1569937863,289.657,155.265,-16.6315,178.352,1.3623,-145.217,304
1569937863,289.657,155.265,-16.6315,178.352,1.3623,-145.217,304
1569937863,289.657,155.265,-16.6315,178.352,1.3623,-145.217,304
1569937863,289.657,155.265,-16.6315,178.352,1.3623,-145.217,304
1569937863,289.657,155.265,-16.6315,178.352,1.3623,-145.217,304
1569937863,289.657,155.265,-16.6315,178.352,1.3623,-145.217,304
1569937864,289.657,155.265,-16.6315,178.352,1.3623,-145.217,304
1569937864,289.657,155.265,-16.6315,178.352,1.3623,-145.217,304
1569937864,289.657,155.265,-16.6315,178.352,1.3623,-145.217,300
1569937864,289.657,155.265,-16.6315,178.352,1.3623,-145.217,300
1569937864,289.657,155.265,-16.6315,178.352,1.3623,-145.217,300
1569937864,289.657,155.265,-16.6315,178.352,1.3623,-145.217,300
1569937864,289.657,155.265,-16.6315,178.352,1.3623,-145.217,300
1569937864,289.657,155.265,-16.6315,178.352,1.3623,-145.217,300
1569937864,289.657,155.265,-16.6315,178.352,1.3623,-145.217,300
1569937864,289.657,155.265,-16.6315,178.352,1.3623,-145.217,300
1569937864,289.657,155.265,-16.6315,178.352,1.3623,-145.217,300
1569937864,289.657,155.265,-16.6315,178.352,1.3623,-145.217,300
1569937864,289.657,155.265,-16.6315,178.352,1.3623,-145.217,300
1569937864,289.657,155.265,-16.6315,178.352,1.3623,-145.217,300
1569937864,289.657,155.265,-16.6315,178.352,1.3623,-145.217,300
1569937864,289.657,155.265,-16.6315,178.352,1.3623,-145.217,300
1569937864,289.657,155.265,-16.6315,178.352,1.3623,-145.217,300
1569937864,289.657,155.265,-16.6315,178.352,1.3623,-145.217,300
1569937864,289.657,155.265,-16.6315,178.352,1.3623,-145.217,300
1569937864,289.657,155.265,-16.6315,178.352,1.3623,-145.217,300
1569937864,289.657,155.265,-16.6315,178.352,1.34033,-145.217,300
1569937864,289.657,155.265,-16.6315,178.352,1.34033,-145.217,300
1569937864,289.657,155.265,-16.6315,178.352,1.34033,-145.217,300
1569937864,289.657,155.265,-16.6315,178.352,1.34033,-145.217,300
1569937864,289.657,155.265,-16.6315,178.352,1.34033,-145.217,300
1569937864,289.657,155.265,-16.6315,178.352,1.34033,-145.217,300
1569937864,289.657,155.265,-16.6315,178.352,1.34033,-145.217,300
1569937864,289.657,155.265,-16.6315,178.352,1.34033,-145.217,304
1569937864,289.657,155.265,-16.6315,178.352,1.34033,-145.217,304
1569937864,289.657,155.265,-16.6315,178.352,1.34033,-145.217,304
1569937864,289.657,155.265,-16.6315,178.352,1.34033,-145.217,304
1569937864,289.657,155.265,-16.6315,178.352,1.34033,-145.217,304
1569937864,289.657,155.265,-16.6315,178.352,1.34033,-145.217,304
1569937864,289.657,155.265,-16.6315,178.352,1.34033,-145.217,304
1569937864,289.657,155.265,-16.6315,178.352,1.34033,-145.217,304
1569937864,289.657,155.265,-16.6315,178.352,1.34033,-145.217,304
1569937864,289.657,155.265,-16.6315,178.352,1.34033,-145.217,304
1569937864,289.657,155.265,-16.6315,178.352,1.34033,-145.217,304
1569937864,289.657,155.265,-16.6315,178.352,1.34033,-145.217,304
1569937864,289.657,155.265,-16.6315,178.352,1.34033,-145.217,300
1569937864,289.657,155.265,-16.6315,178.352,1.34033,-145.217,300
1569937864,289.657,155.265,-16.6315,178.352,1.34033,-145.217,300
1569937864,289.657,155.265,-16.6315,178.352,1.3623,-145.217,300
1569937864,289.657,155.265,-16.6315,178.352,1.3623,-145.217,300
1569937864,289.657,155.265,-16.6315,178.352,1.3623,-145.217,300
1569937864,289.657,155.265,-16.6315,178.352,1.3623,-145.217,300
1569937864,289.657,155.265,-16.6315,178.352,1.3623,-145.217,300
1569937864,289.657,155.265,-16.6315,178.352,1.3623,-145.217,300
1569937864,289.657,155.265,-16.6315,178.352,1.3623,-145.217,300
1569937864,289.657,155.265,-16.6315,178.352,1.34033,-145.217,300
1569937864,289.657,155.265,-16.6315,178.352,1.34033,-145.217,300
1569937864,289.657,155.265,-16.6315,178.352,1.34033,-145.217,300
1569937864,289.657,155.265,-16.6315,178.352,1.34033,-145.195,300
1569937864,289.657,155.265,-16.6315,178.352,1.34033,-145.195,300
1569937864,289.657,155.265,-16.6315,178.352,1.34033,-145.195,300
1569937864,289.657,155.265,-16.6315,178.352,1.34033,-145.195,300
1569937864,289.657,155.265,-16.6315,178.352,1.34033,-145.195,300
1569937864,289.657,155.265,-16.7432,178.352,1.34033,-145.195,300
1569937864,289.657,155.265,-16.7432,178.352,1.34033,-145.195,300
1569937864,289.657,155.265,-16.7432,178.352,1.34033,-145.195,300
1569937864,289.657,155.265,-16.7432,178.352,1.34033,-145.195,300
1569937864,289.657,155.265,-16.7432,178.352,1.34033,-145.195,300
1569937864,289.657,155.265,-16.7432,178.352,1.34033,-145.195,300
1569937864,289.657,155.265,-16.7432,178.352,1.34033,-145.195,300
1569937864,289.657,155.265,-16.7432,178.352,1.34033,-145.195,300
1569937864,289.657,155.265,-16.7432,178.352,1.34033,-145.195,300
1569937864,289.657,155.265,-16.7432,178.352,1.34033,-145.195,300
1569937864,289.657,155.265,-16.7432,178.352,1.34033,-145.195,296
1569937864,289.657,155.265,-16.7432,178.352,1.34033,-145.195,296
1569937864,289.657,155.265,-16.7432,178.352,1.34033,-145.195,296
1569937864,289.657,155.265,-16.7432,178.352,1.34033,-145.195,296
1569937864,289.657,155.265,-16.7432,178.352,1.34033,-145.195,296
1569937864,289.657,155.265,-16.7432,178.352,1.34033,-145.195,296
1569937864,289.657,155.265,-16.7432,178.352,1.34033,-145.195,296
1569937864,289.657,155.265,-16.7432,178.352,1.34033,-145.195,296
1569937864,289.657,155.265,-16.7432,178.352,1.34033,-145.195,296
1569937864,289.657,155.265,-16.7432,178.352,1.34033,-145.195,292
1569937864,289.657,155.265,-16.7432,178.352,1.34033,-145.195,292
1569937864,289.657,155.265,-16.7432,178.352,1.31836,-145.195,292
1569937864,289.657,155.265,-16.7432,178.352,1.31836,-145.195,292
1569937864,289.657,155.265,-16.7432,178.352,1.31836,-145.195,292
1569937864,289.657,155.265,-16.7432,178.352,1.31836,-145.195,288
1569937864,289.657,155.265,-16.7432,178.352,1.31836,-145.195,288
1569937864,289.657,155.265,-16.7432,178.352,1.31836,-145.195,288
1569937864,289.657,155.265,-16.7432,178.352,1.31836,-145.195,288
1569937864,289.657,155.265,-16.7432,178.352,1.31836,-145.217,288
1569937864,289.657,155.265,-16.7432,178.352,1.31836,-145.217,284
1569937864,289.657,155.265,-16.7432,178.352,1.31836,-145.217,284
1569937864,289.657,155.265,-16.7432,178.352,1.31836,-145.217,284
1569937864,289.657,155.265,-16.7432,178.352,1.31836,-145.217,284
1569937864,289.657,155.265,-16.7432,178.352,1.31836,-145.217,284
1569937864,289.657,155.265,-16.7432,178.352,1.31836,-145.217,284
1569937864,289.657,155.265,-16.7432,178.374,1.34033,-145.217,284
1569937864,289.657,155.265,-16.6315,178.374,1.34033,-145.217,284
1569937864,289.657,155.265,-16.6315,178.374,1.34033,-145.217,284
1569937864,289.657,155.265,-16.6315,178.374,1.34033,-145.217,284
1569937864,289.657,155.265,-16.6315,178.352,1.34033,-145.217,284
1569937864,289.657,155.265,-16.6315,178.352,1.34033,-145.217,284
1569937864,289.657,155.265,-16.6315,178.352,1.34033,-145.217,284
1569937864,289.657,155.265,-16.6315,178.352,1.34033,-145.217,284
1569937865,289.657,155.265,-16.6315,178.352,1.34033,-145.217,284
1569937865,289.657,155.265,-16.6315,178.352,1.3623,-145.217,284
1569937865,289.657,155.265,-16.6315,178.352,1.3623,-145.217,280
1569937865,289.657,155.265,-16.6315,178.352,1.3623,-145.217,280
1569937865,289.657,155.265,-16.6315,178.352,1.3623,-145.217,280
1569937865,289.657,155.265,-16.6315,178.352,1.3623,-145.217,280
1569937865,289.657,155.265,-16.6315,178.352,1.3623,-145.217,280
1569937865,289.657,155.265,-16.6315,178.352,1.3623,-145.217,280
1569937865,289.657,155.265,-16.6315,178.352,1.3623,-145.217,280
1569937865,289.657,155.265,-16.6315,178.352,1.3623,-145.217,280
1569937865,289.657,155.265,-16.6315,178.352,1.3623,-145.217,280
1569937865,289.657,155.265,-16.6315,178.352,1.3623,-145.195,280
1569937865,289.657,155.265,-16.6315,178.352,1.3623,-145.195,284
1569937865,289.657,155.265,-16.6315,178.352,1.3623,-145.195,284
1569937865,289.657,155.265,-16.6315,178.352,1.3623,-145.195,284
1569937865,289.657,155.265,-16.6315,178.352,1.3623,-145.195,284
1569937865,289.657,155.265,-16.6315,178.352,1.3623,-145.195,284
1569937865,289.657,155.265,-16.6315,178.352,1.3623,-145.195,284
1569937865,289.657,155.265,-16.6315,178.352,1.3623,-145.195,284
1569937865,289.657,155.265,-16.6315,178.352,1.3623,-145.195,284
1569937865,289.657,155.265,-16.6315,178.352,1.3623,-145.195,284
1569937865,289.657,155.265,-16.6315,178.352,1.3623,-145.195,284
1569937865,289.657,155.265,-16.6315,178.352,1.3623,-145.195,284
1569937865,289.657,155.265,-16.6315,178.352,1.3623,-145.195,284
1569937865,289.657,155.265,-16.6315,178.352,1.3623,-145.195,288
1569937865,289.657,155.265,-16.6315,178.352,1.3623,-145.195,288
1569937865,289.657,155.265,-16.6315,178.352,1.3623,-145.195,288
1569937865,289.657,155.265,-16.6315,178.352,1.3623,-145.195,288
1569937865,289.657,155.265,-16.6315,178.352,1.3623,-145.195,288
1569937865,289.657,155.265,-16.6315,178.352,1.3623,-145.195,288
1569937865,289.657,155.265,-16.6315,178.352,1.3623,-145.195,288
1569937865,289.657,155.265,-16.6315,178.352,1.3623,-145.195,288
1569937865,289.657,155.265,-16.6315,178.352,1.3623,-145.195,288
1569937865,289.657,155.265,-16.6315,178.352,1.3623,-145.195,288
1569937865,289.657,155.265,-16.6315,178.352,1.3623,-145.195,288
1569937865,289.657,155.265,-16.6315,178.352,1.3623,-145.195,288
1569937865,289.657,155.265,-16.6315,178.352,1.3623,-145.195,288
1569937865,289.657,155.265,-16.6315,178.352,1.3623,-145.195,288
1569937865,289.657,155.265,-16.6315,178.352,1.3623,-145.195,288
1569937865,289.657,155.265,-16.6315,178.352,1.3623,-145.195,288
1569937865,289.657,155.265,-16.6315,178.352,1.3623,-145.195,288
1569937865,289.657,155.265,-16.6315,178.352,1.3623,-145.195,288
1569937865,289.657,155.265,-16.6315,178.352,1.3623,-145.217,288
1569937865,289.657,155.265,-16.6315,178.352,1.3623,-145.217,288
1569937865,289.657,155.265,-16.6315,178.352,1.3623,-145.217,288
1569937865,289.657,155.265,-16.6315,178.352,1.3623,-145.217,288
1569937865,289.657,155.265,-16.6315,178.352,1.3623,-145.217,288
1569937865,289.657,155.265,-16.6315,178.352,1.3623,-145.217,288
1569937865,289.657,155.265,-16.6315,178.352,1.3623,-145.217,288
1569937865,289.657,155.265,-16.6315,178.352,1.3623,-145.217,288
1569937865,289.657,155.265,-16.6315,178.352,1.3623,-145.217,288
1569937865,289.657,155.265,-16.6315,178.352,1.3623,-145.217,292
1569937865,289.657,155.265,-16.6315,178.352,1.3623,-145.217,292
1569937865,289.657,155.265,-16.6315,178.352,1.3623,-145.217,292
1569937865,289.657,155.265,-16.6315,178.374,1.3623,-145.217,292
1569937865,289.657,155.265,-16.6315,178.374,1.3623,-145.217,292
1569937865,289.657,155.265,-16.6315,178.374,1.3623,-145.217,292
1569937865,289.657,155.265,-16.6315,178.374,1.3623,-145.217,292
1569937865,289.657,155.265,-16.6315,178.374,1.3623,-145.217,292
1569937865,289.657,155.265,-16.6315,178.374,1.3623,-145.217,292
1569937865,289.657,155.377,-16.6315,178.374,1.3623,-145.217,292
1569937865,289.657,155.377,-16.6315,178.374,1.3623,-145.217,292
1569937865,289.657,155.377,-16.6315,178.374,1.3623,-145.217,292
1569937865,289.657,155.377,-16.6315,178.374,1.3623,-145.217,292
1569937865,289.657,155.377,-16.6315,178.374,1.3623,-145.217,288
1569937865,289.657,155.377,-16.6315,178.374,1.3623,-145.217,288
1569937865,289.657,155.377,-16.6315,178.374,1.3623,-145.217,288
1569937865,289.657,155.377,-16.6315,178.374,1.3623,-145.217,288
1569937865,289.657,155.377,-16.6315,178.374,1.3623,-145.217,288
1569937865,289.657,155.377,-16.6315,178.374,1.3623,-145.217,288
1569937865,289.657,155.377,-16.6315,178.374,1.3623,-145.217,284
1569937865,289.657,155.265,-16.6315,178.374,1.3623,-145.217,284
1569937865,289.657,155.265,-16.6315,178.374,1.3623,-145.217,284
1569937865,289.657,155.265,-16.6315,178.374,1.3623,-145.217,284
1569937865,289.657,155.265,-16.6315,178.374,1.3623,-145.217,284
1569937865,289.657,155.265,-16.6315,178.374,1.3623,-145.195,284
1569937865,289.657,155.265,-16.6315,178.374,1.3623,-145.195,284
1569937865,289.657,155.265,-16.6315,178.374,1.3623,-145.195,284
1569937865,289.657,155.265,-16.6315,178.374,1.3623,-145.195,284
1569937865,289.657,155.265,-16.6315,178.352,1.3623,-145.195,288
1569937865,289.657,155.265,-16.6315,178.352,1.3623,-145.195,288
1569937865,289.657,155.265,-16.6315,178.352,1.3623,-145.195,288
1569937865,289.657,155.265,-16.6315,178.352,1.3623,-145.195,288
1569937865,289.657,155.265,-16.6315,178.352,1.3623,-145.195,288
1569937865,289.657,155.265,-16.6315,178.352,1.3623,-145.195,288
1569937865,289.657,155.265,-16.6315,178.352,1.3623,-145.195,288
1569937865,289.657,155.265,-16.6315,178.352,1.3623,-145.195,288
1569937865,289.657,155.265,-16.6315,178.374,1.3623,-145.195,288
1569937865,289.657,155.265,-16.6315,178.374,1.3623,-145.195,288
1569937865,289.657,155.265,-16.6315,178.374,1.3623,-145.195,288
1569937865,289.657,155.265,-16.6315,178.374,1.3623,-145.195,288
1569937865,289.657,155.265,-16.6315,178.374,1.3623,-145.195,288
1569937865,289.657,155.265,-16.6315,178.374,1.3623,-145.195,288
1569937865,289.657,155.265,-16.6315,178.374,1.3623,-145.195,288
1569937865,289.657,155.265,-16.6315,178.374,1.3623,-145.195,288
1569937865,289.657,155.265,-16.6315,178.374,1.3623,-145.195,288
1569937865,289.657,155.265,-16.6315,178.374,1.3623,-145.195,288
1569937865,289.657,155.265,-16.6315,178.374,1.3623,-145.195,288
1569937865,289.657,155.265,-16.6315,178.374,1.3623,-145.217,288
1569937866,289.657,155.265,-16.6315,178.374,1.3623,-145.217,288
1569937866,289.657,155.265,-16.6315,178.374,1.3623,-145.217,292
1569937866,289.657,155.265,-16.6315,178.374,1.34033,-145.217,292
1569937866,289.657,155.265,-16.6315,178.374,1.34033,-145.217,292
1569937866,289.657,155.265,-16.6315,178.374,1.34033,-145.217,292
1569937866,289.657,155.377,-16.6315,178.374,1.34033,-145.217,292
1569937866,289.657,155.377,-16.6315,178.374,1.34033,-145.217,292
1569937866,289.657,155.377,-16.6315,178.374,1.34033,-145.217,292
1569937866,289.657,155.377,-16.6315,178.374,1.34033,-145.217,292
1569937866,289.657,155.377,-16.6315,178.374,1.34033,-145.217,292
1569937866,289.657,155.377,-16.6315,178.374,1.34033,-145.217,292
1569937866,289.657,155.377,-16.6315,178.374,1.3623,-145.217,292
1569937866,289.657,155.377,-16.6315,178.374,1.3623,-145.217,292
1569937866,289.657,155.377,-16.6315,178.374,1.3623,-145.217,292
1569937866,289.657,155.377,-16.6315,178.374,1.3623,-145.217,292
1569937866,289.657,155.377,-16.6315,178.374,1.3623,-145.217,292
1569937866,289.657,155.377,-16.6315,178.374,1.3623,-145.217,292
1569937866,289.657,155.265,-16.6315,178.374,1.3623,-145.217,292
1569937866,289.657,155.265,-16.6315,178.374,1.3623,-145.217,292
1569937866,289.657,155.265,-16.6315,178.374,1.3623,-145.217,292
1569937866,289.657,155.265,-16.6315,178.374,1.3623,-145.217,292
1569937866,289.657,155.265,-16.6315,178.374,1.3623,-145.217,292
1569937866,289.657,155.265,-16.6315,178.374,1.3623,-145.217,296
1569937866,289.657,155.265,-16.6315,178.374,1.3623,-145.217,296
1569937866,289.657,155.265,-16.6315,178.374,1.3623,-145.217,296
1569937866,289.657,155.265,-16.6315,178.374,1.34033,-145.217,296
1569937866,289.657,155.265,-16.6315,178.374,1.34033,-145.217,296
1569937866,289.657,155.265,-16.6315,178.374,1.34033,-145.217,296
1569937866,289.657,155.265,-16.6315,178.374,1.34033,-145.217,296
1569937866,289.657,155.265,-16.7432,178.374,1.34033,-145.217,296
1569937866,289.657,155.265,-16.7432,178.374,1.34033,-145.217,296
1569937866,289.657,155.265,-16.7432,178.374,1.34033,-145.217,296
1569937866,289.657,155.265,-16.7432,178.374,1.34033,-145.217,300
1569937866,289.657,155.265,-16.7432,178.374,1.34033,-145.217,300
1569937866,289.657,155.265,-16.7432,178.374,1.34033,-145.217,300
1569937866,289.657,155.265,-16.7432,178.352,1.34033,-145.195,300
1569937866,289.657,155.265,-16.7432,178.352,1.34033,-145.195,300
1569937866,289.657,155.265,-16.7432,178.352,1.34033,-145.195,300
1569937866,289.657,155.265,-16.7432,178.352,1.34033,-145.195,296
1569937866,289.657,155.265,-16.7432,178.374,1.34033,-145.195,296
1569937866,289.657,155.265,-16.7432,178.374,1.34033,-145.195,296
1569937866,289.657,155.265,-16.7432,178.374,1.34033,-145.195,296
1569937866,289.657,155.265,-16.7432,178.374,1.34033,-145.195,296
1569937866,289.657,155.265,-16.7432,178.374,1.3623,-145.195,296
1569937866,289.657,155.265,-16.7432,178.374,1.3623,-145.195,296
1569937866,289.657,155.265,-16.6315,178.374,1.3623,-145.195,296
1569937866,289.657,155.265,-16.6315,178.374,1.3623,-145.217,292
1569937866,289.657,155.265,-16.6315,178.352,1.3623,-145.217,292
1569937866,289.657,155.265,-16.6315,178.352,1.3623,-145.217,292
1569937866,289.657,155.265,-16.6315,178.352,1.3623,-145.217,292
1569937866,289.657,155.265,-16.6315,178.352,1.3623,-145.217,292
1569937866,289.657,155.265,-16.6315,178.352,1.3623,-145.217,292
1569937866,289.657,155.265,-16.6315,178.374,1.34033,-145.217,292
1569937866,289.657,155.265,-16.6315,178.352,1.34033,-145.217,292
1569937866,289.657,155.265,-16.6315,178.352,1.34033,-145.217,292
1569937866,289.657,155.265,-16.6315,178.374,1.34033,-145.217,292
1569937866,289.657,155.265,-16.6315,178.374,1.34033,-145.217,292
1569937866,289.657,155.265,-16.7432,178.374,1.34033,-145.217,288
1569937866,289.657,155.265,-16.7432,178.374,1.34033,-145.217,288
1569937866,289.657,155.265,-16.7432,178.374,1.34033,-145.217,288
1569937866,289.657,155.265,-16.7432,178.374,1.34033,-145.217,288
1569937866,289.657,155.265,-16.7432,178.374,1.34033,-145.217,288
1569937866,289.657,155.265,-16.7432,178.374,1.34033,-145.217,288
1569937866,289.657,155.265,-16.7432,178.374,1.34033,-145.217,288
1569937866,289.657,155.265,-16.7432,178.374,1.34033,-145.217,288
1569937866,289.657,155.265,-16.7432,178.374,1.34033,-145.217,288
1569937866,289.657,155.265,-16.7432,178.374,1.34033,-145.217,288
1569937866,289.657,155.265,-16.7432,178.374,1.34033,-145.217,288
1569937866,289.657,155.265,-16.7432,178.374,1.34033,-145.217,288
1569937866,289.657,155.265,-16.7432,178.374,1.34033,-145.217,288
1569937866,289.657,155.265,-16.7432,178.374,1.34033,-145.217,288
1569937866,289.657,155.265,-16.7432,178.352,1.34033,-145.217,288
1569937866,289.657,155.265,-16.7432,178.352,1.34033,-145.217,292
1569937866,289.657,155.265,-16.7432,178.352,1.34033,-145.217,292
1569937866,289.657,155.265,-16.7432,178.352,1.34033,-145.217,292
1569937866,289.657,155.265,-16.7432,178.352,1.34033,-145.217,292
1569937866,289.657,155.265,-16.7432,178.352,1.34033,-145.217,292
1569937866,289.657,155.265,-16.7432,178.352,1.34033,-145.217,292
1569937866,289.657,155.265,-16.7432,178.352,1.34033,-145.217,292
1569937866,289.657,155.265,-16.7432,178.352,1.34033,-145.217,292
1569937866,289.657,155.265,-16.7432,178.352,1.34033,-145.217,296
1569937866,289.657,155.265,-16.7432,178.352,1.34033,-145.217,296
1569937866,289.657,155.265,-16.7432,178.352,1.34033,-145.217,296
1569937866,289.657,155.265,-16.7432,178.374,1.34033,-145.217,296
1569937866,289.657,155.265,-16.6315,178.374,1.34033,-145.217,296
1569937866,289.657,155.265,-16.6315,178.374,1.34033,-145.217,296
1569937866,289.657,155.265,-16.6315,178.374,1.34033,-145.217,296
1569937866,289.657,155.265,-16.6315,178.374,1.34033,-145.217,296
1569937866,289.657,155.265,-16.6315,178.374,1.34033,-145.217,296
1569937866,289.657,155.265,-16.6315,178.374,1.34033,-145.217,296
1569937866,289.657,155.265,-16.6315,178.374,1.34033,-145.217,296
1569937866,289.657,155.265,-16.6315,178.374,1.3623,-145.217,296
1569937866,289.657,155.265,-16.6315,178.374,1.3623,-145.217,296
1569937866,289.657,155.265,-16.6315,178.374,1.3623,-145.217,296
1569937866,289.657,155.265,-16.6315,178.374,1.3623,-145.217,296
1569937866,289.657,155.265,-16.6315,178.352,1.3623,-145.217,296
1569937866,289.657,155.265,-16.6315,178.352,1.3623,-145.217,296
1569937866,289.657,155.265,-16.6315,178.352,1.3623,-145.217,296
1569937866,289.657,155.265,-16.6315,178.352,1.3623,-145.217,296
1569937866,289.657,155.265,-16.6315,178.352,1.3623,-145.217,296
1569937867,289.657,155.265,-16.6315,178.352,1.3623,-145.217,296
1569937867,289.657,155.265,-16.6315,178.352,1.34033,-145.217,296
1569937867,289.657,155.265,-16.6315,178.352,1.34033,-145.217,296
1569937867,289.657,155.265,-16.6315,178.352,1.34033,-145.217,296
1569937867,289.657,155.265,-16.6315,178.352,1.34033,-145.217,296
1569937867,289.657,155.265,-16.6315,178.352,1.34033,-145.217,296
1569937867,289.657,155.265,-16.6315,178.374,1.34033,-145.217,296
1569937867,289.657,155.265,-16.6315,178.374,1.34033,-145.217,296
1569937867,289.657,155.265,-16.6315,178.374,1.34033,-145.217,296
1569937867,289.657,155.265,-16.6315,178.374,1.34033,-145.217,296
1569937867,289.657,155.265,-16.7432,178.352,1.34033,-145.217,296
1569937867,289.657,155.265,-16.7432,178.352,1.34033,-145.217,296
1569937867,289.657,155.265,-16.7432,178.352,1.34033,-145.217,296
1569937867,289.657,155.265,-16.7432,178.352,1.34033,-145.217,296
1569937867,289.657,155.265,-16.7432,178.352,1.34033,-145.217,296
1569937867,289.657,155.265,-16.7432,178.352,1.34033,-145.217,296
1569937867,289.657,155.265,-16.7432,178.352,1.34033,-145.217,296
1569937867,289.657,155.265,-16.7432,178.352,1.34033,-145.217,296
1569937867,289.657,155.265,-16.7432,178.352,1.34033,-145.217,296
1569937867,289.657,155.265,-16.7432,178.352,1.34033,-145.217,296
1569937867,289.657,155.153,-16.7432,178.352,1.34033,-145.217,300
1569937867,289.657,155.153,-16.7432,178.352,1.34033,-145.217,300
1569937867,289.657,155.153,-16.7432,178.352,1.34033,-145.217,300
1569937867,289.657,155.153,-16.7432,178.352,1.34033,-145.217,300
1569937867,289.657,155.153,-16.7432,178.33,1.34033,-145.217,300
1569937867,289.657,155.153,-16.7432,178.33,1.34033,-145.217,300
1569937867,289.657,155.153,-16.6315,178.33,1.34033,-145.217,300
1569937867,289.657,155.153,-16.6315,178.33,1.34033,-145.217,300
1569937867,289.657,155.153,-16.6315,178.33,1.34033,-145.217,300
1569937867,289.657,155.153,-16.6315,178.33,1.34033,-145.217,300
1569937867,289.657,155.153,-16.6315,178.33,1.34033,-145.217,300
1569937867,289.657,155.153,-16.6315,178.33,1.34033,-145.217,300
1569937867,289.657,155.153,-16.6315,178.33,1.34033,-145.217,300
1569937867,289.657,155.153,-16.6315,178.33,1.34033,-145.217,300
1569937867,289.657,155.153,-16.6315,178.33,1.3623,-145.217,300
1569937867,289.657,155.153,-16.6315,178.33,1.3623,-145.217,300
1569937867,289.657,155.153,-16.6315,178.33,1.3623,-145.217,300
1569937867,289.657,155.153,-16.6315,178.33,1.3623,-145.217,300
1569937867,289.657,155.153,-16.6315,178.33,1.3623,-145.217,300
1569937867,289.657,155.153,-16.6315,178.33,1.3623,-145.217,300
1569937867,289.657,155.153,-16.6315,178.33,1.3623,-145.217,300
1569937867,289.657,155.153,-16.6315,178.33,1.34033,-145.217,300
1569937867,289.657,155.153,-16.6315,178.33,1.3623,-145.217,300
1569937867,289.657,155.153,-16.6315,178.33,1.3623,-145.217,300
1569937867,289.657,155.153,-16.6315,178.33,1.3623,-145.217,300
1569937867,289.657,155.153,-16.6315,178.352,1.3623,-145.217,296
1569937867,289.657,155.265,-16.6315,178.352,1.3623,-145.217,296
1569937867,289.657,155.265,-16.6315,178.352,1.3623,-145.217,296
1569937867,289.657,155.265,-16.6315,178.352,1.3623,-145.217,296
1569937867,289.657,155.265,-16.6315,178.352,1.3623,-145.217,296
1569937867,289.657,155.265,-16.6315,178.352,1.3623,-145.217,296
1569937867,289.657,155.265,-16.6315,178.352,1.3623,-145.217,296
1569937867,289.657,155.265,-16.6315,178.352,1.3623,-145.217,296
1569937867,289.657,155.265,-16.6315,178.352,1.3623,-145.217,296
1569937867,289.657,155.265,-16.6315,178.352,1.3623,-145.217,296
1569937867,289.657,155.265,-16.6315,178.352,1.3623,-145.217,296
1569937867,289.657,155.265,-16.6315,178.352,1.3623,-145.217,296
1569937867,289.657,155.265,-16.6315,178.374,1.3623,-145.217,296
1569937867,289.657,155.265,-16.6315,178.374,1.3623,-145.217,296
1569937867,289.657,155.265,-16.6315,178.374,1.3623,-145.217,296
1569937867,289.657,155.265,-16.6315,178.374,1.3623,-145.217,296
1569937867,289.657,155.265,-16.6315,178.374,1.3623,-145.217,296
1569937867,289.657,155.265,-16.6315,178.374,1.3623,-145.217,296
1569937867,289.657,155.265,-16.6315,178.374,1.3623,-145.217,296
1569937867,289.657,155.265,-16.6315,178.374,1.3623,-145.217,296
1569937867,289.657,155.265,-16.6315,178.374,1.3623,-145.217,296
1569937867,289.657,155.265,-16.6315,178.374,1.3623,-145.217,296
1569937867,289.657,155.265,-16.6315,178.374,1.3623,-145.217,296
1569937867,289.657,155.265,-16.6315,178.374,1.3623,-145.217,296
1569937867,289.657,155.265,-16.6315,178.374,1.3623,-145.217,296
1569937867,289.657,155.265,-16.6315,178.374,1.3623,-145.217,296
1569937867,289.657,155.265,-16.6315,178.374,1.3623,-145.217,296
1569937867,289.657,155.377,-16.6315,178.374,1.3623,-145.217,296
1569937867,289.657,155.377,-16.6315,178.374,1.3623,-145.217,296
1569937867,289.657,155.377,-16.6315,178.374,1.3623,-145.217,296
1569937867,289.657,155.377,-16.6315,178.374,1.3623,-145.217,296
1569937867,289.657,155.377,-16.6315,178.374,1.3623,-145.217,296
1569937867,289.657,155.265,-16.6315,178.374,1.3623,-145.217,296
1569937867,289.657,155.265,-16.6315,178.374,1.3623,-145.217,292
1569937867,289.657,155.265,-16.6315,178.374,1.3623,-145.217,292
1569937867,289.657,155.265,-16.6315,178.374,1.3623,-145.217,292
1569937867,289.657,155.265,-16.6315,178.374,1.3623,-145.217,292
1569937867,289.657,155.265,-16.6315,178.374,1.3623,-145.217,292
1569937867,289.657,155.265,-16.6315,178.374,1.3623,-145.217,292
1569937867,289.657,155.265,-16.6315,178.374,1.3623,-145.217,292
1569937867,289.657,155.265,-16.6315,178.374,1.3623,-145.217,292
1569937867,289.657,155.265,-16.6315,178.374,1.3623,-145.217,292
1569937867,289.657,155.377,-16.6315,178.374,1.3623,-145.217,288
1569937867,289.657,155.377,-16.6315,178.374,1.3623,-145.217,288
1569937867,289.657,155.377,-16.6315,178.374,1.3623,-145.217,288
1569937867,289.657,155.377,-16.6315,178.374,1.34033,-145.217,288
1569937867,289.657,155.265,-16.6315,178.374,1.34033,-145.217,288
1569937867,289.657,155.265,-16.6315,178.374,1.34033,-145.217,288
1569937867,289.657,155.265,-16.6315,178.374,1.34033,-145.217,288
1569937867,289.657,155.265,-16.6315,178.374,1.34033,-145.217,288
1569937867,289.657,155.265,-16.6315,178.374,1.34033,-145.217,288
1569937867,289.657,155.265,-16.6315,178.374,1.34033,-145.217,288
1569937867,289.657,155.265,-16.6315,178.374,1.34033,-145.217,288
1569937867,289.657,155.265,-16.6315,178.374,1.34033,-145.217,292
1569937867,289.657,155.265,-16.6315,178.374,1.34033,-145.217,292
1569937868,289.657,155.265,-16.6315,178.374,1.34033,-145.217,292
1569937868,289.657,155.265,-16.6315,178.374,1.34033,-145.217,292
1569937868,289.657,155.265,-16.6315,178.374,1.34033,-145.217,292
1569937868,289.657,155.265,-16.6315,178.374,1.34033,-145.217,292
1569937868,289.657,155.265,-16.6315,178.374,1.34033,-145.217,292
1569937868,289.657,155.265,-16.6315,178.374,1.34033,-145.217,292
1569937868,289.657,155.265,-16.6315,178.374,1.34033,-145.217,292
1569937868,289.657,155.265,-16.6315,178.374,1.34033,-145.217,292
1569937868,289.657,155.265,-16.6315,178.374,1.34033,-145.217,288
1569937868,289.657,155.265,-16.6315,178.374,1.34033,-145.217,288
1569937868,289.657,155.265,-16.6315,178.352,1.34033,-145.217,288
1569937868,289.657,155.265,-16.6315,178.352,1.34033,-145.217,288
1569937868,289.657,155.265,-16.6315,178.352,1.34033,-145.217,288
1569937868,289.657,155.265,-16.6315,178.352,1.34033,-145.217,288
1569937868,289.657,155.265,-16.6315,178.352,1.3623,-145.217,288
1569937868,289.657,155.265,-16.6315,178.352,1.3623,-145.217,288
1569937868,289.657,155.265,-16.6315,178.352,1.3623,-145.217,292
1569937868,289.657,155.265,-16.6315,178.352,1.3623,-145.217,292
1569937868,289.657,155.265,-16.6315,178.352,1.3623,-145.217,292
1569937868,289.657,155.265,-16.6315,178.352,1.3623,-145.217,292
1569937868,289.657,155.265,-16.6315,178.352,1.3623,-145.217,292
1569937868,289.657,155.265,-16.6315,178.352,1.3623,-145.217,292
1569937868,289.657,155.265,-16.6315,178.352,1.3623,-145.217,292
1569937868,289.657,155.265,-16.6315,178.352,1.3623,-145.217,292
1569937868,289.657,155.265,-16.6315,178.352,1.3623,-145.217,292
1569937868,289.657,155.265,-16.6315,178.352,1.3623,-145.217,296
1569937868,289.657,155.265,-16.6315,178.352,1.3623,-145.217,296
1569937868,289.657,155.265,-16.6315,178.352,1.3623,-145.217,296
1569937868,289.657,155.265,-16.6315,178.352,1.3623,-145.217,296
1569937868,289.657,155.265,-16.6315,178.352,1.3623,-145.217,296
1569937868,289.657,155.265,-16.6315,178.352,1.3623,-145.217,296
1569937868,289.657,155.265,-16.6315,178.352,1.34033,-145.217,296
1569937868,289.657,155.265,-16.6315,178.352,1.34033,-145.217,296
1569937868,289.657,155.265,-16.6315,178.352,1.34033,-145.217,296
1569937868,289.657,155.265,-16.6315,178.352,1.34033,-145.217,296
1569937868,289.657,155.265,-16.6315,178.352,1.34033,-145.217,296
1569937868,289.657,155.265,-16.6315,178.352,1.34033,-145.217,300
1569937868,289.657,155.265,-16.6315,178.352,1.34033,-145.217,300
1569937868,289.657,155.265,-16.6315,178.352,1.34033,-145.217,300
1569937868,289.657,155.265,-16.6315,178.352,1.34033,-145.217,300
1569937868,289.657,155.265,-16.6315,178.352,1.34033,-145.217,300
1569937868,289.657,155.265,-16.6315,178.352,1.34033,-145.217,300
1569937868,289.545,155.265,-16.6315,178.352,1.34033,-145.217,300
1569937868,289.545,155.265,-16.6315,178.352,1.34033,-145.217,304
1569937868,289.545,155.265,-16.6315,178.352,1.34033,-145.217,304
1569937868,289.657,155.265,-16.6315,178.352,1.34033,-145.217,304
1569937868,289.657,155.265,-16.6315,178.352,1.34033,-145.217,300
1569937868,289.657,155.265,-16.6315,178.352,1.34033,-145.217,300
1569937868,289.657,155.265,-16.6315,178.352,1.34033,-145.217,300
1569937868,289.657,155.265,-16.6315,178.352,1.34033,-145.217,300
1569937868,289.657,155.265,-16.6315,178.352,1.34033,-145.217,300
1569937868,289.657,155.265,-16.6315,178.352,1.34033,-145.217,300
1569937868,289.657,155.265,-16.6315,178.352,1.34033,-145.217,296
1569937868,289.657,155.265,-16.6315,178.352,1.34033,-145.217,296
1569937868,289.657,155.265,-16.6315,178.352,1.34033,-145.217,296
1569937868,289.657,155.265,-16.6315,178.352,1.34033,-145.217,296
1569937868,289.657,155.265,-16.6315,178.352,1.34033,-145.217,296
1569937868,289.657,155.265,-16.6315,178.352,1.34033,-145.217,292
1569937872,304.837,138.522,-16.6315,178.374,1.14258,-144.866,312
1569937872,304.837,138.522,-16.6315,178.374,1.14258,-144.866,312
1569937872,304.837,138.522,-16.6315,178.374,1.14258,-144.866,312
1569937872,304.837,138.522,-16.6315,178.374,1.14258,-144.866,312
1569937872,304.837,138.522,-16.6315,178.374,1.14258,-144.866,312
1569937872,304.837,138.522,-16.6315,178.374,1.14258,-144.866,316
1569937872,304.837,138.522,-16.6315,178.374,1.14258,-144.866,316
1569937872,304.837,138.522,-16.6315,178.374,1.14258,-144.866,316
1569937872,304.726,138.522,-16.6315,178.374,1.14258,-144.866,316
1569937872,304.726,138.522,-16.6315,178.374,1.14258,-144.866,316
1569937872,304.726,138.522,-16.6315,178.374,1.14258,-144.866,316
1569937872,304.726,138.522,-16.6315,178.374,1.14258,-144.866,316
1569937872,304.726,138.522,-16.6315,178.374,1.14258,-144.866,316
1569937872,304.726,138.522,-16.6315,178.374,1.14258,-144.866,316
1569937872,304.726,138.522,-16.6315,178.374,1.14258,-144.866,316
1569937872,304.726,138.522,-16.6315,178.374,1.14258,-144.866,316
1569937872,304.726,138.522,-16.6315,178.374,1.14258,-144.866,316
1569937872,304.837,138.522,-16.6315,178.396,1.14258,-144.866,316
1569937872,304.837,138.522,-16.6315,178.396,1.14258,-144.866,316
1569937872,304.837,138.522,-16.6315,178.396,1.14258,-144.866,316
1569937872,304.837,138.522,-16.6315,178.396,1.14258,-144.866,316
1569937872,304.837,138.522,-16.6315,178.396,1.14258,-144.866,316
1569937872,304.837,138.522,-16.6315,178.396,1.14258,-144.866,316
1569937872,304.837,138.633,-16.6315,178.396,1.14258,-144.866,316
1569937872,304.837,138.633,-16.6315,178.396,1.14258,-144.866,316
1569937872,304.837,138.633,-16.6315,178.396,1.14258,-144.866,316
1569937872,304.837,138.633,-16.6315,178.396,1.14258,-144.888,316
1569937872,304.837,138.633,-16.6315,178.396,1.14258,-144.888,316
1569937872,304.837,138.633,-16.6315,178.396,1.14258,-144.888,316
1569937872,304.837,138.633,-16.6315,178.396,1.14258,-144.888,316
1569937872,304.837,138.522,-16.6315,178.396,1.14258,-144.888,316
1569937872,304.837,138.522,-16.6315,178.374,1.14258,-144.888,316
1569937872,304.837,138.522,-16.6315,178.374,1.14258,-144.888,316
1569937872,304.837,138.522,-16.6315,178.374,1.14258,-144.888,316
1569937872,304.837,138.522,-16.6315,178.374,1.14258,-144.888,316
1569937872,304.837,138.522,-16.6315,178.374,1.14258,-144.888,316
1569937872,304.837,138.522,-16.7432,178.374,1.14258,-144.888,316
1569937872,304.837,138.522,-16.7432,178.374,1.14258,-144.888,316
1569937872,304.726,138.633,-16.7432,178.396,1.12061,-144.866,316
1569937872,304.726,138.633,-16.7432,178.396,1.12061,-144.866,316
1569937872,304.726,138.633,-16.7432,178.396,1.12061,-144.866,316
1569937872,304.837,138.633,-16.7432,178.396,1.12061,-144.866,316
1569937872,304.837,138.633,-16.7432,178.396,1.12061,-144.866,316
1569937872,304.837,138.633,-16.7432,178.396,1.12061,-144.866,316
1569937872,304.837,138.633,-16.7432,178.396,1.12061,-144.866,316
1569937872,304.837,138.633,-16.7432,178.396,1.12061,-144.866,316
1569937872,304.837,138.633,-16.7432,178.396,1.12061,-144.866,316
1569937872,304.837,138.633,-16.7432,178.396,1.12061,-144.866,316
1569937872,304.837,138.633,-16.7432,178.396,1.12061,-144.866,316
1569937872,304.837,138.633,-16.7432,178.396,1.12061,-144.866,316
1569937872,304.837,138.633,-16.7432,178.396,1.14258,-144.888,316
1569937872,304.837,138.633,-16.7432,178.396,1.14258,-144.888,316
1569937872,304.837,138.633,-16.7432,178.396,1.14258,-144.888,316
1569937872,304.837,138.633,-16.7432,178.396,1.14258,-144.888,316
1569937872,304.837,138.633,-16.7432,178.396,1.14258,-144.888,316
1569937872,304.837,138.633,-16.6315,178.374,1.14258,-144.888,316
1569937872,304.837,138.633,-16.6315,178.374,1.14258,-144.888,316
1569937872,304.837,138.633,-16.6315,178.374,1.14258,-144.888,316
1569937872,304.837,138.633,-16.6315,178.374,1.14258,-144.888,316
1569937872,304.837,138.633,-16.6315,178.374,1.14258,-144.888,316
1569937872,304.837,138.522,-16.6315,178.374,1.14258,-144.888,316
1569937872,304.837,138.522,-16.6315,178.374,1.14258,-144.888,320
1569937872,304.837,138.522,-16.6315,178.374,1.14258,-144.888,320
1569937872,304.837,138.522,-16.6315,178.374,1.14258,-144.888,320
1569937872,304.837,138.522,-16.6315,178.374,1.14258,-144.888,320
1569937872,304.837,138.522,-16.6315,178.374,1.14258,-144.888,320
1569937872,304.726,138.522,-16.6315,178.374,1.14258,-144.888,320
1569937872,304.837,138.522,-16.6315,178.374,1.14258,-144.888,320
1569937872,304.837,138.522,-16.6315,178.374,1.14258,-144.888,320
1569937872,304.837,138.522,-16.6315,178.374,1.14258,-144.888,316
1569937872,304.837,138.522,-16.6315,178.374,1.14258,-144.888,316
1569937872,304.837,138.522,-16.6315,178.374,1.14258,-144.888,316
1569937872,304.837,138.522,-16.6315,178.374,1.14258,-144.888,316
1569937872,304.837,138.522,-16.6315,178.374,1.14258,-144.888,316
1569937873,304.837,138.522,-16.6315,178.374,1.14258,-144.888,316
1569937873,304.837,138.522,-16.6315,178.374,1.14258,-144.888,316
1569937873,304.837,138.522,-16.6315,178.374,1.14258,-144.888,316
1569937873,304.837,138.522,-16.6315,178.374,1.14258,-144.888,320
1569937873,304.837,138.522,-16.6315,178.374,1.14258,-144.888,320
1569937873,304.837,138.522,-16.6315,178.374,1.14258,-144.888,320
1569937873,304.837,138.522,-16.6315,178.374,1.14258,-144.888,320
1569937873,304.837,138.522,-16.6315,178.374,1.14258,-144.888,320
1569937873,304.837,138.522,-16.6315,178.374,1.14258,-144.888,320
1569937873,304.837,138.522,-16.6315,178.374,1.14258,-144.888,320
1569937873,304.837,138.522,-16.6315,178.374,1.14258,-144.888,320
1569937873,304.837,138.522,-16.6315,178.374,1.14258,-144.888,320
1569937873,304.837,138.522,-16.6315,178.374,1.14258,-144.888,320
1569937873,304.837,138.522,-16.6315,178.374,1.14258,-144.888,320
1569937873,304.837,138.522,-16.6315,178.374,1.14258,-144.888,320
1569937873,304.837,138.522,-16.6315,178.374,1.14258,-144.888,316
1569937873,304.837,138.522,-16.6315,178.374,1.14258,-144.888,316
1569937873,304.837,138.522,-16.6315,178.374,1.14258,-144.888,316
1569937873,304.837,138.522,-16.6315,178.374,1.14258,-144.888,316
1569937873,304.837,138.522,-16.6315,178.374,1.14258,-144.888,312
1569937873,304.837,138.522,-16.6315,178.374,1.14258,-144.888,312
1569937873,304.837,138.522,-16.6315,178.374,1.14258,-144.888,312
1569937873,304.837,138.522,-16.6315,178.374,1.14258,-144.888,312
1569937873,304.837,138.522,-16.6315,178.374,1.14258,-144.888,312
1569937873,304.837,138.522,-16.6315,178.374,1.14258,-144.888,308
1569937873,304.837,138.522,-16.6315,178.374,1.14258,-144.888,308
1569937873,304.837,138.522,-16.6315,178.374,1.14258,-144.888,308
1569937873,304.837,138.522,-16.6315,178.374,1.14258,-144.888,308
1569937873,304.837,138.522,-16.6315,178.374,1.14258,-144.888,308
1569937873,304.837,138.522,-16.6315,178.374,1.14258,-144.888,308
1569937873,304.837,138.522,-16.6315,178.374,1.14258,-144.888,308
1569937873,304.837,138.522,-16.6315,178.374,1.14258,-144.888,308
1569937873,304.837,138.522,-16.6315,178.374,1.14258,-144.888,308
1569937873,304.837,138.633,-16.6315,178.374,1.14258,-144.888,308
1569937873,304.837,138.633,-16.6315,178.374,1.14258,-144.888,308
1569937873,304.837,138.633,-16.6315,178.374,1.14258,-144.888,308
1569937873,304.837,138.633,-16.6315,178.374,1.14258,-144.888,308
1569937873,304.837,138.633,-16.6315,178.374,1.16455,-144.888,308
1569937873,304.837,138.633,-16.6315,178.374,1.16455,-144.888,308
1569937873,304.837,138.522,-16.6315,178.374,1.16455,-144.888,308
1569937873,304.837,138.522,-16.6315,178.374,1.16455,-144.888,308
1569937873,304.837,138.522,-16.6315,178.374,1.16455,-144.888,308
1569937873,304.837,138.522,-16.6315,178.374,1.16455,-144.888,308
1569937873,304.837,138.522,-16.6315,178.374,1.16455,-144.888,308
1569937873,304.837,138.522,-16.6315,178.374,1.16455,-144.888,308
1569937873,304.837,138.522,-16.6315,178.374,1.16455,-144.888,308
1569937873,304.837,138.522,-16.6315,178.374,1.16455,-144.888,308
1569937873,304.837,138.522,-16.6315,178.374,1.16455,-144.888,308
1569937873,304.837,138.522,-16.6315,178.374,1.16455,-144.888,308
1569937873,304.837,138.522,-16.6315,178.374,1.18652,-144.888,308
1569937873,304.837,138.522,-16.5199,178.374,1.18652,-144.888,308
1569937873,304.837,138.522,-16.5199,178.374,1.18652,-144.888,308
1569937873,304.837,138.522,-16.5199,178.374,1.18652,-144.888,308
1569937873,304.837,138.522,-16.5199,178.374,1.18652,-144.888,308
1569937873,304.837,138.522,-16.5199,178.374,1.18652,-144.888,308
1569937873,304.837,138.522,-16.5199,178.374,1.18652,-144.888,308
1569937873,304.837,138.522,-16.5199,178.374,1.18652,-144.888,308
1569937873,304.837,138.522,-16.5199,178.374,1.18652,-144.888,308
1569937873,304.837,138.522,-16.5199,178.374,1.18652,-144.888,308
1569937873,304.837,138.522,-16.5199,178.374,1.18652,-144.888,308
1569937873,304.837,138.522,-16.5199,178.374,1.18652,-144.888,308
1569937873,304.837,138.522,-16.5199,178.374,1.18652,-144.888,308
1569937873,304.837,138.522,-16.5199,178.374,1.18652,-144.888,308
1569937873,304.837,138.522,-16.5199,178.374,1.18652,-144.888,308
1569937873,304.837,138.522,-16.5199,178.374,1.18652,-144.888,308
1569937873,304.837,138.522,-16.5199,178.374,1.18652,-144.888,308
1569937873,304.837,138.522,-16.6315,178.374,1.18652,-144.888,308
1569937873,304.837,138.522,-16.6315,178.374,1.18652,-144.888,308
1569937873,304.837,138.633,-16.6315,178.374,1.18652,-144.888,308
1569937873,304.837,138.633,-16.6315,178.374,1.18652,-144.888,308
1569937873,304.837,138.633,-16.6315,178.374,1.16455,-144.888,308
1569937873,304.837,138.633,-16.6315,178.374,1.16455,-144.888,308
1569937873,304.837,138.633,-16.6315,178.374,1.16455,-144.888,308
1569937873,304.837,138.633,-16.6315,178.374,1.16455,-144.888,308
1569937873,304.837,138.633,-16.6315,178.374,1.16455,-144.888,308
1569937873,304.837,138.633,-16.6315,178.374,1.16455,-144.888,308
1569937873,304.837,138.633,-16.6315,178.374,1.16455,-144.888,308
1569937873,304.837,138.633,-16.6315,178.374,1.16455,-144.888,308
1569937873,304.837,138.633,-16.6315,178.374,1.16455,-144.888,308
1569937873,304.837,138.633,-16.6315,178.374,1.16455,-144.888,304
1569937873,304.837,138.633,-16.6315,178.374,1.16455,-144.888,304
1569937873,304.837,138.633,-16.6315,178.374,1.16455,-144.888,304
1569937873,304.837,138.633,-16.6315,178.374,1.16455,-144.888,304
1569937873,304.837,138.633,-16.6315,178.374,1.16455,-144.888,304
1569937873,304.837,138.633,-16.6315,178.374,1.16455,-144.888,304
1569937873,304.837,138.633,-16.6315,178.374,1.16455,-144.888,304
1569937873,304.837,138.633,-16.6315,178.374,1.16455,-144.888,304
1569937873,304.837,138.633,-16.6315,178.374,1.16455,-144.888,304
1569937873,304.837,138.633,-16.6315,178.374,1.16455,-144.888,304
1569937873,304.837,138.633,-16.6315,178.374,1.16455,-144.888,304
1569937873,304.837,138.633,-16.6315,178.374,1.16455,-144.888,304
1569937873,304.837,138.633,-16.6315,178.374,1.16455,-144.888,304
1569937873,304.837,138.633,-16.6315,178.374,1.16455,-144.888,304
1569937873,304.837,138.633,-16.6315,178.396,1.16455,-144.888,304
1569937873,304.837,138.633,-16.6315,178.396,1.16455,-144.888,304
1569937873,304.837,138.633,-16.6315,178.396,1.16455,-144.888,304
1569937873,304.837,138.633,-16.6315,178.396,1.16455,-144.888,304
1569937873,304.837,138.633,-16.6315,178.396,1.16455,-144.888,304
1569937873,304.837,138.633,-16.6315,178.396,1.16455,-144.888,304
1569937873,304.837,138.633,-16.6315,178.396,1.16455,-144.888,304
1569937874,304.837,138.633,-16.6315,178.396,1.16455,-144.888,308
1569937874,304.837,138.633,-16.6315,178.396,1.16455,-144.888,308
1569937874,304.837,138.522,-16.6315,178.396,1.16455,-144.888,308
1569937874,304.837,138.522,-16.6315,178.374,1.16455,-144.888,308
1569937874,304.837,138.522,-16.6315,178.396,1.16455,-144.888,312
1569937874,304.837,138.522,-16.6315,178.396,1.16455,-144.888,312
1569937874,304.837,138.522,-16.6315,178.396,1.16455,-144.888,312
1569937874,304.837,138.522,-16.6315,178.396,1.16455,-144.888,312
1569937874,304.837,138.522,-16.6315,178.396,1.16455,-144.888,312
1569937874,304.837,138.522,-16.6315,178.396,1.16455,-144.888,312
1569937874,304.837,138.522,-16.6315,178.396,1.16455,-144.866,312
1569937874,304.837,138.522,-16.6315,178.374,1.16455,-144.866,312
1569937874,304.837,138.522,-16.6315,178.374,1.16455,-144.866,312
1569937874,304.837,138.522,-16.6315,178.374,1.16455,-144.866,312
1569937874,304.837,138.522,-16.6315,178.374,1.16455,-144.866,312
1569937874,304.837,138.522,-16.6315,178.374,1.16455,-144.866,312
1569937874,304.837,138.522,-16.6315,178.374,1.16455,-144.866,312
1569937874,304.837,138.522,-16.6315,178.374,1.14258,-144.866,312
1569937874,304.837,138.522,-16.6315,178.374,1.14258,-144.866,312
1569937874,304.837,138.522,-16.6315,178.374,1.14258,-144.866,312
1569937874,304.837,138.522,-16.6315,178.374,1.14258,-144.866,312
1569937874,304.837,138.522,-16.6315,178.374,1.14258,-144.866,312
1569937874,304.837,138.522,-16.6315,178.374,1.14258,-144.866,312
1569937874,304.837,138.522,-16.6315,178.374,1.14258,-144.866,312
1569937874,304.837,138.522,-16.6315,178.374,1.14258,-144.866,312
1569937874,304.837,138.522,-16.6315,178.374,1.14258,-144.866,312
1569937874,304.837,138.522,-16.6315,178.374,1.14258,-144.866,312
1569937874,304.837,138.522,-16.6315,178.374,1.14258,-144.866,312
1569937874,304.837,138.522,-16.6315,178.374,1.14258,-144.888,312
1569937874,304.837,138.522,-16.6315,178.374,1.14258,-144.888,312
1569937874,304.837,138.522,-16.6315,178.374,1.14258,-144.888,312
1569937874,304.837,138.633,-16.6315,178.374,1.14258,-144.888,312
1569937874,304.837,138.633,-16.6315,178.374,1.14258,-144.888,312
1569937874,304.837,138.633,-16.6315,178.374,1.14258,-144.888,312
1569937874,304.837,138.633,-16.6315,178.374,1.14258,-144.888,312
1569937874,304.837,138.633,-16.6315,178.374,1.14258,-144.888,312
1569937874,304.837,138.633,-16.6315,178.374,1.14258,-144.888,312
1569937874,304.837,138.633,-16.6315,178.374,1.14258,-144.888,308
1569937874,304.837,138.633,-16.6315,178.374,1.14258,-144.888,308
1569937874,304.837,138.633,-16.6315,178.374,1.14258,-144.888,308
1569937874,304.837,138.633,-16.6315,178.374,1.14258,-144.866,308
1569937874,304.837,138.633,-16.6315,178.374,1.14258,-144.866,308
1569937874,304.837,138.522,-16.7432,178.374,1.14258,-144.866,308
1569937874,304.837,138.522,-16.7432,178.374,1.14258,-144.866,308
1569937874,304.837,138.522,-16.7432,178.374,1.14258,-144.866,308
1569937874,304.837,138.522,-16.7432,178.374,1.14258,-144.866,308
1569937874,304.837,138.522,-16.7432,178.374,1.14258,-144.866,312
1569937874,304.837,138.522,-16.7432,178.352,1.14258,-144.866,312
1569937874,304.837,138.522,-16.7432,178.352,1.14258,-144.866,312
1569937874,304.837,138.522,-16.7432,178.352,1.14258,-144.866,312
1569937874,304.837,138.522,-16.7432,178.352,1.14258,-144.866,312
1569937874,304.837,138.522,-16.7432,178.352,1.14258,-144.866,312
1569937874,304.837,138.522,-16.7432,178.352,1.14258,-144.866,312
1569937874,304.837,138.522,-16.7432,178.374,1.14258,-144.866,312
1569937874,304.837,138.522,-16.6315,178.374,1.16455,-144.866,316
1569937874,304.837,138.522,-16.6315,178.374,1.16455,-144.866,316
1569937874,304.837,138.522,-16.6315,178.374,1.16455,-144.866,316
1569937874,304.837,138.522,-16.6315,178.374,1.16455,-144.866,316
1569937874,304.837,138.522,-16.6315,178.374,1.16455,-144.866,316
1569937874,304.837,138.522,-16.6315,178.374,1.16455,-144.866,316
1569937874,304.837,138.522,-16.6315,178.374,1.16455,-144.866,316
1569937874,304.837,138.522,-16.6315,178.374,1.16455,-144.866,316
1569937874,304.837,138.522,-16.6315,178.374,1.16455,-144.866,316
1569937874,304.837,138.522,-16.6315,178.374,1.16455,-144.866,316
1569937874,304.837,138.522,-16.6315,178.374,1.16455,-144.866,316
1569937874,304.837,138.522,-16.6315,178.374,1.16455,-144.866,316
1569937874,304.837,138.522,-16.6315,178.374,1.18652,-144.866,316
1569937874,304.837,138.522,-16.6315,178.374,1.18652,-144.866,316
1569937874,304.837,138.522,-16.6315,178.374,1.18652,-144.866,312
1569937874,304.837,138.522,-16.6315,178.352,1.18652,-144.866,312
1569937874,304.837,138.522,-16.6315,178.352,1.18652,-144.866,312
1569937874,304.837,138.522,-16.6315,178.352,1.18652,-144.866,312
1569937874,304.837,138.522,-16.6315,178.352,1.18652,-144.866,312
1569937874,304.837,138.522,-16.6315,178.352,1.18652,-144.866,312
1569937874,304.837,138.522,-16.6315,178.352,1.16455,-144.866,312
1569937874,304.837,138.522,-16.6315,178.352,1.16455,-144.866,312
1569937874,304.837,138.522,-16.6315,178.352,1.16455,-144.866,312
1569937874,304.837,138.522,-16.6315,178.352,1.16455,-144.866,312
1569937874,304.837,138.522,-16.6315,178.352,1.16455,-144.866,312
1569937874,304.837,138.522,-16.6315,178.352,1.16455,-144.866,312
1569937874,304.837,138.522,-16.6315,178.352,1.16455,-144.866,312
1569937874,304.837,138.522,-16.6315,178.352,1.16455,-144.866,312
1569937874,304.837,138.522,-16.6315,178.352,1.16455,-144.866,312
1569937874,304.837,138.522,-16.6315,178.352,1.14258,-144.866,312
1569937874,304.837,138.522,-16.6315,178.352,1.14258,-144.866,312
1569937874,304.837,138.522,-16.6315,178.352,1.14258,-144.866,316
1569937874,304.837,138.522,-16.6315,178.352,1.16455,-144.866,316
1569937874,304.837,138.522,-16.6315,178.352,1.16455,-144.866,316
1569937874,304.837,138.522,-16.6315,178.352,1.16455,-144.866,316
1569937874,304.837,138.522,-16.6315,178.352,1.16455,-144.866,316
1569937874,304.837,138.522,-16.6315,178.352,1.16455,-144.866,316
1569937874,304.837,138.522,-16.6315,178.352,1.16455,-144.866,316
1569937874,304.837,138.522,-16.6315,178.352,1.16455,-144.866,316
1569937874,304.837,138.522,-16.6315,178.352,1.16455,-144.866,312
1569937874,304.837,138.522,-16.6315,178.352,1.16455,-144.866,312
1569937874,304.837,138.522,-16.6315,178.352,1.16455,-144.866,312
1569937874,304.837,138.522,-16.6315,178.352,1.16455,-144.866,312
1569937874,304.837,138.522,-16.6315,178.352,1.16455,-144.866,312
1569937874,304.837,138.522,-16.6315,178.352,1.16455,-144.866,312
1569937874,304.837,138.522,-16.6315,178.352,1.16455,-144.866,312
1569937875,304.837,138.522,-16.6315,178.352,1.16455,-144.866,312
1569937875,304.837,138.522,-16.6315,178.352,1.16455,-144.844,312
1569937875,304.837,138.522,-16.6315,178.352,1.16455,-144.844,312
1569937875,304.837,138.522,-16.6315,178.352,1.16455,-144.844,312
1569937875,304.837,138.522,-16.6315,178.352,1.16455,-144.844,312
1569937875,304.837,138.522,-16.6315,178.352,1.16455,-144.844,312
1569937875,304.837,138.522,-16.6315,178.352,1.16455,-144.844,312
1569937875,304.837,138.522,-16.6315,178.352,1.16455,-144.844,312
1569937875,304.837,138.522,-16.6315,178.352,1.16455,-144.844,312
1569937875,304.837,138.522,-16.6315,178.352,1.16455,-144.844,312
1569937875,304.837,138.522,-16.6315,178.352,1.16455,-144.844,312
1569937875,304.837,138.522,-16.6315,178.352,1.16455,-144.844,312
1569937875,304.837,138.522,-16.6315,178.352,1.16455,-144.844,312
1569937875,304.837,138.522,-16.6315,178.352,1.16455,-144.866,312
1569937875,304.837,138.522,-16.6315,178.352,1.16455,-144.866,312
1569937875,304.837,138.522,-16.6315,178.352,1.16455,-144.866,312
1569937875,304.837,138.522,-16.6315,178.352,1.16455,-144.866,312
1569937875,304.837,138.522,-16.6315,178.352,1.16455,-144.866,312
1569937875,304.837,138.522,-16.6315,178.352,1.16455,-144.866,316
1569937875,304.837,138.522,-16.6315,178.352,1.16455,-144.866,316
1569937875,304.837,138.522,-16.6315,178.352,1.16455,-144.866,316
1569937875,304.837,138.522,-16.6315,178.352,1.16455,-144.866,316
1569937875,304.837,138.522,-16.6315,178.352,1.16455,-144.866,316
1569937875,304.837,138.522,-16.6315,178.352,1.16455,-144.866,316
1569937875,304.837,138.522,-16.6315,178.352,1.16455,-144.866,316
1569937875,304.837,138.522,-16.6315,178.352,1.16455,-144.866,316
1569937875,304.837,138.522,-16.6315,178.352,1.16455,-144.866,316
1569937875,304.837,138.522,-16.6315,178.352,1.16455,-144.866,316
1569937875,304.837,138.522,-16.6315,178.352,1.16455,-144.866,316
1569937875,304.837,138.522,-16.6315,178.352,1.16455,-144.866,316
1569937875,304.837,138.522,-16.6315,178.352,1.16455,-144.866,312
1569937875,304.837,138.522,-16.6315,178.352,1.16455,-144.866,312
1569937875,304.837,138.522,-16.6315,178.352,1.16455,-144.866,312
1569937875,304.837,138.522,-16.6315,178.352,1.16455,-144.866,312
1569937875,304.837,138.522,-16.6315,178.352,1.16455,-144.866,312
1569937875,304.837,138.522,-16.6315,178.352,1.16455,-144.866,312
1569937875,304.837,138.522,-16.6315,178.352,1.16455,-144.866,312
1569937875,304.837,138.522,-16.6315,178.352,1.16455,-144.866,312
1569937875,304.837,138.522,-16.6315,178.352,1.16455,-144.866,312
1569937875,304.837,138.522,-16.6315,178.352,1.16455,-144.866,312
1569937875,304.949,138.522,-16.6315,178.374,1.16455,-144.866,308
1569937875,304.949,138.522,-16.6315,178.374,1.16455,-144.866,308
1569937875,304.949,138.522,-16.6315,178.374,1.16455,-144.866,308
1569937875,304.949,138.522,-16.6315,178.374,1.16455,-144.866,308
1569937875,304.949,138.522,-16.6315,178.374,1.16455,-144.866,308
1569937875,304.949,138.633,-16.6315,178.374,1.16455,-144.866,304
1569937875,304.949,138.633,-16.6315,178.374,1.16455,-144.866,304
1569937875,304.949,138.633,-16.6315,178.374,1.16455,-144.866,304
1569937875,304.949,138.633,-16.6315,178.374,1.16455,-144.866,304
1569937875,304.949,138.633,-16.6315,178.374,1.16455,-144.866,304
1569937875,304.949,138.633,-16.6315,178.374,1.16455,-144.866,304
1569937875,304.949,138.633,-16.6315,178.374,1.16455,-144.866,304
1569937875,304.949,138.633,-16.6315,178.374,1.16455,-144.866,300
1569937875,304.949,138.633,-16.6315,178.374,1.16455,-144.866,300
1569937875,304.949,138.633,-16.6315,178.374,1.16455,-144.866,300
1569937875,304.949,138.633,-16.6315,178.374,1.16455,-144.866,300
1569937875,304.949,138.633,-16.6315,178.374,1.16455,-144.866,300
1569937875,304.949,138.633,-16.6315,178.374,1.16455,-144.866,300
1569937875,304.949,138.633,-16.6315,178.374,1.14258,-144.866,296
1569937875,304.949,138.633,-16.6315,178.374,1.14258,-144.866,296
1569937875,304.949,138.633,-16.7432,178.374,1.14258,-144.866,296
1569937875,304.949,138.633,-16.7432,178.374,1.14258,-144.866,296
1569937875,304.949,138.633,-16.7432,178.374,1.14258,-144.866,296
1569937875,304.949,138.633,-16.7432,178.374,1.14258,-144.866,296
1569937875,304.949,138.633,-16.7432,178.374,1.14258,-144.866,296
1569937875,304.949,138.633,-16.7432,178.374,1.12061,-144.866,296
1569937875,304.949,138.633,-16.7432,178.374,1.12061,-144.866,292
1569937875,304.949,138.633,-16.7432,178.374,1.12061,-144.866,292
1569937875,304.949,138.633,-16.7432,178.374,1.12061,-144.866,292
1569937875,304.949,138.633,-16.7432,178.374,1.12061,-144.866,292
1569937875,304.949,138.633,-16.7432,178.374,1.12061,-144.866,292
1569937875,304.949,138.633,-16.7432,178.374,1.12061,-144.866,292
1569937875,304.949,138.633,-16.7432,178.374,1.12061,-144.866,292
1569937875,304.949,138.633,-16.7432,178.374,1.12061,-144.866,296
1569937875,304.949,138.633,-16.7432,178.374,1.12061,-144.866,296
1569937875,304.949,138.633,-16.7432,178.374,1.12061,-144.866,296
1569937875,304.837,138.633,-16.7432,178.374,1.12061,-144.866,296
1569937875,304.837,138.633,-16.7432,178.374,1.12061,-144.866,300
1569937875,304.837,138.633,-16.7432,178.374,1.14258,-144.866,300
1569937875,304.837,138.633,-16.7432,178.374,1.14258,-144.866,300
1569937875,304.837,138.633,-16.7432,178.374,1.14258,-144.866,300
1569937875,304.837,138.633,-16.7432,178.374,1.14258,-144.866,300
1569937875,304.837,138.633,-16.7432,178.374,1.14258,-144.866,304
1569937875,304.837,138.633,-16.7432,178.374,1.14258,-144.866,304
1569937875,304.837,138.633,-16.7432,178.374,1.14258,-144.866,304
1569937875,304.837,138.633,-16.6315,178.374,1.14258,-144.866,304
1569937875,304.837,138.633,-16.6315,178.374,1.14258,-144.866,304
1569937875,304.837,138.633,-16.6315,178.374,1.14258,-144.866,304
1569937875,304.837,138.633,-16.6315,178.374,1.14258,-144.866,308
1569937875,304.837,138.633,-16.6315,178.374,1.14258,-144.866,308
1569937875,304.837,138.633,-16.6315,178.374,1.14258,-144.866,308
1569937875,304.837,138.633,-16.6315,178.374,1.14258,-144.866,308
1569937875,304.837,138.633,-16.6315,178.374,1.14258,-144.866,308
1569937875,304.837,138.633,-16.6315,178.374,1.14258,-144.866,308
1569937875,304.837,138.633,-16.6315,178.374,1.14258,-144.866,308
1569937875,304.837,138.633,-16.6315,178.374,1.14258,-144.866,308
1569937875,304.837,138.633,-16.6315,178.374,1.16455,-144.866,308
1569937875,304.837,138.633,-16.6315,178.374,1.16455,-144.866,308
1569937875,304.837,138.633,-16.6315,178.374,1.16455,-144.866,308
1569937875,304.837,138.633,-16.6315,178.374,1.16455,-144.866,308
1569937876,304.837,138.633,-16.6315,178.374,1.16455,-144.866,308
1569937876,304.837,138.633,-16.6315,178.374,1.14258,-144.866,312
1569937876,304.837,138.633,-16.6315,178.374,1.14258,-144.866,312
1569937876,304.837,138.633,-16.7432,178.374,1.14258,-144.866,312
1569937876,304.837,138.633,-16.7432,178.374,1.14258,-144.866,312
1569937876,304.837,138.633,-16.7432,178.374,1.14258,-144.866,312
1569937876,304.837,138.633,-16.7432,178.374,1.14258,-144.866,312
1569937876,304.837,138.633,-16.7432,178.374,1.14258,-144.866,312
1569937876,304.837,138.633,-16.7432,178.374,1.14258,-144.866,312
1569937876,304.837,138.633,-16.7432,178.374,1.14258,-144.866,312
1569937876,304.837,138.633,-16.7432,178.374,1.14258,-144.866,312
1569937876,304.837,138.633,-16.7432,178.374,1.14258,-144.866,312
1569937876,304.837,138.633,-16.6315,178.374,1.14258,-144.888,312
1569937876,304.837,138.633,-16.6315,178.374,1.14258,-144.888,312
1569937876,304.837,138.522,-16.6315,178.374,1.14258,-144.888,312
1569937876,304.837,138.522,-16.6315,178.374,1.14258,-144.888,312
1569937876,304.837,138.522,-16.6315,178.374,1.14258,-144.888,312
1569937876,304.837,138.522,-16.6315,178.374,1.14258,-144.888,312
1569937876,304.837,138.522,-16.6315,178.374,1.14258,-144.888,316
1569937876,304.837,138.522,-16.6315,178.352,1.14258,-144.888,316
1569937876,304.837,138.522,-16.7432,178.352,1.14258,-144.888,316
1569937876,304.837,138.522,-16.7432,178.352,1.14258,-144.888,316
1569937876,304.837,138.522,-16.7432,178.374,1.14258,-144.888,316
1569937876,304.837,138.522,-16.7432,178.374,1.14258,-144.888,316
1569937876,304.837,138.522,-16.7432,178.374,1.12061,-144.866,316
1569937876,304.837,138.522,-16.7432,178.374,1.12061,-144.866,316
1569937876,304.837,138.522,-16.7432,178.374,1.12061,-144.866,316
1569937876,304.837,138.522,-16.7432,178.374,1.12061,-144.866,316
1569937876,304.837,138.633,-16.7432,178.374,1.12061,-144.866,316
1569937876,304.837,138.633,-16.7432,178.374,1.12061,-144.866,316
1569937876,304.837,138.633,-16.7432,178.374,1.12061,-144.866,316
1569937876,304.837,138.633,-16.7432,178.374,1.12061,-144.866,316
1569937876,304.837,138.633,-16.7432,178.374,1.12061,-144.866,316
1569937876,304.837,138.633,-16.7432,178.374,1.12061,-144.866,316
1569937876,304.837,138.633,-16.7432,178.374,1.12061,-144.866,316
1569937876,304.837,138.633,-16.7432,178.396,1.12061,-144.866,316
1569937876,304.837,138.633,-16.7432,178.396,1.12061,-144.866,316
1569937876,304.837,138.633,-16.7432,178.396,1.12061,-144.866,316
1569937876,304.837,138.633,-16.7432,178.396,1.12061,-144.866,316
1569937876,304.837,138.633,-16.7432,178.396,1.12061,-144.866,316
1569937876,304.837,138.633,-16.7432,178.396,1.12061,-144.866,316
1569937876,304.837,138.633,-16.7432,178.396,1.12061,-144.866,316
1569937876,304.837,138.633,-16.7432,178.396,1.12061,-144.866,316
1569937876,304.837,138.633,-16.7432,178.396,1.12061,-144.866,316
1569937876,304.837,138.633,-16.7432,178.396,1.12061,-144.866,316
1569937876,304.837,138.633,-16.7432,178.396,1.12061,-144.866,316
1569937876,304.837,138.633,-16.7432,178.396,1.12061,-144.866,316
1569937876,304.837,138.633,-16.7432,178.396,1.12061,-144.866,316
1569937876,304.837,138.633,-16.7432,178.396,1.12061,-144.866,316
1569937876,304.837,138.633,-16.7432,178.396,1.12061,-144.866,316
1569937876,304.837,138.633,-16.7432,178.396,1.12061,-144.866,316
1569937876,304.837,138.633,-16.7432,178.396,1.12061,-144.866,312
1569937876,304.837,138.633,-16.7432,178.396,1.12061,-144.866,312
1569937876,304.837,138.633,-16.7432,178.396,1.12061,-144.866,312
1569937876,304.837,138.633,-16.7432,178.396,1.12061,-144.866,312
1569937876,304.837,138.633,-16.7432,178.374,1.12061,-144.866,312
1569937876,304.837,138.633,-16.7432,178.374,1.12061,-144.866,312
1569937876,304.837,138.633,-16.7432,178.374,1.12061,-144.866,312
1569937876,304.837,138.522,-16.7432,178.374,1.12061,-144.866,312
1569937876,304.837,138.522,-16.7432,178.374,1.14258,-144.866,312
1569937876,304.837,138.522,-16.7432,178.374,1.14258,-144.866,312
1569937876,304.837,138.522,-16.7432,178.374,1.14258,-144.866,312
1569937876,304.837,138.522,-16.7432,178.374,1.14258,-144.866,312
1569937876,304.837,138.522,-16.7432,178.374,1.14258,-144.866,312
1569937876,304.837,138.522,-16.7432,178.374,1.14258,-144.866,308
1569937876,304.837,138.522,-16.7432,178.374,1.14258,-144.866,308
1569937876,304.837,138.522,-16.7432,178.374,1.14258,-144.866,308
1569937876,304.837,138.522,-16.7432,178.374,1.14258,-144.866,308
1569937876,304.837,138.522,-16.7432,178.374,1.14258,-144.866,308
1569937876,304.837,138.522,-16.7432,178.374,1.14258,-144.866,308
1569937876,304.837,138.522,-16.7432,178.374,1.14258,-144.866,308
1569937876,304.837,138.633,-16.7432,178.374,1.14258,-144.866,308
1569937876,304.837,138.633,-16.7432,178.374,1.14258,-144.866,304
1569937876,304.837,138.633,-16.7432,178.374,1.14258,-144.866,304
1569937876,304.837,138.633,-16.7432,178.374,1.14258,-144.888,308
1569937876,304.837,138.633,-16.7432,178.396,1.14258,-144.888,308
1569937876,304.837,138.633,-16.7432,178.396,1.14258,-144.888,308
1569937876,304.837,138.633,-16.7432,178.396,1.14258,-144.888,308
1569937876,304.837,138.633,-16.7432,178.396,1.14258,-144.888,308
1569937876,304.837,138.633,-16.7432,178.396,1.14258,-144.888,308
1569937876,304.837,138.633,-16.7432,178.396,1.14258,-144.888,308
1569937876,304.837,138.633,-16.7432,178.396,1.14258,-144.888,308
1569937876,304.837,138.633,-16.7432,178.396,1.14258,-144.888,308
1569937876,304.837,138.633,-16.7432,178.396,1.14258,-144.866,308
1569937876,304.837,138.633,-16.7432,178.396,1.14258,-144.866,308
1569937876,304.837,138.633,-16.7432,178.396,1.14258,-144.866,308
1569937876,304.837,138.633,-16.7432,178.396,1.14258,-144.866,308
1569937876,304.837,138.522,-16.7432,178.396,1.14258,-144.866,308
1569937876,304.837,138.522,-16.7432,178.374,1.14258,-144.866,308
1569937876,304.837,138.522,-16.7432,178.374,1.14258,-144.866,308
1569937876,304.837,138.522,-16.7432,178.374,1.14258,-144.866,308
1569937876,304.837,138.522,-16.7432,178.374,1.14258,-144.866,308
1569937876,304.837,138.522,-16.7432,178.374,1.14258,-144.866,308
1569937876,304.837,138.522,-16.7432,178.374,1.14258,-144.866,308
1569937876,304.837,138.522,-16.7432,178.374,1.14258,-144.866,308
1569937876,304.837,138.522,-16.7432,178.374,1.14258,-144.866,308
1569937876,304.837,138.522,-16.6315,178.374,1.14258,-144.866,308
1569937876,304.837,138.522,-16.6315,178.374,1.14258,-144.866,308
1569937876,304.837,138.522,-16.6315,178.374,1.14258,-144.866,308
1569937876,304.837,138.522,-16.6315,178.374,1.14258,-144.866,308
1569937877,304.837,138.522,-16.6315,178.374,1.14258,-144.866,308
1569937877,304.837,138.522,-16.6315,178.374,1.14258,-144.866,308
1569937877,304.837,138.522,-16.6315,178.374,1.14258,-144.866,308
1569937877,304.837,138.522,-16.6315,178.374,1.14258,-144.866,308
1569937877,304.837,138.522,-16.6315,178.374,1.14258,-144.866,308
1569937877,304.837,138.522,-16.6315,178.374,1.14258,-144.866,312
1569937877,304.837,138.522,-16.6315,178.374,1.14258,-144.866,312
1569937877,304.837,138.522,-16.7432,178.374,1.14258,-144.866,312
1569937877,304.837,138.522,-16.7432,178.374,1.14258,-144.866,312
1569937877,304.837,138.522,-16.7432,178.374,1.14258,-144.866,312
1569937877,304.837,138.522,-16.7432,178.374,1.14258,-144.866,312
1569937877,304.837,138.522,-16.7432,178.374,1.12061,-144.866,312
1569937877,304.837,138.522,-16.7432,178.374,1.12061,-144.866,312
1569937877,304.837,138.522,-16.7432,178.374,1.12061,-144.866,312
1569937877,304.837,138.522,-16.7432,178.374,1.12061,-144.866,316
1569937877,304.837,138.522,-16.7432,178.374,1.12061,-144.866,316
1569937877,304.837,138.522,-16.7432,178.374,1.12061,-144.866,316
1569937877,304.837,138.522,-16.7432,178.374,1.14258,-144.866,316
1569937877,304.837,138.522,-16.7432,178.374,1.14258,-144.866,316
1569937877,304.837,138.522,-16.7432,178.374,1.14258,-144.866,316
1569937877,304.837,138.522,-16.7432,178.374,1.14258,-144.866,316
1569937877,304.837,138.522,-16.7432,178.374,1.14258,-144.866,316
1569937877,304.837,138.522,-16.7432,178.374,1.14258,-144.866,316
1569937877,304.837,138.522,-16.7432,178.374,1.14258,-144.866,316
1569937877,304.837,138.522,-16.7432,178.374,1.14258,-144.866,316
1569937877,304.837,138.522,-16.7432,178.374,1.14258,-144.866,316
1569937880,327.943,113.63,-15.9618,178.33,1.62598,-144.91,360
1569937880,327.943,113.63,-15.9618,178.33,1.62598,-144.91,360
1569937880,327.943,113.63,-15.9618,178.33,1.64795,-144.91,360
1569937880,327.943,113.63,-15.9618,178.33,1.64795,-144.91,360
1569937880,327.943,113.63,-15.9618,178.33,1.64795,-144.91,360
1569937880,327.943,113.63,-15.9618,178.33,1.64795,-144.91,360
1569937880,327.943,113.63,-15.9618,178.33,1.64795,-144.91,360
1569937880,327.943,113.63,-15.9618,178.33,1.64795,-144.888,360
1569937880,328.054,113.63,-15.9618,178.33,1.64795,-144.888,360
1569937880,328.054,113.63,-15.9618,178.33,1.64795,-144.888,360
1569937880,328.054,113.63,-15.9618,178.33,1.64795,-144.888,356
1569937880,327.943,113.63,-15.9618,178.33,1.64795,-144.888,356
1569937880,327.943,113.63,-15.9618,178.352,1.64795,-144.888,356
1569937880,327.943,113.63,-15.9618,178.352,1.64795,-144.888,356
1569937880,327.943,113.63,-15.9618,178.352,1.64795,-144.888,356
1569937880,327.943,113.63,-15.9618,178.352,1.64795,-144.888,356
1569937880,327.943,113.63,-15.9618,178.352,1.64795,-144.888,356
1569937880,327.943,113.63,-15.9618,178.352,1.64795,-144.888,360
1569937880,327.943,113.63,-15.9618,178.352,1.64795,-144.888,360
1569937880,327.943,113.63,-15.9618,178.352,1.64795,-144.888,360
1569937880,327.943,113.63,-15.9618,178.33,1.64795,-144.888,360
1569937880,327.943,113.63,-15.9618,178.33,1.64795,-144.888,360
1569937880,327.943,113.63,-15.9618,178.33,1.64795,-144.888,360
1569937880,327.943,113.63,-15.9618,178.33,1.62598,-144.888,364
1569937880,327.943,113.63,-15.9618,178.352,1.62598,-144.888,364
1569937880,327.943,113.63,-15.9618,178.352,1.62598,-144.888,364
1569937880,327.943,113.63,-15.9618,178.352,1.62598,-144.888,364
1569937880,327.943,113.63,-15.9618,178.352,1.62598,-144.888,364
1569937880,327.943,113.63,-15.9618,178.352,1.62598,-144.888,364
1569937880,327.943,113.63,-15.9618,178.352,1.62598,-144.91,364
1569937880,327.943,113.63,-15.9618,178.352,1.62598,-144.91,364
1569937880,327.943,113.63,-15.9618,178.352,1.62598,-144.91,364
1569937880,327.943,113.63,-15.9618,178.352,1.62598,-144.91,364
1569937880,327.943,113.63,-15.9618,178.352,1.62598,-144.91,364
1569937880,327.943,113.63,-15.9618,178.352,1.62598,-144.91,364
1569937880,327.943,113.63,-16.0734,178.352,1.62598,-144.91,364
1569937880,327.943,113.63,-16.0734,178.352,1.62598,-144.91,364
1569937880,327.943,113.63,-16.0734,178.352,1.62598,-144.91,368
1569937880,327.943,113.63,-16.0734,178.352,1.62598,-144.91,368
1569937880,327.943,113.63,-16.0734,178.352,1.62598,-144.91,368
1569937880,327.943,113.63,-16.0734,178.352,1.62598,-144.91,368
1569937880,327.943,113.63,-16.0734,178.352,1.62598,-144.91,368
1569937880,327.943,113.63,-16.0734,178.352,1.62598,-144.91,368
1569937880,327.943,113.63,-16.0734,178.352,1.62598,-144.91,368
1569937880,327.943,113.63,-15.9618,178.352,1.62598,-144.91,372
1569937880,327.943,113.63,-15.9618,178.352,1.62598,-144.91,372
1569937880,327.943,113.63,-15.9618,178.352,1.62598,-144.91,372
1569937880,327.943,113.63,-15.9618,178.352,1.62598,-144.91,372
1569937880,327.943,113.63,-15.9618,178.352,1.62598,-144.91,372
1569937880,327.943,113.63,-15.9618,178.352,1.62598,-144.91,372
1569937880,327.943,113.63,-15.9618,178.352,1.62598,-144.91,372
1569937880,327.943,113.63,-15.9618,178.33,1.62598,-144.91,372
1569937880,327.943,113.63,-15.9618,178.33,1.62598,-144.91,372
1569937880,327.943,113.63,-15.9618,178.33,1.62598,-144.91,372
1569937881,327.943,113.63,-16.0734,178.33,1.62598,-144.91,372
1569937881,327.943,113.63,-16.0734,178.33,1.62598,-144.91,372
1569937881,327.943,113.63,-16.0734,178.33,1.62598,-144.91,372
1569937881,327.943,113.63,-16.0734,178.33,1.62598,-144.91,372
1569937881,327.943,113.63,-16.0734,178.33,1.62598,-144.91,372
1569937881,327.943,113.519,-16.0734,178.33,1.62598,-144.91,372
1569937881,327.943,113.519,-16.0734,178.33,1.62598,-144.91,372
1569937881,327.943,113.519,-16.0734,178.33,1.62598,-144.91,376
1569937881,327.943,113.519,-16.0734,178.33,1.62598,-144.91,376
1569937881,327.943,113.519,-16.0734,178.33,1.62598,-144.91,376
1569937881,327.943,113.519,-16.0734,178.33,1.62598,-144.91,376
1569937881,327.943,113.519,-16.0734,178.33,1.62598,-144.91,376
1569937881,327.943,113.519,-15.9618,178.33,1.62598,-144.91,376
1569937881,327.943,113.519,-15.9618,178.33,1.62598,-144.91,376
1569937881,327.943,113.519,-15.9618,178.33,1.62598,-144.91,376
1569937881,327.943,113.519,-15.9618,178.33,1.62598,-144.91,376
1569937881,327.943,113.519,-15.9618,178.33,1.62598,-144.91,376
1569937881,327.943,113.519,-15.9618,178.33,1.62598,-144.91,376
1569937881,327.943,113.63,-15.9618,178.33,1.62598,-144.91,376
1569937881,327.943,113.63,-15.9618,178.33,1.62598,-144.91,376
1569937881,327.943,113.63,-15.9618,178.33,1.62598,-144.91,376
1569937881,327.943,113.63,-15.9618,178.33,1.62598,-144.91,376
1569937881,327.943,113.63,-15.9618,178.33,1.62598,-144.91,376
1569937881,327.943,113.63,-15.9618,178.352,1.62598,-144.91,376
1569937881,327.943,113.63,-15.9618,178.352,1.62598,-144.91,376
1569937881,327.943,113.63,-15.9618,178.352,1.62598,-144.91,372
1569937881,327.943,113.63,-15.9618,178.352,1.62598,-144.91,372
1569937881,327.943,113.63,-15.9618,178.352,1.62598,-144.91,372
1569937881,327.943,113.63,-15.9618,178.352,1.62598,-144.91,372
1569937881,327.943,113.63,-15.9618,178.352,1.62598,-144.91,372
1569937881,327.943,113.63,-15.9618,178.352,1.62598,-144.91,372
1569937881,327.943,113.63,-15.9618,178.352,1.62598,-144.91,372
1569937881,327.943,113.63,-15.9618,178.33,1.62598,-144.91,372
1569937881,327.943,113.63,-15.9618,178.33,1.62598,-144.91,372
1569937881,327.943,113.63,-15.9618,178.33,1.62598,-144.91,372
1569937881,327.943,113.63,-16.0734,178.33,1.62598,-144.91,368
1569937881,327.943,113.63,-16.0734,178.33,1.62598,-144.91,368
1569937881,327.943,113.63,-16.0734,178.33,1.62598,-144.91,368
1569937881,327.943,113.63,-16.0734,178.33,1.62598,-144.91,368
1569937881,327.943,113.63,-16.0734,178.33,1.62598,-144.91,368
1569937881,327.943,113.63,-16.0734,178.352,1.62598,-144.91,364
1569937881,327.943,113.63,-16.0734,178.352,1.62598,-144.91,364
1569937881,327.943,113.63,-16.0734,178.352,1.62598,-144.91,364
1569937881,327.943,113.63,-16.0734,178.352,1.62598,-144.91,360
1569937881,327.943,113.63,-16.0734,178.352,1.62598,-144.91,360
1569937881,327.943,113.63,-16.0734,178.352,1.62598,-144.91,360
1569937881,327.943,113.63,-16.0734,178.352,1.62598,-144.91,360
1569937881,327.943,113.63,-15.9618,178.352,1.62598,-144.91,360
1569937881,327.943,113.63,-15.9618,178.352,1.62598,-144.91,356
1569937881,327.943,113.63,-15.9618,178.352,1.62598,-144.91,356
1569937881,327.943,113.63,-15.9618,178.33,1.62598,-144.91,356
1569937881,327.943,113.63,-15.9618,178.33,1.62598,-144.91,356
1569937881,327.943,113.63,-15.9618,178.33,1.62598,-144.91,356
1569937881,327.943,113.63,-15.9618,178.33,1.62598,-144.91,356
1569937881,327.943,113.63,-15.9618,178.33,1.62598,-144.91,356
1569937881,327.943,113.63,-15.9618,178.33,1.62598,-144.91,356
1569937881,327.943,113.63,-15.9618,178.33,1.64795,-144.91,356
1569937881,327.943,113.63,-15.9618,178.33,1.64795,-144.91,356
1569937881,328.054,113.63,-15.9618,178.33,1.64795,-144.91,356
1569937881,328.054,113.63,-15.9618,178.33,1.64795,-144.91,356
1569937881,328.054,113.519,-15.9618,178.33,1.64795,-144.91,356
1569937881,328.054,113.519,-15.9618,178.308,1.64795,-144.91,352
1569937881,328.054,113.519,-15.9618,178.308,1.62598,-144.91,352
1569937881,328.054,113.519,-15.9618,178.308,1.62598,-144.91,352
1569937881,328.054,113.519,-15.9618,178.308,1.62598,-144.91,352
1569937881,327.943,113.519,-15.9618,178.308,1.62598,-144.91,352
1569937881,327.943,113.519,-16.0734,178.308,1.62598,-144.91,352
1569937881,327.943,113.519,-16.0734,178.308,1.62598,-144.91,352
1569937881,327.943,113.519,-16.0734,178.308,1.62598,-144.91,352
1569937881,327.943,113.519,-16.0734,178.308,1.604,-144.91,352
1569937881,327.943,113.519,-16.0734,178.308,1.604,-144.91,352
1569937881,327.943,113.519,-16.0734,178.308,1.604,-144.91,352
1569937881,327.943,113.519,-16.0734,178.308,1.604,-144.91,352
1569937881,327.943,113.519,-16.0734,178.308,1.604,-144.91,352
1569937881,327.943,113.519,-16.0734,178.308,1.604,-144.91,356
1569937881,327.943,113.519,-16.0734,178.308,1.604,-144.91,356
1569937881,327.943,113.519,-16.0734,178.308,1.604,-144.91,356
1569937881,327.943,113.519,-16.0734,178.308,1.604,-144.91,356
1569937881,327.943,113.519,-16.0734,178.308,1.604,-144.91,356
1569937881,327.943,113.519,-16.0734,178.308,1.604,-144.91,356
1569937881,327.943,113.519,-16.0734,178.308,1.62598,-144.91,356
1569937881,327.943,113.519,-16.0734,178.308,1.62598,-144.91,356
1569937881,327.943,113.519,-16.0734,178.308,1.62598,-144.91,356
1569937881,327.943,113.519,-16.0734,178.308,1.62598,-144.91,360
1569937881,327.943,113.519,-16.0734,178.308,1.62598,-144.91,360
1569937881,327.943,113.519,-16.0734,178.308,1.62598,-144.91,360
1569937881,327.943,113.519,-16.0734,178.308,1.62598,-144.91,360
1569937881,327.943,113.519,-16.0734,178.308,1.62598,-144.91,360
1569937881,327.943,113.519,-16.0734,178.308,1.62598,-144.91,364
1569937881,327.943,113.519,-16.0734,178.33,1.62598,-144.91,364
1569937881,327.943,113.519,-16.0734,178.33,1.62598,-144.91,364
1569937881,327.943,113.519,-16.0734,178.33,1.62598,-144.91,364
1569937881,327.943,113.519,-16.0734,178.33,1.62598,-144.91,364
1569937881,327.943,113.519,-16.0734,178.33,1.62598,-144.91,364
1569937881,327.943,113.519,-16.0734,178.308,1.62598,-144.91,364
1569937881,327.943,113.519,-16.0734,178.308,1.62598,-144.91,364
1569937881,327.943,113.519,-16.0734,178.308,1.62598,-144.91,368
1569937881,327.943,113.519,-16.0734,178.308,1.62598,-144.91,368
1569937881,327.943,113.519,-16.0734,178.308,1.62598,-144.91,368
1569937881,327.943,113.519,-16.0734,178.308,1.62598,-144.91,368
1569937882,327.943,113.519,-16.0734,178.308,1.62598,-144.91,368
1569937882,328.054,113.519,-16.0734,178.308,1.62598,-144.91,368
1569937882,328.054,113.519,-16.0734,178.308,1.62598,-144.91,364
1569937882,328.054,113.519,-16.0734,178.308,1.62598,-144.91,364
1569937882,328.054,113.519,-16.0734,178.308,1.62598,-144.91,364
1569937882,328.054,113.519,-16.0734,178.308,1.62598,-144.91,364
1569937882,328.054,113.519,-16.0734,178.308,1.62598,-144.91,364
1569937882,328.054,113.519,-16.0734,178.308,1.62598,-144.91,360
1569937882,328.054,113.519,-16.0734,178.308,1.62598,-144.91,360
1569937882,328.054,113.519,-16.0734,178.308,1.62598,-144.91,360
1569937882,328.054,113.519,-16.0734,178.308,1.62598,-144.91,360
1569937882,328.054,113.519,-16.0734,178.308,1.62598,-144.91,360
1569937882,328.054,113.519,-16.0734,178.308,1.62598,-144.91,356
1569937882,328.054,113.519,-16.0734,178.308,1.62598,-144.91,356
1569937882,328.054,113.519,-16.0734,178.308,1.62598,-144.91,356
1569937882,328.054,113.519,-16.0734,178.308,1.62598,-144.91,356
1569937882,328.054,113.519,-16.0734,178.308,1.62598,-144.91,356
1569937882,328.054,113.519,-16.0734,178.308,1.62598,-144.91,356
1569937882,328.054,113.519,-16.0734,178.308,1.62598,-144.91,352
1569937882,328.054,113.519,-16.0734,178.308,1.62598,-144.91,352
1569937882,328.054,113.519,-16.0734,178.308,1.62598,-144.91,352
1569937882,328.054,113.519,-16.0734,178.308,1.62598,-144.888,352
1569937882,328.054,113.519,-16.0734,178.308,1.62598,-144.888,352
1569937882,328.054,113.519,-16.0734,178.308,1.62598,-144.888,352
1569937882,328.054,113.519,-16.0734,178.308,1.62598,-144.888,348
1569937882,328.054,113.519,-16.0734,178.308,1.62598,-144.888,348
1569937882,328.054,113.519,-16.0734,178.308,1.62598,-144.888,348
1569937882,328.054,113.519,-16.0734,178.308,1.62598,-144.888,348
1569937882,328.054,113.519,-16.0734,178.308,1.62598,-144.888,348
1569937882,328.054,113.519,-16.0734,178.308,1.62598,-144.888,348
1569937882,328.054,113.519,-16.0734,178.308,1.62598,-144.888,348
1569937882,328.054,113.519,-16.0734,178.308,1.62598,-144.888,348
1569937882,328.054,113.519,-16.0734,178.308,1.62598,-144.888,348
1569937882,328.054,113.519,-16.0734,178.308,1.62598,-144.888,348
1569937882,328.054,113.519,-16.0734,178.308,1.62598,-144.888,348
1569937882,328.054,113.519,-16.0734,178.308,1.62598,-144.888,352
1569937882,328.054,113.519,-16.0734,178.308,1.62598,-144.888,352
1569937882,328.054,113.519,-16.0734,178.308,1.62598,-144.888,352
1569937882,328.054,113.519,-16.0734,178.308,1.62598,-144.888,352
1569937882,328.054,113.519,-16.0734,178.308,1.62598,-144.888,352
1569937882,328.054,113.519,-15.9618,178.308,1.62598,-144.888,356
1569937882,328.054,113.519,-15.9618,178.308,1.62598,-144.888,356
1569937882,328.054,113.63,-15.9618,178.33,1.62598,-144.888,356
1569937882,328.054,113.63,-15.9618,178.33,1.62598,-144.888,356
1569937882,328.054,113.63,-15.9618,178.33,1.62598,-144.91,356
1569937882,328.054,113.63,-15.9618,178.33,1.62598,-144.91,356
1569937882,328.054,113.63,-15.9618,178.33,1.62598,-144.91,360
1569937882,328.054,113.63,-15.9618,178.33,1.62598,-144.91,360
1569937882,328.054,113.63,-15.9618,178.33,1.62598,-144.91,360
1569937882,328.054,113.63,-15.9618,178.33,1.62598,-144.91,360
1569937882,328.054,113.63,-15.9618,178.33,1.62598,-144.91,360
1569937882,328.054,113.63,-15.9618,178.33,1.62598,-144.91,360
1569937882,328.054,113.63,-15.9618,178.33,1.62598,-144.91,360
1569937882,328.054,113.63,-15.9618,178.33,1.62598,-144.91,360
1569937882,328.054,113.63,-15.9618,178.33,1.62598,-144.91,360
1569937882,328.054,113.63,-15.9618,178.33,1.64795,-144.91,360
1569937882,328.054,113.63,-15.9618,178.33,1.64795,-144.91,360
1569937882,328.054,113.63,-15.9618,178.33,1.64795,-144.91,360
1569937882,328.054,113.63,-15.9618,178.33,1.64795,-144.91,360
1569937882,328.054,113.63,-15.9618,178.33,1.64795,-144.91,360
1569937882,328.054,113.63,-15.9618,178.308,1.64795,-144.91,360
1569937882,328.054,113.63,-15.9618,178.308,1.64795,-144.91,360
1569937882,327.943,113.63,-15.9618,178.308,1.64795,-144.91,360
1569937882,327.943,113.63,-15.9618,178.308,1.64795,-144.91,360
1569937882,327.943,113.63,-15.8502,178.33,1.66992,-144.91,360
1569937882,327.943,113.63,-15.8502,178.33,1.66992,-144.91,360
1569937882,327.943,113.63,-15.8502,178.33,1.66992,-144.91,360
1569937882,327.943,113.63,-15.8502,178.33,1.66992,-144.91,360
1569937882,327.943,113.63,-15.8502,178.33,1.66992,-144.91,360
1569937882,327.943,113.63,-15.8502,178.33,1.66992,-144.91,360
1569937882,327.943,113.63,-15.8502,178.33,1.66992,-144.91,364
1569937882,327.943,113.63,-15.8502,178.33,1.66992,-144.91,364
1569937882,327.943,113.63,-15.8502,178.33,1.66992,-144.91,364
1569937882,327.943,113.63,-15.8502,178.33,1.66992,-144.91,364
1569937882,327.943,113.63,-15.9618,178.33,1.66992,-144.91,364
1569937882,327.943,113.63,-15.9618,178.33,1.64795,-144.91,364
1569937882,327.943,113.519,-15.9618,178.308,1.64795,-144.91,364
1569937882,327.943,113.519,-15.9618,178.308,1.64795,-144.91,364
1569937882,327.943,113.519,-15.9618,178.308,1.64795,-144.91,364
1569937882,327.943,113.519,-15.9618,178.308,1.62598,-144.91,364
1569937882,327.943,113.519,-15.9618,178.308,1.62598,-144.91,364
1569937882,327.943,113.519,-15.9618,178.308,1.62598,-144.91,364
1569937882,327.943,113.519,-15.9618,178.308,1.62598,-144.91,364
1569937882,327.943,113.519,-16.0734,178.308,1.62598,-144.91,364
1569937882,327.943,113.519,-16.0734,178.308,1.62598,-144.91,364
1569937882,327.943,113.519,-16.0734,178.308,1.62598,-144.91,364
1569937882,327.943,113.519,-16.0734,178.308,1.62598,-144.91,364
1569937882,327.943,113.519,-16.0734,178.308,1.62598,-144.91,364
1569937882,327.943,113.519,-16.0734,178.308,1.62598,-144.91,364
1569937882,327.943,113.519,-16.0734,178.308,1.62598,-144.91,364
1569937882,327.943,113.519,-16.0734,178.308,1.62598,-144.91,364
1569937882,327.943,113.519,-16.0734,178.308,1.62598,-144.91,364
1569937882,327.943,113.519,-16.0734,178.308,1.62598,-144.91,364
1569937882,327.943,113.519,-16.0734,178.308,1.62598,-144.91,364
1569937882,327.943,113.519,-16.0734,178.308,1.62598,-144.91,364
1569937882,327.943,113.519,-16.0734,178.308,1.62598,-144.91,364
1569937882,327.943,113.519,-16.0734,178.308,1.62598,-144.91,364
1569937882,327.943,113.519,-16.0734,178.308,1.62598,-144.91,364
1569937882,327.943,113.519,-16.0734,178.308,1.62598,-144.91,364
1569937882,327.943,113.519,-16.0734,178.308,1.62598,-144.91,364
1569937883,327.943,113.519,-16.0734,178.308,1.62598,-144.91,364
1569937883,327.943,113.519,-16.0734,178.308,1.62598,-144.91,364
1569937883,327.943,113.519,-16.0734,178.308,1.62598,-144.91,368
1569937883,327.943,113.519,-16.0734,178.308,1.62598,-144.91,368
1569937883,327.943,113.519,-16.0734,178.308,1.62598,-144.91,368
1569937883,328.054,113.519,-16.0734,178.308,1.62598,-144.91,368
1569937883,328.054,113.519,-16.0734,178.308,1.62598,-144.91,368
1569937883,328.054,113.519,-16.0734,178.308,1.62598,-144.91,368
1569937883,328.054,113.519,-16.0734,178.308,1.62598,-144.91,368
1569937883,328.054,113.519,-16.0734,178.308,1.62598,-144.91,368
1569937883,328.054,113.519,-16.0734,178.308,1.62598,-144.91,368
1569937883,328.054,113.519,-16.0734,178.308,1.62598,-144.91,368
1569937883,328.054,113.519,-16.0734,178.308,1.62598,-144.91,368
1569937883,328.054,113.519,-16.0734,178.308,1.62598,-144.91,368
1569937883,328.054,113.519,-16.0734,178.308,1.62598,-144.91,368
1569937883,328.054,113.519,-16.0734,178.308,1.62598,-144.91,368
1569937883,327.943,113.519,-16.0734,178.308,1.62598,-144.91,368
1569937883,327.943,113.519,-16.0734,178.308,1.62598,-144.91,368
1569937883,327.943,113.519,-16.0734,178.308,1.62598,-144.91,368
1569937883,327.943,113.519,-16.0734,178.308,1.62598,-144.91,368
1569937883,327.943,113.519,-16.0734,178.308,1.62598,-144.91,368
1569937883,327.943,113.519,-16.0734,178.308,1.62598,-144.91,368
1569937883,327.943,113.519,-16.0734,178.308,1.62598,-144.91,368
1569937883,327.943,113.519,-16.0734,178.308,1.62598,-144.91,368
1569937883,327.943,113.519,-16.0734,178.308,1.62598,-144.91,368
1569937883,327.943,113.519,-16.0734,178.308,1.62598,-144.91,368
1569937883,327.943,113.519,-16.0734,178.308,1.62598,-144.91,368
1569937883,327.943,113.519,-16.0734,178.308,1.62598,-144.91,368
1569937883,327.943,113.519,-16.0734,178.308,1.62598,-144.91,368
1569937883,327.943,113.519,-16.0734,178.308,1.62598,-144.91,368
1569937883,327.943,113.519,-16.0734,178.308,1.62598,-144.91,364
1569937883,327.943,113.519,-16.0734,178.308,1.62598,-144.91,364
1569937883,327.943,113.519,-16.0734,178.308,1.62598,-144.91,364
1569937883,327.943,113.519,-16.0734,178.308,1.62598,-144.888,364
1569937883,327.943,113.519,-16.0734,178.308,1.62598,-144.888,364
1569937883,327.943,113.519,-16.0734,178.308,1.62598,-144.888,364
1569937883,327.943,113.519,-16.0734,178.308,1.62598,-144.888,364
1569937883,327.943,113.519,-16.0734,178.308,1.62598,-144.888,364
1569937883,327.943,113.519,-16.0734,178.308,1.62598,-144.888,364
1569937883,327.943,113.519,-16.0734,178.308,1.62598,-144.888,360
1569937883,327.943,113.519,-16.0734,178.308,1.62598,-144.91,360
1569937883,327.943,113.519,-16.0734,178.308,1.62598,-144.91,360
1569937883,327.943,113.519,-16.0734,178.308,1.62598,-144.91,360
1569937883,328.054,113.519,-16.0734,178.308,1.62598,-144.91,360
1569937883,328.054,113.519,-16.0734,178.308,1.62598,-144.91,360
1569937883,328.054,113.519,-16.0734,178.308,1.62598,-144.91,360
1569937883,328.054,113.519,-16.0734,178.308,1.62598,-144.91,360
1569937883,328.054,113.519,-16.0734,178.308,1.62598,-144.91,360
1569937883,328.054,113.519,-16.0734,178.308,1.62598,-144.91,356
1569937883,328.054,113.519,-16.0734,178.308,1.62598,-144.91,356
1569937883,328.054,113.519,-16.0734,178.308,1.62598,-144.91,356
1569937883,328.054,113.519,-16.0734,178.308,1.62598,-144.91,356
1569937883,328.054,113.519,-16.0734,178.308,1.62598,-144.91,356
1569937883,328.054,113.519,-16.0734,178.308,1.62598,-144.91,356
1569937883,328.054,113.519,-16.0734,178.308,1.62598,-144.91,356
1569937883,328.054,113.519,-16.0734,178.308,1.62598,-144.91,356
1569937883,328.054,113.519,-16.0734,178.308,1.62598,-144.91,356
1569937883,328.054,113.519,-16.0734,178.286,1.62598,-144.91,356
1569937883,328.054,113.519,-16.0734,178.286,1.62598,-144.91,356
1569937883,328.054,113.519,-16.0734,178.286,1.62598,-144.91,356
1569937883,328.054,113.519,-15.9618,178.286,1.62598,-144.91,356
1569937883,328.054,113.519,-15.9618,178.286,1.62598,-144.91,356
1569937883,328.054,113.519,-15.9618,178.286,1.62598,-144.91,360
1569937883,328.054,113.519,-15.9618,178.286,1.62598,-144.91,360
1569937883,328.054,113.519,-15.9618,178.286,1.62598,-144.91,360
1569937883,328.054,113.519,-15.9618,178.286,1.64795,-144.91,360
1569937883,328.054,113.519,-15.9618,178.286,1.64795,-144.91,360
1569937883,328.054,113.407,-15.9618,178.286,1.64795,-144.91,360
1569937883,328.054,113.519,-15.9618,178.286,1.64795,-144.91,360
1569937883,328.054,113.519,-15.9618,178.286,1.64795,-144.91,360
1569937883,328.054,113.519,-15.9618,178.286,1.64795,-144.91,360
1569937883,328.054,113.519,-15.9618,178.286,1.64795,-144.932,360
1569937883,328.054,113.519,-15.9618,178.286,1.64795,-144.932,360
1569937883,328.054,113.519,-15.9618,178.286,1.64795,-144.932,360
1569937883,328.054,113.519,-15.9618,178.286,1.64795,-144.932,360
1569937883,328.054,113.519,-15.9618,178.286,1.64795,-144.932,360
1569937883,328.054,113.519,-15.9618,178.286,1.64795,-144.932,360
1569937883,328.054,113.519,-15.9618,178.286,1.64795,-144.932,360
1569937883,328.054,113.519,-15.9618,178.308,1.64795,-144.932,356
1569937883,328.054,113.519,-15.9618,178.308,1.64795,-144.932,356
1569937883,328.054,113.519,-15.9618,178.308,1.62598,-144.932,356
1569937883,328.054,113.519,-15.9618,178.308,1.62598,-144.932,356
1569937883,328.054,113.519,-15.9618,178.308,1.62598,-144.932,356
1569937883,327.943,113.519,-15.9618,178.308,1.62598,-144.932,356
1569937883,327.943,113.519,-15.9618,178.308,1.62598,-144.932,356
1569937883,327.943,113.519,-15.9618,178.308,1.62598,-144.932,356
1569937883,327.943,113.519,-15.9618,178.308,1.62598,-144.91,356
1569937883,327.943,113.519,-15.9618,178.308,1.62598,-144.91,360
1569937883,327.943,113.519,-15.9618,178.308,1.62598,-144.91,360
1569937883,327.943,113.519,-15.9618,178.308,1.62598,-144.91,360
1569937883,327.943,113.519,-15.9618,178.308,1.62598,-144.91,360
1569937883,327.943,113.519,-15.9618,178.308,1.62598,-144.91,360
1569937883,328.054,113.519,-16.0734,178.308,1.62598,-144.91,360
1569937883,328.054,113.519,-16.0734,178.308,1.62598,-144.91,360
1569937883,328.054,113.519,-16.0734,178.308,1.62598,-144.91,360
1569937883,328.054,113.519,-16.0734,178.308,1.62598,-144.91,360
1569937883,328.054,113.519,-16.0734,178.308,1.62598,-144.91,360
1569937883,328.054,113.519,-16.0734,178.308,1.62598,-144.91,360
1569937883,328.054,113.519,-16.0734,178.308,1.62598,-144.91,360
1569937883,328.054,113.519,-16.0734,178.308,1.62598,-144.91,360
1569937884,328.054,113.519,-16.0734,178.308,1.62598,-144.91,356
1569937884,328.054,113.519,-16.0734,178.308,1.62598,-144.91,356
1569937884,328.054,113.63,-16.0734,178.308,1.62598,-144.91,356
1569937884,328.054,113.63,-16.0734,178.308,1.62598,-144.91,356
1569937884,328.054,113.519,-16.0734,178.308,1.62598,-144.91,356
1569937884,328.054,113.519,-16.0734,178.308,1.62598,-144.91,356
1569937884,328.054,113.519,-16.0734,178.308,1.62598,-144.91,356
1569937884,328.054,113.519,-16.0734,178.308,1.62598,-144.91,356
1569937884,328.054,113.519,-16.0734,178.308,1.62598,-144.91,356
1569937884,328.054,113.519,-16.0734,178.308,1.62598,-144.91,356
1569937884,328.054,113.519,-16.0734,178.308,1.62598,-144.91,356
1569937884,328.054,113.519,-16.0734,178.308,1.62598,-144.91,356
1569937884,328.054,113.519,-16.0734,178.308,1.62598,-144.91,356
1569937884,328.054,113.519,-16.0734,178.308,1.62598,-144.91,356
1569937884,328.054,113.519,-16.0734,178.308,1.62598,-144.91,356
1569937884,328.054,113.519,-16.0734,178.308,1.62598,-144.91,356
1569937884,328.054,113.519,-16.0734,178.308,1.62598,-144.91,356
1569937884,328.054,113.519,-15.9618,178.308,1.64795,-144.91,356
1569937884,328.054,113.519,-15.9618,178.308,1.64795,-144.91,356
1569937884,328.054,113.519,-15.9618,178.308,1.64795,-144.91,356
1569937884,328.054,113.519,-15.9618,178.308,1.64795,-144.91,356
1569937884,328.054,113.519,-15.9618,178.308,1.64795,-144.91,356
1569937884,328.054,113.519,-15.9618,178.308,1.64795,-144.91,356
1569937884,327.943,113.519,-15.9618,178.308,1.64795,-144.91,352
1569937884,327.943,113.519,-15.9618,178.308,1.64795,-144.91,352
1569937884,327.943,113.519,-15.9618,178.308,1.64795,-144.91,352
1569937884,327.943,113.519,-15.9618,178.308,1.64795,-144.91,352
1569937884,327.943,113.519,-15.9618,178.308,1.64795,-144.91,352
1569937884,327.943,113.519,-15.9618,178.308,1.62598,-144.91,352
1569937884,327.943,113.519,-15.9618,178.308,1.62598,-144.91,352
1569937884,327.943,113.519,-15.9618,178.308,1.62598,-144.91,352
1569937884,327.943,113.519,-15.9618,178.308,1.62598,-144.91,348
1569937884,328.054,113.519,-15.9618,178.308,1.62598,-144.91,348
1569937884,328.054,113.519,-15.9618,178.308,1.62598,-144.91,348
1569937884,328.054,113.519,-15.9618,178.308,1.62598,-144.91,348
1569937884,328.054,113.519,-15.9618,178.308,1.62598,-144.91,348
1569937884,328.054,113.519,-15.9618,178.308,1.62598,-144.91,348
1569937884,328.054,113.519,-15.9618,178.308,1.62598,-144.91,348
1569937884,328.054,113.519,-15.9618,178.308,1.62598,-144.91,344
1569937884,328.054,113.519,-15.9618,178.308,1.64795,-144.91,344
1569937884,328.054,113.519,-15.9618,178.308,1.64795,-144.91,344
1569937884,328.054,113.519,-15.9618,178.308,1.64795,-144.91,344
1569937884,328.054,113.519,-15.9618,178.308,1.64795,-144.91,344
1569937884,328.054,113.519,-15.9618,178.308,1.64795,-144.932,344
1569937884,328.054,113.519,-15.9618,178.308,1.64795,-144.932,344
1569937884,328.054,113.519,-15.9618,178.308,1.64795,-144.932,344
1569937884,328.054,113.519,-15.9618,178.308,1.64795,-144.932,344
1569937884,328.054,113.519,-15.9618,178.308,1.64795,-144.932,344
1569937884,328.054,113.519,-15.9618,178.286,1.64795,-144.932,344
1569937884,328.054,113.519,-15.9618,178.286,1.64795,-144.91,344
1569937884,328.054,113.519,-15.9618,178.286,1.64795,-144.91,344
1569937884,328.054,113.519,-15.9618,178.286,1.64795,-144.91,344
1569937884,328.054,113.519,-15.9618,178.286,1.64795,-144.91,344
1569937884,328.054,113.519,-15.9618,178.308,1.64795,-144.91,344
1569937884,328.054,113.519,-15.9618,178.308,1.64795,-144.91,344
1569937884,328.054,113.519,-15.9618,178.308,1.64795,-144.91,344
1569937884,328.054,113.519,-15.9618,178.308,1.64795,-144.91,344
1569937884,328.054,113.519,-15.9618,178.308,1.64795,-144.91,344
1569937884,328.054,113.519,-15.9618,178.308,1.64795,-144.91,344
1569937884,328.054,113.519,-15.9618,178.308,1.64795,-144.91,344
1569937884,328.054,113.519,-15.9618,178.308,1.64795,-144.91,344
1569937884,328.054,113.63,-15.9618,178.308,1.64795,-144.91,344
1569937884,328.054,113.63,-15.9618,178.308,1.64795,-144.91,344
1569937884,328.054,113.63,-15.9618,178.308,1.64795,-144.91,344
1569937884,328.054,113.63,-15.9618,178.308,1.64795,-144.888,344
1569937884,328.054,113.63,-15.9618,178.33,1.64795,-144.888,344
1569937884,328.054,113.63,-15.9618,178.33,1.64795,-144.888,344
1569937884,328.054,113.63,-15.9618,178.33,1.62598,-144.888,344
1569937884,328.054,113.63,-15.9618,178.33,1.62598,-144.888,344
1569937884,328.054,113.63,-15.9618,178.33,1.62598,-144.888,344
1569937884,328.054,113.63,-15.9618,178.33,1.62598,-144.888,344
1569937884,328.054,113.63,-15.9618,178.33,1.62598,-144.888,344
1569937884,328.054,113.63,-15.9618,178.33,1.62598,-144.888,344
1569937884,328.054,113.519,-15.9618,178.33,1.62598,-144.888,344
1569937884,328.054,113.519,-15.9618,178.33,1.62598,-144.888,344
1569937884,328.054,113.519,-15.9618,178.308,1.62598,-144.888,348
1569937884,328.054,113.519,-15.9618,178.308,1.62598,-144.888,348
1569937884,328.054,113.519,-15.9618,178.308,1.62598,-144.888,348
1569937884,328.054,113.519,-15.9618,178.308,1.62598,-144.888,348
1569937884,328.054,113.519,-15.9618,178.308,1.62598,-144.888,348
1569937884,328.054,113.519,-15.9618,178.308,1.62598,-144.888,352
1569937884,328.054,113.519,-15.9618,178.308,1.62598,-144.888,352
1569937884,328.054,113.519,-15.9618,178.308,1.62598,-144.888,352
1569937884,328.054,113.519,-15.9618,178.308,1.62598,-144.888,352
1569937884,328.054,113.519,-15.9618,178.308,1.62598,-144.888,352
1569937884,328.054,113.519,-15.9618,178.308,1.62598,-144.888,352
1569937884,328.054,113.519,-15.9618,178.308,1.62598,-144.888,352
1569937884,328.054,113.519,-15.9618,178.308,1.62598,-144.888,352
1569937884,328.054,113.519,-15.9618,178.308,1.62598,-144.888,352
1569937884,328.054,113.519,-15.9618,178.286,1.64795,-144.888,352
1569937884,328.054,113.519,-15.9618,178.286,1.64795,-144.888,352
1569937884,328.054,113.519,-15.9618,178.286,1.64795,-144.888,352
1569937884,328.054,113.519,-15.9618,178.286,1.64795,-144.888,352
1569937884,328.054,113.519,-15.9618,178.286,1.64795,-144.888,352
1569937884,328.054,113.519,-15.9618,178.286,1.62598,-144.888,352
1569937884,328.054,113.519,-15.9618,178.286,1.64795,-144.888,352
1569937884,328.054,113.519,-15.9618,178.286,1.64795,-144.888,352
1569937884,328.054,113.519,-15.9618,178.286,1.64795,-144.888,352
1569937884,328.054,113.519,-15.9618,178.286,1.64795,-144.888,352
1569937884,328.054,113.519,-15.9618,178.286,1.64795,-144.888,352
1569937885,328.054,113.519,-15.9618,178.286,1.64795,-144.888,352
1569937885,328.054,113.519,-15.9618,178.286,1.64795,-144.888,352
1569937885,328.054,113.519,-15.9618,178.286,1.64795,-144.888,352
1569937885,328.054,113.519,-15.9618,178.286,1.64795,-144.91,352
1569937885,328.054,113.519,-15.9618,178.286,1.64795,-144.91,352
1569937885,328.054,113.519,-15.9618,178.286,1.64795,-144.91,352
1569937885,328.054,113.519,-15.9618,178.286,1.64795,-144.91,352
1569937885,328.054,113.519,-15.9618,178.286,1.64795,-144.91,356
1569937885,328.054,113.519,-15.9618,178.286,1.64795,-144.91,356
1569937885,328.054,113.519,-15.9618,178.286,1.64795,-144.91,356
1569937885,328.054,113.519,-15.9618,178.286,1.64795,-144.91,356
1569937885,328.054,113.519,-15.9618,178.286,1.64795,-144.91,356
1569937885,328.054,113.519,-15.9618,178.286,1.64795,-144.91,360
1569937885,328.054,113.519,-15.9618,178.286,1.64795,-144.91,360
1569937885,328.054,113.519,-15.9618,178.286,1.64795,-144.91,360
1569937885,328.054,113.519,-15.9618,178.286,1.64795,-144.91,360
1569937885,328.054,113.519,-15.9618,178.286,1.64795,-144.91,360
1569937885,328.054,113.519,-15.9618,178.286,1.64795,-144.91,360
1569937885,328.054,113.519,-15.9618,178.286,1.64795,-144.91,360
1569937885,328.054,113.519,-15.9618,178.286,1.64795,-144.91,364
1569937885,328.054,113.519,-15.9618,178.286,1.64795,-144.91,364
1569937885,328.054,113.519,-15.9618,178.286,1.64795,-144.91,364
1569937885,328.054,113.519,-15.9618,178.286,1.64795,-144.91,364
1569937885,328.054,113.519,-15.9618,178.286,1.64795,-144.91,364
1569937885,328.054,113.519,-15.9618,178.286,1.64795,-144.91,364
1569937885,328.054,113.519,-15.9618,178.286,1.64795,-144.91,364
1569937885,328.054,113.519,-15.9618,178.286,1.64795,-144.91,364
1569937885,328.054,113.519,-15.9618,178.308,1.64795,-144.91,368
1569937885,328.054,113.519,-15.9618,178.308,1.64795,-144.91,368
1569937885,328.054,113.519,-15.9618,178.308,1.64795,-144.91,368
1569937885,328.054,113.519,-15.9618,178.308,1.64795,-144.932,368
1569937885,328.054,113.63,-15.9618,178.308,1.64795,-144.932,368
1569937885,328.054,113.63,-15.9618,178.308,1.64795,-144.932,368
1569937885,328.054,113.63,-15.9618,178.308,1.64795,-144.932,368
1569937885,328.054,113.63,-15.9618,178.308,1.64795,-144.932,368
1569937885,328.054,113.63,-15.9618,178.308,1.64795,-144.932,364
1569937885,328.054,113.63,-15.9618,178.308,1.64795,-144.932,364
1569937885,328.054,113.63,-15.9618,178.308,1.64795,-144.91,364
1569937885,328.054,113.63,-15.9618,178.308,1.64795,-144.91,364
1569937885,328.054,113.63,-15.9618,178.33,1.64795,-144.91,364
1569937885,328.054,113.63,-15.9618,178.33,1.64795,-144.91,364
1569937885,328.054,113.63,-15.9618,178.33,1.62598,-144.91,364
1569937885,328.054,113.63,-15.9618,178.33,1.62598,-144.91,364
1569937885,328.054,113.63,-16.0734,178.33,1.62598,-144.91,364
1569937885,328.054,113.63,-16.0734,178.33,1.62598,-144.91,364
1569937885,327.943,113.63,-16.0734,178.33,1.62598,-144.91,364
1569937890,366.229,72.2188,-15.2921,178.242,1.80176,-145.129,424
1569937890,366.229,72.2188,-15.2921,178.242,1.80176,-145.129,424
1569937890,366.229,72.2188,-15.4037,178.242,1.80176,-145.129,424
1569937890,366.229,72.2188,-15.4037,178.22,1.80176,-145.129,424
1569937890,366.229,72.2188,-15.4037,178.22,1.77979,-145.107,424
1569937890,366.229,72.2188,-15.4037,178.22,1.77979,-145.107,424
1569937890,366.229,72.2188,-15.4037,178.22,1.77979,-145.107,428
1569937890,366.229,72.2188,-15.4037,178.22,1.77979,-145.107,428
1569937890,366.229,72.2188,-15.4037,178.22,1.77979,-145.107,428
1569937890,366.34,72.2188,-15.4037,178.22,1.75781,-145.107,428
1569937890,366.34,72.2188,-15.5153,178.198,1.75781,-145.107,428
1569937890,366.34,72.1072,-15.5153,178.198,1.75781,-145.107,428
1569937890,366.34,72.1072,-15.5153,178.198,1.75781,-145.107,428
1569937890,366.34,72.1072,-15.5153,178.198,1.75781,-145.107,432
1569937890,366.34,72.1072,-15.5153,178.198,1.75781,-145.107,432
1569937890,366.34,72.1072,-15.4037,178.198,1.75781,-145.107,432
1569937890,366.229,72.1072,-15.4037,178.198,1.75781,-145.107,432
1569937890,366.229,72.1072,-15.4037,178.198,1.77979,-145.107,432
1569937890,366.229,72.1072,-15.4037,178.198,1.77979,-145.107,432
1569937890,366.229,72.1072,-15.4037,178.198,1.77979,-145.107,432
1569937890,366.229,72.1072,-15.4037,178.198,1.77979,-145.107,432
1569937890,366.229,72.1072,-15.4037,178.198,1.77979,-145.107,436
1569937890,366.229,72.1072,-15.4037,178.198,1.77979,-145.107,436
1569937890,366.229,72.1072,-15.4037,178.198,1.77979,-145.107,436
1569937890,366.229,72.1072,-15.4037,178.198,1.77979,-145.107,436
1569937890,366.229,72.1072,-15.4037,178.198,1.77979,-145.107,436
1569937890,366.229,72.1072,-15.4037,178.198,1.77979,-145.107,436
1569937890,366.229,72.1072,-15.4037,178.198,1.77979,-145.107,436
1569937890,366.229,72.1072,-15.4037,178.198,1.77979,-145.107,436
1569937890,366.229,72.1072,-15.4037,178.198,1.77979,-145.107,436
1569937890,366.229,72.1072,-15.4037,178.198,1.77979,-145.107,436
1569937890,366.229,72.1072,-15.4037,178.22,1.77979,-145.107,436
1569937890,366.229,72.1072,-15.4037,178.22,1.77979,-145.107,436
1569937890,366.229,72.2188,-15.4037,178.22,1.77979,-145.107,436
1569937890,366.229,72.2188,-15.4037,178.22,1.77979,-145.107,436
1569937890,366.229,72.2188,-15.4037,178.22,1.77979,-145.107,436
1569937890,366.229,72.2188,-15.4037,178.22,1.77979,-145.107,436
1569937890,366.229,72.2188,-15.4037,178.22,1.77979,-145.107,436
1569937890,366.229,72.2188,-15.4037,178.22,1.77979,-145.107,436
1569937890,366.229,72.2188,-15.4037,178.22,1.77979,-145.107,436
1569937890,366.229,72.2188,-15.4037,178.242,1.77979,-145.107,436
1569937890,366.229,72.2188,-15.4037,178.242,1.80176,-145.107,436
1569937890,366.229,72.2188,-15.4037,178.242,1.80176,-145.107,436
1569937890,366.229,72.2188,-15.4037,178.242,1.80176,-145.107,436
1569937890,366.229,72.2188,-15.4037,178.242,1.80176,-145.107,436
1569937890,366.229,72.2188,-15.4037,178.242,1.80176,-145.107,436
1569937890,366.229,72.2188,-15.4037,178.242,1.80176,-145.107,436
1569937890,366.229,72.2188,-15.4037,178.242,1.80176,-145.107,436
1569937890,366.229,72.2188,-15.4037,178.242,1.80176,-145.107,432
1569937890,366.229,72.2188,-15.4037,178.242,1.80176,-145.107,432
1569937890,366.229,72.2188,-15.4037,178.242,1.80176,-145.107,432
1569937890,366.229,72.2188,-15.4037,178.242,1.80176,-145.107,432
1569937890,366.229,72.2188,-15.4037,178.22,1.80176,-145.107,432
1569937890,366.229,72.2188,-15.4037,178.22,1.80176,-145.107,432
1569937890,366.229,72.2188,-15.4037,178.22,1.80176,-145.107,432
1569937890,366.229,72.2188,-15.4037,178.22,1.80176,-145.107,432
1569937890,366.229,72.2188,-15.2921,178.22,1.80176,-145.107,432
1569937890,366.34,72.2188,-15.2921,178.22,1.80176,-145.107,432
1569937890,366.34,72.2188,-15.2921,178.22,1.80176,-145.107,428
1569937890,366.34,72.2188,-15.2921,178.22,1.80176,-145.107,428
1569937890,366.34,72.2188,-15.2921,178.22,1.80176,-145.107,428
1569937890,366.34,72.2188,-15.2921,178.22,1.80176,-145.107,428
1569937890,366.34,72.2188,-15.2921,178.22,1.80176,-145.107,424
1569937890,366.34,72.2188,-15.2921,178.242,1.80176,-145.107,424
1569937890,366.34,72.2188,-15.2921,178.242,1.82373,-145.107,424
1569937890,366.34,72.2188,-15.2921,178.242,1.82373,-145.107,424
1569937890,366.34,72.2188,-15.2921,178.242,1.82373,-145.107,424
1569937890,366.34,72.2188,-15.2921,178.242,1.82373,-145.107,424
1569937890,366.34,72.2188,-15.2921,178.242,1.82373,-145.107,424
1569937890,366.34,72.2188,-15.2921,178.242,1.82373,-145.107,424
1569937890,366.34,72.2188,-15.2921,178.242,1.82373,-145.107,424
1569937890,366.34,72.2188,-15.2921,178.22,1.80176,-145.107,424
1569937890,366.34,72.2188,-15.2921,178.22,1.80176,-145.107,424
1569937890,366.34,72.2188,-15.2921,178.22,1.80176,-145.129,424
1569937890,366.34,72.2188,-15.2921,178.22,1.80176,-145.107,424
1569937890,366.34,72.2188,-15.2921,178.22,1.80176,-145.107,424
1569937890,366.34,72.1072,-15.2921,178.22,1.80176,-145.107,424
1569937890,366.34,72.1072,-15.2921,178.198,1.80176,-145.107,424
1569937890,366.34,72.1072,-15.2921,178.198,1.80176,-145.107,424
1569937890,366.34,72.1072,-15.2921,178.198,1.80176,-145.107,424
1569937890,366.229,72.1072,-15.2921,178.198,1.80176,-145.107,424
1569937890,366.229,72.1072,-15.2921,178.198,1.80176,-145.107,424
1569937890,366.229,72.1072,-15.2921,178.198,1.80176,-145.107,424
1569937891,366.229,72.1072,-15.2921,178.198,1.80176,-145.107,424
1569937891,366.229,72.1072,-15.2921,178.198,1.80176,-145.107,424
1569937891,366.229,72.1072,-15.2921,178.198,1.80176,-145.107,424
1569937891,366.229,72.1072,-15.2921,178.198,1.80176,-145.107,424
1569937891,366.229,72.1072,-15.2921,178.198,1.80176,-145.107,424
1569937891,366.229,72.1072,-15.2921,178.176,1.80176,-145.107,424
1569937891,366.229,72.1072,-15.4037,178.176,1.80176,-145.107,424
1569937891,366.229,72.1072,-15.4037,178.198,1.80176,-145.107,424
1569937891,366.229,72.1072,-15.4037,178.198,1.80176,-145.107,424
1569937891,366.229,72.1072,-15.4037,178.198,1.80176,-145.107,424
1569937891,366.229,72.1072,-15.4037,178.198,1.80176,-145.107,424
1569937891,366.229,72.1072,-15.4037,178.198,1.80176,-145.107,424
1569937891,366.229,72.1072,-15.4037,178.198,1.80176,-145.107,424
1569937891,366.229,72.1072,-15.4037,178.198,1.80176,-145.107,428
1569937891,366.229,72.1072,-15.4037,178.198,1.80176,-145.107,428
1569937891,366.229,72.1072,-15.4037,178.22,1.80176,-145.107,428
1569937891,366.229,72.1072,-15.4037,178.22,1.80176,-145.107,428
1569937891,366.229,72.1072,-15.4037,178.22,1.80176,-145.107,428
1569937891,366.229,72.1072,-15.4037,178.22,1.80176,-145.107,428
1569937891,366.229,72.1072,-15.4037,178.22,1.80176,-145.107,428
1569937891,366.229,72.1072,-15.4037,178.22,1.80176,-145.107,428
1569937891,366.229,72.1072,-15.4037,178.22,1.80176,-145.107,424
1569937891,366.229,72.1072,-15.4037,178.22,1.80176,-145.107,424
1569937891,366.229,72.1072,-15.4037,178.22,1.80176,-145.107,424
1569937891,366.229,72.1072,-15.4037,178.22,1.80176,-145.107,424
1569937891,366.229,72.1072,-15.4037,178.22,1.80176,-145.107,424
1569937891,366.229,72.1072,-15.4037,178.22,1.80176,-145.107,420
1569937891,366.229,72.1072,-15.2921,178.22,1.80176,-145.107,420
1569937891,366.229,72.1072,-15.2921,178.22,1.80176,-145.107,420
1569937891,366.229,72.1072,-15.2921,178.22,1.80176,-145.107,420
1569937891,366.229,72.1072,-15.2921,178.22,1.80176,-145.129,420
1569937891,366.229,72.1072,-15.2921,178.22,1.80176,-145.129,420
1569937891,366.229,72.1072,-15.2921,178.22,1.80176,-145.129,420
1569937891,366.229,72.1072,-15.2921,178.22,1.80176,-145.129,420
1569937891,366.229,72.1072,-15.2921,178.22,1.80176,-145.129,420
1569937891,366.229,72.1072,-15.2921,178.22,1.80176,-145.129,420
1569937891,366.229,72.1072,-15.2921,178.198,1.80176,-145.129,420
1569937891,366.229,72.1072,-15.2921,178.198,1.80176,-145.129,420
1569937891,366.229,72.1072,-15.2921,178.198,1.80176,-145.107,416
1569937891,366.229,72.1072,-15.2921,178.198,1.80176,-145.107,416
1569937891,366.229,72.1072,-15.2921,178.198,1.80176,-145.107,416
1569937891,366.229,72.1072,-15.2921,178.198,1.80176,-145.107,416
1569937891,366.229,72.1072,-15.2921,178.198,1.80176,-145.107,416
1569937891,366.229,72.1072,-15.2921,178.198,1.80176,-145.129,416
1569937891,366.229,72.1072,-15.2921,178.198,1.80176,-145.107,416
1569937891,366.229,72.1072,-15.2921,178.198,1.80176,-145.107,416
1569937891,366.229,72.1072,-15.2921,178.198,1.80176,-145.107,416
1569937891,366.229,72.1072,-15.2921,178.198,1.80176,-145.107,416
1569937891,366.229,72.1072,-15.2921,178.198,1.80176,-145.107,420
1569937891,366.229,72.1072,-15.2921,178.198,1.80176,-145.107,420
1569937891,366.229,72.1072,-15.2921,178.198,1.80176,-145.107,420
1569937891,366.229,72.1072,-15.2921,178.198,1.80176,-145.107,420
1569937891,366.229,72.1072,-15.2921,178.198,1.80176,-145.107,420
1569937891,366.229,72.1072,-15.2921,178.198,1.80176,-145.107,420
1569937891,366.229,72.1072,-15.2921,178.198,1.80176,-145.107,420
1569937891,366.229,72.1072,-15.2921,178.198,1.80176,-145.107,420
1569937891,366.229,72.1072,-15.2921,178.198,1.80176,-145.107,420
1569937891,366.229,72.1072,-15.2921,178.198,1.80176,-145.107,420
1569937891,366.229,72.1072,-15.2921,178.198,1.82373,-145.107,424
1569937891,366.229,72.1072,-15.2921,178.198,1.82373,-145.107,424
1569937891,366.229,72.1072,-15.2921,178.198,1.82373,-145.107,424
1569937891,366.229,72.1072,-15.2921,178.198,1.82373,-145.107,420
1569937891,366.229,72.1072,-15.2921,178.198,1.82373,-145.107,420
1569937891,366.229,72.1072,-15.2921,178.198,1.82373,-145.107,420
1569937891,366.229,72.1072,-15.2921,178.198,1.82373,-145.107,420
1569937891,366.229,72.1072,-15.2921,178.198,1.82373,-145.107,420
1569937891,366.229,72.1072,-15.2921,178.198,1.82373,-145.107,420
1569937891,366.229,72.1072,-15.2921,178.198,1.82373,-145.107,420
1569937891,366.229,72.1072,-15.2921,178.198,1.82373,-145.107,424
1569937891,366.229,72.1072,-15.2921,178.198,1.82373,-145.107,424
1569937891,366.229,72.1072,-15.2921,178.198,1.82373,-145.107,424
1569937891,366.229,72.1072,-15.2921,178.198,1.82373,-145.107,424
1569937891,366.229,72.1072,-15.2921,178.198,1.82373,-145.107,424
1569937891,366.229,72.1072,-15.2921,178.198,1.82373,-145.107,424
1569937891,366.229,72.1072,-15.2921,178.198,1.82373,-145.107,424
1569937891,366.229,72.1072,-15.2921,178.198,1.82373,-145.107,428
1569937891,366.229,72.1072,-15.2921,178.176,1.82373,-145.107,428
1569937891,366.229,72.1072,-15.2921,178.176,1.82373,-145.107,428
1569937891,366.229,72.1072,-15.2921,178.176,1.82373,-145.107,428
1569937891,366.229,71.9956,-15.2921,178.176,1.82373,-145.107,432
1569937891,366.229,71.9956,-15.2921,178.176,1.82373,-145.107,432
1569937891,366.229,71.9956,-15.2921,178.176,1.82373,-145.107,432
1569937891,366.229,71.9956,-15.2921,178.176,1.82373,-145.107,436
1569937891,366.229,71.9956,-15.2921,178.176,1.82373,-145.107,436
1569937891,366.229,71.9956,-15.2921,178.176,1.82373,-145.107,436
1569937891,366.229,71.9956,-15.2921,178.198,1.82373,-145.107,436
1569937891,366.229,72.1072,-15.2921,178.198,1.82373,-145.107,440
1569937891,366.229,72.1072,-15.2921,178.198,1.82373,-145.107,440
1569937891,366.229,72.1072,-15.2921,178.198,1.82373,-145.107,440
1569937891,366.229,72.1072,-15.2921,178.198,1.82373,-145.107,440
1569937891,366.229,72.1072,-15.2921,178.198,1.82373,-145.107,440
1569937891,366.229,72.1072,-15.2921,178.198,1.82373,-145.107,440
1569937891,366.229,72.1072,-15.2921,178.198,1.80176,-145.107,440
1569937891,366.229,72.1072,-15.2921,178.198,1.80176,-145.107,440
1569937891,366.229,72.1072,-15.2921,178.198,1.80176,-145.107,440
1569937891,366.229,72.1072,-15.2921,178.198,1.80176,-145.107,440
1569937891,366.229,71.9956,-15.2921,178.176,1.80176,-145.107,440
1569937891,366.229,71.9956,-15.2921,178.176,1.80176,-145.107,440
1569937891,366.229,71.9956,-15.2921,178.176,1.80176,-145.107,440
1569937891,366.229,71.9956,-15.2921,178.176,1.80176,-145.107,436
1569937892,366.34,71.9956,-15.2921,178.176,1.80176,-145.107,436
1569937892,366.34,71.9956,-15.2921,178.176,1.80176,-145.107,436
1569937892,366.34,71.9956,-15.2921,178.176,1.80176,-145.107,436
1569937892,366.34,71.9956,-15.2921,178.176,1.80176,-145.107,432
1569937892,366.34,71.9956,-15.2921,178.176,1.80176,-145.107,432
1569937892,366.34,71.9956,-15.2921,178.176,1.80176,-145.107,432
1569937892,366.34,71.9956,-15.2921,178.176,1.80176,-145.107,432
1569937892,366.34,71.9956,-15.2921,178.176,1.80176,-145.107,432
1569937892,366.34,71.9956,-15.2921,178.176,1.80176,-145.107,428
1569937892,366.34,71.9956,-15.2921,178.176,1.80176,-145.107,428
1569937892,366.34,71.9956,-15.2921,178.176,1.80176,-145.107,428
1569937892,366.34,71.9956,-15.2921,178.176,1.82373,-145.107,428
1569937892,366.34,71.9956,-15.2921,178.176,1.82373,-145.107,428
1569937892,366.34,71.9956,-15.2921,178.176,1.82373,-145.107,428
1569937892,366.34,71.9956,-15.2921,178.176,1.82373,-145.107,428
1569937892,366.34,71.9956,-15.2921,178.176,1.82373,-145.107,428
1569937892,366.34,71.9956,-15.2921,178.176,1.82373,-145.107,428
1569937892,366.34,71.9956,-15.2921,178.176,1.82373,-145.107,428
1569937892,366.34,71.9956,-15.2921,178.176,1.82373,-145.107,428
1569937892,366.34,71.9956,-15.2921,178.176,1.82373,-145.107,424
1569937892,366.34,71.9956,-15.2921,178.176,1.82373,-145.129,424
1569937892,366.34,71.9956,-15.1805,178.176,1.82373,-145.129,424
1569937892,366.34,71.9956,-15.1805,178.176,1.82373,-145.129,424
1569937892,366.34,71.9956,-15.1805,178.176,1.82373,-145.129,424
1569937892,366.34,71.9956,-15.1805,178.176,1.82373,-145.129,424
1569937892,366.34,71.9956,-15.1805,178.176,1.8457,-145.129,424
1569937892,366.34,72.1072,-15.1805,178.176,1.8457,-145.129,424
1569937892,366.34,72.1072,-15.1805,178.176,1.8457,-145.129,424
1569937892,366.34,72.1072,-15.1805,178.198,1.8457,-145.129,424
1569937892,366.34,72.1072,-15.1805,178.198,1.8457,-145.129,424
1569937892,366.34,72.1072,-15.1805,178.198,1.8457,-145.129,420
1569937892,366.34,72.1072,-15.1805,178.198,1.8457,-145.129,420
1569937892,366.34,72.1072,-15.1805,178.198,1.8457,-145.129,420
1569937892,366.34,72.2188,-15.1805,178.22,1.8457,-145.129,420
1569937892,366.34,72.2188,-15.1805,178.22,1.82373,-145.129,420
1569937892,366.34,72.2188,-15.1805,178.22,1.82373,-145.129,420
1569937892,366.34,72.2188,-15.1805,178.22,1.82373,-145.129,420
1569937892,366.229,72.2188,-15.2921,178.22,1.82373,-145.129,420
1569937892,366.229,72.2188,-15.2921,178.22,1.82373,-145.129,420
1569937892,366.229,72.2188,-15.2921,178.22,1.82373,-145.129,416
1569937892,366.229,72.2188,-15.2921,178.22,1.82373,-145.129,416
1569937892,366.229,72.2188,-15.2921,178.22,1.82373,-145.129,416
1569937892,366.229,72.2188,-15.2921,178.22,1.82373,-145.129,416
1569937892,366.229,72.2188,-15.2921,178.22,1.82373,-145.129,416
1569937892,366.229,72.2188,-15.2921,178.22,1.82373,-145.129,416
1569937892,366.229,72.2188,-15.2921,178.22,1.82373,-145.129,416
1569937892,366.229,72.2188,-15.2921,178.22,1.82373,-145.129,416
1569937892,366.229,72.2188,-15.2921,178.22,1.82373,-145.129,416
1569937892,366.229,72.2188,-15.2921,178.22,1.82373,-145.107,416
1569937892,366.229,72.2188,-15.2921,178.22,1.82373,-145.107,416
1569937892,366.229,72.2188,-15.2921,178.22,1.82373,-145.107,416
1569937892,366.229,72.2188,-15.2921,178.22,1.82373,-145.107,416
1569937892,366.229,72.2188,-15.2921,178.22,1.82373,-145.107,416
1569937892,366.229,72.2188,-15.2921,178.22,1.82373,-145.107,416
1569937892,366.229,72.2188,-15.2921,178.22,1.82373,-145.107,420
1569937892,366.229,72.2188,-15.2921,178.22,1.82373,-145.107,420
1569937892,366.229,72.2188,-15.2921,178.22,1.82373,-145.107,420
1569937892,366.229,72.2188,-15.2921,178.22,1.82373,-145.107,420
1569937892,366.229,72.2188,-15.2921,178.22,1.82373,-145.107,424
1569937892,366.229,72.1072,-15.2921,178.22,1.82373,-145.107,424
1569937892,366.229,72.1072,-15.2921,178.22,1.82373,-145.107,424
1569937892,366.229,72.1072,-15.2921,178.22,1.82373,-145.107,424
1569937892,366.117,72.1072,-15.2921,178.22,1.82373,-145.107,428
1569937892,366.117,72.1072,-15.2921,178.22,1.82373,-145.107,428
1569937892,366.117,72.1072,-15.2921,178.22,1.82373,-145.107,428
1569937892,366.117,72.1072,-15.2921,178.22,1.82373,-145.107,432
1569937892,366.117,72.1072,-15.2921,178.22,1.82373,-145.107,432
1569937892,366.117,72.1072,-15.2921,178.22,1.82373,-145.107,432
1569937892,366.117,72.1072,-15.2921,178.22,1.82373,-145.107,436
1569937892,366.117,72.1072,-15.2921,178.22,1.82373,-145.107,436
1569937892,366.117,72.1072,-15.2921,178.22,1.82373,-145.107,436
1569937892,366.117,72.1072,-15.2921,178.22,1.82373,-145.107,436
1569937892,366.117,72.1072,-15.2921,178.22,1.82373,-145.107,440
1569937892,366.117,72.1072,-15.2921,178.22,1.82373,-145.107,440
1569937892,366.117,72.1072,-15.2921,178.198,1.82373,-145.107,440
1569937892,366.117,72.1072,-15.2921,178.198,1.82373,-145.107,440
1569937892,366.117,72.1072,-15.2921,178.198,1.82373,-145.107,440
1569937892,366.117,72.1072,-15.2921,178.198,1.82373,-145.107,444
1569937892,366.117,72.1072,-15.2921,178.198,1.82373,-145.107,444
1569937892,366.117,72.1072,-15.2921,178.198,1.82373,-145.107,444
1569937892,366.117,72.1072,-15.2921,178.198,1.82373,-145.107,444
1569937892,366.117,72.1072,-15.2921,178.198,1.80176,-145.107,444
1569937892,366.229,72.1072,-15.2921,178.198,1.80176,-145.107,440
1569937892,366.229,72.1072,-15.2921,178.198,1.80176,-145.107,440
1569937892,366.229,72.1072,-15.2921,178.198,1.80176,-145.107,440
1569937892,366.229,72.1072,-15.2921,178.198,1.80176,-145.107,440
1569937892,366.229,72.1072,-15.2921,178.176,1.80176,-145.107,440
1569937892,366.229,72.1072,-15.2921,178.176,1.80176,-145.085,436
1569937892,366.229,72.1072,-15.2921,178.198,1.80176,-145.085,436
1569937892,366.229,72.1072,-15.2921,178.198,1.82373,-145.085,436
1569937892,366.229,72.1072,-15.2921,178.198,1.82373,-145.085,436
1569937892,366.229,72.1072,-15.2921,178.198,1.82373,-145.085,436
1569937892,366.229,72.1072,-15.2921,178.198,1.82373,-145.085,432
1569937892,366.229,72.1072,-15.2921,178.198,1.82373,-145.085,432
1569937892,366.229,72.1072,-15.2921,178.198,1.82373,-145.085,432
1569937892,366.229,72.1072,-15.2921,178.198,1.82373,-145.085,432
1569937892,366.229,72.1072,-15.2921,178.198,1.82373,-145.085,432
1569937892,366.229,72.1072,-15.2921,178.198,1.82373,-145.085,428
1569937892,366.229,72.1072,-15.2921,178.198,1.82373,-145.085,428
1569937892,366.229,72.1072,-15.2921,178.198,1.82373,-145.085,428
1569937893,366.229,72.1072,-15.2921,178.198,1.82373,-145.085,424
1569937893,366.229,72.1072,-15.2921,178.198,1.82373,-145.085,424
1569937893,366.229,72.1072,-15.2921,178.198,1.82373,-145.085,424
1569937893,366.229,72.1072,-15.2921,178.22,1.82373,-145.085,424
1569937893,366.229,72.1072,-15.2921,178.22,1.82373,-145.107,420
1569937893,366.229,72.1072,-15.2921,178.22,1.82373,-145.107,420
1569937893,366.229,72.1072,-15.2921,178.22,1.82373,-145.107,420
1569937893,366.229,72.1072,-15.2921,178.22,1.82373,-145.107,420
1569937893,366.229,72.1072,-15.2921,178.22,1.82373,-145.107,416
1569937893,366.229,72.1072,-15.2921,178.22,1.82373,-145.107,416
1569937893,366.229,72.2188,-15.2921,178.22,1.82373,-145.107,416
1569937893,366.229,72.2188,-15.2921,178.22,1.82373,-145.107,416
1569937893,366.229,72.2188,-15.2921,178.22,1.82373,-145.107,416
1569937893,366.229,72.2188,-15.2921,178.22,1.80176,-145.107,412
1569937893,366.229,72.2188,-15.2921,178.22,1.80176,-145.107,412
1569937893,366.229,72.2188,-15.2921,178.22,1.80176,-145.107,412
1569937893,366.229,72.2188,-15.2921,178.22,1.80176,-145.107,412
1569937893,366.229,72.2188,-15.2921,178.22,1.80176,-145.107,412
1569937893,366.229,72.1072,-15.2921,178.22,1.80176,-145.107,412
1569937893,366.229,72.1072,-15.2921,178.22,1.80176,-145.107,412
1569937893,366.229,72.1072,-15.2921,178.22,1.80176,-145.107,412
1569937893,366.229,72.1072,-15.2921,178.22,1.80176,-145.107,412
1569937893,366.229,72.1072,-15.2921,178.22,1.77979,-145.107,412
1569937893,366.229,72.1072,-15.4037,178.22,1.77979,-145.107,412
1569937893,366.229,72.1072,-15.4037,178.22,1.77979,-145.107,412
1569937893,366.229,72.2188,-15.4037,178.22,1.77979,-145.107,412
1569937893,366.229,72.2188,-15.4037,178.22,1.77979,-145.107,412
1569937893,366.229,72.2188,-15.4037,178.22,1.77979,-145.107,412
1569937893,366.229,72.2188,-15.4037,178.22,1.77979,-145.107,412
1569937893,366.229,72.2188,-15.4037,178.22,1.77979,-145.107,412
1569937893,366.229,72.2188,-15.4037,178.22,1.77979,-145.107,412
1569937893,366.229,72.1072,-15.4037,178.198,1.77979,-145.107,412
1569937893,366.229,72.1072,-15.4037,178.198,1.77979,-145.107,412
1569937893,366.229,72.1072,-15.4037,178.198,1.77979,-145.107,412
1569937893,366.229,72.1072,-15.4037,178.198,1.77979,-145.107,412
1569937893,366.229,72.1072,-15.4037,178.198,1.77979,-145.107,412
1569937893,366.229,72.1072,-15.4037,178.198,1.75781,-145.107,412
1569937893,366.229,72.1072,-15.4037,178.198,1.75781,-145.107,412
1569937893,366.229,72.1072,-15.4037,178.198,1.75781,-145.107,412
1569937893,366.229,72.1072,-15.5153,178.198,1.75781,-145.107,412
1569937893,366.229,72.1072,-15.5153,178.198,1.75781,-145.107,412
1569937893,366.229,72.1072,-15.5153,178.198,1.75781,-145.129,408
1569937893,366.229,72.1072,-15.5153,178.198,1.75781,-145.129,408
1569937893,366.229,72.1072,-15.5153,178.198,1.75781,-145.129,408
1569937893,366.229,72.1072,-15.5153,178.198,1.75781,-145.129,408
1569937893,366.229,72.1072,-15.5153,178.198,1.75781,-145.129,408
1569937893,366.229,72.1072,-15.4037,178.198,1.75781,-145.129,408
1569937893,366.229,72.1072,-15.4037,178.198,1.75781,-145.129,408
1569937893,366.229,72.1072,-15.4037,178.198,1.75781,-145.129,408
1569937893,366.229,72.1072,-15.4037,178.198,1.77979,-145.129,408
1569937893,366.229,72.1072,-15.4037,178.198,1.77979,-145.129,408
1569937893,366.229,72.1072,-15.4037,178.198,1.77979,-145.129,408
