time,x,y,z,ax,ay,az,q
1569920279,368.573,-174.464,-1.11621,-178.506,5.33936,-142.976,1732
1569920279,368.573,-174.464,-1.11621,-178.506,5.33936,-142.976,1732
1569920279,368.573,-174.464,-1.11621,-178.506,5.36133,-142.976,1732
1569920279,368.461,-174.464,-1.11621,-178.506,5.36133,-142.976,1732
1569920279,368.461,-174.464,-1.11621,-178.506,5.36133,-142.976,1732
1569920279,368.461,-174.464,-1.11621,-178.506,5.33936,-142.976,1732
1569920279,368.461,-174.464,-1.11621,-178.506,5.33936,-142.976,1728
1569920279,368.461,-174.464,-1.11621,-178.506,5.33936,-142.976,1728
1569920279,368.461,-174.464,-1.11621,-178.506,5.33936,-142.976,1728
1569920279,368.461,-174.464,-1.22783,-178.506,5.33936,-142.976,1728
1569920279,368.461,-174.464,-1.22783,-178.506,5.33936,-142.976,1728
1569920279,368.461,-174.464,-1.22783,-178.506,5.33936,-142.976,1728
1569920279,368.461,-174.464,-1.22783,-178.506,5.31738,-142.976,1728
1569920279,368.461,-174.464,-1.22783,-178.506,5.31738,-142.976,1728
1569920279,368.461,-174.464,-1.22783,-178.506,5.31738,-142.976,1728
1569920279,368.461,-174.464,-1.22783,-178.506,5.31738,-142.976,1728
1569920280,368.573,-174.464,-1.22783,-178.506,5.31738,-142.998,1728
1569920280,368.573,-174.464,-1.22783,-178.484,5.31738,-142.998,1732
1569920280,368.461,-174.464,-1.22783,-178.484,5.33936,-142.998,1732
1569920280,368.461,-174.464,-1.22783,-178.484,5.33936,-142.998,1732
1569920280,368.461,-174.464,-1.22783,-178.484,5.33936,-142.998,1732
1569920280,368.461,-174.464,-1.22783,-178.484,5.33936,-142.998,1732
1569920280,368.461,-174.464,-1.22783,-178.484,5.33936,-142.998,1732
1569920280,368.461,-174.464,-1.22783,-178.484,5.33936,-142.998,1732
1569920280,368.461,-174.464,-1.22783,-178.484,5.33936,-142.998,1732
1569920280,368.461,-174.464,-1.22783,-178.484,5.33936,-142.998,1732
1569920280,368.461,-174.464,-1.22783,-178.484,5.33936,-142.998,1732
1569920280,368.461,-174.464,-1.22783,-178.484,5.33936,-142.998,1732
1569920280,368.461,-174.464,-1.22783,-178.484,5.33936,-142.998,1732
1569920280,368.461,-174.464,-1.22783,-178.484,5.33936,-142.998,1732
1569920280,368.461,-174.464,-1.22783,-178.484,5.33936,-142.998,1732
1569920280,368.461,-174.464,-1.22783,-178.506,5.33936,-142.998,1732
1569920280,368.461,-174.464,-1.22783,-178.506,5.33936,-142.998,1732
1569920280,368.461,-174.464,-1.22783,-178.506,5.33936,-142.998,1732
1569920280,368.461,-174.464,-1.22783,-178.506,5.33936,-142.998,1732
1569920280,368.461,-174.464,-1.22783,-178.506,5.33936,-142.998,1732
1569920280,368.461,-174.464,-1.22783,-178.506,5.33936,-142.998,1732
1569920280,368.461,-174.575,-1.22783,-178.506,5.33936,-142.998,1732
1569920280,368.461,-174.575,-1.22783,-178.528,5.33936,-142.998,1736
1569920280,368.461,-174.575,-1.22783,-178.528,5.33936,-142.998,1736
1569920280,368.461,-174.575,-1.22783,-178.528,5.33936,-142.998,1736
1569920280,368.461,-174.575,-1.22783,-178.528,5.33936,-142.998,1740
1569920280,368.461,-174.575,-1.22783,-178.528,5.33936,-142.998,1740
1569920280,368.461,-174.575,-1.22783,-178.528,5.33936,-142.998,1740
1569920280,368.461,-174.575,-1.22783,-178.528,5.33936,-142.998,1740
1569920280,368.461,-174.575,-1.22783,-178.528,5.33936,-142.998,1744
1569920280,368.461,-174.575,-1.22783,-178.528,5.33936,-142.998,1744
1569920280,368.461,-174.575,-1.22783,-178.528,5.33936,-142.998,1744
1569920280,368.461,-174.575,-1.22783,-178.506,5.33936,-142.998,1744
1569920280,368.461,-174.575,-1.22783,-178.506,5.33936,-142.998,1748
1569920280,368.573,-174.575,-1.22783,-178.506,5.33936,-142.998,1748
1569920280,368.573,-174.464,-1.22783,-178.506,5.33936,-142.998,1748
1569920280,368.573,-174.464,-1.22783,-178.506,5.33936,-142.998,1748
1569920280,368.573,-174.464,-1.22783,-178.506,5.33936,-142.998,1748
1569920280,368.573,-174.464,-1.22783,-178.484,5.33936,-142.998,1748
1569920280,368.573,-174.464,-1.22783,-178.484,5.33936,-142.998,1748
1569920280,368.573,-174.464,-1.22783,-178.484,5.33936,-143.02,1748
1569920280,368.461,-174.464,-1.22783,-178.484,5.33936,-143.02,1748
1569920280,368.461,-174.464,-1.22783,-178.484,5.33936,-143.02,1744
1569920280,368.461,-174.464,-1.22783,-178.484,5.33936,-143.02,1744
1569920280,368.461,-174.352,-1.22783,-178.484,5.33936,-143.02,1744
1569920280,368.461,-174.352,-1.22783,-178.484,5.33936,-143.02,1744
1569920280,368.461,-174.352,-1.22783,-178.484,5.33936,-143.02,1740
1569920280,368.461,-174.352,-1.22783,-178.484,5.33936,-143.02,1740
1569920280,368.461,-174.352,-1.22783,-178.484,5.33936,-143.02,1740
1569920280,368.461,-174.352,-1.22783,-178.484,5.33936,-143.02,1736
1569920280,368.461,-174.352,-1.22783,-178.484,5.33936,-143.02,1736
1569920280,368.461,-174.352,-1.22783,-178.484,5.33936,-143.02,1736
1569920280,368.461,-174.352,-1.22783,-178.484,5.33936,-143.02,1736
1569920280,368.461,-174.352,-1.22783,-178.484,5.33936,-143.02,1736
1569920280,368.461,-174.352,-1.22783,-178.484,5.33936,-143.02,1732
1569920280,368.461,-174.352,-1.22783,-178.484,5.33936,-143.02,1732
1569920280,368.461,-174.352,-1.22783,-178.484,5.33936,-143.02,1732
1569920280,368.461,-174.352,-1.22783,-178.484,5.33936,-143.02,1732
1569920280,368.461,-174.352,-1.22783,-178.484,5.33936,-143.02,1732
1569920280,368.461,-174.352,-1.22783,-178.484,5.36133,-143.02,1732
1569920280,368.461,-174.352,-1.22783,-178.484,5.36133,-143.02,1732
1569920280,368.461,-174.352,-1.22783,-178.484,5.36133,-143.02,1732
1569920280,368.461,-174.352,-1.22783,-178.484,5.36133,-143.02,1732
1569920280,368.461,-174.464,-1.22783,-178.484,5.36133,-142.998,1732
1569920280,368.461,-174.464,-1.22783,-178.506,5.36133,-142.998,1732
1569920280,368.461,-174.464,-1.22783,-178.506,5.36133,-142.998,1732
1569920280,368.461,-174.464,-1.22783,-178.506,5.36133,-142.998,1732
1569920280,368.461,-174.464,-1.22783,-178.506,5.36133,-142.998,1732
1569920280,368.461,-174.464,-1.22783,-178.506,5.36133,-142.998,1736
1569920280,368.573,-174.464,-1.22783,-178.506,5.36133,-142.998,1736
1569920280,368.573,-174.464,-1.22783,-178.506,5.36133,-142.998,1736
1569920280,368.573,-174.464,-1.22783,-178.506,5.36133,-142.998,1736
1569920280,368.573,-174.464,-1.22783,-178.506,5.36133,-142.998,1740
1569920280,368.573,-174.464,-1.22783,-178.506,5.36133,-142.998,1740
1569920280,368.573,-174.464,-1.22783,-178.506,5.36133,-142.998,1744
1569920280,368.573,-174.464,-1.22783,-178.506,5.36133,-142.998,1744
1569920280,368.573,-174.464,-1.22783,-178.506,5.36133,-142.998,1744
1569920280,368.573,-174.575,-1.11621,-178.528,5.36133,-142.998,1748
1569920280,368.573,-174.575,-1.11621,-178.528,5.36133,-142.998,1748
1569920280,368.573,-174.575,-1.11621,-178.528,5.36133,-142.998,1748
1569920280,368.573,-174.575,-1.11621,-178.528,5.36133,-142.998,1752
1569920280,368.573,-174.575,-1.11621,-178.528,5.36133,-142.998,1752
1569920280,368.573,-174.575,-1.11621,-178.528,5.36133,-143.02,1752
1569920280,368.573,-174.575,-1.22783,-178.528,5.36133,-143.02,1756
1569920280,368.573,-174.575,-1.22783,-178.528,5.36133,-143.02,1756
1569920280,368.573,-174.575,-1.22783,-178.528,5.36133,-143.02,1756
1569920280,368.461,-174.575,-1.22783,-178.528,5.36133,-143.02,1756
1569920280,368.461,-174.575,-1.22783,-178.528,5.36133,-143.02,1756
1569920280,368.461,-174.575,-1.22783,-178.528,5.36133,-143.02,1756
1569920280,368.461,-174.575,-1.22783,-178.528,5.36133,-143.02,1756
1569920280,368.461,-174.575,-1.22783,-178.528,5.36133,-143.02,1756
1569920280,368.461,-174.575,-1.22783,-178.528,5.36133,-143.02,1756
1569920280,368.461,-174.575,-1.22783,-178.528,5.36133,-143.02,1752
1569920280,368.461,-174.575,-1.22783,-178.528,5.36133,-143.02,1752
1569920280,368.461,-174.464,-1.22783,-178.528,5.36133,-143.02,1748
1569920280,368.461,-174.464,-1.22783,-178.528,5.36133,-143.02,1748
1569920280,368.461,-174.464,-1.22783,-178.528,5.36133,-143.02,1744
1569920280,368.461,-174.464,-1.22783,-178.528,5.36133,-143.02,1744
1569920280,368.461,-174.464,-1.22783,-178.528,5.36133,-143.02,1740
1569920280,368.461,-174.464,-1.22783,-178.528,5.33936,-143.02,1740
1569920280,368.461,-174.464,-1.22783,-178.528,5.33936,-143.02,1740
1569920281,368.461,-174.464,-1.22783,-178.528,5.33936,-142.998,1736
1569920281,368.461,-174.464,-1.22783,-178.528,5.33936,-142.998,1736
1569920281,368.461,-174.464,-1.22783,-178.528,5.33936,-142.998,1736
1569920281,368.461,-174.464,-1.22783,-178.528,5.33936,-142.998,1732
1569920281,368.461,-174.464,-1.22783,-178.528,5.33936,-142.998,1732
1569920281,368.461,-174.464,-1.22783,-178.528,5.33936,-142.998,1732
1569920281,368.461,-174.464,-1.22783,-178.528,5.33936,-142.998,1732
1569920281,368.461,-174.464,-1.22783,-178.528,5.33936,-142.998,1732
1569920281,368.461,-174.464,-1.22783,-178.528,5.33936,-142.998,1728
1569920281,368.461,-174.464,-1.22783,-178.528,5.33936,-142.998,1728
1569920281,368.461,-174.575,-1.22783,-178.528,5.33936,-142.998,1728
1569920281,368.461,-174.575,-1.22783,-178.528,5.33936,-142.998,1728
1569920281,368.461,-174.575,-1.22783,-178.528,5.33936,-142.998,1728
1569920281,368.461,-174.575,-1.22783,-178.528,5.33936,-142.998,1728
1569920281,368.461,-174.575,-1.22783,-178.528,5.33936,-142.998,1728
1569920281,368.461,-174.575,-1.22783,-178.528,5.33936,-142.998,1728
1569920281,368.461,-174.575,-1.33945,-178.528,5.31738,-142.998,1728
1569920281,368.461,-174.464,-1.33945,-178.528,5.31738,-142.998,1724
1569920281,368.461,-174.464,-1.33945,-178.506,5.31738,-142.998,1724
1569920281,368.461,-174.464,-1.33945,-178.506,5.31738,-142.998,1724
1569920281,368.461,-174.464,-1.33945,-178.506,5.31738,-142.998,1724
1569920281,368.461,-174.464,-1.33945,-178.506,5.31738,-142.998,1724
1569920281,368.461,-174.464,-1.22783,-178.506,5.31738,-142.998,1724
1569920281,368.461,-174.464,-1.22783,-178.506,5.33936,-142.998,1724
1569920281,368.461,-174.464,-1.22783,-178.506,5.33936,-142.998,1724
1569920281,368.461,-174.464,-1.22783,-178.506,5.33936,-142.998,1724
1569920281,368.461,-174.464,-1.22783,-178.506,5.33936,-142.998,1724
1569920281,368.461,-174.464,-1.22783,-178.506,5.33936,-142.998,1724
1569920281,368.573,-174.464,-1.22783,-178.506,5.33936,-142.998,1724
1569920281,368.573,-174.464,-1.22783,-178.506,5.33936,-142.998,1724
1569920281,368.573,-174.464,-1.22783,-178.506,5.33936,-142.998,1728
1569920281,368.573,-174.464,-1.22783,-178.506,5.33936,-142.998,1728
1569920281,368.573,-174.464,-1.22783,-178.506,5.33936,-142.998,1728
1569920281,368.573,-174.464,-1.22783,-178.506,5.33936,-142.998,1728
1569920281,368.573,-174.464,-1.22783,-178.506,5.33936,-142.998,1732
1569920281,368.573,-174.464,-1.22783,-178.506,5.36133,-142.998,1732
1569920281,368.573,-174.464,-1.22783,-178.506,5.36133,-142.998,1732
1569920281,368.573,-174.464,-1.22783,-178.506,5.36133,-142.998,1736
1569920281,368.573,-174.464,-1.22783,-178.506,5.36133,-142.998,1736
1569920281,368.573,-174.464,-1.22783,-178.506,5.36133,-142.998,1736
1569920281,368.573,-174.464,-1.22783,-178.506,5.36133,-142.998,1736
1569920281,368.573,-174.464,-1.22783,-178.506,5.36133,-142.998,1736
1569920281,368.573,-174.464,-1.22783,-178.506,5.36133,-142.998,1740
1569920281,368.573,-174.464,-1.22783,-178.506,5.36133,-142.998,1740
1569920281,368.573,-174.464,-1.22783,-178.484,5.36133,-142.998,1740
1569920281,368.573,-174.464,-1.22783,-178.484,5.36133,-142.998,1740
1569920281,368.573,-174.464,-1.22783,-178.484,5.36133,-142.998,1740
1569920281,368.573,-174.464,-1.22783,-178.484,5.36133,-142.998,1736
1569920281,368.573,-174.464,-1.22783,-178.484,5.36133,-142.998,1736
1569920281,368.573,-174.464,-1.22783,-178.484,5.36133,-142.998,1736
1569920281,368.461,-174.464,-1.22783,-178.484,5.36133,-142.998,1736
1569920281,368.461,-174.464,-1.22783,-178.484,5.36133,-142.998,1736
1569920281,368.461,-174.464,-1.22783,-178.484,5.36133,-142.998,1732
1569920281,368.461,-174.464,-1.22783,-178.484,5.36133,-142.998,1732
1569920281,368.461,-174.464,-1.22783,-178.484,5.36133,-142.998,1732
1569920281,368.461,-174.464,-1.11621,-178.484,5.36133,-142.998,1728
1569920281,368.461,-174.464,-1.11621,-178.484,5.36133,-142.998,1728
1569920281,368.461,-174.464,-1.11621,-178.484,5.36133,-142.998,1728
1569920281,368.461,-174.464,-1.11621,-178.484,5.3833,-142.998,1724
1569920281,368.461,-174.464,-1.11621,-178.484,5.3833,-142.998,1724
1569920281,368.461,-174.464,-1.11621,-178.506,5.3833,-142.976,1724
1569920281,368.461,-174.464,-1.11621,-178.506,5.3833,-142.976,1724
1569920281,368.461,-174.464,-1.11621,-178.506,5.3833,-142.976,1724
1569920281,368.461,-174.464,-1.11621,-178.506,5.3833,-142.998,1724
1569920281,368.461,-174.464,-1.11621,-178.506,5.36133,-142.976,1724
1569920281,368.461,-174.464,-1.11621,-178.506,5.36133,-142.976,1724
1569920281,368.461,-174.464,-1.11621,-178.506,5.36133,-142.976,1724
1569920281,368.461,-174.464,-1.11621,-178.506,5.36133,-142.976,1724
1569920281,368.461,-174.464,-1.11621,-178.506,5.36133,-142.976,1724
1569920281,368.461,-174.464,-1.11621,-178.506,5.36133,-142.976,1724
1569920281,368.461,-174.464,-1.11621,-178.506,5.36133,-142.976,1724
1569920281,368.461,-174.464,-1.11621,-178.506,5.36133,-142.976,1724
1569920281,368.461,-174.464,-1.11621,-178.506,5.36133,-142.976,1728
1569920281,368.461,-174.464,-1.11621,-178.506,5.36133,-142.976,1728
1569920281,368.461,-174.464,-1.11621,-178.506,5.36133,-142.976,1724
1569920281,368.461,-174.464,-1.11621,-178.506,5.36133,-142.976,1724
1569920281,368.461,-174.464,-1.11621,-178.506,5.36133,-142.976,1724
1569920281,368.461,-174.464,-1.22783,-178.506,5.36133,-142.976,1724
1569920281,368.461,-174.464,-1.22783,-178.506,5.36133,-142.976,1724
1569920281,368.573,-174.464,-1.22783,-178.506,5.36133,-142.976,1724
1569920281,368.573,-174.464,-1.22783,-178.506,5.36133,-142.976,1724
1569920281,368.573,-174.464,-1.22783,-178.506,5.36133,-142.976,1724
1569920281,368.573,-174.464,-1.22783,-178.506,5.36133,-142.976,1724
1569920281,368.573,-174.464,-1.22783,-178.484,5.36133,-142.976,1724
1569920281,368.573,-174.464,-1.22783,-178.484,5.36133,-142.976,1724
1569920281,368.573,-174.464,-1.22783,-178.484,5.36133,-142.976,1724
1569920281,368.573,-174.464,-1.22783,-178.484,5.36133,-142.976,1724
1569920281,368.573,-174.464,-1.22783,-178.484,5.36133,-142.976,1728
1569920281,368.573,-174.464,-1.11621,-178.484,5.36133,-142.976,1728
1569920281,368.573,-174.464,-1.11621,-178.484,5.36133,-142.998,1728
1569920281,368.573,-174.464,-1.11621,-178.484,5.36133,-142.998,1732
1569920281,368.573,-174.464,-1.11621,-178.484,5.36133,-142.998,1732
1569920281,368.573,-174.464,-1.11621,-178.484,5.3833,-142.998,1736
1569920281,368.573,-174.464,-1.11621,-178.506,5.3833,-142.998,1736
1569920281,368.573,-174.464,-1.11621,-178.506,5.3833,-142.998,1736
1569920281,368.573,-174.464,-1.11621,-178.506,5.3833,-142.976,1740
1569920281,368.573,-174.464,-1.11621,-178.506,5.3833,-142.976,1740
1569920281,368.573,-174.464,-1.11621,-178.506,5.3833,-142.976,1740
1569920281,368.573,-174.464,-1.00459,-178.506,5.40527,-142.998,1740
1569920281,368.461,-174.464,-1.00459,-178.506,5.40527,-142.998,1740
1569920282,368.461,-174.464,-1.00459,-178.506,5.40527,-142.998,1740
1569920282,368.461,-174.464,-1.00459,-178.506,5.40527,-142.998,1740
1569920282,368.461,-174.464,-1.00459,-178.506,5.40527,-142.998,1740
1569920282,368.461,-174.464,-1.00459,-178.506,5.40527,-142.998,1740
1569920282,368.461,-174.464,-1.00459,-178.506,5.40527,-142.998,1740
1569920282,368.461,-174.464,-1.00459,-178.506,5.40527,-142.998,1740
1569920282,368.461,-174.464,-1.00459,-178.506,5.40527,-142.998,1740
1569920282,368.461,-174.464,-1.00459,-178.506,5.40527,-142.998,1744
1569920282,368.461,-174.464,-1.00459,-178.506,5.40527,-142.998,1744
1569920282,368.461,-174.464,-1.00459,-178.506,5.3833,-142.998,1744
1569920282,368.461,-174.464,-1.00459,-178.484,5.3833,-142.998,1744
1569920282,368.461,-174.464,-1.11621,-178.484,5.3833,-142.998,1744
1569920282,368.461,-174.464,-1.11621,-178.484,5.3833,-142.998,1744
1569920282,368.461,-174.464,-1.11621,-178.484,5.3833,-142.998,1744
1569920282,368.461,-174.464,-1.11621,-178.506,5.3833,-142.998,1744
1569920282,368.461,-174.464,-1.11621,-178.506,5.36133,-142.998,1744
1569920282,368.461,-174.464,-1.11621,-178.506,5.36133,-142.976,1744
1569920282,368.461,-174.464,-1.11621,-178.506,5.36133,-142.976,1744
1569920282,368.461,-174.464,-1.11621,-178.506,5.36133,-142.976,1744
1569920282,368.461,-174.464,-1.11621,-178.506,5.36133,-142.976,1744
1569920282,368.461,-174.464,-1.11621,-178.506,5.36133,-142.976,1740
1569920282,368.461,-174.464,-1.11621,-178.506,5.36133,-142.976,1740
1569920282,368.461,-174.464,-1.11621,-178.506,5.36133,-142.976,1740
1569920282,368.461,-174.464,-1.11621,-178.506,5.36133,-142.976,1740
1569920282,368.461,-174.464,-1.11621,-178.506,5.36133,-142.976,1740
1569920282,368.461,-174.464,-1.11621,-178.506,5.36133,-142.976,1740
1569920282,368.461,-174.464,-1.11621,-178.506,5.36133,-142.976,1740
1569920282,368.461,-174.464,-1.11621,-178.506,5.36133,-142.976,1740
1569920282,368.461,-174.464,-1.11621,-178.484,5.3833,-142.976,1736
1569920282,368.461,-174.464,-1.11621,-178.484,5.3833,-142.976,1736
1569920282,368.461,-174.464,-1.11621,-178.484,5.3833,-142.976,1736
1569920282,368.461,-174.464,-1.11621,-178.484,5.3833,-142.976,1736
1569920282,368.461,-174.464,-1.11621,-178.484,5.3833,-142.976,1736
1569920282,368.461,-174.464,-1.11621,-178.484,5.3833,-142.976,1736
1569920282,368.461,-174.464,-1.11621,-178.484,5.3833,-142.976,1732
1569920282,368.461,-174.464,-1.11621,-178.484,5.3833,-142.976,1732
1569920282,368.461,-174.464,-1.11621,-178.506,5.3833,-142.976,1732
1569920282,368.461,-174.464,-1.11621,-178.506,5.3833,-142.976,1732
1569920282,368.461,-174.464,-1.11621,-178.506,5.3833,-142.976,1728
1569920282,368.461,-174.464,-1.11621,-178.506,5.3833,-142.976,1728
1569920282,368.461,-174.464,-1.11621,-178.506,5.3833,-142.976,1728
1569920282,368.461,-174.464,-1.11621,-178.506,5.3833,-142.976,1724
1569920282,368.461,-174.464,-1.11621,-178.506,5.3833,-142.976,1724
1569920282,368.461,-174.464,-1.11621,-178.506,5.3833,-142.976,1724
1569920282,368.461,-174.464,-1.00459,-178.506,5.3833,-142.976,1724
1569920282,368.461,-174.464,-1.00459,-178.484,5.40527,-142.976,1720
1569920282,368.461,-174.464,-1.00459,-178.484,5.40527,-142.976,1720
1569920282,368.461,-174.464,-1.00459,-178.484,5.40527,-142.976,1720
1569920282,368.461,-174.464,-1.00459,-178.484,5.40527,-142.976,1720
1569920282,368.461,-174.464,-1.00459,-178.484,5.40527,-142.976,1720
1569920282,368.461,-174.464,-1.00459,-178.484,5.3833,-142.998,1720
1569920282,368.461,-174.464,-1.00459,-178.484,5.3833,-142.998,1720
1569920282,368.461,-174.464,-1.00459,-178.484,5.3833,-142.998,1720
1569920282,368.461,-174.464,-1.11621,-178.484,5.3833,-142.998,1720
1569920282,368.461,-174.464,-1.11621,-178.484,5.3833,-142.998,1720
1569920282,368.461,-174.464,-1.11621,-178.484,5.3833,-142.998,1720
1569920282,368.461,-174.464,-1.00459,-178.484,5.3833,-142.998,1720
1569920282,368.461,-174.464,-1.00459,-178.484,5.3833,-142.976,1720
1569920282,368.461,-174.464,-1.00459,-178.484,5.3833,-142.976,1720
1569920282,368.461,-174.464,-1.00459,-178.484,5.40527,-142.976,1724
1569920282,368.461,-174.464,-1.00459,-178.484,5.40527,-142.976,1724
1569920282,368.461,-174.464,-1.00459,-178.484,5.40527,-142.976,1724
1569920282,368.461,-174.464,-1.00459,-178.484,5.40527,-142.976,1724
1569920282,368.461,-174.464,-1.00459,-178.484,5.40527,-142.976,1724
1569920282,368.461,-174.464,-1.00459,-178.484,5.40527,-142.976,1724
1569920282,368.573,-174.464,-1.00459,-178.484,5.40527,-142.976,1728
1569920282,368.573,-174.464,-1.00459,-178.484,5.40527,-142.976,1728
1569920282,368.573,-174.464,-1.00459,-178.462,5.3833,-142.976,1728
1569920282,368.573,-174.464,-1.00459,-178.462,5.3833,-142.976,1728
1569920282,368.573,-174.464,-1.11621,-178.484,5.3833,-142.976,1732
1569920282,368.573,-174.464,-1.11621,-178.484,5.3833,-142.976,1732
1569920282,368.573,-174.464,-1.11621,-178.484,5.3833,-142.976,1732
1569920282,368.573,-174.464,-1.11621,-178.484,5.36133,-142.976,1732
1569920282,368.573,-174.464,-1.11621,-178.484,5.36133,-142.976,1736
1569920282,368.573,-174.464,-1.11621,-178.484,5.36133,-142.976,1736
1569920282,368.573,-174.464,-1.11621,-178.484,5.36133,-142.976,1736
1569920282,368.573,-174.464,-1.11621,-178.484,5.36133,-142.976,1736
1569920282,368.573,-174.464,-1.22783,-178.484,5.36133,-142.976,1736
1569920282,368.573,-174.464,-1.22783,-178.484,5.33936,-142.976,1736
1569920282,368.573,-174.464,-1.22783,-178.484,5.33936,-142.976,1736
1569920282,368.573,-174.464,-1.22783,-178.484,5.33936,-142.976,1736
1569920282,368.573,-174.464,-1.22783,-178.484,5.33936,-142.976,1736
1569920282,368.573,-174.464,-1.22783,-178.484,5.33936,-142.976,1736
1569920282,368.573,-174.464,-1.22783,-178.484,5.33936,-142.976,1736
1569920282,368.573,-174.464,-1.22783,-178.484,5.33936,-142.976,1736
1569920282,368.573,-174.464,-1.22783,-178.484,5.33936,-142.998,1736
1569920282,368.573,-174.464,-1.22783,-178.484,5.33936,-142.998,1736
1569920282,368.573,-174.464,-1.22783,-178.484,5.33936,-142.998,1736
1569920282,368.573,-174.464,-1.22783,-178.484,5.33936,-142.998,1736
1569920282,368.573,-174.464,-1.22783,-178.484,5.33936,-142.998,1732
1569920282,368.573,-174.464,-1.22783,-178.462,5.33936,-142.998,1732
1569920282,368.573,-174.464,-1.22783,-178.462,5.33936,-142.998,1732
1569920282,368.573,-174.464,-1.22783,-178.462,5.33936,-142.998,1732
1569920282,368.573,-174.464,-1.22783,-178.484,5.33936,-142.998,1732
1569920282,368.573,-174.464,-1.22783,-178.484,5.33936,-142.998,1728
1569920282,368.573,-174.464,-1.22783,-178.484,5.36133,-142.998,1728
1569920282,368.573,-174.464,-1.22783,-178.484,5.36133,-142.998,1728
1569920282,368.573,-174.464,-1.22783,-178.484,5.36133,-142.998,1724
1569920282,368.573,-174.464,-1.22783,-178.484,5.36133,-142.998,1724
1569920282,368.461,-174.464,-1.22783,-178.484,5.36133,-142.998,1724
1569920283,368.461,-174.464,-1.22783,-178.484,5.36133,-142.998,1720
1569920283,368.461,-174.464,-1.22783,-178.484,5.36133,-142.998,1720
1569920283,368.461,-174.464,-1.22783,-178.484,5.36133,-142.998,1720
1569920283,368.461,-174.464,-1.22783,-178.484,5.36133,-142.998,1720
1569920283,368.461,-174.464,-1.22783,-178.484,5.36133,-142.998,1720
1569920283,368.461,-174.464,-1.22783,-178.484,5.36133,-142.998,1716
1569920283,368.461,-174.464,-1.22783,-178.484,5.36133,-142.998,1716
1569920283,368.461,-174.464,-1.22783,-178.484,5.33936,-142.998,1716
1569920283,368.461,-174.464,-1.22783,-178.484,5.33936,-142.998,1716
1569920283,368.461,-174.464,-1.22783,-178.484,5.33936,-142.998,1716
1569920283,368.461,-174.464,-1.22783,-178.484,5.33936,-142.998,1716
1569920283,368.461,-174.464,-1.22783,-178.484,5.33936,-142.998,1720
1569920283,368.461,-174.464,-1.33945,-178.484,5.33936,-142.998,1720
1569920283,368.461,-174.464,-1.33945,-178.506,5.33936,-142.998,1720
1569920283,368.461,-174.464,-1.33945,-178.506,5.33936,-142.998,1720
1569920283,368.461,-174.464,-1.33945,-178.506,5.33936,-142.998,1720
1569920283,368.461,-174.464,-1.33945,-178.506,5.33936,-142.998,1720
1569920283,368.461,-174.464,-1.33945,-178.506,5.31738,-142.998,1720
1569920283,368.461,-174.464,-1.33945,-178.506,5.33936,-142.998,1720
1569920283,368.461,-174.464,-1.33945,-178.506,5.33936,-142.998,1720
1569920283,368.461,-174.464,-1.22783,-178.506,5.33936,-142.998,1720
1569920283,368.461,-174.464,-1.22783,-178.506,5.33936,-142.998,1720
1569920283,368.461,-174.464,-1.22783,-178.506,5.33936,-142.998,1716
1569920283,368.461,-174.464,-1.22783,-178.506,5.33936,-142.998,1716
1569920283,368.461,-174.464,-1.22783,-178.506,5.33936,-142.998,1716
1569920283,368.461,-174.464,-1.22783,-178.506,5.33936,-142.998,1716
1569920283,368.461,-174.464,-1.22783,-178.506,5.33936,-142.998,1716
1569920283,368.461,-174.464,-1.22783,-178.506,5.33936,-142.998,1716
1569920283,368.461,-174.464,-1.22783,-178.506,5.33936,-142.998,1716
1569920283,368.461,-174.464,-1.22783,-178.506,5.33936,-142.998,1716
1569920283,368.461,-174.464,-1.22783,-178.506,5.33936,-142.998,1716
1569920283,368.461,-174.464,-1.22783,-178.506,5.33936,-142.998,1716
1569920283,368.461,-174.464,-1.22783,-178.506,5.36133,-142.998,1712
1569920283,368.461,-174.464,-1.22783,-178.506,5.36133,-142.998,1712
1569920283,368.461,-174.464,-1.11621,-178.506,5.36133,-142.998,1712
1569920283,368.461,-174.464,-1.11621,-178.506,5.36133,-142.998,1712
1569920283,368.461,-174.464,-1.11621,-178.506,5.36133,-142.998,1712
1569920283,368.461,-174.464,-1.11621,-178.506,5.36133,-142.998,1712
1569920283,368.461,-174.464,-1.22783,-178.506,5.36133,-142.998,1712
1569920283,368.461,-174.464,-1.22783,-178.506,5.33936,-142.998,1716
1569920283,368.461,-174.575,-1.22783,-178.506,5.33936,-142.998,1716
1569920283,368.461,-174.575,-1.22783,-178.506,5.33936,-142.998,1716
1569920283,368.461,-174.575,-1.22783,-178.506,5.33936,-142.998,1716
1569920283,368.461,-174.575,-1.22783,-178.506,5.33936,-142.998,1716
1569920283,368.461,-174.575,-1.22783,-178.506,5.33936,-142.998,1716
1569920283,368.461,-174.575,-1.22783,-178.506,5.33936,-142.998,1716
1569920283,368.461,-174.464,-1.22783,-178.506,5.33936,-142.998,1716
1569920283,368.461,-174.464,-1.22783,-178.506,5.33936,-142.998,1720
1569920283,368.461,-174.464,-1.22783,-178.506,5.33936,-142.998,1720
1569920283,368.461,-174.464,-1.22783,-178.506,5.33936,-142.998,1720
1569920283,368.461,-174.464,-1.22783,-178.506,5.33936,-142.998,1720
1569920283,368.461,-174.464,-1.22783,-178.506,5.33936,-142.998,1720
1569920283,368.461,-174.464,-1.22783,-178.506,5.33936,-142.998,1720
1569920283,368.573,-174.464,-1.22783,-178.506,5.33936,-142.998,1720
1569920283,368.573,-174.464,-1.22783,-178.506,5.33936,-142.998,1720
1569920283,368.573,-174.464,-1.22783,-178.506,5.33936,-142.998,1716
1569920283,368.573,-174.464,-1.22783,-178.506,5.33936,-142.998,1716
1569920283,368.573,-174.464,-1.22783,-178.506,5.33936,-142.998,1720
1569920283,368.461,-174.464,-1.22783,-178.506,5.33936,-142.998,1720
1569920283,368.461,-174.464,-1.22783,-178.506,5.33936,-142.998,1720
1569920283,368.573,-174.464,-1.22783,-178.506,5.33936,-142.998,1720
1569920283,368.573,-174.464,-1.22783,-178.506,5.33936,-142.998,1720
1569920283,368.573,-174.464,-1.22783,-178.506,5.33936,-142.998,1720
1569920283,368.573,-174.575,-1.22783,-178.506,5.33936,-142.998,1720
1569920283,368.573,-174.575,-1.22783,-178.506,5.33936,-142.998,1720
1569920283,368.573,-174.575,-1.22783,-178.506,5.33936,-142.998,1724
1569920283,368.573,-174.575,-1.22783,-178.506,5.33936,-142.998,1724
1569920283,368.573,-174.575,-1.22783,-178.506,5.33936,-142.998,1724
1569920283,368.573,-174.575,-1.22783,-178.506,5.33936,-142.998,1728
1569920283,368.573,-174.575,-1.22783,-178.506,5.33936,-142.998,1728
1569920283,368.573,-174.575,-1.22783,-178.506,5.36133,-142.998,1728
1569920283,368.573,-174.575,-1.22783,-178.506,5.36133,-142.998,1728
1569920283,368.573,-174.575,-1.22783,-178.506,5.36133,-142.998,1728
1569920283,368.573,-174.464,-1.22783,-178.506,5.36133,-142.998,1732
1569920283,368.573,-174.464,-1.22783,-178.506,5.36133,-142.998,1732
1569920283,368.573,-174.464,-1.22783,-178.506,5.36133,-142.998,1732
1569920283,368.573,-174.464,-1.22783,-178.506,5.36133,-142.998,1732
1569920283,368.573,-174.464,-1.22783,-178.506,5.36133,-143.02,1736
1569920283,368.573,-174.464,-1.22783,-178.506,5.36133,-143.02,1736
1569920283,368.573,-174.464,-1.22783,-178.506,5.36133,-143.02,1736
1569920283,368.573,-174.464,-1.22783,-178.506,5.36133,-143.02,1736
1569920283,368.573,-174.464,-1.22783,-178.506,5.36133,-143.02,1736
1569920283,368.573,-174.464,-1.22783,-178.506,5.36133,-143.02,1736
1569920283,368.573,-174.464,-1.22783,-178.506,5.36133,-143.02,1736
1569920283,368.573,-174.464,-1.22783,-178.506,5.36133,-143.02,1736
1569920283,368.573,-174.464,-1.22783,-178.506,5.36133,-143.02,1740
1569920283,368.573,-174.464,-1.22783,-178.506,5.36133,-143.02,1740
1569920283,368.573,-174.464,-1.22783,-178.506,5.36133,-142.998,1740
1569920283,368.573,-174.464,-1.22783,-178.506,5.36133,-142.998,1740
1569920283,368.573,-174.464,-1.22783,-178.506,5.36133,-142.998,1740
1569920283,368.573,-174.464,-1.22783,-178.506,5.36133,-142.998,1740
1569920283,368.573,-174.464,-1.22783,-178.506,5.36133,-142.998,1740
1569920283,368.573,-174.464,-1.22783,-178.506,5.36133,-142.998,1744
1569920283,368.573,-174.464,-1.22783,-178.484,5.36133,-142.998,1744
1569920283,368.573,-174.464,-1.22783,-178.484,5.33936,-142.998,1744
1569920283,368.573,-174.464,-1.22783,-178.484,5.33936,-142.998,1744
1569920283,368.573,-174.464,-1.22783,-178.484,5.33936,-142.998,1744
1569920283,368.573,-174.464,-1.22783,-178.484,5.33936,-142.998,1748
1569920283,368.573,-174.464,-1.22783,-178.484,5.33936,-142.998,1748
1569920283,368.573,-174.464,-1.22783,-178.484,5.33936,-142.998,1748
1569920284,368.573,-174.464,-1.22783,-178.506,5.33936,-142.998,1748
1569920284,368.573,-174.464,-1.22783,-178.506,5.33936,-142.998,1748
1569920284,368.573,-174.464,-1.22783,-178.484,5.33936,-142.998,1748
1569920284,368.573,-174.464,-1.22783,-178.484,5.33936,-142.998,1748
1569920284,368.573,-174.464,-1.22783,-178.484,5.33936,-142.998,1748
1569920284,368.573,-174.464,-1.22783,-178.484,5.33936,-142.998,1748
1569920284,368.573,-174.464,-1.22783,-178.484,5.33936,-142.998,1748
1569920284,368.573,-174.464,-1.22783,-178.484,5.33936,-142.998,1748
1569920284,368.573,-174.464,-1.22783,-178.484,5.33936,-142.998,1748
1569920284,368.573,-174.464,-1.22783,-178.484,5.33936,-142.998,1744
1569920284,368.573,-174.464,-1.22783,-178.484,5.33936,-142.998,1744
1569920284,368.573,-174.464,-1.22783,-178.484,5.33936,-142.998,1744
1569920284,368.573,-174.464,-1.22783,-178.484,5.33936,-142.998,1744
1569920284,368.573,-174.464,-1.22783,-178.484,5.36133,-142.998,1744
1569920284,368.573,-174.464,-1.22783,-178.484,5.36133,-142.998,1744
1569920284,368.573,-174.464,-1.22783,-178.484,5.36133,-142.998,1744
1569920284,368.573,-174.464,-1.11621,-178.484,5.36133,-142.998,1744
1569920284,368.573,-174.464,-1.11621,-178.484,5.3833,-142.998,1744
1569920284,368.573,-174.464,-1.11621,-178.506,5.3833,-142.998,1744
1569920284,368.461,-174.464,-1.11621,-178.506,5.3833,-142.998,1744
1569920284,368.461,-174.464,-1.11621,-178.506,5.3833,-142.998,1740
1569920284,368.461,-174.464,-1.11621,-178.506,5.40527,-142.998,1740
1569920284,368.461,-174.464,-1.00459,-178.506,5.40527,-142.976,1740
1569920284,368.461,-174.464,-1.00459,-178.506,5.40527,-142.976,1740
1569920284,368.461,-174.464,-1.00459,-178.506,5.40527,-142.976,1740
1569920284,368.461,-174.464,-1.11621,-178.506,5.40527,-142.976,1740
1569920284,368.461,-174.464,-1.11621,-178.506,5.3833,-142.976,1740
1569920284,368.461,-174.464,-1.11621,-178.506,5.3833,-142.976,1736
1569920284,368.461,-174.464,-1.11621,-178.506,5.3833,-142.976,1736
1569920284,368.461,-174.464,-1.11621,-178.506,5.3833,-142.976,1736
1569920284,368.461,-174.464,-1.11621,-178.506,5.3833,-142.976,1732
1569920284,368.461,-174.464,-1.11621,-178.506,5.3833,-142.998,1732
1569920284,368.461,-174.464,-1.11621,-178.506,5.3833,-142.998,1732
1569920284,368.573,-174.464,-1.11621,-178.506,5.3833,-142.998,1732
1569920284,368.573,-174.464,-1.11621,-178.506,5.3833,-142.998,1732
1569920284,368.573,-174.464,-1.11621,-178.506,5.3833,-142.998,1732
1569920284,368.573,-174.464,-1.11621,-178.506,5.3833,-142.998,1732
1569920284,368.573,-174.464,-1.11621,-178.506,5.3833,-142.998,1732
1569920284,368.573,-174.464,-1.11621,-178.506,5.3833,-142.998,1732
1569920284,368.573,-174.464,-1.11621,-178.506,5.3833,-142.998,1732
1569920284,368.573,-174.464,-1.11621,-178.506,5.3833,-142.998,1732
1569920284,368.573,-174.464,-1.11621,-178.506,5.3833,-142.998,1732
1569920284,368.573,-174.464,-1.11621,-178.506,5.3833,-142.998,1736
1569920284,368.573,-174.464,-1.11621,-178.506,5.3833,-142.998,1736
1569920284,368.573,-174.464,-1.11621,-178.506,5.3833,-142.976,1736
1569920284,368.573,-174.464,-1.11621,-178.506,5.3833,-142.976,1736
1569920284,368.573,-174.464,-1.11621,-178.506,5.3833,-142.976,1736
1569920284,368.573,-174.464,-1.11621,-178.506,5.3833,-142.976,1736
1569920284,368.573,-174.464,-1.11621,-178.506,5.3833,-142.976,1736
1569920284,368.573,-174.464,-1.11621,-178.506,5.36133,-142.976,1736
1569920284,368.461,-174.575,-1.11621,-178.528,5.36133,-142.976,1736
1569920284,368.461,-174.575,-1.11621,-178.528,5.36133,-142.976,1736
1569920284,368.461,-174.575,-1.11621,-178.528,5.36133,-142.976,1736
1569920284,368.461,-174.575,-1.11621,-178.528,5.36133,-142.976,1736
1569920284,368.461,-174.575,-1.11621,-178.528,5.36133,-142.976,1736
1569920284,368.461,-174.575,-1.11621,-178.528,5.36133,-142.976,1736
1569920284,368.461,-174.575,-1.11621,-178.528,5.36133,-142.976,1736
1569920284,368.461,-174.575,-1.11621,-178.528,5.36133,-142.976,1736
1569920284,368.461,-174.575,-1.11621,-178.528,5.36133,-142.976,1732
1569920284,368.461,-174.464,-1.11621,-178.528,5.3833,-142.976,1732
1569920284,368.461,-174.464,-1.11621,-178.528,5.3833,-142.976,1732
1569920284,368.461,-174.464,-1.11621,-178.528,5.3833,-142.976,1732
1569920284,368.461,-174.464,-1.11621,-178.528,5.36133,-142.976,1732
1569920284,368.461,-174.464,-1.11621,-178.528,5.36133,-142.976,1732
1569920284,368.461,-174.464,-1.11621,-178.528,5.36133,-142.976,1732
1569920284,368.461,-174.464,-1.11621,-178.528,5.36133,-142.976,1728
1569920284,368.461,-174.575,-1.11621,-178.528,5.36133,-142.976,1728
1569920284,368.461,-174.575,-1.11621,-178.528,5.36133,-142.976,1728
1569920284,368.461,-174.575,-1.11621,-178.528,5.36133,-142.976,1728
1569920284,368.461,-174.575,-1.11621,-178.528,5.36133,-142.976,1728
1569920284,368.461,-174.575,-1.11621,-178.528,5.3833,-142.976,1728
1569920284,368.461,-174.575,-1.11621,-178.528,5.3833,-142.976,1732
1569920284,368.461,-174.464,-1.11621,-178.528,5.3833,-142.976,1732
1569920284,368.461,-174.464,-1.00459,-178.528,5.3833,-142.976,1732
1569920284,368.461,-174.464,-1.00459,-178.528,5.3833,-142.998,1732
1569920284,368.461,-174.464,-1.00459,-178.528,5.3833,-142.998,1732
1569920284,368.461,-174.464,-1.11621,-178.506,5.3833,-142.998,1732
1569920284,368.461,-174.464,-1.00459,-178.506,5.3833,-142.998,1732
1569920284,368.461,-174.464,-1.00459,-178.506,5.3833,-142.998,1732
1569920284,368.461,-174.464,-1.00459,-178.506,5.3833,-142.998,1732
1569920284,368.461,-174.464,-1.00459,-178.506,5.3833,-142.998,1728
1569920284,368.461,-174.464,-1.00459,-178.506,5.3833,-142.998,1728
1569920284,368.461,-174.464,-1.11621,-178.506,5.3833,-142.998,1728
1569920288,351.941,-158.39,0.111621,-178.704,6.30615,-143.196,1692
1569920288,351.941,-158.39,0.111621,-178.704,6.30615,-143.196,1692
1569920288,351.941,-158.39,0.111621,-178.704,6.30615,-143.196,1692
1569920288,351.941,-158.39,0.111621,-178.704,6.30615,-143.196,1692
1569920288,351.941,-158.39,0.111621,-178.704,6.30615,-143.196,1692
1569920288,351.941,-158.39,0.111621,-178.704,6.30615,-143.196,1692
1569920288,351.941,-158.39,0.111621,-178.704,6.30615,-143.196,1692
1569920288,351.941,-158.502,0.111621,-178.704,6.30615,-143.196,1692
1569920288,351.941,-158.502,0.111621,-178.704,6.28418,-143.196,1692
1569920288,351.941,-158.502,0.111621,-178.704,6.28418,-143.196,1692
1569920288,351.941,-158.502,0.111621,-178.704,6.28418,-143.218,1692
1569920288,351.83,-158.502,0.111621,-178.704,6.28418,-143.218,1692
1569920288,351.83,-158.502,0.111621,-178.704,6.28418,-143.218,1688
1569920288,351.83,-158.502,0.111621,-178.726,6.28418,-143.218,1688
1569920288,351.83,-158.502,0,-178.726,6.26221,-143.218,1688
1569920288,351.83,-158.502,0,-178.726,6.26221,-143.218,1688
1569920288,351.83,-158.502,0,-178.726,6.26221,-143.218,1688
1569920288,351.83,-158.502,0,-178.726,6.26221,-143.218,1688
1569920288,351.83,-158.502,0,-178.704,6.26221,-143.218,1688
1569920288,351.83,-158.502,0,-178.704,6.26221,-143.218,1688
1569920288,351.83,-158.502,0,-178.726,6.26221,-143.218,1688
1569920288,351.83,-158.502,0,-178.726,6.24023,-143.218,1688
1569920288,351.83,-158.502,0,-178.726,6.24023,-143.218,1688
1569920288,351.83,-158.502,0,-178.726,6.24023,-143.218,1684
1569920288,351.83,-158.502,0,-178.726,6.24023,-143.218,1684
1569920288,351.83,-158.502,0,-178.726,6.26221,-143.218,1684
1569920288,351.83,-158.502,0,-178.726,6.26221,-143.218,1684
1569920288,351.83,-158.502,0,-178.726,6.26221,-143.218,1684
1569920288,351.83,-158.502,0,-178.726,6.26221,-143.218,1684
1569920288,351.83,-158.502,0,-178.726,6.26221,-143.218,1684
1569920288,351.83,-158.502,0,-178.726,6.26221,-143.218,1684
1569920288,351.83,-158.502,0,-178.726,6.26221,-143.218,1688
1569920288,351.83,-158.502,0,-178.726,6.26221,-143.218,1688
1569920288,351.83,-158.502,0,-178.726,6.26221,-143.218,1688
1569920288,351.83,-158.502,0,-178.726,6.26221,-143.218,1688
1569920289,351.83,-158.502,0,-178.726,6.26221,-143.218,1688
1569920289,351.941,-158.502,0,-178.726,6.26221,-143.218,1688
1569920289,351.941,-158.502,0,-178.726,6.26221,-143.218,1688
1569920289,351.941,-158.502,0,-178.726,6.26221,-143.218,1692
1569920289,351.941,-158.502,0,-178.726,6.26221,-143.218,1692
1569920289,351.941,-158.502,0,-178.726,6.26221,-143.218,1692
1569920289,351.941,-158.502,0,-178.726,6.26221,-143.218,1692
1569920289,351.941,-158.502,0,-178.726,6.26221,-143.218,1696
1569920289,351.941,-158.502,0,-178.726,6.26221,-143.218,1696
1569920289,351.941,-158.502,0,-178.726,6.26221,-143.218,1696
1569920289,351.941,-158.502,0,-178.726,6.26221,-143.218,1696
1569920289,351.941,-158.502,0,-178.726,6.24023,-143.218,1696
1569920289,351.941,-158.502,0,-178.726,6.24023,-143.218,1700
1569920289,351.941,-158.502,0,-178.726,6.24023,-143.218,1700
1569920289,351.941,-158.502,0,-178.726,6.24023,-143.218,1700
1569920289,351.941,-158.502,0,-178.726,6.24023,-143.218,1700
1569920289,351.941,-158.502,0,-178.726,6.24023,-143.218,1700
1569920289,351.941,-158.502,0,-178.726,6.24023,-143.218,1700
1569920289,351.941,-158.502,0,-178.726,6.24023,-143.218,1704
1569920289,351.941,-158.502,0,-178.726,6.24023,-143.218,1704
1569920289,351.941,-158.502,0,-178.726,6.24023,-143.218,1704
1569920289,351.941,-158.502,0,-178.726,6.24023,-143.218,1704
1569920289,351.941,-158.502,0,-178.726,6.24023,-143.218,1704
1569920289,351.941,-158.502,0,-178.726,6.24023,-143.218,1704
1569920289,351.941,-158.502,0,-178.726,6.24023,-143.218,1700
1569920289,351.941,-158.502,0,-178.726,6.24023,-143.218,1700
1569920289,351.83,-158.502,0,-178.726,6.24023,-143.218,1700
1569920289,351.83,-158.502,0,-178.726,6.24023,-143.218,1700
1569920289,351.83,-158.502,0,-178.726,6.24023,-143.218,1700
1569920289,351.83,-158.502,0,-178.726,6.24023,-143.218,1700
1569920289,351.83,-158.502,0,-178.726,6.26221,-143.218,1700
1569920289,351.83,-158.502,0,-178.726,6.26221,-143.218,1700
1569920289,351.83,-158.502,0,-178.726,6.26221,-143.218,1700
1569920289,351.83,-158.502,0,-178.726,6.26221,-143.218,1700
1569920289,351.83,-158.502,0,-178.726,6.26221,-143.218,1696
1569920289,351.83,-158.502,0,-178.704,6.26221,-143.218,1696
1569920289,351.83,-158.502,0,-178.704,6.26221,-143.218,1696
1569920289,351.941,-158.502,0,-178.704,6.26221,-143.218,1696
1569920289,351.941,-158.502,0,-178.704,6.26221,-143.218,1696
1569920289,351.941,-158.502,0,-178.704,6.24023,-143.218,1696
1569920289,351.941,-158.502,0,-178.704,6.24023,-143.218,1696
1569920289,351.941,-158.502,0,-178.704,6.24023,-143.218,1696
1569920289,351.941,-158.502,0,-178.704,6.24023,-143.218,1696
1569920289,351.941,-158.502,0,-178.704,6.24023,-143.218,1692
1569920289,351.941,-158.502,0,-178.726,6.24023,-143.218,1692
1569920289,351.83,-158.502,0,-178.726,6.24023,-143.218,1692
1569920289,351.83,-158.502,0,-178.726,6.24023,-143.218,1692
1569920289,351.83,-158.502,0,-178.726,6.24023,-143.218,1692
1569920289,351.83,-158.502,0,-178.726,6.24023,-143.218,1692
1569920289,351.83,-158.502,0,-178.726,6.24023,-143.218,1692
1569920289,351.83,-158.502,0,-178.726,6.24023,-143.218,1692
1569920289,351.83,-158.502,0,-178.726,6.24023,-143.218,1692
1569920289,351.83,-158.502,0,-178.726,6.24023,-143.218,1692
1569920289,351.83,-158.502,0,-178.726,6.24023,-143.218,1692
1569920289,351.83,-158.502,0,-178.726,6.24023,-143.218,1692
1569920289,351.83,-158.502,0,-178.726,6.24023,-143.218,1692
1569920289,351.83,-158.502,0,-178.726,6.24023,-143.218,1692
1569920289,351.83,-158.502,0,-178.726,6.24023,-143.218,1692
1569920289,351.83,-158.502,0,-178.726,6.24023,-143.218,1696
1569920289,351.83,-158.502,0,-178.726,6.24023,-143.218,1696
1569920289,351.83,-158.502,0,-178.726,6.24023,-143.218,1696
1569920289,351.83,-158.502,0,-178.726,6.24023,-143.218,1696
1569920289,351.83,-158.502,0,-178.726,6.24023,-143.218,1696
1569920289,351.83,-158.502,0,-178.726,6.24023,-143.218,1696
1569920289,351.83,-158.502,0,-178.726,6.24023,-143.218,1696
1569920289,351.83,-158.502,0,-178.726,6.24023,-143.218,1696
1569920289,351.83,-158.502,0,-178.726,6.24023,-143.218,1696
1569920289,351.83,-158.502,0,-178.726,6.24023,-143.218,1696
1569920289,351.83,-158.502,0,-178.726,6.24023,-143.218,1696
1569920289,351.83,-158.502,0,-178.726,6.24023,-143.218,1696
1569920289,351.83,-158.502,0,-178.726,6.24023,-143.218,1696
1569920289,351.83,-158.502,0,-178.726,6.24023,-143.218,1696
1569920289,351.83,-158.502,0,-178.726,6.24023,-143.218,1692
1569920289,351.83,-158.502,0,-178.726,6.26221,-143.218,1692
1569920289,351.83,-158.502,0,-178.726,6.26221,-143.218,1692
1569920289,351.83,-158.502,0,-178.726,6.26221,-143.218,1692
1569920289,351.83,-158.502,0,-178.726,6.26221,-143.196,1692
1569920289,351.83,-158.502,0,-178.726,6.26221,-143.196,1692
1569920289,351.83,-158.502,0,-178.726,6.26221,-143.196,1692
1569920289,351.83,-158.502,0.111621,-178.726,6.26221,-143.196,1692
1569920289,351.83,-158.502,0.111621,-178.726,6.26221,-143.196,1692
1569920289,351.83,-158.502,0.111621,-178.726,6.26221,-143.196,1692
1569920289,351.83,-158.502,0.111621,-178.726,6.26221,-143.196,1692
1569920289,351.83,-158.502,0.111621,-178.726,6.28418,-143.196,1692
1569920289,351.83,-158.502,0.111621,-178.726,6.28418,-143.196,1696
1569920289,351.83,-158.502,0.111621,-178.726,6.28418,-143.196,1696
1569920289,351.83,-158.502,0.111621,-178.726,6.28418,-143.196,1696
1569920289,351.83,-158.502,0.111621,-178.726,6.28418,-143.196,1696
1569920289,351.83,-158.502,0.111621,-178.726,6.28418,-143.196,1696
1569920289,351.83,-158.502,0.111621,-178.726,6.28418,-143.196,1696
1569920289,351.83,-158.502,0.111621,-178.726,6.28418,-143.196,1696
1569920289,351.83,-158.502,0.111621,-178.726,6.28418,-143.196,1696
1569920289,351.83,-158.502,0.111621,-178.726,6.30615,-143.196,1696
1569920289,351.83,-158.502,0.111621,-178.726,6.30615,-143.196,1696
1569920289,351.83,-158.502,0.111621,-178.726,6.30615,-143.196,1696
1569920289,351.83,-158.502,0.111621,-178.726,6.30615,-143.196,1696
1569920289,351.83,-158.502,0.111621,-178.726,6.30615,-143.196,1696
1569920289,351.83,-158.502,0.111621,-178.726,6.30615,-143.196,1700
1569920289,351.941,-158.502,0.111621,-178.726,6.30615,-143.196,1700
1569920289,351.941,-158.502,0.111621,-178.726,6.30615,-143.196,1700
1569920290,351.941,-158.502,0.111621,-178.726,6.30615,-143.196,1700
1569920290,351.941,-158.502,0.111621,-178.726,6.30615,-143.196,1700
1569920290,351.941,-158.502,0.111621,-178.726,6.30615,-143.218,1700
1569920290,351.941,-158.502,0.111621,-178.704,6.30615,-143.218,1700
1569920290,351.941,-158.502,0.111621,-178.704,6.28418,-143.218,1700
1569920290,351.941,-158.502,0.111621,-178.704,6.28418,-143.218,1700
1569920290,351.941,-158.502,0.111621,-178.704,6.28418,-143.218,1700
1569920290,351.941,-158.502,0.111621,-178.704,6.28418,-143.218,1700
1569920290,351.941,-158.502,0.111621,-178.726,6.28418,-143.218,1700
1569920290,351.941,-158.502,0.111621,-178.726,6.28418,-143.218,1700
1569920290,351.941,-158.502,0.111621,-178.726,6.28418,-143.218,1700
1569920290,351.941,-158.502,0.111621,-178.726,6.28418,-143.218,1700
1569920290,351.83,-158.502,0.111621,-178.726,6.28418,-143.218,1700
1569920290,351.83,-158.502,0.111621,-178.726,6.28418,-143.196,1700
1569920290,351.83,-158.502,0.111621,-178.726,6.28418,-143.196,1696
1569920290,351.83,-158.502,0.111621,-178.726,6.28418,-143.196,1696
1569920290,351.83,-158.502,0.111621,-178.726,6.28418,-143.196,1696
1569920290,351.83,-158.502,0.111621,-178.726,6.28418,-143.196,1696
1569920290,351.83,-158.502,0.111621,-178.726,6.28418,-143.196,1696
1569920290,351.83,-158.502,0.111621,-178.726,6.28418,-143.196,1696
1569920290,351.83,-158.502,0.111621,-178.726,6.28418,-143.196,1692
1569920290,351.83,-158.502,0,-178.726,6.28418,-143.196,1692
1569920290,351.83,-158.502,0,-178.726,6.26221,-143.196,1692
1569920290,351.83,-158.502,0,-178.726,6.26221,-143.196,1692
1569920290,351.83,-158.502,0,-178.726,6.26221,-143.196,1692
1569920290,351.941,-158.502,0,-178.726,6.26221,-143.196,1688
1569920290,351.941,-158.502,0,-178.726,6.28418,-143.196,1688
1569920290,351.941,-158.502,0,-178.726,6.28418,-143.196,1688
1569920290,351.941,-158.502,0.111621,-178.726,6.28418,-143.196,1688
1569920290,351.941,-158.502,0.111621,-178.726,6.28418,-143.196,1688
1569920290,351.941,-158.502,0.111621,-178.726,6.28418,-143.196,1684
1569920290,351.941,-158.502,0.111621,-178.726,6.28418,-143.196,1684
1569920290,351.941,-158.502,0.111621,-178.726,6.28418,-143.196,1684
1569920290,351.941,-158.502,0.111621,-178.726,6.28418,-143.196,1684
1569920290,351.941,-158.502,0.111621,-178.726,6.28418,-143.196,1684
1569920290,351.941,-158.502,0.111621,-178.726,6.28418,-143.196,1684
1569920290,351.941,-158.502,0.111621,-178.726,6.28418,-143.196,1684
1569920290,351.941,-158.502,0.111621,-178.726,6.28418,-143.196,1684
1569920290,351.941,-158.502,0.111621,-178.726,6.28418,-143.196,1684
1569920290,351.941,-158.502,0.111621,-178.704,6.28418,-143.196,1684
1569920290,351.941,-158.39,0.111621,-178.704,6.28418,-143.196,1684
1569920290,351.941,-158.39,0.111621,-178.704,6.28418,-143.218,1684
1569920290,351.941,-158.39,0,-178.704,6.28418,-143.218,1684
1569920290,351.941,-158.39,0,-178.704,6.28418,-143.218,1684
1569920290,351.941,-158.39,0,-178.704,6.28418,-143.218,1684
1569920290,351.83,-158.39,0.111621,-178.704,6.28418,-143.218,1684
1569920290,351.83,-158.39,0.111621,-178.704,6.28418,-143.218,1684
1569920290,351.83,-158.39,0.111621,-178.704,6.28418,-143.218,1684
1569920290,351.83,-158.39,0.111621,-178.704,6.28418,-143.218,1684
1569920290,351.83,-158.39,0.111621,-178.704,6.28418,-143.218,1684
1569920290,351.83,-158.39,0.111621,-178.704,6.28418,-143.218,1684
1569920290,351.83,-158.39,0.111621,-178.726,6.28418,-143.218,1684
1569920290,351.83,-158.502,0.111621,-178.726,6.28418,-143.218,1684
1569920290,351.83,-158.502,0.111621,-178.726,6.30615,-143.218,1684
1569920290,351.83,-158.502,0.111621,-178.726,6.30615,-143.218,1684
1569920290,351.83,-158.502,0.111621,-178.726,6.30615,-143.218,1684
1569920290,351.83,-158.502,0.111621,-178.726,6.30615,-143.218,1684
1569920290,351.83,-158.502,0.111621,-178.726,6.30615,-143.218,1684
1569920290,351.83,-158.502,0.111621,-178.726,6.30615,-143.218,1684
1569920290,351.83,-158.502,0.111621,-178.726,6.28418,-143.218,1684
1569920290,351.83,-158.502,0.111621,-178.726,6.28418,-143.218,1684
1569920290,351.83,-158.502,0.111621,-178.726,6.28418,-143.218,1684
1569920290,351.83,-158.502,0.111621,-178.726,6.28418,-143.218,1684
1569920290,351.83,-158.502,0.111621,-178.726,6.28418,-143.218,1684
1569920290,351.83,-158.502,0,-178.726,6.28418,-143.218,1684
1569920290,351.83,-158.39,0,-178.726,6.28418,-143.218,1684
1569920290,351.83,-158.39,0,-178.726,6.26221,-143.218,1684
1569920290,351.83,-158.39,0,-178.726,6.26221,-143.218,1684
1569920290,351.83,-158.39,0,-178.726,6.26221,-143.218,1684
1569920290,351.83,-158.39,0,-178.726,6.26221,-143.218,1684
1569920290,351.83,-158.39,0,-178.704,6.26221,-143.218,1684
1569920290,351.83,-158.39,0,-178.704,6.26221,-143.218,1680
1569920290,351.83,-158.39,0,-178.704,6.26221,-143.218,1680
1569920290,351.83,-158.39,0,-178.704,6.26221,-143.218,1680
1569920290,351.83,-158.39,0,-178.704,6.26221,-143.218,1680
1569920290,351.83,-158.39,0,-178.704,6.26221,-143.218,1676
1569920290,351.83,-158.39,0,-178.704,6.26221,-143.218,1676
1569920290,351.83,-158.39,0,-178.704,6.26221,-143.218,1676
1569920290,351.83,-158.39,0,-178.704,6.26221,-143.218,1676
1569920290,351.83,-158.39,0,-178.704,6.26221,-143.218,1676
1569920290,351.83,-158.39,0,-178.704,6.26221,-143.218,1672
1569920290,351.83,-158.39,0,-178.704,6.26221,-143.218,1672
1569920290,351.83,-158.39,0,-178.704,6.26221,-143.218,1672
1569920290,351.83,-158.39,0,-178.704,6.26221,-143.218,1672
1569920290,351.83,-158.39,0,-178.704,6.26221,-143.218,1672
1569920290,351.83,-158.39,0,-178.704,6.26221,-143.218,1672
1569920290,351.83,-158.39,0,-178.704,6.26221,-143.218,1672
1569920290,351.83,-158.39,0,-178.704,6.24023,-143.218,1672
1569920290,351.83,-158.39,0,-178.704,6.24023,-143.218,1672
1569920290,351.83,-158.39,0,-178.704,6.24023,-143.218,1672
1569920290,351.83,-158.39,0,-178.726,6.24023,-143.218,1672
1569920290,351.83,-158.39,0,-178.726,6.24023,-143.218,1672
1569920290,351.83,-158.39,0,-178.726,6.24023,-143.218,1672
1569920290,351.83,-158.39,0,-178.726,6.24023,-143.218,1672
1569920290,351.83,-158.39,0,-178.726,6.24023,-143.218,1672
1569920290,351.83,-158.39,0,-178.726,6.24023,-143.218,1668
1569920290,351.83,-158.39,0,-178.726,6.24023,-143.218,1668
1569920290,351.83,-158.39,0,-178.726,6.24023,-143.196,1668
1569920290,351.83,-158.39,0,-178.726,6.24023,-143.196,1668
1569920290,351.83,-158.39,0,-178.726,6.24023,-143.196,1672
1569920290,351.83,-158.39,0,-178.704,6.24023,-143.196,1672
1569920291,351.83,-158.39,0,-178.704,6.24023,-143.196,1672
1569920291,351.83,-158.39,0,-178.704,6.24023,-143.196,1672
1569920291,351.83,-158.39,0,-178.704,6.24023,-143.196,1672
1569920291,351.83,-158.39,0,-178.704,6.24023,-143.196,1672
1569920291,351.83,-158.279,0,-178.704,6.26221,-143.218,1676
1569920291,351.83,-158.279,0,-178.704,6.26221,-143.218,1676
1569920291,351.83,-158.279,0,-178.682,6.26221,-143.218,1676
1569920291,351.83,-158.279,0,-178.682,6.26221,-143.218,1676
1569920291,351.83,-158.279,0,-178.682,6.26221,-143.218,1680
1569920291,351.83,-158.279,0,-178.682,6.26221,-143.218,1680
1569920291,351.83,-158.279,0,-178.682,6.26221,-143.218,1680
1569920291,351.83,-158.279,0,-178.682,6.26221,-143.218,1680
1569920291,351.83,-158.279,0,-178.682,6.26221,-143.218,1680
1569920291,351.83,-158.279,0,-178.682,6.26221,-143.218,1680
1569920291,351.83,-158.279,0,-178.682,6.26221,-143.218,1680
1569920291,351.83,-158.279,0,-178.682,6.26221,-143.196,1684
1569920291,351.83,-158.279,0,-178.682,6.26221,-143.196,1684
1569920291,351.83,-158.279,0,-178.682,6.26221,-143.196,1684
1569920291,351.83,-158.279,0,-178.682,6.26221,-143.196,1684
1569920291,351.83,-158.39,0.111621,-178.682,6.28418,-143.196,1684
1569920291,351.83,-158.39,0.111621,-178.682,6.28418,-143.196,1684
1569920291,351.83,-158.39,0.111621,-178.682,6.28418,-143.196,1684
1569920291,351.83,-158.39,0.111621,-178.682,6.28418,-143.196,1684
1569920291,351.83,-158.39,0.111621,-178.682,6.28418,-143.196,1684
1569920291,351.83,-158.39,0.111621,-178.704,6.28418,-143.196,1688
1569920291,351.83,-158.39,0.111621,-178.704,6.28418,-143.196,1688
1569920291,351.83,-158.39,0.111621,-178.704,6.28418,-143.196,1688
1569920291,351.83,-158.39,0.111621,-178.704,6.28418,-143.196,1688
1569920291,351.83,-158.39,0.111621,-178.704,6.28418,-143.196,1688
1569920291,351.83,-158.39,0.111621,-178.704,6.28418,-143.196,1688
1569920291,351.83,-158.39,0.111621,-178.704,6.28418,-143.196,1692
1569920291,351.83,-158.39,0.111621,-178.704,6.28418,-143.196,1692
1569920291,351.83,-158.39,0.111621,-178.704,6.28418,-143.196,1692
1569920291,351.83,-158.39,0.111621,-178.704,6.28418,-143.196,1692
1569920291,351.83,-158.39,0.111621,-178.726,6.28418,-143.196,1692
1569920291,351.83,-158.39,0.111621,-178.726,6.26221,-143.196,1692
1569920291,351.83,-158.39,0.111621,-178.726,6.26221,-143.196,1692
1569920291,351.83,-158.39,0.111621,-178.726,6.26221,-143.196,1696
1569920291,351.83,-158.39,0,-178.726,6.26221,-143.196,1696
1569920291,351.83,-158.39,0,-178.726,6.26221,-143.196,1696
1569920291,351.83,-158.39,0,-178.726,6.26221,-143.196,1696
1569920291,351.83,-158.39,0,-178.726,6.26221,-143.196,1696
1569920291,351.83,-158.39,0,-178.726,6.26221,-143.196,1696
1569920291,351.83,-158.39,0,-178.726,6.26221,-143.196,1696
1569920291,351.83,-158.39,0,-178.726,6.26221,-143.196,1696
1569920291,351.83,-158.502,0,-178.726,6.26221,-143.196,1696
1569920291,351.83,-158.502,0,-178.726,6.26221,-143.196,1696
1569920291,351.83,-158.502,0,-178.726,6.26221,-143.196,1696
1569920291,351.83,-158.502,0,-178.726,6.26221,-143.196,1696
1569920291,351.83,-158.502,0,-178.726,6.26221,-143.196,1696
1569920291,351.83,-158.502,0.111621,-178.726,6.26221,-143.196,1696
1569920291,351.83,-158.502,0.111621,-178.726,6.26221,-143.196,1700
1569920291,351.83,-158.502,0.111621,-178.726,6.26221,-143.196,1700
1569920291,351.83,-158.502,0.111621,-178.726,6.26221,-143.196,1700
1569920291,351.83,-158.502,0.111621,-178.726,6.26221,-143.196,1700
1569920291,351.83,-158.502,0.111621,-178.726,6.26221,-143.196,1700
1569920291,351.941,-158.502,0.111621,-178.726,6.26221,-143.196,1700
1569920291,351.941,-158.502,0.111621,-178.726,6.26221,-143.196,1700
1569920291,351.941,-158.502,0.111621,-178.726,6.26221,-143.196,1700
1569920291,351.941,-158.502,0.111621,-178.726,6.26221,-143.196,1700
1569920291,351.941,-158.502,0.111621,-178.726,6.26221,-143.196,1696
1569920291,351.941,-158.502,0,-178.726,6.26221,-143.196,1696
1569920291,351.941,-158.502,0,-178.726,6.26221,-143.196,1696
1569920291,351.941,-158.39,0,-178.726,6.26221,-143.196,1696
1569920291,351.941,-158.39,0,-178.704,6.26221,-143.196,1696
1569920291,351.941,-158.39,0,-178.704,6.26221,-143.196,1696
1569920291,351.941,-158.39,0,-178.704,6.26221,-143.218,1696
1569920291,351.83,-158.39,0,-178.704,6.26221,-143.218,1692
1569920291,351.83,-158.39,0.111621,-178.704,6.26221,-143.218,1692
1569920291,351.83,-158.39,0.111621,-178.726,6.28418,-143.218,1692
1569920291,351.83,-158.39,0.111621,-178.726,6.28418,-143.196,1692
1569920291,351.83,-158.39,0.111621,-178.726,6.28418,-143.196,1688
1569920291,351.83,-158.39,0.111621,-178.726,6.28418,-143.196,1688
1569920291,351.83,-158.39,0.111621,-178.726,6.28418,-143.196,1688
1569920291,351.83,-158.502,0.111621,-178.726,6.28418,-143.196,1684
1569920291,351.83,-158.502,0.111621,-178.726,6.28418,-143.196,1684
1569920291,351.83,-158.502,0.111621,-178.726,6.28418,-143.196,1684
1569920291,351.83,-158.502,0.111621,-178.726,6.28418,-143.196,1684
1569920291,351.83,-158.502,0.111621,-178.726,6.28418,-143.196,1680
1569920291,351.83,-158.502,0.111621,-178.726,6.28418,-143.196,1680
1569920291,351.83,-158.502,0.111621,-178.726,6.28418,-143.196,1680
1569920291,351.83,-158.502,0.111621,-178.726,6.28418,-143.196,1680
1569920291,351.83,-158.502,0.111621,-178.726,6.28418,-143.196,1680
1569920291,351.83,-158.502,0.111621,-178.726,6.28418,-143.196,1680
1569920291,351.83,-158.502,0.111621,-178.726,6.28418,-143.196,1680
1569920291,351.83,-158.502,0.111621,-178.726,6.28418,-143.196,1680
1569920291,351.941,-158.502,0.111621,-178.726,6.28418,-143.196,1684
1569920291,351.941,-158.502,0.111621,-178.726,6.28418,-143.196,1684
1569920291,351.941,-158.502,0,-178.726,6.26221,-143.196,1684
1569920291,351.941,-158.502,0,-178.726,6.26221,-143.196,1684
1569920291,351.941,-158.502,0,-178.726,6.26221,-143.196,1684
1569920291,351.941,-158.502,0,-178.726,6.26221,-143.196,1688
1569920291,351.941,-158.502,0,-178.726,6.26221,-143.196,1688
1569920291,351.941,-158.502,0,-178.726,6.26221,-143.196,1688
1569920291,351.941,-158.502,0,-178.726,6.26221,-143.196,1688
1569920291,351.941,-158.502,0,-178.726,6.26221,-143.196,1688
1569920291,351.941,-158.502,0,-178.726,6.26221,-143.196,1688
1569920291,351.941,-158.502,0,-178.726,6.26221,-143.196,1688
1569920291,351.941,-158.502,0.111621,-178.726,6.26221,-143.196,1688
1569920291,351.941,-158.502,0.111621,-178.726,6.26221,-143.196,1688
1569920292,351.941,-158.502,0.111621,-178.726,6.28418,-143.196,1692
1569920292,351.941,-158.502,0.111621,-178.726,6.28418,-143.196,1692
1569920292,351.941,-158.502,0.111621,-178.726,6.28418,-143.196,1692
1569920292,351.941,-158.502,0.111621,-178.726,6.28418,-143.196,1692
1569920292,351.941,-158.502,0.111621,-178.726,6.28418,-143.196,1692
1569920292,351.941,-158.502,0.111621,-178.726,6.28418,-143.196,1692
1569920292,351.941,-158.502,0.111621,-178.726,6.28418,-143.196,1692
1569920292,351.941,-158.502,0.111621,-178.726,6.28418,-143.196,1692
1569920292,351.941,-158.502,0.111621,-178.726,6.28418,-143.196,1692
1569920292,351.941,-158.502,0.111621,-178.704,6.28418,-143.196,1692
1569920292,351.941,-158.502,0.111621,-178.704,6.28418,-143.196,1692
1569920292,351.941,-158.502,0.111621,-178.704,6.28418,-143.196,1692
1569920292,351.941,-158.502,0.111621,-178.704,6.28418,-143.218,1692
1569920292,351.941,-158.502,0.111621,-178.704,6.28418,-143.218,1692
1569920292,351.941,-158.502,0.111621,-178.704,6.28418,-143.218,1692
1569920292,351.941,-158.502,0.111621,-178.726,6.28418,-143.218,1692
1569920292,351.941,-158.502,0.111621,-178.726,6.28418,-143.218,1692
1569920292,351.83,-158.502,0.111621,-178.726,6.28418,-143.218,1692
1569920292,351.83,-158.502,0.111621,-178.726,6.28418,-143.218,1692
1569920292,351.83,-158.502,0.111621,-178.726,6.28418,-143.218,1688
1569920292,351.83,-158.502,0.111621,-178.726,6.28418,-143.218,1688
1569920292,351.83,-158.502,0.111621,-178.726,6.28418,-143.218,1688
1569920292,351.83,-158.502,0.111621,-178.726,6.28418,-143.218,1688
1569920292,351.83,-158.502,0.111621,-178.726,6.28418,-143.218,1688
1569920292,351.83,-158.502,0.111621,-178.726,6.28418,-143.218,1688
1569920292,351.83,-158.502,0.111621,-178.726,6.28418,-143.218,1688
1569920292,351.83,-158.39,0.111621,-178.726,6.28418,-143.218,1688
1569920292,351.83,-158.39,0.111621,-178.704,6.28418,-143.218,1688
1569920292,351.83,-158.39,0.111621,-178.704,6.28418,-143.218,1688
1569920292,351.83,-158.39,0.111621,-178.704,6.26221,-143.196,1688
1569920292,351.83,-158.39,0.111621,-178.704,6.26221,-143.196,1688
1569920292,351.83,-158.39,0.111621,-178.704,6.26221,-143.196,1688
1569920292,351.83,-158.39,0.111621,-178.704,6.26221,-143.196,1688
1569920292,351.83,-158.39,0.111621,-178.704,6.26221,-143.196,1688
1569920292,351.83,-158.39,0.111621,-178.704,6.26221,-143.196,1688
1569920292,351.83,-158.39,0.111621,-178.704,6.26221,-143.196,1688
1569920292,351.83,-158.39,0.111621,-178.704,6.26221,-143.196,1688
1569920292,351.83,-158.39,0.111621,-178.704,6.26221,-143.196,1688
1569920292,351.83,-158.39,0.111621,-178.704,6.26221,-143.196,1688
1569920292,351.83,-158.39,0.111621,-178.704,6.26221,-143.196,1688
1569920292,351.83,-158.39,0.111621,-178.704,6.26221,-143.196,1688
1569920292,351.83,-158.39,0.111621,-178.704,6.26221,-143.196,1688
1569920292,351.83,-158.39,0.111621,-178.704,6.26221,-143.196,1688
1569920292,351.83,-158.39,0.111621,-178.704,6.28418,-143.196,1688
1569920292,351.83,-158.39,0.111621,-178.704,6.28418,-143.196,1688
1569920292,351.83,-158.39,0.111621,-178.704,6.28418,-143.196,1688
1569920292,351.83,-158.39,0.111621,-178.704,6.28418,-143.196,1688
1569920292,351.83,-158.39,0.111621,-178.704,6.28418,-143.196,1688
1569920292,351.83,-158.39,0.111621,-178.704,6.28418,-143.196,1688
1569920292,351.83,-158.39,0.111621,-178.704,6.28418,-143.196,1688
1569920292,351.83,-158.39,0.111621,-178.704,6.28418,-143.196,1688
1569920292,351.83,-158.39,0.111621,-178.704,6.28418,-143.196,1688
1569920292,351.83,-158.502,0.111621,-178.704,6.28418,-143.196,1692
1569920292,351.83,-158.502,0.111621,-178.726,6.28418,-143.196,1692
1569920292,351.83,-158.502,0.111621,-178.726,6.28418,-143.196,1692
1569920292,351.83,-158.502,0.111621,-178.726,6.28418,-143.196,1692
1569920292,351.83,-158.502,0.111621,-178.726,6.28418,-143.196,1692
1569920292,351.83,-158.502,0.111621,-178.726,6.28418,-143.196,1692
1569920292,351.83,-158.502,0.111621,-178.726,6.30615,-143.196,1692
1569920292,351.83,-158.502,0.111621,-178.726,6.28418,-143.196,1692
1569920292,351.83,-158.502,0.111621,-178.748,6.28418,-143.196,1692
1569920292,351.83,-158.502,0.111621,-178.748,6.28418,-143.196,1696
1569920292,351.83,-158.502,0.111621,-178.748,6.28418,-143.196,1696
1569920292,351.83,-158.502,0.111621,-178.748,6.28418,-143.196,1696
1569920292,351.83,-158.502,0.111621,-178.748,6.28418,-143.196,1696
1569920292,351.83,-158.502,0.111621,-178.748,6.28418,-143.196,1696
1569920292,351.83,-158.502,0.111621,-178.748,6.28418,-143.196,1696
1569920292,351.83,-158.502,0.111621,-178.748,6.28418,-143.196,1696
1569920292,351.83,-158.502,0.111621,-178.726,6.28418,-143.196,1696
1569920292,351.83,-158.502,0.111621,-178.726,6.28418,-143.196,1696
1569920292,351.83,-158.502,0.111621,-178.726,6.28418,-143.196,1696
1569920292,351.83,-158.502,0.111621,-178.726,6.30615,-143.196,1692
1569920292,351.83,-158.502,0.111621,-178.726,6.30615,-143.196,1692
1569920292,351.83,-158.502,0.111621,-178.726,6.30615,-143.196,1692
1569920292,351.83,-158.502,0.111621,-178.726,6.30615,-143.196,1692
1569920292,351.83,-158.502,0.111621,-178.726,6.30615,-143.196,1692
1569920292,351.941,-158.502,0.111621,-178.726,6.30615,-143.196,1692
1569920292,351.941,-158.502,0.111621,-178.726,6.30615,-143.196,1692
1569920292,351.941,-158.502,0.111621,-178.726,6.30615,-143.196,1692
1569920292,351.941,-158.502,0.111621,-178.726,6.30615,-143.196,1696
1569920292,351.941,-158.502,0.111621,-178.726,6.30615,-143.196,1696
1569920292,351.941,-158.502,0.111621,-178.726,6.30615,-143.196,1696
1569920292,351.941,-158.502,0.111621,-178.726,6.30615,-143.196,1696
1569920292,351.941,-158.502,0.111621,-178.726,6.28418,-143.196,1696
1569920292,351.941,-158.502,0.111621,-178.726,6.28418,-143.196,1696
1569920292,351.941,-158.502,0.111621,-178.704,6.28418,-143.196,1696
1569920292,351.941,-158.502,0.111621,-178.704,6.28418,-143.196,1696
1569920292,351.941,-158.39,0.111621,-178.704,6.28418,-143.196,1696
1569920292,351.941,-158.39,0.111621,-178.704,6.28418,-143.196,1700
1569920292,351.941,-158.39,0.111621,-178.704,6.28418,-143.196,1700
1569920292,351.941,-158.39,0.111621,-178.704,6.28418,-143.196,1700
1569920292,351.941,-158.39,0.111621,-178.704,6.28418,-143.218,1700
1569920292,351.941,-158.39,0.111621,-178.704,6.28418,-143.218,1700
1569920292,351.941,-158.39,0.111621,-178.704,6.28418,-143.218,1700
1569920292,351.941,-158.39,0.111621,-178.704,6.28418,-143.218,1700
1569920292,351.941,-158.39,0.111621,-178.704,6.28418,-143.218,1700
1569920292,351.941,-158.39,0.111621,-178.704,6.28418,-143.218,1700
1569920292,351.941,-158.39,0.111621,-178.704,6.28418,-143.218,1700
1569920292,351.941,-158.502,0.111621,-178.704,6.28418,-143.218,1700
1569920292,351.941,-158.502,0.111621,-178.704,6.28418,-143.218,1700
1569920293,351.941,-158.502,0.111621,-178.704,6.28418,-143.218,1700
1569920293,351.941,-158.39,0.111621,-178.704,6.28418,-143.218,1704
1569920293,351.941,-158.39,0.111621,-178.704,6.30615,-143.218,1704
1569920293,351.941,-158.39,0.111621,-178.704,6.30615,-143.218,1704
1569920293,351.941,-158.39,0.111621,-178.704,6.30615,-143.218,1704
1569920293,351.941,-158.39,0.111621,-178.704,6.30615,-143.218,1704
1569920293,351.941,-158.39,0.111621,-178.704,6.28418,-143.196,1704
1569920293,351.941,-158.39,0.111621,-178.704,6.28418,-143.196,1704
1569920293,351.941,-158.39,0.111621,-178.704,6.28418,-143.196,1704
1569920293,351.941,-158.39,0.111621,-178.704,6.28418,-143.196,1704
1569920293,351.941,-158.39,0.111621,-178.704,6.28418,-143.196,1704
1569920293,351.941,-158.39,0.111621,-178.704,6.28418,-143.196,1704
1569920293,351.941,-158.502,0.111621,-178.704,6.28418,-143.196,1704
1569920293,351.941,-158.502,0.111621,-178.704,6.28418,-143.196,1704
1569920293,351.941,-158.502,0.111621,-178.704,6.28418,-143.196,1704
1569920293,351.941,-158.502,0.111621,-178.704,6.28418,-143.196,1708
1569920293,351.941,-158.502,0.111621,-178.704,6.28418,-143.196,1708
1569920293,351.941,-158.502,0.111621,-178.704,6.28418,-143.196,1708
1569920293,351.941,-158.502,0.111621,-178.704,6.28418,-143.196,1708
1569920293,351.941,-158.502,0.111621,-178.704,6.28418,-143.196,1704
1569920293,351.941,-158.502,0.111621,-178.704,6.28418,-143.196,1704
1569920293,351.941,-158.502,0.111621,-178.704,6.28418,-143.196,1704
1569920293,351.941,-158.502,0.111621,-178.704,6.28418,-143.196,1704
1569920293,351.941,-158.502,0.111621,-178.704,6.26221,-143.196,1704
1569920293,351.941,-158.502,0,-178.704,6.26221,-143.196,1704
1569920293,351.941,-158.502,0,-178.704,6.26221,-143.196,1704
1569920293,351.941,-158.502,0,-178.704,6.26221,-143.218,1700
1569920293,351.941,-158.502,0,-178.704,6.26221,-143.218,1700
1569920293,351.941,-158.502,0,-178.704,6.26221,-143.218,1700
1569920293,351.941,-158.502,0,-178.704,6.26221,-143.218,1700
1569920293,351.941,-158.502,0,-178.704,6.26221,-143.218,1700
1569920293,351.941,-158.502,0,-178.704,6.26221,-143.218,1700
1569920293,351.941,-158.502,0,-178.704,6.26221,-143.218,1700
1569920293,351.941,-158.502,0,-178.704,6.26221,-143.218,1700
1569920293,351.941,-158.502,0,-178.704,6.26221,-143.218,1700
1569920293,351.941,-158.502,0,-178.704,6.26221,-143.218,1704
1569920293,351.941,-158.502,0,-178.704,6.26221,-143.218,1704
1569920293,351.941,-158.502,0,-178.704,6.26221,-143.218,1704
1569920293,351.941,-158.502,0,-178.704,6.26221,-143.218,1700
1569920293,351.941,-158.502,0,-178.704,6.26221,-143.218,1700
1569920293,351.941,-158.502,0,-178.704,6.26221,-143.218,1700
1569920293,351.941,-158.502,0,-178.704,6.26221,-143.196,1700
1569920293,351.941,-158.502,0,-178.704,6.26221,-143.196,1700
1569920293,351.941,-158.502,0,-178.704,6.26221,-143.196,1700
1569920293,351.941,-158.502,0,-178.704,6.26221,-143.196,1700
1569920293,351.941,-158.502,0,-178.726,6.24023,-143.196,1700
1569920293,351.941,-158.39,0,-178.704,6.24023,-143.196,1696
1569920293,351.941,-158.39,0,-178.704,6.24023,-143.196,1696
1569920293,351.941,-158.39,0,-178.704,6.26221,-143.196,1696
1569920293,351.83,-158.39,0,-178.704,6.26221,-143.196,1696
1569920293,351.83,-158.39,0,-178.726,6.26221,-143.196,1692
1569920293,351.83,-158.39,0,-178.726,6.26221,-143.196,1692
1569920293,351.83,-158.39,0,-178.726,6.26221,-143.196,1692
1569920293,351.83,-158.39,0.111621,-178.726,6.26221,-143.196,1692
1569920293,351.83,-158.39,0.111621,-178.726,6.26221,-143.196,1688
1569920293,351.83,-158.39,0.111621,-178.726,6.26221,-143.196,1688
1569920293,351.83,-158.39,0.111621,-178.726,6.26221,-143.196,1688
1569920293,351.83,-158.39,0,-178.726,6.26221,-143.218,1688
1569920293,351.83,-158.502,0,-178.726,6.26221,-143.218,1684
1569920293,351.83,-158.502,0,-178.726,6.26221,-143.218,1684
1569920293,351.83,-158.502,0,-178.726,6.26221,-143.218,1684
1569920293,351.83,-158.502,0,-178.726,6.26221,-143.218,1680
1569920293,351.83,-158.502,0,-178.726,6.26221,-143.218,1680
1569920293,351.83,-158.502,0,-178.726,6.26221,-143.218,1680
1569920296,326.492,-134.838,0.781348,-179.143,7.0752,-143.108,1512
1569920296,326.492,-134.838,0.781348,-179.143,7.0752,-143.108,1512
1569920296,326.492,-134.838,0.781348,-179.143,7.0752,-143.108,1512
1569920297,326.492,-134.838,0.781348,-179.143,7.0752,-143.108,1512
1569920297,326.492,-134.838,0.781348,-179.143,7.0752,-143.108,1512
1569920297,326.492,-134.838,0.781348,-179.143,7.0752,-143.108,1512
1569920297,326.492,-134.838,0.781348,-179.143,7.0752,-143.108,1512
1569920297,326.492,-134.838,0.781348,-179.143,7.0752,-143.108,1512
1569920297,326.492,-134.838,0.781348,-179.143,7.0752,-143.108,1516
1569920297,326.492,-134.838,0.781348,-179.143,7.05322,-143.108,1516
1569920297,326.492,-134.838,0.669727,-179.143,7.05322,-143.108,1516
1569920297,326.492,-134.838,0.669727,-179.143,7.05322,-143.108,1516
1569920297,326.492,-134.838,0.669727,-179.143,7.05322,-143.108,1516
1569920297,326.492,-134.838,0.669727,-179.143,7.05322,-143.108,1516
1569920297,326.492,-134.838,0.669727,-179.143,7.05322,-143.108,1516
1569920297,326.492,-134.838,0.669727,-179.143,7.05322,-143.108,1516
1569920297,326.492,-134.838,0.669727,-179.143,7.05322,-143.108,1516
1569920297,326.492,-134.838,0.669727,-179.143,7.05322,-143.108,1516
1569920297,326.492,-134.838,0.669727,-179.143,7.05322,-143.108,1516
1569920297,326.492,-134.838,0.669727,-179.143,7.05322,-143.108,1516
1569920297,326.492,-134.838,0.669727,-179.143,7.05322,-143.108,1516
1569920297,326.492,-134.838,0.669727,-179.143,7.05322,-143.108,1520
1569920297,326.492,-134.838,0.669727,-179.143,7.05322,-143.108,1520
1569920297,326.492,-134.838,0.669727,-179.143,7.05322,-143.108,1520
1569920297,326.492,-134.838,0.781348,-179.143,7.05322,-143.108,1520
1569920297,326.492,-134.838,0.781348,-179.143,7.05322,-143.108,1520
1569920297,326.492,-134.838,0.781348,-179.143,7.05322,-143.108,1520
1569920297,326.492,-134.838,0.781348,-179.143,7.05322,-143.108,1520
1569920297,326.492,-134.838,0.781348,-179.143,7.05322,-143.108,1520
1569920297,326.492,-134.838,0.781348,-179.143,7.05322,-143.108,1520
1569920297,326.492,-134.838,0.781348,-179.143,7.05322,-143.108,1524
1569920297,326.492,-134.838,0.781348,-179.143,7.05322,-143.108,1524
1569920297,326.492,-134.838,0.781348,-179.143,7.05322,-143.108,1524
1569920297,326.492,-134.838,0.781348,-179.143,7.05322,-143.108,1524
1569920297,326.492,-134.95,0.781348,-179.143,7.05322,-143.108,1524
1569920297,326.492,-134.95,0.781348,-179.143,7.05322,-143.108,1524
1569920297,326.492,-134.95,0.781348,-179.143,7.05322,-143.108,1524
1569920297,326.492,-134.95,0.781348,-179.143,7.05322,-143.108,1524
1569920297,326.492,-134.95,0.781348,-179.143,7.05322,-143.108,1524
1569920297,326.492,-134.95,0.781348,-179.143,7.05322,-143.108,1524
1569920297,326.492,-134.95,0.781348,-179.143,7.05322,-143.108,1524
1569920297,326.492,-134.95,0.781348,-179.143,7.05322,-143.108,1524
1569920297,326.492,-134.95,0.781348,-179.143,7.05322,-143.108,1524
1569920297,326.492,-134.95,0.781348,-179.143,7.05322,-143.108,1524
1569920297,326.492,-134.838,0.781348,-179.143,7.05322,-143.108,1524
1569920297,326.492,-134.838,0.781348,-179.143,7.05322,-143.108,1524
1569920297,326.492,-134.838,0.781348,-179.143,7.05322,-143.108,1520
1569920297,326.492,-134.838,0.781348,-179.143,7.05322,-143.108,1520
1569920297,326.492,-134.95,0.781348,-179.143,7.05322,-143.108,1520
1569920297,326.492,-134.95,0.781348,-179.143,7.05322,-143.108,1520
1569920297,326.492,-134.95,0.781348,-179.143,7.05322,-143.108,1520
1569920297,326.492,-134.95,0.781348,-179.143,7.05322,-143.108,1520
1569920297,326.492,-134.95,0.781348,-179.143,7.05322,-143.108,1516
1569920297,326.492,-134.95,0.781348,-179.143,7.05322,-143.108,1516
1569920297,326.492,-134.95,0.781348,-179.143,7.0752,-143.108,1516
1569920297,326.492,-134.95,0.781348,-179.143,7.0752,-143.108,1516
1569920297,326.492,-134.95,0.781348,-179.143,7.0752,-143.108,1516
1569920297,326.492,-134.95,0.781348,-179.143,7.0752,-143.108,1516
1569920297,326.492,-134.95,0.781348,-179.143,7.0752,-143.108,1516
1569920297,326.492,-134.838,0.781348,-179.143,7.0752,-143.108,1516
1569920297,326.492,-134.838,0.781348,-179.143,7.0752,-143.108,1516
1569920297,326.492,-134.95,0.781348,-179.143,7.0752,-143.108,1516
1569920297,326.492,-134.95,0.781348,-179.143,7.0752,-143.108,1516
1569920297,326.492,-134.95,0.781348,-179.143,7.0752,-143.108,1520
1569920297,326.492,-134.838,0.781348,-179.121,7.0752,-143.108,1520
1569920297,326.492,-134.838,0.781348,-179.121,7.0752,-143.108,1520
1569920297,326.492,-134.838,0.781348,-179.121,7.0752,-143.108,1520
1569920297,326.492,-134.838,0.781348,-179.121,7.0752,-143.108,1520
1569920297,326.492,-134.838,0.781348,-179.121,7.0752,-143.108,1520
1569920297,326.492,-134.838,0.781348,-179.121,7.0752,-143.108,1520
1569920297,326.603,-134.838,0.781348,-179.121,7.0752,-143.108,1524
1569920297,326.603,-134.838,0.781348,-179.121,7.0752,-143.108,1524
1569920297,326.603,-134.838,0.781348,-179.121,7.0752,-143.108,1524
1569920297,326.603,-134.838,0.781348,-179.121,7.0752,-143.108,1524
1569920297,326.603,-134.838,0.781348,-179.121,7.0752,-143.108,1524
1569920297,326.603,-134.838,0.781348,-179.121,7.0752,-143.108,1524
1569920297,326.603,-134.838,0.781348,-179.121,7.0752,-143.108,1528
1569920297,326.603,-134.838,0.781348,-179.121,7.0752,-143.108,1528
1569920297,326.603,-134.838,0.781348,-179.121,7.0752,-143.13,1528
1569920297,326.603,-134.838,0.781348,-179.121,7.0752,-143.13,1528
1569920297,326.603,-134.838,0.781348,-179.121,7.0752,-143.13,1528
1569920297,326.603,-134.838,0.781348,-179.121,7.0752,-143.13,1528
1569920297,326.492,-134.838,0.781348,-179.143,7.0752,-143.108,1528
1569920297,326.492,-134.838,0.781348,-179.143,7.0752,-143.108,1532
1569920297,326.492,-134.838,0.781348,-179.143,7.0752,-143.108,1532
1569920297,326.492,-134.838,0.781348,-179.143,7.0752,-143.108,1532
1569920297,326.492,-134.838,0.781348,-179.143,7.0752,-143.108,1532
1569920297,326.492,-134.838,0.781348,-179.143,7.0752,-143.108,1532
1569920297,326.492,-134.838,0.781348,-179.143,7.0752,-143.108,1532
1569920297,326.492,-134.838,0.781348,-179.143,7.0752,-143.108,1532
1569920297,326.492,-134.838,0.781348,-179.121,7.0752,-143.108,1532
1569920297,326.492,-134.838,0.781348,-179.121,7.0752,-143.108,1532
1569920297,326.492,-134.838,0.781348,-179.121,7.0752,-143.108,1532
1569920297,326.492,-134.838,0.781348,-179.121,7.0752,-143.108,1532
1569920297,326.492,-134.838,0.781348,-179.121,7.0752,-143.108,1532
1569920297,326.492,-134.838,0.781348,-179.121,7.0752,-143.108,1532
1569920297,326.492,-134.838,0.781348,-179.121,7.0752,-143.108,1532
1569920297,326.492,-134.838,0.781348,-179.121,7.0752,-143.108,1532
1569920297,326.492,-134.838,0.781348,-179.121,7.0752,-143.108,1532
1569920297,326.492,-134.838,0.781348,-179.121,7.0752,-143.108,1532
1569920297,326.492,-134.838,0.781348,-179.121,7.0752,-143.108,1532
1569920297,326.492,-134.838,0.781348,-179.121,7.0752,-143.108,1532
1569920297,326.492,-134.838,0.781348,-179.121,7.0752,-143.108,1532
1569920298,326.492,-134.838,0.781348,-179.121,7.0752,-143.108,1532
1569920298,326.492,-134.838,0.781348,-179.121,7.05322,-143.108,1532
1569920298,326.492,-134.838,0.781348,-179.121,7.05322,-143.108,1532
1569920298,326.492,-134.838,0.781348,-179.121,7.05322,-143.108,1532
1569920298,326.492,-134.838,0.781348,-179.143,7.05322,-143.108,1532
1569920298,326.492,-134.838,0.781348,-179.143,7.05322,-143.108,1532
1569920298,326.603,-134.95,0.781348,-179.143,7.05322,-143.108,1532
1569920298,326.603,-134.95,0.781348,-179.143,7.05322,-143.108,1532
1569920298,326.603,-134.95,0.781348,-179.143,7.05322,-143.108,1532
1569920298,326.603,-134.95,0.781348,-179.143,7.05322,-143.108,1532
1569920298,326.603,-134.95,0.781348,-179.143,7.05322,-143.108,1532
1569920298,326.603,-134.95,0.781348,-179.143,7.05322,-143.13,1532
1569920298,326.603,-134.95,0.781348,-179.143,7.05322,-143.13,1532
1569920298,326.603,-134.95,0.781348,-179.143,7.05322,-143.13,1532
1569920298,326.603,-134.95,0.781348,-179.143,7.05322,-143.13,1536
1569920298,326.603,-134.95,0.781348,-179.143,7.05322,-143.13,1536
1569920298,326.603,-134.95,0.781348,-179.143,7.05322,-143.13,1536
1569920298,326.603,-134.95,0.781348,-179.143,7.05322,-143.13,1536
1569920298,326.603,-134.838,0.781348,-179.143,7.05322,-143.13,1536
1569920298,326.603,-134.838,0.781348,-179.143,7.05322,-143.13,1536
1569920298,326.603,-134.838,0.781348,-179.143,7.05322,-143.13,1536
1569920298,326.603,-134.838,0.781348,-179.121,7.05322,-143.13,1536
1569920298,326.603,-134.838,0.781348,-179.121,7.05322,-143.13,1536
1569920298,326.603,-134.838,0.781348,-179.121,7.05322,-143.13,1536
1569920298,326.603,-134.838,0.781348,-179.121,7.05322,-143.13,1536
1569920298,326.603,-134.838,0.781348,-179.121,7.05322,-143.13,1536
1569920298,326.603,-134.838,0.781348,-179.121,7.05322,-143.13,1536
1569920298,326.603,-134.838,0.781348,-179.121,7.05322,-143.108,1536
1569920298,326.603,-134.838,0.781348,-179.121,7.05322,-143.108,1536
1569920298,326.492,-134.838,0.781348,-179.121,7.05322,-143.108,1536
1569920298,326.492,-134.838,0.781348,-179.121,7.05322,-143.108,1532
1569920298,326.492,-134.838,0.781348,-179.121,7.05322,-143.108,1532
1569920298,326.492,-134.838,0.781348,-179.121,7.05322,-143.108,1532
1569920298,326.492,-134.838,0.781348,-179.121,7.05322,-143.108,1532
1569920298,326.492,-134.838,0.781348,-179.121,7.05322,-143.108,1532
1569920298,326.492,-134.838,0.781348,-179.121,7.05322,-143.108,1532
1569920298,326.603,-134.838,0.781348,-179.121,7.0752,-143.108,1532
1569920298,326.603,-134.838,0.781348,-179.121,7.0752,-143.108,1532
1569920298,326.603,-134.838,0.781348,-179.121,7.0752,-143.108,1528
1569920298,326.603,-134.838,0.781348,-179.121,7.0752,-143.108,1528
1569920298,326.603,-134.838,0.781348,-179.121,7.0752,-143.108,1528
1569920298,326.603,-134.838,0.781348,-179.121,7.0752,-143.108,1528
1569920298,326.603,-134.838,0.892969,-179.121,7.0752,-143.108,1528
1569920298,326.603,-134.838,0.892969,-179.121,7.0752,-143.108,1528
1569920298,326.603,-134.838,0.892969,-179.121,7.0752,-143.108,1528
1569920298,326.492,-134.838,0.892969,-179.143,7.09717,-143.108,1528
1569920298,326.492,-134.838,0.892969,-179.143,7.09717,-143.108,1528
1569920298,326.492,-134.838,0.892969,-179.143,7.09717,-143.108,1528
1569920298,326.492,-134.838,0.892969,-179.143,7.0752,-143.108,1528
1569920298,326.492,-134.838,0.892969,-179.143,7.0752,-143.108,1528
1569920298,326.492,-134.838,0.892969,-179.143,7.0752,-143.108,1528
1569920298,326.492,-134.838,0.892969,-179.143,7.0752,-143.108,1528
1569920298,326.492,-134.838,0.892969,-179.143,7.0752,-143.108,1524
1569920298,326.492,-134.838,0.781348,-179.143,7.0752,-143.108,1524
1569920298,326.492,-134.838,0.781348,-179.143,7.0752,-143.108,1524
1569920298,326.492,-134.838,0.781348,-179.143,7.0752,-143.108,1524
1569920298,326.492,-134.838,0.781348,-179.143,7.0752,-143.108,1520
1569920298,326.492,-134.838,0.781348,-179.143,7.0752,-143.108,1520
1569920298,326.492,-134.838,0.781348,-179.143,7.0752,-143.108,1520
1569920298,326.492,-134.838,0.781348,-179.143,7.0752,-143.108,1520
1569920298,326.492,-134.838,0.781348,-179.143,7.0752,-143.108,1520
1569920298,326.492,-134.838,0.781348,-179.143,7.0752,-143.108,1520
1569920298,326.492,-134.838,0.781348,-179.143,7.0752,-143.108,1516
1569920298,326.492,-134.838,0.781348,-179.143,7.0752,-143.108,1516
1569920298,326.492,-134.838,0.781348,-179.143,7.0752,-143.108,1516
1569920298,326.492,-134.838,0.781348,-179.143,7.0752,-143.108,1516
1569920298,326.492,-134.838,0.781348,-179.143,7.0752,-143.108,1516
1569920298,326.492,-134.838,0.781348,-179.143,7.0752,-143.108,1516
1569920298,326.492,-134.838,0.781348,-179.143,7.0752,-143.108,1516
1569920298,326.492,-134.838,0.781348,-179.143,7.0752,-143.108,1516
1569920298,326.492,-134.838,0.781348,-179.143,7.05322,-143.108,1516
1569920298,326.492,-134.838,0.781348,-179.143,7.05322,-143.108,1516
1569920298,326.492,-134.838,0.781348,-179.143,7.05322,-143.108,1516
1569920298,326.492,-134.838,0.669727,-179.143,7.05322,-143.108,1516
1569920298,326.492,-134.95,0.669727,-179.143,7.05322,-143.108,1516
1569920298,326.492,-134.95,0.669727,-179.143,7.05322,-143.108,1520
1569920298,326.492,-134.95,0.669727,-179.143,7.05322,-143.108,1520
1569920298,326.492,-134.95,0.669727,-179.143,7.05322,-143.108,1520
1569920298,326.492,-134.95,0.669727,-179.143,7.05322,-143.108,1520
1569920298,326.492,-134.95,0.669727,-179.143,7.05322,-143.108,1520
1569920298,326.492,-134.95,0.669727,-179.143,7.05322,-143.108,1524
1569920298,326.492,-134.95,0.669727,-179.143,7.05322,-143.108,1524
1569920298,326.492,-134.95,0.669727,-179.143,7.05322,-143.108,1524
1569920298,326.492,-134.95,0.669727,-179.143,7.05322,-143.108,1524
1569920298,326.492,-134.95,0.781348,-179.143,7.05322,-143.108,1528
1569920298,326.603,-134.95,0.781348,-179.143,7.05322,-143.108,1528
1569920298,326.603,-134.95,0.669727,-179.143,7.05322,-143.108,1528
1569920298,326.603,-134.95,0.669727,-179.143,7.05322,-143.108,1528
1569920298,326.603,-134.95,0.781348,-179.143,7.05322,-143.108,1532
1569920298,326.603,-134.95,0.781348,-179.143,7.05322,-143.108,1532
1569920298,326.603,-134.95,0.781348,-179.143,7.05322,-143.108,1532
1569920298,326.603,-134.95,0.781348,-179.143,7.05322,-143.108,1532
1569920298,326.603,-134.95,0.781348,-179.143,7.05322,-143.108,1532
1569920298,326.603,-134.95,0.781348,-179.143,7.05322,-143.108,1532
1569920298,326.603,-134.838,0.781348,-179.121,7.05322,-143.108,1532
1569920298,326.603,-134.838,0.781348,-179.121,7.05322,-143.108,1532
1569920298,326.603,-134.838,0.781348,-179.121,7.05322,-143.108,1532
1569920298,326.603,-134.838,0.781348,-179.121,7.05322,-143.108,1532
1569920298,326.603,-134.838,0.781348,-179.121,7.05322,-143.108,1532
1569920298,326.603,-134.838,0.781348,-179.121,7.05322,-143.108,1532
1569920299,326.603,-134.838,0.781348,-179.121,7.05322,-143.108,1532
1569920299,326.603,-134.838,0.781348,-179.121,7.05322,-143.108,1532
1569920299,326.603,-134.838,0.781348,-179.121,7.05322,-143.108,1532
1569920299,326.603,-134.838,0.781348,-179.121,7.05322,-143.108,1532
1569920299,326.603,-134.838,0.781348,-179.121,7.05322,-143.108,1532
1569920299,326.603,-134.838,0.781348,-179.121,7.05322,-143.108,1532
1569920299,326.603,-134.838,0.781348,-179.121,7.05322,-143.108,1532
1569920299,326.603,-134.838,0.781348,-179.121,7.05322,-143.108,1532
1569920299,326.603,-134.838,0.781348,-179.121,7.05322,-143.108,1532
1569920299,326.492,-134.838,0.781348,-179.121,7.05322,-143.108,1528
1569920299,326.492,-134.838,0.781348,-179.121,7.05322,-143.108,1528
1569920299,326.492,-134.838,0.781348,-179.121,7.05322,-143.108,1528
1569920299,326.492,-134.838,0.781348,-179.121,7.0752,-143.108,1528
1569920299,326.492,-134.838,0.781348,-179.121,7.0752,-143.108,1524
1569920299,326.492,-134.838,0.781348,-179.121,7.0752,-143.108,1524
1569920299,326.492,-134.838,0.781348,-179.121,7.0752,-143.108,1524
1569920299,326.492,-134.838,0.781348,-179.121,7.0752,-143.108,1524
1569920299,326.492,-134.838,0.781348,-179.121,7.0752,-143.108,1520
1569920299,326.492,-134.838,0.781348,-179.121,7.0752,-143.108,1520
1569920299,326.492,-134.838,0.781348,-179.121,7.0752,-143.108,1520
1569920299,326.492,-134.838,0.781348,-179.121,7.0752,-143.108,1520
1569920299,326.492,-134.838,0.781348,-179.121,7.0752,-143.108,1520
1569920299,326.492,-134.838,0.781348,-179.121,7.0752,-143.108,1516
1569920299,326.492,-134.838,0.781348,-179.121,7.0752,-143.108,1516
1569920299,326.492,-134.838,0.781348,-179.121,7.0752,-143.108,1516
1569920299,326.492,-134.838,0.781348,-179.143,7.0752,-143.108,1516
1569920299,326.492,-134.838,0.781348,-179.143,7.0752,-143.108,1512
1569920299,326.492,-134.838,0.781348,-179.143,7.0752,-143.108,1512
1569920299,326.492,-134.838,0.781348,-179.143,7.0752,-143.108,1512
1569920299,326.492,-134.838,0.781348,-179.143,7.0752,-143.108,1512
1569920299,326.492,-134.838,0.781348,-179.143,7.0752,-143.108,1508
1569920299,326.492,-134.838,0.781348,-179.143,7.0752,-143.108,1508
1569920299,326.492,-134.838,0.781348,-179.143,7.0752,-143.108,1508
1569920299,326.492,-134.838,0.781348,-179.143,7.0752,-143.108,1508
1569920299,326.492,-134.838,0.781348,-179.143,7.0752,-143.108,1508
1569920299,326.492,-134.838,0.781348,-179.143,7.0752,-143.108,1504
1569920299,326.492,-134.838,0.781348,-179.143,7.0752,-143.108,1504
1569920299,326.492,-134.838,0.781348,-179.143,7.0752,-143.108,1504
1569920299,326.492,-134.838,0.781348,-179.143,7.0752,-143.108,1504
1569920299,326.492,-134.838,0.781348,-179.143,7.0752,-143.108,1504
1569920299,326.492,-134.838,0.781348,-179.121,7.0752,-143.108,1504
1569920299,326.492,-134.838,0.781348,-179.121,7.0752,-143.108,1504
1569920299,326.492,-134.838,0.781348,-179.121,7.0752,-143.108,1504
1569920299,326.492,-134.838,0.781348,-179.121,7.0752,-143.108,1504
1569920299,326.492,-134.838,0.781348,-179.121,7.0752,-143.108,1504
1569920299,326.492,-134.838,0.781348,-179.121,7.0752,-143.108,1500
1569920299,326.492,-134.838,0.781348,-179.121,7.05322,-143.108,1500
1569920299,326.492,-134.838,0.781348,-179.121,7.05322,-143.108,1500
1569920299,326.492,-134.838,0.781348,-179.121,7.05322,-143.108,1500
1569920299,326.492,-134.838,0.781348,-179.121,7.05322,-143.108,1500
1569920299,326.492,-134.838,0.781348,-179.121,7.05322,-143.108,1500
1569920299,326.492,-134.838,0.781348,-179.121,7.05322,-143.108,1500
1569920299,326.492,-134.838,0.781348,-179.121,7.05322,-143.108,1500
1569920299,326.492,-134.838,0.669727,-179.121,7.05322,-143.108,1500
1569920299,326.492,-134.838,0.669727,-179.121,7.05322,-143.108,1500
1569920299,326.492,-134.838,0.669727,-179.121,7.05322,-143.108,1500
1569920299,326.492,-134.838,0.669727,-179.121,7.05322,-143.108,1500
1569920299,326.492,-134.838,0.669727,-179.121,7.05322,-143.108,1500
1569920299,326.492,-134.838,0.781348,-179.099,7.05322,-143.108,1500
1569920299,326.492,-134.838,0.781348,-179.099,7.05322,-143.108,1504
1569920299,326.492,-134.838,0.781348,-179.099,7.05322,-143.108,1504
1569920299,326.492,-134.838,0.781348,-179.099,7.05322,-143.108,1504
1569920299,326.492,-134.838,0.781348,-179.099,7.05322,-143.108,1504
1569920299,326.492,-134.838,0.669727,-179.099,7.05322,-143.108,1504
1569920299,326.492,-134.838,0.669727,-179.099,7.05322,-143.108,1504
1569920299,326.492,-134.838,0.669727,-179.121,7.05322,-143.108,1508
1569920299,326.492,-134.838,0.669727,-179.121,7.05322,-143.108,1508
1569920299,326.492,-134.838,0.669727,-179.121,7.05322,-143.108,1508
1569920299,326.492,-134.838,0.669727,-179.121,7.05322,-143.108,1508
1569920299,326.492,-134.838,0.669727,-179.121,7.03125,-143.108,1508
1569920299,326.492,-134.838,0.669727,-179.121,7.03125,-143.108,1508
1569920299,326.492,-134.838,0.669727,-179.121,7.03125,-143.108,1508
1569920299,326.492,-134.838,0.669727,-179.121,7.03125,-143.108,1508
1569920299,326.492,-134.838,0.669727,-179.121,7.03125,-143.108,1508
1569920299,326.492,-134.838,0.669727,-179.121,7.03125,-143.108,1508
1569920299,326.492,-134.838,0.669727,-179.121,7.03125,-143.108,1508
1569920299,326.603,-134.838,0.669727,-179.121,7.03125,-143.108,1508
1569920299,326.603,-134.838,0.669727,-179.121,7.03125,-143.108,1508
1569920299,326.603,-134.838,0.669727,-179.121,7.03125,-143.108,1512
1569920299,326.603,-134.838,0.669727,-179.121,7.05322,-143.108,1512
1569920299,326.603,-134.838,0.669727,-179.121,7.05322,-143.108,1512
1569920299,326.603,-134.838,0.669727,-179.121,7.05322,-143.108,1512
1569920299,326.603,-134.838,0.669727,-179.121,7.05322,-143.108,1512
1569920299,326.603,-134.95,0.781348,-179.121,7.05322,-143.108,1516
1569920299,326.603,-134.95,0.781348,-179.143,7.05322,-143.108,1516
1569920299,326.603,-134.95,0.781348,-179.143,7.05322,-143.108,1516
1569920299,326.603,-134.95,0.781348,-179.143,7.05322,-143.108,1516
1569920299,326.603,-134.95,0.781348,-179.143,7.0752,-143.108,1516
1569920299,326.603,-134.95,0.781348,-179.143,7.0752,-143.108,1516
1569920299,326.603,-134.95,0.781348,-179.143,7.0752,-143.108,1516
1569920299,326.603,-134.95,0.781348,-179.143,7.05322,-143.108,1520
1569920299,326.492,-134.838,0.781348,-179.143,7.05322,-143.108,1516
1569920299,326.492,-134.838,0.781348,-179.143,7.05322,-143.108,1516
1569920299,326.492,-134.838,0.781348,-179.121,7.05322,-143.108,1516
1569920299,326.492,-134.838,0.781348,-179.121,7.05322,-143.108,1516
1569920299,326.492,-134.838,0.781348,-179.121,7.05322,-143.108,1516
1569920299,326.492,-134.838,0.781348,-179.121,7.05322,-143.108,1516
1569920299,326.492,-134.838,0.669727,-179.121,7.05322,-143.108,1516
1569920299,326.492,-134.838,0.669727,-179.121,7.05322,-143.108,1512
1569920299,326.492,-134.838,0.669727,-179.121,7.05322,-143.108,1512
1569920300,326.492,-134.838,0.669727,-179.121,7.05322,-143.108,1512
1569920300,326.492,-134.838,0.669727,-179.121,7.05322,-143.108,1512
1569920300,326.492,-134.838,0.669727,-179.121,7.05322,-143.108,1512
1569920300,326.492,-134.838,0.669727,-179.143,7.05322,-143.108,1508
1569920300,326.492,-134.838,0.669727,-179.143,7.05322,-143.108,1508
1569920300,326.492,-134.838,0.669727,-179.143,7.05322,-143.108,1508
1569920300,326.492,-134.838,0.669727,-179.143,7.05322,-143.108,1508
1569920300,326.492,-134.838,0.669727,-179.143,7.05322,-143.108,1508
1569920300,326.492,-134.838,0.669727,-179.143,7.05322,-143.108,1508
1569920300,326.492,-134.838,0.669727,-179.143,7.05322,-143.108,1508
1569920300,326.492,-134.838,0.669727,-179.143,7.05322,-143.108,1508
1569920300,326.492,-134.838,0.669727,-179.143,7.05322,-143.108,1508
1569920300,326.492,-134.838,0.669727,-179.143,7.05322,-143.108,1508
1569920300,326.492,-134.838,0.669727,-179.143,7.05322,-143.108,1508
1569920300,326.492,-134.838,0.669727,-179.143,7.05322,-143.108,1508
1569920300,326.492,-134.838,0.781348,-179.143,7.05322,-143.108,1508
1569920300,326.492,-134.838,0.781348,-179.143,7.05322,-143.108,1508
1569920300,326.492,-134.838,0.781348,-179.143,7.05322,-143.108,1508
1569920300,326.603,-134.838,0.781348,-179.143,7.05322,-143.108,1512
1569920300,326.603,-134.838,0.781348,-179.143,7.05322,-143.108,1512
1569920300,326.603,-134.838,0.669727,-179.143,7.05322,-143.108,1512
1569920300,326.603,-134.838,0.669727,-179.143,7.05322,-143.108,1512
1569920300,326.603,-134.838,0.669727,-179.143,7.05322,-143.13,1512
1569920300,326.603,-134.838,0.669727,-179.143,7.05322,-143.13,1512
1569920300,326.603,-134.838,0.669727,-179.143,7.05322,-143.13,1516
1569920300,326.603,-134.838,0.669727,-179.143,7.05322,-143.13,1516
1569920300,326.603,-134.838,0.669727,-179.143,7.05322,-143.13,1516
1569920300,326.603,-134.838,0.669727,-179.143,7.05322,-143.13,1516
1569920300,326.603,-134.838,0.669727,-179.121,7.05322,-143.13,1516
1569920300,326.603,-134.838,0.669727,-179.121,7.05322,-143.13,1516
1569920300,326.603,-134.838,0.669727,-179.121,7.05322,-143.13,1516
1569920300,326.603,-134.838,0.669727,-179.121,7.05322,-143.13,1516
1569920300,326.603,-134.838,0.669727,-179.121,7.05322,-143.13,1520
1569920300,326.603,-134.838,0.669727,-179.121,7.05322,-143.108,1520
1569920300,326.603,-134.838,0.669727,-179.121,7.05322,-143.108,1520
1569920300,326.603,-134.838,0.669727,-179.121,7.05322,-143.108,1520
1569920300,326.603,-134.838,0.669727,-179.121,7.05322,-143.108,1516
1569920300,326.603,-134.838,0.669727,-179.121,7.05322,-143.108,1516
1569920300,326.603,-134.838,0.669727,-179.121,7.05322,-143.108,1516
1569920300,326.603,-134.838,0.669727,-179.121,7.05322,-143.108,1516
1569920300,326.603,-134.838,0.669727,-179.121,7.05322,-143.13,1516
1569920300,326.603,-134.838,0.669727,-179.143,7.05322,-143.13,1516
1569920300,326.603,-134.838,0.669727,-179.143,7.05322,-143.13,1516
1569920300,326.603,-134.838,0.669727,-179.143,7.05322,-143.13,1516
1569920300,326.492,-134.838,0.669727,-179.143,7.05322,-143.13,1516
1569920300,326.492,-134.838,0.669727,-179.143,7.05322,-143.13,1516
1569920300,326.492,-134.838,0.669727,-179.143,7.05322,-143.13,1516
1569920300,326.492,-134.838,0.781348,-179.143,7.05322,-143.13,1516
1569920300,326.492,-134.838,0.781348,-179.143,7.0752,-143.13,1516
1569920300,326.492,-134.838,0.781348,-179.143,7.0752,-143.13,1516
1569920300,326.492,-134.838,0.781348,-179.143,7.0752,-143.13,1516
1569920300,326.492,-134.838,0.781348,-179.143,7.0752,-143.13,1516
1569920300,326.492,-134.838,0.781348,-179.143,7.0752,-143.13,1516
1569920300,326.492,-134.838,0.781348,-179.143,7.0752,-143.13,1516
1569920300,326.492,-134.838,0.781348,-179.143,7.0752,-143.13,1516
1569920300,326.492,-134.838,0.781348,-179.143,7.0752,-143.13,1516
1569920300,326.492,-134.838,0.781348,-179.143,7.0752,-143.13,1516
1569920300,326.492,-134.838,0.781348,-179.143,7.0752,-143.13,1516
1569920300,326.492,-134.838,0.781348,-179.143,7.0752,-143.13,1516
1569920300,326.492,-134.838,0.781348,-179.143,7.0752,-143.13,1516
1569920300,326.492,-134.838,0.781348,-179.143,7.0752,-143.13,1516
1569920300,326.492,-134.838,0.781348,-179.143,7.0752,-143.13,1516
1569920300,326.492,-134.838,0.781348,-179.121,7.09717,-143.13,1516
1569920300,326.492,-134.838,0.781348,-179.121,7.09717,-143.13,1516
1569920300,326.492,-134.838,0.781348,-179.121,7.09717,-143.13,1516
1569920300,326.492,-134.838,0.781348,-179.121,7.09717,-143.108,1516
1569920300,326.492,-134.838,0.781348,-179.121,7.09717,-143.108,1516
1569920300,326.492,-134.838,0.781348,-179.121,7.09717,-143.108,1516
1569920300,326.492,-134.838,0.781348,-179.121,7.09717,-143.13,1516
1569920300,326.492,-134.838,0.781348,-179.121,7.09717,-143.13,1516
1569920300,326.492,-134.838,0.781348,-179.121,7.09717,-143.13,1516
1569920300,326.492,-134.838,0.781348,-179.121,7.09717,-143.13,1516
1569920300,326.492,-134.838,0.781348,-179.121,7.0752,-143.13,1516
1569920300,326.492,-134.838,0.781348,-179.121,7.0752,-143.13,1520
1569920300,326.492,-134.838,0.781348,-179.121,7.0752,-143.13,1520
1569920300,326.492,-134.838,0.781348,-179.121,7.0752,-143.13,1520
1569920300,326.492,-134.838,0.781348,-179.121,7.0752,-143.13,1520
1569920300,326.492,-134.838,0.781348,-179.121,7.0752,-143.108,1520
1569920300,326.492,-134.838,0.781348,-179.121,7.0752,-143.108,1520
1569920300,326.492,-134.838,0.781348,-179.121,7.0752,-143.108,1520
1569920300,326.492,-134.838,0.781348,-179.143,7.0752,-143.108,1520
1569920300,326.492,-134.838,0.781348,-179.143,7.0752,-143.108,1524
1569920300,326.492,-134.838,0.781348,-179.143,7.0752,-143.108,1524
1569920300,326.492,-134.838,0.781348,-179.143,7.0752,-143.108,1524
1569920300,326.492,-134.838,0.781348,-179.143,7.0752,-143.108,1524
1569920300,326.492,-134.838,0.781348,-179.143,7.0752,-143.108,1524
1569920300,326.492,-134.838,0.781348,-179.143,7.0752,-143.108,1524
1569920300,326.492,-134.838,0.781348,-179.143,7.0752,-143.108,1524
1569920300,326.492,-134.838,0.781348,-179.143,7.0752,-143.108,1524
1569920300,326.492,-134.838,0.781348,-179.143,7.0752,-143.108,1524
1569920300,326.492,-134.838,0.781348,-179.143,7.0752,-143.108,1524
1569920300,326.492,-134.838,0.781348,-179.143,7.0752,-143.108,1524
1569920300,326.492,-134.838,0.781348,-179.143,7.0752,-143.108,1528
1569920300,326.492,-134.838,0.781348,-179.143,7.0752,-143.108,1528
1569920300,326.492,-134.838,0.781348,-179.143,7.0752,-143.108,1528
1569920300,326.492,-134.838,0.781348,-179.143,7.0752,-143.108,1528
1569920300,326.492,-134.95,0.781348,-179.143,7.0752,-143.108,1528
1569920300,326.492,-134.95,0.781348,-179.143,7.09717,-143.108,1528
1569920300,326.492,-134.95,0.892969,-179.143,7.09717,-143.108,1528
1569920300,326.492,-134.95,0.892969,-179.143,7.09717,-143.108,1528
1569920301,326.492,-134.95,0.781348,-179.143,7.09717,-143.108,1528
1569920301,326.492,-134.95,0.781348,-179.143,7.09717,-143.108,1528
1569920301,326.492,-134.95,0.781348,-179.143,7.09717,-143.108,1528
1569920301,326.492,-134.95,0.781348,-179.143,7.09717,-143.108,1528
1569920301,326.492,-134.95,0.781348,-179.143,7.09717,-143.108,1528
1569920301,326.492,-134.838,0.781348,-179.143,7.0752,-143.108,1528
1569920301,326.492,-134.838,0.781348,-179.143,7.0752,-143.13,1528
1569920301,326.492,-134.838,0.781348,-179.143,7.0752,-143.13,1528
1569920301,326.492,-134.838,0.781348,-179.143,7.0752,-143.13,1528
1569920301,326.492,-134.838,0.781348,-179.143,7.0752,-143.13,1524
1569920301,326.492,-134.838,0.781348,-179.143,7.0752,-143.13,1524
1569920301,326.492,-134.838,0.781348,-179.143,7.0752,-143.13,1524
1569920301,326.492,-134.95,0.781348,-179.143,7.0752,-143.13,1524
1569920301,326.492,-134.95,0.781348,-179.143,7.0752,-143.13,1524
1569920301,326.492,-134.95,0.781348,-179.143,7.0752,-143.13,1524
1569920301,326.492,-134.95,0.781348,-179.143,7.0752,-143.13,1524
1569920301,326.492,-134.95,0.781348,-179.143,7.0752,-143.13,1524
1569920301,326.492,-134.95,0.781348,-179.143,7.0752,-143.13,1524
1569920301,326.492,-134.95,0.781348,-179.143,7.0752,-143.13,1524
1569920301,326.492,-134.838,0.781348,-179.143,7.0752,-143.13,1524
1569920301,326.492,-134.838,0.781348,-179.143,7.0752,-143.13,1524
1569920301,326.492,-134.838,0.781348,-179.143,7.0752,-143.13,1524
1569920301,326.492,-134.838,0.781348,-179.143,7.0752,-143.13,1520
1569920301,326.492,-134.838,0.781348,-179.143,7.0752,-143.13,1520
1569920301,326.492,-134.838,0.781348,-179.143,7.05322,-143.13,1520
1569920301,326.492,-134.838,0.781348,-179.143,7.05322,-143.13,1520
1569920301,326.492,-134.838,0.781348,-179.143,7.05322,-143.13,1520
1569920301,326.492,-134.838,0.781348,-179.143,7.05322,-143.13,1520
1569920301,326.492,-134.838,0.781348,-179.143,7.05322,-143.13,1520
1569920301,326.492,-134.838,0.781348,-179.143,7.05322,-143.13,1520
1569920301,326.492,-134.838,0.781348,-179.143,7.05322,-143.13,1516
1569920301,326.492,-134.838,0.781348,-179.143,7.05322,-143.13,1516
1569920301,326.492,-134.838,0.781348,-179.143,7.05322,-143.13,1516
1569920301,326.492,-134.838,0.781348,-179.143,7.05322,-143.13,1516
1569920301,326.492,-134.838,0.669727,-179.143,7.05322,-143.13,1516
1569920301,326.492,-134.838,0.669727,-179.143,7.05322,-143.13,1512
1569920301,326.492,-134.838,0.669727,-179.143,7.05322,-143.13,1512
1569920301,326.492,-134.838,0.669727,-179.143,7.05322,-143.13,1512
1569920301,326.492,-134.838,0.669727,-179.143,7.05322,-143.13,1512
1569920301,326.492,-134.838,0.669727,-179.143,7.05322,-143.13,1512
1569920301,326.492,-134.838,0.669727,-179.143,7.05322,-143.13,1508
1569920301,326.492,-134.838,0.669727,-179.143,7.05322,-143.13,1508
1569920301,326.492,-134.838,0.669727,-179.143,7.05322,-143.13,1508
1569920301,326.492,-134.838,0.669727,-179.121,7.05322,-143.13,1508
1569920301,326.492,-134.838,0.669727,-179.121,7.05322,-143.13,1508
1569920301,326.492,-134.838,0.669727,-179.121,7.05322,-143.13,1508
1569920301,326.492,-134.838,0.669727,-179.121,7.05322,-143.13,1508
1569920301,326.492,-134.838,0.669727,-179.121,7.05322,-143.13,1508
1569920301,326.492,-134.838,0.669727,-179.121,7.05322,-143.13,1508
1569920301,326.492,-134.838,0.669727,-179.121,7.05322,-143.13,1508
1569920301,326.492,-134.838,0.669727,-179.121,7.0752,-143.13,1508
1569920301,326.492,-134.838,0.669727,-179.121,7.0752,-143.13,1508
1569920301,326.492,-134.838,0.781348,-179.143,7.0752,-143.13,1508
1569920301,326.492,-134.838,0.781348,-179.143,7.0752,-143.13,1508
1569920301,326.492,-134.838,0.781348,-179.143,7.0752,-143.13,1508
1569920301,326.492,-134.838,0.781348,-179.143,7.0752,-143.13,1508
1569920301,326.492,-134.838,0.781348,-179.143,7.0752,-143.13,1508
1569920301,326.492,-134.838,0.781348,-179.143,7.0752,-143.13,1508
1569920301,326.492,-134.838,0.781348,-179.143,7.0752,-143.13,1508
1569920301,326.492,-134.838,0.781348,-179.143,7.0752,-143.13,1508
1569920301,326.492,-134.838,0.781348,-179.143,7.05322,-143.13,1508
1569920301,326.492,-134.838,0.781348,-179.143,7.05322,-143.13,1508
1569920301,326.492,-134.838,0.781348,-179.143,7.05322,-143.13,1508
1569920301,326.492,-134.838,0.781348,-179.143,7.05322,-143.108,1508
1569920301,326.492,-134.838,0.781348,-179.143,7.0752,-143.108,1508
1569920301,326.492,-134.838,0.781348,-179.143,7.0752,-143.108,1512
1569920301,326.492,-134.838,0.781348,-179.143,7.0752,-143.108,1512
1569920301,326.492,-134.838,0.781348,-179.143,7.0752,-143.108,1512
1569920301,326.492,-134.838,0.781348,-179.143,7.0752,-143.108,1512
1569920301,326.492,-134.838,0.781348,-179.143,7.0752,-143.108,1512
1569920301,326.492,-134.838,0.781348,-179.143,7.0752,-143.108,1512
1569920301,326.492,-134.838,0.781348,-179.143,7.0752,-143.108,1516
1569920301,326.492,-134.838,0.781348,-179.143,7.0752,-143.108,1516
1569920301,326.492,-134.838,0.781348,-179.143,7.0752,-143.108,1516
1569920301,326.492,-134.838,0.781348,-179.143,7.0752,-143.108,1516
1569920301,326.492,-134.838,0.781348,-179.143,7.0752,-143.108,1516
1569920301,326.492,-134.838,0.781348,-179.143,7.0752,-143.108,1516
1569920301,326.492,-134.838,0.781348,-179.143,7.0752,-143.108,1516
1569920301,326.492,-134.838,0.781348,-179.143,7.0752,-143.108,1516
1569920301,326.492,-134.838,0.781348,-179.143,7.0752,-143.108,1516
1569920301,326.492,-134.95,0.781348,-179.143,7.0752,-143.108,1516
1569920301,326.492,-134.95,0.892969,-179.143,7.0752,-143.108,1520
1569920301,326.492,-134.95,0.892969,-179.165,7.09717,-143.108,1520
1569920301,326.492,-134.95,0.892969,-179.165,7.09717,-143.108,1520
1569920301,326.492,-134.95,0.892969,-179.165,7.09717,-143.108,1520
1569920301,326.492,-134.95,0.892969,-179.165,7.09717,-143.108,1520
1569920301,326.492,-134.95,0.892969,-179.165,7.09717,-143.108,1520
1569920301,326.492,-134.95,0.892969,-179.165,7.0752,-143.108,1520
1569920301,326.492,-134.95,0.892969,-179.165,7.0752,-143.108,1520
1569920301,326.492,-134.95,0.781348,-179.165,7.0752,-143.108,1520
1569920301,326.492,-134.95,0.781348,-179.165,7.0752,-143.108,1524
1569920301,326.492,-134.95,0.781348,-179.165,7.0752,-143.108,1524
1569920301,326.492,-134.95,0.781348,-179.165,7.0752,-143.108,1524
1569920301,326.492,-134.95,0.781348,-179.165,7.0752,-143.108,1524
1569920301,326.492,-134.95,0.781348,-179.165,7.0752,-143.108,1524
1569920301,326.492,-134.95,0.781348,-179.165,7.0752,-143.108,1524
1569920301,326.492,-134.95,0.781348,-179.165,7.0752,-143.108,1524
1569920305,284.299,-95.6593,-0.446484,-179.956,7.9541,-142.69,908
1569920305,284.299,-95.6593,-0.446484,-179.956,7.9541,-142.69,908
1569920305,284.299,-95.6593,-0.446484,-179.956,7.9541,-142.69,908
1569920305,284.299,-95.6593,-0.446484,-179.956,7.9541,-142.69,908
1569920305,284.299,-95.6593,-0.446484,-179.956,7.9541,-142.69,908
1569920305,284.299,-95.6593,-0.446484,-179.956,7.9541,-142.69,908
1569920305,284.299,-95.6593,-0.446484,-179.956,7.9541,-142.69,908
1569920305,284.299,-95.6593,-0.446484,-179.956,7.9541,-142.69,908
1569920305,284.299,-95.6593,-0.446484,-179.956,7.9541,-142.69,908
1569920305,284.299,-95.6593,-0.446484,-179.956,7.9541,-142.69,908
1569920305,284.299,-95.6593,-0.446484,-179.956,7.9541,-142.69,912
1569920305,284.299,-95.6593,-0.446484,-179.956,7.9541,-142.69,912
1569920305,284.299,-95.6593,-0.446484,-179.956,7.97607,-142.712,912
1569920305,284.299,-95.6593,-0.446484,-179.956,7.97607,-142.712,912
1569920305,284.299,-95.6593,-0.446484,-179.956,7.97607,-142.712,912
1569920305,284.299,-95.6593,-0.446484,-179.956,7.97607,-142.712,912
1569920305,284.299,-95.6593,-0.446484,-179.956,7.97607,-142.712,912
1569920305,284.299,-95.7709,-0.446484,-179.956,7.97607,-142.712,912
1569920305,284.299,-95.7709,-0.446484,-179.956,7.97607,-142.712,912
1569920305,284.299,-95.7709,-0.446484,-179.956,7.97607,-142.712,912
1569920305,284.299,-95.7709,-0.446484,-179.956,7.97607,-142.712,912
1569920305,284.299,-95.7709,-0.446484,-179.956,7.97607,-142.712,912
1569920305,284.299,-95.7709,-0.446484,-179.956,7.97607,-142.712,912
1569920305,284.299,-95.7709,-0.446484,-179.956,7.97607,-142.712,916
1569920305,284.299,-95.7709,-0.446484,-179.956,7.97607,-142.712,916
1569920305,284.299,-95.7709,-0.446484,-179.956,7.97607,-142.712,916
1569920305,284.299,-95.7709,-0.446484,-179.956,7.97607,-142.712,916
1569920305,284.299,-95.7709,-0.446484,-179.956,7.97607,-142.712,916
1569920305,284.299,-95.7709,-0.446484,-179.956,7.97607,-142.712,916
1569920305,284.299,-95.7709,-0.446484,-179.956,7.97607,-142.712,916
1569920305,284.299,-95.7709,-0.446484,-179.956,7.97607,-142.69,916
1569920305,284.299,-95.7709,-0.446484,-179.956,7.9541,-142.69,916
1569920305,284.299,-95.7709,-0.446484,-179.956,7.9541,-142.69,916
1569920305,284.299,-95.7709,-0.446484,-179.956,7.9541,-142.69,916
1569920305,284.299,-95.7709,-0.446484,-179.956,7.9541,-142.69,916
1569920305,284.299,-95.7709,-0.446484,-179.956,7.9541,-142.69,916
1569920305,284.299,-95.7709,-0.446484,-179.956,7.9541,-142.69,916
1569920305,284.299,-95.7709,-0.446484,-179.956,7.9541,-142.69,916
1569920305,284.299,-95.7709,-0.446484,-179.956,7.9541,-142.69,920
1569920305,284.299,-95.7709,-0.446484,-179.956,7.9541,-142.69,920
1569920305,284.299,-95.7709,-0.446484,-179.956,7.9541,-142.69,920
1569920305,284.299,-95.7709,-0.446484,-179.956,7.9541,-142.712,920
1569920305,284.299,-95.7709,-0.446484,-179.956,7.9541,-142.712,920
1569920305,284.299,-95.7709,-0.446484,-179.956,7.9541,-142.712,920
1569920305,284.299,-95.7709,-0.446484,-179.956,7.9541,-142.712,920
1569920305,284.299,-95.7709,-0.446484,-179.956,7.9541,-142.712,920
1569920305,284.299,-95.7709,-0.446484,-179.956,7.9541,-142.712,920
1569920305,284.299,-95.7709,-0.446484,-179.956,7.9541,-142.712,920
1569920305,284.299,-95.7709,-0.446484,-179.956,7.9541,-142.712,920
1569920305,284.299,-95.7709,-0.446484,-179.956,7.9541,-142.712,920
1569920306,284.299,-95.7709,-0.446484,-179.956,7.9541,-142.712,920
1569920306,284.299,-95.7709,-0.446484,-179.956,7.9541,-142.712,920
1569920306,284.299,-95.7709,-0.446484,-179.956,7.9541,-142.69,920
1569920306,284.299,-95.7709,-0.446484,-179.956,7.9541,-142.69,920
1569920306,284.299,-95.7709,-0.446484,-179.956,7.97607,-142.69,920
1569920306,284.299,-95.7709,-0.446484,-179.956,7.97607,-142.69,920
1569920306,284.299,-95.7709,-0.446484,-179.956,7.97607,-142.712,920
1569920306,284.299,-95.7709,-0.446484,-179.956,7.97607,-142.712,916
1569920306,284.299,-95.6593,-0.446484,-179.956,7.97607,-142.712,916
1569920306,284.299,-95.6593,-0.446484,-179.956,7.97607,-142.712,916
1569920306,284.299,-95.6593,-0.446484,-179.956,7.97607,-142.712,916
1569920306,284.299,-95.6593,-0.446484,-179.956,7.9541,-142.712,920
1569920306,284.299,-95.6593,-0.446484,-179.956,7.9541,-142.712,920
1569920306,284.299,-95.6593,-0.446484,-179.956,7.9541,-142.712,920
1569920306,284.299,-95.6593,-0.446484,-179.956,7.9541,-142.712,920
1569920306,284.299,-95.6593,-0.446484,-179.956,7.9541,-142.712,920
1569920306,284.299,-95.6593,-0.446484,-179.956,7.9541,-142.712,920
1569920306,284.299,-95.6593,-0.446484,-179.956,7.9541,-142.712,920
1569920306,284.299,-95.6593,-0.446484,-179.956,7.9541,-142.712,920
1569920306,284.299,-95.6593,-0.446484,-179.956,7.9541,-142.712,920
1569920306,284.299,-95.7709,-0.446484,-179.956,7.9541,-142.712,920
1569920306,284.299,-95.7709,-0.446484,-179.956,7.9541,-142.712,920
1569920306,284.299,-95.7709,-0.446484,-179.956,7.9541,-142.712,920
1569920306,284.299,-95.7709,-0.446484,-179.956,7.9541,-142.712,924
1569920306,284.299,-95.7709,-0.446484,-179.956,7.9541,-142.712,924
1569920306,284.299,-95.7709,-0.446484,-179.956,7.9541,-142.712,924
1569920306,284.299,-95.7709,-0.446484,-179.956,7.9541,-142.712,924
1569920306,284.299,-95.7709,-0.446484,-179.956,7.9541,-142.712,920
1569920306,284.299,-95.7709,-0.446484,-179.956,7.9541,-142.712,920
1569920306,284.299,-95.7709,-0.446484,-179.956,7.9541,-142.712,920
1569920306,284.299,-95.7709,-0.446484,-179.978,7.9541,-142.712,920
1569920306,284.299,-95.7709,-0.446484,-179.978,7.9541,-142.712,920
1569920306,284.299,-95.7709,-0.446484,-179.978,7.93213,-142.712,920
1569920306,284.299,-95.7709,-0.558105,-179.978,7.93213,-142.712,920
1569920306,284.299,-95.7709,-0.558105,-179.978,7.93213,-142.712,920
1569920306,284.299,-95.7709,-0.558105,-179.978,7.93213,-142.712,920
1569920306,284.299,-95.7709,-0.558105,-179.978,7.93213,-142.712,920
1569920306,284.299,-95.7709,-0.558105,-179.978,7.93213,-142.712,920
1569920306,284.299,-95.7709,-0.558105,-179.978,7.93213,-142.712,920
1569920306,284.299,-95.7709,-0.558105,-179.978,7.93213,-142.712,920
1569920306,284.299,-95.7709,-0.558105,-179.978,7.93213,-142.712,920
1569920306,284.299,-95.7709,-0.558105,-179.978,7.93213,-142.712,920
1569920306,284.299,-95.7709,-0.558105,-179.978,7.93213,-142.712,920
1569920306,284.299,-95.7709,-0.558105,-179.978,7.93213,-142.712,920
1569920306,284.299,-95.7709,-0.558105,-179.978,7.93213,-142.712,920
1569920306,284.299,-95.7709,-0.558105,-179.978,7.93213,-142.712,920
1569920306,284.299,-95.7709,-0.446484,-179.978,7.93213,-142.712,920
1569920306,284.299,-95.7709,-0.446484,-179.978,7.93213,-142.712,916
1569920306,284.299,-95.7709,-0.446484,-179.978,7.93213,-142.712,916
1569920306,284.299,-95.7709,-0.446484,-179.978,7.9541,-142.712,916
1569920306,284.299,-95.7709,-0.446484,-179.978,7.9541,-142.712,916
1569920306,284.299,-95.7709,-0.446484,-179.978,7.9541,-142.712,916
1569920306,284.299,-95.7709,-0.446484,-179.978,7.9541,-142.712,916
1569920306,284.299,-95.7709,-0.446484,-179.978,7.9541,-142.712,916
1569920306,284.299,-95.7709,-0.446484,-179.978,7.9541,-142.712,916
1569920306,284.299,-95.7709,-0.446484,-179.978,7.9541,-142.712,916
1569920306,284.299,-95.7709,-0.446484,-179.978,7.9541,-142.712,916
1569920306,284.299,-95.7709,-0.446484,-179.978,7.9541,-142.712,916
1569920306,284.299,-95.7709,-0.446484,-179.978,7.9541,-142.712,916
1569920306,284.299,-95.7709,-0.446484,-179.978,7.9541,-142.712,916
1569920306,284.299,-95.7709,-0.446484,-179.978,7.9541,-142.712,916
1569920306,284.299,-95.7709,-0.446484,-179.978,7.9541,-142.712,916
1569920306,284.299,-95.7709,-0.446484,-179.978,7.9541,-142.712,916
1569920306,284.299,-95.7709,-0.446484,-179.978,7.9541,-142.712,916
1569920306,284.299,-95.7709,-0.446484,-179.978,7.9541,-142.712,916
1569920306,284.299,-95.7709,-0.446484,-179.978,7.9541,-142.712,916
1569920306,284.299,-95.7709,-0.446484,-179.978,7.9541,-142.712,916
1569920306,284.299,-95.7709,-0.446484,-179.978,7.9541,-142.712,916
1569920306,284.299,-95.7709,-0.446484,-179.978,7.9541,-142.712,916
1569920306,284.299,-95.7709,-0.446484,-179.978,7.9541,-142.712,916
1569920306,284.299,-95.7709,-0.446484,-179.978,7.9541,-142.712,916
1569920306,284.299,-95.7709,-0.446484,-179.978,7.9541,-142.712,916
1569920306,284.299,-95.7709,-0.558105,-179.978,7.9541,-142.712,916
1569920306,284.299,-95.7709,-0.558105,-179.978,7.9541,-142.712,920
1569920306,284.299,-95.7709,-0.558105,-179.978,7.9541,-142.712,920
1569920306,284.299,-95.7709,-0.558105,-179.978,7.93213,-142.712,920
1569920306,284.299,-95.7709,-0.558105,-179.978,7.93213,-142.712,920
1569920306,284.299,-95.7709,-0.558105,-179.978,7.93213,-142.712,920
1569920306,284.299,-95.7709,-0.558105,-179.978,7.93213,-142.712,920
1569920306,284.299,-95.7709,-0.558105,-179.978,7.93213,-142.712,920
1569920306,284.299,-95.7709,-0.558105,-179.978,7.93213,-142.712,920
1569920306,284.299,-95.7709,-0.558105,-179.978,7.93213,-142.712,920
1569920306,284.299,-95.7709,-0.558105,-179.978,7.93213,-142.712,920
1569920306,284.299,-95.7709,-0.558105,-179.978,7.93213,-142.712,920
1569920306,284.299,-95.7709,-0.558105,-179.978,7.9541,-142.712,920
1569920306,284.299,-95.7709,-0.558105,-179.978,7.9541,-142.712,920
1569920306,284.299,-95.7709,-0.558105,-179.978,7.9541,-142.712,920
1569920306,284.299,-95.7709,-0.446484,-179.978,7.9541,-142.712,920
1569920306,284.299,-95.7709,-0.446484,-179.978,7.9541,-142.712,920
1569920306,284.299,-95.7709,-0.446484,-179.978,7.9541,-142.712,920
1569920306,284.299,-95.7709,-0.446484,-179.978,7.9541,-142.712,920
1569920306,284.299,-95.7709,-0.446484,-179.956,7.9541,-142.712,920
1569920306,284.299,-95.7709,-0.446484,-179.956,7.9541,-142.712,920
1569920306,284.299,-95.7709,-0.446484,-179.956,7.9541,-142.712,920
1569920306,284.299,-95.7709,-0.558105,-179.956,7.9541,-142.712,920
1569920306,284.299,-95.7709,-0.558105,-179.956,7.9541,-142.712,920
1569920306,284.299,-95.7709,-0.558105,-179.956,7.9541,-142.712,920
1569920306,284.299,-95.7709,-0.558105,-179.956,7.93213,-142.712,920
1569920306,284.299,-95.7709,-0.558105,-179.956,7.93213,-142.712,920
1569920306,284.299,-95.7709,-0.558105,-179.956,7.93213,-142.712,920
1569920307,284.299,-95.7709,-0.558105,-179.956,7.93213,-142.712,920
1569920307,284.299,-95.7709,-0.558105,-179.956,7.93213,-142.712,920
1569920307,284.299,-95.7709,-0.558105,-179.956,7.93213,-142.712,920
1569920307,284.299,-95.7709,-0.558105,-179.956,7.93213,-142.712,920
1569920307,284.299,-95.7709,-0.558105,-179.956,7.93213,-142.712,920
1569920307,284.299,-95.7709,-0.558105,-179.956,7.93213,-142.712,920
1569920307,284.299,-95.7709,-0.558105,-179.956,7.93213,-142.712,920
1569920307,284.299,-95.7709,-0.558105,-179.956,7.93213,-142.712,920
1569920307,284.299,-95.7709,-0.558105,-179.956,7.9541,-142.712,920
1569920307,284.299,-95.7709,-0.558105,-179.956,7.9541,-142.712,920
1569920307,284.299,-95.7709,-0.446484,-179.956,7.9541,-142.712,920
1569920307,284.299,-95.7709,-0.446484,-179.956,7.9541,-142.712,920
1569920307,284.299,-95.7709,-0.446484,-179.956,7.9541,-142.712,920
1569920307,284.299,-95.7709,-0.558105,-179.956,7.9541,-142.712,920
1569920307,284.299,-95.7709,-0.558105,-179.956,7.9541,-142.712,920
1569920307,284.299,-95.7709,-0.558105,-179.956,7.93213,-142.712,920
1569920307,284.299,-95.7709,-0.558105,-179.956,7.93213,-142.712,920
1569920307,284.299,-95.7709,-0.558105,-179.956,7.93213,-142.712,920
1569920307,284.299,-95.7709,-0.558105,-179.956,7.93213,-142.712,920
1569920307,284.299,-95.7709,-0.558105,-179.956,7.93213,-142.712,920
1569920307,284.299,-95.6593,-0.558105,-179.956,7.9541,-142.712,920
1569920307,284.299,-95.6593,-0.558105,-179.956,7.9541,-142.712,920
1569920307,284.299,-95.6593,-0.558105,-179.956,7.9541,-142.712,920
1569920307,284.299,-95.6593,-0.558105,-179.956,7.9541,-142.712,920
1569920307,284.299,-95.6593,-0.558105,-179.956,7.9541,-142.712,920
1569920307,284.299,-95.6593,-0.558105,-179.956,7.9541,-142.712,920
1569920307,284.299,-95.6593,-0.558105,-179.956,7.9541,-142.712,920
1569920307,284.299,-95.6593,-0.558105,-179.956,7.9541,-142.712,920
1569920307,284.299,-95.6593,-0.558105,-179.956,7.9541,-142.712,920
1569920307,284.299,-95.6593,-0.558105,-179.956,7.93213,-142.712,920
1569920307,284.299,-95.6593,-0.558105,-179.956,7.93213,-142.712,920
1569920307,284.299,-95.6593,-0.558105,-179.956,7.93213,-142.712,920
1569920307,284.299,-95.6593,-0.558105,-179.956,7.93213,-142.712,920
1569920307,284.299,-95.6593,-0.558105,-179.956,7.93213,-142.712,920
1569920307,284.299,-95.6593,-0.558105,-179.956,7.93213,-142.712,920
1569920307,284.299,-95.6593,-0.558105,-179.956,7.9541,-142.712,920
1569920307,284.299,-95.6593,-0.558105,-179.956,7.9541,-142.712,920
1569920307,284.299,-95.6593,-0.558105,-179.956,7.9541,-142.712,920
1569920307,284.299,-95.6593,-0.558105,-179.956,7.9541,-142.712,920
1569920307,284.299,-95.6593,-0.558105,-179.956,7.9541,-142.712,920
1569920307,284.299,-95.6593,-0.558105,-179.956,7.9541,-142.712,920
1569920307,284.299,-95.6593,-0.558105,-179.956,7.9541,-142.712,920
1569920307,284.299,-95.6593,-0.558105,-179.956,7.9541,-142.712,920
1569920307,284.299,-95.6593,-0.558105,-179.956,7.9541,-142.712,920
1569920307,284.299,-95.6593,-0.558105,-179.956,7.9541,-142.712,920
1569920307,284.299,-95.6593,-0.558105,-179.956,7.9541,-142.712,920
1569920307,284.299,-95.6593,-0.558105,-179.956,7.9541,-142.712,920
1569920307,284.299,-95.6593,-0.558105,-179.956,7.9541,-142.712,920
1569920307,284.299,-95.6593,-0.558105,-179.956,7.9541,-142.712,920
1569920307,284.299,-95.6593,-0.446484,-179.956,7.9541,-142.712,920
1569920307,284.299,-95.6593,-0.446484,-179.956,7.9541,-142.712,920
1569920307,284.299,-95.6593,-0.446484,-179.956,7.9541,-142.712,920
1569920307,284.299,-95.6593,-0.446484,-179.956,7.9541,-142.712,920
1569920307,284.299,-95.6593,-0.446484,-179.956,7.9541,-142.712,920
1569920307,284.299,-95.6593,-0.446484,-179.956,7.9541,-142.712,920
1569920307,284.299,-95.6593,-0.446484,-179.956,7.9541,-142.712,920
1569920307,284.299,-95.6593,-0.446484,-179.956,7.9541,-142.712,920
1569920307,284.299,-95.6593,-0.558105,-179.956,7.9541,-142.712,924
1569920307,284.299,-95.6593,-0.558105,-179.956,7.9541,-142.712,924
1569920307,284.299,-95.6593,-0.558105,-179.956,7.9541,-142.712,924
1569920307,284.299,-95.6593,-0.558105,-179.956,7.9541,-142.712,924
1569920307,284.299,-95.6593,-0.558105,-179.956,7.93213,-142.712,924
1569920307,284.299,-95.6593,-0.558105,-179.956,7.93213,-142.712,924
1569920307,284.299,-95.6593,-0.558105,-179.956,7.93213,-142.712,924
1569920307,284.299,-95.6593,-0.558105,-179.956,7.93213,-142.712,924
1569920307,284.299,-95.6593,-0.558105,-179.956,7.93213,-142.712,924
1569920307,284.299,-95.6593,-0.558105,-179.956,7.93213,-142.712,924
1569920307,284.299,-95.6593,-0.558105,-179.956,7.93213,-142.712,924
1569920307,284.299,-95.6593,-0.558105,-179.956,7.93213,-142.712,920
1569920307,284.299,-95.6593,-0.558105,-179.956,7.93213,-142.712,920
1569920307,284.299,-95.6593,-0.558105,-179.956,7.93213,-142.712,920
1569920307,284.299,-95.6593,-0.558105,-179.956,7.93213,-142.712,920
1569920307,284.299,-95.6593,-0.558105,-179.956,7.93213,-142.712,920
1569920307,284.299,-95.6593,-0.558105,-179.956,7.93213,-142.712,920
1569920307,284.299,-95.6593,-0.558105,-179.956,7.93213,-142.712,920
1569920307,284.299,-95.6593,-0.558105,-179.956,7.93213,-142.712,920
1569920307,284.299,-95.6593,-0.558105,-179.956,7.93213,-142.712,920
1569920307,284.299,-95.6593,-0.558105,-179.956,7.93213,-142.712,920
1569920307,284.299,-95.6593,-0.558105,-179.956,7.93213,-142.712,920
1569920307,284.299,-95.6593,-0.558105,-179.956,7.93213,-142.712,920
1569920307,284.299,-95.6593,-0.558105,-179.956,7.93213,-142.712,920
1569920307,284.299,-95.6593,-0.558105,-179.956,7.93213,-142.712,916
1569920307,284.299,-95.6593,-0.558105,-179.956,7.93213,-142.712,916
1569920307,284.299,-95.6593,-0.558105,-179.956,7.93213,-142.712,916
1569920307,284.299,-95.6593,-0.558105,-179.956,7.93213,-142.712,916
1569920307,284.299,-95.6593,-0.558105,-179.956,7.93213,-142.712,916
1569920307,284.299,-95.6593,-0.558105,-179.956,7.93213,-142.712,916
1569920307,284.299,-95.6593,-0.558105,-179.956,7.93213,-142.712,916
1569920307,284.299,-95.6593,-0.558105,-179.956,7.93213,-142.712,916
1569920307,284.299,-95.6593,-0.558105,-179.956,7.93213,-142.712,916
1569920307,284.299,-95.6593,-0.558105,-179.956,7.93213,-142.712,916
1569920307,284.299,-95.6593,-0.558105,-179.956,7.93213,-142.712,916
1569920307,284.299,-95.6593,-0.558105,-179.956,7.93213,-142.712,916
1569920307,284.299,-95.6593,-0.558105,-179.956,7.93213,-142.712,916
1569920307,284.299,-95.6593,-0.558105,-179.956,7.93213,-142.712,916
1569920307,284.299,-95.6593,-0.558105,-179.956,7.93213,-142.712,916
1569920307,284.299,-95.6593,-0.558105,-179.956,7.93213,-142.712,916
1569920307,284.299,-95.6593,-0.558105,-179.956,7.93213,-142.712,916
1569920307,284.299,-95.6593,-0.558105,-179.956,7.93213,-142.712,916
1569920307,284.299,-95.6593,-0.558105,-179.956,7.93213,-142.712,916
1569920308,284.299,-95.6593,-0.558105,-179.956,7.93213,-142.712,916
1569920308,284.299,-95.6593,-0.558105,-179.956,7.93213,-142.712,916
1569920308,284.299,-95.6593,-0.558105,-179.956,7.93213,-142.712,916
1569920308,284.299,-95.6593,-0.558105,-179.956,7.93213,-142.712,916
1569920308,284.299,-95.6593,-0.558105,-179.956,7.93213,-142.712,916
1569920308,284.299,-95.6593,-0.558105,-179.956,7.93213,-142.712,916
1569920308,284.299,-95.6593,-0.558105,-179.956,7.93213,-142.712,916
1569920308,284.299,-95.6593,-0.558105,-179.956,7.93213,-142.712,916
1569920308,284.299,-95.6593,-0.558105,-179.956,7.93213,-142.712,916
1569920308,284.299,-95.7709,-0.558105,-179.956,7.93213,-142.712,916
1569920308,284.299,-95.7709,-0.558105,-179.956,7.93213,-142.712,916
1569920308,284.299,-95.7709,-0.558105,-179.956,7.93213,-142.712,916
1569920308,284.299,-95.7709,-0.558105,-179.956,7.93213,-142.712,916
1569920308,284.299,-95.7709,-0.558105,-179.956,7.93213,-142.712,916
1569920308,284.299,-95.7709,-0.558105,-179.956,7.93213,-142.712,916
1569920308,284.299,-95.7709,-0.558105,-179.956,7.93213,-142.712,916
1569920308,284.299,-95.7709,-0.558105,-179.956,7.93213,-142.712,916
1569920308,284.299,-95.7709,-0.558105,-179.956,7.93213,-142.712,916
1569920308,284.299,-95.7709,-0.558105,-179.956,7.93213,-142.712,916
1569920308,284.299,-95.7709,-0.558105,-179.956,7.93213,-142.712,916
1569920308,284.299,-95.7709,-0.558105,-179.978,7.93213,-142.712,916
1569920308,284.299,-95.7709,-0.558105,-179.978,7.93213,-142.712,916
1569920308,284.299,-95.7709,-0.558105,-179.978,7.93213,-142.712,916
1569920308,284.299,-95.7709,-0.558105,-179.978,7.93213,-142.712,916
1569920308,284.299,-95.7709,-0.558105,-179.978,7.93213,-142.712,916
1569920308,284.299,-95.7709,-0.558105,-179.978,7.93213,-142.712,916
1569920308,284.299,-95.7709,-0.558105,-179.978,7.93213,-142.712,916
1569920308,284.299,-95.7709,-0.558105,-179.978,7.93213,-142.712,916
1569920308,284.299,-95.7709,-0.558105,-179.956,7.93213,-142.712,916
