time,x,y,z,ax,ay,az,q
1569937961,289.657,155.265,-16.6315,178.352,1.3623,-145.151,300
1569937961,289.657,155.265,-16.6315,178.352,1.3623,-145.151,300
1569937961,289.657,155.265,-16.6315,178.352,1.3623,-145.151,300
1569937961,289.657,155.265,-16.6315,178.352,1.3623,-145.151,300
1569937961,289.657,155.265,-16.6315,178.352,1.3623,-145.151,300
1569937961,289.657,155.265,-16.6315,178.352,1.3623,-145.151,300
1569937961,289.657,155.265,-16.6315,178.33,1.3623,-145.173,296
1569937961,289.657,155.265,-16.6315,178.33,1.3623,-145.173,296
1569937961,289.657,155.265,-16.6315,178.33,1.3623,-145.173,296
1569937961,289.657,155.265,-16.6315,178.33,1.3623,-145.173,296
1569937961,289.657,155.265,-16.6315,178.33,1.3623,-145.151,296
1569937961,289.657,155.265,-16.6315,178.33,1.34033,-145.151,300
1569937961,289.657,155.265,-16.6315,178.33,1.34033,-145.151,300
1569937961,289.657,155.265,-16.6315,178.33,1.34033,-145.151,300
1569937961,289.657,155.265,-16.6315,178.33,1.34033,-145.151,300
1569937961,289.657,155.265,-16.6315,178.33,1.34033,-145.151,300
1569937961,289.657,155.265,-16.6315,178.352,1.34033,-145.151,300
1569937961,289.657,155.265,-16.6315,178.352,1.3623,-145.151,300
1569937961,289.657,155.265,-16.6315,178.352,1.3623,-145.151,300
1569937961,289.657,155.265,-16.6315,178.352,1.3623,-145.151,300
1569937961,289.657,155.265,-16.6315,178.352,1.3623,-145.151,300
1569937961,289.657,155.265,-16.6315,178.352,1.3623,-145.151,300
1569937961,289.657,155.265,-16.6315,178.352,1.3623,-145.151,300
1569937961,289.657,155.265,-16.6315,178.352,1.3623,-145.151,296
1569937961,289.657,155.265,-16.6315,178.352,1.3623,-145.173,296
1569937961,289.657,155.265,-16.6315,178.352,1.3623,-145.173,296
1569937961,289.657,155.265,-16.6315,178.352,1.3623,-145.173,296
1569937961,289.657,155.265,-16.6315,178.352,1.3623,-145.173,296
1569937961,289.657,155.265,-16.6315,178.352,1.3623,-145.173,296
1569937961,289.657,155.265,-16.6315,178.352,1.3623,-145.173,296
1569937961,289.657,155.265,-16.6315,178.352,1.3623,-145.173,296
1569937961,289.657,155.265,-16.6315,178.352,1.3623,-145.173,296
1569937961,289.657,155.265,-16.6315,178.352,1.3623,-145.173,296
1569937961,289.657,155.265,-16.6315,178.352,1.3623,-145.173,296
1569937961,289.657,155.265,-16.6315,178.352,1.3623,-145.173,296
1569937961,289.657,155.265,-16.6315,178.352,1.3623,-145.151,296
1569937961,289.657,155.265,-16.6315,178.352,1.3623,-145.151,296
1569937961,289.657,155.265,-16.6315,178.352,1.34033,-145.151,296
1569937961,289.657,155.265,-16.6315,178.352,1.34033,-145.151,296
1569937961,289.657,155.265,-16.6315,178.352,1.34033,-145.151,296
1569937961,289.657,155.265,-16.7432,178.374,1.34033,-145.151,296
1569937961,289.657,155.265,-16.7432,178.374,1.34033,-145.151,296
1569937961,289.657,155.265,-16.7432,178.374,1.34033,-145.151,296
1569937961,289.657,155.265,-16.7432,178.374,1.34033,-145.151,296
1569937961,289.657,155.265,-16.7432,178.374,1.34033,-145.151,296
1569937961,289.657,155.265,-16.7432,178.374,1.34033,-145.151,296
1569937961,289.657,155.265,-16.7432,178.374,1.34033,-145.151,300
1569937961,289.657,155.265,-16.7432,178.374,1.34033,-145.151,300
1569937961,289.657,155.265,-16.7432,178.374,1.34033,-145.151,300
1569937961,289.545,155.265,-16.7432,178.374,1.34033,-145.151,300
1569937961,289.545,155.265,-16.7432,178.374,1.34033,-145.151,300
1569937961,289.545,155.265,-16.7432,178.374,1.34033,-145.151,300
1569937961,289.545,155.265,-16.7432,178.374,1.34033,-145.151,300
1569937961,289.545,155.265,-16.7432,178.374,1.34033,-145.151,300
1569937961,289.545,155.265,-16.6315,178.374,1.34033,-145.151,300
1569937961,289.545,155.265,-16.6315,178.374,1.34033,-145.151,304
1569937961,289.545,155.265,-16.6315,178.374,1.34033,-145.151,304
1569937961,289.545,155.265,-16.6315,178.374,1.34033,-145.151,304
1569937961,289.545,155.265,-16.6315,178.374,1.34033,-145.151,304
1569937961,289.545,155.265,-16.6315,178.374,1.34033,-145.151,304
1569937961,289.545,155.265,-16.6315,178.374,1.34033,-145.151,304
1569937961,289.545,155.265,-16.6315,178.374,1.34033,-145.151,304
1569937961,289.545,155.265,-16.6315,178.374,1.34033,-145.151,304
1569937961,289.545,155.265,-16.6315,178.374,1.34033,-145.151,304
1569937961,289.545,155.265,-16.6315,178.374,1.34033,-145.151,304
1569937961,289.545,155.265,-16.6315,178.374,1.34033,-145.151,304
1569937961,289.545,155.265,-16.6315,178.374,1.34033,-145.151,304
1569937961,289.545,155.265,-16.6315,178.374,1.34033,-145.151,304
1569937961,289.545,155.265,-16.6315,178.374,1.34033,-145.151,304
1569937961,289.545,155.265,-16.6315,178.374,1.34033,-145.151,304
1569937961,289.545,155.265,-16.6315,178.374,1.34033,-145.151,304
1569937961,289.545,155.265,-16.6315,178.374,1.34033,-145.173,300
1569937961,289.545,155.265,-16.6315,178.374,1.34033,-145.173,300
1569937961,289.545,155.265,-16.6315,178.374,1.34033,-145.173,300
1569937961,289.545,155.265,-16.6315,178.374,1.34033,-145.173,300
1569937961,289.545,155.265,-16.6315,178.374,1.3623,-145.173,300
1569937961,289.545,155.265,-16.6315,178.374,1.3623,-145.173,300
1569937961,289.545,155.265,-16.6315,178.374,1.3623,-145.173,300
1569937961,289.545,155.265,-16.6315,178.374,1.3623,-145.173,300
1569937961,289.545,155.265,-16.6315,178.374,1.3623,-145.173,300
1569937961,289.545,155.265,-16.6315,178.374,1.3623,-145.173,300
1569937961,289.545,155.265,-16.6315,178.374,1.3623,-145.173,300
1569937961,289.545,155.265,-16.6315,178.374,1.3623,-145.173,300
1569937961,289.545,155.265,-16.6315,178.374,1.3623,-145.173,300
1569937961,289.545,155.265,-16.6315,178.374,1.3623,-145.151,300
1569937961,289.545,155.265,-16.6315,178.352,1.3623,-145.151,300
1569937962,289.545,155.265,-16.6315,178.352,1.3623,-145.151,300
1569937962,289.545,155.265,-16.6315,178.352,1.3623,-145.151,300
1569937962,289.657,155.265,-16.6315,178.352,1.3623,-145.151,300
1569937962,289.657,155.265,-16.6315,178.352,1.3623,-145.151,300
1569937962,289.657,155.265,-16.6315,178.352,1.34033,-145.151,300
1569937962,289.657,155.265,-16.6315,178.352,1.34033,-145.173,300
1569937962,289.657,155.265,-16.6315,178.352,1.3623,-145.173,300
1569937962,289.657,155.265,-16.6315,178.352,1.3623,-145.173,300
1569937962,289.657,155.265,-16.6315,178.352,1.3623,-145.173,300
1569937962,289.657,155.265,-16.6315,178.352,1.3623,-145.173,300
1569937962,289.657,155.265,-16.6315,178.352,1.3623,-145.173,300
1569937962,289.657,155.265,-16.6315,178.352,1.3623,-145.173,300
1569937962,289.657,155.265,-16.6315,178.352,1.34033,-145.173,300
1569937962,289.657,155.265,-16.6315,178.352,1.34033,-145.173,300
1569937962,289.657,155.265,-16.6315,178.352,1.34033,-145.173,300
1569937962,289.657,155.265,-16.6315,178.352,1.34033,-145.173,300
1569937962,289.657,155.265,-16.6315,178.352,1.34033,-145.173,300
1569937962,289.657,155.265,-16.6315,178.352,1.34033,-145.173,300
1569937962,289.657,155.265,-16.6315,178.352,1.34033,-145.173,300
1569937962,289.657,155.265,-16.6315,178.352,1.34033,-145.173,300
1569937962,289.657,155.265,-16.6315,178.352,1.34033,-145.173,300
1569937962,289.657,155.265,-16.6315,178.352,1.34033,-145.173,300
1569937962,289.657,155.265,-16.6315,178.352,1.34033,-145.173,300
1569937962,289.657,155.265,-16.6315,178.352,1.34033,-145.173,300
1569937962,289.657,155.265,-16.6315,178.352,1.34033,-145.173,300
1569937962,289.657,155.265,-16.6315,178.352,1.34033,-145.173,300
1569937962,289.657,155.265,-16.6315,178.352,1.34033,-145.151,300
1569937962,289.657,155.265,-16.6315,178.352,1.34033,-145.151,300
1569937962,289.657,155.265,-16.7432,178.352,1.34033,-145.151,300
1569937962,289.657,155.265,-16.7432,178.352,1.34033,-145.151,300
1569937962,289.657,155.265,-16.7432,178.352,1.34033,-145.151,300
1569937962,289.657,155.265,-16.7432,178.352,1.34033,-145.151,300
1569937962,289.657,155.265,-16.7432,178.352,1.34033,-145.151,300
1569937962,289.657,155.265,-16.7432,178.352,1.34033,-145.151,300
1569937962,289.657,155.265,-16.7432,178.352,1.34033,-145.151,300
1569937962,289.657,155.265,-16.7432,178.352,1.34033,-145.151,296
1569937962,289.657,155.265,-16.7432,178.352,1.34033,-145.151,296
1569937962,289.657,155.265,-16.7432,178.352,1.34033,-145.151,296
1569937962,289.545,155.265,-16.6315,178.352,1.34033,-145.151,300
1569937962,289.545,155.265,-16.6315,178.352,1.34033,-145.151,300
1569937962,289.545,155.265,-16.6315,178.352,1.34033,-145.151,300
1569937962,289.545,155.265,-16.6315,178.352,1.34033,-145.151,300
1569937962,289.545,155.265,-16.6315,178.352,1.34033,-145.151,300
1569937962,289.545,155.265,-16.6315,178.352,1.34033,-145.151,300
1569937962,289.545,155.265,-16.6315,178.352,1.3623,-145.151,300
1569937962,289.545,155.265,-16.6315,178.352,1.3623,-145.173,300
1569937962,289.545,155.265,-16.6315,178.352,1.3623,-145.173,300
1569937962,289.657,155.265,-16.6315,178.352,1.3623,-145.173,300
1569937962,289.657,155.265,-16.6315,178.352,1.3623,-145.173,300
1569937962,289.657,155.265,-16.6315,178.352,1.3623,-145.173,300
1569937962,289.657,155.265,-16.6315,178.352,1.3623,-145.173,300
1569937962,289.657,155.265,-16.6315,178.352,1.3623,-145.173,300
1569937962,289.657,155.265,-16.6315,178.352,1.3623,-145.173,300
1569937962,289.657,155.265,-16.6315,178.352,1.3623,-145.173,300
1569937962,289.657,155.265,-16.6315,178.352,1.3623,-145.173,300
1569937962,289.657,155.265,-16.6315,178.352,1.3623,-145.173,300
1569937962,289.657,155.265,-16.6315,178.352,1.3623,-145.173,300
1569937962,289.657,155.265,-16.6315,178.352,1.3623,-145.173,300
1569937962,289.657,155.265,-16.6315,178.352,1.3623,-145.173,300
1569937962,289.657,155.265,-16.6315,178.352,1.3623,-145.173,300
1569937962,289.657,155.265,-16.6315,178.352,1.3623,-145.173,296
1569937962,289.657,155.265,-16.6315,178.352,1.3623,-145.173,296
1569937962,289.657,155.265,-16.6315,178.352,1.3623,-145.173,296
1569937962,289.657,155.265,-16.6315,178.352,1.3623,-145.173,296
1569937962,289.657,155.265,-16.6315,178.352,1.3623,-145.151,296
1569937962,289.657,155.265,-16.6315,178.374,1.3623,-145.151,296
1569937962,289.657,155.265,-16.6315,178.374,1.3623,-145.151,296
1569937962,289.657,155.265,-16.6315,178.374,1.3623,-145.151,296
1569937962,289.657,155.265,-16.6315,178.374,1.3623,-145.151,296
1569937962,289.657,155.265,-16.6315,178.374,1.3623,-145.151,296
1569937962,289.657,155.265,-16.6315,178.374,1.3623,-145.151,296
1569937962,289.657,155.265,-16.6315,178.374,1.3623,-145.151,296
1569937962,289.657,155.265,-16.6315,178.374,1.3623,-145.151,300
1569937962,289.657,155.265,-16.6315,178.374,1.3623,-145.151,300
1569937962,289.657,155.265,-16.6315,178.374,1.3623,-145.151,300
1569937962,289.657,155.265,-16.6315,178.374,1.3623,-145.151,300
1569937962,289.657,155.265,-16.6315,178.374,1.3623,-145.151,300
1569937962,289.657,155.265,-16.6315,178.374,1.3623,-145.151,300
1569937962,289.657,155.265,-16.6315,178.374,1.38428,-145.151,300
1569937962,289.657,155.265,-16.6315,178.374,1.38428,-145.151,300
1569937962,289.657,155.265,-16.6315,178.374,1.38428,-145.151,300
1569937962,289.657,155.265,-16.6315,178.374,1.38428,-145.151,300
1569937962,289.657,155.265,-16.6315,178.374,1.38428,-145.151,296
1569937962,289.657,155.265,-16.6315,178.374,1.38428,-145.151,296
1569937962,289.657,155.265,-16.6315,178.374,1.38428,-145.151,296
1569937962,289.657,155.265,-16.6315,178.374,1.38428,-145.151,296
1569937962,289.657,155.265,-16.6315,178.374,1.38428,-145.151,296
1569937962,289.657,155.265,-16.6315,178.374,1.3623,-145.151,296
1569937962,289.657,155.377,-16.6315,178.374,1.3623,-145.151,296
1569937962,289.657,155.377,-16.6315,178.374,1.3623,-145.151,296
1569937962,289.657,155.377,-16.6315,178.374,1.3623,-145.151,296
1569937962,289.657,155.377,-16.6315,178.374,1.3623,-145.151,296
1569937962,289.657,155.377,-16.6315,178.374,1.3623,-145.151,296
1569937962,289.657,155.377,-16.6315,178.374,1.3623,-145.151,296
1569937962,289.657,155.377,-16.6315,178.374,1.3623,-145.151,296
1569937962,289.657,155.377,-16.6315,178.374,1.3623,-145.151,296
1569937962,289.657,155.265,-16.6315,178.374,1.3623,-145.151,296
1569937962,289.657,155.265,-16.6315,178.374,1.3623,-145.151,296
1569937962,289.657,155.265,-16.6315,178.374,1.3623,-145.173,292
1569937962,289.657,155.265,-16.6315,178.374,1.3623,-145.173,292
1569937963,289.657,155.265,-16.6315,178.374,1.3623,-145.173,292
1569937963,289.657,155.265,-16.6315,178.374,1.3623,-145.173,292
1569937963,289.657,155.265,-16.6315,178.374,1.3623,-145.173,292
1569937963,289.657,155.265,-16.6315,178.374,1.3623,-145.151,292
1569937963,289.657,155.265,-16.6315,178.374,1.3623,-145.151,292
1569937963,289.657,155.265,-16.6315,178.374,1.3623,-145.151,292
1569937963,289.657,155.265,-16.6315,178.374,1.3623,-145.151,292
1569937963,289.657,155.265,-16.6315,178.374,1.3623,-145.151,292
1569937963,289.657,155.265,-16.6315,178.374,1.3623,-145.151,292
1569937963,289.657,155.265,-16.6315,178.374,1.3623,-145.151,288
1569937963,289.657,155.265,-16.6315,178.374,1.3623,-145.151,288
1569937963,289.657,155.265,-16.6315,178.374,1.3623,-145.151,288
1569937963,289.657,155.265,-16.6315,178.374,1.3623,-145.151,292
1569937963,289.657,155.265,-16.6315,178.374,1.3623,-145.151,292
1569937963,289.657,155.265,-16.6315,178.374,1.3623,-145.151,292
1569937963,289.657,155.265,-16.6315,178.374,1.3623,-145.151,292
1569937963,289.657,155.265,-16.6315,178.374,1.3623,-145.151,292
1569937963,289.657,155.265,-16.6315,178.374,1.3623,-145.151,292
1569937963,289.657,155.265,-16.6315,178.374,1.3623,-145.151,292
1569937963,289.657,155.265,-16.6315,178.374,1.34033,-145.151,292
1569937963,289.657,155.265,-16.6315,178.374,1.34033,-145.151,292
1569937963,289.657,155.265,-16.7432,178.374,1.34033,-145.151,292
1569937963,289.657,155.265,-16.7432,178.352,1.34033,-145.151,292
1569937963,289.657,155.265,-16.7432,178.352,1.34033,-145.151,292
1569937963,289.657,155.265,-16.7432,178.352,1.34033,-145.151,292
1569937963,289.657,155.265,-16.7432,178.352,1.34033,-145.151,292
1569937963,289.657,155.265,-16.7432,178.352,1.34033,-145.151,292
1569937963,289.657,155.265,-16.7432,178.352,1.34033,-145.151,288
1569937963,289.657,155.265,-16.7432,178.352,1.34033,-145.151,288
1569937963,289.657,155.265,-16.7432,178.352,1.34033,-145.151,288
1569937963,289.657,155.265,-16.7432,178.352,1.34033,-145.151,288
1569937963,289.657,155.265,-16.7432,178.352,1.34033,-145.151,288
1569937963,289.657,155.265,-16.7432,178.352,1.34033,-145.151,288
1569937963,289.657,155.265,-16.7432,178.352,1.34033,-145.151,288
1569937963,289.657,155.265,-16.7432,178.352,1.34033,-145.151,288
1569937963,289.657,155.265,-16.7432,178.352,1.34033,-145.151,288
1569937963,289.657,155.265,-16.7432,178.352,1.34033,-145.151,288
1569937963,289.657,155.265,-16.7432,178.352,1.34033,-145.151,288
1569937963,289.657,155.265,-16.7432,178.33,1.34033,-145.151,288
1569937963,289.657,155.265,-16.7432,178.33,1.34033,-145.151,288
1569937963,289.657,155.265,-16.7432,178.33,1.34033,-145.151,292
1569937963,289.657,155.265,-16.7432,178.33,1.34033,-145.151,292
1569937963,289.657,155.265,-16.6315,178.33,1.3623,-145.151,292
1569937963,289.657,155.265,-16.6315,178.33,1.3623,-145.151,292
1569937963,289.657,155.265,-16.6315,178.33,1.3623,-145.173,296
1569937963,289.657,155.265,-16.6315,178.33,1.3623,-145.173,296
1569937963,289.657,155.265,-16.6315,178.33,1.3623,-145.173,296
1569937963,289.657,155.265,-16.6315,178.33,1.3623,-145.173,296
1569937963,289.657,155.265,-16.6315,178.33,1.3623,-145.173,296
1569937963,289.657,155.265,-16.6315,178.33,1.3623,-145.173,296
1569937963,289.657,155.265,-16.6315,178.33,1.3623,-145.173,296
1569937963,289.657,155.265,-16.6315,178.33,1.3623,-145.173,296
1569937963,289.657,155.265,-16.6315,178.33,1.3623,-145.173,300
1569937963,289.657,155.265,-16.6315,178.33,1.3623,-145.173,300
1569937963,289.657,155.265,-16.6315,178.33,1.3623,-145.173,300
1569937963,289.657,155.265,-16.6315,178.33,1.3623,-145.173,300
1569937963,289.657,155.265,-16.6315,178.33,1.3623,-145.173,300
1569937963,289.657,155.265,-16.6315,178.33,1.3623,-145.173,300
1569937963,289.657,155.265,-16.6315,178.33,1.3623,-145.173,300
1569937963,289.657,155.265,-16.6315,178.33,1.3623,-145.173,300
1569937963,289.657,155.265,-16.6315,178.33,1.3623,-145.173,300
1569937963,289.657,155.265,-16.6315,178.33,1.3623,-145.173,300
1569937963,289.657,155.265,-16.6315,178.33,1.3623,-145.173,300
1569937963,289.657,155.265,-16.6315,178.33,1.3623,-145.173,300
1569937963,289.657,155.265,-16.6315,178.33,1.34033,-145.173,300
1569937963,289.657,155.265,-16.6315,178.33,1.34033,-145.173,300
1569937963,289.657,155.265,-16.6315,178.33,1.34033,-145.173,300
1569937963,289.657,155.265,-16.6315,178.33,1.34033,-145.173,296
1569937963,289.657,155.265,-16.6315,178.33,1.34033,-145.173,296
1569937963,289.657,155.265,-16.6315,178.33,1.34033,-145.173,296
1569937963,289.657,155.265,-16.6315,178.352,1.34033,-145.173,296
1569937963,289.657,155.265,-16.6315,178.352,1.34033,-145.173,296
1569937963,289.657,155.265,-16.6315,178.352,1.34033,-145.173,296
1569937963,289.657,155.265,-16.6315,178.352,1.34033,-145.173,296
1569937963,289.657,155.265,-16.6315,178.352,1.34033,-145.173,296
1569937963,289.657,155.265,-16.6315,178.352,1.34033,-145.173,296
1569937963,289.657,155.265,-16.6315,178.352,1.34033,-145.173,292
1569937963,289.657,155.265,-16.6315,178.352,1.34033,-145.173,292
1569937963,289.657,155.265,-16.6315,178.352,1.34033,-145.173,292
1569937963,289.657,155.265,-16.6315,178.352,1.34033,-145.173,292
1569937963,289.657,155.265,-16.6315,178.352,1.34033,-145.173,292
1569937963,289.657,155.265,-16.6315,178.352,1.3623,-145.173,292
1569937963,289.657,155.265,-16.6315,178.352,1.3623,-145.173,292
1569937963,289.657,155.265,-16.6315,178.352,1.3623,-145.173,292
1569937963,289.657,155.265,-16.6315,178.352,1.3623,-145.173,292
1569937963,289.657,155.265,-16.6315,178.352,1.3623,-145.173,292
1569937963,289.657,155.265,-16.6315,178.352,1.3623,-145.173,292
1569937963,289.657,155.265,-16.6315,178.352,1.3623,-145.173,292
1569937963,289.657,155.265,-16.6315,178.352,1.3623,-145.173,292
1569937963,289.657,155.265,-16.6315,178.352,1.3623,-145.173,292
1569937963,289.657,155.265,-16.6315,178.352,1.3623,-145.173,292
1569937963,289.657,155.265,-16.6315,178.352,1.3623,-145.173,292
1569937963,289.657,155.265,-16.6315,178.352,1.3623,-145.173,292
1569937963,289.657,155.265,-16.6315,178.352,1.3623,-145.173,292
1569937963,289.657,155.265,-16.6315,178.33,1.3623,-145.173,292
1569937963,289.657,155.265,-16.6315,178.33,1.3623,-145.173,292
1569937963,289.657,155.265,-16.6315,178.33,1.3623,-145.173,292
1569937963,289.657,155.265,-16.6315,178.33,1.3623,-145.173,292
1569937963,289.657,155.265,-16.6315,178.352,1.3623,-145.173,292
1569937964,289.657,155.265,-16.6315,178.352,1.3623,-145.173,288
1569937964,289.657,155.265,-16.6315,178.352,1.3623,-145.173,288
1569937964,289.657,155.265,-16.6315,178.352,1.3623,-145.173,288
1569937964,289.657,155.265,-16.6315,178.352,1.3623,-145.173,288
1569937964,289.657,155.265,-16.6315,178.352,1.3623,-145.173,288
1569937964,289.657,155.265,-16.6315,178.352,1.3623,-145.173,288
1569937964,289.657,155.265,-16.6315,178.352,1.3623,-145.173,292
1569937964,289.657,155.265,-16.6315,178.352,1.3623,-145.173,292
1569937964,289.657,155.153,-16.6315,178.33,1.3623,-145.173,292
1569937964,289.657,155.153,-16.6315,178.33,1.3623,-145.173,292
1569937964,289.657,155.153,-16.6315,178.33,1.3623,-145.173,292
1569937964,289.657,155.153,-16.6315,178.33,1.3623,-145.173,292
1569937964,289.657,155.153,-16.6315,178.33,1.3623,-145.173,292
1569937964,289.657,155.153,-16.6315,178.33,1.3623,-145.173,292
1569937964,289.657,155.153,-16.6315,178.33,1.3623,-145.173,292
1569937964,289.657,155.153,-16.6315,178.33,1.3623,-145.173,292
1569937964,289.657,155.153,-16.6315,178.33,1.3623,-145.173,292
1569937964,289.657,155.153,-16.6315,178.33,1.3623,-145.173,292
1569937964,289.657,155.153,-16.6315,178.33,1.3623,-145.173,296
1569937964,289.657,155.153,-16.6315,178.33,1.3623,-145.173,296
1569937964,289.657,155.153,-16.6315,178.33,1.3623,-145.173,296
1569937964,289.657,155.153,-16.6315,178.33,1.3623,-145.173,296
1569937964,289.657,155.153,-16.6315,178.33,1.3623,-145.173,296
1569937964,289.657,155.153,-16.6315,178.33,1.3623,-145.173,296
1569937964,289.657,155.153,-16.6315,178.33,1.34033,-145.173,292
1569937964,289.657,155.153,-16.6315,178.33,1.34033,-145.173,292
1569937964,289.657,155.153,-16.6315,178.33,1.34033,-145.173,292
1569937964,289.657,155.153,-16.6315,178.33,1.34033,-145.173,292
1569937964,289.657,155.153,-16.6315,178.33,1.34033,-145.173,292
1569937964,289.657,155.153,-16.6315,178.33,1.34033,-145.173,292
1569937964,289.657,155.153,-16.6315,178.33,1.34033,-145.173,292
1569937964,289.657,155.153,-16.6315,178.33,1.34033,-145.173,292
1569937964,289.657,155.153,-16.6315,178.33,1.34033,-145.173,292
1569937964,289.657,155.153,-16.6315,178.33,1.34033,-145.173,292
1569937964,289.657,155.153,-16.6315,178.33,1.3623,-145.151,292
1569937964,289.657,155.153,-16.6315,178.33,1.3623,-145.151,292
1569937964,289.657,155.153,-16.6315,178.33,1.3623,-145.151,292
1569937964,289.657,155.153,-16.6315,178.33,1.3623,-145.151,292
1569937964,289.657,155.153,-16.6315,178.33,1.3623,-145.151,292
1569937964,289.657,155.153,-16.6315,178.33,1.3623,-145.151,292
1569937964,289.657,155.153,-16.6315,178.33,1.3623,-145.151,292
1569937964,289.657,155.153,-16.6315,178.33,1.3623,-145.151,292
1569937964,289.657,155.153,-16.6315,178.33,1.3623,-145.151,292
1569937964,289.657,155.153,-16.6315,178.33,1.3623,-145.151,292
1569937964,289.657,155.153,-16.6315,178.33,1.3623,-145.151,292
1569937964,289.657,155.153,-16.6315,178.33,1.3623,-145.151,292
1569937964,289.657,155.153,-16.6315,178.33,1.3623,-145.173,292
1569937964,289.657,155.153,-16.6315,178.33,1.3623,-145.173,292
1569937964,289.657,155.153,-16.6315,178.33,1.3623,-145.173,292
1569937964,289.657,155.153,-16.6315,178.33,1.3623,-145.173,292
1569937964,289.657,155.153,-16.6315,178.33,1.3623,-145.173,292
1569937964,289.657,155.153,-16.6315,178.33,1.3623,-145.173,292
1569937964,289.657,155.153,-16.6315,178.33,1.3623,-145.173,292
1569937964,289.657,155.153,-16.6315,178.33,1.38428,-145.173,292
1569937964,289.657,155.153,-16.6315,178.33,1.38428,-145.173,292
1569937964,289.657,155.153,-16.6315,178.33,1.38428,-145.173,292
1569937964,289.657,155.153,-16.6315,178.33,1.38428,-145.173,292
1569937964,289.657,155.153,-16.6315,178.33,1.38428,-145.173,296
1569937964,289.657,155.153,-16.6315,178.33,1.3623,-145.173,296
1569937964,289.657,155.153,-16.6315,178.33,1.3623,-145.173,296
1569937964,289.657,155.153,-16.6315,178.352,1.38428,-145.173,296
1569937964,289.657,155.153,-16.6315,178.352,1.38428,-145.173,296
1569937964,289.657,155.153,-16.6315,178.352,1.38428,-145.173,296
1569937964,289.657,155.265,-16.6315,178.352,1.38428,-145.173,296
1569937964,289.657,155.265,-16.6315,178.352,1.38428,-145.173,296
1569937964,289.657,155.265,-16.6315,178.352,1.38428,-145.173,296
1569937964,289.657,155.265,-16.6315,178.352,1.38428,-145.173,296
1569937964,289.657,155.265,-16.6315,178.352,1.3623,-145.173,296
1569937964,289.657,155.265,-16.6315,178.352,1.3623,-145.173,296
1569937964,289.657,155.265,-16.6315,178.352,1.3623,-145.173,296
1569937964,289.657,155.265,-16.6315,178.352,1.3623,-145.173,296
1569937964,289.657,155.265,-16.6315,178.352,1.3623,-145.173,296
1569937964,289.657,155.265,-16.6315,178.352,1.3623,-145.173,296
1569937964,289.657,155.265,-16.6315,178.352,1.3623,-145.173,296
1569937964,289.657,155.265,-16.6315,178.352,1.3623,-145.173,296
1569937964,289.657,155.265,-16.6315,178.352,1.3623,-145.173,296
1569937964,289.657,155.265,-16.6315,178.352,1.3623,-145.173,296
1569937964,289.657,155.265,-16.6315,178.352,1.3623,-145.173,296
1569937964,289.657,155.265,-16.6315,178.352,1.3623,-145.173,296
1569937964,289.657,155.265,-16.6315,178.352,1.3623,-145.173,296
1569937964,289.657,155.265,-16.6315,178.352,1.3623,-145.173,296
1569937964,289.657,155.265,-16.6315,178.352,1.3623,-145.173,296
1569937964,289.657,155.265,-16.6315,178.352,1.3623,-145.173,296
1569937964,289.657,155.265,-16.6315,178.352,1.3623,-145.173,296
1569937964,289.657,155.265,-16.6315,178.352,1.3623,-145.173,296
1569937964,289.657,155.265,-16.6315,178.352,1.3623,-145.173,292
1569937964,289.657,155.265,-16.6315,178.352,1.3623,-145.173,292
1569937964,289.657,155.265,-16.6315,178.352,1.3623,-145.173,292
1569937964,289.657,155.265,-16.6315,178.352,1.3623,-145.173,292
1569937964,289.657,155.265,-16.6315,178.352,1.3623,-145.173,292
1569937964,289.657,155.265,-16.6315,178.352,1.3623,-145.173,292
1569937964,289.657,155.265,-16.6315,178.352,1.3623,-145.173,292
1569937964,289.657,155.265,-16.6315,178.352,1.3623,-145.151,292
1569937964,289.657,155.265,-16.6315,178.352,1.3623,-145.151,292
1569937964,289.657,155.265,-16.6315,178.352,1.3623,-145.151,292
1569937964,289.657,155.265,-16.6315,178.352,1.3623,-145.151,292
1569937964,289.657,155.265,-16.6315,178.352,1.34033,-145.151,292
1569937964,289.657,155.265,-16.6315,178.352,1.34033,-145.151,292
1569937964,289.657,155.265,-16.6315,178.352,1.34033,-145.151,292
1569937964,289.657,155.265,-16.6315,178.352,1.34033,-145.151,292
1569937965,289.657,155.265,-16.6315,178.352,1.34033,-145.151,292
1569937965,289.657,155.265,-16.6315,178.352,1.34033,-145.151,292
1569937965,289.657,155.265,-16.6315,178.352,1.34033,-145.151,292
1569937965,289.657,155.265,-16.6315,178.352,1.34033,-145.151,292
1569937965,289.657,155.265,-16.6315,178.352,1.34033,-145.151,292
1569937965,289.657,155.265,-16.7432,178.352,1.34033,-145.151,292
1569937965,289.657,155.265,-16.7432,178.352,1.34033,-145.151,292
1569937965,289.657,155.265,-16.7432,178.352,1.34033,-145.151,292
1569937965,289.657,155.265,-16.7432,178.352,1.34033,-145.151,292
1569937965,289.657,155.265,-16.7432,178.352,1.34033,-145.151,292
1569937965,289.657,155.265,-16.7432,178.352,1.31836,-145.151,292
1569937965,289.657,155.265,-16.7432,178.352,1.31836,-145.151,292
1569937965,289.657,155.265,-16.7432,178.352,1.31836,-145.151,292
1569937965,289.657,155.265,-16.7432,178.352,1.31836,-145.151,292
1569937965,289.657,155.265,-16.7432,178.352,1.31836,-145.151,292
1569937965,289.657,155.265,-16.7432,178.352,1.31836,-145.151,292
1569937965,289.657,155.265,-16.7432,178.352,1.31836,-145.151,292
1569937965,289.657,155.265,-16.7432,178.352,1.31836,-145.151,292
1569937965,289.657,155.265,-16.7432,178.352,1.31836,-145.151,292
1569937965,289.657,155.265,-16.7432,178.352,1.31836,-145.151,292
1569937965,289.657,155.265,-16.7432,178.352,1.34033,-145.151,296
1569937965,289.657,155.265,-16.7432,178.352,1.34033,-145.151,296
1569937965,289.657,155.265,-16.7432,178.352,1.34033,-145.151,296
1569937965,289.657,155.265,-16.7432,178.352,1.34033,-145.151,296
1569937965,289.657,155.265,-16.6315,178.352,1.34033,-145.151,296
1569937965,289.657,155.265,-16.6315,178.352,1.34033,-145.151,296
1569937965,289.657,155.265,-16.6315,178.352,1.34033,-145.151,296
1569937965,289.657,155.265,-16.6315,178.352,1.34033,-145.151,296
1569937965,289.657,155.265,-16.6315,178.352,1.34033,-145.151,296
1569937965,289.657,155.265,-16.6315,178.352,1.34033,-145.151,296
1569937965,289.657,155.265,-16.6315,178.352,1.34033,-145.151,292
1569937965,289.657,155.265,-16.6315,178.352,1.34033,-145.151,292
1569937965,289.657,155.265,-16.6315,178.352,1.34033,-145.151,292
1569937965,289.657,155.265,-16.6315,178.352,1.34033,-145.151,292
1569937965,289.657,155.265,-16.6315,178.352,1.34033,-145.151,292
1569937965,289.657,155.265,-16.6315,178.352,1.34033,-145.151,292
1569937965,289.657,155.265,-16.6315,178.352,1.34033,-145.151,292
1569937965,289.657,155.265,-16.6315,178.352,1.34033,-145.151,288
1569937965,289.657,155.265,-16.6315,178.352,1.34033,-145.151,288
1569937965,289.657,155.265,-16.6315,178.352,1.34033,-145.151,288
1569937965,289.657,155.265,-16.6315,178.352,1.34033,-145.151,288
1569937965,289.657,155.265,-16.6315,178.352,1.34033,-145.151,288
1569937965,289.657,155.265,-16.6315,178.352,1.34033,-145.151,288
1569937965,289.657,155.265,-16.6315,178.352,1.3623,-145.151,284
1569937965,289.657,155.265,-16.6315,178.352,1.3623,-145.151,284
1569937965,289.657,155.265,-16.6315,178.352,1.3623,-145.151,284
1569937965,289.657,155.265,-16.6315,178.352,1.3623,-145.151,284
1569937965,289.657,155.265,-16.6315,178.352,1.3623,-145.151,284
1569937965,289.657,155.265,-16.6315,178.352,1.3623,-145.151,284
1569937965,289.657,155.265,-16.6315,178.352,1.3623,-145.151,284
1569937965,289.657,155.265,-16.6315,178.352,1.3623,-145.151,284
1569937965,289.657,155.265,-16.6315,178.352,1.3623,-145.151,284
1569937965,289.657,155.265,-16.6315,178.352,1.3623,-145.151,284
1569937965,289.657,155.265,-16.6315,178.352,1.3623,-145.151,288
1569937965,289.657,155.265,-16.6315,178.352,1.3623,-145.151,288
1569937965,289.657,155.265,-16.6315,178.352,1.3623,-145.151,288
1569937965,289.657,155.265,-16.6315,178.352,1.3623,-145.151,288
1569937965,289.657,155.265,-16.6315,178.352,1.3623,-145.151,288
1569937965,289.657,155.265,-16.6315,178.352,1.3623,-145.151,288
1569937965,289.657,155.265,-16.6315,178.352,1.3623,-145.151,288
1569937965,289.657,155.265,-16.6315,178.352,1.3623,-145.151,288
1569937965,289.657,155.265,-16.6315,178.352,1.3623,-145.151,288
1569937965,289.657,155.265,-16.6315,178.352,1.3623,-145.151,288
1569937965,289.657,155.265,-16.6315,178.352,1.3623,-145.151,288
1569937965,289.657,155.265,-16.6315,178.352,1.3623,-145.151,292
1569937965,289.657,155.265,-16.6315,178.352,1.3623,-145.151,292
1569937965,289.657,155.265,-16.6315,178.352,1.3623,-145.151,292
1569937965,289.657,155.265,-16.6315,178.352,1.3623,-145.151,292
1569937965,289.657,155.265,-16.6315,178.352,1.3623,-145.151,292
1569937965,289.657,155.265,-16.6315,178.352,1.3623,-145.151,292
1569937965,289.657,155.265,-16.6315,178.352,1.3623,-145.151,292
1569937965,289.657,155.265,-16.6315,178.352,1.3623,-145.151,292
1569937965,289.657,155.265,-16.6315,178.352,1.3623,-145.151,292
1569937965,289.657,155.265,-16.6315,178.352,1.3623,-145.151,292
1569937965,289.657,155.265,-16.6315,178.352,1.3623,-145.151,292
1569937965,289.657,155.265,-16.6315,178.352,1.3623,-145.151,292
1569937965,289.657,155.265,-16.6315,178.352,1.3623,-145.151,292
1569937965,289.657,155.265,-16.6315,178.352,1.3623,-145.151,292
1569937965,289.657,155.265,-16.6315,178.352,1.3623,-145.151,292
1569937965,289.657,155.265,-16.6315,178.352,1.3623,-145.151,292
1569937965,289.657,155.265,-16.6315,178.352,1.3623,-145.173,292
1569937965,289.657,155.265,-16.6315,178.352,1.3623,-145.173,296
1569937965,289.657,155.265,-16.6315,178.352,1.3623,-145.173,296
1569937965,289.657,155.265,-16.6315,178.352,1.3623,-145.173,296
1569937965,289.657,155.265,-16.6315,178.352,1.3623,-145.151,296
1569937965,289.657,155.265,-16.6315,178.352,1.3623,-145.151,296
1569937965,289.657,155.265,-16.6315,178.352,1.3623,-145.151,296
1569937965,289.657,155.265,-16.6315,178.352,1.3623,-145.151,296
1569937965,289.657,155.265,-16.6315,178.352,1.3623,-145.151,296
1569937965,289.657,155.265,-16.6315,178.352,1.3623,-145.151,296
1569937965,289.657,155.265,-16.6315,178.352,1.34033,-145.151,296
1569937965,289.657,155.265,-16.6315,178.352,1.34033,-145.151,296
1569937965,289.657,155.265,-16.6315,178.374,1.34033,-145.151,296
1569937965,289.657,155.265,-16.6315,178.374,1.34033,-145.151,296
1569937965,289.657,155.265,-16.6315,178.374,1.34033,-145.151,292
1569937965,289.657,155.265,-16.6315,178.374,1.34033,-145.151,292
1569937965,289.657,155.265,-16.6315,178.374,1.34033,-145.151,292
1569937965,289.657,155.265,-16.6315,178.374,1.34033,-145.151,292
1569937965,289.657,155.265,-16.6315,178.374,1.34033,-145.151,292
1569937965,289.657,155.265,-16.6315,178.374,1.34033,-145.151,292
1569937965,289.657,155.265,-16.6315,178.374,1.34033,-145.151,292
1569937966,289.657,155.265,-16.6315,178.374,1.34033,-145.151,292
1569937966,289.657,155.265,-16.6315,178.374,1.34033,-145.151,292
1569937966,289.657,155.265,-16.6315,178.374,1.3623,-145.151,292
1569937966,289.657,155.377,-16.6315,178.374,1.3623,-145.151,292
1569937966,289.657,155.377,-16.6315,178.374,1.3623,-145.151,292
1569937966,289.657,155.377,-16.6315,178.374,1.3623,-145.151,292
1569937966,289.657,155.377,-16.6315,178.374,1.3623,-145.151,292
1569937966,289.657,155.377,-16.6315,178.374,1.3623,-145.151,292
1569937966,289.657,155.377,-16.6315,178.374,1.3623,-145.151,292
1569937966,289.657,155.377,-16.6315,178.374,1.3623,-145.151,292
1569937966,289.657,155.377,-16.6315,178.374,1.3623,-145.151,292
1569937966,289.657,155.377,-16.6315,178.374,1.3623,-145.151,292
1569937966,289.657,155.377,-16.6315,178.374,1.3623,-145.151,292
1569937966,289.657,155.377,-16.6315,178.374,1.3623,-145.151,292
1569937969,304.837,138.522,-16.6315,178.374,1.14258,-144.91,316
1569937969,304.837,138.522,-16.6315,178.374,1.14258,-144.91,316
1569937969,304.837,138.522,-16.6315,178.374,1.14258,-144.91,316
1569937969,304.837,138.522,-16.6315,178.374,1.14258,-144.91,316
1569937969,304.837,138.522,-16.6315,178.374,1.14258,-144.91,316
1569937970,304.837,138.522,-16.6315,178.374,1.14258,-144.91,320
1569937970,304.837,138.522,-16.6315,178.374,1.14258,-144.91,320
1569937970,304.837,138.522,-16.6315,178.374,1.14258,-144.91,320
1569937970,304.837,138.522,-16.7432,178.374,1.14258,-144.91,320
1569937970,304.837,138.522,-16.7432,178.374,1.14258,-144.91,320
1569937970,304.837,138.522,-16.7432,178.374,1.14258,-144.91,320
1569937970,304.837,138.522,-16.7432,178.374,1.14258,-144.91,320
1569937970,304.837,138.522,-16.7432,178.374,1.14258,-144.91,320
1569937970,304.837,138.522,-16.7432,178.374,1.14258,-144.91,316
1569937970,304.837,138.522,-16.7432,178.374,1.14258,-144.91,316
1569937970,304.837,138.522,-16.7432,178.374,1.14258,-144.91,316
1569937970,304.837,138.522,-16.7432,178.374,1.14258,-144.91,316
1569937970,304.837,138.522,-16.7432,178.374,1.14258,-144.91,316
1569937970,304.837,138.522,-16.7432,178.352,1.12061,-144.888,316
1569937970,304.837,138.522,-16.7432,178.352,1.12061,-144.888,316
1569937970,304.837,138.522,-16.7432,178.352,1.12061,-144.888,316
1569937970,304.837,138.522,-16.7432,178.352,1.12061,-144.888,316
1569937970,304.837,138.522,-16.7432,178.352,1.12061,-144.888,316
1569937970,304.837,138.522,-16.7432,178.352,1.12061,-144.888,312
1569937970,304.837,138.522,-16.7432,178.352,1.12061,-144.888,312
1569937970,304.837,138.522,-16.7432,178.352,1.12061,-144.888,312
1569937970,304.837,138.522,-16.7432,178.352,1.12061,-144.888,312
1569937970,304.949,138.522,-16.7432,178.352,1.12061,-144.888,312
1569937970,304.949,138.522,-16.7432,178.352,1.12061,-144.888,312
1569937970,304.949,138.522,-16.7432,178.352,1.12061,-144.888,308
1569937970,304.949,138.522,-16.7432,178.352,1.14258,-144.888,308
1569937970,304.949,138.522,-16.7432,178.352,1.14258,-144.888,308
1569937970,304.949,138.633,-16.7432,178.374,1.14258,-144.888,308
1569937970,304.949,138.633,-16.7432,178.374,1.14258,-144.888,308
1569937970,304.949,138.633,-16.7432,178.374,1.14258,-144.888,308
1569937970,304.949,138.633,-16.7432,178.374,1.14258,-144.888,304
1569937970,304.949,138.633,-16.7432,178.374,1.14258,-144.888,304
1569937970,304.949,138.633,-16.7432,178.374,1.14258,-144.888,304
1569937970,304.837,138.633,-16.7432,178.374,1.14258,-144.888,304
1569937970,304.837,138.633,-16.7432,178.374,1.14258,-144.888,304
1569937970,304.837,138.633,-16.7432,178.374,1.14258,-144.888,304
1569937970,304.837,138.633,-16.7432,178.374,1.14258,-144.888,304
1569937970,304.837,138.633,-16.7432,178.374,1.14258,-144.91,304
1569937970,304.837,138.633,-16.7432,178.374,1.14258,-144.91,304
1569937970,304.837,138.633,-16.7432,178.374,1.14258,-144.91,300
1569937970,304.837,138.633,-16.7432,178.374,1.14258,-144.91,300
1569937970,304.837,138.633,-16.7432,178.374,1.14258,-144.91,300
1569937970,304.837,138.633,-16.7432,178.374,1.14258,-144.91,300
1569937970,304.837,138.633,-16.7432,178.374,1.14258,-144.91,300
1569937970,304.837,138.633,-16.7432,178.374,1.14258,-144.91,300
1569937970,304.837,138.633,-16.7432,178.374,1.14258,-144.91,300
1569937970,304.837,138.633,-16.7432,178.374,1.14258,-144.91,300
1569937970,304.837,138.522,-16.7432,178.374,1.14258,-144.888,300
1569937970,304.837,138.522,-16.7432,178.374,1.12061,-144.91,304
1569937970,304.837,138.522,-16.7432,178.374,1.12061,-144.91,304
1569937970,304.837,138.522,-16.7432,178.374,1.12061,-144.91,304
1569937970,304.837,138.522,-16.7432,178.374,1.12061,-144.91,304
1569937970,304.837,138.522,-16.7432,178.374,1.14258,-144.91,304
1569937970,304.837,138.522,-16.7432,178.374,1.14258,-144.91,304
1569937970,304.837,138.522,-16.7432,178.374,1.14258,-144.91,304
1569937970,304.837,138.522,-16.7432,178.374,1.14258,-144.91,304
1569937970,304.837,138.522,-16.7432,178.374,1.14258,-144.91,304
1569937970,304.837,138.522,-16.7432,178.374,1.14258,-144.91,304
1569937970,304.837,138.522,-16.7432,178.374,1.14258,-144.91,304
1569937970,304.837,138.522,-16.7432,178.374,1.14258,-144.91,304
1569937970,304.837,138.522,-16.7432,178.374,1.14258,-144.91,304
1569937970,304.837,138.522,-16.7432,178.374,1.14258,-144.91,304
1569937970,304.837,138.522,-16.7432,178.374,1.14258,-144.91,304
1569937970,304.837,138.522,-16.7432,178.374,1.14258,-144.91,304
1569937970,304.837,138.522,-16.7432,178.374,1.14258,-144.91,304
1569937970,304.837,138.522,-16.7432,178.374,1.14258,-144.91,304
1569937970,304.837,138.522,-16.7432,178.374,1.14258,-144.91,304
1569937970,304.837,138.522,-16.7432,178.374,1.14258,-144.91,304
1569937970,304.837,138.522,-16.7432,178.374,1.14258,-144.91,304
1569937970,304.837,138.522,-16.7432,178.374,1.14258,-144.91,304
1569937970,304.837,138.633,-16.7432,178.374,1.14258,-144.91,304
1569937970,304.837,138.633,-16.7432,178.374,1.14258,-144.91,304
1569937970,304.837,138.633,-16.7432,178.374,1.14258,-144.91,304
1569937970,304.837,138.633,-16.7432,178.374,1.14258,-144.91,304
1569937970,304.837,138.633,-16.7432,178.374,1.12061,-144.91,304
1569937970,304.837,138.633,-16.7432,178.374,1.12061,-144.91,304
1569937970,304.837,138.633,-16.7432,178.374,1.12061,-144.91,304
1569937970,304.837,138.522,-16.7432,178.374,1.12061,-144.91,304
1569937970,304.837,138.522,-16.7432,178.374,1.12061,-144.91,304
1569937970,304.837,138.522,-16.7432,178.374,1.12061,-144.91,304
1569937970,304.837,138.522,-16.7432,178.352,1.12061,-144.91,304
1569937970,304.837,138.522,-16.7432,178.352,1.12061,-144.91,304
1569937970,304.837,138.522,-16.7432,178.352,1.12061,-144.91,304
1569937970,304.837,138.522,-16.7432,178.352,1.12061,-144.91,304
1569937970,304.837,138.522,-16.7432,178.352,1.12061,-144.91,304
1569937970,304.837,138.522,-16.7432,178.352,1.12061,-144.91,304
1569937970,304.837,138.522,-16.7432,178.352,1.12061,-144.91,304
1569937970,304.837,138.522,-16.7432,178.352,1.12061,-144.91,304
1569937970,304.837,138.522,-16.7432,178.352,1.12061,-144.91,304
1569937970,304.837,138.522,-16.7432,178.352,1.12061,-144.91,304
1569937970,304.837,138.522,-16.7432,178.352,1.12061,-144.91,304
1569937970,304.837,138.522,-16.7432,178.352,1.12061,-144.91,308
1569937970,304.837,138.522,-16.7432,178.352,1.12061,-144.91,308
1569937970,304.837,138.522,-16.7432,178.352,1.12061,-144.91,308
1569937970,304.837,138.522,-16.7432,178.352,1.14258,-144.91,308
1569937970,304.837,138.522,-16.7432,178.352,1.14258,-144.91,308
1569937970,304.837,138.522,-16.7432,178.352,1.12061,-144.91,308
1569937970,304.837,138.522,-16.7432,178.352,1.12061,-144.91,308
1569937970,304.837,138.522,-16.7432,178.352,1.12061,-144.91,308
1569937970,304.949,138.522,-16.7432,178.352,1.12061,-144.91,308
1569937971,304.949,138.522,-16.7432,178.352,1.12061,-144.91,308
1569937971,304.949,138.522,-16.7432,178.352,1.12061,-144.91,308
1569937971,304.949,138.522,-16.7432,178.352,1.12061,-144.91,308
1569937971,304.949,138.522,-16.7432,178.352,1.12061,-144.91,304
1569937971,304.949,138.522,-16.7432,178.352,1.12061,-144.91,304
1569937971,304.949,138.522,-16.7432,178.352,1.12061,-144.91,304
1569937971,304.949,138.522,-16.7432,178.352,1.12061,-144.91,308
1569937971,304.949,138.522,-16.7432,178.352,1.12061,-144.91,308
1569937971,304.949,138.522,-16.7432,178.352,1.14258,-144.91,308
1569937971,304.949,138.522,-16.7432,178.352,1.14258,-144.91,308
1569937971,304.949,138.522,-16.7432,178.352,1.14258,-144.91,308
1569937971,304.837,138.522,-16.7432,178.352,1.14258,-144.91,308
1569937971,304.837,138.522,-16.7432,178.352,1.14258,-144.91,308
1569937971,304.837,138.522,-16.7432,178.352,1.14258,-144.91,312
1569937971,304.837,138.522,-16.7432,178.352,1.14258,-144.91,312
1569937971,304.837,138.522,-16.7432,178.352,1.12061,-144.91,312
1569937971,304.837,138.522,-16.7432,178.352,1.12061,-144.91,312
1569937971,304.837,138.522,-16.7432,178.352,1.12061,-144.91,316
1569937971,304.837,138.522,-16.7432,178.352,1.12061,-144.91,316
1569937971,304.837,138.522,-16.7432,178.352,1.12061,-144.91,316
1569937971,304.837,138.522,-16.7432,178.352,1.12061,-144.91,316
1569937971,304.837,138.522,-16.7432,178.352,1.12061,-144.91,316
1569937971,304.837,138.522,-16.7432,178.352,1.12061,-144.91,316
1569937971,304.837,138.522,-16.7432,178.352,1.12061,-144.91,316
1569937971,304.837,138.522,-16.7432,178.352,1.12061,-144.91,316
1569937971,304.837,138.522,-16.7432,178.352,1.12061,-144.91,316
1569937971,304.837,138.633,-16.7432,178.374,1.12061,-144.91,316
1569937971,304.837,138.633,-16.7432,178.374,1.12061,-144.91,316
1569937971,304.837,138.633,-16.7432,178.374,1.12061,-144.91,316
1569937971,304.837,138.633,-16.7432,178.374,1.12061,-144.91,316
1569937971,304.837,138.633,-16.7432,178.374,1.12061,-144.91,312
1569937971,304.837,138.633,-16.7432,178.374,1.12061,-144.91,312
1569937971,304.837,138.633,-16.7432,178.374,1.12061,-144.91,312
1569937971,304.837,138.522,-16.7432,178.374,1.12061,-144.91,312
1569937971,304.837,138.522,-16.7432,178.374,1.12061,-144.91,312
1569937971,304.837,138.522,-16.7432,178.374,1.12061,-144.91,312
1569937971,304.837,138.522,-16.7432,178.374,1.12061,-144.91,312
1569937971,304.837,138.522,-16.7432,178.374,1.12061,-144.91,312
1569937971,304.837,138.522,-16.7432,178.352,1.12061,-144.91,312
1569937971,304.837,138.522,-16.7432,178.352,1.12061,-144.91,312
1569937971,304.837,138.522,-16.7432,178.352,1.12061,-144.91,312
1569937971,304.837,138.522,-16.7432,178.352,1.12061,-144.91,312
1569937971,304.837,138.522,-16.7432,178.352,1.12061,-144.91,312
1569937971,304.837,138.522,-16.7432,178.352,1.12061,-144.91,312
1569937971,304.837,138.522,-16.7432,178.352,1.12061,-144.91,312
1569937971,304.837,138.522,-16.7432,178.352,1.12061,-144.91,312
1569937971,304.837,138.522,-16.7432,178.352,1.12061,-144.91,312
1569937971,304.837,138.522,-16.7432,178.352,1.12061,-144.91,312
1569937971,304.837,138.522,-16.7432,178.352,1.14258,-144.91,312
1569937971,304.837,138.522,-16.7432,178.352,1.14258,-144.91,316
1569937971,304.837,138.522,-16.7432,178.352,1.14258,-144.91,316
1569937971,304.837,138.522,-16.7432,178.352,1.14258,-144.91,316
1569937971,304.837,138.522,-16.7432,178.352,1.14258,-144.91,316
1569937971,304.837,138.522,-16.7432,178.352,1.14258,-144.91,316
1569937971,304.837,138.522,-16.7432,178.352,1.14258,-144.91,316
1569937971,304.837,138.522,-16.6315,178.352,1.14258,-144.91,316
1569937971,304.837,138.522,-16.6315,178.352,1.14258,-144.91,316
1569937971,304.837,138.522,-16.6315,178.352,1.14258,-144.91,316
1569937971,304.837,138.522,-16.6315,178.352,1.14258,-144.91,316
1569937971,304.837,138.522,-16.6315,178.352,1.14258,-144.91,316
1569937971,304.837,138.522,-16.6315,178.352,1.14258,-144.91,316
1569937971,304.837,138.522,-16.6315,178.352,1.14258,-144.91,316
1569937971,304.837,138.522,-16.6315,178.352,1.14258,-144.91,316
1569937971,304.837,138.522,-16.6315,178.352,1.14258,-144.91,316
1569937971,304.837,138.522,-16.6315,178.352,1.14258,-144.91,316
1569937971,304.837,138.522,-16.6315,178.352,1.14258,-144.91,316
1569937971,304.837,138.522,-16.6315,178.352,1.14258,-144.91,316
1569937971,304.837,138.522,-16.6315,178.352,1.14258,-144.91,316
1569937971,304.837,138.522,-16.6315,178.352,1.14258,-144.91,316
1569937971,304.837,138.522,-16.6315,178.352,1.14258,-144.91,316
1569937971,304.837,138.522,-16.6315,178.352,1.14258,-144.91,316
1569937971,304.837,138.522,-16.6315,178.352,1.14258,-144.91,316
1569937971,304.837,138.522,-16.6315,178.352,1.14258,-144.91,316
1569937971,304.837,138.522,-16.6315,178.352,1.14258,-144.91,316
1569937971,304.837,138.522,-16.6315,178.352,1.14258,-144.91,316
1569937971,304.837,138.522,-16.6315,178.352,1.14258,-144.91,316
1569937971,304.837,138.522,-16.6315,178.352,1.14258,-144.91,316
1569937971,304.837,138.522,-16.6315,178.352,1.14258,-144.91,316
1569937971,304.837,138.522,-16.6315,178.352,1.14258,-144.91,316
1569937971,304.837,138.522,-16.6315,178.352,1.14258,-144.91,316
1569937971,304.837,138.522,-16.6315,178.352,1.14258,-144.91,316
1569937971,304.837,138.522,-16.6315,178.352,1.14258,-144.91,316
1569937971,304.837,138.522,-16.6315,178.352,1.14258,-144.91,316
1569937971,304.837,138.522,-16.6315,178.352,1.14258,-144.91,316
1569937971,304.837,138.522,-16.6315,178.352,1.14258,-144.888,316
1569937971,304.837,138.522,-16.6315,178.352,1.14258,-144.888,316
1569937971,304.837,138.522,-16.6315,178.352,1.14258,-144.888,316
1569937971,304.837,138.522,-16.6315,178.352,1.14258,-144.888,316
1569937971,304.837,138.522,-16.6315,178.352,1.14258,-144.888,312
1569937971,304.837,138.522,-16.6315,178.352,1.14258,-144.888,312
1569937971,304.837,138.522,-16.7432,178.352,1.14258,-144.888,312
1569937971,304.837,138.522,-16.7432,178.352,1.14258,-144.888,312
1569937971,304.837,138.522,-16.7432,178.352,1.14258,-144.888,312
1569937971,304.837,138.522,-16.7432,178.352,1.14258,-144.888,312
1569937971,304.837,138.522,-16.7432,178.352,1.14258,-144.888,312
1569937971,304.837,138.522,-16.6315,178.352,1.14258,-144.91,312
1569937971,304.837,138.522,-16.7432,178.352,1.14258,-144.91,312
1569937971,304.837,138.522,-16.7432,178.352,1.14258,-144.91,312
1569937971,304.837,138.522,-16.7432,178.352,1.14258,-144.91,312
1569937971,304.837,138.522,-16.7432,178.352,1.14258,-144.91,308
1569937972,304.837,138.522,-16.7432,178.352,1.14258,-144.91,308
1569937972,304.837,138.522,-16.7432,178.352,1.14258,-144.91,308
1569937972,304.837,138.522,-16.7432,178.352,1.14258,-144.91,312
1569937972,304.837,138.522,-16.7432,178.352,1.14258,-144.91,312
1569937972,304.837,138.522,-16.7432,178.352,1.14258,-144.91,312
1569937972,304.837,138.522,-16.7432,178.352,1.14258,-144.91,312
1569937972,304.837,138.522,-16.7432,178.352,1.14258,-144.91,312
1569937972,304.837,138.522,-16.7432,178.352,1.14258,-144.91,312
1569937972,304.837,138.522,-16.7432,178.352,1.14258,-144.91,316
1569937972,304.837,138.522,-16.6315,178.352,1.14258,-144.91,316
1569937972,304.837,138.522,-16.6315,178.352,1.14258,-144.91,316
1569937972,304.837,138.522,-16.6315,178.352,1.14258,-144.91,316
1569937972,304.837,138.522,-16.6315,178.352,1.14258,-144.91,316
1569937972,304.837,138.522,-16.6315,178.352,1.14258,-144.91,320
1569937972,304.837,138.522,-16.6315,178.352,1.14258,-144.91,320
1569937972,304.837,138.522,-16.6315,178.352,1.14258,-144.91,320
1569937972,304.837,138.522,-16.6315,178.352,1.14258,-144.91,320
1569937972,304.837,138.522,-16.6315,178.352,1.16455,-144.91,320
1569937972,304.837,138.522,-16.6315,178.352,1.16455,-144.932,320
1569937972,304.837,138.522,-16.6315,178.352,1.16455,-144.932,320
1569937972,304.837,138.522,-16.6315,178.352,1.16455,-144.932,316
1569937972,304.837,138.522,-16.6315,178.352,1.16455,-144.932,316
1569937972,304.837,138.522,-16.6315,178.352,1.16455,-144.932,316
1569937972,304.837,138.522,-16.6315,178.352,1.16455,-144.932,316
1569937972,304.837,138.522,-16.6315,178.352,1.16455,-144.932,316
1569937972,304.837,138.522,-16.6315,178.352,1.16455,-144.932,312
1569937972,304.837,138.522,-16.6315,178.352,1.16455,-144.932,312
1569937972,304.837,138.522,-16.6315,178.352,1.16455,-144.932,312
1569937972,304.837,138.522,-16.6315,178.352,1.16455,-144.932,312
1569937972,304.837,138.522,-16.6315,178.352,1.16455,-144.932,312
1569937972,304.837,138.522,-16.6315,178.352,1.16455,-144.932,312
1569937972,304.837,138.522,-16.6315,178.352,1.16455,-144.932,312
1569937972,304.837,138.522,-16.6315,178.352,1.16455,-144.932,312
1569937972,304.837,138.522,-16.6315,178.352,1.16455,-144.932,312
1569937972,304.837,138.522,-16.6315,178.352,1.16455,-144.932,312
1569937972,304.837,138.522,-16.6315,178.374,1.16455,-144.932,312
1569937972,304.837,138.522,-16.6315,178.374,1.16455,-144.932,312
1569937972,304.837,138.522,-16.6315,178.374,1.16455,-144.91,312
1569937972,304.837,138.522,-16.6315,178.374,1.16455,-144.91,312
1569937972,304.837,138.522,-16.6315,178.374,1.16455,-144.91,312
1569937972,304.837,138.633,-16.6315,178.374,1.16455,-144.91,312
1569937972,304.837,138.633,-16.6315,178.374,1.16455,-144.91,312
1569937972,304.837,138.633,-16.6315,178.374,1.16455,-144.91,312
1569937972,304.837,138.633,-16.6315,178.374,1.16455,-144.91,312
1569937972,304.837,138.633,-16.6315,178.374,1.16455,-144.91,312
1569937972,304.837,138.633,-16.6315,178.374,1.16455,-144.91,308
1569937972,304.837,138.633,-16.6315,178.374,1.16455,-144.91,308
1569937972,304.837,138.633,-16.6315,178.374,1.16455,-144.91,308
1569937972,304.837,138.633,-16.6315,178.374,1.16455,-144.91,308
1569937972,304.837,138.633,-16.6315,178.374,1.16455,-144.91,308
1569937972,304.837,138.633,-16.6315,178.374,1.16455,-144.91,308
1569937972,304.837,138.633,-16.6315,178.374,1.16455,-144.91,308
1569937972,304.837,138.633,-16.6315,178.374,1.16455,-144.91,308
1569937972,304.837,138.633,-16.6315,178.374,1.16455,-144.932,308
1569937972,304.837,138.633,-16.6315,178.374,1.16455,-144.932,308
1569937972,304.837,138.633,-16.6315,178.374,1.16455,-144.932,308
1569937972,304.837,138.633,-16.6315,178.374,1.14258,-144.932,308
1569937972,304.837,138.633,-16.6315,178.374,1.14258,-144.932,304
1569937972,304.837,138.633,-16.6315,178.374,1.14258,-144.932,304
1569937972,304.837,138.633,-16.6315,178.374,1.14258,-144.932,304
1569937972,304.837,138.633,-16.6315,178.374,1.14258,-144.932,304
1569937972,304.837,138.633,-16.6315,178.374,1.14258,-144.932,304
1569937972,304.837,138.633,-16.6315,178.374,1.14258,-144.932,304
1569937972,304.837,138.633,-16.6315,178.374,1.14258,-144.932,304
1569937972,304.837,138.633,-16.6315,178.374,1.14258,-144.932,304
1569937972,304.837,138.633,-16.6315,178.374,1.14258,-144.91,304
1569937972,304.837,138.633,-16.6315,178.374,1.14258,-144.91,304
1569937972,304.837,138.633,-16.6315,178.374,1.14258,-144.91,304
1569937972,304.837,138.633,-16.6315,178.374,1.14258,-144.91,304
1569937972,304.837,138.633,-16.6315,178.374,1.14258,-144.91,304
1569937972,304.837,138.633,-16.6315,178.374,1.14258,-144.91,304
1569937972,304.837,138.633,-16.7432,178.374,1.14258,-144.91,304
1569937972,304.837,138.633,-16.7432,178.374,1.14258,-144.91,308
1569937972,304.837,138.633,-16.7432,178.374,1.14258,-144.932,308
1569937972,304.837,138.633,-16.7432,178.374,1.14258,-144.932,308
1569937972,304.837,138.633,-16.7432,178.374,1.14258,-144.932,308
1569937972,304.837,138.633,-16.7432,178.374,1.12061,-144.932,308
1569937972,304.837,138.633,-16.7432,178.374,1.12061,-144.932,308
1569937972,304.837,138.633,-16.7432,178.374,1.12061,-144.932,308
1569937972,304.837,138.633,-16.7432,178.374,1.12061,-144.932,308
1569937972,304.837,138.633,-16.7432,178.374,1.12061,-144.932,308
1569937972,304.837,138.633,-16.7432,178.374,1.12061,-144.932,308
1569937972,304.837,138.633,-16.7432,178.374,1.12061,-144.91,308
1569937972,304.837,138.633,-16.7432,178.374,1.12061,-144.91,308
1569937972,304.837,138.633,-16.7432,178.374,1.12061,-144.91,308
1569937972,304.837,138.633,-16.7432,178.374,1.12061,-144.91,308
1569937972,304.837,138.633,-16.7432,178.374,1.12061,-144.91,308
1569937972,304.837,138.633,-16.7432,178.374,1.12061,-144.91,308
1569937972,304.837,138.633,-16.7432,178.374,1.12061,-144.91,308
1569937972,304.837,138.633,-16.7432,178.374,1.12061,-144.91,308
1569937972,304.837,138.633,-16.7432,178.374,1.14258,-144.91,308
1569937972,304.837,138.633,-16.7432,178.374,1.14258,-144.91,308
1569937972,304.837,138.633,-16.7432,178.374,1.14258,-144.91,308
1569937972,304.837,138.633,-16.7432,178.374,1.14258,-144.91,308
1569937972,304.837,138.633,-16.7432,178.374,1.14258,-144.91,308
1569937972,304.837,138.633,-16.7432,178.374,1.14258,-144.91,304
1569937972,304.837,138.633,-16.7432,178.374,1.14258,-144.91,304
1569937972,304.837,138.633,-16.7432,178.374,1.14258,-144.91,304
1569937972,304.837,138.633,-16.7432,178.374,1.14258,-144.91,304
1569937972,304.837,138.633,-16.7432,178.374,1.14258,-144.91,304
1569937973,304.837,138.633,-16.7432,178.374,1.14258,-144.91,304
1569937973,304.837,138.633,-16.7432,178.374,1.14258,-144.91,304
1569937973,304.837,138.633,-16.7432,178.374,1.14258,-144.91,304
1569937973,304.837,138.633,-16.7432,178.374,1.14258,-144.91,304
1569937973,304.837,138.633,-16.7432,178.374,1.14258,-144.91,304
1569937973,304.837,138.633,-16.7432,178.374,1.14258,-144.91,304
1569937973,304.837,138.633,-16.7432,178.374,1.14258,-144.91,304
1569937973,304.837,138.633,-16.7432,178.374,1.14258,-144.91,304
1569937973,304.837,138.633,-16.7432,178.374,1.14258,-144.91,304
1569937973,304.837,138.522,-16.7432,178.374,1.14258,-144.91,304
1569937973,304.837,138.522,-16.7432,178.374,1.14258,-144.91,304
1569937973,304.837,138.522,-16.7432,178.374,1.14258,-144.91,304
1569937973,304.837,138.522,-16.7432,178.374,1.12061,-144.91,308
1569937973,304.837,138.522,-16.7432,178.374,1.12061,-144.91,308
1569937973,304.837,138.522,-16.7432,178.374,1.12061,-144.91,308
1569937973,304.837,138.522,-16.7432,178.374,1.12061,-144.91,308
1569937973,304.837,138.522,-16.7432,178.374,1.12061,-144.91,308
1569937973,304.837,138.522,-16.7432,178.374,1.12061,-144.91,308
1569937973,304.837,138.633,-16.7432,178.374,1.12061,-144.91,308
1569937973,304.837,138.633,-16.7432,178.374,1.12061,-144.91,308
1569937973,304.837,138.633,-16.7432,178.374,1.12061,-144.91,308
1569937973,304.837,138.633,-16.7432,178.374,1.12061,-144.91,308
1569937973,304.837,138.633,-16.7432,178.374,1.12061,-144.91,308
1569937973,304.837,138.633,-16.7432,178.374,1.12061,-144.91,308
1569937973,304.837,138.633,-16.7432,178.374,1.12061,-144.932,308
1569937973,304.837,138.633,-16.7432,178.374,1.12061,-144.932,308
1569937973,304.837,138.633,-16.7432,178.374,1.12061,-144.932,308
1569937973,304.837,138.633,-16.7432,178.374,1.12061,-144.932,308
1569937973,304.837,138.633,-16.7432,178.374,1.12061,-144.932,308
1569937973,304.837,138.633,-16.7432,178.374,1.12061,-144.932,308
1569937973,304.837,138.633,-16.7432,178.374,1.12061,-144.932,308
1569937973,304.837,138.633,-16.7432,178.374,1.12061,-144.932,308
1569937973,304.837,138.633,-16.7432,178.374,1.14258,-144.932,308
1569937973,304.837,138.633,-16.7432,178.374,1.14258,-144.932,308
1569937973,304.837,138.633,-16.6315,178.374,1.14258,-144.932,308
1569937973,304.837,138.633,-16.6315,178.374,1.14258,-144.932,308
1569937973,304.837,138.633,-16.6315,178.374,1.14258,-144.932,308
1569937973,304.837,138.633,-16.6315,178.374,1.14258,-144.932,308
1569937973,304.837,138.633,-16.6315,178.374,1.14258,-144.932,308
1569937973,304.837,138.633,-16.6315,178.374,1.14258,-144.932,308
1569937973,304.837,138.633,-16.6315,178.374,1.14258,-144.91,308
1569937973,304.837,138.633,-16.6315,178.374,1.14258,-144.91,308
1569937973,304.837,138.633,-16.6315,178.374,1.14258,-144.91,308
1569937973,304.837,138.633,-16.6315,178.374,1.14258,-144.91,308
1569937973,304.837,138.633,-16.6315,178.374,1.14258,-144.91,308
1569937973,304.837,138.633,-16.6315,178.374,1.14258,-144.91,304
1569937973,304.837,138.633,-16.6315,178.374,1.14258,-144.91,304
1569937973,304.837,138.633,-16.6315,178.374,1.14258,-144.91,304
1569937973,304.837,138.633,-16.6315,178.374,1.14258,-144.91,304
1569937973,304.837,138.633,-16.7432,178.374,1.14258,-144.91,304
1569937973,304.837,138.633,-16.7432,178.374,1.14258,-144.91,304
1569937973,304.837,138.633,-16.7432,178.374,1.14258,-144.91,304
1569937973,304.837,138.633,-16.7432,178.374,1.14258,-144.91,304
1569937973,304.837,138.633,-16.7432,178.374,1.14258,-144.91,304
1569937973,304.837,138.633,-16.7432,178.374,1.14258,-144.91,308
1569937973,304.837,138.633,-16.7432,178.374,1.14258,-144.91,308
1569937973,304.837,138.633,-16.7432,178.374,1.14258,-144.91,308
1569937973,304.837,138.633,-16.7432,178.374,1.14258,-144.91,308
1569937973,304.837,138.633,-16.7432,178.374,1.14258,-144.91,308
1569937973,304.837,138.633,-16.7432,178.374,1.14258,-144.91,312
1569937973,304.837,138.633,-16.7432,178.374,1.14258,-144.91,312
1569937973,304.837,138.633,-16.7432,178.374,1.14258,-144.91,312
1569937973,304.837,138.633,-16.7432,178.374,1.14258,-144.91,312
1569937973,304.837,138.633,-16.7432,178.374,1.14258,-144.91,312
1569937973,304.837,138.633,-16.7432,178.374,1.14258,-144.91,312
1569937973,304.837,138.633,-16.7432,178.374,1.14258,-144.91,312
1569937973,304.837,138.633,-16.7432,178.374,1.14258,-144.91,312
1569937973,304.837,138.633,-16.7432,178.374,1.14258,-144.91,312
1569937973,304.837,138.633,-16.7432,178.374,1.14258,-144.91,312
1569937973,304.837,138.633,-16.7432,178.374,1.14258,-144.91,312
1569937973,304.837,138.633,-16.6315,178.374,1.14258,-144.91,312
1569937973,304.837,138.633,-16.6315,178.374,1.14258,-144.91,312
1569937973,304.837,138.633,-16.7432,178.374,1.14258,-144.91,312
1569937973,304.837,138.633,-16.7432,178.374,1.14258,-144.91,312
1569937973,304.837,138.633,-16.7432,178.374,1.14258,-144.91,312
1569937973,304.837,138.633,-16.7432,178.374,1.14258,-144.91,312
1569937973,304.837,138.633,-16.7432,178.374,1.14258,-144.91,312
1569937973,304.837,138.633,-16.7432,178.374,1.14258,-144.91,312
1569937973,304.837,138.633,-16.7432,178.374,1.14258,-144.91,312
1569937973,304.837,138.633,-16.7432,178.374,1.14258,-144.91,312
1569937973,304.837,138.633,-16.7432,178.374,1.14258,-144.91,312
1569937973,304.837,138.633,-16.7432,178.374,1.14258,-144.91,312
1569937973,304.837,138.633,-16.7432,178.374,1.14258,-144.91,312
1569937973,304.837,138.633,-16.7432,178.374,1.12061,-144.91,312
1569937973,304.837,138.633,-16.7432,178.374,1.12061,-144.91,312
1569937973,304.837,138.633,-16.7432,178.374,1.12061,-144.91,312
1569937973,304.837,138.633,-16.7432,178.374,1.12061,-144.91,312
1569937973,304.837,138.633,-16.7432,178.374,1.12061,-144.91,312
1569937973,304.837,138.633,-16.7432,178.374,1.12061,-144.91,312
1569937973,304.837,138.522,-16.7432,178.374,1.12061,-144.91,308
1569937973,304.837,138.522,-16.7432,178.374,1.12061,-144.91,308
1569937973,304.837,138.522,-16.7432,178.374,1.12061,-144.91,308
1569937973,304.837,138.522,-16.7432,178.352,1.12061,-144.91,312
1569937973,304.837,138.522,-16.7432,178.352,1.12061,-144.91,312
1569937973,304.837,138.522,-16.7432,178.352,1.14258,-144.91,312
1569937973,304.837,138.522,-16.7432,178.352,1.14258,-144.91,312
1569937973,304.837,138.522,-16.7432,178.352,1.14258,-144.91,312
1569937973,304.837,138.522,-16.7432,178.352,1.14258,-144.91,312
1569937973,304.837,138.522,-16.7432,178.352,1.14258,-144.91,312
1569937973,304.837,138.522,-16.7432,178.352,1.14258,-144.91,312
1569937974,304.837,138.522,-16.7432,178.352,1.14258,-144.91,312
1569937974,304.837,138.522,-16.7432,178.352,1.14258,-144.91,312
1569937974,304.837,138.522,-16.7432,178.352,1.14258,-144.91,316
1569937974,304.837,138.522,-16.7432,178.352,1.14258,-144.91,316
1569937974,304.837,138.522,-16.7432,178.352,1.14258,-144.91,316
1569937974,304.837,138.522,-16.7432,178.352,1.14258,-144.91,316
1569937974,304.837,138.522,-16.7432,178.352,1.14258,-144.91,316
1569937974,304.837,138.522,-16.7432,178.352,1.14258,-144.91,316
1569937974,304.837,138.522,-16.7432,178.352,1.14258,-144.91,316
1569937974,304.837,138.522,-16.7432,178.352,1.14258,-144.91,316
1569937974,304.837,138.522,-16.7432,178.352,1.14258,-144.91,316
1569937974,304.837,138.522,-16.7432,178.352,1.14258,-144.91,320
1569937974,304.837,138.522,-16.7432,178.352,1.14258,-144.91,320
1569937974,304.837,138.522,-16.7432,178.374,1.14258,-144.91,320
1569937974,304.837,138.522,-16.7432,178.374,1.14258,-144.91,320
1569937974,304.837,138.522,-16.7432,178.374,1.14258,-144.91,320
1569937974,304.837,138.522,-16.7432,178.374,1.14258,-144.91,320
1569937974,304.837,138.522,-16.7432,178.374,1.14258,-144.91,320
1569937974,304.837,138.633,-16.7432,178.374,1.14258,-144.91,320
1569937974,304.837,138.633,-16.7432,178.374,1.14258,-144.91,320
1569937974,304.837,138.633,-16.7432,178.374,1.14258,-144.91,320
1569937974,304.837,138.633,-16.7432,178.374,1.14258,-144.91,320
1569937974,304.837,138.633,-16.7432,178.374,1.14258,-144.91,316
1569937974,304.837,138.633,-16.7432,178.374,1.14258,-144.91,316
1569937974,304.837,138.633,-16.7432,178.374,1.14258,-144.91,316
1569937974,304.837,138.633,-16.7432,178.374,1.14258,-144.91,316
1569937974,304.837,138.633,-16.7432,178.374,1.14258,-144.91,316
1569937974,304.837,138.633,-16.7432,178.374,1.14258,-144.91,312
1569937974,304.837,138.633,-16.7432,178.374,1.14258,-144.91,312
1569937974,304.837,138.633,-16.7432,178.374,1.14258,-144.91,312
1569937974,304.837,138.633,-16.7432,178.374,1.14258,-144.91,312
1569937974,304.837,138.633,-16.7432,178.374,1.14258,-144.91,308
1569937974,304.837,138.633,-16.7432,178.374,1.14258,-144.91,308
1569937974,304.837,138.633,-16.7432,178.374,1.14258,-144.91,308
1569937974,304.837,138.522,-16.7432,178.374,1.14258,-144.91,308
1569937974,304.837,138.522,-16.7432,178.374,1.14258,-144.91,308
1569937974,304.837,138.522,-16.7432,178.374,1.14258,-144.91,308
1569937974,304.837,138.522,-16.7432,178.374,1.14258,-144.91,308
1569937974,304.837,138.522,-16.7432,178.374,1.14258,-144.91,308
1569937974,304.837,138.522,-16.7432,178.374,1.12061,-144.91,308
1569937974,304.837,138.522,-16.7432,178.374,1.12061,-144.91,308
1569937974,304.837,138.522,-16.7432,178.374,1.12061,-144.91,308
1569937974,304.837,138.522,-16.7432,178.374,1.12061,-144.91,308
1569937974,304.837,138.522,-16.7432,178.374,1.12061,-144.91,308
1569937974,304.837,138.633,-16.7432,178.374,1.12061,-144.888,308
1569937974,304.837,138.522,-16.7432,178.374,1.12061,-144.888,308
1569937974,304.837,138.522,-16.7432,178.374,1.12061,-144.888,312
1569937974,304.837,138.522,-16.7432,178.374,1.12061,-144.888,312
1569937974,304.837,138.522,-16.7432,178.374,1.12061,-144.888,312
1569937974,304.837,138.522,-16.7432,178.374,1.12061,-144.888,312
1569937974,304.837,138.522,-16.7432,178.374,1.12061,-144.888,312
1569937974,304.837,138.522,-16.7432,178.374,1.12061,-144.888,312
1569937974,304.837,138.522,-16.7432,178.352,1.12061,-144.91,312
1569937974,304.837,138.522,-16.7432,178.352,1.12061,-144.91,312
1569937974,304.837,138.522,-16.7432,178.352,1.12061,-144.91,316
1569937974,304.837,138.522,-16.7432,178.352,1.12061,-144.91,316
1569937974,304.837,138.522,-16.7432,178.352,1.14258,-144.91,316
1569937974,304.837,138.522,-16.7432,178.352,1.14258,-144.91,316
1569937974,304.837,138.522,-16.7432,178.352,1.14258,-144.91,316
1569937974,304.837,138.522,-16.7432,178.352,1.14258,-144.91,316
1569937974,304.837,138.522,-16.7432,178.352,1.14258,-144.91,316
1569937974,304.837,138.522,-16.7432,178.352,1.14258,-144.91,316
1569937974,304.837,138.522,-16.7432,178.352,1.14258,-144.91,320
1569937974,304.837,138.522,-16.7432,178.352,1.14258,-144.91,320
1569937974,304.837,138.522,-16.7432,178.352,1.14258,-144.91,320
1569937974,304.837,138.522,-16.7432,178.352,1.14258,-144.91,320
1569937974,304.837,138.522,-16.7432,178.352,1.14258,-144.91,316
1569937974,304.837,138.522,-16.7432,178.352,1.14258,-144.91,316
1569937974,304.837,138.522,-16.7432,178.352,1.14258,-144.91,316
1569937974,304.837,138.522,-16.7432,178.352,1.14258,-144.91,316
1569937974,304.837,138.522,-16.7432,178.352,1.14258,-144.91,316
1569937974,304.837,138.522,-16.7432,178.352,1.14258,-144.91,316
1569937974,304.837,138.522,-16.7432,178.352,1.14258,-144.91,316
1569937974,304.837,138.522,-16.7432,178.352,1.14258,-144.91,316
1569937974,304.837,138.522,-16.7432,178.352,1.14258,-144.91,316
1569937974,304.837,138.522,-16.7432,178.352,1.14258,-144.91,316
1569937974,304.837,138.522,-16.7432,178.352,1.14258,-144.91,316
1569937974,304.837,138.522,-16.7432,178.352,1.14258,-144.91,316
1569937974,304.837,138.522,-16.7432,178.352,1.14258,-144.91,316
1569937974,304.837,138.522,-16.7432,178.352,1.14258,-144.888,316
1569937974,304.837,138.522,-16.7432,178.352,1.14258,-144.888,316
1569937974,304.837,138.522,-16.7432,178.352,1.14258,-144.888,316
1569937974,304.837,138.522,-16.7432,178.352,1.14258,-144.888,312
1569937974,304.837,138.522,-16.7432,178.352,1.12061,-144.888,312
1569937974,304.837,138.522,-16.7432,178.352,1.12061,-144.888,312
1569937974,304.837,138.522,-16.7432,178.352,1.12061,-144.888,312
1569937974,304.837,138.522,-16.7432,178.352,1.12061,-144.888,312
1569937974,304.837,138.522,-16.7432,178.352,1.12061,-144.888,312
1569937974,304.837,138.522,-16.7432,178.352,1.12061,-144.888,312
1569937974,304.837,138.522,-16.7432,178.352,1.14258,-144.888,312
1569937974,304.837,138.522,-16.7432,178.352,1.14258,-144.888,312
1569937974,304.837,138.522,-16.7432,178.352,1.14258,-144.888,312
1569937974,304.837,138.522,-16.7432,178.352,1.14258,-144.91,312
1569937974,304.837,138.522,-16.7432,178.352,1.14258,-144.91,312
1569937974,304.837,138.522,-16.7432,178.352,1.14258,-144.91,312
1569937978,327.943,113.519,-16.0734,178.286,1.604,-144.932,352
1569937978,327.943,113.519,-16.0734,178.286,1.604,-144.932,352
1569937978,327.943,113.519,-16.0734,178.286,1.604,-144.932,352
1569937978,327.943,113.519,-16.0734,178.286,1.604,-144.932,352
1569937978,327.943,113.519,-16.0734,178.308,1.604,-144.932,352
1569937978,327.943,113.63,-16.0734,178.308,1.604,-144.932,352
1569937978,327.943,113.63,-16.0734,178.308,1.604,-144.932,352
1569937978,327.943,113.63,-16.0734,178.308,1.604,-144.932,356
1569937978,327.943,113.63,-16.0734,178.308,1.604,-144.932,356
1569937978,327.943,113.63,-16.0734,178.308,1.604,-144.932,356
1569937978,327.943,113.63,-16.0734,178.308,1.604,-144.932,356
1569937978,327.943,113.63,-16.0734,178.308,1.604,-144.932,356
1569937978,327.943,113.63,-16.0734,178.308,1.604,-144.932,356
1569937978,327.943,113.63,-16.0734,178.308,1.604,-144.932,356
1569937978,327.943,113.63,-16.0734,178.308,1.604,-144.932,356
1569937978,327.943,113.63,-16.0734,178.308,1.604,-144.932,356
1569937978,327.943,113.63,-16.0734,178.308,1.604,-144.932,356
1569937978,327.943,113.63,-16.0734,178.308,1.604,-144.91,356
1569937978,327.943,113.63,-16.0734,178.308,1.604,-144.91,360
1569937978,328.054,113.63,-16.0734,178.308,1.604,-144.91,360
1569937978,328.054,113.63,-16.0734,178.308,1.604,-144.91,360
1569937978,328.054,113.63,-16.0734,178.308,1.62598,-144.91,360
1569937978,328.054,113.63,-16.0734,178.308,1.62598,-144.91,360
1569937978,327.943,113.63,-15.9618,178.308,1.62598,-144.91,360
1569937978,327.943,113.63,-15.9618,178.308,1.62598,-144.91,364
1569937978,327.943,113.63,-15.9618,178.308,1.62598,-144.91,364
1569937978,327.943,113.63,-15.9618,178.308,1.62598,-144.91,364
1569937978,327.943,113.63,-15.9618,178.308,1.62598,-144.91,364
1569937978,327.943,113.63,-15.9618,178.308,1.62598,-144.91,368
1569937978,327.943,113.63,-15.9618,178.308,1.62598,-144.91,368
1569937978,327.943,113.63,-15.9618,178.308,1.62598,-144.91,368
1569937978,327.943,113.63,-15.9618,178.308,1.62598,-144.91,368
1569937978,327.943,113.63,-15.9618,178.308,1.62598,-144.91,372
1569937978,327.943,113.63,-15.9618,178.308,1.62598,-144.91,372
1569937978,327.943,113.63,-15.9618,178.308,1.62598,-144.91,372
1569937978,327.943,113.63,-15.9618,178.308,1.64795,-144.91,372
1569937978,327.943,113.63,-15.9618,178.308,1.64795,-144.91,376
1569937978,327.943,113.63,-15.9618,178.33,1.64795,-144.91,376
1569937978,327.943,113.63,-15.9618,178.33,1.64795,-144.91,376
1569937978,327.943,113.63,-15.9618,178.33,1.64795,-144.91,376
1569937978,327.943,113.63,-15.9618,178.33,1.64795,-144.91,376
1569937979,327.943,113.63,-15.9618,178.33,1.64795,-144.91,376
1569937979,327.943,113.63,-15.9618,178.33,1.64795,-144.91,376
1569937979,327.943,113.63,-15.9618,178.33,1.64795,-144.91,376
1569937979,327.943,113.63,-15.9618,178.33,1.64795,-144.91,376
1569937979,327.943,113.63,-15.9618,178.33,1.64795,-144.91,376
1569937979,327.943,113.63,-15.9618,178.33,1.64795,-144.91,376
1569937979,327.943,113.63,-15.9618,178.33,1.64795,-144.91,376
1569937979,327.943,113.63,-15.9618,178.33,1.62598,-144.91,376
1569937979,327.943,113.63,-15.9618,178.33,1.62598,-144.91,376
1569937979,327.943,113.63,-15.9618,178.308,1.62598,-144.91,376
1569937979,327.943,113.63,-15.9618,178.308,1.62598,-144.91,376
1569937979,327.943,113.63,-15.9618,178.308,1.62598,-144.91,376
1569937979,327.943,113.63,-15.9618,178.308,1.62598,-144.91,376
1569937979,327.943,113.63,-15.9618,178.308,1.62598,-144.91,376
1569937979,327.943,113.63,-15.9618,178.308,1.62598,-144.91,376
1569937979,327.943,113.63,-15.9618,178.308,1.62598,-144.91,372
1569937979,327.943,113.63,-15.9618,178.308,1.62598,-144.91,372
1569937979,327.943,113.63,-15.9618,178.308,1.62598,-144.91,372
1569937979,327.943,113.63,-15.9618,178.308,1.62598,-144.91,372
1569937979,327.943,113.63,-15.9618,178.308,1.62598,-144.91,372
1569937979,327.943,113.63,-15.9618,178.308,1.62598,-144.91,372
1569937979,327.943,113.63,-15.9618,178.308,1.62598,-144.91,372
1569937979,327.943,113.63,-15.9618,178.308,1.62598,-144.91,372
1569937979,327.943,113.63,-15.9618,178.308,1.62598,-144.91,368
1569937979,327.943,113.63,-15.9618,178.308,1.62598,-144.91,368
1569937979,327.943,113.63,-15.9618,178.308,1.62598,-144.91,368
1569937979,327.943,113.63,-15.9618,178.308,1.62598,-144.91,368
1569937979,327.943,113.63,-15.9618,178.308,1.62598,-144.91,368
1569937979,327.943,113.63,-15.9618,178.308,1.62598,-144.91,368
1569937979,327.943,113.63,-16.0734,178.308,1.62598,-144.91,368
1569937979,327.943,113.63,-16.0734,178.308,1.62598,-144.91,368
1569937979,327.943,113.63,-16.0734,178.308,1.62598,-144.91,368
1569937979,327.943,113.63,-16.0734,178.308,1.604,-144.91,368
1569937979,327.943,113.63,-16.0734,178.308,1.604,-144.91,364
1569937979,327.943,113.63,-16.0734,178.308,1.604,-144.91,364
1569937979,327.943,113.63,-16.0734,178.308,1.604,-144.91,364
1569937979,327.943,113.63,-16.0734,178.308,1.604,-144.91,364
1569937979,328.054,113.63,-16.0734,178.308,1.604,-144.91,364
1569937979,328.054,113.63,-16.0734,178.308,1.604,-144.91,360
1569937979,328.054,113.63,-16.0734,178.308,1.604,-144.91,360
1569937979,328.054,113.63,-16.0734,178.308,1.604,-144.91,360
1569937979,328.054,113.63,-16.0734,178.308,1.604,-144.91,360
1569937979,328.054,113.63,-16.0734,178.308,1.604,-144.91,360
1569937979,328.054,113.63,-16.0734,178.308,1.604,-144.91,360
1569937979,328.054,113.63,-16.0734,178.308,1.604,-144.91,360
1569937979,328.054,113.63,-16.0734,178.308,1.604,-144.91,360
1569937979,328.054,113.63,-16.0734,178.308,1.604,-144.91,360
1569937979,328.054,113.63,-16.0734,178.308,1.604,-144.91,360
1569937979,328.054,113.63,-16.0734,178.308,1.604,-144.91,360
1569937979,328.054,113.63,-16.0734,178.308,1.604,-144.91,360
1569937979,328.054,113.63,-16.0734,178.308,1.604,-144.91,360
1569937979,327.943,113.63,-16.0734,178.308,1.604,-144.91,360
1569937979,327.943,113.63,-16.0734,178.308,1.604,-144.888,360
1569937979,327.943,113.63,-16.0734,178.308,1.604,-144.888,360
1569937979,327.943,113.63,-16.0734,178.308,1.604,-144.888,360
1569937979,327.943,113.63,-16.0734,178.308,1.604,-144.888,360
1569937979,327.943,113.63,-16.0734,178.308,1.58203,-144.888,360
1569937979,327.943,113.63,-16.0734,178.308,1.58203,-144.888,360
1569937979,327.943,113.63,-16.0734,178.308,1.58203,-144.888,360
1569937979,327.943,113.63,-16.0734,178.308,1.58203,-144.888,360
1569937979,327.943,113.63,-16.0734,178.308,1.58203,-144.888,360
1569937979,328.054,113.63,-16.0734,178.308,1.58203,-144.91,360
1569937979,328.054,113.63,-16.0734,178.308,1.58203,-144.91,360
1569937979,328.054,113.63,-16.0734,178.308,1.58203,-144.91,360
1569937979,328.054,113.63,-16.0734,178.308,1.58203,-144.91,360
1569937979,328.054,113.63,-16.0734,178.308,1.58203,-144.91,360
1569937979,328.054,113.63,-16.0734,178.308,1.604,-144.91,360
1569937979,328.054,113.63,-16.0734,178.308,1.604,-144.91,360
1569937979,328.054,113.63,-16.0734,178.308,1.604,-144.91,360
1569937979,328.054,113.63,-16.0734,178.308,1.604,-144.91,360
1569937979,327.943,113.63,-16.0734,178.308,1.604,-144.91,360
1569937979,327.943,113.63,-16.0734,178.308,1.604,-144.91,360
1569937979,327.943,113.63,-16.0734,178.308,1.604,-144.91,360
1569937979,327.943,113.63,-16.0734,178.308,1.604,-144.91,360
1569937979,327.943,113.519,-16.0734,178.308,1.604,-144.91,360
1569937979,327.943,113.519,-16.0734,178.308,1.604,-144.91,360
1569937979,327.943,113.519,-16.0734,178.308,1.604,-144.91,360
1569937979,327.943,113.63,-16.0734,178.308,1.604,-144.91,360
1569937979,327.943,113.63,-16.0734,178.308,1.58203,-144.91,360
1569937979,327.943,113.519,-16.0734,178.308,1.58203,-144.91,360
1569937979,327.943,113.519,-16.0734,178.308,1.58203,-144.91,360
1569937979,327.943,113.519,-16.0734,178.308,1.58203,-144.91,360
1569937979,327.943,113.519,-16.0734,178.308,1.58203,-144.91,360
1569937979,327.943,113.519,-16.0734,178.308,1.604,-144.91,360
1569937979,327.943,113.519,-16.0734,178.308,1.604,-144.91,360
1569937979,327.943,113.519,-16.0734,178.308,1.604,-144.91,360
1569937979,327.943,113.519,-16.0734,178.308,1.604,-144.91,360
1569937979,327.943,113.519,-16.0734,178.308,1.604,-144.91,360
1569937979,327.943,113.519,-16.0734,178.286,1.604,-144.91,360
1569937979,327.943,113.519,-16.0734,178.286,1.604,-144.91,360
1569937979,327.943,113.519,-16.0734,178.286,1.604,-144.91,360
1569937979,327.943,113.519,-16.0734,178.286,1.604,-144.91,360
1569937979,327.943,113.519,-16.0734,178.286,1.604,-144.91,360
1569937979,327.943,113.519,-16.0734,178.286,1.604,-144.91,360
1569937979,327.943,113.519,-16.0734,178.286,1.604,-144.91,360
1569937979,327.943,113.519,-16.0734,178.286,1.604,-144.91,360
1569937979,327.943,113.519,-16.0734,178.286,1.604,-144.91,360
1569937979,327.943,113.519,-16.0734,178.286,1.604,-144.91,356
1569937979,327.943,113.519,-16.0734,178.286,1.604,-144.91,356
1569937979,327.943,113.519,-16.0734,178.286,1.604,-144.91,356
1569937980,327.943,113.519,-16.0734,178.286,1.604,-144.91,356
1569937980,327.943,113.519,-16.0734,178.286,1.604,-144.91,356
1569937980,327.943,113.519,-16.0734,178.286,1.604,-144.91,356
1569937980,327.943,113.519,-16.0734,178.286,1.604,-144.91,356
1569937980,327.943,113.519,-16.0734,178.286,1.604,-144.91,356
1569937980,327.943,113.519,-16.0734,178.286,1.604,-144.91,356
1569937980,327.943,113.519,-16.0734,178.286,1.604,-144.91,352
1569937980,327.943,113.519,-16.0734,178.286,1.604,-144.91,352
1569937980,327.943,113.519,-16.0734,178.286,1.604,-144.91,352
1569937980,327.943,113.519,-16.0734,178.308,1.604,-144.91,352
1569937980,327.943,113.519,-16.0734,178.308,1.604,-144.91,352
1569937980,327.943,113.519,-16.0734,178.308,1.604,-144.91,352
1569937980,327.943,113.63,-16.0734,178.308,1.604,-144.91,352
1569937980,327.943,113.63,-16.0734,178.308,1.604,-144.91,352
1569937980,327.943,113.63,-16.0734,178.308,1.604,-144.91,352
1569937980,327.943,113.63,-16.0734,178.308,1.604,-144.91,352
1569937980,327.943,113.63,-16.0734,178.308,1.604,-144.91,352
1569937980,327.943,113.63,-16.0734,178.308,1.604,-144.91,352
1569937980,327.943,113.63,-16.0734,178.308,1.604,-144.91,352
1569937980,327.943,113.63,-16.0734,178.308,1.604,-144.91,352
1569937980,327.943,113.63,-16.0734,178.308,1.604,-144.91,352
1569937980,327.943,113.63,-16.0734,178.308,1.604,-144.91,352
1569937980,328.054,113.63,-16.0734,178.308,1.604,-144.91,352
1569937980,328.054,113.63,-16.0734,178.308,1.604,-144.91,352
1569937980,328.054,113.63,-16.0734,178.308,1.604,-144.91,356
1569937980,328.054,113.63,-16.0734,178.308,1.604,-144.91,356
1569937980,328.054,113.63,-16.0734,178.308,1.604,-144.91,356
1569937980,328.054,113.63,-16.0734,178.308,1.604,-144.91,356
1569937980,328.054,113.63,-16.0734,178.308,1.604,-144.91,356
1569937980,328.054,113.63,-16.0734,178.308,1.604,-144.91,356
1569937980,328.054,113.63,-16.0734,178.308,1.604,-144.91,356
1569937980,327.943,113.63,-16.0734,178.308,1.604,-144.91,356
1569937980,327.943,113.63,-16.0734,178.308,1.604,-144.91,356
1569937980,327.943,113.63,-16.0734,178.308,1.604,-144.91,356
1569937980,327.943,113.63,-16.0734,178.308,1.604,-144.91,356
1569937980,327.943,113.63,-16.0734,178.308,1.604,-144.91,356
1569937980,327.943,113.63,-16.0734,178.308,1.604,-144.91,356
1569937980,327.943,113.63,-16.0734,178.308,1.604,-144.91,356
1569937980,327.943,113.63,-16.0734,178.308,1.604,-144.932,356
1569937980,327.943,113.63,-16.0734,178.308,1.604,-144.932,360
1569937980,327.943,113.63,-16.0734,178.308,1.604,-144.932,360
1569937980,327.943,113.63,-16.0734,178.308,1.604,-144.91,360
1569937980,327.943,113.63,-16.0734,178.308,1.604,-144.91,360
1569937980,327.943,113.63,-16.0734,178.308,1.604,-144.91,360
1569937980,327.943,113.63,-16.0734,178.308,1.604,-144.91,360
1569937980,327.943,113.63,-16.0734,178.308,1.604,-144.91,360
1569937980,327.943,113.63,-16.0734,178.308,1.604,-144.91,360
1569937980,327.943,113.63,-16.0734,178.308,1.604,-144.91,360
1569937980,327.943,113.63,-16.0734,178.308,1.62598,-144.91,360
1569937980,327.943,113.63,-16.0734,178.308,1.62598,-144.91,360
1569937980,327.943,113.63,-16.0734,178.308,1.62598,-144.91,360
1569937980,327.943,113.63,-16.0734,178.308,1.62598,-144.91,360
1569937980,327.943,113.63,-16.0734,178.308,1.62598,-144.91,360
1569937980,327.943,113.63,-16.0734,178.308,1.62598,-144.91,360
1569937980,327.943,113.63,-16.0734,178.308,1.604,-144.91,360
1569937980,327.943,113.63,-16.0734,178.308,1.604,-144.91,360
1569937980,327.943,113.63,-16.0734,178.308,1.604,-144.91,360
1569937980,327.943,113.63,-16.0734,178.308,1.604,-144.91,360
1569937980,327.943,113.63,-16.0734,178.308,1.604,-144.91,360
1569937980,327.943,113.63,-16.0734,178.308,1.604,-144.91,360
1569937980,327.943,113.519,-16.0734,178.308,1.604,-144.91,360
1569937980,327.943,113.519,-16.0734,178.308,1.604,-144.91,356
1569937980,327.943,113.519,-16.0734,178.308,1.604,-144.91,356
1569937980,327.943,113.519,-16.0734,178.308,1.604,-144.91,356
1569937980,327.943,113.519,-16.0734,178.308,1.604,-144.91,356
1569937980,327.943,113.519,-16.0734,178.308,1.604,-144.91,356
1569937980,327.943,113.519,-16.0734,178.308,1.604,-144.91,356
1569937980,327.943,113.519,-16.0734,178.308,1.604,-144.91,360
1569937980,327.943,113.63,-16.0734,178.308,1.604,-144.91,360
1569937980,328.054,113.63,-16.0734,178.308,1.604,-144.91,360
1569937980,328.054,113.63,-16.0734,178.308,1.604,-144.91,360
1569937980,328.054,113.63,-16.0734,178.308,1.604,-144.91,360
1569937980,328.054,113.63,-16.0734,178.308,1.604,-144.91,360
1569937980,328.054,113.63,-16.0734,178.308,1.604,-144.91,360
1569937980,328.054,113.63,-16.0734,178.308,1.604,-144.91,360
1569937980,328.054,113.63,-16.0734,178.308,1.604,-144.91,360
1569937980,328.054,113.63,-16.0734,178.308,1.604,-144.91,360
1569937980,328.054,113.63,-16.0734,178.286,1.604,-144.91,360
1569937980,328.054,113.519,-16.0734,178.286,1.604,-144.91,360
1569937980,328.054,113.519,-16.0734,178.286,1.604,-144.91,360
1569937980,327.943,113.519,-16.0734,178.286,1.604,-144.91,360
1569937980,328.054,113.519,-16.0734,178.286,1.604,-144.91,360
1569937980,328.054,113.519,-16.0734,178.308,1.604,-144.91,360
1569937980,328.054,113.63,-16.0734,178.308,1.604,-144.91,360
1569937980,328.054,113.63,-16.0734,178.308,1.604,-144.91,360
1569937980,328.054,113.63,-16.0734,178.308,1.604,-144.91,360
1569937980,328.054,113.63,-16.0734,178.308,1.604,-144.91,360
1569937980,328.054,113.63,-16.0734,178.308,1.604,-144.91,360
1569937980,328.054,113.63,-16.0734,178.308,1.604,-144.91,360
1569937980,328.054,113.63,-16.0734,178.308,1.604,-144.91,356
1569937980,328.054,113.63,-16.0734,178.308,1.604,-144.91,356
1569937980,328.054,113.63,-16.0734,178.308,1.604,-144.91,356
1569937980,328.054,113.63,-16.0734,178.308,1.604,-144.91,356
1569937980,328.054,113.63,-16.0734,178.308,1.58203,-144.91,356
1569937980,328.054,113.63,-16.0734,178.308,1.58203,-144.91,356
1569937980,328.054,113.63,-16.0734,178.308,1.58203,-144.91,356
1569937980,328.054,113.63,-16.0734,178.308,1.58203,-144.91,356
1569937980,328.054,113.63,-16.0734,178.308,1.58203,-144.91,356
1569937980,328.054,113.63,-16.0734,178.308,1.58203,-144.91,352
1569937980,328.054,113.63,-16.0734,178.308,1.604,-144.91,352
1569937981,328.054,113.63,-16.0734,178.286,1.604,-144.91,352
1569937981,328.054,113.63,-16.0734,178.286,1.604,-144.91,352
1569937981,328.054,113.63,-16.0734,178.286,1.604,-144.91,352
1569937981,328.054,113.63,-16.0734,178.286,1.604,-144.91,352
1569937981,328.054,113.63,-16.0734,178.286,1.604,-144.91,348
1569937981,328.054,113.519,-16.0734,178.286,1.604,-144.91,348
1569937981,328.054,113.519,-16.0734,178.286,1.604,-144.91,348
1569937981,328.054,113.519,-16.0734,178.286,1.604,-144.91,348
1569937981,328.054,113.519,-16.0734,178.286,1.604,-144.91,348
1569937981,328.054,113.519,-16.0734,178.286,1.604,-144.91,348
1569937981,328.054,113.519,-16.0734,178.286,1.604,-144.91,348
1569937981,328.054,113.519,-16.0734,178.286,1.604,-144.91,348
1569937981,328.054,113.519,-16.0734,178.286,1.604,-144.91,352
1569937981,328.054,113.519,-16.0734,178.286,1.604,-144.91,352
1569937981,328.054,113.519,-16.0734,178.286,1.604,-144.91,352
1569937981,328.054,113.519,-16.0734,178.286,1.604,-144.91,352
1569937981,328.054,113.519,-16.0734,178.286,1.604,-144.91,352
1569937981,328.054,113.63,-16.0734,178.286,1.604,-144.932,352
1569937981,328.054,113.63,-16.0734,178.286,1.604,-144.932,352
1569937981,328.054,113.63,-16.0734,178.286,1.604,-144.932,352
1569937981,328.054,113.63,-16.0734,178.286,1.604,-144.932,352
1569937981,328.054,113.63,-16.0734,178.286,1.604,-144.932,352
1569937981,328.054,113.63,-16.0734,178.286,1.604,-144.932,352
1569937981,328.054,113.63,-16.0734,178.286,1.604,-144.932,352
1569937981,328.054,113.519,-16.0734,178.286,1.604,-144.932,356
1569937981,328.054,113.519,-16.0734,178.286,1.604,-144.932,356
1569937981,328.054,113.519,-16.0734,178.286,1.604,-144.932,356
1569937981,328.054,113.519,-16.0734,178.286,1.604,-144.932,356
1569937981,328.054,113.519,-16.0734,178.286,1.604,-144.91,356
1569937981,328.054,113.519,-16.0734,178.286,1.604,-144.91,356
1569937981,328.054,113.519,-16.0734,178.286,1.604,-144.91,356
1569937981,328.054,113.519,-16.0734,178.286,1.604,-144.91,360
1569937981,328.054,113.519,-16.0734,178.286,1.604,-144.91,360
1569937981,328.054,113.519,-16.0734,178.286,1.604,-144.91,360
1569937981,328.054,113.519,-16.0734,178.286,1.604,-144.91,360
1569937981,328.054,113.519,-16.0734,178.286,1.604,-144.91,360
1569937981,328.054,113.519,-16.0734,178.286,1.604,-144.91,360
1569937981,328.054,113.519,-16.0734,178.286,1.604,-144.91,360
1569937981,327.943,113.519,-16.0734,178.286,1.604,-144.91,360
1569937981,327.943,113.519,-16.0734,178.286,1.604,-144.91,364
1569937981,327.943,113.519,-16.0734,178.286,1.62598,-144.91,364
1569937981,327.943,113.519,-16.0734,178.286,1.62598,-144.91,364
1569937981,327.943,113.519,-16.0734,178.286,1.62598,-144.91,364
1569937981,327.943,113.519,-16.0734,178.286,1.62598,-144.91,364
1569937981,327.943,113.519,-16.0734,178.286,1.62598,-144.91,364
1569937981,327.943,113.519,-15.9618,178.286,1.62598,-144.91,364
1569937981,327.943,113.519,-15.9618,178.286,1.62598,-144.91,364
1569937981,327.943,113.519,-15.9618,178.286,1.62598,-144.91,364
1569937981,327.943,113.519,-15.9618,178.286,1.62598,-144.932,364
1569937981,327.943,113.519,-15.9618,178.286,1.62598,-144.932,364
1569937981,327.943,113.519,-15.9618,178.286,1.62598,-144.932,368
1569937981,327.943,113.519,-15.9618,178.286,1.62598,-144.932,368
1569937981,327.943,113.519,-15.9618,178.286,1.62598,-144.932,368
1569937981,327.943,113.519,-15.9618,178.286,1.62598,-144.932,368
1569937981,327.943,113.519,-15.9618,178.286,1.62598,-144.932,368
1569937981,327.943,113.519,-15.9618,178.286,1.62598,-144.932,368
1569937981,327.943,113.519,-15.9618,178.286,1.62598,-144.932,368
1569937981,327.943,113.519,-15.9618,178.286,1.62598,-144.932,368
1569937981,327.943,113.519,-15.9618,178.286,1.62598,-144.932,368
1569937981,327.943,113.519,-15.9618,178.286,1.62598,-144.932,368
1569937981,327.943,113.519,-15.9618,178.286,1.62598,-144.932,368
1569937981,327.943,113.519,-15.9618,178.286,1.62598,-144.932,368
1569937981,327.943,113.519,-15.9618,178.286,1.62598,-144.932,364
1569937981,327.943,113.519,-15.9618,178.286,1.62598,-144.932,364
1569937981,327.943,113.519,-15.9618,178.286,1.62598,-144.932,364
1569937981,327.943,113.519,-15.9618,178.286,1.62598,-144.91,364
1569937981,327.943,113.519,-15.9618,178.286,1.62598,-144.91,364
1569937981,327.943,113.519,-15.9618,178.286,1.62598,-144.91,364
1569937981,328.054,113.519,-15.9618,178.286,1.62598,-144.91,364
1569937981,328.054,113.519,-15.9618,178.286,1.62598,-144.91,364
1569937981,328.054,113.519,-15.9618,178.286,1.62598,-144.91,364
1569937981,328.054,113.519,-15.9618,178.286,1.62598,-144.91,364
1569937981,328.054,113.519,-15.9618,178.286,1.62598,-144.91,364
1569937981,328.054,113.519,-15.9618,178.286,1.62598,-144.91,364
1569937981,328.054,113.519,-15.9618,178.286,1.62598,-144.91,364
1569937981,328.054,113.63,-15.9618,178.286,1.62598,-144.91,368
1569937981,328.054,113.63,-15.9618,178.286,1.62598,-144.91,368
1569937981,328.054,113.63,-15.9618,178.308,1.62598,-144.91,368
1569937981,328.054,113.63,-15.9618,178.308,1.62598,-144.91,368
1569937981,327.943,113.63,-15.9618,178.308,1.62598,-144.91,368
1569937981,327.943,113.63,-15.9618,178.308,1.62598,-144.91,368
1569937981,327.943,113.63,-15.9618,178.308,1.62598,-144.91,368
1569937981,327.943,113.63,-15.9618,178.308,1.62598,-144.91,368
1569937981,327.943,113.63,-15.9618,178.308,1.62598,-144.91,372
1569937981,327.943,113.63,-15.9618,178.308,1.62598,-144.91,372
1569937981,327.943,113.63,-15.9618,178.308,1.62598,-144.91,372
1569937981,327.943,113.63,-15.9618,178.308,1.62598,-144.91,372
1569937981,327.943,113.63,-15.9618,178.308,1.62598,-144.91,372
1569937981,327.943,113.63,-15.9618,178.308,1.62598,-144.91,372
1569937981,327.943,113.63,-15.9618,178.308,1.62598,-144.91,372
1569937981,327.943,113.63,-15.9618,178.308,1.62598,-144.91,372
1569937981,327.943,113.63,-15.9618,178.308,1.62598,-144.91,372
1569937981,327.943,113.63,-15.9618,178.308,1.62598,-144.91,368
1569937981,327.943,113.63,-15.9618,178.308,1.62598,-144.91,368
1569937981,327.943,113.63,-15.9618,178.308,1.62598,-144.91,368
1569937981,327.943,113.63,-15.9618,178.308,1.62598,-144.91,368
1569937981,327.943,113.63,-15.9618,178.308,1.62598,-144.91,368
1569937981,327.943,113.63,-15.9618,178.308,1.62598,-144.91,368
1569937981,327.943,113.63,-15.9618,178.308,1.62598,-144.91,368
1569937981,327.943,113.63,-15.9618,178.308,1.62598,-144.91,368
1569937982,327.943,113.63,-15.9618,178.308,1.62598,-144.91,368
1569937982,327.943,113.63,-15.9618,178.308,1.62598,-144.91,368
1569937982,327.943,113.63,-15.9618,178.308,1.62598,-144.91,368
1569937982,327.943,113.63,-15.9618,178.308,1.62598,-144.91,368
1569937982,327.943,113.63,-15.9618,178.308,1.62598,-144.91,368
1569937982,327.943,113.63,-15.9618,178.308,1.62598,-144.91,368
1569937982,327.943,113.63,-15.9618,178.308,1.62598,-144.91,368
1569937982,327.943,113.63,-15.9618,178.308,1.62598,-144.91,368
1569937982,327.943,113.63,-15.9618,178.308,1.62598,-144.91,368
1569937982,327.943,113.63,-15.9618,178.308,1.62598,-144.91,368
1569937982,327.943,113.63,-15.9618,178.308,1.62598,-144.91,368
1569937982,327.943,113.63,-15.9618,178.308,1.62598,-144.91,368
1569937982,327.943,113.63,-15.9618,178.308,1.62598,-144.91,368
1569937982,327.943,113.63,-15.9618,178.308,1.62598,-144.91,368
1569937982,327.943,113.63,-15.9618,178.308,1.62598,-144.91,368
1569937982,327.943,113.63,-15.9618,178.308,1.62598,-144.91,368
1569937982,327.943,113.63,-15.9618,178.308,1.62598,-144.91,368
1569937982,327.943,113.63,-15.9618,178.308,1.62598,-144.91,368
1569937982,327.943,113.63,-15.9618,178.308,1.62598,-144.91,368
1569937982,327.943,113.63,-15.9618,178.308,1.62598,-144.91,368
1569937982,327.943,113.63,-15.9618,178.308,1.62598,-144.91,368
1569937982,327.943,113.63,-15.9618,178.308,1.62598,-144.91,368
1569937982,327.943,113.63,-15.9618,178.308,1.62598,-144.91,364
1569937982,327.943,113.63,-15.9618,178.308,1.62598,-144.91,364
1569937982,327.943,113.63,-15.9618,178.308,1.62598,-144.91,364
1569937982,327.943,113.63,-15.9618,178.308,1.62598,-144.91,364
1569937982,328.054,113.63,-15.9618,178.308,1.62598,-144.91,364
1569937982,328.054,113.63,-15.9618,178.308,1.62598,-144.91,364
1569937982,328.054,113.63,-15.9618,178.308,1.62598,-144.91,364
1569937982,328.054,113.63,-15.9618,178.308,1.62598,-144.91,364
1569937982,328.054,113.63,-15.9618,178.308,1.62598,-144.91,364
1569937982,328.054,113.63,-15.9618,178.308,1.64795,-144.91,364
1569937982,328.054,113.63,-15.9618,178.308,1.64795,-144.91,364
1569937982,328.054,113.63,-15.9618,178.308,1.64795,-144.91,364
1569937982,328.054,113.63,-15.9618,178.308,1.64795,-144.91,364
1569937982,328.054,113.63,-15.9618,178.308,1.64795,-144.91,364
1569937982,328.054,113.63,-15.9618,178.308,1.64795,-144.91,364
1569937982,327.943,113.63,-15.9618,178.308,1.64795,-144.91,364
1569937982,327.943,113.63,-15.9618,178.308,1.64795,-144.91,364
1569937982,327.943,113.63,-15.9618,178.308,1.64795,-144.91,364
1569937982,327.943,113.63,-15.9618,178.308,1.64795,-144.91,364
1569937982,327.943,113.63,-15.9618,178.308,1.64795,-144.91,364
1569937982,327.943,113.63,-15.9618,178.308,1.64795,-144.91,364
1569937982,327.943,113.63,-15.9618,178.308,1.64795,-144.91,364
1569937982,327.943,113.63,-15.9618,178.308,1.64795,-144.91,364
1569937982,327.943,113.63,-15.9618,178.308,1.64795,-144.91,364
1569937982,327.943,113.63,-15.9618,178.308,1.64795,-144.91,364
1569937982,327.943,113.63,-15.9618,178.308,1.64795,-144.91,364
1569937982,327.943,113.63,-15.9618,178.308,1.64795,-144.91,368
1569937982,327.943,113.63,-15.9618,178.308,1.64795,-144.91,368
1569937982,327.943,113.63,-15.9618,178.308,1.64795,-144.91,368
1569937982,327.943,113.63,-15.9618,178.308,1.64795,-144.91,368
1569937982,327.943,113.63,-15.9618,178.308,1.64795,-144.91,368
1569937982,327.943,113.63,-15.9618,178.308,1.62598,-144.91,368
1569937982,327.943,113.63,-15.9618,178.308,1.62598,-144.91,368
1569937982,327.943,113.63,-15.9618,178.308,1.62598,-144.91,372
1569937982,327.943,113.63,-15.9618,178.308,1.62598,-144.91,372
1569937982,327.943,113.63,-15.9618,178.308,1.62598,-144.91,372
1569937982,327.943,113.63,-15.9618,178.308,1.62598,-144.91,372
1569937982,327.943,113.63,-15.9618,178.308,1.62598,-144.91,368
1569937982,327.943,113.63,-15.9618,178.308,1.62598,-144.91,368
1569937982,327.943,113.63,-16.0734,178.308,1.62598,-144.91,368
1569937982,328.054,113.63,-16.0734,178.308,1.62598,-144.91,368
1569937982,328.054,113.63,-16.0734,178.308,1.62598,-144.91,368
1569937982,328.054,113.63,-16.0734,178.308,1.62598,-144.91,368
1569937982,328.054,113.63,-16.0734,178.308,1.62598,-144.91,368
1569937982,328.054,113.63,-16.0734,178.308,1.62598,-144.91,368
1569937982,328.054,113.63,-16.0734,178.308,1.62598,-144.91,364
1569937982,328.054,113.63,-16.0734,178.308,1.62598,-144.91,364
1569937982,328.054,113.63,-15.9618,178.308,1.62598,-144.91,364
1569937982,328.054,113.63,-15.9618,178.308,1.62598,-144.91,364
1569937982,328.054,113.63,-15.9618,178.308,1.62598,-144.91,364
1569937982,328.054,113.63,-15.9618,178.308,1.62598,-144.91,364
1569937982,328.054,113.63,-15.9618,178.308,1.62598,-144.91,364
1569937982,328.054,113.63,-15.9618,178.308,1.62598,-144.91,364
1569937982,328.054,113.63,-15.9618,178.308,1.62598,-144.91,364
1569937982,328.054,113.63,-15.9618,178.308,1.62598,-144.91,364
1569937982,328.054,113.63,-15.9618,178.308,1.62598,-144.91,364
1569937982,328.054,113.63,-15.9618,178.308,1.62598,-144.91,364
1569937982,328.054,113.63,-15.9618,178.308,1.62598,-144.91,364
1569937982,328.054,113.63,-15.9618,178.286,1.62598,-144.91,364
1569937982,328.054,113.63,-15.9618,178.286,1.62598,-144.91,364
1569937982,328.054,113.63,-15.9618,178.286,1.62598,-144.91,364
1569937982,328.054,113.63,-15.9618,178.286,1.62598,-144.91,364
1569937982,328.054,113.63,-15.9618,178.286,1.62598,-144.91,364
1569937982,328.054,113.519,-15.9618,178.286,1.62598,-144.91,364
1569937982,328.054,113.519,-15.9618,178.286,1.62598,-144.91,364
1569937982,328.054,113.519,-15.9618,178.286,1.62598,-144.91,364
1569937982,328.054,113.519,-15.9618,178.286,1.62598,-144.91,364
1569937982,328.054,113.519,-15.9618,178.286,1.62598,-144.91,364
1569937982,328.054,113.519,-15.9618,178.286,1.62598,-144.91,364
1569937982,328.054,113.519,-15.9618,178.286,1.62598,-144.91,364
1569937982,328.054,113.63,-15.9618,178.286,1.62598,-144.91,364
1569937982,328.054,113.63,-15.9618,178.286,1.62598,-144.91,364
1569937982,328.054,113.63,-15.9618,178.286,1.62598,-144.91,364
1569937982,328.054,113.63,-15.9618,178.286,1.62598,-144.91,364
1569937982,328.054,113.63,-15.9618,178.286,1.62598,-144.91,364
1569937982,328.054,113.63,-15.9618,178.308,1.62598,-144.91,360
1569937982,328.054,113.63,-15.9618,178.308,1.62598,-144.91,360
1569937982,327.943,113.63,-15.9618,178.308,1.62598,-144.91,360
1569937983,327.943,113.63,-15.9618,178.308,1.62598,-144.91,360
1569937983,327.943,113.519,-15.9618,178.308,1.62598,-144.91,360
1569937983,327.943,113.519,-15.9618,178.308,1.62598,-144.91,364
1569937983,327.943,113.519,-15.9618,178.286,1.62598,-144.91,364
1569937983,327.943,113.519,-15.9618,178.286,1.62598,-144.91,364
1569937983,327.943,113.519,-15.9618,178.286,1.62598,-144.91,364
1569937983,327.943,113.519,-15.9618,178.286,1.62598,-144.91,364
1569937983,327.943,113.519,-15.9618,178.286,1.62598,-144.91,368
1569937983,327.943,113.519,-15.9618,178.286,1.62598,-144.91,368
1569937983,327.943,113.519,-16.0734,178.286,1.62598,-144.91,368
1569937983,327.943,113.519,-16.0734,178.308,1.604,-144.91,372
1569937983,327.943,113.519,-16.0734,178.308,1.604,-144.91,372
1569937983,327.943,113.63,-16.0734,178.308,1.62598,-144.91,372
1569937983,327.943,113.63,-16.0734,178.308,1.62598,-144.91,372
1569937983,327.943,113.63,-15.9618,178.308,1.62598,-144.91,372
1569937983,327.943,113.63,-15.9618,178.308,1.62598,-144.91,372
1569937983,327.943,113.63,-15.9618,178.308,1.62598,-144.91,372
1569937983,327.943,113.63,-15.9618,178.308,1.62598,-144.91,372
1569937983,327.943,113.63,-15.9618,178.308,1.62598,-144.91,372
1569937983,327.943,113.63,-15.9618,178.308,1.62598,-144.91,372
1569937983,327.943,113.63,-15.9618,178.308,1.62598,-144.91,372
1569937983,327.943,113.63,-15.9618,178.308,1.62598,-144.91,372
1569937983,327.943,113.63,-15.9618,178.308,1.62598,-144.91,368
1569937983,327.943,113.63,-16.0734,178.308,1.62598,-144.91,368
1569937983,327.943,113.63,-16.0734,178.308,1.62598,-144.91,368
1569937983,327.943,113.63,-16.0734,178.308,1.62598,-144.91,368
1569937983,327.943,113.63,-16.0734,178.308,1.62598,-144.91,368
1569937983,327.943,113.63,-16.0734,178.308,1.62598,-144.91,368
1569937983,327.943,113.63,-16.0734,178.308,1.62598,-144.91,368
1569937983,327.943,113.63,-16.0734,178.308,1.62598,-144.91,368
1569937983,327.943,113.63,-16.0734,178.308,1.604,-144.91,368
1569937983,327.943,113.63,-16.0734,178.308,1.604,-144.888,372
1569937983,327.943,113.63,-16.0734,178.308,1.604,-144.888,372
1569937983,327.943,113.63,-16.0734,178.308,1.604,-144.888,372
1569937983,327.943,113.63,-16.0734,178.308,1.604,-144.888,372
1569937983,327.943,113.63,-16.0734,178.308,1.604,-144.888,372
1569937983,327.943,113.519,-16.0734,178.308,1.604,-144.888,372
1569937983,327.943,113.519,-16.0734,178.286,1.604,-144.888,372
1569937983,327.943,113.519,-16.0734,178.286,1.604,-144.888,372
1569937983,327.943,113.519,-16.0734,178.286,1.604,-144.91,376
1569937983,327.943,113.519,-16.0734,178.286,1.604,-144.91,376
1569937983,327.943,113.519,-16.0734,178.286,1.604,-144.91,376
1569937983,327.943,113.519,-16.0734,178.286,1.604,-144.91,376
1569937983,327.943,113.519,-16.0734,178.286,1.604,-144.91,376
1569937983,327.943,113.519,-16.0734,178.286,1.604,-144.91,376
1569937983,327.943,113.519,-16.0734,178.286,1.604,-144.91,380
1569937983,327.943,113.519,-16.0734,178.286,1.604,-144.91,380
1569937983,327.943,113.519,-16.0734,178.286,1.604,-144.91,380
1569937983,327.943,113.519,-16.0734,178.286,1.604,-144.91,380
1569937983,327.943,113.519,-16.0734,178.286,1.62598,-144.91,380
1569937983,327.943,113.519,-16.0734,178.286,1.62598,-144.91,376
1569937983,327.943,113.519,-16.0734,178.286,1.62598,-144.91,376
1569937983,327.943,113.519,-16.0734,178.286,1.62598,-144.91,376
1569937983,327.943,113.519,-15.9618,178.286,1.62598,-144.91,376
1569937983,327.943,113.519,-15.9618,178.286,1.62598,-144.91,376
1569937983,327.943,113.519,-15.9618,178.286,1.62598,-144.91,376
1569937983,327.943,113.519,-15.9618,178.286,1.62598,-144.91,372
1569937983,327.943,113.519,-15.9618,178.286,1.62598,-144.91,372
1569937983,327.943,113.519,-15.9618,178.286,1.62598,-144.91,372
1569937987,366.229,72.1072,-15.2921,178.198,1.80176,-145.151,416
1569937987,366.229,72.2188,-15.2921,178.198,1.80176,-145.151,416
1569937987,366.229,72.2188,-15.2921,178.198,1.80176,-145.151,416
1569937987,366.229,72.2188,-15.2921,178.198,1.80176,-145.151,416
1569937987,366.229,72.2188,-15.2921,178.198,1.77979,-145.151,416
1569937987,366.229,72.2188,-15.4037,178.198,1.77979,-145.151,416
1569937987,366.229,72.2188,-15.4037,178.198,1.77979,-145.151,416
1569937987,366.229,72.2188,-15.4037,178.198,1.77979,-145.151,420
1569937987,366.229,72.2188,-15.4037,178.198,1.77979,-145.151,420
1569937987,366.229,72.2188,-15.4037,178.198,1.77979,-145.151,420
1569937987,366.229,72.2188,-15.4037,178.198,1.77979,-145.151,424
1569937987,366.229,72.1072,-15.4037,178.198,1.77979,-145.151,424
1569937987,366.229,72.1072,-15.4037,178.198,1.75781,-145.151,424
1569937987,366.229,72.2188,-15.4037,178.198,1.75781,-145.151,428
1569937987,366.229,72.2188,-15.4037,178.198,1.75781,-145.129,428
1569937987,366.229,72.2188,-15.4037,178.198,1.77979,-145.151,428
1569937987,366.229,72.2188,-15.4037,178.198,1.77979,-145.151,432
1569937987,366.229,72.2188,-15.4037,178.198,1.77979,-145.151,432
1569937987,366.229,72.2188,-15.4037,178.198,1.77979,-145.151,432
1569937987,366.229,72.2188,-15.4037,178.198,1.77979,-145.151,432
1569937987,366.229,72.2188,-15.4037,178.198,1.77979,-145.151,432
1569937987,366.229,72.2188,-15.4037,178.198,1.77979,-145.151,432
1569937987,366.229,72.2188,-15.4037,178.198,1.77979,-145.151,432
1569937987,366.229,72.2188,-15.4037,178.198,1.77979,-145.151,428
1569937987,366.229,72.2188,-15.4037,178.198,1.77979,-145.151,428
1569937987,366.229,72.2188,-15.4037,178.198,1.77979,-145.129,428
1569937987,366.229,72.2188,-15.4037,178.198,1.77979,-145.129,428
1569937987,366.229,72.2188,-15.4037,178.198,1.77979,-145.129,424
1569937987,366.229,72.1072,-15.4037,178.198,1.77979,-145.129,424
1569937987,366.229,72.1072,-15.4037,178.198,1.77979,-145.129,424
1569937987,366.229,72.1072,-15.4037,178.198,1.77979,-145.129,424
1569937987,366.229,72.1072,-15.4037,178.198,1.77979,-145.129,424
1569937987,366.229,72.1072,-15.4037,178.198,1.77979,-145.129,424
1569937987,366.229,72.1072,-15.4037,178.176,1.77979,-145.129,424
1569937987,366.229,72.1072,-15.4037,178.176,1.77979,-145.129,424
1569937987,366.229,72.1072,-15.4037,178.176,1.80176,-145.129,424
1569937987,366.229,72.1072,-15.4037,178.176,1.80176,-145.129,424
1569937987,366.229,72.1072,-15.4037,178.176,1.80176,-145.129,424
1569937987,366.229,72.1072,-15.4037,178.176,1.80176,-145.151,424
1569937987,366.229,72.1072,-15.4037,178.176,1.80176,-145.151,424
1569937987,366.229,72.1072,-15.2921,178.176,1.80176,-145.151,428
1569937987,366.229,72.1072,-15.2921,178.176,1.80176,-145.151,428
1569937987,366.229,71.9956,-15.2921,178.154,1.80176,-145.151,428
1569937987,366.229,71.9956,-15.2921,178.154,1.80176,-145.151,428
1569937987,366.229,71.9956,-15.2921,178.154,1.80176,-145.151,428
1569937987,366.229,71.9956,-15.2921,178.154,1.80176,-145.151,428
1569937987,366.229,71.9956,-15.2921,178.154,1.80176,-145.151,428
1569937987,366.229,71.9956,-15.2921,178.154,1.80176,-145.151,428
1569937987,366.229,71.9956,-15.2921,178.154,1.80176,-145.151,432
1569937987,366.229,71.9956,-15.2921,178.154,1.80176,-145.151,432
1569937987,366.229,71.9956,-15.2921,178.154,1.80176,-145.151,432
1569937987,366.229,71.9956,-15.2921,178.154,1.80176,-145.151,432
1569937987,366.229,71.9956,-15.2921,178.154,1.80176,-145.151,432
1569937987,366.229,71.9956,-15.2921,178.154,1.80176,-145.151,432
1569937987,366.229,71.9956,-15.2921,178.154,1.80176,-145.151,432
1569937987,366.229,71.9956,-15.2921,178.154,1.80176,-145.151,432
1569937988,366.229,71.9956,-15.2921,178.154,1.80176,-145.151,432
1569937988,366.229,71.9956,-15.2921,178.154,1.80176,-145.151,432
1569937988,366.229,71.9956,-15.4037,178.154,1.80176,-145.151,432
1569937988,366.229,71.9956,-15.4037,178.154,1.80176,-145.151,432
1569937988,366.229,71.9956,-15.4037,178.154,1.77979,-145.151,428
1569937988,366.229,71.9956,-15.4037,178.154,1.77979,-145.151,428
1569937988,366.229,72.1072,-15.4037,178.154,1.77979,-145.151,428
1569937988,366.229,72.1072,-15.4037,178.154,1.77979,-145.151,428
1569937988,366.229,72.1072,-15.4037,178.154,1.77979,-145.151,428
1569937988,366.229,72.1072,-15.4037,178.154,1.77979,-145.151,428
1569937988,366.229,72.1072,-15.4037,178.176,1.77979,-145.151,428
1569937988,366.229,72.1072,-15.4037,178.176,1.77979,-145.151,424
1569937988,366.229,72.1072,-15.4037,178.154,1.77979,-145.151,424
1569937988,366.229,72.1072,-15.4037,178.154,1.77979,-145.151,424
1569937988,366.229,72.1072,-15.4037,178.154,1.77979,-145.151,424
1569937988,366.229,71.9956,-15.4037,178.154,1.77979,-145.151,424
1569937988,366.229,71.9956,-15.4037,178.154,1.77979,-145.151,424
1569937988,366.229,71.9956,-15.4037,178.154,1.75781,-145.151,424
1569937988,366.229,71.9956,-15.4037,178.154,1.75781,-145.151,424
1569937988,366.229,71.9956,-15.4037,178.154,1.75781,-145.151,424
1569937988,366.229,71.9956,-15.4037,178.154,1.75781,-145.151,420
1569937988,366.229,71.9956,-15.4037,178.154,1.75781,-145.151,420
1569937988,366.229,71.9956,-15.4037,178.154,1.75781,-145.151,420
1569937988,366.229,71.9956,-15.4037,178.154,1.75781,-145.151,420
1569937988,366.229,71.9956,-15.4037,178.154,1.75781,-145.151,420
1569937988,366.229,71.9956,-15.4037,178.154,1.75781,-145.151,420
1569937988,366.229,71.9956,-15.4037,178.154,1.75781,-145.151,420
1569937988,366.229,71.9956,-15.4037,178.154,1.75781,-145.151,420
1569937988,366.229,71.9956,-15.4037,178.154,1.75781,-145.151,424
1569937988,366.229,71.9956,-15.4037,178.154,1.75781,-145.151,424
1569937988,366.229,71.9956,-15.4037,178.154,1.75781,-145.151,424
1569937988,366.229,71.9956,-15.4037,178.154,1.75781,-145.151,424
1569937988,366.229,72.1072,-15.4037,178.154,1.75781,-145.151,428
1569937988,366.229,72.1072,-15.4037,178.154,1.75781,-145.151,428
1569937988,366.229,72.1072,-15.4037,178.154,1.75781,-145.129,428
1569937988,366.229,72.1072,-15.4037,178.154,1.75781,-145.129,428
1569937988,366.229,72.1072,-15.4037,178.154,1.75781,-145.151,428
1569937988,366.229,72.1072,-15.4037,178.154,1.75781,-145.151,432
1569937988,366.229,72.1072,-15.4037,178.154,1.75781,-145.151,432
1569937988,366.229,72.1072,-15.4037,178.154,1.75781,-145.151,432
1569937988,366.229,72.1072,-15.4037,178.154,1.75781,-145.151,432
1569937988,366.229,72.1072,-15.4037,178.154,1.75781,-145.151,432
1569937988,366.229,72.1072,-15.4037,178.176,1.75781,-145.151,432
1569937988,366.229,72.1072,-15.4037,178.176,1.75781,-145.151,428
1569937988,366.229,72.1072,-15.4037,178.176,1.75781,-145.151,428
1569937988,366.229,72.1072,-15.4037,178.176,1.75781,-145.151,428
1569937988,366.229,72.1072,-15.4037,178.176,1.75781,-145.151,428
1569937988,366.229,72.1072,-15.4037,178.176,1.75781,-145.151,428
1569937988,366.229,72.1072,-15.4037,178.176,1.75781,-145.151,428
1569937988,366.229,72.1072,-15.4037,178.176,1.75781,-145.151,428
1569937988,366.229,72.1072,-15.4037,178.176,1.75781,-145.151,428
1569937988,366.229,72.1072,-15.4037,178.176,1.75781,-145.151,428
1569937988,366.229,72.1072,-15.4037,178.176,1.75781,-145.151,424
1569937988,366.229,72.1072,-15.4037,178.154,1.75781,-145.151,424
1569937988,366.229,72.1072,-15.4037,178.154,1.75781,-145.151,424
1569937988,366.229,72.1072,-15.4037,178.154,1.75781,-145.151,424
1569937988,366.229,72.1072,-15.4037,178.154,1.75781,-145.151,424
1569937988,366.229,72.1072,-15.4037,178.154,1.75781,-145.151,424
1569937988,366.229,72.1072,-15.4037,178.154,1.75781,-145.151,424
1569937988,366.229,72.1072,-15.4037,178.154,1.75781,-145.151,424
1569937988,366.229,72.1072,-15.4037,178.154,1.75781,-145.151,424
1569937988,366.229,72.1072,-15.4037,178.154,1.75781,-145.151,424
1569937988,366.229,72.1072,-15.4037,178.176,1.77979,-145.151,424
1569937988,366.229,72.1072,-15.4037,178.176,1.77979,-145.151,424
1569937988,366.229,72.1072,-15.4037,178.176,1.77979,-145.151,424
1569937988,366.229,72.1072,-15.4037,178.176,1.77979,-145.151,424
1569937988,366.229,72.1072,-15.4037,178.176,1.77979,-145.151,424
1569937988,366.229,72.1072,-15.4037,178.176,1.77979,-145.151,424
1569937988,366.229,72.1072,-15.4037,178.176,1.75781,-145.151,424
1569937988,366.229,72.1072,-15.4037,178.198,1.75781,-145.151,420
1569937988,366.229,72.1072,-15.4037,178.198,1.75781,-145.151,420
1569937988,366.229,72.1072,-15.4037,178.198,1.75781,-145.151,420
1569937988,366.229,72.1072,-15.4037,178.198,1.75781,-145.151,420
1569937988,366.229,72.1072,-15.4037,178.198,1.75781,-145.151,420
1569937988,366.229,72.1072,-15.4037,178.198,1.75781,-145.151,420
1569937988,366.229,72.1072,-15.4037,178.198,1.75781,-145.151,420
1569937988,366.229,72.1072,-15.4037,178.198,1.75781,-145.151,420
1569937988,366.229,72.1072,-15.4037,178.198,1.75781,-145.151,420
1569937988,366.229,72.1072,-15.4037,178.198,1.75781,-145.151,420
1569937988,366.229,72.1072,-15.4037,178.198,1.75781,-145.151,420
1569937988,366.229,72.1072,-15.4037,178.198,1.77979,-145.151,416
1569937988,366.229,72.1072,-15.4037,178.198,1.77979,-145.151,416
1569937988,366.229,72.1072,-15.4037,178.198,1.77979,-145.151,416
1569937988,366.229,72.1072,-15.4037,178.198,1.77979,-145.151,416
1569937988,366.229,72.1072,-15.4037,178.198,1.77979,-145.151,416
1569937988,366.229,72.1072,-15.4037,178.198,1.77979,-145.151,416
1569937988,366.229,72.1072,-15.4037,178.198,1.77979,-145.129,416
1569937988,366.229,72.1072,-15.4037,178.198,1.77979,-145.129,412
1569937988,366.229,72.1072,-15.4037,178.198,1.77979,-145.129,412
1569937988,366.229,72.1072,-15.4037,178.198,1.77979,-145.129,412
1569937988,366.229,72.1072,-15.4037,178.198,1.77979,-145.129,412
1569937988,366.229,72.1072,-15.4037,178.198,1.77979,-145.129,412
1569937988,366.229,72.1072,-15.4037,178.198,1.77979,-145.129,412
1569937988,366.229,72.1072,-15.4037,178.176,1.77979,-145.129,412
1569937988,366.229,72.1072,-15.4037,178.176,1.77979,-145.129,408
1569937988,366.229,72.1072,-15.4037,178.176,1.77979,-145.129,408
1569937988,366.229,72.1072,-15.4037,178.176,1.77979,-145.129,408
1569937988,366.229,72.1072,-15.4037,178.176,1.77979,-145.129,408
1569937988,366.229,72.1072,-15.4037,178.176,1.77979,-145.129,412
1569937988,366.229,72.1072,-15.4037,178.176,1.77979,-145.129,412
1569937989,366.229,72.1072,-15.4037,178.176,1.77979,-145.129,412
1569937989,366.229,72.1072,-15.4037,178.176,1.77979,-145.129,412
1569937989,366.229,72.1072,-15.4037,178.176,1.77979,-145.129,412
1569937989,366.229,72.1072,-15.4037,178.176,1.77979,-145.129,416
1569937989,366.229,72.1072,-15.4037,178.176,1.77979,-145.129,416
1569937989,366.229,72.1072,-15.4037,178.176,1.77979,-145.129,416
1569937989,366.229,72.1072,-15.4037,178.176,1.77979,-145.129,416
1569937989,366.229,72.1072,-15.4037,178.176,1.77979,-145.129,420
1569937989,366.229,72.1072,-15.4037,178.176,1.77979,-145.129,420
1569937989,366.229,72.1072,-15.4037,178.176,1.77979,-145.129,420
1569937989,366.229,72.1072,-15.4037,178.176,1.77979,-145.151,420
1569937989,366.229,72.1072,-15.4037,178.176,1.77979,-145.151,420
1569937989,366.229,72.1072,-15.2921,178.176,1.77979,-145.151,420
1569937989,366.229,72.1072,-15.2921,178.176,1.77979,-145.151,420
1569937989,366.229,72.1072,-15.2921,178.176,1.77979,-145.151,420
1569937989,366.229,72.1072,-15.2921,178.176,1.77979,-145.151,420
1569937989,366.229,72.1072,-15.2921,178.176,1.77979,-145.151,420
1569937989,366.229,72.1072,-15.2921,178.176,1.77979,-145.151,420
1569937989,366.229,72.1072,-15.2921,178.176,1.80176,-145.151,420
1569937989,366.229,72.1072,-15.2921,178.176,1.80176,-145.151,420
1569937989,366.229,72.1072,-15.2921,178.176,1.80176,-145.151,420
1569937989,366.229,72.1072,-15.2921,178.176,1.80176,-145.151,416
1569937989,366.229,72.1072,-15.2921,178.198,1.80176,-145.151,416
1569937989,366.229,72.1072,-15.2921,178.198,1.80176,-145.129,416
1569937989,366.229,72.2188,-15.2921,178.198,1.80176,-145.129,416
1569937989,366.229,72.2188,-15.2921,178.198,1.80176,-145.129,412
1569937989,366.229,72.2188,-15.2921,178.198,1.80176,-145.129,412
1569937989,366.229,72.2188,-15.2921,178.198,1.80176,-145.129,412
1569937989,366.229,72.2188,-15.2921,178.198,1.80176,-145.129,412
1569937989,366.229,72.2188,-15.2921,178.198,1.80176,-145.151,412
1569937989,366.229,72.2188,-15.2921,178.198,1.80176,-145.151,408
1569937989,366.229,72.2188,-15.4037,178.198,1.80176,-145.151,408
1569937989,366.229,72.2188,-15.4037,178.198,1.80176,-145.151,408
1569937989,366.229,72.2188,-15.4037,178.198,1.80176,-145.151,408
1569937989,366.229,72.2188,-15.4037,178.198,1.80176,-145.151,408
1569937989,366.229,72.1072,-15.4037,178.198,1.80176,-145.151,412
1569937989,366.229,72.1072,-15.4037,178.198,1.80176,-145.151,412
1569937989,366.229,72.1072,-15.4037,178.198,1.80176,-145.151,412
1569937989,366.229,72.1072,-15.4037,178.198,1.80176,-145.151,412
1569937989,366.229,72.1072,-15.4037,178.198,1.77979,-145.151,412
1569937989,366.229,72.1072,-15.4037,178.176,1.77979,-145.151,412
1569937989,366.229,72.1072,-15.4037,178.176,1.77979,-145.151,412
1569937989,366.229,72.1072,-15.4037,178.198,1.77979,-145.151,412
1569937989,366.229,72.1072,-15.4037,178.198,1.77979,-145.129,412
1569937989,366.229,72.1072,-15.4037,178.198,1.77979,-145.129,416
1569937989,366.229,72.2188,-15.4037,178.198,1.77979,-145.129,416
1569937989,366.229,72.2188,-15.4037,178.198,1.77979,-145.129,412
1569937989,366.229,72.2188,-15.4037,178.198,1.77979,-145.129,412
1569937989,366.229,72.2188,-15.4037,178.198,1.77979,-145.129,412
1569937989,366.229,72.2188,-15.4037,178.198,1.77979,-145.129,412
1569937989,366.229,72.2188,-15.4037,178.198,1.77979,-145.129,412
1569937989,366.229,72.2188,-15.4037,178.198,1.77979,-145.129,412
1569937989,366.229,72.2188,-15.4037,178.198,1.77979,-145.129,412
1569937989,366.229,72.2188,-15.4037,178.198,1.77979,-145.129,412
1569937989,366.229,72.2188,-15.4037,178.198,1.80176,-145.129,408
1569937989,366.229,72.2188,-15.4037,178.198,1.80176,-145.129,408
1569937989,366.229,72.1072,-15.4037,178.198,1.80176,-145.129,408
1569937989,366.34,72.1072,-15.4037,178.198,1.80176,-145.129,408
1569937989,366.34,72.1072,-15.4037,178.176,1.80176,-145.129,408
1569937989,366.34,72.1072,-15.4037,178.176,1.77979,-145.129,408
1569937989,366.34,72.1072,-15.4037,178.176,1.77979,-145.129,408
1569937989,366.34,72.1072,-15.4037,178.176,1.80176,-145.129,408
1569937989,366.34,72.1072,-15.4037,178.176,1.77979,-145.129,408
1569937989,366.34,72.1072,-15.4037,178.176,1.77979,-145.129,408
1569937989,366.34,72.1072,-15.4037,178.176,1.77979,-145.129,408
1569937989,366.34,72.1072,-15.4037,178.176,1.77979,-145.129,408
1569937989,366.34,72.1072,-15.4037,178.176,1.77979,-145.129,408
1569937989,366.34,72.1072,-15.4037,178.176,1.77979,-145.129,408
1569937989,366.34,72.1072,-15.4037,178.176,1.77979,-145.129,408
1569937989,366.34,72.2188,-15.4037,178.176,1.77979,-145.129,408
1569937989,366.34,72.2188,-15.4037,178.176,1.77979,-145.129,408
1569937989,366.34,72.2188,-15.4037,178.176,1.77979,-145.129,408
1569937989,366.34,72.2188,-15.4037,178.176,1.77979,-145.129,412
1569937989,366.34,72.2188,-15.4037,178.198,1.77979,-145.151,412
1569937989,366.229,72.2188,-15.4037,178.176,1.77979,-145.151,412
1569937989,366.229,72.2188,-15.4037,178.176,1.77979,-145.151,416
1569937989,366.229,72.2188,-15.4037,178.176,1.77979,-145.151,416
1569937989,366.229,72.1072,-15.4037,178.176,1.77979,-145.151,416
1569937989,366.229,72.1072,-15.4037,178.176,1.77979,-145.151,420
1569937989,366.229,72.1072,-15.4037,178.176,1.77979,-145.151,420
1569937989,366.229,72.1072,-15.4037,178.176,1.77979,-145.151,420
1569937989,366.229,72.1072,-15.4037,178.176,1.77979,-145.151,424
1569937989,366.229,72.1072,-15.4037,178.176,1.77979,-145.151,424
1569937989,366.229,72.1072,-15.4037,178.176,1.77979,-145.151,424
1569937989,366.34,72.1072,-15.4037,178.176,1.77979,-145.151,428
1569937989,366.34,72.1072,-15.4037,178.176,1.77979,-145.151,428
1569937989,366.34,72.1072,-15.4037,178.176,1.77979,-145.151,428
1569937989,366.34,72.1072,-15.4037,178.176,1.77979,-145.151,428
1569937989,366.34,72.1072,-15.4037,178.176,1.77979,-145.151,428
1569937989,366.34,72.1072,-15.4037,178.176,1.77979,-145.151,428
1569937989,366.34,72.1072,-15.4037,178.176,1.77979,-145.151,428
1569937989,366.34,72.1072,-15.4037,178.176,1.77979,-145.151,428
1569937989,366.34,72.1072,-15.4037,178.176,1.77979,-145.151,428
1569937989,366.34,72.1072,-15.4037,178.176,1.77979,-145.151,428
1569937989,366.34,72.1072,-15.4037,178.176,1.77979,-145.151,428
1569937989,366.229,72.1072,-15.4037,178.176,1.77979,-145.151,428
1569937989,366.229,72.1072,-15.4037,178.176,1.77979,-145.151,428
1569937989,366.229,72.1072,-15.4037,178.176,1.77979,-145.151,428
1569937989,366.229,72.1072,-15.4037,178.176,1.77979,-145.151,428
1569937989,366.229,72.1072,-15.4037,178.176,1.80176,-145.151,428
1569937990,366.229,72.1072,-15.4037,178.176,1.80176,-145.151,428
1569937990,366.229,72.1072,-15.2921,178.176,1.80176,-145.151,428
1569937990,366.229,72.1072,-15.2921,178.176,1.80176,-145.151,428
1569937990,366.229,72.1072,-15.2921,178.176,1.80176,-145.151,428
1569937990,366.229,72.1072,-15.2921,178.176,1.80176,-145.151,428
1569937990,366.229,72.1072,-15.2921,178.176,1.80176,-145.151,428
1569937990,366.229,72.1072,-15.2921,178.176,1.80176,-145.151,428
1569937990,366.229,72.1072,-15.2921,178.176,1.80176,-145.151,428
1569937990,366.229,72.1072,-15.2921,178.176,1.80176,-145.151,428
1569937990,366.229,72.1072,-15.2921,178.176,1.80176,-145.151,424
1569937990,366.229,72.1072,-15.2921,178.176,1.80176,-145.151,424
1569937990,366.229,72.1072,-15.2921,178.176,1.80176,-145.151,424
1569937990,366.229,72.1072,-15.2921,178.176,1.80176,-145.151,424
1569937990,366.229,72.1072,-15.2921,178.176,1.80176,-145.151,424
1569937990,366.229,72.1072,-15.2921,178.176,1.80176,-145.151,424
1569937990,366.229,72.1072,-15.2921,178.176,1.80176,-145.151,420
1569937990,366.229,72.1072,-15.2921,178.176,1.80176,-145.151,420
1569937990,366.229,72.1072,-15.2921,178.176,1.80176,-145.151,420
1569937990,366.229,72.1072,-15.2921,178.176,1.80176,-145.151,420
1569937990,366.229,72.1072,-15.2921,178.176,1.80176,-145.151,420
1569937990,366.229,72.1072,-15.2921,178.176,1.80176,-145.151,420
1569937990,366.229,72.1072,-15.2921,178.154,1.80176,-145.151,420
1569937990,366.229,72.1072,-15.2921,178.154,1.80176,-145.151,420
1569937990,366.229,72.1072,-15.2921,178.154,1.80176,-145.151,420
1569937990,366.229,72.1072,-15.2921,178.154,1.80176,-145.151,416
1569937990,366.229,71.9956,-15.2921,178.154,1.80176,-145.151,416
1569937990,366.229,71.9956,-15.2921,178.154,1.80176,-145.151,416
1569937990,366.229,71.9956,-15.2921,178.154,1.80176,-145.151,416
1569937990,366.229,71.9956,-15.2921,178.154,1.80176,-145.151,416
1569937990,366.229,71.9956,-15.2921,178.154,1.80176,-145.151,416
1569937990,366.229,71.9956,-15.2921,178.154,1.80176,-145.151,416
1569937990,366.229,71.9956,-15.2921,178.154,1.80176,-145.151,420
1569937990,366.229,71.9956,-15.2921,178.154,1.80176,-145.151,420
1569937990,366.229,71.9956,-15.2921,178.154,1.80176,-145.151,420
1569937990,366.229,71.9956,-15.2921,178.154,1.80176,-145.151,420
1569937990,366.229,71.9956,-15.2921,178.154,1.80176,-145.151,420
1569937990,366.117,71.9956,-15.4037,178.154,1.77979,-145.151,420
1569937990,366.117,71.9956,-15.4037,178.154,1.77979,-145.151,420
1569937990,366.117,71.9956,-15.4037,178.154,1.77979,-145.129,424
1569937990,366.117,71.9956,-15.4037,178.154,1.77979,-145.129,424
1569937990,366.117,71.9956,-15.4037,178.154,1.77979,-145.129,424
1569937990,366.117,71.9956,-15.4037,178.154,1.77979,-145.129,424
1569937990,366.117,71.9956,-15.4037,178.176,1.77979,-145.129,424
1569937990,366.117,71.9956,-15.4037,178.176,1.77979,-145.129,424
1569937990,366.117,71.9956,-15.4037,178.176,1.77979,-145.129,424
1569937990,366.117,71.9956,-15.4037,178.176,1.77979,-145.129,424
1569937990,366.117,72.1072,-15.4037,178.176,1.77979,-145.129,424
1569937990,366.117,72.1072,-15.4037,178.176,1.77979,-145.129,424
1569937990,366.117,72.1072,-15.4037,178.176,1.80176,-145.129,424
1569937990,366.117,72.1072,-15.2921,178.176,1.80176,-145.129,424
1569937990,366.117,72.1072,-15.2921,178.176,1.80176,-145.129,420
1569937990,366.117,72.1072,-15.2921,178.198,1.80176,-145.129,420
1569937990,366.117,72.1072,-15.2921,178.198,1.80176,-145.129,420
1569937990,366.117,72.1072,-15.2921,178.198,1.80176,-145.129,420
1569937990,366.117,72.1072,-15.2921,178.198,1.80176,-145.129,416
1569937990,366.229,72.1072,-15.2921,178.198,1.80176,-145.129,416
1569937990,366.229,72.1072,-15.2921,178.198,1.80176,-145.129,416
1569937990,366.229,72.1072,-15.2921,178.198,1.80176,-145.129,416
1569937990,366.229,72.1072,-15.2921,178.198,1.80176,-145.129,412
1569937990,366.229,72.1072,-15.2921,178.176,1.80176,-145.129,412
1569937990,366.229,72.1072,-15.2921,178.176,1.80176,-145.129,412
1569937990,366.229,72.1072,-15.2921,178.176,1.80176,-145.129,408
1569937990,366.229,72.1072,-15.2921,178.176,1.80176,-145.129,408
1569937990,366.229,72.1072,-15.2921,178.176,1.80176,-145.129,408
1569937990,366.229,72.1072,-15.2921,178.176,1.80176,-145.129,408
1569937990,366.229,72.1072,-15.2921,178.176,1.80176,-145.129,404
1569937990,366.229,72.1072,-15.2921,178.176,1.80176,-145.129,404
1569937990,366.229,71.9956,-15.2921,178.176,1.80176,-145.129,404
1569937990,366.229,72.1072,-15.2921,178.176,1.80176,-145.129,404
1569937990,366.229,72.1072,-15.2921,178.176,1.80176,-145.129,404
1569937990,366.229,72.1072,-15.2921,178.176,1.80176,-145.129,404
1569937990,366.229,72.1072,-15.2921,178.176,1.80176,-145.129,400
1569937990,366.229,72.1072,-15.2921,178.176,1.80176,-145.129,400
1569937990,366.229,72.1072,-15.2921,178.176,1.80176,-145.129,400
1569937990,366.229,72.1072,-15.2921,178.176,1.80176,-145.129,400
1569937990,366.229,72.1072,-15.2921,178.176,1.80176,-145.129,400
1569937990,366.229,72.1072,-15.2921,178.176,1.80176,-145.129,400
1569937990,366.229,72.1072,-15.2921,178.176,1.80176,-145.129,400
1569937990,366.229,72.1072,-15.2921,178.176,1.80176,-145.129,400
1569937990,366.229,72.1072,-15.2921,178.176,1.80176,-145.129,400
1569937990,366.229,72.1072,-15.2921,178.176,1.80176,-145.129,400
1569937990,366.229,72.1072,-15.2921,178.176,1.77979,-145.129,400
1569937990,366.229,72.1072,-15.2921,178.176,1.77979,-145.129,400
1569937990,366.229,72.1072,-15.2921,178.176,1.77979,-145.129,400
1569937990,366.229,72.1072,-15.2921,178.176,1.80176,-145.129,400
1569937990,366.229,72.1072,-15.2921,178.176,1.80176,-145.129,400
1569937990,366.229,72.1072,-15.2921,178.176,1.80176,-145.129,400
1569937990,366.229,72.1072,-15.2921,178.176,1.80176,-145.129,400
1569937990,366.229,72.1072,-15.2921,178.176,1.80176,-145.129,400
1569937990,366.229,72.1072,-15.2921,178.176,1.80176,-145.129,400
1569937990,366.229,72.1072,-15.2921,178.176,1.80176,-145.129,400
1569937990,366.229,72.1072,-15.2921,178.176,1.80176,-145.151,400
