time,x,y,z,ax,ay,az,q
1565116764,265.77,158.279,-16.7432,178.462,1.53809,-156.643,164
1565116764,265.77,158.279,-16.7432,178.462,1.53809,-156.643,164
1565116764,265.77,158.279,-16.7432,178.462,1.53809,-156.643,164
1565116764,265.77,158.279,-16.7432,178.462,1.53809,-156.643,164
1565116764,265.77,158.279,-16.7432,178.462,1.53809,-156.643,168
1565116764,265.77,158.279,-16.7432,178.462,1.53809,-156.643,168
1565116764,265.77,158.279,-16.7432,178.44,1.53809,-156.643,168
1565116764,265.77,158.279,-16.7432,178.44,1.53809,-156.643,168
1565116764,265.77,158.279,-16.7432,178.44,1.53809,-156.643,168
1565116764,265.77,158.279,-16.7432,178.44,1.53809,-156.643,168
1565116764,265.77,158.279,-16.7432,178.44,1.53809,-156.643,168
1565116764,265.77,158.279,-16.7432,178.44,1.53809,-156.643,168
1565116764,265.77,158.279,-16.7432,178.44,1.53809,-156.643,168
1565116764,265.77,158.279,-16.7432,178.44,1.53809,-156.643,168
1565116764,265.77,158.279,-16.7432,178.44,1.53809,-156.643,168
1565116764,265.77,158.279,-16.7432,178.44,1.53809,-156.643,168
1565116764,265.77,158.279,-16.7432,178.44,1.53809,-156.643,168
1565116764,265.77,158.279,-16.7432,178.44,1.53809,-156.643,168
1565116764,265.77,158.279,-16.7432,178.44,1.53809,-156.621,164
1565116764,265.77,158.279,-16.7432,178.44,1.53809,-156.621,164
1565116764,265.77,158.279,-16.7432,178.44,1.53809,-156.621,164
1565116764,265.77,158.279,-16.7432,178.44,1.53809,-156.621,164
1565116764,265.77,158.279,-16.7432,178.44,1.53809,-156.621,164
1565116764,265.77,158.279,-16.7432,178.462,1.53809,-156.621,164
1565116764,265.77,158.279,-16.7432,178.462,1.53809,-156.621,164
1565116764,265.77,158.279,-16.7432,178.462,1.53809,-156.621,164
1565116764,265.77,158.279,-16.7432,178.462,1.53809,-156.621,164
1565116764,265.77,158.279,-16.7432,178.462,1.53809,-156.643,164
1565116764,265.77,158.279,-16.7432,178.462,1.53809,-156.643,164
1565116764,265.77,158.279,-16.7432,178.462,1.53809,-156.643,164
1565116764,265.77,158.279,-16.7432,178.462,1.53809,-156.643,164
1565116764,265.77,158.279,-16.7432,178.462,1.53809,-156.643,160
1565116764,265.77,158.279,-16.7432,178.462,1.53809,-156.643,160
1565116764,265.77,158.279,-16.7432,178.462,1.53809,-156.643,160
1565116764,265.77,158.279,-16.7432,178.462,1.53809,-156.643,160
1565116764,265.77,158.279,-16.7432,178.462,1.53809,-156.643,160
1565116764,265.77,158.279,-16.7432,178.462,1.53809,-156.643,160
1565116764,265.77,158.279,-16.7432,178.462,1.53809,-156.643,160
1565116764,265.77,158.279,-16.7432,178.462,1.53809,-156.643,160
1565116764,265.77,158.279,-16.7432,178.462,1.56006,-156.643,160
1565116764,265.77,158.279,-16.7432,178.462,1.56006,-156.643,160
1565116764,265.77,158.279,-16.7432,178.462,1.56006,-156.643,160
1565116764,265.77,158.279,-16.7432,178.462,1.56006,-156.643,160
1565116764,265.77,158.279,-16.7432,178.462,1.56006,-156.643,160
1565116765,265.77,158.279,-16.7432,178.462,1.56006,-156.643,160
1565116765,265.77,158.279,-16.7432,178.462,1.56006,-156.643,160
1565116765,265.77,158.279,-16.7432,178.462,1.56006,-156.643,160
1565116765,265.77,158.279,-16.7432,178.462,1.56006,-156.643,160
1565116765,265.77,158.279,-16.7432,178.462,1.56006,-156.643,160
1565116765,265.77,158.279,-16.7432,178.462,1.56006,-156.643,160
1565116765,265.77,158.279,-16.7432,178.462,1.53809,-156.643,160
1565116765,265.77,158.279,-16.7432,178.462,1.53809,-156.643,160
1565116765,265.77,158.279,-16.7432,178.462,1.53809,-156.643,160
1565116765,265.77,158.279,-16.7432,178.462,1.53809,-156.643,160
1565116765,265.77,158.279,-16.7432,178.462,1.53809,-156.643,160
1565116765,265.77,158.279,-16.7432,178.462,1.53809,-156.643,160
1565116765,265.77,158.279,-16.7432,178.462,1.53809,-156.643,160
1565116765,265.77,158.279,-16.7432,178.462,1.53809,-156.643,160
1565116765,265.77,158.279,-16.7432,178.462,1.53809,-156.643,160
1565116765,265.77,158.279,-16.7432,178.462,1.53809,-156.643,160
1565116765,265.77,158.279,-16.7432,178.462,1.53809,-156.643,160
1565116765,265.77,158.279,-16.7432,178.462,1.53809,-156.643,160
1565116765,265.77,158.279,-16.7432,178.462,1.53809,-156.643,160
1565116765,265.77,158.279,-16.7432,178.462,1.53809,-156.643,164
1565116765,265.77,158.279,-16.7432,178.462,1.53809,-156.643,164
1565116765,265.77,158.279,-16.7432,178.462,1.56006,-156.643,164
1565116765,265.77,158.279,-16.7432,178.462,1.56006,-156.643,164
1565116765,265.77,158.279,-16.7432,178.462,1.56006,-156.643,164
1565116765,265.77,158.279,-16.7432,178.462,1.56006,-156.643,164
1565116765,265.77,158.279,-16.7432,178.462,1.56006,-156.643,164
1565116765,265.77,158.279,-16.7432,178.462,1.56006,-156.643,164
1565116765,265.77,158.279,-16.7432,178.462,1.56006,-156.643,164
1565116765,265.77,158.279,-16.7432,178.462,1.56006,-156.643,164
1565116765,265.77,158.279,-16.7432,178.462,1.56006,-156.643,164
1565116765,265.77,158.279,-16.7432,178.462,1.56006,-156.643,164
1565116765,265.77,158.279,-16.7432,178.462,1.56006,-156.643,164
1565116765,265.77,158.279,-16.7432,178.462,1.56006,-156.643,164
1565116765,265.77,158.279,-16.7432,178.462,1.56006,-156.643,164
1565116765,265.77,158.279,-16.7432,178.462,1.56006,-156.643,164
1565116765,265.77,158.279,-16.7432,178.462,1.56006,-156.643,164
1565116765,265.77,158.279,-16.7432,178.462,1.56006,-156.643,164
1565116765,265.77,158.279,-16.7432,178.462,1.56006,-156.643,164
1565116765,265.77,158.279,-16.7432,178.462,1.56006,-156.643,164
1565116765,265.77,158.167,-16.7432,178.462,1.56006,-156.643,164
1565116765,265.77,158.167,-16.7432,178.462,1.56006,-156.643,168
1565116765,265.77,158.167,-16.7432,178.462,1.56006,-156.643,168
1565116765,265.77,158.279,-16.7432,178.462,1.56006,-156.643,168
1565116765,265.77,158.279,-16.7432,178.462,1.56006,-156.643,168
1565116765,265.77,158.279,-16.7432,178.462,1.56006,-156.643,168
1565116765,265.77,158.279,-16.7432,178.462,1.56006,-156.643,168
1565116765,265.77,158.279,-16.7432,178.462,1.53809,-156.643,168
1565116765,265.77,158.279,-16.7432,178.462,1.53809,-156.643,168
1565116765,265.77,158.279,-16.7432,178.462,1.53809,-156.643,168
1565116765,265.77,158.279,-16.7432,178.462,1.53809,-156.643,168
1565116765,265.77,158.279,-16.7432,178.462,1.53809,-156.643,168
1565116765,265.77,158.279,-16.7432,178.462,1.53809,-156.643,168
1565116765,265.77,158.279,-16.7432,178.462,1.53809,-156.643,168
1565116765,265.77,158.279,-16.7432,178.462,1.53809,-156.643,168
1565116765,265.77,158.279,-16.7432,178.462,1.53809,-156.643,168
1565116765,265.77,158.279,-16.7432,178.462,1.53809,-156.643,168
1565116765,265.77,158.279,-16.7432,178.462,1.53809,-156.643,168
1565116765,265.77,158.279,-16.7432,178.462,1.53809,-156.643,168
1565116765,265.77,158.279,-16.7432,178.462,1.53809,-156.643,168
1565116765,265.77,158.279,-16.7432,178.462,1.53809,-156.643,168
1565116765,265.77,158.279,-16.7432,178.44,1.53809,-156.643,168
1565116765,265.77,158.279,-16.7432,178.44,1.53809,-156.643,168
1565116765,265.77,158.279,-16.7432,178.44,1.53809,-156.643,168
1565116765,265.77,158.279,-16.7432,178.44,1.53809,-156.643,168
1565116765,265.77,158.279,-16.7432,178.44,1.53809,-156.643,168
1565116765,265.77,158.279,-16.7432,178.44,1.56006,-156.643,168
1565116765,265.77,158.279,-16.7432,178.44,1.56006,-156.643,168
1565116765,265.77,158.279,-16.7432,178.44,1.56006,-156.643,168
1565116765,265.77,158.279,-16.7432,178.44,1.56006,-156.643,168
1565116765,265.77,158.279,-16.7432,178.44,1.56006,-156.643,168
1565116765,265.77,158.279,-16.7432,178.44,1.56006,-156.643,168
1565116765,265.77,158.279,-16.7432,178.44,1.56006,-156.643,168
1565116765,265.77,158.279,-16.7432,178.44,1.56006,-156.643,168
1565116765,265.77,158.279,-16.7432,178.44,1.56006,-156.643,168
1565116765,265.77,158.279,-16.7432,178.44,1.56006,-156.665,164
1565116765,265.77,158.167,-16.7432,178.44,1.56006,-156.665,164
1565116765,265.77,158.167,-16.7432,178.44,1.56006,-156.665,164
1565116765,265.77,158.167,-16.7432,178.44,1.56006,-156.665,164
1565116765,265.77,158.167,-16.7432,178.44,1.56006,-156.665,164
1565116765,265.77,158.167,-16.7432,178.44,1.56006,-156.665,164
1565116765,265.77,158.167,-16.7432,178.44,1.56006,-156.665,164
1565116765,265.77,158.167,-16.7432,178.44,1.56006,-156.665,164
1565116765,265.77,158.167,-16.7432,178.44,1.56006,-156.665,164
1565116765,265.77,158.167,-16.7432,178.44,1.56006,-156.665,164
1565116765,265.77,158.167,-16.7432,178.44,1.56006,-156.665,164
1565116765,265.77,158.167,-16.7432,178.44,1.56006,-156.665,164
1565116765,265.77,158.167,-16.7432,178.44,1.56006,-156.665,164
1565116765,265.77,158.167,-16.7432,178.44,1.56006,-156.665,164
1565116765,265.77,158.167,-16.7432,178.44,1.56006,-156.665,164
1565116765,265.77,158.279,-16.7432,178.44,1.56006,-156.665,164
1565116765,265.77,158.279,-16.7432,178.44,1.56006,-156.665,164
1565116765,265.77,158.279,-16.7432,178.462,1.56006,-156.665,164
1565116765,265.77,158.279,-16.7432,178.462,1.56006,-156.665,164
1565116765,265.77,158.279,-16.7432,178.462,1.56006,-156.665,164
1565116765,265.77,158.279,-16.7432,178.462,1.56006,-156.665,164
1565116765,265.77,158.279,-16.7432,178.462,1.56006,-156.665,168
1565116765,265.77,158.279,-16.7432,178.462,1.56006,-156.665,168
1565116765,265.77,158.279,-16.7432,178.462,1.56006,-156.665,168
1565116765,265.77,158.279,-16.7432,178.462,1.56006,-156.665,168
1565116765,265.77,158.279,-16.7432,178.44,1.56006,-156.665,168
1565116766,265.77,158.279,-16.7432,178.44,1.56006,-156.665,168
1565116766,265.77,158.279,-16.7432,178.44,1.56006,-156.665,168
1565116766,265.77,158.279,-16.7432,178.44,1.56006,-156.665,168
1565116766,265.77,158.279,-16.7432,178.44,1.56006,-156.665,168
1565116766,265.77,158.279,-16.7432,178.44,1.56006,-156.643,168
1565116766,265.77,158.279,-16.7432,178.44,1.56006,-156.643,164
1565116766,265.77,158.279,-16.7432,178.44,1.56006,-156.643,164
1565116766,265.77,158.279,-16.7432,178.462,1.56006,-156.643,164
1565116766,265.77,158.279,-16.7432,178.462,1.56006,-156.643,164
1565116766,265.77,158.279,-16.7432,178.462,1.56006,-156.643,164
1565116766,265.77,158.279,-16.7432,178.462,1.56006,-156.643,164
1565116766,265.77,158.279,-16.7432,178.462,1.56006,-156.643,164
1565116766,265.77,158.279,-16.7432,178.462,1.56006,-156.643,164
1565116766,265.77,158.279,-16.7432,178.462,1.56006,-156.665,164
1565116766,265.77,158.279,-16.7432,178.462,1.56006,-156.665,164
1565116766,265.77,158.279,-16.7432,178.462,1.56006,-156.665,164
1565116766,265.77,158.279,-16.7432,178.462,1.56006,-156.665,164
1565116766,265.77,158.279,-16.7432,178.462,1.56006,-156.665,164
1565116766,265.77,158.279,-16.7432,178.462,1.56006,-156.665,164
1565116766,265.77,158.279,-16.6315,178.462,1.56006,-156.665,164
1565116766,265.77,158.279,-16.6315,178.462,1.56006,-156.665,164
1565116766,265.77,158.279,-16.6315,178.462,1.56006,-156.665,164
1565116766,265.77,158.279,-16.6315,178.462,1.56006,-156.665,168
1565116766,265.77,158.279,-16.6315,178.462,1.56006,-156.665,168
1565116766,265.77,158.279,-16.6315,178.462,1.56006,-156.665,168
1565116766,265.77,158.279,-16.7432,178.462,1.56006,-156.665,168
1565116766,265.77,158.279,-16.7432,178.462,1.56006,-156.665,168
1565116766,265.77,158.279,-16.7432,178.462,1.56006,-156.665,168
1565116766,265.77,158.279,-16.7432,178.462,1.56006,-156.665,168
1565116766,265.77,158.279,-16.7432,178.462,1.56006,-156.665,168
1565116766,265.77,158.279,-16.7432,178.462,1.56006,-156.665,168
1565116766,265.77,158.279,-16.7432,178.462,1.56006,-156.665,164
1565116766,265.77,158.279,-16.7432,178.462,1.56006,-156.665,164
1565116766,265.77,158.279,-16.7432,178.462,1.56006,-156.665,164
1565116766,265.77,158.279,-16.7432,178.462,1.56006,-156.665,164
1565116766,265.77,158.279,-16.7432,178.462,1.56006,-156.643,164
1565116766,265.77,158.279,-16.7432,178.462,1.56006,-156.643,164
1565116766,265.77,158.279,-16.7432,178.462,1.56006,-156.643,164
1565116766,265.77,158.279,-16.7432,178.462,1.56006,-156.643,164
1565116766,265.77,158.279,-16.7432,178.462,1.56006,-156.643,164
1565116766,265.77,158.279,-16.7432,178.462,1.56006,-156.643,164
1565116766,265.77,158.279,-16.7432,178.462,1.56006,-156.643,164
1565116766,265.77,158.279,-16.7432,178.462,1.56006,-156.643,164
1565116766,265.77,158.279,-16.7432,178.462,1.56006,-156.643,164
1565116766,265.77,158.279,-16.7432,178.462,1.56006,-156.665,164
1565116766,265.77,158.279,-16.7432,178.462,1.56006,-156.665,164
1565116766,265.77,158.279,-16.7432,178.462,1.56006,-156.665,164
1565116766,265.77,158.279,-16.7432,178.462,1.56006,-156.665,164
1565116766,265.77,158.279,-16.7432,178.462,1.56006,-156.665,164
1565116766,265.77,158.279,-16.7432,178.462,1.56006,-156.665,164
1565116766,265.77,158.279,-16.7432,178.462,1.56006,-156.665,164
1565116766,265.77,158.279,-16.7432,178.462,1.56006,-156.665,164
1565116766,265.77,158.279,-16.7432,178.462,1.56006,-156.665,164
1565116766,265.77,158.279,-16.7432,178.462,1.56006,-156.665,164
1565116766,265.77,158.279,-16.7432,178.462,1.56006,-156.665,164
1565116766,265.77,158.279,-16.7432,178.462,1.56006,-156.665,164
1565116766,265.77,158.279,-16.7432,178.462,1.56006,-156.665,168
1565116766,265.77,158.279,-16.7432,178.484,1.56006,-156.665,168
1565116766,265.77,158.279,-16.7432,178.484,1.56006,-156.665,168
1565116766,265.77,158.279,-16.7432,178.484,1.56006,-156.665,168
1565116766,265.77,158.279,-16.7432,178.484,1.56006,-156.665,168
1565116766,265.77,158.279,-16.7432,178.484,1.56006,-156.665,168
1565116766,265.77,158.279,-16.7432,178.484,1.56006,-156.665,168
1565116766,265.77,158.279,-16.7432,178.484,1.56006,-156.665,168
1565116766,265.77,158.279,-16.7432,178.484,1.56006,-156.665,164
1565116766,265.77,158.279,-16.7432,178.462,1.56006,-156.665,164
1565116766,265.77,158.279,-16.7432,178.462,1.56006,-156.665,164
1565116766,265.77,158.279,-16.7432,178.462,1.56006,-156.665,164
1565116766,265.77,158.279,-16.7432,178.462,1.56006,-156.665,164
1565116766,265.77,158.279,-16.7432,178.462,1.56006,-156.665,164
1565116766,265.77,158.279,-16.7432,178.462,1.56006,-156.665,164
1565116766,265.77,158.279,-16.7432,178.462,1.56006,-156.665,164
1565116766,265.77,158.279,-16.7432,178.462,1.56006,-156.665,164
1565116766,265.77,158.279,-16.7432,178.462,1.56006,-156.665,164
1565116766,265.77,158.279,-16.7432,178.462,1.56006,-156.665,164
1565116766,265.77,158.279,-16.7432,178.462,1.53809,-156.665,164
1565116766,265.77,158.279,-16.7432,178.462,1.53809,-156.665,168
1565116766,265.77,158.279,-16.7432,178.462,1.53809,-156.665,168
1565116766,265.77,158.279,-16.7432,178.462,1.53809,-156.665,168
1565116766,265.77,158.279,-16.7432,178.462,1.53809,-156.665,168
1565116766,265.77,158.279,-16.7432,178.462,1.53809,-156.665,168
1565116766,265.77,158.279,-16.7432,178.462,1.53809,-156.665,168
1565116766,265.77,158.279,-16.7432,178.462,1.53809,-156.665,168
1565116766,265.77,158.279,-16.7432,178.462,1.53809,-156.665,168
1565116766,265.77,158.279,-16.7432,178.484,1.53809,-156.665,168
1565116766,265.77,158.279,-16.7432,178.484,1.53809,-156.665,168
1565116766,265.77,158.279,-16.7432,178.484,1.53809,-156.665,168
1565116766,265.77,158.279,-16.7432,178.484,1.53809,-156.665,168
1565116766,265.77,158.279,-16.7432,178.484,1.53809,-156.665,168
1565116766,265.77,158.279,-16.7432,178.462,1.53809,-156.665,168
1565116766,265.77,158.279,-16.7432,178.462,1.53809,-156.665,168
1565116766,265.77,158.279,-16.7432,178.462,1.53809,-156.665,172
1565116766,265.77,158.279,-16.7432,178.462,1.53809,-156.665,172
1565116766,265.77,158.279,-16.7432,178.462,1.53809,-156.665,172
1565116766,265.77,158.279,-16.7432,178.462,1.53809,-156.665,172
1565116766,265.77,158.279,-16.7432,178.462,1.53809,-156.665,172
1565116766,265.77,158.279,-16.7432,178.462,1.56006,-156.665,172
1565116766,265.77,158.279,-16.7432,178.462,1.56006,-156.665,172
1565116766,265.77,158.279,-16.7432,178.462,1.56006,-156.665,172
1565116766,265.77,158.279,-16.7432,178.462,1.56006,-156.665,172
1565116767,265.77,158.279,-16.7432,178.462,1.56006,-156.665,172
1565116767,265.77,158.279,-16.7432,178.462,1.56006,-156.665,172
1565116767,265.77,158.279,-16.7432,178.462,1.56006,-156.665,172
1565116767,265.77,158.279,-16.7432,178.462,1.56006,-156.665,172
1565116767,265.77,158.279,-16.7432,178.462,1.56006,-156.665,168
1565116767,265.77,158.279,-16.7432,178.462,1.56006,-156.665,168
1565116767,265.77,158.279,-16.7432,178.462,1.56006,-156.665,168
1565116767,265.77,158.279,-16.7432,178.462,1.56006,-156.665,168
1565116767,265.77,158.279,-16.7432,178.462,1.56006,-156.665,168
1565116767,265.77,158.279,-16.7432,178.462,1.56006,-156.665,168
1565116767,265.77,158.279,-16.7432,178.462,1.56006,-156.665,168
1565116767,265.77,158.279,-16.7432,178.462,1.56006,-156.665,168
1565116767,265.77,158.279,-16.7432,178.462,1.56006,-156.665,168
1565116767,265.77,158.279,-16.7432,178.462,1.56006,-156.665,168
1565116767,265.77,158.279,-16.7432,178.462,1.56006,-156.665,168
1565116767,265.77,158.279,-16.7432,178.462,1.56006,-156.665,168
1565116767,265.77,158.279,-16.7432,178.462,1.56006,-156.665,168
1565116767,265.77,158.279,-16.7432,178.462,1.56006,-156.665,168
1565116767,265.77,158.279,-16.7432,178.462,1.56006,-156.665,168
1565116767,265.77,158.279,-16.7432,178.462,1.56006,-156.665,168
1565116767,265.77,158.279,-16.7432,178.462,1.56006,-156.665,168
1565116767,265.77,158.279,-16.7432,178.462,1.56006,-156.665,168
1565116767,265.77,158.279,-16.7432,178.462,1.56006,-156.665,168
1565116767,265.77,158.279,-16.7432,178.462,1.56006,-156.665,168
1565116767,265.77,158.279,-16.7432,178.462,1.56006,-156.665,168
1565116767,265.77,158.279,-16.7432,178.462,1.56006,-156.665,168
1565116767,265.77,158.279,-16.7432,178.462,1.56006,-156.665,168
1565116767,265.77,158.279,-16.7432,178.462,1.56006,-156.665,168
1565116767,265.77,158.279,-16.6315,178.462,1.56006,-156.665,168
1565116767,265.77,158.279,-16.6315,178.462,1.56006,-156.665,168
1565116767,265.77,158.279,-16.6315,178.462,1.56006,-156.665,168
1565116767,265.77,158.279,-16.6315,178.462,1.56006,-156.665,168
1565116767,265.77,158.279,-16.6315,178.462,1.56006,-156.665,168
1565116767,265.77,158.279,-16.6315,178.462,1.56006,-156.665,164
1565116767,265.77,158.279,-16.6315,178.462,1.56006,-156.665,164
1565116767,265.77,158.279,-16.6315,178.462,1.56006,-156.665,164
1565116767,265.77,158.279,-16.6315,178.462,1.56006,-156.665,164
1565116767,265.77,158.279,-16.6315,178.462,1.56006,-156.665,164
1565116767,265.77,158.279,-16.7432,178.462,1.56006,-156.665,164
1565116767,265.77,158.279,-16.7432,178.462,1.56006,-156.665,164
1565116767,265.77,158.279,-16.7432,178.462,1.56006,-156.665,164
1565116767,265.77,158.279,-16.7432,178.462,1.56006,-156.665,164
1565116767,265.77,158.279,-16.7432,178.462,1.56006,-156.665,164
1565116767,265.77,158.279,-16.7432,178.462,1.56006,-156.665,164
1565116767,265.77,158.279,-16.7432,178.462,1.56006,-156.643,164
1565116767,265.77,158.279,-16.7432,178.462,1.53809,-156.643,164
1565116767,265.77,158.279,-16.7432,178.462,1.53809,-156.643,164
1565116767,265.77,158.279,-16.7432,178.462,1.53809,-156.643,164
1565116767,265.77,158.279,-16.7432,178.462,1.53809,-156.643,164
1565116767,265.77,158.279,-16.7432,178.462,1.53809,-156.643,164
1565116767,265.77,158.279,-16.7432,178.462,1.53809,-156.643,164
1565116767,265.77,158.279,-16.7432,178.462,1.53809,-156.643,164
1565116767,265.77,158.279,-16.7432,178.462,1.53809,-156.643,164
1565116767,265.77,158.279,-16.7432,178.462,1.53809,-156.643,164
1565116767,265.77,158.279,-16.7432,178.462,1.56006,-156.643,164
1565116767,265.77,158.279,-16.7432,178.462,1.56006,-156.643,164
1565116767,265.77,158.279,-16.7432,178.462,1.56006,-156.643,164
1565116767,265.77,158.279,-16.7432,178.44,1.56006,-156.643,164
1565116767,265.77,158.279,-16.7432,178.44,1.56006,-156.643,164
1565116767,265.77,158.279,-16.7432,178.44,1.56006,-156.643,164
1565116767,265.77,158.279,-16.7432,178.44,1.56006,-156.643,164
1565116767,265.77,158.279,-16.7432,178.44,1.56006,-156.643,164
1565116767,265.77,158.279,-16.7432,178.44,1.56006,-156.643,164
1565116767,265.77,158.279,-16.7432,178.44,1.56006,-156.643,164
1565116767,265.77,158.279,-16.7432,178.44,1.56006,-156.643,164
1565116767,265.77,158.279,-16.7432,178.44,1.56006,-156.643,164
1565116767,265.77,158.279,-16.7432,178.44,1.56006,-156.643,164
1565116767,265.77,158.279,-16.7432,178.44,1.56006,-156.643,164
1565116767,265.77,158.279,-16.7432,178.44,1.56006,-156.643,164
1565116767,265.77,158.279,-16.7432,178.44,1.56006,-156.643,164
1565116767,265.77,158.279,-16.7432,178.44,1.56006,-156.643,164
1565116767,265.77,158.167,-16.7432,178.44,1.56006,-156.643,164
1565116767,265.77,158.167,-16.7432,178.44,1.56006,-156.643,164
1565116767,265.77,158.167,-16.7432,178.44,1.56006,-156.643,164
1565116767,265.77,158.167,-16.7432,178.44,1.56006,-156.643,160
1565116767,265.77,158.167,-16.7432,178.44,1.56006,-156.643,160
1565116767,265.77,158.167,-16.7432,178.44,1.56006,-156.643,160
1565116767,265.77,158.279,-16.7432,178.44,1.56006,-156.643,160
1565116767,265.77,158.279,-16.7432,178.44,1.56006,-156.643,160
1565116767,265.77,158.279,-16.7432,178.44,1.56006,-156.643,160
1565116767,265.77,158.279,-16.7432,178.44,1.56006,-156.643,160
1565116767,265.77,158.279,-16.7432,178.44,1.56006,-156.643,160
1565116767,265.77,158.279,-16.7432,178.44,1.56006,-156.643,160
1565116767,265.77,158.279,-16.7432,178.44,1.56006,-156.643,160
1565116767,265.77,158.279,-16.7432,178.44,1.56006,-156.643,160
1565116767,265.77,158.279,-16.7432,178.44,1.56006,-156.643,160
1565116767,265.77,158.279,-16.7432,178.44,1.56006,-156.643,160
1565116767,265.77,158.279,-16.7432,178.44,1.56006,-156.643,160
1565116767,265.77,158.279,-16.7432,178.44,1.56006,-156.643,160
1565116767,265.77,158.279,-16.7432,178.44,1.56006,-156.643,160
1565116767,265.77,158.279,-16.7432,178.44,1.56006,-156.643,160
1565116767,265.77,158.279,-16.7432,178.462,1.56006,-156.643,160
1565116767,265.77,158.279,-16.7432,178.462,1.53809,-156.643,160
1565116767,265.77,158.279,-16.7432,178.462,1.53809,-156.643,160
1565116767,265.77,158.279,-16.7432,178.462,1.53809,-156.643,160
1565116767,265.77,158.279,-16.7432,178.462,1.53809,-156.643,160
1565116767,265.77,158.279,-16.7432,178.462,1.56006,-156.643,160
1565116767,265.77,158.279,-16.7432,178.462,1.56006,-156.643,160
1565116767,265.77,158.279,-16.7432,178.462,1.56006,-156.665,160
1565116767,265.77,158.279,-16.7432,178.462,1.56006,-156.665,160
1565116768,265.77,158.279,-16.7432,178.462,1.56006,-156.665,160
1565116768,265.77,158.279,-16.7432,178.462,1.56006,-156.665,160
1565116768,265.77,158.279,-16.7432,178.462,1.56006,-156.665,160
1565116768,265.77,158.279,-16.7432,178.462,1.56006,-156.665,160
1565116768,265.77,158.279,-16.7432,178.462,1.56006,-156.665,160
1565116768,265.77,158.279,-16.7432,178.462,1.56006,-156.665,160
1565116768,265.77,158.279,-16.7432,178.462,1.56006,-156.665,160
1565116768,265.77,158.279,-16.7432,178.462,1.56006,-156.665,164
1565116768,265.77,158.279,-16.7432,178.462,1.56006,-156.665,164
1565116768,265.77,158.279,-16.7432,178.462,1.56006,-156.665,164
1565116768,265.77,158.279,-16.7432,178.462,1.56006,-156.665,164
1565116768,265.77,158.279,-16.7432,178.462,1.56006,-156.665,164
1565116768,265.77,158.279,-16.7432,178.462,1.56006,-156.665,164
1565116768,265.77,158.279,-16.6315,178.462,1.56006,-156.665,164
1565116768,265.77,158.279,-16.6315,178.462,1.56006,-156.665,164
1565116768,265.77,158.279,-16.6315,178.462,1.56006,-156.665,164
1565116768,265.77,158.279,-16.6315,178.462,1.58203,-156.665,164
1565116768,265.77,158.279,-16.6315,178.462,1.58203,-156.665,164
1565116768,265.77,158.279,-16.6315,178.462,1.58203,-156.665,164
1565116768,265.77,158.279,-16.6315,178.462,1.58203,-156.665,164
1565116768,265.77,158.279,-16.6315,178.462,1.56006,-156.665,164
1565116768,265.77,158.279,-16.6315,178.462,1.56006,-156.665,164
1565116768,265.77,158.279,-16.6315,178.462,1.56006,-156.665,164
1565116768,265.77,158.279,-16.6315,178.462,1.56006,-156.665,164
1565116768,265.77,158.279,-16.6315,178.462,1.56006,-156.665,168
1565116768,265.77,158.279,-16.6315,178.462,1.56006,-156.665,168
1565116768,265.77,158.279,-16.6315,178.462,1.56006,-156.665,168
1565116768,265.77,158.279,-16.6315,178.462,1.56006,-156.665,168
1565116768,265.77,158.279,-16.6315,178.462,1.56006,-156.665,168
1565116768,265.77,158.279,-16.6315,178.462,1.56006,-156.665,168
1565116768,265.77,158.279,-16.6315,178.462,1.56006,-156.665,168
1565116768,265.77,158.279,-16.6315,178.462,1.56006,-156.665,168
1565116768,265.77,158.279,-16.6315,178.462,1.56006,-156.665,168
1565116768,265.77,158.279,-16.6315,178.462,1.56006,-156.665,168
1565116768,265.77,158.279,-16.6315,178.462,1.56006,-156.665,168
1565116768,265.77,158.279,-16.6315,178.462,1.56006,-156.665,168
1565116768,265.77,158.279,-16.7432,178.462,1.56006,-156.665,168
1565116768,265.77,158.279,-16.7432,178.462,1.56006,-156.665,168
1565116768,265.77,158.279,-16.7432,178.462,1.56006,-156.665,168
1565116768,265.77,158.279,-16.7432,178.462,1.56006,-156.665,164
1565116768,265.77,158.279,-16.7432,178.462,1.56006,-156.665,164
1565116768,265.77,158.279,-16.7432,178.462,1.56006,-156.665,164
1565116768,265.77,158.279,-16.7432,178.462,1.56006,-156.665,164
1565116768,265.77,158.279,-16.7432,178.462,1.58203,-156.665,164
1565116768,265.77,158.279,-16.7432,178.462,1.58203,-156.665,164
1565116768,265.77,158.279,-16.7432,178.462,1.58203,-156.665,164
1565116768,265.77,158.279,-16.7432,178.462,1.56006,-156.665,164
1565116768,265.77,158.279,-16.7432,178.44,1.56006,-156.665,164
1565116768,265.77,158.279,-16.7432,178.44,1.56006,-156.665,164
1565116768,265.77,158.279,-16.7432,178.44,1.56006,-156.665,164
1565116768,265.77,158.279,-16.7432,178.44,1.56006,-156.665,164
1565116768,265.77,158.279,-16.7432,178.44,1.56006,-156.665,164
1565116768,265.77,158.279,-16.7432,178.44,1.56006,-156.643,164
1565116768,265.77,158.279,-16.7432,178.44,1.56006,-156.643,164
1565116768,265.77,158.279,-16.7432,178.44,1.56006,-156.643,164
1565116768,265.77,158.279,-16.7432,178.44,1.56006,-156.643,164
1565116768,265.77,158.279,-16.7432,178.462,1.56006,-156.643,164
1565116768,265.77,158.279,-16.7432,178.462,1.56006,-156.643,164
1565116768,265.77,158.279,-16.7432,178.462,1.56006,-156.643,164
1565116768,265.77,158.279,-16.7432,178.462,1.56006,-156.643,164
1565116768,265.77,158.279,-16.7432,178.462,1.56006,-156.643,164
1565116768,265.77,158.279,-16.7432,178.462,1.56006,-156.643,164
1565116768,265.77,158.279,-16.7432,178.44,1.56006,-156.643,164
1565116768,265.77,158.279,-16.7432,178.44,1.56006,-156.643,168
1565116768,265.77,158.279,-16.7432,178.44,1.56006,-156.643,168
1565116768,265.77,158.279,-16.7432,178.44,1.56006,-156.643,168
1565116768,265.77,158.279,-16.7432,178.44,1.56006,-156.643,168
1565116768,265.77,158.279,-16.7432,178.44,1.56006,-156.643,168
1565116768,265.77,158.167,-16.7432,178.44,1.56006,-156.643,168
1565116768,265.77,158.167,-16.7432,178.44,1.56006,-156.643,168
1565116768,265.77,158.167,-16.7432,178.44,1.56006,-156.643,168
1565116768,265.77,158.167,-16.7432,178.44,1.56006,-156.643,168
1565116768,265.77,158.167,-16.7432,178.44,1.56006,-156.643,168
1565116768,265.77,158.167,-16.7432,178.462,1.58203,-156.643,172
1565116768,265.77,158.167,-16.6315,178.462,1.58203,-156.643,172
1565116768,265.77,158.167,-16.6315,178.462,1.58203,-156.665,172
1565116768,265.77,158.167,-16.6315,178.462,1.58203,-156.665,172
1565116768,265.77,158.167,-16.6315,178.462,1.58203,-156.665,172
1565116768,265.77,158.167,-16.6315,178.462,1.58203,-156.665,172
1565116768,265.77,158.167,-16.6315,178.462,1.58203,-156.665,172
1565116768,265.77,158.167,-16.6315,178.462,1.58203,-156.665,172
1565116768,265.77,158.167,-16.6315,178.462,1.58203,-156.665,176
1565116768,265.77,158.279,-16.6315,178.462,1.58203,-156.665,176
1565116768,265.77,158.279,-16.6315,178.462,1.58203,-156.665,176
1565116768,265.77,158.279,-16.6315,178.462,1.58203,-156.665,176
1565116768,265.77,158.279,-16.6315,178.462,1.58203,-156.665,176
1565116768,265.77,158.167,-16.6315,178.462,1.58203,-156.665,176
1565116768,265.77,158.167,-16.6315,178.462,1.58203,-156.665,176
1565116768,265.77,158.167,-16.6315,178.462,1.58203,-156.665,176
1565116768,265.77,158.167,-16.6315,178.462,1.58203,-156.665,176
1565116768,265.77,158.167,-16.6315,178.462,1.58203,-156.665,176
1565116768,265.77,158.167,-16.6315,178.462,1.58203,-156.665,176
1565116768,265.77,158.167,-16.6315,178.462,1.58203,-156.665,180
1565116768,265.77,158.167,-16.6315,178.462,1.58203,-156.665,180
1565116768,265.77,158.167,-16.6315,178.462,1.58203,-156.665,180
1565116768,265.77,158.167,-16.6315,178.44,1.58203,-156.665,180
1565116768,265.77,158.167,-16.6315,178.44,1.58203,-156.665,180
1565116768,265.77,158.167,-16.6315,178.44,1.58203,-156.665,180
1565116768,265.77,158.167,-16.6315,178.44,1.58203,-156.665,180
1565116768,265.77,158.167,-16.6315,178.44,1.58203,-156.665,180
1565116769,265.77,158.167,-16.6315,178.44,1.58203,-156.665,180
1565116769,265.77,158.167,-16.6315,178.44,1.58203,-156.665,180
1565116769,265.77,158.167,-16.6315,178.44,1.58203,-156.665,180
1565116769,265.77,158.167,-16.6315,178.44,1.58203,-156.665,180
1565116769,265.77,158.279,-16.6315,178.44,1.58203,-156.665,180
1565116769,265.77,158.279,-16.6315,178.44,1.58203,-156.665,180
1565116769,265.77,158.279,-16.6315,178.44,1.58203,-156.665,176
1565116769,265.77,158.279,-16.6315,178.44,1.56006,-156.665,176
1565116769,265.77,158.167,-16.6315,178.44,1.56006,-156.665,176
1565116769,265.77,158.167,-16.6315,178.44,1.56006,-156.665,176
1565116769,265.77,158.167,-16.6315,178.44,1.56006,-156.665,176
1565116769,265.77,158.167,-16.7432,178.44,1.56006,-156.665,176
1565116769,265.77,158.167,-16.7432,178.44,1.56006,-156.665,176
1565116769,265.77,158.167,-16.6315,178.44,1.56006,-156.665,176
1565116769,265.77,158.167,-16.6315,178.44,1.56006,-156.665,176
1565116769,265.77,158.167,-16.6315,178.44,1.56006,-156.665,172
1565116769,265.77,158.167,-16.6315,178.44,1.56006,-156.665,172
1565116769,265.77,158.167,-16.6315,178.44,1.56006,-156.665,172
1565116769,265.77,158.167,-16.6315,178.44,1.56006,-156.665,172
1565116769,265.77,158.167,-16.6315,178.44,1.56006,-156.665,172
1565116769,265.77,158.167,-16.6315,178.44,1.56006,-156.665,172
1565116769,265.77,158.167,-16.7432,178.44,1.56006,-156.665,172
1565116769,265.77,158.167,-16.7432,178.44,1.56006,-156.665,172
1565116769,265.77,158.167,-16.7432,178.44,1.56006,-156.665,172
1565116769,265.77,158.167,-16.7432,178.44,1.56006,-156.665,172
1565116769,265.77,158.167,-16.7432,178.44,1.56006,-156.665,172
1565116769,265.77,158.167,-16.7432,178.44,1.56006,-156.665,172
1565116769,265.77,158.167,-16.7432,178.44,1.56006,-156.643,172
1565116769,265.77,158.279,-16.7432,178.44,1.56006,-156.643,172
1565116769,265.77,158.279,-16.7432,178.44,1.56006,-156.643,172
1565116769,265.77,158.279,-16.7432,178.44,1.56006,-156.643,172
1565116769,265.77,158.279,-16.7432,178.462,1.56006,-156.643,172
1565116769,265.77,158.279,-16.7432,178.462,1.56006,-156.643,172
1565116769,265.77,158.279,-16.7432,178.462,1.56006,-156.643,168
1565116769,265.77,158.279,-16.7432,178.462,1.56006,-156.643,168
1565116769,265.77,158.279,-16.7432,178.462,1.56006,-156.643,168
1565116769,265.77,158.279,-16.7432,178.462,1.56006,-156.643,168
1565116769,265.77,158.279,-16.7432,178.462,1.56006,-156.643,168
1565116769,265.77,158.279,-16.7432,178.462,1.53809,-156.643,168
1565116769,265.77,158.279,-16.7432,178.462,1.53809,-156.643,168
1565116769,265.77,158.279,-16.7432,178.462,1.53809,-156.643,168
1565116769,265.77,158.279,-16.7432,178.462,1.53809,-156.643,168
1565116769,265.77,158.279,-16.7432,178.462,1.53809,-156.643,168
1565116769,265.77,158.279,-16.7432,178.462,1.56006,-156.643,168
1565116769,265.77,158.279,-16.7432,178.462,1.56006,-156.643,168
1565116769,265.77,158.279,-16.7432,178.462,1.56006,-156.643,168
1565116769,265.77,158.279,-16.7432,178.462,1.56006,-156.643,168
1565116769,265.77,158.279,-16.7432,178.462,1.56006,-156.643,168
1565116769,265.77,158.279,-16.7432,178.462,1.56006,-156.643,168
1565116769,265.77,158.279,-16.7432,178.462,1.56006,-156.643,168
1565116769,265.77,158.279,-16.7432,178.462,1.56006,-156.643,168
1565116769,265.77,158.279,-16.7432,178.462,1.56006,-156.643,168
1565116769,265.77,158.279,-16.7432,178.462,1.56006,-156.665,168
1565116769,265.77,158.279,-16.7432,178.462,1.56006,-156.665,168
1565116769,265.77,158.279,-16.7432,178.462,1.56006,-156.665,168
1565116769,265.77,158.279,-16.7432,178.462,1.56006,-156.665,168
1565116776,281.062,141.759,-16.7432,178.55,1.42822,-156.379,180
1565116776,281.062,141.759,-16.7432,178.55,1.42822,-156.379,180
1565116776,281.062,141.759,-16.7432,178.55,1.42822,-156.379,180
1565116776,281.062,141.759,-16.7432,178.55,1.42822,-156.379,180
1565116776,281.062,141.759,-16.7432,178.55,1.42822,-156.379,180
1565116776,281.062,141.759,-16.7432,178.55,1.42822,-156.379,180
1565116776,281.062,141.759,-16.7432,178.55,1.42822,-156.379,180
1565116776,281.062,141.759,-16.7432,178.55,1.42822,-156.379,180
1565116776,281.062,141.759,-16.7432,178.55,1.42822,-156.379,180
1565116776,281.062,141.759,-16.7432,178.55,1.42822,-156.379,180
1565116776,281.062,141.759,-16.7432,178.55,1.42822,-156.379,180
1565116776,281.062,141.759,-16.7432,178.55,1.42822,-156.379,180
1565116776,281.062,141.759,-16.7432,178.55,1.40625,-156.379,180
1565116776,281.062,141.759,-16.7432,178.55,1.40625,-156.379,180
1565116776,281.062,141.759,-16.7432,178.55,1.40625,-156.379,180
1565116776,281.062,141.759,-16.7432,178.55,1.40625,-156.379,180
1565116776,281.062,141.759,-16.7432,178.55,1.40625,-156.379,180
1565116776,281.062,141.759,-16.7432,178.55,1.40625,-156.379,180
1565116776,281.062,141.759,-16.7432,178.55,1.40625,-156.379,180
1565116776,281.062,141.759,-16.7432,178.55,1.40625,-156.379,180
1565116776,281.062,141.759,-16.7432,178.55,1.42822,-156.379,180
1565116776,281.062,141.759,-16.7432,178.55,1.42822,-156.379,180
1565116776,281.062,141.759,-16.7432,178.55,1.42822,-156.379,180
1565116776,281.062,141.759,-16.7432,178.55,1.42822,-156.379,180
1565116776,281.062,141.759,-16.7432,178.55,1.42822,-156.379,180
1565116776,281.062,141.87,-16.7432,178.55,1.42822,-156.379,180
1565116776,281.062,141.87,-16.7432,178.572,1.42822,-156.379,180
1565116776,281.062,141.87,-16.7432,178.572,1.42822,-156.379,180
1565116776,281.062,141.87,-16.7432,178.572,1.42822,-156.379,180
1565116776,281.062,141.87,-16.7432,178.572,1.42822,-156.379,180
1565116776,281.062,141.87,-16.7432,178.572,1.42822,-156.379,180
1565116776,281.062,141.87,-16.7432,178.572,1.42822,-156.379,180
1565116776,281.062,141.87,-16.7432,178.572,1.42822,-156.379,180
1565116776,281.062,141.87,-16.7432,178.572,1.42822,-156.379,180
1565116776,281.062,141.87,-16.7432,178.572,1.42822,-156.379,180
1565116776,281.062,141.87,-16.7432,178.572,1.42822,-156.379,180
1565116776,281.062,141.87,-16.7432,178.572,1.42822,-156.379,180
1565116776,281.062,141.87,-16.7432,178.572,1.42822,-156.379,180
1565116776,281.062,141.87,-16.7432,178.572,1.42822,-156.379,180
1565116776,281.062,141.87,-16.7432,178.572,1.42822,-156.379,180
1565116776,281.062,141.87,-16.7432,178.572,1.42822,-156.379,180
1565116776,281.062,141.87,-16.7432,178.572,1.42822,-156.379,180
1565116776,281.062,141.87,-16.7432,178.572,1.42822,-156.379,180
1565116776,281.062,141.87,-16.7432,178.572,1.42822,-156.379,180
1565116776,281.062,141.87,-16.7432,178.572,1.42822,-156.379,180
1565116776,281.062,141.87,-16.7432,178.55,1.42822,-156.379,180
1565116776,281.062,141.87,-16.7432,178.55,1.42822,-156.379,180
1565116776,281.062,141.87,-16.7432,178.572,1.42822,-156.379,180
1565116776,281.062,141.759,-16.7432,178.572,1.42822,-156.379,180
1565116776,281.062,141.759,-16.7432,178.572,1.42822,-156.379,180
1565116776,281.062,141.759,-16.7432,178.572,1.42822,-156.379,184
1565116776,281.062,141.759,-16.7432,178.572,1.42822,-156.379,184
1565116776,281.062,141.759,-16.7432,178.572,1.42822,-156.379,184
1565116776,281.062,141.759,-16.7432,178.572,1.42822,-156.379,184
1565116776,281.062,141.759,-16.7432,178.572,1.42822,-156.379,184
1565116776,281.062,141.759,-16.7432,178.572,1.42822,-156.379,184
1565116776,281.062,141.759,-16.7432,178.572,1.42822,-156.379,184
1565116776,281.062,141.759,-16.7432,178.572,1.42822,-156.379,184
1565116776,281.062,141.759,-16.7432,178.572,1.42822,-156.379,184
1565116776,281.062,141.759,-16.7432,178.572,1.42822,-156.379,188
1565116776,281.062,141.759,-16.7432,178.572,1.42822,-156.379,188
1565116776,281.062,141.759,-16.7432,178.572,1.42822,-156.379,188
1565116776,281.062,141.759,-16.7432,178.572,1.42822,-156.379,188
1565116777,281.062,141.759,-16.7432,178.572,1.42822,-156.379,188
1565116777,281.062,141.759,-16.7432,178.572,1.42822,-156.379,188
1565116777,281.062,141.759,-16.7432,178.572,1.42822,-156.379,188
1565116777,281.062,141.759,-16.7432,178.572,1.42822,-156.379,188
1565116777,281.062,141.759,-16.7432,178.55,1.42822,-156.379,188
1565116777,281.062,141.759,-16.7432,178.55,1.42822,-156.379,188
1565116777,281.062,141.759,-16.7432,178.55,1.42822,-156.379,188
1565116777,281.062,141.759,-16.7432,178.55,1.42822,-156.379,188
1565116777,281.062,141.759,-16.7432,178.55,1.42822,-156.379,188
1565116777,281.174,141.759,-16.7432,178.55,1.42822,-156.379,188
1565116777,281.174,141.759,-16.7432,178.55,1.40625,-156.379,188
1565116777,281.174,141.759,-16.7432,178.55,1.40625,-156.379,188
1565116777,281.174,141.759,-16.7432,178.55,1.40625,-156.379,184
1565116777,281.174,141.759,-16.7432,178.55,1.40625,-156.379,184
1565116777,281.174,141.759,-16.7432,178.55,1.40625,-156.379,184
1565116777,281.174,141.759,-16.7432,178.55,1.42822,-156.379,184
1565116777,281.174,141.759,-16.7432,178.55,1.42822,-156.379,184
1565116777,281.174,141.759,-16.7432,178.55,1.42822,-156.379,184
1565116777,281.174,141.759,-16.7432,178.55,1.42822,-156.379,184
1565116777,281.174,141.87,-16.7432,178.55,1.42822,-156.379,184
1565116777,281.174,141.87,-16.7432,178.55,1.42822,-156.379,180
1565116777,281.174,141.87,-16.7432,178.55,1.42822,-156.379,180
1565116777,281.062,141.759,-16.7432,178.55,1.42822,-156.379,180
1565116777,281.062,141.759,-16.7432,178.55,1.42822,-156.379,180
1565116777,281.062,141.759,-16.7432,178.55,1.42822,-156.379,180
1565116777,281.062,141.759,-16.7432,178.55,1.42822,-156.379,180
1565116777,281.062,141.759,-16.7432,178.55,1.42822,-156.379,180
1565116777,281.062,141.759,-16.7432,178.55,1.42822,-156.379,180
1565116777,281.062,141.759,-16.7432,178.55,1.42822,-156.379,180
1565116777,281.062,141.759,-16.7432,178.55,1.42822,-156.379,180
1565116777,281.174,141.759,-16.7432,178.55,1.42822,-156.379,184
1565116777,281.174,141.759,-16.7432,178.55,1.42822,-156.379,184
1565116777,281.174,141.759,-16.7432,178.55,1.42822,-156.379,184
1565116777,281.174,141.759,-16.7432,178.55,1.42822,-156.379,184
1565116777,281.174,141.759,-16.7432,178.55,1.42822,-156.379,184
1565116777,281.174,141.759,-16.7432,178.55,1.42822,-156.379,184
1565116777,281.174,141.759,-16.7432,178.55,1.42822,-156.379,184
1565116777,281.174,141.759,-16.7432,178.55,1.42822,-156.379,184
1565116777,281.174,141.759,-16.7432,178.55,1.42822,-156.379,184
1565116777,281.174,141.759,-16.7432,178.55,1.42822,-156.379,184
1565116777,281.062,141.759,-16.7432,178.55,1.42822,-156.379,184
1565116777,281.062,141.759,-16.7432,178.55,1.42822,-156.379,184
1565116777,281.062,141.759,-16.7432,178.55,1.42822,-156.357,184
1565116777,281.062,141.759,-16.7432,178.55,1.42822,-156.357,184
1565116777,281.062,141.759,-16.7432,178.55,1.42822,-156.357,184
1565116777,281.062,141.759,-16.7432,178.55,1.42822,-156.357,184
1565116777,281.062,141.759,-16.7432,178.55,1.42822,-156.357,184
1565116777,281.062,141.759,-16.7432,178.55,1.42822,-156.357,184
1565116777,281.062,141.759,-16.7432,178.55,1.42822,-156.379,184
1565116777,281.062,141.759,-16.7432,178.55,1.42822,-156.379,184
1565116777,281.062,141.759,-16.7432,178.55,1.42822,-156.379,184
1565116777,281.062,141.759,-16.7432,178.55,1.42822,-156.379,184
1565116777,281.062,141.759,-16.7432,178.55,1.42822,-156.379,184
1565116777,281.062,141.759,-16.7432,178.55,1.42822,-156.379,184
1565116777,281.062,141.759,-16.7432,178.55,1.42822,-156.379,184
1565116777,281.062,141.759,-16.7432,178.55,1.42822,-156.379,184
1565116777,281.062,141.759,-16.7432,178.55,1.42822,-156.379,184
1565116777,281.062,141.759,-16.7432,178.55,1.42822,-156.379,184
1565116777,281.062,141.759,-16.7432,178.55,1.42822,-156.379,184
1565116777,281.062,141.759,-16.7432,178.55,1.42822,-156.379,184
1565116777,281.062,141.759,-16.7432,178.55,1.42822,-156.379,184
1565116777,281.062,141.759,-16.7432,178.55,1.42822,-156.379,184
1565116777,281.062,141.759,-16.7432,178.55,1.42822,-156.379,184
1565116777,281.062,141.759,-16.7432,178.55,1.42822,-156.379,184
1565116777,281.174,141.759,-16.7432,178.55,1.42822,-156.379,184
1565116777,281.174,141.759,-16.7432,178.55,1.42822,-156.357,184
1565116777,281.174,141.759,-16.7432,178.55,1.42822,-156.357,184
1565116777,281.174,141.759,-16.7432,178.55,1.42822,-156.357,184
1565116777,281.174,141.759,-16.7432,178.55,1.42822,-156.357,184
1565116777,281.174,141.759,-16.7432,178.55,1.42822,-156.357,184
1565116777,281.174,141.759,-16.7432,178.55,1.42822,-156.357,184
1565116777,281.174,141.759,-16.7432,178.55,1.42822,-156.357,184
1565116777,281.174,141.759,-16.7432,178.55,1.42822,-156.357,184
1565116777,281.174,141.759,-16.7432,178.528,1.42822,-156.357,184
1565116777,281.174,141.759,-16.7432,178.528,1.42822,-156.357,184
1565116777,281.174,141.759,-16.7432,178.528,1.42822,-156.379,180
1565116777,281.174,141.759,-16.7432,178.528,1.42822,-156.379,180
1565116777,281.174,141.759,-16.7432,178.528,1.42822,-156.379,180
1565116777,281.174,141.759,-16.7432,178.528,1.42822,-156.379,180
1565116777,281.174,141.759,-16.7432,178.528,1.42822,-156.379,180
1565116777,281.174,141.759,-16.7432,178.528,1.42822,-156.379,180
1565116777,281.174,141.759,-16.7432,178.528,1.42822,-156.379,180
1565116777,281.174,141.759,-16.7432,178.528,1.42822,-156.379,180
1565116777,281.174,141.759,-16.7432,178.528,1.42822,-156.379,180
1565116777,281.174,141.759,-16.7432,178.528,1.42822,-156.379,180
1565116777,281.174,141.759,-16.7432,178.528,1.42822,-156.379,180
1565116777,281.174,141.759,-16.7432,178.528,1.42822,-156.379,180
1565116777,281.174,141.759,-16.7432,178.55,1.42822,-156.379,180
1565116777,281.174,141.759,-16.7432,178.528,1.42822,-156.379,180
1565116777,281.174,141.759,-16.7432,178.528,1.42822,-156.379,180
1565116777,281.174,141.759,-16.7432,178.528,1.42822,-156.379,180
1565116777,281.174,141.759,-16.7432,178.528,1.42822,-156.379,180
1565116777,281.174,141.759,-16.7432,178.528,1.42822,-156.379,180
1565116777,281.174,141.759,-16.7432,178.528,1.42822,-156.379,180
1565116777,281.174,141.759,-16.7432,178.528,1.42822,-156.379,180
1565116777,281.174,141.759,-16.7432,178.528,1.42822,-156.379,180
1565116777,281.174,141.759,-16.7432,178.528,1.42822,-156.379,180
1565116777,281.174,141.759,-16.7432,178.528,1.42822,-156.379,180
1565116777,281.174,141.759,-16.7432,178.528,1.42822,-156.379,180
1565116777,281.174,141.759,-16.7432,178.528,1.42822,-156.379,180
1565116778,281.174,141.759,-16.7432,178.528,1.42822,-156.379,180
1565116778,281.174,141.759,-16.7432,178.528,1.42822,-156.379,180
1565116778,281.174,141.759,-16.7432,178.55,1.42822,-156.379,180
1565116778,281.174,141.759,-16.7432,178.55,1.42822,-156.379,180
1565116778,281.174,141.759,-16.7432,178.55,1.42822,-156.379,180
1565116778,281.174,141.759,-16.7432,178.55,1.42822,-156.379,180
1565116778,281.174,141.759,-16.7432,178.55,1.42822,-156.379,180
1565116778,281.174,141.759,-16.7432,178.55,1.42822,-156.379,180
1565116778,281.174,141.759,-16.7432,178.55,1.42822,-156.379,180
1565116778,281.174,141.759,-16.7432,178.55,1.42822,-156.379,180
1565116778,281.174,141.759,-16.7432,178.55,1.42822,-156.379,180
1565116778,281.174,141.759,-16.7432,178.55,1.42822,-156.379,180
1565116778,281.174,141.759,-16.7432,178.55,1.42822,-156.379,180
1565116778,281.174,141.759,-16.7432,178.55,1.42822,-156.379,180
1565116778,281.174,141.759,-16.7432,178.55,1.42822,-156.379,180
1565116778,281.174,141.759,-16.7432,178.55,1.42822,-156.379,180
1565116778,281.174,141.759,-16.7432,178.55,1.42822,-156.379,180
1565116778,281.174,141.759,-16.7432,178.55,1.42822,-156.379,180
1565116778,281.174,141.759,-16.7432,178.55,1.42822,-156.379,180
1565116778,281.062,141.759,-16.7432,178.55,1.42822,-156.379,180
1565116778,281.062,141.759,-16.7432,178.55,1.42822,-156.379,180
1565116778,281.062,141.759,-16.7432,178.55,1.42822,-156.379,180
1565116778,281.062,141.759,-16.7432,178.55,1.42822,-156.379,180
1565116778,281.062,141.759,-16.7432,178.55,1.42822,-156.379,180
1565116778,281.062,141.759,-16.7432,178.572,1.42822,-156.379,180
1565116778,281.062,141.759,-16.7432,178.572,1.42822,-156.379,180
1565116778,281.062,141.759,-16.7432,178.572,1.42822,-156.379,180
1565116778,281.062,141.87,-16.7432,178.572,1.42822,-156.379,180
1565116778,281.062,141.87,-16.7432,178.572,1.42822,-156.379,180
1565116778,281.062,141.87,-16.7432,178.572,1.42822,-156.379,180
1565116778,281.062,141.87,-16.7432,178.572,1.42822,-156.379,184
1565116778,281.062,141.87,-16.7432,178.572,1.42822,-156.379,184
1565116778,281.062,141.87,-16.7432,178.572,1.42822,-156.379,184
1565116778,281.062,141.87,-16.7432,178.572,1.42822,-156.379,184
1565116778,281.062,141.87,-16.7432,178.572,1.42822,-156.379,184
1565116778,281.062,141.87,-16.7432,178.572,1.42822,-156.379,184
1565116778,281.062,141.87,-16.7432,178.572,1.42822,-156.379,184
1565116778,281.062,141.87,-16.7432,178.572,1.42822,-156.379,184
1565116778,281.062,141.87,-16.7432,178.572,1.42822,-156.379,184
1565116778,281.062,141.87,-16.7432,178.572,1.42822,-156.379,184
1565116778,281.062,141.87,-16.7432,178.572,1.42822,-156.379,180
1565116778,281.062,141.87,-16.7432,178.572,1.42822,-156.379,180
1565116778,281.062,141.87,-16.7432,178.572,1.42822,-156.379,184
1565116778,281.062,141.87,-16.7432,178.572,1.42822,-156.379,184
1565116778,281.062,141.87,-16.7432,178.572,1.42822,-156.379,184
1565116778,281.062,141.87,-16.7432,178.572,1.42822,-156.379,184
1565116778,281.062,141.87,-16.7432,178.55,1.42822,-156.379,184
1565116778,281.062,141.87,-16.7432,178.55,1.42822,-156.379,184
1565116778,281.062,141.87,-16.7432,178.55,1.42822,-156.379,180
1565116778,281.062,141.87,-16.7432,178.55,1.42822,-156.379,180
1565116778,281.062,141.87,-16.7432,178.55,1.42822,-156.379,180
1565116778,281.062,141.87,-16.7432,178.55,1.42822,-156.379,180
1565116778,281.062,141.87,-16.7432,178.55,1.42822,-156.379,180
1565116778,281.062,141.87,-16.7432,178.55,1.42822,-156.379,180
1565116778,281.062,141.759,-16.7432,178.55,1.42822,-156.379,180
1565116778,281.062,141.759,-16.7432,178.55,1.42822,-156.379,180
1565116778,281.062,141.759,-16.7432,178.55,1.42822,-156.379,180
1565116778,281.062,141.759,-16.7432,178.55,1.42822,-156.379,180
1565116778,281.062,141.759,-16.7432,178.55,1.42822,-156.379,180
1565116778,281.062,141.759,-16.7432,178.55,1.42822,-156.379,180
1565116778,281.062,141.759,-16.7432,178.55,1.42822,-156.379,180
1565116778,281.062,141.759,-16.7432,178.55,1.42822,-156.379,184
1565116778,281.062,141.759,-16.7432,178.55,1.42822,-156.379,184
1565116778,281.062,141.759,-16.7432,178.55,1.42822,-156.379,184
1565116778,281.062,141.759,-16.7432,178.55,1.42822,-156.379,184
1565116778,281.062,141.759,-16.7432,178.55,1.42822,-156.379,184
1565116778,281.062,141.759,-16.7432,178.55,1.42822,-156.379,184
1565116778,281.062,141.759,-16.7432,178.55,1.42822,-156.379,184
1565116778,281.062,141.759,-16.7432,178.55,1.42822,-156.379,184
1565116778,281.062,141.759,-16.7432,178.55,1.42822,-156.379,184
1565116778,281.062,141.759,-16.7432,178.55,1.42822,-156.379,184
1565116778,281.174,141.759,-16.7432,178.55,1.42822,-156.379,184
1565116778,281.174,141.759,-16.7432,178.55,1.42822,-156.379,184
1565116778,281.174,141.759,-16.7432,178.55,1.42822,-156.379,184
1565116778,281.174,141.759,-16.7432,178.55,1.42822,-156.379,180
1565116778,281.174,141.759,-16.7432,178.55,1.42822,-156.379,180
1565116778,281.174,141.759,-16.7432,178.528,1.42822,-156.379,180
1565116778,281.174,141.759,-16.7432,178.528,1.4502,-156.379,180
1565116778,281.174,141.759,-16.7432,178.528,1.4502,-156.379,180
1565116778,281.174,141.759,-16.7432,178.528,1.4502,-156.379,180
1565116778,281.174,141.759,-16.7432,178.528,1.4502,-156.379,180
1565116778,281.174,141.759,-16.7432,178.55,1.4502,-156.379,180
1565116778,281.174,141.759,-16.7432,178.55,1.4502,-156.379,180
1565116778,281.174,141.759,-16.7432,178.528,1.4502,-156.379,180
1565116778,281.174,141.759,-16.7432,178.55,1.4502,-156.379,180
1565116778,281.174,141.759,-16.7432,178.55,1.4502,-156.401,180
1565116778,281.174,141.759,-16.7432,178.55,1.4502,-156.401,180
1565116778,281.174,141.759,-16.7432,178.55,1.4502,-156.401,180
1565116778,281.174,141.759,-16.7432,178.55,1.4502,-156.379,180
1565116778,281.174,141.759,-16.7432,178.55,1.4502,-156.379,180
1565116778,281.062,141.759,-16.7432,178.55,1.42822,-156.401,180
1565116778,281.062,141.759,-16.7432,178.55,1.42822,-156.401,180
1565116778,281.062,141.759,-16.7432,178.55,1.42822,-156.401,180
1565116778,281.062,141.759,-16.7432,178.55,1.42822,-156.401,180
1565116778,281.062,141.759,-16.7432,178.55,1.42822,-156.401,180
1565116778,281.062,141.759,-16.7432,178.55,1.42822,-156.379,180
1565116778,281.062,141.759,-16.7432,178.55,1.42822,-156.379,180
1565116778,281.062,141.759,-16.7432,178.55,1.42822,-156.379,180
1565116778,281.062,141.759,-16.7432,178.55,1.42822,-156.379,180
1565116778,281.062,141.759,-16.7432,178.55,1.42822,-156.379,180
1565116779,281.062,141.759,-16.7432,178.55,1.42822,-156.379,180
1565116779,281.062,141.759,-16.7432,178.55,1.42822,-156.379,180
1565116779,281.062,141.759,-16.7432,178.55,1.42822,-156.379,180
1565116779,281.062,141.759,-16.7432,178.55,1.42822,-156.379,180
1565116779,281.062,141.759,-16.7432,178.55,1.42822,-156.379,180
1565116779,281.062,141.759,-16.7432,178.55,1.42822,-156.379,180
1565116779,281.062,141.759,-16.7432,178.55,1.42822,-156.379,180
1565116779,281.062,141.759,-16.7432,178.55,1.42822,-156.379,180
1565116779,281.062,141.759,-16.7432,178.55,1.42822,-156.401,180
1565116779,281.062,141.759,-16.7432,178.55,1.42822,-156.401,180
1565116779,281.062,141.759,-16.7432,178.55,1.42822,-156.401,180
1565116779,281.062,141.759,-16.7432,178.55,1.42822,-156.401,180
1565116779,281.062,141.759,-16.7432,178.55,1.42822,-156.401,180
1565116779,281.062,141.759,-16.7432,178.55,1.42822,-156.401,180
1565116779,281.062,141.759,-16.7432,178.55,1.42822,-156.401,180
1565116779,281.062,141.759,-16.7432,178.55,1.42822,-156.401,180
1565116779,281.062,141.759,-16.7432,178.55,1.42822,-156.401,180
1565116779,281.062,141.759,-16.7432,178.55,1.42822,-156.401,180
1565116779,281.062,141.759,-16.7432,178.55,1.42822,-156.401,180
1565116779,281.062,141.759,-16.7432,178.55,1.42822,-156.401,180
1565116779,281.062,141.759,-16.7432,178.55,1.42822,-156.401,180
1565116779,281.062,141.759,-16.7432,178.55,1.42822,-156.401,180
1565116779,281.062,141.759,-16.7432,178.55,1.42822,-156.401,180
1565116779,281.062,141.759,-16.7432,178.55,1.42822,-156.401,180
1565116779,281.062,141.759,-16.7432,178.55,1.42822,-156.401,180
1565116779,281.062,141.759,-16.7432,178.55,1.42822,-156.401,180
1565116779,281.062,141.759,-16.7432,178.55,1.42822,-156.401,180
1565116779,281.062,141.759,-16.7432,178.55,1.42822,-156.401,180
1565116779,281.062,141.759,-16.7432,178.55,1.42822,-156.379,180
1565116779,281.062,141.759,-16.7432,178.55,1.42822,-156.379,180
1565116779,281.062,141.759,-16.7432,178.55,1.42822,-156.379,180
1565116779,281.062,141.759,-16.7432,178.55,1.42822,-156.379,180
1565116779,281.062,141.759,-16.7432,178.55,1.42822,-156.379,180
1565116779,281.062,141.759,-16.7432,178.55,1.42822,-156.379,180
1565116779,281.062,141.759,-16.7432,178.55,1.42822,-156.379,184
1565116779,281.062,141.759,-16.7432,178.55,1.42822,-156.379,184
1565116779,281.062,141.759,-16.7432,178.55,1.42822,-156.379,184
1565116779,281.062,141.759,-16.7432,178.55,1.42822,-156.379,184
1565116779,281.062,141.759,-16.7432,178.55,1.42822,-156.379,184
1565116779,281.062,141.759,-16.7432,178.55,1.42822,-156.379,184
1565116779,281.062,141.759,-16.7432,178.55,1.42822,-156.379,184
1565116779,281.062,141.759,-16.7432,178.55,1.42822,-156.379,184
1565116779,281.062,141.759,-16.7432,178.55,1.42822,-156.379,184
1565116779,281.062,141.759,-16.7432,178.55,1.42822,-156.379,184
1565116779,281.062,141.759,-16.7432,178.55,1.42822,-156.379,184
1565116779,281.062,141.759,-16.7432,178.55,1.42822,-156.379,184
1565116779,281.062,141.759,-16.7432,178.55,1.42822,-156.379,184
1565116779,281.062,141.759,-16.7432,178.55,1.42822,-156.379,184
1565116779,281.062,141.759,-16.7432,178.55,1.42822,-156.379,184
1565116779,281.062,141.759,-16.7432,178.55,1.42822,-156.379,184
1565116779,281.062,141.759,-16.7432,178.55,1.42822,-156.379,184
1565116779,281.062,141.759,-16.7432,178.55,1.42822,-156.379,184
1565116779,281.062,141.759,-16.7432,178.55,1.42822,-156.379,184
1565116779,281.062,141.759,-16.7432,178.55,1.42822,-156.379,184
1565116779,281.062,141.759,-16.7432,178.55,1.42822,-156.379,184
1565116779,281.062,141.759,-16.7432,178.55,1.42822,-156.379,184
1565116779,281.062,141.759,-16.7432,178.55,1.42822,-156.379,184
1565116779,281.062,141.759,-16.7432,178.55,1.42822,-156.379,184
1565116779,281.062,141.759,-16.7432,178.55,1.42822,-156.379,184
1565116779,281.062,141.759,-16.7432,178.55,1.42822,-156.379,184
1565116779,281.062,141.759,-16.7432,178.55,1.42822,-156.379,184
1565116779,281.062,141.759,-16.7432,178.55,1.42822,-156.379,184
1565116779,281.062,141.759,-16.7432,178.55,1.42822,-156.379,188
1565116779,281.062,141.759,-16.7432,178.55,1.42822,-156.379,188
1565116779,281.062,141.759,-16.7432,178.55,1.42822,-156.379,188
1565116779,281.062,141.759,-16.7432,178.572,1.42822,-156.379,188
1565116779,281.062,141.759,-16.7432,178.572,1.42822,-156.379,188
1565116779,281.062,141.759,-16.7432,178.572,1.42822,-156.379,184
1565116779,281.062,141.87,-16.7432,178.572,1.42822,-156.379,184
1565116779,281.062,141.87,-16.7432,178.572,1.42822,-156.379,184
1565116779,281.062,141.87,-16.7432,178.572,1.42822,-156.379,184
1565116779,281.062,141.87,-16.7432,178.572,1.42822,-156.379,184
1565116779,281.062,141.87,-16.7432,178.572,1.42822,-156.379,184
1565116779,281.062,141.87,-16.7432,178.572,1.42822,-156.379,184
1565116779,281.062,141.87,-16.7432,178.572,1.42822,-156.379,184
1565116779,281.062,141.87,-16.7432,178.572,1.42822,-156.379,184
1565116779,281.062,141.87,-16.7432,178.572,1.42822,-156.379,184
1565116779,281.062,141.87,-16.7432,178.572,1.42822,-156.379,184
1565116779,281.062,141.87,-16.7432,178.572,1.42822,-156.379,180
1565116779,281.062,141.87,-16.7432,178.572,1.40625,-156.379,180
1565116779,281.062,141.87,-16.7432,178.572,1.40625,-156.379,180
1565116779,281.062,141.87,-16.7432,178.572,1.40625,-156.379,180
1565116779,281.062,141.87,-16.7432,178.572,1.40625,-156.379,180
1565116779,281.062,141.87,-16.7432,178.572,1.40625,-156.379,180
1565116779,281.062,141.87,-16.7432,178.572,1.40625,-156.379,180
1565116779,281.062,141.87,-16.7432,178.572,1.40625,-156.379,180
1565116779,281.062,141.87,-16.7432,178.572,1.40625,-156.379,180
1565116779,281.062,141.87,-16.7432,178.572,1.40625,-156.379,180
1565116779,281.062,141.87,-16.7432,178.572,1.40625,-156.379,180
1565116779,281.062,141.87,-16.7432,178.572,1.40625,-156.379,180
1565116779,281.062,141.87,-16.7432,178.572,1.40625,-156.379,180
1565116779,281.062,141.87,-16.7432,178.572,1.40625,-156.379,180
1565116779,281.062,141.87,-16.7432,178.572,1.40625,-156.379,184
1565116779,281.062,141.87,-16.7432,178.572,1.40625,-156.379,184
1565116779,281.062,141.87,-16.7432,178.572,1.42822,-156.379,184
1565116779,281.062,141.87,-16.7432,178.572,1.42822,-156.379,184
1565116779,281.062,141.87,-16.7432,178.572,1.42822,-156.379,184
1565116779,281.062,141.87,-16.7432,178.572,1.42822,-156.379,184
1565116779,281.062,141.87,-16.7432,178.572,1.42822,-156.379,184
1565116779,281.062,141.87,-16.7432,178.572,1.42822,-156.379,184
1565116780,281.062,141.87,-16.7432,178.572,1.42822,-156.379,184
1565116780,281.062,141.87,-16.7432,178.572,1.42822,-156.379,184
1565116780,281.062,141.87,-16.7432,178.572,1.42822,-156.379,184
1565116780,281.062,141.87,-16.7432,178.572,1.42822,-156.379,184
1565116780,281.062,141.87,-16.7432,178.572,1.42822,-156.379,184
1565116780,281.062,141.87,-16.7432,178.572,1.42822,-156.379,184
1565116780,281.062,141.87,-16.7432,178.572,1.42822,-156.379,184
1565116780,281.062,141.87,-16.7432,178.572,1.42822,-156.379,184
1565116780,281.062,141.87,-16.7432,178.572,1.42822,-156.379,184
1565116780,281.062,141.87,-16.7432,178.572,1.4502,-156.379,184
1565116780,281.062,141.87,-16.7432,178.572,1.4502,-156.379,184
1565116780,281.062,141.87,-16.7432,178.572,1.4502,-156.379,184
1565116780,281.062,141.87,-16.7432,178.572,1.4502,-156.379,184
1565116780,281.062,141.87,-16.7432,178.572,1.4502,-156.379,180
1565116780,281.062,141.87,-16.7432,178.572,1.4502,-156.379,180
1565116780,281.062,141.87,-16.7432,178.572,1.4502,-156.379,180
1565116780,281.062,141.87,-16.7432,178.572,1.4502,-156.379,180
1565116780,281.062,141.87,-16.7432,178.572,1.4502,-156.379,180
1565116780,281.062,141.87,-16.7432,178.572,1.4502,-156.379,180
1565116780,281.062,141.87,-16.7432,178.572,1.4502,-156.379,180
1565116780,281.062,141.87,-16.7432,178.572,1.4502,-156.379,180
1565116780,281.062,141.87,-16.7432,178.572,1.4502,-156.379,180
1565116780,281.062,141.87,-16.7432,178.572,1.4502,-156.379,180
1565116780,281.062,141.87,-16.7432,178.572,1.42822,-156.379,180
1565116780,281.062,141.759,-16.7432,178.55,1.42822,-156.379,180
1565116780,281.062,141.759,-16.7432,178.55,1.42822,-156.379,180
1565116780,281.062,141.759,-16.7432,178.55,1.42822,-156.379,180
1565116780,281.062,141.759,-16.7432,178.55,1.42822,-156.379,180
1565116780,281.062,141.759,-16.7432,178.55,1.42822,-156.379,180
1565116780,281.062,141.759,-16.7432,178.55,1.42822,-156.379,180
1565116780,281.062,141.759,-16.7432,178.55,1.42822,-156.379,180
1565116780,281.062,141.759,-16.7432,178.55,1.42822,-156.379,180
1565116780,281.062,141.759,-16.7432,178.55,1.42822,-156.379,180
1565116780,281.062,141.759,-16.7432,178.55,1.42822,-156.379,180
1565116780,281.062,141.759,-16.7432,178.55,1.42822,-156.379,180
1565116780,281.062,141.759,-16.7432,178.55,1.42822,-156.379,180
1565116780,281.174,141.759,-16.7432,178.55,1.42822,-156.401,180
1565116780,281.174,141.759,-16.7432,178.55,1.42822,-156.401,180
1565116780,281.174,141.759,-16.7432,178.55,1.42822,-156.401,180
1565116780,281.174,141.759,-16.7432,178.55,1.42822,-156.401,180
1565116780,281.174,141.759,-16.7432,178.55,1.42822,-156.401,180
1565116780,281.174,141.759,-16.7432,178.55,1.42822,-156.401,180
1565116780,281.174,141.759,-16.7432,178.55,1.42822,-156.401,180
1565116780,281.174,141.759,-16.7432,178.55,1.42822,-156.401,180
1565116780,281.174,141.759,-16.7432,178.55,1.42822,-156.401,180
1565116780,281.174,141.759,-16.7432,178.55,1.4502,-156.401,180
1565116780,281.174,141.759,-16.7432,178.528,1.4502,-156.401,180
1565116780,281.174,141.759,-16.7432,178.528,1.4502,-156.379,180
1565116780,281.174,141.759,-16.7432,178.528,1.4502,-156.379,180
1565116780,281.174,141.759,-16.7432,178.528,1.4502,-156.379,180
1565116780,281.174,141.759,-16.7432,178.528,1.4502,-156.379,180
1565116780,281.174,141.759,-16.7432,178.528,1.4502,-156.379,180
1565116780,281.174,141.759,-16.7432,178.528,1.4502,-156.379,180
1565116780,281.174,141.759,-16.7432,178.55,1.42822,-156.379,180
1565116780,281.174,141.759,-16.7432,178.55,1.42822,-156.379,180
1565116780,281.174,141.759,-16.7432,178.55,1.42822,-156.379,180
1565116780,281.174,141.759,-16.7432,178.55,1.42822,-156.379,180
1565116780,281.062,141.759,-16.7432,178.55,1.42822,-156.379,180
1565116780,281.062,141.759,-16.7432,178.55,1.42822,-156.379,180
1565116780,281.062,141.759,-16.7432,178.55,1.42822,-156.379,180
1565116780,281.062,141.759,-16.7432,178.55,1.42822,-156.379,180
1565116780,281.062,141.759,-16.7432,178.55,1.42822,-156.379,180
1565116780,281.062,141.759,-16.7432,178.55,1.42822,-156.379,180
1565116780,281.062,141.759,-16.7432,178.55,1.42822,-156.379,180
1565116780,281.062,141.759,-16.7432,178.55,1.42822,-156.379,184
1565116780,281.062,141.759,-16.7432,178.55,1.42822,-156.379,184
1565116780,281.062,141.759,-16.7432,178.55,1.42822,-156.379,184
1565116780,281.062,141.759,-16.7432,178.55,1.42822,-156.379,184
1565116780,281.062,141.759,-16.7432,178.55,1.42822,-156.379,184
1565116780,281.062,141.759,-16.7432,178.55,1.42822,-156.379,184
1565116780,281.062,141.759,-16.7432,178.55,1.42822,-156.379,184
1565116780,281.062,141.759,-16.7432,178.55,1.42822,-156.379,184
1565116780,281.062,141.759,-16.7432,178.55,1.42822,-156.379,184
1565116780,281.062,141.759,-16.7432,178.55,1.42822,-156.379,184
1565116780,281.062,141.759,-16.7432,178.55,1.42822,-156.379,184
1565116780,281.062,141.759,-16.7432,178.55,1.42822,-156.379,184
1565116780,281.062,141.759,-16.7432,178.55,1.42822,-156.379,184
1565116780,281.062,141.759,-16.7432,178.55,1.42822,-156.379,184
1565116780,281.062,141.759,-16.7432,178.55,1.42822,-156.379,184
1565116780,281.062,141.759,-16.7432,178.55,1.40625,-156.379,184
1565116780,281.062,141.759,-16.7432,178.55,1.40625,-156.379,184
1565116780,281.062,141.759,-16.7432,178.55,1.40625,-156.379,188
1565116780,281.062,141.759,-16.7432,178.55,1.40625,-156.379,188
1565116780,281.062,141.759,-16.7432,178.55,1.40625,-156.379,188
1565116780,281.062,141.759,-16.7432,178.55,1.40625,-156.379,188
1565116780,281.062,141.759,-16.7432,178.55,1.40625,-156.379,188
1565116780,281.062,141.759,-16.7432,178.55,1.40625,-156.379,188
1565116780,281.062,141.87,-16.7432,178.572,1.40625,-156.379,188
1565116780,281.062,141.87,-16.7432,178.572,1.40625,-156.379,188
1565116780,281.062,141.87,-16.7432,178.572,1.40625,-156.379,184
1565116780,281.062,141.87,-16.7432,178.572,1.40625,-156.379,184
1565116780,281.062,141.87,-16.7432,178.572,1.40625,-156.379,184
1565116780,281.062,141.87,-16.7432,178.572,1.40625,-156.379,184
1565116780,281.062,141.87,-16.7432,178.572,1.40625,-156.379,184
1565116780,281.062,141.87,-16.7432,178.572,1.40625,-156.379,184
1565116780,281.062,141.87,-16.7432,178.572,1.40625,-156.379,180
1565116780,281.062,141.87,-16.7432,178.572,1.40625,-156.379,180
1565116780,281.062,141.87,-16.7432,178.572,1.42822,-156.379,180
1565116780,281.062,141.87,-16.7432,178.572,1.42822,-156.379,180
1565116780,281.062,141.87,-16.7432,178.572,1.42822,-156.379,180
1565116781,281.062,141.87,-16.7432,178.572,1.42822,-156.379,180
1565116781,281.062,141.87,-16.7432,178.572,1.42822,-156.379,180
1565116781,281.062,141.87,-16.7432,178.572,1.42822,-156.379,180
1565116781,281.062,141.87,-16.7432,178.572,1.42822,-156.379,180
1565116781,281.062,141.759,-16.7432,178.55,1.42822,-156.379,180
1565116781,281.062,141.759,-16.7432,178.55,1.42822,-156.379,180
1565116781,281.062,141.759,-16.7432,178.55,1.42822,-156.379,180
1565116781,281.062,141.759,-16.7432,178.55,1.42822,-156.379,180
1565116781,281.062,141.759,-16.7432,178.55,1.42822,-156.379,180
1565116781,281.062,141.759,-16.7432,178.55,1.42822,-156.379,180
1565116781,281.062,141.759,-16.7432,178.55,1.42822,-156.379,180
1565116781,281.062,141.759,-16.7432,178.55,1.42822,-156.379,180
1565116781,281.062,141.759,-16.7432,178.55,1.42822,-156.379,180
1565116781,281.062,141.759,-16.7432,178.55,1.42822,-156.379,180
1565116781,281.062,141.759,-16.7432,178.55,1.42822,-156.379,180
1565116781,281.062,141.759,-16.7432,178.572,1.42822,-156.379,180
1565116781,281.062,141.759,-16.7432,178.572,1.42822,-156.379,180
1565116781,281.062,141.759,-16.7432,178.572,1.42822,-156.379,180
1565116781,281.062,141.759,-16.7432,178.572,1.42822,-156.379,180
1565116781,281.062,141.759,-16.7432,178.572,1.42822,-156.379,180
1565116781,281.062,141.759,-16.7432,178.55,1.42822,-156.379,180
1565116781,281.062,141.759,-16.7432,178.55,1.42822,-156.379,180
1565116781,281.062,141.759,-16.7432,178.55,1.42822,-156.379,180
1565116781,281.062,141.759,-16.7432,178.55,1.42822,-156.379,180
1565116781,281.062,141.759,-16.7432,178.55,1.42822,-156.379,180
1565116781,281.062,141.759,-16.7432,178.55,1.42822,-156.379,180
1565116781,281.062,141.759,-16.7432,178.55,1.42822,-156.379,180
1565116781,281.062,141.759,-16.7432,178.55,1.42822,-156.379,184
1565116781,281.062,141.759,-16.7432,178.55,1.42822,-156.379,184
1565116781,281.062,141.759,-16.7432,178.55,1.42822,-156.379,184
1565116781,281.062,141.759,-16.7432,178.55,1.42822,-156.379,184
1565116781,281.062,141.759,-16.7432,178.572,1.42822,-156.379,184
1565116781,281.062,141.759,-16.7432,178.572,1.42822,-156.379,184
1565116781,281.062,141.759,-16.7432,178.572,1.42822,-156.379,184
1565116781,281.062,141.759,-16.7432,178.572,1.42822,-156.379,188
1565116781,281.062,141.759,-16.7432,178.572,1.42822,-156.379,188
1565116781,281.062,141.759,-16.7432,178.572,1.42822,-156.379,188
1565116788,304.279,117.314,-16.4083,178.682,1.51611,-156.489,216
1565116788,304.279,117.314,-16.4083,178.682,1.51611,-156.489,216
1565116788,304.279,117.314,-16.4083,178.682,1.51611,-156.489,216
1565116788,304.279,117.314,-16.4083,178.682,1.51611,-156.489,216
1565116788,304.279,117.314,-16.4083,178.682,1.51611,-156.489,216
1565116788,304.279,117.314,-16.4083,178.682,1.51611,-156.489,216
1565116788,304.279,117.314,-16.4083,178.682,1.51611,-156.489,216
1565116788,304.279,117.314,-16.4083,178.682,1.51611,-156.489,216
1565116788,304.279,117.314,-16.4083,178.682,1.51611,-156.489,216
1565116788,304.279,117.314,-16.4083,178.682,1.51611,-156.489,216
1565116788,304.279,117.314,-16.4083,178.682,1.51611,-156.489,216
1565116788,304.279,117.314,-16.4083,178.682,1.51611,-156.489,216
1565116788,304.279,117.314,-16.4083,178.682,1.51611,-156.489,216
1565116788,304.279,117.314,-16.4083,178.682,1.51611,-156.489,216
1565116788,304.279,117.314,-16.4083,178.682,1.51611,-156.489,216
1565116788,304.279,117.314,-16.4083,178.66,1.51611,-156.489,216
1565116789,304.279,117.314,-16.4083,178.66,1.51611,-156.489,216
1565116789,304.279,117.314,-16.4083,178.66,1.51611,-156.489,216
1565116789,304.279,117.314,-16.4083,178.66,1.51611,-156.489,216
1565116789,304.279,117.314,-16.4083,178.66,1.51611,-156.489,216
1565116789,304.279,117.314,-16.5199,178.66,1.51611,-156.489,216
1565116789,304.279,117.314,-16.5199,178.66,1.51611,-156.489,216
1565116789,304.279,117.314,-16.5199,178.66,1.51611,-156.489,216
1565116789,304.279,117.314,-16.5199,178.66,1.51611,-156.467,216
1565116789,304.279,117.314,-16.5199,178.66,1.51611,-156.467,216
1565116789,304.279,117.314,-16.5199,178.66,1.49414,-156.467,212
1565116789,304.279,117.314,-16.5199,178.66,1.49414,-156.467,212
1565116789,304.279,117.314,-16.5199,178.66,1.49414,-156.467,212
1565116789,304.279,117.314,-16.5199,178.66,1.49414,-156.467,212
1565116789,304.279,117.314,-16.5199,178.66,1.49414,-156.467,212
1565116789,304.279,117.314,-16.5199,178.66,1.49414,-156.467,212
1565116789,304.279,117.314,-16.5199,178.66,1.49414,-156.467,212
1565116789,304.279,117.314,-16.5199,178.66,1.49414,-156.467,212
1565116789,304.279,117.314,-16.5199,178.66,1.49414,-156.467,212
1565116789,304.279,117.314,-16.5199,178.66,1.49414,-156.467,212
1565116789,304.279,117.314,-16.5199,178.66,1.49414,-156.467,212
1565116789,304.279,117.314,-16.5199,178.66,1.49414,-156.467,212
1565116789,304.279,117.314,-16.5199,178.66,1.51611,-156.467,212
1565116789,304.279,117.314,-16.5199,178.66,1.51611,-156.467,212
1565116789,304.279,117.314,-16.5199,178.66,1.51611,-156.467,212
1565116789,304.279,117.314,-16.5199,178.66,1.51611,-156.467,212
1565116789,304.279,117.314,-16.5199,178.66,1.51611,-156.467,212
1565116789,304.279,117.314,-16.5199,178.66,1.51611,-156.467,212
1565116789,304.279,117.314,-16.5199,178.66,1.51611,-156.467,212
1565116789,304.279,117.314,-16.5199,178.66,1.51611,-156.467,212
1565116789,304.279,117.314,-16.5199,178.66,1.51611,-156.467,212
1565116789,304.279,117.314,-16.5199,178.682,1.51611,-156.467,212
1565116789,304.279,117.314,-16.5199,178.682,1.51611,-156.467,212
1565116789,304.279,117.314,-16.5199,178.682,1.51611,-156.467,212
1565116789,304.279,117.314,-16.5199,178.682,1.51611,-156.467,212
1565116789,304.279,117.314,-16.5199,178.682,1.51611,-156.467,212
1565116789,304.279,117.314,-16.5199,178.682,1.49414,-156.467,212
1565116789,304.279,117.314,-16.5199,178.682,1.49414,-156.467,212
1565116789,304.279,117.314,-16.5199,178.682,1.49414,-156.467,212
1565116789,304.279,117.314,-16.5199,178.682,1.49414,-156.467,212
1565116789,304.279,117.314,-16.5199,178.682,1.49414,-156.467,212
1565116789,304.279,117.314,-16.5199,178.682,1.49414,-156.467,212
1565116789,304.279,117.314,-16.5199,178.682,1.49414,-156.467,212
1565116789,304.279,117.314,-16.5199,178.682,1.49414,-156.467,212
1565116789,304.279,117.314,-16.5199,178.682,1.49414,-156.467,216
1565116789,304.279,117.314,-16.5199,178.682,1.49414,-156.467,216
1565116789,304.279,117.314,-16.5199,178.682,1.49414,-156.467,216
1565116789,304.279,117.314,-16.5199,178.682,1.49414,-156.467,216
1565116789,304.279,117.314,-16.5199,178.682,1.49414,-156.467,216
1565116789,304.279,117.314,-16.5199,178.682,1.49414,-156.467,216
1565116789,304.279,117.314,-16.5199,178.682,1.49414,-156.467,216
1565116789,304.279,117.314,-16.5199,178.682,1.49414,-156.467,216
1565116789,304.279,117.314,-16.5199,178.682,1.49414,-156.467,220
1565116789,304.279,117.314,-16.5199,178.682,1.49414,-156.445,220
1565116789,304.279,117.314,-16.5199,178.682,1.51611,-156.445,220
1565116789,304.279,117.314,-16.5199,178.682,1.51611,-156.445,220
1565116789,304.279,117.314,-16.5199,178.682,1.51611,-156.445,220
1565116789,304.279,117.314,-16.5199,178.682,1.51611,-156.445,220
1565116789,304.279,117.314,-16.5199,178.682,1.51611,-156.445,224
1565116789,304.279,117.314,-16.5199,178.682,1.51611,-156.445,224
1565116789,304.279,117.314,-16.5199,178.682,1.51611,-156.445,224
1565116789,304.279,117.314,-16.5199,178.682,1.51611,-156.445,224
1565116789,304.279,117.314,-16.5199,178.682,1.51611,-156.445,224
1565116789,304.279,117.314,-16.5199,178.682,1.51611,-156.445,224
1565116789,304.279,117.314,-16.5199,178.682,1.51611,-156.445,224
1565116789,304.279,117.314,-16.5199,178.682,1.51611,-156.445,228
1565116789,304.279,117.314,-16.5199,178.682,1.51611,-156.445,228
1565116789,304.279,117.314,-16.5199,178.682,1.51611,-156.445,228
1565116789,304.279,117.314,-16.5199,178.682,1.51611,-156.467,228
1565116789,304.279,117.314,-16.5199,178.682,1.51611,-156.467,228
1565116789,304.279,117.314,-16.5199,178.682,1.51611,-156.467,228
1565116789,304.279,117.314,-16.5199,178.682,1.51611,-156.467,228
1565116789,304.279,117.314,-16.5199,178.682,1.51611,-156.467,224
1565116789,304.279,117.314,-16.5199,178.682,1.51611,-156.467,224
1565116789,304.279,117.314,-16.5199,178.682,1.51611,-156.467,224
1565116789,304.279,117.314,-16.5199,178.682,1.51611,-156.467,224
1565116789,304.279,117.314,-16.5199,178.682,1.51611,-156.467,224
1565116789,304.279,117.314,-16.5199,178.682,1.51611,-156.467,224
1565116789,304.279,117.314,-16.5199,178.682,1.51611,-156.467,224
1565116789,304.279,117.314,-16.5199,178.682,1.51611,-156.467,224
1565116789,304.279,117.314,-16.5199,178.682,1.51611,-156.467,224
1565116789,304.279,117.314,-16.4083,178.682,1.51611,-156.467,224
1565116789,304.279,117.314,-16.4083,178.682,1.51611,-156.467,224
1565116789,304.279,117.314,-16.4083,178.682,1.51611,-156.467,224
1565116789,304.279,117.314,-16.4083,178.682,1.51611,-156.467,224
1565116789,304.279,117.314,-16.4083,178.682,1.53809,-156.467,224
1565116789,304.279,117.314,-16.4083,178.682,1.53809,-156.467,224
1565116789,304.279,117.314,-16.4083,178.682,1.53809,-156.467,224
1565116789,304.279,117.314,-16.4083,178.682,1.53809,-156.467,224
1565116789,304.279,117.314,-16.4083,178.682,1.53809,-156.467,224
1565116789,304.279,117.314,-16.4083,178.682,1.53809,-156.467,224
1565116789,304.279,117.314,-16.4083,178.682,1.53809,-156.467,224
1565116789,304.279,117.314,-16.4083,178.682,1.53809,-156.467,224
1565116789,304.279,117.314,-16.4083,178.682,1.53809,-156.467,224
1565116789,304.279,117.314,-16.4083,178.682,1.53809,-156.467,224
1565116789,304.279,117.314,-16.4083,178.682,1.53809,-156.467,224
1565116789,304.279,117.314,-16.4083,178.682,1.53809,-156.467,224
1565116789,304.279,117.314,-16.4083,178.682,1.51611,-156.467,224
1565116789,304.167,117.314,-16.4083,178.682,1.51611,-156.467,224
1565116789,304.167,117.314,-16.4083,178.682,1.51611,-156.467,224
1565116789,304.167,117.314,-16.4083,178.682,1.51611,-156.467,224
1565116790,304.167,117.314,-16.4083,178.682,1.51611,-156.467,224
1565116790,304.167,117.314,-16.4083,178.682,1.51611,-156.467,224
1565116790,304.167,117.314,-16.4083,178.682,1.51611,-156.467,224
1565116790,304.167,117.314,-16.4083,178.682,1.51611,-156.467,224
1565116790,304.167,117.314,-16.4083,178.682,1.51611,-156.467,224
1565116790,304.167,117.314,-16.4083,178.682,1.51611,-156.467,224
1565116790,304.167,117.314,-16.4083,178.682,1.51611,-156.467,224
1565116790,304.167,117.314,-16.4083,178.66,1.51611,-156.467,224
1565116790,304.167,117.314,-16.4083,178.66,1.51611,-156.467,224
1565116790,304.167,117.314,-16.4083,178.66,1.51611,-156.467,224
1565116790,304.167,117.314,-16.4083,178.66,1.51611,-156.467,228
1565116790,304.167,117.314,-16.4083,178.66,1.51611,-156.467,228
1565116790,304.167,117.314,-16.4083,178.66,1.51611,-156.467,228
1565116790,304.167,117.314,-16.4083,178.66,1.51611,-156.467,228
1565116790,304.167,117.314,-16.4083,178.66,1.51611,-156.467,228
1565116790,304.167,117.314,-16.4083,178.66,1.51611,-156.467,228
1565116790,304.167,117.314,-16.4083,178.66,1.51611,-156.467,228
1565116790,304.167,117.202,-16.4083,178.66,1.51611,-156.489,228
1565116790,304.167,117.202,-16.4083,178.66,1.51611,-156.489,228
1565116790,304.167,117.202,-16.4083,178.66,1.51611,-156.489,228
1565116790,304.279,117.202,-16.4083,178.66,1.51611,-156.489,228
1565116790,304.279,117.202,-16.4083,178.66,1.51611,-156.489,228
1565116790,304.279,117.202,-16.4083,178.66,1.51611,-156.489,228
1565116790,304.279,117.314,-16.4083,178.66,1.51611,-156.489,228
1565116790,304.279,117.314,-16.4083,178.66,1.51611,-156.489,228
1565116790,304.279,117.314,-16.4083,178.66,1.51611,-156.489,228
1565116790,304.279,117.314,-16.4083,178.66,1.51611,-156.489,228
1565116790,304.279,117.314,-16.4083,178.66,1.51611,-156.489,228
1565116790,304.279,117.314,-16.4083,178.66,1.51611,-156.489,228
1565116790,304.279,117.314,-16.4083,178.66,1.51611,-156.489,228
1565116790,304.279,117.314,-16.4083,178.66,1.51611,-156.489,228
1565116790,304.279,117.314,-16.5199,178.66,1.51611,-156.489,228
1565116790,304.279,117.314,-16.5199,178.66,1.51611,-156.489,228
1565116790,304.279,117.314,-16.5199,178.66,1.51611,-156.489,228
1565116790,304.279,117.314,-16.5199,178.66,1.51611,-156.489,228
1565116790,304.279,117.314,-16.5199,178.66,1.51611,-156.489,224
1565116790,304.279,117.314,-16.5199,178.66,1.51611,-156.489,224
1565116790,304.279,117.314,-16.5199,178.66,1.49414,-156.489,224
1565116790,304.279,117.314,-16.5199,178.66,1.49414,-156.489,224
1565116790,304.279,117.314,-16.5199,178.66,1.49414,-156.489,224
1565116790,304.279,117.314,-16.5199,178.66,1.49414,-156.489,224
1565116790,304.279,117.314,-16.5199,178.66,1.49414,-156.489,224
1565116790,304.279,117.314,-16.5199,178.66,1.49414,-156.489,224
1565116790,304.279,117.314,-16.5199,178.66,1.49414,-156.489,224
1565116790,304.279,117.314,-16.5199,178.66,1.49414,-156.489,220
1565116790,304.279,117.314,-16.5199,178.66,1.49414,-156.489,220
1565116790,304.279,117.314,-16.5199,178.66,1.49414,-156.489,220
1565116790,304.279,117.314,-16.5199,178.66,1.49414,-156.467,220
1565116790,304.279,117.314,-16.5199,178.66,1.49414,-156.467,220
1565116790,304.279,117.314,-16.5199,178.66,1.49414,-156.467,224
1565116790,304.279,117.202,-16.5199,178.66,1.49414,-156.467,224
1565116790,304.279,117.202,-16.5199,178.66,1.49414,-156.467,224
1565116790,304.279,117.202,-16.5199,178.66,1.49414,-156.467,224
1565116790,304.279,117.202,-16.5199,178.66,1.49414,-156.467,224
1565116790,304.279,117.202,-16.5199,178.66,1.49414,-156.467,224
1565116790,304.279,117.202,-16.5199,178.66,1.49414,-156.467,224
1565116790,304.279,117.202,-16.5199,178.66,1.49414,-156.467,224
1565116790,304.279,117.202,-16.5199,178.66,1.49414,-156.467,224
1565116790,304.279,117.314,-16.5199,178.66,1.49414,-156.467,224
1565116790,304.279,117.314,-16.5199,178.66,1.49414,-156.467,224
1565116790,304.279,117.314,-16.5199,178.66,1.49414,-156.489,224
1565116790,304.279,117.314,-16.5199,178.66,1.49414,-156.489,224
1565116790,304.279,117.314,-16.5199,178.66,1.49414,-156.489,224
1565116790,304.279,117.314,-16.5199,178.66,1.49414,-156.489,224
1565116790,304.279,117.314,-16.5199,178.66,1.51611,-156.489,224
1565116790,304.279,117.314,-16.5199,178.66,1.51611,-156.489,224
1565116790,304.279,117.314,-16.5199,178.66,1.51611,-156.489,224
1565116790,304.279,117.314,-16.4083,178.66,1.51611,-156.489,224
1565116790,304.279,117.314,-16.4083,178.66,1.51611,-156.489,224
1565116790,304.279,117.314,-16.4083,178.66,1.51611,-156.489,224
1565116790,304.279,117.314,-16.4083,178.66,1.51611,-156.489,224
1565116790,304.279,117.314,-16.4083,178.66,1.53809,-156.489,224
1565116790,304.279,117.314,-16.4083,178.66,1.53809,-156.489,224
1565116790,304.279,117.314,-16.4083,178.66,1.53809,-156.489,224
1565116790,304.167,117.314,-16.4083,178.66,1.53809,-156.489,224
1565116790,304.167,117.314,-16.4083,178.66,1.53809,-156.489,224
1565116790,304.167,117.314,-16.4083,178.66,1.53809,-156.489,224
1565116790,304.167,117.314,-16.4083,178.66,1.53809,-156.489,224
1565116790,304.167,117.314,-16.4083,178.66,1.53809,-156.489,224
1565116790,304.279,117.314,-16.4083,178.66,1.53809,-156.489,224
1565116790,304.279,117.314,-16.4083,178.66,1.53809,-156.489,224
1565116790,304.279,117.314,-16.4083,178.66,1.53809,-156.489,224
1565116790,304.279,117.314,-16.4083,178.66,1.51611,-156.489,224
1565116790,304.279,117.314,-16.4083,178.66,1.51611,-156.489,224
1565116790,304.279,117.314,-16.4083,178.66,1.51611,-156.489,224
1565116790,304.279,117.314,-16.4083,178.66,1.51611,-156.489,224
1565116790,304.279,117.314,-16.4083,178.66,1.51611,-156.489,224
1565116790,304.279,117.314,-16.4083,178.66,1.51611,-156.489,224
1565116790,304.279,117.314,-16.4083,178.66,1.51611,-156.489,224
1565116790,304.279,117.314,-16.4083,178.66,1.51611,-156.489,224
1565116790,304.279,117.314,-16.4083,178.66,1.51611,-156.489,224
1565116790,304.279,117.314,-16.4083,178.66,1.51611,-156.489,224
1565116790,304.279,117.314,-16.4083,178.66,1.51611,-156.489,224
1565116790,304.279,117.314,-16.4083,178.638,1.51611,-156.489,224
1565116790,304.279,117.314,-16.4083,178.638,1.51611,-156.489,224
1565116790,304.279,117.314,-16.4083,178.638,1.53809,-156.489,224
1565116790,304.279,117.314,-16.4083,178.638,1.53809,-156.489,224
1565116790,304.279,117.314,-16.4083,178.638,1.53809,-156.489,224
1565116790,304.279,117.314,-16.4083,178.638,1.53809,-156.489,224
1565116790,304.279,117.314,-16.4083,178.66,1.53809,-156.489,224
1565116791,304.279,117.314,-16.4083,178.66,1.53809,-156.489,220
1565116791,304.279,117.314,-16.4083,178.66,1.53809,-156.489,220
1565116791,304.279,117.314,-16.4083,178.66,1.53809,-156.489,220
1565116791,304.279,117.314,-16.4083,178.66,1.53809,-156.489,220
1565116791,304.279,117.314,-16.4083,178.66,1.53809,-156.489,220
1565116791,304.279,117.314,-16.4083,178.66,1.53809,-156.489,220
1565116791,304.279,117.314,-16.4083,178.66,1.53809,-156.489,220
1565116791,304.279,117.314,-16.4083,178.682,1.53809,-156.489,220
1565116791,304.279,117.314,-16.4083,178.682,1.53809,-156.489,220
1565116791,304.279,117.314,-16.4083,178.682,1.53809,-156.489,220
1565116791,304.279,117.314,-16.4083,178.682,1.53809,-156.489,220
1565116791,304.279,117.314,-16.4083,178.682,1.53809,-156.489,220
1565116791,304.279,117.314,-16.4083,178.682,1.53809,-156.489,220
1565116791,304.279,117.314,-16.4083,178.682,1.53809,-156.489,220
1565116791,304.279,117.314,-16.4083,178.682,1.53809,-156.489,220
1565116791,304.279,117.314,-16.4083,178.682,1.53809,-156.489,220
1565116791,304.279,117.314,-16.4083,178.682,1.53809,-156.489,220
1565116791,304.279,117.314,-16.4083,178.682,1.53809,-156.489,220
1565116791,304.279,117.314,-16.4083,178.682,1.53809,-156.489,220
1565116791,304.279,117.314,-16.4083,178.682,1.53809,-156.489,220
1565116791,304.279,117.314,-16.4083,178.682,1.53809,-156.489,220
1565116791,304.279,117.314,-16.4083,178.682,1.53809,-156.489,220
1565116791,304.279,117.314,-16.4083,178.682,1.53809,-156.467,220
1565116791,304.279,117.314,-16.4083,178.682,1.53809,-156.467,220
1565116791,304.279,117.314,-16.4083,178.682,1.53809,-156.467,220
1565116791,304.279,117.314,-16.4083,178.682,1.53809,-156.467,220
1565116791,304.279,117.314,-16.4083,178.682,1.53809,-156.467,220
1565116791,304.279,117.314,-16.4083,178.682,1.53809,-156.467,220
1565116791,304.279,117.314,-16.4083,178.682,1.53809,-156.467,220
1565116791,304.279,117.314,-16.4083,178.682,1.53809,-156.467,220
1565116791,304.279,117.425,-16.4083,178.682,1.53809,-156.467,220
1565116791,304.279,117.425,-16.4083,178.682,1.53809,-156.467,220
1565116791,304.279,117.425,-16.4083,178.704,1.53809,-156.467,220
1565116791,304.279,117.425,-16.4083,178.704,1.53809,-156.467,216
1565116791,304.279,117.425,-16.4083,178.704,1.53809,-156.467,216
1565116791,304.279,117.425,-16.4083,178.704,1.53809,-156.467,216
1565116791,304.279,117.425,-16.4083,178.704,1.53809,-156.467,216
1565116791,304.279,117.425,-16.4083,178.704,1.53809,-156.467,216
1565116791,304.279,117.425,-16.4083,178.704,1.53809,-156.467,216
1565116791,304.279,117.425,-16.4083,178.704,1.53809,-156.467,216
1565116791,304.279,117.425,-16.4083,178.704,1.53809,-156.467,216
1565116791,304.279,117.425,-16.4083,178.704,1.53809,-156.467,216
1565116791,304.279,117.425,-16.4083,178.704,1.53809,-156.467,216
1565116791,304.279,117.425,-16.4083,178.704,1.53809,-156.467,216
1565116791,304.279,117.425,-16.4083,178.704,1.53809,-156.467,212
1565116791,304.279,117.425,-16.4083,178.704,1.53809,-156.467,212
1565116791,304.279,117.425,-16.4083,178.704,1.53809,-156.467,212
1565116791,304.279,117.425,-16.4083,178.704,1.53809,-156.467,212
1565116791,304.279,117.425,-16.4083,178.704,1.53809,-156.467,212
1565116791,304.279,117.425,-16.4083,178.682,1.53809,-156.467,212
1565116791,304.279,117.425,-16.4083,178.682,1.53809,-156.467,212
1565116791,304.279,117.425,-16.4083,178.682,1.53809,-156.467,212
1565116791,304.279,117.425,-16.4083,178.682,1.53809,-156.467,216
1565116791,304.279,117.314,-16.4083,178.682,1.53809,-156.467,216
1565116791,304.279,117.314,-16.4083,178.682,1.53809,-156.467,216
1565116791,304.279,117.314,-16.4083,178.682,1.53809,-156.467,216
1565116791,304.279,117.314,-16.4083,178.682,1.53809,-156.467,216
1565116791,304.279,117.314,-16.4083,178.682,1.53809,-156.467,216
1565116791,304.279,117.314,-16.4083,178.66,1.53809,-156.467,216
1565116791,304.279,117.314,-16.4083,178.66,1.53809,-156.467,216
1565116791,304.279,117.314,-16.4083,178.66,1.53809,-156.467,216
1565116791,304.279,117.314,-16.4083,178.66,1.53809,-156.467,216
1565116791,304.279,117.314,-16.4083,178.66,1.53809,-156.467,216
1565116791,304.279,117.314,-16.4083,178.66,1.53809,-156.467,216
1565116791,304.279,117.314,-16.4083,178.66,1.53809,-156.467,216
1565116791,304.279,117.314,-16.4083,178.66,1.53809,-156.467,216
1565116791,304.279,117.314,-16.4083,178.66,1.53809,-156.467,216
1565116791,304.279,117.314,-16.4083,178.66,1.53809,-156.467,216
1565116791,304.279,117.314,-16.4083,178.66,1.53809,-156.467,216
1565116791,304.279,117.314,-16.4083,178.638,1.53809,-156.467,216
1565116791,304.279,117.314,-16.4083,178.638,1.53809,-156.467,216
1565116791,304.279,117.202,-16.4083,178.638,1.53809,-156.467,216
1565116791,304.279,117.202,-16.4083,178.638,1.53809,-156.467,216
1565116791,304.279,117.202,-16.4083,178.638,1.53809,-156.467,216
1565116791,304.279,117.202,-16.4083,178.638,1.53809,-156.467,216
1565116791,304.279,117.202,-16.4083,178.638,1.53809,-156.467,216
1565116791,304.279,117.202,-16.4083,178.638,1.53809,-156.467,216
1565116791,304.279,117.202,-16.4083,178.638,1.53809,-156.467,216
1565116791,304.279,117.202,-16.4083,178.638,1.53809,-156.489,212
1565116791,304.279,117.202,-16.4083,178.638,1.53809,-156.489,212
1565116791,304.279,117.202,-16.4083,178.638,1.53809,-156.489,212
1565116791,304.279,117.202,-16.4083,178.638,1.53809,-156.489,212
1565116791,304.279,117.202,-16.4083,178.638,1.53809,-156.489,212
1565116791,304.279,117.202,-16.4083,178.638,1.53809,-156.489,212
1565116791,304.279,117.202,-16.4083,178.638,1.53809,-156.489,212
1565116791,304.279,117.202,-16.4083,178.638,1.53809,-156.489,212
1565116791,304.279,117.314,-16.4083,178.638,1.51611,-156.489,212
1565116791,304.279,117.314,-16.4083,178.638,1.51611,-156.489,212
1565116791,304.279,117.314,-16.4083,178.66,1.51611,-156.489,212
1565116791,304.279,117.314,-16.4083,178.66,1.51611,-156.489,212
1565116791,304.279,117.314,-16.4083,178.66,1.51611,-156.489,212
1565116791,304.279,117.314,-16.4083,178.66,1.51611,-156.489,212
1565116791,304.279,117.314,-16.4083,178.66,1.51611,-156.489,212
1565116791,304.279,117.314,-16.4083,178.66,1.51611,-156.489,212
1565116791,304.279,117.314,-16.4083,178.66,1.51611,-156.489,212
1565116791,304.279,117.314,-16.4083,178.66,1.51611,-156.489,212
1565116791,304.279,117.314,-16.4083,178.66,1.51611,-156.489,212
1565116791,304.279,117.314,-16.4083,178.66,1.51611,-156.489,212
1565116791,304.279,117.314,-16.4083,178.66,1.51611,-156.489,212
1565116791,304.279,117.314,-16.4083,178.66,1.51611,-156.489,212
1565116792,304.279,117.314,-16.4083,178.66,1.51611,-156.489,212
1565116792,304.279,117.314,-16.4083,178.66,1.51611,-156.489,212
1565116792,304.279,117.314,-16.4083,178.66,1.51611,-156.489,212
1565116792,304.279,117.314,-16.4083,178.66,1.51611,-156.489,212
1565116792,304.279,117.314,-16.4083,178.66,1.51611,-156.489,212
1565116792,304.279,117.314,-16.4083,178.66,1.51611,-156.489,212
1565116792,304.279,117.314,-16.4083,178.682,1.51611,-156.489,212
1565116792,304.279,117.314,-16.4083,178.682,1.51611,-156.489,212
1565116792,304.279,117.314,-16.4083,178.682,1.51611,-156.489,212
1565116792,304.279,117.314,-16.4083,178.682,1.51611,-156.489,212
1565116792,304.279,117.314,-16.4083,178.682,1.51611,-156.489,212
1565116792,304.279,117.314,-16.4083,178.682,1.51611,-156.489,212
1565116792,304.279,117.314,-16.4083,178.682,1.51611,-156.489,212
1565116792,304.279,117.314,-16.4083,178.682,1.51611,-156.489,212
1565116792,304.279,117.314,-16.4083,178.682,1.51611,-156.489,212
1565116792,304.279,117.314,-16.4083,178.682,1.51611,-156.489,216
1565116792,304.279,117.314,-16.4083,178.682,1.51611,-156.489,216
1565116792,304.279,117.314,-16.4083,178.682,1.51611,-156.467,216
1565116792,304.279,117.314,-16.4083,178.682,1.51611,-156.467,212
1565116792,304.279,117.314,-16.4083,178.682,1.51611,-156.489,212
1565116792,304.279,117.314,-16.4083,178.682,1.51611,-156.467,212
1565116792,304.279,117.314,-16.4083,178.682,1.51611,-156.467,212
1565116792,304.279,117.314,-16.4083,178.682,1.51611,-156.467,212
1565116792,304.279,117.314,-16.4083,178.682,1.51611,-156.467,212
1565116792,304.279,117.314,-16.4083,178.682,1.51611,-156.467,212
1565116792,304.279,117.314,-16.4083,178.682,1.51611,-156.467,212
1565116792,304.279,117.314,-16.4083,178.682,1.51611,-156.467,212
1565116792,304.279,117.314,-16.4083,178.682,1.51611,-156.467,212
1565116792,304.279,117.314,-16.4083,178.66,1.51611,-156.467,212
1565116792,304.279,117.314,-16.4083,178.66,1.51611,-156.467,216
1565116792,304.279,117.314,-16.4083,178.66,1.51611,-156.467,216
1565116792,304.279,117.314,-16.4083,178.66,1.51611,-156.467,216
1565116792,304.279,117.314,-16.4083,178.66,1.51611,-156.467,216
1565116792,304.279,117.314,-16.4083,178.66,1.51611,-156.467,216
1565116792,304.279,117.314,-16.4083,178.66,1.51611,-156.467,216
1565116792,304.279,117.314,-16.4083,178.66,1.51611,-156.467,216
1565116792,304.279,117.314,-16.4083,178.66,1.51611,-156.467,216
1565116792,304.279,117.314,-16.4083,178.66,1.51611,-156.467,216
1565116792,304.279,117.314,-16.4083,178.66,1.51611,-156.467,216
1565116792,304.279,117.314,-16.4083,178.66,1.51611,-156.467,216
1565116792,304.279,117.314,-16.4083,178.66,1.51611,-156.467,216
1565116792,304.279,117.314,-16.4083,178.66,1.51611,-156.467,216
1565116792,304.279,117.314,-16.4083,178.66,1.51611,-156.489,216
1565116792,304.279,117.314,-16.4083,178.66,1.51611,-156.489,216
1565116792,304.279,117.314,-16.4083,178.682,1.51611,-156.489,216
1565116792,304.279,117.314,-16.4083,178.682,1.53809,-156.489,216
1565116792,304.279,117.314,-16.4083,178.682,1.53809,-156.489,216
1565116792,304.279,117.314,-16.4083,178.682,1.53809,-156.489,216
1565116792,304.279,117.314,-16.4083,178.682,1.53809,-156.489,216
1565116792,304.279,117.314,-16.4083,178.682,1.53809,-156.489,216
1565116792,304.279,117.314,-16.4083,178.682,1.53809,-156.489,216
1565116792,304.279,117.314,-16.4083,178.682,1.53809,-156.489,216
1565116792,304.279,117.314,-16.4083,178.682,1.53809,-156.489,216
1565116792,304.279,117.314,-16.4083,178.682,1.56006,-156.489,216
1565116792,304.279,117.314,-16.4083,178.682,1.56006,-156.489,216
1565116792,304.279,117.314,-16.4083,178.682,1.56006,-156.489,216
1565116792,304.279,117.314,-16.4083,178.682,1.56006,-156.489,216
1565116792,304.279,117.314,-16.4083,178.682,1.53809,-156.489,216
1565116792,304.279,117.314,-16.4083,178.682,1.53809,-156.489,220
1565116792,304.279,117.314,-16.4083,178.682,1.53809,-156.489,220
1565116792,304.279,117.314,-16.4083,178.682,1.53809,-156.489,220
1565116792,304.279,117.314,-16.4083,178.682,1.53809,-156.489,220
1565116792,304.279,117.314,-16.4083,178.682,1.53809,-156.489,220
1565116792,304.279,117.314,-16.4083,178.682,1.53809,-156.489,220
1565116792,304.279,117.314,-16.4083,178.682,1.53809,-156.489,220
1565116792,304.279,117.314,-16.4083,178.682,1.53809,-156.489,220
1565116792,304.279,117.314,-16.4083,178.682,1.53809,-156.489,220
1565116792,304.279,117.314,-16.4083,178.682,1.53809,-156.489,220
1565116792,304.279,117.314,-16.4083,178.682,1.53809,-156.489,220
1565116792,304.279,117.314,-16.4083,178.682,1.53809,-156.489,220
1565116792,304.279,117.314,-16.4083,178.682,1.53809,-156.489,220
1565116792,304.279,117.314,-16.4083,178.682,1.53809,-156.489,220
1565116792,304.279,117.314,-16.4083,178.682,1.53809,-156.489,220
1565116792,304.279,117.314,-16.4083,178.682,1.53809,-156.489,220
1565116792,304.279,117.314,-16.4083,178.682,1.53809,-156.489,220
1565116792,304.279,117.314,-16.4083,178.682,1.53809,-156.489,220
1565116792,304.279,117.314,-16.4083,178.682,1.53809,-156.489,220
1565116792,304.279,117.314,-16.4083,178.682,1.53809,-156.489,220
1565116792,304.279,117.314,-16.4083,178.682,1.53809,-156.489,220
1565116792,304.279,117.314,-16.4083,178.682,1.51611,-156.489,220
1565116792,304.279,117.314,-16.4083,178.682,1.51611,-156.489,220
1565116792,304.279,117.314,-16.4083,178.682,1.51611,-156.489,220
1565116792,304.167,117.314,-16.4083,178.682,1.51611,-156.489,220
1565116792,304.167,117.314,-16.4083,178.682,1.51611,-156.489,224
1565116792,304.167,117.314,-16.5199,178.682,1.51611,-156.489,224
1565116792,304.167,117.314,-16.5199,178.682,1.51611,-156.489,224
1565116792,304.167,117.314,-16.5199,178.682,1.51611,-156.489,224
1565116792,304.167,117.314,-16.5199,178.682,1.51611,-156.467,224
1565116792,304.167,117.314,-16.5199,178.682,1.51611,-156.467,224
1565116792,304.167,117.314,-16.5199,178.682,1.51611,-156.467,224
1565116792,304.167,117.314,-16.5199,178.682,1.51611,-156.467,224
1565116792,304.167,117.314,-16.5199,178.682,1.51611,-156.467,224
1565116792,304.167,117.314,-16.5199,178.682,1.51611,-156.467,224
1565116792,304.167,117.314,-16.5199,178.682,1.51611,-156.467,224
1565116792,304.167,117.314,-16.5199,178.682,1.51611,-156.467,224
1565116792,304.167,117.314,-16.5199,178.682,1.51611,-156.467,224
1565116792,304.167,117.314,-16.5199,178.682,1.51611,-156.467,224
1565116792,304.279,117.314,-16.5199,178.66,1.51611,-156.467,224
1565116792,304.279,117.314,-16.5199,178.66,1.51611,-156.467,224
1565116792,304.279,117.314,-16.5199,178.66,1.51611,-156.467,224
1565116793,304.279,117.314,-16.5199,178.66,1.51611,-156.467,224
1565116793,304.279,117.314,-16.5199,178.66,1.51611,-156.467,224
1565116793,304.279,117.314,-16.5199,178.66,1.51611,-156.467,224
1565116793,304.279,117.314,-16.5199,178.66,1.51611,-156.467,224
1565116793,304.279,117.314,-16.5199,178.66,1.51611,-156.467,224
1565116793,304.279,117.314,-16.5199,178.66,1.51611,-156.467,224
1565116793,304.279,117.314,-16.5199,178.66,1.51611,-156.467,224
1565116793,304.279,117.314,-16.5199,178.66,1.51611,-156.467,224
1565116793,304.279,117.314,-16.5199,178.66,1.51611,-156.467,220
1565116793,304.279,117.314,-16.5199,178.66,1.51611,-156.467,220
1565116793,304.279,117.314,-16.5199,178.66,1.51611,-156.467,220
1565116793,304.279,117.314,-16.5199,178.66,1.51611,-156.467,220
1565116793,304.279,117.314,-16.5199,178.66,1.51611,-156.467,220
1565116793,304.279,117.314,-16.5199,178.66,1.51611,-156.467,220
1565116793,304.279,117.314,-16.5199,178.66,1.51611,-156.467,220
1565116793,304.279,117.314,-16.5199,178.66,1.51611,-156.467,220
1565116793,304.279,117.314,-16.5199,178.66,1.51611,-156.467,220
1565116793,304.279,117.314,-16.5199,178.66,1.51611,-156.467,220
1565116793,304.279,117.314,-16.5199,178.66,1.51611,-156.467,220
1565116793,304.279,117.314,-16.5199,178.66,1.51611,-156.467,220
1565116793,304.279,117.314,-16.5199,178.66,1.51611,-156.467,220
1565116793,304.279,117.314,-16.5199,178.66,1.51611,-156.467,220
1565116793,304.279,117.314,-16.5199,178.66,1.51611,-156.467,220
1565116793,304.279,117.314,-16.5199,178.66,1.51611,-156.467,220
1565116793,304.279,117.314,-16.5199,178.66,1.51611,-156.467,220
1565116793,304.279,117.314,-16.5199,178.66,1.51611,-156.467,220
1565116793,304.279,117.314,-16.5199,178.66,1.51611,-156.467,220
1565116793,304.279,117.314,-16.4083,178.66,1.51611,-156.467,220
1565116793,304.279,117.314,-16.4083,178.66,1.51611,-156.467,220
1565116793,304.279,117.314,-16.4083,178.66,1.51611,-156.467,220
1565116793,304.279,117.314,-16.4083,178.66,1.51611,-156.467,220
1565116793,304.279,117.314,-16.4083,178.66,1.51611,-156.467,220
1565116793,304.279,117.314,-16.4083,178.66,1.51611,-156.467,220
1565116793,304.279,117.314,-16.4083,178.66,1.51611,-156.467,220
1565116793,304.279,117.314,-16.4083,178.66,1.51611,-156.467,220
1565116793,304.279,117.314,-16.4083,178.66,1.51611,-156.467,220
1565116793,304.279,117.314,-16.4083,178.66,1.51611,-156.467,220
1565116793,304.279,117.314,-16.4083,178.66,1.51611,-156.467,220
1565116793,304.279,117.314,-16.4083,178.66,1.51611,-156.467,220
1565116793,304.279,117.314,-16.4083,178.66,1.51611,-156.467,220
1565116793,304.279,117.314,-16.4083,178.66,1.51611,-156.467,220
1565116793,304.279,117.314,-16.4083,178.66,1.51611,-156.467,220
1565116793,304.279,117.314,-16.4083,178.66,1.51611,-156.467,220
1565116793,304.279,117.314,-16.4083,178.66,1.51611,-156.467,220
1565116793,304.279,117.314,-16.4083,178.66,1.51611,-156.467,220
1565116793,304.279,117.314,-16.4083,178.66,1.51611,-156.467,220
1565116793,304.279,117.314,-16.4083,178.66,1.51611,-156.467,220
1565116793,304.279,117.314,-16.4083,178.66,1.51611,-156.467,220
1565116793,304.279,117.314,-16.4083,178.66,1.51611,-156.467,220
1565116793,304.279,117.314,-16.4083,178.66,1.51611,-156.467,220
1565116793,304.279,117.314,-16.4083,178.66,1.51611,-156.467,220
1565116793,304.279,117.314,-16.4083,178.682,1.51611,-156.467,224
1565116793,304.279,117.314,-16.4083,178.682,1.51611,-156.467,224
1565116793,304.279,117.314,-16.4083,178.682,1.51611,-156.467,224
1565116793,304.279,117.314,-16.4083,178.66,1.51611,-156.467,224
1565116793,304.279,117.314,-16.4083,178.66,1.51611,-156.467,224
1565116793,304.279,117.314,-16.4083,178.66,1.51611,-156.467,224
1565116793,304.279,117.314,-16.4083,178.66,1.51611,-156.467,224
1565116793,304.279,117.314,-16.4083,178.66,1.51611,-156.467,224
1565116793,304.279,117.314,-16.4083,178.66,1.51611,-156.467,224
1565116793,304.279,117.314,-16.4083,178.66,1.51611,-156.467,220
1565116793,304.279,117.314,-16.4083,178.66,1.51611,-156.467,220
1565116793,304.279,117.314,-16.4083,178.66,1.51611,-156.467,220
1565116793,304.279,117.314,-16.4083,178.66,1.51611,-156.467,220
1565116793,304.279,117.314,-16.4083,178.66,1.51611,-156.467,220
1565116793,304.279,117.314,-16.4083,178.66,1.51611,-156.467,220
1565116793,304.279,117.314,-16.4083,178.66,1.51611,-156.489,220
1565116793,304.279,117.314,-16.4083,178.66,1.51611,-156.489,216
1565116793,304.279,117.314,-16.4083,178.66,1.51611,-156.489,216
1565116793,304.279,117.314,-16.4083,178.682,1.51611,-156.467,216
1565116793,304.279,117.314,-16.4083,178.682,1.51611,-156.467,216
1565116793,304.279,117.314,-16.4083,178.682,1.51611,-156.467,216
1565116793,304.279,117.314,-16.4083,178.682,1.51611,-156.467,216
1565116793,304.279,117.314,-16.4083,178.682,1.51611,-156.467,212
1565116793,304.279,117.314,-16.4083,178.682,1.51611,-156.467,212
1565116793,304.279,117.314,-16.4083,178.682,1.51611,-156.467,212
1565116793,304.279,117.425,-16.4083,178.682,1.51611,-156.467,212
1565116793,304.279,117.425,-16.4083,178.682,1.51611,-156.467,212
1565116793,304.279,117.425,-16.4083,178.682,1.51611,-156.467,212
1565116793,304.279,117.425,-16.4083,178.682,1.51611,-156.467,216
1565116793,304.279,117.425,-16.4083,178.682,1.51611,-156.467,216
1565116793,304.279,117.425,-16.4083,178.682,1.51611,-156.467,216
1565116793,304.279,117.425,-16.4083,178.682,1.51611,-156.467,216
1565116793,304.279,117.314,-16.4083,178.682,1.51611,-156.467,216
1565116800,342.9,76.9069,-16.0734,178.945,1.69189,-156.731,252
1565116800,342.9,76.9069,-16.0734,178.945,1.69189,-156.731,248
1565116800,342.9,76.9069,-16.0734,178.945,1.69189,-156.731,248
1565116800,342.9,76.9069,-16.0734,178.945,1.69189,-156.731,248
1565116800,342.9,76.9069,-16.0734,178.945,1.69189,-156.731,248
1565116800,342.9,76.9069,-16.0734,178.945,1.69189,-156.731,248
1565116800,342.9,76.9069,-16.0734,178.945,1.69189,-156.731,248
1565116800,342.9,76.9069,-16.0734,178.945,1.69189,-156.731,248
1565116800,342.9,76.7953,-16.0734,178.945,1.69189,-156.731,248
1565116800,342.9,76.7953,-16.0734,178.945,1.69189,-156.731,248
1565116800,342.9,76.7953,-16.0734,178.945,1.69189,-156.731,248
1565116800,342.9,76.9069,-16.0734,178.945,1.69189,-156.731,252
1565116800,342.9,76.9069,-16.0734,178.945,1.69189,-156.731,252
1565116800,342.9,76.7953,-16.0734,178.945,1.69189,-156.731,252
1565116800,342.9,76.7953,-16.0734,178.945,1.69189,-156.731,252
1565116800,342.9,76.7953,-16.0734,178.945,1.69189,-156.731,252
1565116800,342.9,76.7953,-16.0734,178.945,1.69189,-156.731,252
1565116800,342.9,76.7953,-16.0734,178.945,1.69189,-156.731,252
1565116800,342.9,76.7953,-16.0734,178.945,1.69189,-156.731,256
1565116800,342.9,76.7953,-16.0734,178.945,1.69189,-156.753,256
1565116800,342.9,76.7953,-16.0734,178.945,1.69189,-156.753,256
1565116800,342.9,76.7953,-16.0734,178.945,1.69189,-156.753,256
1565116800,342.9,76.7953,-16.0734,178.945,1.69189,-156.753,256
1565116800,342.9,76.7953,-16.0734,178.945,1.71387,-156.753,256
1565116800,342.9,76.7953,-16.0734,178.945,1.71387,-156.753,256
1565116800,342.9,76.7953,-16.0734,178.945,1.71387,-156.753,256
1565116800,342.9,76.9069,-15.9618,178.945,1.71387,-156.753,256
1565116800,342.9,76.9069,-15.9618,178.945,1.71387,-156.753,256
1565116800,342.9,76.9069,-15.9618,178.945,1.71387,-156.753,256
1565116800,342.9,76.9069,-15.9618,178.945,1.71387,-156.753,256
1565116800,342.9,76.9069,-15.9618,178.945,1.71387,-156.753,256
1565116800,342.9,76.9069,-15.9618,178.945,1.71387,-156.753,256
1565116800,342.9,76.9069,-15.9618,178.945,1.71387,-156.753,256
1565116800,342.9,76.9069,-15.9618,178.945,1.71387,-156.753,256
1565116800,342.9,76.9069,-15.9618,178.945,1.71387,-156.753,256
1565116800,342.9,76.9069,-15.9618,178.945,1.71387,-156.753,256
1565116800,342.9,76.9069,-15.9618,178.945,1.71387,-156.753,256
1565116800,342.9,76.9069,-15.9618,178.945,1.71387,-156.753,256
1565116800,342.9,76.9069,-15.9618,178.945,1.71387,-156.731,252
1565116800,342.9,76.9069,-15.9618,178.945,1.71387,-156.731,252
1565116800,342.9,76.9069,-15.9618,178.945,1.71387,-156.731,252
1565116800,342.9,76.9069,-15.9618,178.945,1.71387,-156.731,252
1565116800,342.9,76.9069,-15.9618,178.945,1.71387,-156.731,252
1565116800,342.9,76.9069,-15.9618,178.945,1.71387,-156.731,248
1565116800,342.9,76.9069,-15.9618,178.945,1.71387,-156.731,248
1565116800,342.9,76.9069,-15.9618,178.945,1.71387,-156.731,248
1565116800,342.9,76.9069,-15.9618,178.945,1.73584,-156.731,248
1565116800,342.9,76.9069,-15.9618,178.945,1.73584,-156.731,248
1565116800,342.9,76.9069,-15.9618,178.945,1.73584,-156.731,248
1565116800,342.9,76.9069,-15.9618,178.945,1.73584,-156.731,248
1565116800,342.9,76.9069,-15.9618,178.945,1.73584,-156.731,248
1565116800,342.9,76.9069,-15.9618,178.945,1.73584,-156.731,248
1565116800,342.9,76.9069,-15.9618,178.945,1.73584,-156.731,248
1565116800,342.9,76.9069,-15.9618,178.945,1.73584,-156.731,248
1565116800,342.9,76.9069,-15.9618,178.945,1.73584,-156.731,244
1565116800,342.9,76.9069,-15.9618,178.945,1.73584,-156.731,244
1565116800,342.9,76.9069,-15.9618,178.945,1.73584,-156.731,244
1565116800,342.9,76.9069,-15.9618,178.945,1.73584,-156.731,244
1565116800,342.9,76.9069,-15.9618,178.945,1.73584,-156.731,244
1565116800,342.9,76.9069,-15.9618,178.945,1.73584,-156.753,244
1565116800,342.9,76.9069,-15.9618,178.945,1.73584,-156.753,244
1565116800,342.9,76.9069,-15.9618,178.945,1.73584,-156.753,244
1565116800,342.9,76.9069,-15.9618,178.945,1.73584,-156.753,244
1565116800,342.9,76.9069,-15.9618,178.945,1.73584,-156.753,244
1565116800,342.9,76.9069,-15.9618,178.945,1.73584,-156.753,244
1565116800,342.9,76.9069,-15.9618,178.945,1.73584,-156.753,248
1565116800,342.9,76.9069,-15.9618,178.945,1.73584,-156.753,248
1565116800,342.9,76.9069,-15.9618,178.945,1.73584,-156.753,248
1565116800,342.9,76.9069,-15.9618,178.945,1.73584,-156.753,248
1565116800,342.9,76.9069,-15.9618,178.945,1.73584,-156.753,252
1565116801,342.9,76.9069,-15.9618,178.945,1.73584,-156.753,252
1565116801,342.9,76.9069,-15.9618,178.945,1.73584,-156.753,252
1565116801,342.9,76.9069,-15.9618,178.945,1.73584,-156.753,256
1565116801,342.9,76.9069,-15.9618,178.967,1.73584,-156.753,256
1565116801,342.9,76.9069,-15.9618,178.967,1.71387,-156.753,256
1565116801,342.9,76.9069,-15.9618,178.967,1.71387,-156.753,260
1565116801,342.9,76.9069,-15.9618,178.967,1.71387,-156.753,260
1565116801,342.9,76.9069,-15.9618,178.967,1.71387,-156.753,260
1565116801,342.9,76.9069,-15.9618,178.967,1.71387,-156.753,260
1565116801,342.9,76.9069,-16.0734,178.967,1.71387,-156.753,260
1565116801,342.9,76.9069,-16.0734,178.967,1.69189,-156.753,260
1565116801,342.9,76.9069,-16.0734,178.967,1.69189,-156.753,260
1565116801,342.9,76.9069,-16.0734,178.967,1.69189,-156.753,260
1565116801,342.9,76.9069,-16.0734,178.967,1.69189,-156.753,260
1565116801,342.9,76.9069,-16.0734,178.967,1.69189,-156.753,260
1565116801,342.9,76.9069,-16.0734,178.967,1.69189,-156.753,256
1565116801,342.9,76.9069,-16.0734,178.967,1.69189,-156.753,256
1565116801,342.9,76.9069,-16.0734,178.967,1.69189,-156.753,256
1565116801,342.9,76.9069,-16.0734,178.967,1.69189,-156.753,256
1565116801,342.9,76.9069,-16.0734,178.967,1.69189,-156.753,252
1565116801,342.9,76.9069,-16.0734,178.945,1.69189,-156.753,252
1565116801,342.9,76.9069,-16.0734,178.945,1.69189,-156.753,252
1565116801,342.9,76.9069,-16.0734,178.945,1.69189,-156.753,252
1565116801,342.9,76.7953,-16.0734,178.945,1.69189,-156.753,252
1565116801,342.9,76.7953,-16.0734,178.945,1.69189,-156.753,252
1565116801,342.9,76.7953,-16.0734,178.945,1.69189,-156.753,252
1565116801,342.9,76.7953,-16.0734,178.945,1.69189,-156.731,252
1565116801,342.9,76.7953,-16.0734,178.945,1.69189,-156.731,252
1565116801,342.9,76.7953,-16.0734,178.923,1.69189,-156.731,252
1565116801,342.9,76.7953,-16.0734,178.923,1.69189,-156.731,252
1565116801,342.9,76.7953,-16.0734,178.923,1.69189,-156.731,252
1565116801,342.9,76.7953,-16.0734,178.923,1.69189,-156.731,256
1565116801,342.9,76.7953,-16.0734,178.923,1.69189,-156.731,256
1565116801,342.9,76.7953,-16.0734,178.923,1.66992,-156.731,256
1565116801,342.9,76.7953,-16.0734,178.923,1.66992,-156.731,256
1565116801,342.9,76.7953,-16.0734,178.923,1.66992,-156.731,256
1565116801,342.9,76.7953,-16.0734,178.923,1.66992,-156.731,256
1565116801,342.9,76.7953,-16.0734,178.923,1.66992,-156.731,256
1565116801,342.9,76.7953,-16.0734,178.923,1.66992,-156.731,256
1565116801,342.9,76.7953,-16.0734,178.923,1.66992,-156.731,256
1565116801,342.9,76.7953,-16.0734,178.923,1.66992,-156.731,256
1565116801,342.9,76.7953,-16.0734,178.923,1.66992,-156.731,256
1565116801,342.9,76.7953,-16.0734,178.923,1.66992,-156.731,256
1565116801,342.9,76.7953,-16.0734,178.923,1.69189,-156.753,256
1565116801,342.9,76.7953,-16.0734,178.923,1.69189,-156.753,256
1565116801,342.9,76.7953,-16.0734,178.923,1.69189,-156.753,256
1565116801,342.9,76.7953,-16.0734,178.923,1.69189,-156.753,256
1565116801,342.9,76.7953,-16.0734,178.923,1.69189,-156.753,256
1565116801,342.9,76.7953,-16.0734,178.923,1.69189,-156.753,256
1565116801,342.9,76.7953,-16.0734,178.923,1.69189,-156.753,256
1565116801,342.9,76.7953,-16.0734,178.923,1.69189,-156.753,256
1565116801,342.9,76.7953,-16.0734,178.923,1.69189,-156.753,256
1565116801,342.9,76.7953,-16.0734,178.923,1.69189,-156.753,256
1565116801,342.9,76.7953,-16.0734,178.923,1.69189,-156.753,256
1565116801,342.9,76.7953,-16.0734,178.923,1.69189,-156.753,256
1565116801,342.9,76.7953,-16.0734,178.945,1.69189,-156.753,256
1565116801,342.9,76.7953,-16.0734,178.945,1.69189,-156.753,252
1565116801,342.9,76.7953,-16.0734,178.945,1.69189,-156.753,252
1565116801,342.9,76.7953,-16.0734,178.945,1.69189,-156.753,252
1565116801,342.9,76.7953,-16.0734,178.945,1.69189,-156.753,252
1565116801,342.9,76.7953,-16.0734,178.923,1.69189,-156.753,252
1565116801,342.9,76.7953,-16.0734,178.923,1.69189,-156.753,252
1565116801,342.9,76.7953,-16.0734,178.923,1.69189,-156.753,252
1565116801,342.9,76.7953,-16.0734,178.923,1.69189,-156.753,252
1565116801,342.9,76.7953,-16.0734,178.923,1.69189,-156.753,252
1565116801,342.9,76.7953,-16.0734,178.923,1.69189,-156.753,252
1565116801,342.9,76.7953,-16.0734,178.923,1.69189,-156.753,248
1565116801,342.9,76.7953,-16.0734,178.923,1.69189,-156.753,248
1565116801,342.9,76.7953,-16.0734,178.923,1.69189,-156.753,248
1565116801,342.9,76.7953,-16.0734,178.923,1.69189,-156.753,248
1565116801,342.9,76.7953,-16.0734,178.923,1.69189,-156.731,248
1565116801,342.9,76.7953,-16.0734,178.923,1.69189,-156.731,248
1565116801,342.9,76.7953,-16.0734,178.923,1.69189,-156.731,248
1565116801,342.9,76.7953,-16.0734,178.923,1.69189,-156.731,248
1565116801,342.9,76.7953,-16.0734,178.923,1.69189,-156.731,248
1565116801,342.9,76.7953,-16.0734,178.923,1.69189,-156.731,252
1565116801,342.9,76.7953,-16.0734,178.923,1.69189,-156.731,252
1565116801,342.9,76.7953,-16.0734,178.923,1.69189,-156.731,252
1565116801,342.9,76.7953,-16.0734,178.923,1.69189,-156.731,252
1565116801,342.9,76.7953,-16.0734,178.923,1.69189,-156.731,252
1565116801,342.9,76.7953,-16.0734,178.945,1.69189,-156.731,252
1565116801,342.9,76.7953,-16.0734,178.945,1.69189,-156.731,252
1565116801,342.9,76.9069,-16.0734,178.945,1.69189,-156.731,252
1565116801,342.9,76.9069,-16.0734,178.945,1.69189,-156.731,252
1565116801,342.9,76.9069,-16.0734,178.945,1.69189,-156.731,252
1565116801,342.9,76.9069,-16.0734,178.945,1.69189,-156.731,252
1565116801,342.9,76.9069,-16.0734,178.945,1.69189,-156.753,252
1565116801,342.9,76.9069,-16.0734,178.945,1.69189,-156.753,252
1565116801,342.9,76.9069,-16.0734,178.945,1.69189,-156.753,252
1565116801,342.9,76.9069,-16.0734,178.945,1.69189,-156.753,252
1565116801,342.9,76.9069,-16.0734,178.945,1.69189,-156.753,252
1565116801,342.9,76.9069,-16.0734,178.945,1.69189,-156.753,252
1565116801,342.9,76.9069,-16.0734,178.945,1.69189,-156.753,252
1565116801,342.9,76.9069,-16.0734,178.945,1.69189,-156.753,252
1565116801,342.9,76.9069,-16.0734,178.945,1.69189,-156.753,252
1565116801,342.9,76.9069,-16.0734,178.945,1.69189,-156.753,252
1565116801,342.9,76.9069,-16.0734,178.945,1.69189,-156.753,252
1565116801,342.9,76.9069,-16.0734,178.945,1.69189,-156.753,252
1565116801,342.9,76.9069,-16.0734,178.945,1.69189,-156.753,252
1565116801,342.9,76.9069,-16.0734,178.945,1.69189,-156.753,248
1565116802,342.9,76.9069,-16.0734,178.945,1.69189,-156.753,248
1565116802,342.9,76.9069,-16.0734,178.945,1.69189,-156.753,248
1565116802,342.9,76.9069,-16.0734,178.945,1.69189,-156.753,248
1565116802,342.9,76.9069,-16.0734,178.945,1.69189,-156.753,248
1565116802,342.9,76.9069,-16.0734,178.945,1.69189,-156.753,248
1565116802,342.9,76.9069,-16.0734,178.945,1.69189,-156.753,248
1565116802,342.9,76.9069,-16.0734,178.945,1.69189,-156.731,248
1565116802,342.9,76.9069,-16.0734,178.945,1.69189,-156.731,248
1565116802,342.9,76.9069,-16.0734,178.945,1.69189,-156.731,248
1565116802,342.9,76.9069,-16.0734,178.945,1.69189,-156.731,248
1565116802,342.9,76.9069,-16.0734,178.945,1.69189,-156.731,248
1565116802,342.9,76.9069,-16.0734,178.967,1.71387,-156.731,248
1565116802,342.9,76.9069,-16.0734,178.967,1.71387,-156.731,248
1565116802,342.9,76.9069,-16.0734,178.967,1.71387,-156.731,248
1565116802,342.9,76.9069,-16.0734,178.945,1.71387,-156.731,248
1565116802,342.9,76.9069,-16.0734,178.945,1.71387,-156.731,252
1565116802,342.9,76.7953,-15.9618,178.945,1.71387,-156.731,252
1565116802,342.788,76.7953,-15.9618,178.945,1.71387,-156.731,252
1565116802,342.788,76.7953,-15.9618,178.945,1.71387,-156.731,256
1565116802,342.788,76.7953,-15.9618,178.945,1.71387,-156.731,256
1565116802,342.788,76.7953,-15.9618,178.945,1.71387,-156.731,256
1565116802,342.788,76.7953,-15.9618,178.945,1.71387,-156.731,256
1565116802,342.788,76.7953,-15.9618,178.945,1.71387,-156.731,260
1565116802,342.788,76.7953,-15.9618,178.923,1.71387,-156.731,260
1565116802,342.788,76.7953,-15.9618,178.923,1.71387,-156.731,260
1565116802,342.788,76.7953,-15.9618,178.923,1.71387,-156.753,260
1565116802,342.788,76.7953,-15.9618,178.923,1.71387,-156.753,260
1565116802,342.788,76.7953,-15.9618,178.923,1.71387,-156.753,260
1565116802,342.788,76.7953,-16.0734,178.923,1.71387,-156.753,260
1565116802,342.788,76.7953,-16.0734,178.923,1.69189,-156.753,260
1565116802,342.788,76.7953,-16.0734,178.923,1.69189,-156.753,260
1565116802,342.788,76.7953,-16.0734,178.923,1.69189,-156.753,260
1565116802,342.788,76.7953,-16.0734,178.923,1.69189,-156.731,260
1565116802,342.788,76.7953,-16.0734,178.923,1.69189,-156.731,260
1565116802,342.788,76.7953,-16.0734,178.923,1.69189,-156.731,260
1565116802,342.788,76.7953,-16.0734,178.923,1.69189,-156.731,260
1565116802,342.788,76.7953,-16.0734,178.923,1.69189,-156.731,260
1565116802,342.788,76.7953,-16.0734,178.923,1.69189,-156.731,260
1565116802,342.788,76.7953,-16.0734,178.923,1.69189,-156.731,260
1565116802,342.9,76.7953,-16.0734,178.923,1.71387,-156.731,260
1565116802,342.9,76.7953,-16.0734,178.923,1.71387,-156.731,260
1565116802,342.9,76.7953,-16.0734,178.923,1.71387,-156.731,256
1565116802,342.9,76.7953,-16.0734,178.923,1.71387,-156.731,256
1565116802,342.9,76.7953,-15.9618,178.923,1.71387,-156.731,256
1565116802,342.9,76.7953,-15.9618,178.923,1.71387,-156.731,256
1565116802,342.9,76.7953,-15.9618,178.923,1.71387,-156.731,256
1565116802,342.788,76.7953,-15.9618,178.923,1.71387,-156.731,256
1565116802,342.788,76.7953,-15.9618,178.923,1.71387,-156.731,256
1565116802,342.788,76.7953,-15.9618,178.923,1.71387,-156.731,256
1565116802,342.788,76.7953,-15.9618,178.923,1.71387,-156.731,256
1565116802,342.788,76.7953,-16.0734,178.923,1.71387,-156.731,256
1565116802,342.788,76.7953,-16.0734,178.923,1.71387,-156.731,256
1565116802,342.788,76.7953,-16.0734,178.923,1.71387,-156.731,260
1565116802,342.788,76.7953,-16.0734,178.923,1.71387,-156.731,260
1565116802,342.788,76.7953,-16.0734,178.923,1.71387,-156.731,260
1565116802,342.788,76.7953,-16.0734,178.923,1.71387,-156.731,260
1565116802,342.788,76.7953,-16.0734,178.923,1.71387,-156.731,260
1565116802,342.788,76.7953,-16.0734,178.923,1.71387,-156.731,260
1565116802,342.788,76.7953,-16.0734,178.923,1.71387,-156.731,260
1565116802,342.788,76.7953,-16.0734,178.923,1.71387,-156.731,260
1565116802,342.788,76.7953,-16.0734,178.923,1.71387,-156.731,260
1565116802,342.788,76.7953,-16.0734,178.923,1.71387,-156.731,260
1565116802,342.788,76.7953,-16.0734,178.923,1.71387,-156.731,260
1565116802,342.788,76.7953,-16.0734,178.923,1.71387,-156.731,260
1565116802,342.788,76.7953,-16.0734,178.923,1.71387,-156.731,260
1565116802,342.788,76.7953,-16.0734,178.923,1.71387,-156.731,260
1565116802,342.788,76.7953,-16.0734,178.923,1.71387,-156.731,260
1565116802,342.788,76.7953,-16.0734,178.923,1.69189,-156.731,260
1565116802,342.788,76.7953,-16.0734,178.923,1.69189,-156.731,260
1565116802,342.788,76.7953,-16.0734,178.923,1.69189,-156.731,260
1565116802,342.788,76.7953,-16.0734,178.923,1.69189,-156.731,260
1565116802,342.788,76.7953,-16.0734,178.923,1.69189,-156.731,260
1565116802,342.788,76.7953,-16.0734,178.923,1.69189,-156.731,260
1565116802,342.788,76.7953,-16.0734,178.923,1.69189,-156.753,260
1565116802,342.788,76.7953,-16.0734,178.945,1.69189,-156.753,260
1565116802,342.788,76.7953,-16.0734,178.945,1.69189,-156.753,260
1565116802,342.788,76.7953,-16.0734,178.945,1.69189,-156.753,260
1565116802,342.788,76.7953,-16.0734,178.945,1.69189,-156.753,260
1565116802,342.788,76.7953,-16.0734,178.945,1.69189,-156.753,260
1565116802,342.788,76.7953,-16.0734,178.945,1.69189,-156.753,260
1565116802,342.788,76.7953,-16.0734,178.945,1.69189,-156.753,260
1565116802,342.788,76.7953,-16.0734,178.945,1.69189,-156.753,260
1565116802,342.788,76.7953,-16.0734,178.945,1.69189,-156.753,260
1565116802,342.788,76.7953,-16.0734,178.945,1.71387,-156.753,260
1565116802,342.788,76.7953,-16.0734,178.923,1.71387,-156.753,260
1565116802,342.9,76.7953,-16.0734,178.923,1.69189,-156.753,260
1565116802,342.9,76.7953,-16.0734,178.923,1.69189,-156.753,260
1565116802,342.9,76.7953,-16.0734,178.923,1.69189,-156.753,260
1565116802,342.9,76.7953,-16.0734,178.923,1.69189,-156.753,260
1565116802,342.9,76.7953,-16.0734,178.923,1.69189,-156.731,260
1565116802,342.9,76.7953,-16.0734,178.923,1.69189,-156.731,260
1565116802,342.9,76.7953,-16.0734,178.923,1.69189,-156.731,260
1565116802,342.9,76.7953,-16.0734,178.923,1.69189,-156.731,260
1565116802,342.9,76.7953,-16.0734,178.923,1.69189,-156.731,256
1565116802,342.9,76.7953,-16.0734,178.923,1.69189,-156.731,256
1565116802,342.9,76.7953,-16.0734,178.923,1.69189,-156.731,256
1565116802,342.9,76.7953,-16.0734,178.923,1.69189,-156.731,256
1565116802,342.9,76.7953,-16.0734,178.923,1.71387,-156.731,256
1565116802,342.9,76.7953,-16.0734,178.923,1.71387,-156.731,256
1565116802,342.9,76.7953,-16.0734,178.923,1.71387,-156.731,256
1565116803,342.9,76.7953,-16.0734,178.923,1.71387,-156.731,252
1565116803,342.9,76.7953,-16.0734,178.923,1.71387,-156.731,252
1565116803,342.9,76.7953,-16.0734,178.923,1.71387,-156.731,252
1565116803,342.9,76.7953,-16.0734,178.923,1.71387,-156.731,252
1565116803,342.9,76.7953,-16.0734,178.923,1.71387,-156.731,252
1565116803,342.9,76.7953,-15.9618,178.945,1.71387,-156.731,252
1565116803,342.9,76.7953,-15.9618,178.945,1.71387,-156.753,252
1565116803,342.9,76.7953,-15.9618,178.945,1.71387,-156.753,252
1565116803,342.9,76.7953,-15.9618,178.945,1.71387,-156.753,252
1565116803,342.9,76.7953,-15.9618,178.945,1.71387,-156.753,252
1565116803,342.9,76.7953,-15.9618,178.945,1.71387,-156.753,252
1565116803,342.9,76.7953,-15.9618,178.945,1.71387,-156.753,252
1565116803,342.9,76.7953,-15.9618,178.945,1.71387,-156.753,252
1565116803,342.9,76.7953,-15.9618,178.945,1.71387,-156.753,256
1565116803,342.9,76.7953,-15.9618,178.945,1.71387,-156.753,256
1565116803,342.9,76.7953,-15.9618,178.945,1.71387,-156.753,256
1565116803,342.9,76.7953,-15.9618,178.945,1.71387,-156.753,260
1565116803,342.9,76.7953,-15.9618,178.945,1.71387,-156.753,260
1565116803,342.9,76.7953,-15.9618,178.945,1.71387,-156.753,260
1565116803,342.9,76.7953,-15.9618,178.945,1.71387,-156.753,260
1565116803,342.9,76.7953,-15.9618,178.945,1.71387,-156.753,264
1565116803,342.9,76.7953,-15.9618,178.945,1.71387,-156.753,264
1565116803,342.9,76.7953,-15.9618,178.945,1.71387,-156.753,264
1565116803,342.9,76.7953,-15.9618,178.945,1.71387,-156.753,264
1565116803,342.9,76.7953,-15.9618,178.945,1.71387,-156.753,264
1565116803,342.9,76.7953,-15.9618,178.945,1.71387,-156.753,268
1565116803,342.9,76.7953,-15.9618,178.945,1.71387,-156.753,268
1565116803,342.9,76.7953,-15.9618,178.923,1.71387,-156.753,264
1565116803,342.9,76.7953,-15.9618,178.945,1.71387,-156.753,264
1565116803,342.9,76.7953,-15.9618,178.945,1.71387,-156.753,264
1565116803,342.9,76.7953,-15.9618,178.945,1.71387,-156.753,264
1565116803,342.9,76.7953,-15.9618,178.945,1.71387,-156.753,264
1565116803,342.9,76.9069,-15.9618,178.945,1.71387,-156.753,264
1565116803,342.9,76.9069,-16.0734,178.945,1.69189,-156.753,264
1565116803,342.9,76.9069,-16.0734,178.945,1.69189,-156.753,264
1565116803,342.9,76.9069,-16.0734,178.945,1.69189,-156.753,260
1565116803,342.9,76.9069,-16.0734,178.945,1.69189,-156.753,260
1565116803,342.9,76.9069,-16.0734,178.945,1.69189,-156.753,260
1565116803,342.9,76.9069,-16.0734,178.945,1.69189,-156.775,260
1565116803,342.9,76.9069,-16.0734,178.945,1.69189,-156.775,260
1565116803,342.9,76.9069,-16.0734,178.967,1.69189,-156.775,260
1565116803,342.9,76.9069,-15.9618,178.967,1.69189,-156.775,260
1565116803,342.9,76.9069,-15.9618,178.967,1.69189,-156.775,260
1565116803,342.9,76.9069,-15.9618,178.967,1.71387,-156.775,260
1565116803,342.9,76.9069,-15.9618,178.967,1.71387,-156.775,260
1565116803,342.9,76.9069,-15.9618,178.967,1.71387,-156.753,260
1565116803,342.9,76.9069,-15.9618,178.967,1.71387,-156.753,260
1565116803,342.9,76.9069,-15.9618,178.967,1.71387,-156.753,260
1565116803,342.9,76.9069,-15.9618,178.967,1.71387,-156.753,256
1565116803,342.9,76.9069,-15.9618,178.967,1.71387,-156.753,256
1565116803,342.9,76.9069,-15.9618,178.967,1.71387,-156.753,256
1565116803,342.9,76.9069,-15.9618,178.967,1.71387,-156.753,256
1565116803,342.9,76.9069,-15.9618,178.967,1.71387,-156.753,256
1565116803,342.9,76.9069,-15.9618,178.967,1.69189,-156.753,256
1565116803,342.9,76.9069,-16.0734,178.967,1.69189,-156.753,256
1565116803,342.9,76.9069,-16.0734,178.967,1.69189,-156.753,256
1565116803,342.9,76.9069,-16.0734,178.967,1.69189,-156.753,260
1565116803,342.9,76.9069,-16.0734,178.967,1.69189,-156.753,260
1565116803,342.9,76.9069,-16.0734,178.967,1.69189,-156.753,260
1565116803,342.9,76.9069,-16.0734,178.967,1.69189,-156.753,260
1565116803,342.9,76.9069,-16.0734,178.945,1.69189,-156.753,260
1565116803,342.9,76.9069,-16.0734,178.945,1.69189,-156.753,260
1565116803,342.9,76.9069,-16.0734,178.945,1.69189,-156.731,260
1565116803,342.9,76.9069,-16.0734,178.945,1.69189,-156.731,260
1565116803,342.9,76.9069,-16.0734,178.945,1.69189,-156.731,260
1565116803,342.9,76.9069,-16.0734,178.945,1.71387,-156.753,260
1565116803,342.9,76.9069,-15.9618,178.945,1.71387,-156.753,260
1565116803,342.9,76.9069,-15.9618,178.945,1.71387,-156.753,260
1565116803,342.9,76.9069,-15.9618,178.945,1.71387,-156.753,260
1565116803,342.9,76.9069,-15.9618,178.945,1.71387,-156.753,260
1565116803,342.9,76.9069,-15.9618,178.945,1.71387,-156.753,260
1565116803,342.9,76.9069,-15.9618,178.967,1.71387,-156.753,260
1565116803,342.9,76.9069,-15.9618,178.967,1.71387,-156.753,260
1565116803,342.9,76.9069,-15.9618,178.967,1.71387,-156.753,256
1565116803,342.9,76.9069,-15.9618,178.967,1.71387,-156.753,256
1565116803,342.9,76.9069,-15.9618,178.967,1.71387,-156.753,256
1565116803,342.9,76.9069,-15.9618,178.967,1.71387,-156.753,256
