time,x,y,z,ax,ay,az,q
1569684681,328.166,153.702,-15.1805,178.33,1.77979,-145.349,432
1569684681,328.166,153.702,-15.1805,178.33,1.77979,-145.349,432
1569684681,328.166,153.702,-15.1805,178.33,1.77979,-145.349,432
1569684681,328.166,153.702,-15.1805,178.33,1.77979,-145.349,432
1569684681,328.166,153.702,-15.1805,178.33,1.77979,-145.349,432
1569684681,328.166,153.702,-15.1805,178.33,1.77979,-145.349,432
1569684681,328.166,153.702,-15.1805,178.33,1.77979,-145.349,432
1569684681,328.166,153.702,-15.1805,178.33,1.77979,-145.349,432
1569684681,328.166,153.702,-15.1805,178.33,1.77979,-145.349,432
1569684681,328.166,153.702,-15.1805,178.33,1.77979,-145.349,432
1569684681,328.166,153.702,-15.1805,178.33,1.77979,-145.349,432
1569684681,328.166,153.702,-15.1805,178.33,1.77979,-145.349,436
1569684681,328.166,153.702,-15.1805,178.33,1.77979,-145.349,436
1569684681,328.166,153.702,-15.1805,178.33,1.77979,-145.349,436
1569684681,328.166,153.702,-15.1805,178.352,1.77979,-145.349,436
1569684681,328.166,153.702,-15.1805,178.352,1.77979,-145.349,436
1569684681,328.166,153.814,-15.1805,178.352,1.77979,-145.349,436
1569684681,328.166,153.814,-15.1805,178.352,1.80176,-145.349,436
1569684681,328.166,153.814,-15.1805,178.352,1.80176,-145.349,436
1569684681,328.166,153.814,-15.1805,178.352,1.80176,-145.349,436
1569684681,328.166,153.814,-15.1805,178.352,1.80176,-145.349,436
1569684681,328.166,153.814,-15.1805,178.352,1.80176,-145.349,436
1569684681,328.166,153.814,-15.1805,178.352,1.80176,-145.349,432
1569684681,328.166,153.814,-15.1805,178.352,1.80176,-145.349,432
1569684681,328.166,153.814,-15.1805,178.352,1.80176,-145.349,432
1569684681,328.166,153.814,-15.1805,178.352,1.80176,-145.349,432
1569684681,328.166,153.814,-15.1805,178.352,1.80176,-145.349,432
1569684681,328.166,153.814,-15.1805,178.352,1.80176,-145.349,432
1569684681,328.166,153.814,-15.1805,178.352,1.80176,-145.349,432
1569684681,328.166,153.814,-15.1805,178.33,1.80176,-145.349,432
1569684681,328.166,153.702,-15.1805,178.33,1.80176,-145.349,432
1569684681,328.166,153.702,-15.1805,178.33,1.80176,-145.349,432
1569684681,328.166,153.702,-15.1805,178.33,1.80176,-145.349,432
1569684681,328.166,153.702,-15.1805,178.33,1.80176,-145.349,432
1569684681,328.166,153.702,-15.1805,178.33,1.80176,-145.349,432
1569684681,328.166,153.702,-15.1805,178.33,1.80176,-145.349,432
1569684681,328.166,153.702,-15.1805,178.33,1.80176,-145.349,432
1569684681,328.166,153.702,-15.1805,178.33,1.80176,-145.349,432
1569684681,328.166,153.702,-15.1805,178.308,1.80176,-145.349,432
1569684681,328.166,153.702,-15.1805,178.308,1.80176,-145.349,432
1569684681,328.166,153.702,-15.1805,178.308,1.80176,-145.349,432
1569684681,328.166,153.702,-15.1805,178.308,1.80176,-145.349,432
1569684681,328.166,153.702,-15.1805,178.308,1.80176,-145.349,432
1569684681,328.166,153.702,-15.1805,178.308,1.80176,-145.349,432
1569684681,328.166,153.702,-15.1805,178.308,1.80176,-145.349,432
1569684681,328.166,153.702,-15.1805,178.308,1.80176,-145.349,432
1569684681,328.166,153.702,-15.1805,178.308,1.80176,-145.349,432
1569684681,328.166,153.702,-15.1805,178.308,1.80176,-145.349,432
1569684681,328.166,153.591,-15.1805,178.308,1.80176,-145.349,432
1569684681,328.166,153.591,-15.1805,178.308,1.80176,-145.349,432
1569684681,328.166,153.702,-15.1805,178.308,1.80176,-145.349,432
1569684681,328.166,153.702,-15.1805,178.308,1.77979,-145.349,432
1569684681,328.166,153.702,-15.1805,178.308,1.77979,-145.349,432
1569684681,328.166,153.702,-15.1805,178.308,1.77979,-145.349,432
1569684681,328.166,153.702,-15.1805,178.308,1.77979,-145.349,436
1569684681,328.278,153.591,-15.1805,178.308,1.80176,-145.349,436
1569684681,328.278,153.591,-15.1805,178.308,1.80176,-145.349,436
1569684681,328.278,153.591,-15.1805,178.308,1.80176,-145.349,436
1569684681,328.278,153.591,-15.1805,178.308,1.80176,-145.327,436
1569684681,328.278,153.591,-15.1805,178.308,1.80176,-145.349,436
1569684681,328.166,153.591,-15.1805,178.308,1.80176,-145.349,436
1569684681,328.166,153.591,-15.1805,178.308,1.80176,-145.349,436
1569684681,328.166,153.591,-15.1805,178.308,1.80176,-145.349,436
1569684681,328.166,153.591,-15.1805,178.286,1.80176,-145.349,436
1569684681,328.166,153.591,-15.0688,178.286,1.80176,-145.349,436
1569684681,328.166,153.591,-15.0688,178.286,1.80176,-145.349,432
1569684681,328.166,153.591,-15.1805,178.286,1.80176,-145.349,432
1569684681,328.166,153.591,-15.1805,178.286,1.80176,-145.349,432
1569684681,328.278,153.591,-15.1805,178.286,1.80176,-145.349,432
1569684681,328.278,153.591,-15.1805,178.286,1.80176,-145.349,432
1569684681,328.278,153.591,-15.1805,178.286,1.80176,-145.349,432
1569684681,328.278,153.591,-15.1805,178.286,1.80176,-145.349,432
1569684681,328.278,153.591,-15.1805,178.286,1.80176,-145.349,432
1569684681,328.278,153.591,-15.0688,178.286,1.80176,-145.349,432
1569684682,328.278,153.591,-15.0688,178.286,1.80176,-145.349,432
1569684682,328.278,153.591,-15.0688,178.286,1.82373,-145.349,432
1569684682,328.278,153.591,-15.0688,178.286,1.82373,-145.349,432
1569684682,328.278,153.591,-15.0688,178.286,1.82373,-145.349,432
1569684682,328.278,153.591,-15.0688,178.286,1.82373,-145.349,432
1569684682,328.278,153.591,-15.0688,178.286,1.82373,-145.349,432
1569684682,328.278,153.591,-15.0688,178.286,1.8457,-145.349,432
1569684682,328.278,153.591,-15.0688,178.286,1.8457,-145.349,432
1569684682,328.278,153.591,-15.0688,178.286,1.8457,-145.349,436
1569684682,328.278,153.591,-15.0688,178.286,1.8457,-145.349,436
1569684682,328.278,153.591,-15.0688,178.286,1.8457,-145.349,436
1569684682,328.278,153.591,-15.0688,178.286,1.8457,-145.349,436
1569684682,328.278,153.591,-15.0688,178.286,1.8457,-145.349,436
1569684682,328.278,153.702,-15.0688,178.308,1.8457,-145.349,436
1569684682,328.278,153.702,-15.0688,178.308,1.8457,-145.349,436
1569684682,328.278,153.702,-15.0688,178.308,1.8457,-145.349,436
1569684682,328.278,153.702,-15.0688,178.308,1.8457,-145.349,436
1569684682,328.278,153.702,-15.0688,178.308,1.8457,-145.349,436
1569684682,328.278,153.702,-15.0688,178.308,1.8457,-145.349,436
1569684682,328.278,153.702,-15.0688,178.308,1.8457,-145.349,436
1569684682,328.278,153.702,-15.0688,178.308,1.8457,-145.349,436
1569684682,328.278,153.702,-15.0688,178.308,1.8457,-145.349,436
1569684682,328.278,153.702,-15.0688,178.308,1.8457,-145.349,436
1569684682,328.278,153.702,-15.0688,178.308,1.8457,-145.349,436
1569684682,328.278,153.702,-15.0688,178.308,1.8457,-145.349,436
1569684682,328.278,153.702,-15.0688,178.308,1.8457,-145.349,436
1569684682,328.278,153.702,-15.0688,178.308,1.8457,-145.349,436
1569684682,328.278,153.702,-15.0688,178.308,1.8457,-145.349,436
1569684682,328.278,153.702,-15.0688,178.286,1.8457,-145.349,436
1569684682,328.278,153.591,-15.0688,178.286,1.82373,-145.349,436
1569684682,328.278,153.591,-15.0688,178.286,1.82373,-145.349,440
1569684682,328.278,153.591,-15.0688,178.286,1.82373,-145.349,440
1569684682,328.278,153.591,-15.0688,178.286,1.82373,-145.349,440
1569684682,328.278,153.591,-15.0688,178.286,1.82373,-145.349,440
1569684682,328.278,153.591,-15.0688,178.286,1.82373,-145.349,440
1569684682,328.278,153.591,-15.0688,178.286,1.82373,-145.349,440
1569684682,328.278,153.591,-15.0688,178.286,1.82373,-145.349,440
1569684682,328.278,153.591,-15.0688,178.286,1.82373,-145.371,440
1569684682,328.278,153.591,-15.0688,178.286,1.82373,-145.371,440
1569684682,328.278,153.591,-15.0688,178.286,1.82373,-145.371,440
1569684682,328.278,153.591,-15.0688,178.286,1.82373,-145.371,440
1569684682,328.278,153.591,-15.0688,178.286,1.82373,-145.371,440
1569684682,328.278,153.591,-15.0688,178.286,1.82373,-145.371,440
1569684682,328.278,153.591,-15.0688,178.286,1.82373,-145.371,440
1569684682,328.278,153.591,-15.0688,178.286,1.82373,-145.371,436
1569684682,328.278,153.591,-15.0688,178.286,1.82373,-145.371,436
1569684682,328.278,153.591,-15.0688,178.286,1.82373,-145.371,436
1569684682,328.278,153.591,-15.0688,178.286,1.82373,-145.371,436
1569684682,328.278,153.591,-15.0688,178.286,1.82373,-145.371,436
1569684682,328.278,153.591,-15.0688,178.286,1.80176,-145.349,436
1569684682,328.278,153.591,-15.0688,178.286,1.80176,-145.349,436
1569684682,328.278,153.591,-15.0688,178.286,1.80176,-145.349,436
1569684682,328.278,153.591,-15.0688,178.286,1.80176,-145.349,436
1569684682,328.278,153.591,-15.0688,178.286,1.80176,-145.349,436
1569684682,328.278,153.591,-15.0688,178.286,1.80176,-145.349,432
1569684682,328.278,153.591,-15.0688,178.286,1.80176,-145.349,432
1569684682,328.278,153.591,-15.0688,178.286,1.80176,-145.349,432
1569684682,328.278,153.591,-15.0688,178.286,1.80176,-145.349,432
1569684682,328.278,153.591,-15.0688,178.286,1.80176,-145.349,432
1569684682,328.278,153.591,-15.0688,178.286,1.80176,-145.349,432
1569684682,328.278,153.591,-15.0688,178.286,1.80176,-145.349,432
1569684682,328.278,153.591,-15.0688,178.308,1.80176,-145.349,432
1569684682,328.278,153.591,-15.0688,178.308,1.80176,-145.349,432
1569684682,328.166,153.591,-15.1805,178.308,1.80176,-145.349,432
1569684682,328.166,153.591,-15.1805,178.308,1.80176,-145.349,432
1569684682,328.166,153.591,-15.1805,178.308,1.80176,-145.349,432
1569684682,328.166,153.591,-15.1805,178.286,1.80176,-145.349,432
1569684682,328.166,153.591,-15.1805,178.286,1.80176,-145.349,432
1569684682,328.166,153.591,-15.1805,178.286,1.80176,-145.349,432
1569684682,328.166,153.591,-15.1805,178.286,1.80176,-145.349,436
1569684682,328.166,153.591,-15.1805,178.286,1.80176,-145.349,436
1569684682,328.166,153.591,-15.1805,178.286,1.80176,-145.349,436
1569684682,328.166,153.591,-15.1805,178.286,1.80176,-145.349,436
1569684682,328.166,153.591,-15.1805,178.286,1.80176,-145.349,440
1569684682,328.166,153.591,-15.1805,178.286,1.80176,-145.349,440
1569684682,328.166,153.591,-15.1805,178.286,1.80176,-145.349,440
1569684682,328.166,153.591,-15.1805,178.286,1.77979,-145.349,440
1569684682,328.166,153.591,-15.1805,178.286,1.77979,-145.349,440
1569684682,328.166,153.591,-15.1805,178.308,1.77979,-145.349,444
1569684682,328.166,153.591,-15.1805,178.308,1.77979,-145.349,444
1569684682,328.166,153.591,-15.1805,178.308,1.77979,-145.349,444
1569684682,328.166,153.591,-15.1805,178.308,1.77979,-145.349,444
1569684682,328.166,153.591,-15.1805,178.308,1.77979,-145.349,444
1569684682,328.166,153.591,-15.1805,178.308,1.77979,-145.349,444
1569684682,328.166,153.591,-15.1805,178.308,1.77979,-145.349,444
1569684682,328.166,153.591,-15.2921,178.308,1.75781,-145.349,444
1569684682,328.166,153.591,-15.2921,178.308,1.75781,-145.349,444
1569684682,328.166,153.591,-15.2921,178.308,1.75781,-145.349,444
1569684682,328.166,153.591,-15.2921,178.308,1.75781,-145.349,444
1569684682,328.166,153.591,-15.2921,178.308,1.75781,-145.349,444
1569684682,328.166,153.591,-15.2921,178.308,1.75781,-145.349,444
1569684682,328.166,153.591,-15.2921,178.308,1.75781,-145.349,440
1569684682,328.278,153.591,-15.2921,178.308,1.75781,-145.349,440
1569684682,328.278,153.702,-15.2921,178.308,1.77979,-145.349,440
1569684682,328.278,153.702,-15.1805,178.308,1.77979,-145.349,440
1569684682,328.278,153.702,-15.1805,178.308,1.77979,-145.349,440
1569684682,328.278,153.702,-15.1805,178.308,1.77979,-145.349,440
1569684682,328.278,153.702,-15.1805,178.308,1.77979,-145.349,440
1569684682,328.278,153.702,-15.1805,178.308,1.77979,-145.349,440
1569684682,328.278,153.702,-15.1805,178.308,1.77979,-145.349,436
1569684683,328.278,153.702,-15.1805,178.308,1.77979,-145.349,436
1569684683,328.278,153.702,-15.1805,178.308,1.77979,-145.349,436
1569684683,328.278,153.702,-15.1805,178.308,1.77979,-145.349,436
1569684683,328.278,153.702,-15.1805,178.308,1.77979,-145.349,436
1569684683,328.278,153.702,-15.1805,178.308,1.77979,-145.349,436
1569684683,328.278,153.702,-15.1805,178.308,1.77979,-145.349,436
1569684683,328.278,153.702,-15.1805,178.308,1.77979,-145.349,436
1569684683,328.278,153.702,-15.1805,178.33,1.77979,-145.349,432
1569684683,328.278,153.702,-15.1805,178.33,1.77979,-145.349,432
1569684683,328.278,153.702,-15.1805,178.33,1.77979,-145.349,432
1569684683,328.278,153.702,-15.1805,178.33,1.77979,-145.349,432
1569684683,328.278,153.702,-15.1805,178.33,1.77979,-145.349,432
1569684683,328.278,153.702,-15.1805,178.33,1.77979,-145.349,436
1569684683,328.166,153.702,-15.1805,178.33,1.77979,-145.349,436
1569684683,328.166,153.702,-15.1805,178.33,1.77979,-145.349,436
1569684683,328.166,153.702,-15.1805,178.33,1.77979,-145.349,436
1569684683,328.166,153.702,-15.1805,178.33,1.77979,-145.349,436
1569684683,328.166,153.702,-15.1805,178.33,1.77979,-145.349,436
1569684683,328.166,153.702,-15.2921,178.33,1.77979,-145.349,440
1569684683,328.166,153.702,-15.2921,178.33,1.77979,-145.349,440
1569684683,328.166,153.702,-15.2921,178.33,1.77979,-145.327,440
1569684683,328.166,153.702,-15.2921,178.33,1.77979,-145.327,440
1569684683,328.166,153.702,-15.2921,178.33,1.77979,-145.327,444
1569684683,328.166,153.702,-15.2921,178.33,1.75781,-145.327,444
1569684683,328.166,153.702,-15.2921,178.33,1.75781,-145.327,444
1569684683,328.166,153.702,-15.2921,178.33,1.75781,-145.327,444
1569684683,328.166,153.702,-15.2921,178.33,1.75781,-145.327,444
1569684683,328.166,153.702,-15.2921,178.33,1.75781,-145.327,444
1569684683,328.166,153.702,-15.2921,178.33,1.75781,-145.327,444
1569684683,328.166,153.702,-15.2921,178.33,1.77979,-145.327,444
1569684683,328.166,153.702,-15.2921,178.33,1.77979,-145.349,444
1569684683,328.166,153.702,-15.1805,178.33,1.77979,-145.349,444
1569684683,328.166,153.702,-15.1805,178.33,1.77979,-145.349,444
1569684683,328.166,153.702,-15.1805,178.33,1.77979,-145.349,444
1569684683,328.166,153.702,-15.1805,178.33,1.80176,-145.349,444
1569684683,328.166,153.702,-15.1805,178.33,1.80176,-145.349,444
1569684683,328.166,153.702,-15.1805,178.33,1.80176,-145.349,444
1569684683,328.166,153.702,-15.1805,178.33,1.80176,-145.349,444
1569684683,328.166,153.702,-15.1805,178.33,1.80176,-145.349,444
1569684683,328.166,153.702,-15.1805,178.33,1.80176,-145.349,444
1569684683,328.166,153.702,-15.1805,178.33,1.80176,-145.349,444
1569684683,328.166,153.702,-15.1805,178.33,1.80176,-145.371,444
1569684683,328.166,153.702,-15.1805,178.33,1.80176,-145.371,444
1569684683,328.166,153.702,-15.1805,178.33,1.80176,-145.371,444
1569684683,328.166,153.702,-15.1805,178.33,1.80176,-145.371,440
1569684683,328.166,153.702,-15.1805,178.33,1.77979,-145.371,440
1569684683,328.166,153.702,-15.1805,178.33,1.77979,-145.349,440
1569684683,328.166,153.702,-15.1805,178.33,1.77979,-145.349,440
1569684683,328.166,153.702,-15.1805,178.308,1.80176,-145.349,440
1569684683,328.166,153.702,-15.1805,178.308,1.80176,-145.349,440
1569684683,328.166,153.702,-15.1805,178.308,1.80176,-145.349,440
1569684683,328.166,153.702,-15.1805,178.308,1.80176,-145.349,440
1569684683,328.166,153.702,-15.1805,178.308,1.80176,-145.349,440
1569684683,328.166,153.702,-15.1805,178.308,1.80176,-145.349,436
1569684683,328.166,153.702,-15.1805,178.33,1.80176,-145.349,436
1569684683,328.166,153.702,-15.1805,178.33,1.80176,-145.349,436
1569684683,328.166,153.702,-15.1805,178.33,1.80176,-145.349,436
1569684683,328.166,153.702,-15.1805,178.33,1.80176,-145.349,436
1569684683,328.166,153.702,-15.0688,178.33,1.80176,-145.349,436
1569684683,328.166,153.702,-15.0688,178.33,1.80176,-145.349,436
1569684683,328.166,153.702,-15.0688,178.352,1.80176,-145.349,436
1569684683,328.166,153.702,-15.0688,178.352,1.80176,-145.349,436
1569684683,328.166,153.814,-15.0688,178.352,1.80176,-145.349,436
1569684683,328.166,153.814,-15.0688,178.352,1.80176,-145.349,436
1569684683,328.166,153.814,-15.0688,178.352,1.80176,-145.349,436
1569684683,328.166,153.814,-15.0688,178.352,1.80176,-145.349,432
1569684683,328.166,153.814,-15.0688,178.352,1.80176,-145.349,432
1569684683,328.166,153.814,-15.0688,178.352,1.80176,-145.349,432
1569684683,328.166,153.814,-15.0688,178.352,1.80176,-145.349,432
1569684683,328.166,153.814,-15.0688,178.352,1.80176,-145.349,436
1569684683,328.166,153.814,-15.0688,178.352,1.80176,-145.349,436
1569684683,328.166,153.702,-15.0688,178.33,1.80176,-145.349,436
1569684683,328.166,153.702,-15.0688,178.33,1.80176,-145.349,436
1569684683,328.166,153.702,-15.0688,178.33,1.80176,-145.349,436
1569684683,328.166,153.702,-15.0688,178.33,1.80176,-145.349,436
1569684683,328.166,153.702,-15.0688,178.33,1.80176,-145.349,440
1569684683,328.166,153.702,-15.0688,178.33,1.80176,-145.371,440
1569684683,328.166,153.702,-15.0688,178.33,1.82373,-145.371,440
1569684683,328.166,153.702,-15.0688,178.308,1.82373,-145.371,440
1569684683,328.166,153.702,-15.0688,178.308,1.82373,-145.371,440
1569684683,328.166,153.702,-15.0688,178.308,1.82373,-145.371,444
1569684683,328.166,153.702,-15.0688,178.33,1.82373,-145.371,444
1569684683,328.166,153.702,-15.0688,178.33,1.82373,-145.371,444
1569684683,328.166,153.702,-15.0688,178.33,1.82373,-145.371,444
1569684683,328.166,153.702,-15.0688,178.33,1.82373,-145.371,444
1569684683,328.166,153.702,-15.0688,178.33,1.82373,-145.371,444
1569684683,328.166,153.702,-15.0688,178.33,1.80176,-145.371,444
1569684683,328.166,153.702,-15.0688,178.33,1.80176,-145.349,444
1569684683,328.166,153.702,-15.0688,178.33,1.80176,-145.349,444
1569684683,328.166,153.702,-15.0688,178.33,1.80176,-145.349,444
1569684683,328.166,153.702,-15.1805,178.33,1.80176,-145.349,440
1569684683,328.166,153.702,-15.1805,178.33,1.80176,-145.349,440
1569684683,328.166,153.702,-15.1805,178.33,1.80176,-145.349,440
1569684683,328.166,153.702,-15.1805,178.33,1.80176,-145.349,440
1569684683,328.166,153.702,-15.0688,178.33,1.80176,-145.349,440
1569684683,328.166,153.702,-15.0688,178.33,1.80176,-145.349,440
1569684683,328.166,153.702,-15.0688,178.33,1.80176,-145.349,440
1569684683,328.166,153.702,-15.0688,178.33,1.82373,-145.349,440
1569684683,328.166,153.702,-15.0688,178.308,1.82373,-145.371,436
1569684683,328.278,153.702,-15.0688,178.308,1.82373,-145.371,436
1569684684,328.278,153.702,-15.0688,178.308,1.82373,-145.371,436
1569684684,328.278,153.702,-15.0688,178.308,1.82373,-145.371,436
1569684684,328.278,153.702,-15.0688,178.308,1.82373,-145.371,436
1569684684,328.278,153.702,-15.0688,178.308,1.82373,-145.371,432
1569684684,328.278,153.702,-15.0688,178.308,1.82373,-145.371,432
1569684684,328.278,153.702,-15.0688,178.308,1.82373,-145.371,432
1569684684,328.278,153.702,-15.0688,178.308,1.80176,-145.371,432
1569684684,328.278,153.702,-15.0688,178.308,1.80176,-145.371,428
1569684684,328.278,153.702,-15.0688,178.308,1.80176,-145.371,428
1569684684,328.278,153.702,-15.1805,178.308,1.80176,-145.371,428
1569684684,328.278,153.702,-15.1805,178.308,1.80176,-145.371,428
1569684684,328.278,153.702,-15.1805,178.308,1.80176,-145.371,428
1569684684,328.278,153.702,-15.1805,178.308,1.80176,-145.371,428
1569684684,328.278,153.702,-15.1805,178.308,1.80176,-145.371,428
1569684684,328.278,153.702,-15.1805,178.308,1.80176,-145.371,428
1569684684,328.278,153.702,-15.1805,178.308,1.80176,-145.371,428
1569684684,328.278,153.702,-15.1805,178.308,1.80176,-145.371,428
1569684684,328.278,153.702,-15.1805,178.308,1.80176,-145.371,428
1569684684,328.278,153.702,-15.1805,178.308,1.80176,-145.371,428
1569684684,328.278,153.702,-15.1805,178.308,1.80176,-145.371,428
1569684684,328.278,153.702,-15.1805,178.308,1.80176,-145.371,428
1569684684,328.278,153.702,-15.1805,178.308,1.80176,-145.371,428
1569684684,328.278,153.702,-15.1805,178.308,1.80176,-145.371,428
1569684684,328.278,153.702,-15.1805,178.308,1.80176,-145.371,428
1569684684,328.278,153.702,-15.1805,178.308,1.80176,-145.371,428
1569684684,328.278,153.702,-15.1805,178.308,1.80176,-145.371,428
1569684684,328.278,153.702,-15.1805,178.33,1.80176,-145.371,428
1569684684,328.278,153.702,-15.1805,178.33,1.80176,-145.371,428
1569684684,328.278,153.702,-15.1805,178.33,1.80176,-145.371,428
1569684684,328.278,153.702,-15.1805,178.33,1.80176,-145.371,424
1569684684,328.278,153.702,-15.1805,178.33,1.80176,-145.371,424
1569684684,328.278,153.702,-15.0688,178.33,1.80176,-145.371,424
1569684684,328.278,153.702,-15.0688,178.33,1.80176,-145.371,424
1569684684,328.278,153.702,-15.0688,178.33,1.80176,-145.371,424
1569684684,328.278,153.702,-15.0688,178.33,1.80176,-145.371,424
1569684684,328.278,153.702,-15.0688,178.33,1.80176,-145.371,424
1569684684,328.278,153.702,-15.0688,178.33,1.80176,-145.371,424
1569684684,328.278,153.702,-15.0688,178.33,1.80176,-145.371,424
1569684684,328.278,153.702,-15.0688,178.33,1.82373,-145.371,424
1569684684,328.278,153.702,-15.0688,178.33,1.82373,-145.371,424
1569684684,328.278,153.702,-15.0688,178.33,1.82373,-145.371,424
1569684684,328.278,153.702,-15.0688,178.33,1.82373,-145.371,424
1569684684,328.278,153.702,-15.0688,178.33,1.82373,-145.371,424
1569684684,328.166,153.702,-15.0688,178.33,1.82373,-145.349,424
1569684684,328.166,153.702,-15.0688,178.33,1.82373,-145.349,424
1569684684,328.166,153.702,-15.0688,178.33,1.82373,-145.349,428
1569684684,328.166,153.702,-15.0688,178.33,1.82373,-145.349,428
1569684684,328.166,153.702,-15.0688,178.33,1.82373,-145.349,428
1569684684,328.166,153.702,-15.0688,178.33,1.82373,-145.349,428
1569684684,328.166,153.702,-15.0688,178.33,1.82373,-145.349,428
1569684684,328.166,153.702,-15.0688,178.33,1.82373,-145.349,432
1569684684,328.166,153.702,-15.0688,178.33,1.82373,-145.349,432
1569684684,328.166,153.702,-15.1805,178.33,1.80176,-145.349,432
1569684684,328.166,153.702,-15.1805,178.33,1.80176,-145.349,432
1569684684,328.166,153.702,-15.1805,178.33,1.80176,-145.349,432
1569684684,328.166,153.702,-15.1805,178.33,1.80176,-145.349,432
1569684684,328.166,153.702,-15.1805,178.33,1.80176,-145.349,436
1569684684,328.166,153.702,-15.1805,178.33,1.80176,-145.349,436
1569684684,328.166,153.702,-15.1805,178.33,1.80176,-145.349,436
1569684684,328.166,153.702,-15.1805,178.33,1.80176,-145.349,436
1569684684,328.166,153.702,-15.1805,178.33,1.80176,-145.349,436
1569684684,328.166,153.702,-15.1805,178.33,1.80176,-145.349,440
1569684684,328.166,153.702,-15.1805,178.33,1.80176,-145.349,440
1569684684,328.166,153.702,-15.1805,178.33,1.80176,-145.349,440
1569684684,328.166,153.702,-15.1805,178.33,1.80176,-145.349,440
1569684684,328.166,153.702,-15.1805,178.33,1.80176,-145.349,440
1569684684,328.166,153.702,-15.1805,178.33,1.80176,-145.349,440
1569684684,328.166,153.702,-15.1805,178.33,1.80176,-145.349,440
1569684684,328.166,153.702,-15.1805,178.33,1.77979,-145.349,440
1569684684,328.166,153.702,-15.1805,178.33,1.77979,-145.349,440
1569684684,328.166,153.702,-15.1805,178.33,1.77979,-145.349,440
1569684684,328.166,153.702,-15.1805,178.33,1.77979,-145.349,436
1569684684,328.166,153.702,-15.1805,178.33,1.77979,-145.349,436
1569684684,328.166,153.702,-15.1805,178.33,1.77979,-145.349,436
1569684684,328.166,153.702,-15.1805,178.33,1.77979,-145.349,436
1569684684,328.166,153.702,-15.1805,178.352,1.77979,-145.349,436
1569684684,328.166,153.702,-15.1805,178.352,1.77979,-145.349,436
1569684684,328.166,153.702,-15.1805,178.352,1.77979,-145.349,436
1569684684,328.166,153.702,-15.1805,178.352,1.77979,-145.349,436
1569684684,328.166,153.702,-15.1805,178.352,1.77979,-145.349,436
1569684684,328.166,153.702,-15.1805,178.352,1.77979,-145.349,436
1569684684,328.278,153.702,-15.1805,178.33,1.77979,-145.349,436
1569684684,328.278,153.702,-15.1805,178.33,1.77979,-145.349,436
1569684684,328.278,153.702,-15.1805,178.33,1.77979,-145.349,436
1569684684,328.278,153.702,-15.1805,178.33,1.77979,-145.327,436
1569684684,328.278,153.702,-15.1805,178.33,1.77979,-145.349,436
1569684684,328.278,153.702,-15.1805,178.33,1.77979,-145.349,436
1569684684,328.278,153.702,-15.1805,178.33,1.77979,-145.349,436
1569684684,328.278,153.702,-15.1805,178.33,1.77979,-145.349,436
1569684684,328.278,153.702,-15.1805,178.33,1.77979,-145.349,436
1569684684,328.278,153.702,-15.1805,178.33,1.77979,-145.327,436
1569684684,328.278,153.702,-15.1805,178.33,1.77979,-145.327,436
1569684684,328.278,153.702,-15.1805,178.33,1.77979,-145.327,436
1569684684,328.278,153.702,-15.1805,178.33,1.77979,-145.327,432
1569684684,328.278,153.702,-15.1805,178.33,1.80176,-145.327,432
1569684684,328.278,153.702,-15.1805,178.33,1.80176,-145.349,432
1569684684,328.278,153.702,-15.1805,178.308,1.80176,-145.349,432
1569684684,328.278,153.702,-15.1805,178.308,1.80176,-145.349,428
1569684684,328.278,153.702,-15.1805,178.308,1.80176,-145.349,428
1569684684,328.278,153.702,-15.1805,178.308,1.80176,-145.349,428
1569684685,328.278,153.702,-15.1805,178.308,1.80176,-145.349,428
1569684685,328.278,153.702,-15.1805,178.308,1.80176,-145.349,428
1569684685,328.278,153.702,-15.1805,178.308,1.80176,-145.349,424
1569684685,328.278,153.702,-15.1805,178.308,1.80176,-145.349,424
1569684685,328.278,153.702,-15.1805,178.308,1.80176,-145.349,424
1569684685,328.278,153.702,-15.1805,178.308,1.80176,-145.349,424
1569684685,328.278,153.702,-15.1805,178.308,1.80176,-145.349,424
1569684685,328.278,153.702,-15.1805,178.308,1.80176,-145.349,424
1569684685,328.278,153.702,-15.1805,178.308,1.80176,-145.349,424
1569684685,328.278,153.702,-15.1805,178.308,1.80176,-145.349,424
1569684685,328.278,153.702,-15.1805,178.33,1.80176,-145.327,424
1569684685,328.278,153.702,-15.1805,178.33,1.80176,-145.327,424
1569684685,328.278,153.702,-15.1805,178.33,1.80176,-145.327,424
1569684685,328.278,153.702,-15.1805,178.33,1.80176,-145.327,424
1569684685,328.278,153.702,-15.1805,178.33,1.80176,-145.327,424
1569684685,328.278,153.702,-15.1805,178.33,1.80176,-145.327,424
1569684685,328.278,153.702,-15.1805,178.33,1.80176,-145.327,424
1569684685,328.278,153.702,-15.1805,178.33,1.80176,-145.327,428
1569684685,328.166,153.702,-15.1805,178.308,1.77979,-145.327,428
1569684685,328.166,153.702,-15.1805,178.308,1.77979,-145.327,428
1569684685,328.166,153.702,-15.1805,178.308,1.77979,-145.327,428
1569684685,328.166,153.702,-15.1805,178.308,1.77979,-145.327,428
1569684685,328.166,153.702,-15.1805,178.308,1.77979,-145.327,432
1569684685,328.166,153.702,-15.1805,178.33,1.77979,-145.327,432
1569684685,328.166,153.702,-15.1805,178.33,1.77979,-145.327,432
1569684685,328.166,153.702,-15.1805,178.33,1.77979,-145.327,432
1569684685,328.166,153.702,-15.1805,178.33,1.77979,-145.327,432
1569684685,328.166,153.702,-15.1805,178.33,1.77979,-145.327,432
1569684685,328.166,153.702,-15.1805,178.308,1.77979,-145.327,432
1569684685,328.278,153.702,-15.1805,178.308,1.77979,-145.327,432
1569684685,328.278,153.702,-15.1805,178.308,1.77979,-145.327,432
1569684685,328.278,153.702,-15.1805,178.308,1.77979,-145.349,436
1569684685,328.278,153.702,-15.1805,178.308,1.77979,-145.349,436
1569684685,328.278,153.702,-15.1805,178.308,1.77979,-145.349,436
1569684685,328.278,153.702,-15.1805,178.308,1.77979,-145.349,436
1569684685,328.278,153.702,-15.1805,178.308,1.77979,-145.349,436
1569684685,328.278,153.702,-15.1805,178.308,1.77979,-145.349,436
1569684685,328.278,153.702,-15.1805,178.308,1.77979,-145.349,436
1569684685,328.278,153.702,-15.1805,178.308,1.77979,-145.349,436
1569684685,328.278,153.702,-15.1805,178.308,1.77979,-145.349,436
1569684685,328.278,153.702,-15.1805,178.308,1.77979,-145.349,436
1569684685,328.278,153.702,-15.1805,178.308,1.77979,-145.349,436
1569684685,328.166,153.702,-15.1805,178.308,1.77979,-145.349,436
1569684685,328.166,153.702,-15.1805,178.308,1.77979,-145.349,436
1569684685,328.166,153.702,-15.1805,178.308,1.77979,-145.349,436
1569684685,328.166,153.702,-15.1805,178.308,1.80176,-145.349,436
1569684685,328.166,153.702,-15.1805,178.308,1.80176,-145.349,436
1569684685,328.166,153.702,-15.1805,178.308,1.80176,-145.349,436
1569684685,328.166,153.702,-15.1805,178.308,1.80176,-145.349,436
1569684685,328.166,153.702,-15.1805,178.33,1.80176,-145.349,436
1569684685,328.166,153.702,-15.1805,178.33,1.80176,-145.349,436
1569684685,328.166,153.702,-15.1805,178.33,1.80176,-145.349,436
1569684685,328.166,153.702,-15.1805,178.33,1.80176,-145.349,436
1569684685,328.166,153.702,-15.1805,178.33,1.80176,-145.349,436
1569684685,328.166,153.702,-15.1805,178.33,1.80176,-145.349,436
1569684685,328.166,153.702,-15.1805,178.33,1.80176,-145.371,436
1569684685,328.166,153.702,-15.1805,178.33,1.77979,-145.371,436
1569684685,328.166,153.702,-15.1805,178.33,1.77979,-145.371,436
1569684685,328.166,153.702,-15.1805,178.308,1.77979,-145.371,432
1569684685,328.166,153.702,-15.1805,178.308,1.77979,-145.371,432
1569684685,328.166,153.702,-15.1805,178.308,1.77979,-145.371,432
1569684685,328.278,153.702,-15.1805,178.308,1.80176,-145.371,432
1569684685,328.278,153.702,-15.1805,178.308,1.80176,-145.371,432
1569684685,328.278,153.702,-15.1805,178.308,1.80176,-145.371,432
1569684685,328.278,153.702,-15.1805,178.308,1.80176,-145.371,432
1569684685,328.278,153.702,-15.1805,178.308,1.80176,-145.371,432
1569684685,328.278,153.702,-15.1805,178.308,1.80176,-145.371,432
1569684685,328.278,153.702,-15.1805,178.308,1.80176,-145.371,432
1569684685,328.278,153.702,-15.1805,178.308,1.80176,-145.371,432
1569684685,328.278,153.702,-15.1805,178.308,1.77979,-145.371,432
1569684685,328.278,153.702,-15.1805,178.308,1.77979,-145.371,428
1569684685,328.278,153.702,-15.1805,178.308,1.77979,-145.371,428
1569684685,328.278,153.702,-15.1805,178.308,1.77979,-145.371,432
1569684685,328.278,153.702,-15.1805,178.308,1.77979,-145.371,432
1569684685,328.278,153.702,-15.1805,178.308,1.77979,-145.371,432
1569684685,328.278,153.702,-15.1805,178.308,1.77979,-145.371,432
1569684685,328.278,153.702,-15.1805,178.308,1.77979,-145.371,432
1569684685,328.278,153.702,-15.1805,178.308,1.77979,-145.371,432
1569684685,328.278,153.702,-15.1805,178.308,1.77979,-145.349,432
1569684685,328.278,153.702,-15.1805,178.308,1.77979,-145.349,436
1569684685,328.278,153.702,-15.1805,178.308,1.77979,-145.349,436
1569684685,328.278,153.702,-15.1805,178.308,1.77979,-145.349,436
1569684685,328.278,153.702,-15.1805,178.308,1.77979,-145.349,436
1569684685,328.278,153.702,-15.1805,178.308,1.77979,-145.349,436
1569684685,328.278,153.702,-15.1805,178.308,1.77979,-145.349,436
1569684685,328.278,153.702,-15.1805,178.308,1.77979,-145.349,440
1569684685,328.278,153.702,-15.1805,178.308,1.77979,-145.349,440
1569684685,328.278,153.702,-15.1805,178.308,1.77979,-145.349,440
1569684685,328.278,153.702,-15.1805,178.308,1.80176,-145.349,440
1569684685,328.278,153.702,-15.1805,178.308,1.80176,-145.349,440
1569684685,328.278,153.702,-15.1805,178.308,1.80176,-145.349,444
1569684685,328.278,153.702,-15.1805,178.308,1.80176,-145.349,444
1569684685,328.278,153.702,-15.1805,178.308,1.80176,-145.349,444
1569684685,328.278,153.702,-15.1805,178.308,1.80176,-145.349,444
1569684685,328.278,153.702,-15.1805,178.308,1.80176,-145.349,444
1569684685,328.278,153.702,-15.1805,178.308,1.80176,-145.349,444
1569684685,328.278,153.702,-15.1805,178.308,1.80176,-145.349,444
1569684685,328.278,153.702,-15.1805,178.308,1.80176,-145.349,444
1569684685,328.278,153.702,-15.1805,178.308,1.80176,-145.349,444
1569684685,328.278,153.702,-15.1805,178.308,1.80176,-145.371,444
1569684686,328.278,153.702,-15.1805,178.308,1.80176,-145.371,444
1569684686,328.278,153.702,-15.1805,178.308,1.80176,-145.371,444
1569684686,328.278,153.702,-15.1805,178.308,1.80176,-145.371,444
1569684686,328.278,153.702,-15.1805,178.308,1.80176,-145.371,444
1569684686,328.278,153.702,-15.1805,178.308,1.80176,-145.371,444
1569684686,328.278,153.702,-15.1805,178.308,1.80176,-145.371,440
1569684686,328.278,153.702,-15.1805,178.308,1.80176,-145.371,440
1569684686,328.278,153.702,-15.1805,178.308,1.80176,-145.371,440
1569684686,328.166,153.702,-15.1805,178.308,1.80176,-145.371,440
1569684686,328.166,153.702,-15.1805,178.33,1.80176,-145.371,440
1569684686,328.166,153.814,-15.1805,178.33,1.80176,-145.371,440
1569684686,328.166,153.814,-15.1805,178.33,1.80176,-145.371,440
1569684686,328.278,153.814,-15.1805,178.33,1.80176,-145.349,436
1569684686,328.278,153.814,-15.1805,178.33,1.80176,-145.349,436
1569684686,328.278,153.814,-15.1805,178.33,1.80176,-145.349,436
1569684686,328.278,153.814,-15.1805,178.33,1.77979,-145.349,436
1569684686,328.278,153.814,-15.1805,178.33,1.77979,-145.349,436
1569684686,328.278,153.814,-15.1805,178.33,1.77979,-145.349,436
1569684686,328.278,153.814,-15.1805,178.33,1.77979,-145.349,432
1569684686,328.278,153.814,-15.1805,178.33,1.77979,-145.371,432
1569684686,328.278,153.814,-15.1805,178.33,1.77979,-145.371,432
1569684686,328.278,153.814,-15.1805,178.33,1.77979,-145.371,432
1569684686,328.278,153.814,-15.1805,178.33,1.77979,-145.371,428
1569684686,328.278,153.814,-15.1805,178.33,1.80176,-145.371,428
1569684686,328.278,153.814,-15.1805,178.33,1.80176,-145.371,428
1569684686,328.278,153.814,-15.1805,178.33,1.80176,-145.371,428
1569684690,343.235,137.294,-15.0688,178.418,1.604,-145.063,468
1569684690,343.346,137.294,-15.0688,178.418,1.604,-145.063,464
1569684690,343.346,137.294,-15.0688,178.418,1.604,-145.063,464
1569684690,343.346,137.294,-15.0688,178.418,1.604,-145.063,460
1569684690,343.346,137.294,-15.0688,178.418,1.604,-145.063,460
1569684690,343.346,137.182,-15.0688,178.418,1.604,-145.063,460
1569684690,343.346,137.182,-15.0688,178.418,1.604,-145.063,456
1569684690,343.346,137.182,-15.0688,178.418,1.604,-145.063,456
1569684690,343.346,137.182,-15.0688,178.418,1.604,-145.063,456
1569684690,343.346,137.182,-15.0688,178.418,1.604,-145.063,456
1569684690,343.346,137.182,-15.0688,178.418,1.604,-145.063,456
1569684690,343.346,137.182,-15.0688,178.418,1.604,-145.063,456
1569684690,343.346,137.182,-15.0688,178.418,1.604,-145.063,456
1569684690,343.235,137.182,-15.0688,178.418,1.604,-145.063,456
1569684690,343.235,137.182,-15.0688,178.418,1.604,-145.063,460
1569684690,343.235,137.182,-15.0688,178.396,1.604,-145.063,460
1569684690,343.235,137.182,-15.0688,178.396,1.604,-145.063,460
1569684690,343.346,137.182,-15.0688,178.396,1.604,-145.063,460
1569684690,343.346,137.182,-15.0688,178.396,1.604,-145.063,460
1569684690,343.346,137.182,-15.0688,178.396,1.604,-145.063,460
1569684690,343.346,137.182,-15.0688,178.396,1.604,-145.063,460
1569684690,343.346,137.182,-15.0688,178.396,1.604,-145.063,460
1569684690,343.346,137.182,-15.0688,178.396,1.604,-145.063,460
1569684690,343.346,137.182,-15.0688,178.396,1.604,-145.063,460
1569684690,343.346,137.182,-15.0688,178.396,1.604,-145.063,460
1569684690,343.346,137.182,-15.0688,178.396,1.604,-145.063,460
1569684690,343.346,137.182,-15.0688,178.418,1.604,-145.063,460
1569684690,343.346,137.182,-15.0688,178.418,1.604,-145.063,456
1569684690,343.346,137.182,-15.0688,178.418,1.604,-145.063,456
1569684690,343.346,137.182,-15.0688,178.418,1.604,-145.063,456
1569684690,343.346,137.182,-15.0688,178.418,1.604,-145.063,456
1569684690,343.346,137.182,-15.0688,178.418,1.604,-145.063,456
1569684690,343.346,137.182,-15.0688,178.418,1.604,-145.063,456
1569684691,343.346,137.182,-15.0688,178.418,1.604,-145.063,456
1569684691,343.346,137.294,-15.0688,178.418,1.604,-145.063,456
1569684691,343.346,137.294,-15.0688,178.418,1.604,-145.063,456
1569684691,343.346,137.294,-15.0688,178.418,1.604,-145.063,456
1569684691,343.346,137.294,-15.0688,178.418,1.604,-145.063,456
1569684691,343.346,137.294,-14.9572,178.418,1.604,-145.063,456
1569684691,343.346,137.294,-14.9572,178.418,1.62598,-145.063,456
1569684691,343.346,137.294,-14.9572,178.418,1.62598,-145.063,456
1569684691,343.346,137.294,-14.9572,178.418,1.62598,-145.063,456
1569684691,343.346,137.294,-14.9572,178.418,1.62598,-145.063,456
1569684691,343.346,137.294,-14.9572,178.418,1.62598,-145.063,456
1569684691,343.346,137.294,-14.9572,178.418,1.62598,-145.063,456
1569684691,343.346,137.294,-14.9572,178.418,1.62598,-145.063,456
1569684691,343.346,137.294,-14.9572,178.418,1.62598,-145.063,456
1569684691,343.346,137.294,-14.9572,178.418,1.62598,-145.085,456
1569684691,343.346,137.294,-14.9572,178.418,1.62598,-145.085,456
1569684691,343.346,137.294,-14.9572,178.418,1.62598,-145.085,456
1569684691,343.346,137.294,-14.9572,178.418,1.62598,-145.085,456
1569684691,343.346,137.294,-14.9572,178.418,1.62598,-145.085,456
1569684691,343.346,137.294,-14.9572,178.418,1.62598,-145.085,456
1569684691,343.346,137.294,-14.9572,178.418,1.62598,-145.085,456
1569684691,343.346,137.294,-14.9572,178.418,1.62598,-145.085,456
1569684691,343.346,137.294,-14.9572,178.418,1.62598,-145.085,456
1569684691,343.346,137.294,-14.9572,178.418,1.62598,-145.085,456
1569684691,343.346,137.294,-14.9572,178.418,1.62598,-145.085,456
1569684691,343.346,137.294,-14.9572,178.418,1.62598,-145.085,456
1569684691,343.346,137.294,-14.9572,178.418,1.62598,-145.063,456
1569684691,343.346,137.182,-14.9572,178.418,1.62598,-145.063,456
1569684691,343.346,137.182,-14.9572,178.418,1.62598,-145.063,456
1569684691,343.235,137.182,-14.9572,178.418,1.62598,-145.063,460
1569684691,343.235,137.182,-14.9572,178.418,1.604,-145.063,460
1569684691,343.235,137.182,-14.9572,178.418,1.604,-145.063,460
1569684691,343.235,137.182,-15.0688,178.418,1.604,-145.063,460
1569684691,343.235,137.182,-15.0688,178.418,1.604,-145.063,460
1569684691,343.235,137.182,-15.0688,178.418,1.604,-145.063,460
1569684691,343.235,137.182,-15.0688,178.418,1.604,-145.063,460
1569684691,343.235,137.182,-15.0688,178.418,1.604,-145.063,460
1569684691,343.235,137.182,-15.0688,178.418,1.604,-145.063,460
1569684691,343.235,137.182,-15.0688,178.418,1.604,-145.063,464
1569684691,343.235,137.182,-15.0688,178.418,1.604,-145.063,464
1569684691,343.235,137.182,-15.0688,178.418,1.604,-145.063,464
1569684691,343.235,137.182,-15.0688,178.418,1.604,-145.063,464
1569684691,343.235,137.182,-15.0688,178.396,1.604,-145.063,464
1569684691,343.235,137.182,-15.0688,178.396,1.58203,-145.063,464
1569684691,343.235,137.182,-15.0688,178.396,1.58203,-145.063,464
1569684691,343.235,137.182,-15.0688,178.396,1.58203,-145.063,464
1569684691,343.235,137.182,-15.0688,178.396,1.58203,-145.063,464
1569684691,343.235,137.182,-15.0688,178.396,1.58203,-145.063,464
1569684691,343.235,137.182,-15.0688,178.396,1.58203,-145.063,464
1569684691,343.235,137.182,-15.0688,178.396,1.58203,-145.063,464
1569684691,343.235,137.071,-15.0688,178.396,1.58203,-145.063,464
1569684691,343.235,137.071,-15.0688,178.396,1.58203,-145.063,464
1569684691,343.235,137.071,-15.0688,178.396,1.58203,-145.063,464
1569684691,343.235,137.071,-15.0688,178.396,1.58203,-145.063,464
1569684691,343.235,137.071,-15.0688,178.396,1.58203,-145.063,464
1569684691,343.346,137.182,-15.0688,178.396,1.58203,-145.063,464
1569684691,343.346,137.182,-15.0688,178.396,1.58203,-145.063,464
1569684691,343.346,137.182,-15.0688,178.396,1.58203,-145.063,464
1569684691,343.346,137.182,-15.0688,178.396,1.58203,-145.063,464
1569684691,343.346,137.182,-15.0688,178.396,1.58203,-145.063,464
1569684691,343.346,137.182,-15.0688,178.396,1.58203,-145.085,464
1569684691,343.346,137.182,-15.0688,178.396,1.58203,-145.085,464
1569684691,343.346,137.182,-15.0688,178.396,1.58203,-145.085,464
1569684691,343.346,137.182,-15.0688,178.396,1.58203,-145.085,464
1569684691,343.346,137.182,-15.0688,178.396,1.58203,-145.085,464
1569684691,343.346,137.182,-15.0688,178.396,1.604,-145.085,464
1569684691,343.346,137.182,-15.0688,178.418,1.604,-145.085,464
1569684691,343.346,137.182,-14.9572,178.418,1.604,-145.085,464
1569684691,343.346,137.182,-14.9572,178.418,1.604,-145.085,464
1569684691,343.346,137.294,-14.9572,178.418,1.604,-145.085,464
1569684691,343.346,137.294,-14.9572,178.418,1.604,-145.085,464
1569684691,343.346,137.294,-14.9572,178.418,1.604,-145.085,460
1569684691,343.346,137.294,-14.9572,178.418,1.62598,-145.085,460
1569684691,343.346,137.294,-14.9572,178.418,1.62598,-145.085,460
1569684691,343.346,137.294,-14.9572,178.418,1.62598,-145.085,460
1569684691,343.346,137.294,-14.9572,178.418,1.62598,-145.085,456
1569684691,343.346,137.294,-14.9572,178.418,1.62598,-145.085,456
1569684691,343.346,137.294,-14.9572,178.418,1.62598,-145.085,456
1569684691,343.346,137.294,-14.9572,178.418,1.62598,-145.085,456
1569684691,343.346,137.294,-14.9572,178.418,1.62598,-145.085,456
1569684691,343.346,137.294,-14.9572,178.418,1.62598,-145.085,452
1569684691,343.346,137.294,-14.9572,178.418,1.62598,-145.085,452
1569684691,343.346,137.294,-14.9572,178.418,1.62598,-145.085,452
1569684691,343.346,137.294,-14.9572,178.418,1.62598,-145.063,452
1569684691,343.346,137.294,-14.9572,178.418,1.62598,-145.063,452
1569684691,343.346,137.294,-14.9572,178.418,1.62598,-145.063,452
1569684691,343.346,137.294,-14.9572,178.418,1.62598,-145.063,452
1569684691,343.346,137.294,-14.9572,178.418,1.62598,-145.063,452
1569684691,343.346,137.294,-14.9572,178.418,1.62598,-145.063,452
1569684691,343.346,137.294,-14.9572,178.418,1.62598,-145.063,452
1569684691,343.346,137.182,-14.9572,178.418,1.62598,-145.063,452
1569684691,343.346,137.182,-14.9572,178.418,1.62598,-145.063,452
1569684691,343.346,137.182,-14.9572,178.396,1.62598,-145.063,452
1569684691,343.346,137.182,-14.9572,178.396,1.62598,-145.063,452
1569684691,343.346,137.182,-14.9572,178.396,1.62598,-145.063,452
1569684691,343.346,137.182,-14.9572,178.418,1.62598,-145.063,452
1569684691,343.346,137.182,-14.9572,178.418,1.62598,-145.063,456
1569684691,343.346,137.182,-14.9572,178.396,1.604,-145.063,456
1569684691,343.346,137.182,-14.9572,178.396,1.604,-145.085,456
1569684691,343.346,137.182,-14.9572,178.396,1.604,-145.085,456
1569684692,343.346,137.182,-15.0688,178.396,1.604,-145.085,456
1569684692,343.346,137.182,-15.0688,178.396,1.604,-145.085,456
1569684692,343.346,137.182,-15.0688,178.396,1.604,-145.085,456
1569684692,343.346,137.182,-15.0688,178.396,1.604,-145.085,456
1569684692,343.346,137.182,-15.0688,178.396,1.58203,-145.085,456
1569684692,343.346,137.182,-15.0688,178.396,1.58203,-145.085,456
1569684692,343.346,137.182,-15.0688,178.396,1.58203,-145.085,456
1569684692,343.346,137.182,-15.0688,178.396,1.58203,-145.085,456
1569684692,343.346,137.182,-15.0688,178.396,1.58203,-145.063,456
1569684692,343.346,137.182,-15.0688,178.396,1.58203,-145.063,456
1569684692,343.346,137.182,-15.0688,178.396,1.58203,-145.063,460
1569684692,343.346,137.182,-15.0688,178.396,1.58203,-145.063,460
1569684692,343.346,137.182,-15.0688,178.396,1.56006,-145.063,460
1569684692,343.346,137.182,-15.0688,178.396,1.56006,-145.063,460
1569684692,343.346,137.182,-15.0688,178.396,1.56006,-145.063,464
1569684692,343.346,137.182,-15.1805,178.396,1.56006,-145.063,464
1569684692,343.346,137.182,-15.1805,178.396,1.56006,-145.063,464
1569684692,343.346,137.182,-15.0688,178.396,1.56006,-145.063,464
1569684692,343.235,137.182,-15.0688,178.418,1.56006,-145.063,464
1569684692,343.346,137.182,-15.0688,178.418,1.56006,-145.085,464
1569684692,343.346,137.182,-15.0688,178.418,1.56006,-145.085,464
1569684692,343.346,137.182,-15.0688,178.418,1.56006,-145.085,464
1569684692,343.346,137.182,-15.0688,178.418,1.56006,-145.085,464
1569684692,343.346,137.182,-15.0688,178.418,1.56006,-145.085,464
1569684692,343.235,137.182,-15.0688,178.418,1.56006,-145.085,464
1569684692,343.235,137.182,-15.0688,178.418,1.56006,-145.085,464
1569684692,343.235,137.182,-15.0688,178.418,1.56006,-145.085,464
1569684692,343.235,137.294,-15.0688,178.418,1.58203,-145.085,464
1569684692,343.235,137.294,-15.0688,178.418,1.58203,-145.085,464
1569684692,343.235,137.294,-15.0688,178.418,1.58203,-145.085,464
1569684692,343.235,137.294,-15.0688,178.418,1.58203,-145.085,464
1569684692,343.235,137.294,-15.0688,178.418,1.58203,-145.085,464
1569684692,343.235,137.294,-15.0688,178.418,1.58203,-145.085,464
1569684692,343.235,137.294,-15.0688,178.418,1.604,-145.085,464
1569684692,343.235,137.294,-15.0688,178.418,1.604,-145.085,464
1569684692,343.235,137.294,-15.0688,178.418,1.604,-145.085,464
1569684692,343.235,137.294,-14.9572,178.418,1.604,-145.085,464
1569684692,343.235,137.294,-14.9572,178.418,1.604,-145.085,464
1569684692,343.235,137.294,-14.9572,178.418,1.604,-145.085,464
1569684692,343.235,137.182,-14.9572,178.418,1.604,-145.063,464
1569684692,343.235,137.182,-14.9572,178.418,1.604,-145.063,464
1569684692,343.235,137.182,-14.9572,178.418,1.62598,-145.063,468
1569684692,343.235,137.182,-14.9572,178.418,1.62598,-145.063,468
1569684692,343.235,137.182,-14.9572,178.418,1.62598,-145.063,468
1569684692,343.235,137.182,-14.9572,178.418,1.62598,-145.063,468
1569684692,343.235,137.182,-14.9572,178.418,1.62598,-145.063,468
1569684692,343.235,137.182,-14.9572,178.418,1.62598,-145.063,468
1569684692,343.235,137.182,-14.9572,178.418,1.62598,-145.063,468
1569684692,343.235,137.182,-14.9572,178.418,1.62598,-145.063,468
1569684692,343.235,137.182,-14.9572,178.418,1.62598,-145.063,468
1569684692,343.235,137.182,-14.9572,178.418,1.604,-145.063,468
1569684692,343.235,137.182,-14.9572,178.418,1.604,-145.063,468
1569684692,343.235,137.182,-14.9572,178.418,1.604,-145.063,468
1569684692,343.235,137.182,-14.9572,178.418,1.604,-145.063,468
1569684692,343.235,137.182,-14.9572,178.418,1.604,-145.063,468
1569684692,343.235,137.182,-14.9572,178.418,1.604,-145.063,468
1569684692,343.235,137.182,-14.9572,178.418,1.604,-145.085,468
1569684692,343.235,137.182,-14.9572,178.418,1.604,-145.085,468
1569684692,343.235,137.182,-14.9572,178.418,1.604,-145.085,468
1569684692,343.235,137.182,-14.9572,178.418,1.604,-145.085,472
1569684692,343.235,137.182,-14.9572,178.418,1.604,-145.085,472
1569684692,343.235,137.182,-14.9572,178.418,1.62598,-145.085,472
1569684692,343.235,137.182,-14.9572,178.418,1.62598,-145.085,476
1569684692,343.235,137.182,-14.9572,178.418,1.62598,-145.085,476
1569684692,343.235,137.182,-14.9572,178.418,1.62598,-145.085,476
1569684692,343.235,137.182,-14.9572,178.418,1.604,-145.085,476
1569684692,343.235,137.182,-14.9572,178.418,1.604,-145.085,476
1569684692,343.235,137.182,-14.9572,178.418,1.604,-145.085,476
1569684692,343.235,137.182,-15.0688,178.418,1.604,-145.085,476
1569684692,343.235,137.182,-15.0688,178.418,1.604,-145.085,476
1569684692,343.235,137.182,-15.0688,178.418,1.604,-145.085,476
1569684692,343.235,137.182,-15.0688,178.418,1.604,-145.085,476
1569684692,343.235,137.182,-15.0688,178.418,1.604,-145.085,476
1569684692,343.235,137.182,-15.0688,178.418,1.604,-145.085,476
1569684692,343.235,137.182,-15.0688,178.418,1.604,-145.085,476
1569684692,343.235,137.182,-15.0688,178.418,1.604,-145.085,472
1569684692,343.235,137.182,-15.0688,178.418,1.604,-145.085,472
1569684692,343.235,137.182,-15.0688,178.418,1.604,-145.085,472
1569684692,343.235,137.182,-15.0688,178.418,1.604,-145.085,472
1569684692,343.235,137.182,-15.0688,178.418,1.604,-145.085,472
1569684692,343.235,137.182,-15.0688,178.418,1.604,-145.085,472
1569684692,343.235,137.182,-15.0688,178.418,1.604,-145.085,472
1569684692,343.235,137.182,-15.0688,178.418,1.604,-145.085,472
1569684692,343.235,137.182,-15.0688,178.418,1.604,-145.085,472
1569684692,343.235,137.182,-15.0688,178.418,1.604,-145.085,476
1569684692,343.235,137.182,-15.0688,178.418,1.604,-145.085,476
1569684692,343.235,137.182,-15.0688,178.418,1.604,-145.085,476
1569684692,343.235,137.182,-15.0688,178.418,1.604,-145.085,476
1569684692,343.235,137.182,-15.0688,178.418,1.604,-145.085,476
1569684692,343.235,137.182,-15.0688,178.418,1.604,-145.085,476
1569684692,343.235,137.182,-15.0688,178.418,1.604,-145.085,476
1569684692,343.235,137.182,-15.0688,178.418,1.604,-145.085,476
1569684692,343.235,137.182,-15.0688,178.418,1.604,-145.085,472
1569684692,343.235,137.182,-15.0688,178.418,1.604,-145.085,472
1569684692,343.235,137.182,-15.0688,178.418,1.604,-145.085,472
1569684692,343.235,137.182,-15.0688,178.44,1.604,-145.085,472
1569684692,343.235,137.182,-15.0688,178.44,1.604,-145.085,472
1569684692,343.235,137.182,-15.0688,178.44,1.604,-145.085,472
1569684692,343.235,137.182,-15.0688,178.44,1.604,-145.085,472
1569684692,343.235,137.182,-15.0688,178.44,1.604,-145.085,472
1569684693,343.235,137.182,-15.0688,178.44,1.604,-145.085,472
1569684693,343.235,137.182,-15.0688,178.44,1.604,-145.085,472
1569684693,343.235,137.182,-15.0688,178.44,1.604,-145.085,472
1569684693,343.235,137.182,-15.0688,178.44,1.604,-145.085,468
1569684693,343.235,137.294,-15.0688,178.418,1.604,-145.085,468
1569684693,343.235,137.294,-15.0688,178.418,1.604,-145.085,468
1569684693,343.235,137.294,-15.0688,178.418,1.604,-145.085,464
1569684693,343.235,137.294,-15.0688,178.418,1.604,-145.085,464
1569684693,343.346,137.294,-15.0688,178.418,1.604,-145.085,464
1569684693,343.346,137.294,-15.0688,178.418,1.604,-145.085,460
1569684693,343.346,137.294,-15.0688,178.418,1.604,-145.085,460
1569684693,343.346,137.294,-15.0688,178.418,1.604,-145.085,460
1569684693,343.346,137.294,-15.0688,178.418,1.604,-145.085,456
1569684693,343.346,137.294,-15.0688,178.418,1.604,-145.085,456
1569684693,343.346,137.182,-15.0688,178.418,1.604,-145.063,456
1569684693,343.346,137.182,-15.0688,178.418,1.604,-145.063,456
1569684693,343.346,137.182,-15.0688,178.418,1.604,-145.063,452
1569684693,343.346,137.182,-15.0688,178.418,1.604,-145.063,452
1569684693,343.346,137.182,-15.0688,178.418,1.604,-145.063,452
1569684693,343.346,137.182,-15.0688,178.418,1.604,-145.063,452
1569684693,343.346,137.182,-15.0688,178.418,1.604,-145.063,452
1569684693,343.346,137.182,-15.0688,178.418,1.604,-145.063,452
1569684693,343.346,137.182,-15.0688,178.418,1.604,-145.085,452
1569684693,343.235,137.182,-15.0688,178.418,1.604,-145.085,448
1569684693,343.235,137.182,-15.0688,178.418,1.604,-145.085,448
1569684693,343.235,137.182,-15.0688,178.418,1.604,-145.085,448
1569684693,343.235,137.182,-15.0688,178.418,1.604,-145.085,448
1569684693,343.235,137.182,-15.0688,178.418,1.604,-145.085,448
1569684693,343.235,137.182,-15.0688,178.418,1.604,-145.085,452
1569684693,343.235,137.294,-15.0688,178.418,1.604,-145.085,452
1569684693,343.235,137.294,-15.0688,178.418,1.604,-145.085,452
1569684693,343.235,137.294,-15.0688,178.418,1.604,-145.085,452
1569684693,343.235,137.294,-15.0688,178.418,1.604,-145.085,452
1569684693,343.235,137.294,-15.0688,178.418,1.604,-145.085,452
1569684693,343.235,137.294,-15.0688,178.418,1.604,-145.085,452
1569684693,343.346,137.294,-15.0688,178.418,1.604,-145.085,452
1569684693,343.346,137.294,-15.0688,178.418,1.604,-145.085,452
1569684693,343.346,137.294,-15.0688,178.418,1.604,-145.063,456
1569684693,343.346,137.294,-15.0688,178.418,1.604,-145.063,456
1569684693,343.346,137.294,-15.0688,178.418,1.604,-145.063,456
1569684693,343.346,137.294,-15.0688,178.418,1.604,-145.063,456
1569684693,343.346,137.294,-15.0688,178.418,1.604,-145.063,456
1569684693,343.346,137.182,-15.0688,178.418,1.604,-145.063,456
1569684693,343.346,137.182,-15.0688,178.418,1.604,-145.085,456
1569684693,343.346,137.182,-15.0688,178.418,1.604,-145.085,456
1569684693,343.346,137.182,-15.0688,178.418,1.604,-145.085,456
1569684693,343.346,137.182,-14.9572,178.418,1.604,-145.085,456
1569684693,343.346,137.182,-14.9572,178.396,1.604,-145.085,456
1569684693,343.346,137.182,-14.9572,178.396,1.604,-145.085,456
1569684693,343.346,137.182,-14.9572,178.396,1.604,-145.085,456
1569684693,343.346,137.182,-14.9572,178.396,1.604,-145.085,456
1569684693,343.346,137.182,-14.9572,178.396,1.604,-145.063,452
1569684693,343.346,137.182,-14.9572,178.396,1.604,-145.063,452
1569684693,343.346,137.182,-14.9572,178.396,1.604,-145.063,452
1569684693,343.346,137.182,-14.9572,178.396,1.604,-145.063,452
1569684693,343.346,137.182,-15.0688,178.396,1.604,-145.063,452
1569684693,343.346,137.182,-15.0688,178.396,1.604,-145.063,452
1569684693,343.346,137.182,-15.0688,178.396,1.604,-145.063,448
1569684693,343.346,137.182,-15.0688,178.396,1.604,-145.063,448
1569684693,343.346,137.182,-15.0688,178.396,1.604,-145.063,448
1569684693,343.346,137.182,-15.0688,178.396,1.604,-145.063,448
1569684693,343.346,137.182,-15.0688,178.418,1.604,-145.063,448
1569684693,343.346,137.294,-15.0688,178.418,1.604,-145.063,448
1569684693,343.346,137.294,-15.0688,178.418,1.604,-145.063,448
1569684693,343.346,137.294,-15.0688,178.418,1.604,-145.063,452
1569684693,343.346,137.294,-15.0688,178.418,1.604,-145.063,452
1569684693,343.346,137.294,-15.0688,178.418,1.604,-145.063,452
1569684693,343.346,137.294,-15.0688,178.418,1.604,-145.063,452
1569684693,343.346,137.294,-15.0688,178.418,1.604,-145.063,452
1569684693,343.346,137.294,-15.0688,178.418,1.604,-145.063,452
1569684693,343.346,137.294,-15.0688,178.418,1.58203,-145.063,452
1569684693,343.346,137.294,-15.0688,178.418,1.58203,-145.063,452
1569684693,343.346,137.182,-15.0688,178.418,1.58203,-145.063,452
1569684693,343.346,137.182,-15.0688,178.396,1.58203,-145.063,456
1569684693,343.346,137.182,-15.0688,178.396,1.58203,-145.063,456
1569684693,343.346,137.182,-15.0688,178.396,1.58203,-145.063,456
1569684693,343.346,137.182,-15.0688,178.396,1.604,-145.063,456
1569684693,343.346,137.182,-15.0688,178.396,1.604,-145.063,456
1569684693,343.346,137.182,-15.0688,178.396,1.604,-145.063,456
1569684693,343.346,137.182,-15.0688,178.396,1.604,-145.063,456
1569684693,343.346,137.182,-15.0688,178.396,1.604,-145.063,460
1569684693,343.346,137.182,-15.0688,178.396,1.604,-145.063,460
1569684693,343.346,137.182,-15.0688,178.396,1.604,-145.063,460
1569684693,343.346,137.182,-14.9572,178.396,1.604,-145.063,460
1569684693,343.346,137.182,-14.9572,178.396,1.604,-145.063,464
1569684693,343.346,137.182,-14.9572,178.418,1.604,-145.063,464
1569684693,343.346,137.182,-14.9572,178.418,1.604,-145.063,464
1569684693,343.346,137.182,-15.0688,178.418,1.604,-145.063,464
1569684693,343.346,137.182,-15.0688,178.418,1.604,-145.063,464
1569684693,343.346,137.182,-15.0688,178.418,1.604,-145.063,464
1569684693,343.346,137.294,-15.0688,178.418,1.604,-145.063,468
1569684693,343.346,137.294,-15.0688,178.418,1.604,-145.063,468
1569684693,343.346,137.294,-15.0688,178.418,1.604,-145.063,468
1569684693,343.346,137.294,-15.0688,178.418,1.604,-145.063,468
1569684693,343.346,137.294,-15.0688,178.418,1.604,-145.063,468
1569684693,343.346,137.294,-15.0688,178.418,1.604,-145.063,468
1569684693,343.346,137.294,-15.0688,178.418,1.604,-145.063,468
1569684693,343.346,137.294,-15.0688,178.418,1.604,-145.063,468
1569684693,343.346,137.294,-15.0688,178.418,1.604,-145.063,472
1569684693,343.346,137.294,-15.0688,178.418,1.604,-145.063,472
1569684694,343.346,137.294,-15.0688,178.418,1.604,-145.085,472
1569684694,343.346,137.294,-15.0688,178.418,1.604,-145.085,472
1569684694,343.235,137.294,-15.0688,178.418,1.604,-145.085,472
1569684694,343.235,137.294,-15.0688,178.418,1.604,-145.085,472
1569684694,343.235,137.294,-15.0688,178.418,1.604,-145.085,472
1569684694,343.235,137.294,-15.0688,178.418,1.604,-145.085,472
1569684694,343.235,137.294,-15.0688,178.418,1.58203,-145.085,472
1569684694,343.235,137.294,-15.0688,178.418,1.58203,-145.063,472
1569684694,343.235,137.294,-15.0688,178.418,1.58203,-145.063,472
1569684694,343.235,137.294,-15.1805,178.418,1.58203,-145.063,476
1569684694,343.235,137.294,-15.1805,178.418,1.58203,-145.063,476
1569684694,343.235,137.294,-15.1805,178.418,1.56006,-145.063,476
1569684694,343.235,137.294,-15.1805,178.418,1.56006,-145.063,476
1569684694,343.235,137.294,-15.1805,178.418,1.56006,-145.063,476
1569684694,343.235,137.294,-15.1805,178.418,1.56006,-145.063,476
1569684694,343.235,137.294,-15.1805,178.418,1.56006,-145.063,476
1569684694,343.235,137.294,-15.1805,178.418,1.56006,-145.063,476
1569684694,343.235,137.294,-15.1805,178.418,1.56006,-145.085,476
1569684694,343.235,137.294,-15.1805,178.418,1.56006,-145.085,476
1569684694,343.235,137.294,-15.1805,178.418,1.56006,-145.085,472
1569684694,343.235,137.294,-15.1805,178.418,1.56006,-145.085,472
1569684694,343.235,137.294,-15.1805,178.418,1.56006,-145.085,472
1569684694,343.235,137.294,-15.1805,178.44,1.56006,-145.085,472
1569684694,343.235,137.294,-15.1805,178.44,1.56006,-145.085,472
1569684694,343.235,137.294,-15.1805,178.44,1.56006,-145.085,472
1569684694,343.235,137.294,-15.1805,178.44,1.58203,-145.063,472
1569684694,343.235,137.294,-15.1805,178.44,1.58203,-145.063,472
1569684694,343.235,137.294,-15.1805,178.44,1.58203,-145.063,472
1569684694,343.235,137.294,-15.1805,178.44,1.58203,-145.063,468
1569684694,343.235,137.294,-15.1805,178.44,1.58203,-145.063,468
1569684694,343.235,137.294,-15.1805,178.44,1.58203,-145.063,468
1569684694,343.235,137.294,-15.1805,178.44,1.58203,-145.063,468
1569684694,343.235,137.294,-15.1805,178.44,1.56006,-145.063,468
1569684694,343.235,137.294,-15.1805,178.44,1.56006,-145.063,468
1569684694,343.235,137.294,-15.1805,178.44,1.56006,-145.063,468
1569684694,343.235,137.294,-15.1805,178.44,1.56006,-145.063,468
1569684694,343.235,137.294,-15.1805,178.44,1.56006,-145.063,468
1569684694,343.235,137.294,-15.1805,178.44,1.56006,-145.063,464
1569684694,343.235,137.294,-15.1805,178.44,1.56006,-145.063,464
1569684694,343.235,137.294,-15.1805,178.44,1.56006,-145.063,464
1569684694,343.235,137.294,-15.1805,178.44,1.56006,-145.063,464
1569684694,343.235,137.294,-15.1805,178.44,1.56006,-145.063,464
1569684694,343.235,137.294,-15.1805,178.44,1.56006,-145.063,464
1569684694,343.235,137.294,-15.1805,178.44,1.56006,-145.063,464
1569684694,343.235,137.294,-15.0688,178.462,1.56006,-145.063,464
1569684694,343.235,137.294,-15.0688,178.462,1.56006,-145.063,464
1569684694,343.235,137.294,-15.0688,178.462,1.56006,-145.085,464
1569684694,343.235,137.294,-15.0688,178.44,1.56006,-145.085,464
1569684694,343.235,137.294,-15.0688,178.44,1.56006,-145.085,464
1569684694,343.235,137.294,-15.0688,178.44,1.56006,-145.085,464
1569684694,343.235,137.294,-15.0688,178.44,1.58203,-145.085,464
1569684694,343.235,137.294,-15.0688,178.44,1.58203,-145.085,464
1569684694,343.235,137.294,-15.0688,178.44,1.58203,-145.085,464
1569684694,343.235,137.294,-15.0688,178.44,1.58203,-145.085,464
1569684694,343.346,137.294,-15.0688,178.44,1.58203,-145.085,464
1569684694,343.346,137.294,-15.0688,178.44,1.58203,-145.085,464
1569684694,343.346,137.294,-15.0688,178.44,1.58203,-145.085,464
1569684694,343.346,137.294,-15.0688,178.44,1.58203,-145.085,464
1569684694,343.346,137.294,-15.0688,178.44,1.604,-145.085,464
1569684694,343.346,137.294,-15.0688,178.44,1.604,-145.085,464
1569684694,343.346,137.294,-15.0688,178.44,1.604,-145.085,464
1569684694,343.346,137.294,-15.0688,178.44,1.604,-145.085,460
1569684694,343.346,137.294,-15.0688,178.44,1.604,-145.085,460
1569684694,343.346,137.294,-14.9572,178.418,1.604,-145.085,460
1569684694,343.346,137.294,-14.9572,178.418,1.604,-145.085,460
1569684694,343.346,137.294,-14.9572,178.418,1.604,-145.085,460
1569684694,343.346,137.294,-14.9572,178.418,1.604,-145.085,456
1569684694,343.346,137.294,-14.9572,178.418,1.604,-145.085,456
1569684694,343.346,137.294,-14.9572,178.418,1.62598,-145.085,456
1569684694,343.346,137.294,-14.9572,178.418,1.62598,-145.085,456
1569684694,343.346,137.294,-14.9572,178.418,1.62598,-145.085,452
1569684694,343.346,137.294,-14.9572,178.418,1.62598,-145.085,452
1569684694,343.346,137.294,-14.9572,178.418,1.62598,-145.085,452
1569684694,343.346,137.294,-14.9572,178.418,1.62598,-145.085,452
1569684694,343.346,137.294,-14.9572,178.418,1.604,-145.063,448
1569684694,343.346,137.294,-14.9572,178.418,1.604,-145.063,448
1569684694,343.346,137.294,-14.9572,178.418,1.604,-145.063,448
1569684694,343.346,137.294,-14.9572,178.418,1.604,-145.063,444
1569684694,343.346,137.294,-14.9572,178.418,1.604,-145.063,444
1569684694,343.346,137.294,-14.9572,178.418,1.604,-145.063,444
1569684694,343.346,137.294,-14.9572,178.418,1.604,-145.063,444
1569684694,343.346,137.294,-14.9572,178.396,1.604,-145.063,444
1569684694,343.346,137.294,-14.9572,178.396,1.604,-145.063,444
1569684694,343.346,137.294,-14.9572,178.396,1.604,-145.063,444
1569684694,343.346,137.182,-14.9572,178.396,1.604,-145.063,444
1569684694,343.346,137.182,-14.9572,178.396,1.604,-145.063,444
1569684694,343.346,137.182,-14.9572,178.396,1.604,-145.063,444
1569684694,343.346,137.182,-14.9572,178.396,1.604,-145.063,444
1569684694,343.346,137.182,-14.9572,178.396,1.604,-145.063,444
1569684694,343.346,137.182,-14.9572,178.396,1.604,-145.063,444
1569684694,343.346,137.182,-14.9572,178.396,1.604,-145.063,448
1569684694,343.346,137.182,-14.9572,178.396,1.604,-145.063,448
1569684694,343.346,137.182,-14.9572,178.396,1.604,-145.063,448
1569684694,343.346,137.182,-14.9572,178.396,1.604,-145.063,448
1569684694,343.346,137.182,-14.9572,178.396,1.604,-145.063,448
1569684694,343.346,137.182,-14.9572,178.396,1.604,-145.063,448
1569684694,343.346,137.182,-14.9572,178.396,1.604,-145.063,448
1569684694,343.346,137.182,-14.9572,178.396,1.604,-145.063,452
1569684694,343.346,137.182,-14.9572,178.396,1.604,-145.063,452
1569684694,343.346,137.182,-15.0688,178.396,1.604,-145.063,452
1569684695,343.346,137.182,-15.0688,178.396,1.604,-145.063,452
1569684695,343.346,137.182,-15.0688,178.396,1.604,-145.063,452
1569684695,343.346,137.182,-15.0688,178.396,1.604,-145.063,452
1569684695,343.346,137.182,-15.0688,178.396,1.604,-145.063,452
1569684695,343.346,137.182,-15.0688,178.396,1.604,-145.063,456
1569684695,343.346,137.182,-14.9572,178.396,1.604,-145.063,456
1569684695,343.346,137.182,-14.9572,178.396,1.604,-145.063,456
1569684695,343.235,137.182,-15.0688,178.396,1.604,-145.042,456
1569684695,343.235,137.182,-15.0688,178.396,1.604,-145.042,456
1569684695,343.235,137.182,-15.0688,178.396,1.604,-145.042,456
1569684695,343.235,137.182,-15.0688,178.396,1.604,-145.042,456
1569684695,343.235,137.182,-15.0688,178.396,1.604,-145.042,456
1569684695,343.235,137.182,-15.0688,178.396,1.604,-145.042,460
1569684695,343.235,137.182,-15.0688,178.396,1.604,-145.042,460
1569684695,343.235,137.182,-15.0688,178.396,1.604,-145.042,460
1569684695,343.235,137.071,-15.0688,178.396,1.58203,-145.042,460
1569684695,343.235,137.071,-15.0688,178.396,1.58203,-145.042,460
1569684695,343.235,137.071,-15.0688,178.374,1.58203,-145.042,460
1569684695,343.235,137.071,-15.0688,178.374,1.58203,-145.042,460
1569684695,343.235,137.071,-15.0688,178.396,1.58203,-145.042,464
1569684695,343.235,137.182,-15.0688,178.396,1.58203,-145.042,464
1569684695,343.235,137.182,-15.0688,178.396,1.58203,-145.042,464
1569684695,343.235,137.182,-15.0688,178.396,1.58203,-145.042,464
1569684695,343.235,137.182,-15.0688,178.396,1.58203,-145.042,464
1569684695,343.235,137.182,-15.0688,178.396,1.58203,-145.042,464
1569684695,343.235,137.182,-15.0688,178.396,1.58203,-145.042,464
1569684695,343.235,137.182,-15.0688,178.396,1.604,-145.042,468
1569684695,343.235,137.182,-15.0688,178.396,1.604,-145.042,468
1569684695,343.235,137.182,-15.0688,178.374,1.604,-145.042,468
1569684695,343.235,137.182,-15.0688,178.374,1.604,-145.042,468
1569684695,343.235,137.071,-15.0688,178.374,1.604,-145.042,468
1569684695,343.235,137.071,-15.0688,178.374,1.604,-145.042,472
1569684695,343.235,137.071,-15.0688,178.374,1.604,-145.042,472
1569684695,343.235,137.182,-15.0688,178.374,1.604,-145.042,472
1569684695,343.235,137.182,-15.0688,178.374,1.604,-145.063,472
1569684695,343.346,137.182,-15.0688,178.374,1.604,-145.063,472
1569684695,343.346,137.182,-15.0688,178.396,1.604,-145.063,472
1569684695,343.346,137.182,-15.0688,178.396,1.604,-145.063,472
1569684695,343.346,137.182,-15.0688,178.396,1.604,-145.063,472
1569684695,343.346,137.182,-15.0688,178.396,1.604,-145.063,468
1569684695,343.346,137.182,-15.0688,178.396,1.604,-145.063,468
1569684695,343.346,137.182,-15.0688,178.396,1.604,-145.063,468
1569684695,343.346,137.182,-15.0688,178.396,1.604,-145.063,468
1569684695,343.346,137.182,-15.0688,178.396,1.604,-145.063,464
1569684695,343.346,137.182,-15.0688,178.396,1.604,-145.063,464
1569684695,343.346,137.182,-15.0688,178.396,1.604,-145.063,464
1569684695,343.346,137.182,-15.0688,178.396,1.604,-145.063,464
1569684695,343.346,137.182,-15.0688,178.396,1.604,-145.063,464
1569684695,343.346,137.182,-15.0688,178.396,1.604,-145.063,464
1569684695,343.346,137.182,-15.0688,178.396,1.604,-145.063,464
1569684695,343.346,137.182,-15.0688,178.396,1.604,-145.063,464
1569684695,343.346,137.182,-15.0688,178.396,1.604,-145.063,464
1569684695,343.346,137.182,-15.0688,178.396,1.604,-145.063,464
1569684695,343.346,137.182,-15.0688,178.396,1.604,-145.063,464
1569684695,343.346,137.071,-15.0688,178.396,1.604,-145.063,464
1569684695,343.346,137.071,-15.0688,178.374,1.604,-145.063,464
1569684695,343.346,137.071,-15.0688,178.374,1.604,-145.063,464
1569684695,343.346,137.071,-15.0688,178.374,1.604,-145.063,464
1569684695,343.346,137.071,-15.0688,178.374,1.604,-145.063,464
1569684695,343.346,137.071,-15.0688,178.374,1.604,-145.063,468
1569684695,343.346,137.071,-15.0688,178.396,1.604,-145.063,468
1569684695,343.346,137.071,-15.0688,178.396,1.604,-145.063,468
1569684695,343.346,137.071,-15.0688,178.396,1.604,-145.063,468
1569684695,343.346,137.071,-14.9572,178.396,1.604,-145.063,468
1569684695,343.346,137.182,-14.9572,178.396,1.62598,-145.063,468
1569684695,343.346,137.182,-14.9572,178.396,1.62598,-145.063,468
1569684695,343.346,137.182,-14.9572,178.396,1.62598,-145.063,468
1569684700,366.117,112.737,-14.5107,178.44,1.8457,-145.283,504
1569684700,366.117,112.737,-14.5107,178.44,1.8457,-145.283,504
1569684700,366.117,112.737,-14.5107,178.44,1.8457,-145.283,504
1569684700,366.117,112.737,-14.5107,178.44,1.8457,-145.283,504
1569684700,366.117,112.737,-14.5107,178.44,1.8457,-145.283,508
1569684700,366.117,112.737,-14.5107,178.44,1.8457,-145.283,508
1569684700,366.117,112.737,-14.5107,178.44,1.8457,-145.283,508
1569684700,366.117,112.737,-14.5107,178.44,1.8457,-145.283,508
1569684700,366.117,112.737,-14.5107,178.44,1.8457,-145.283,508
1569684700,366.117,112.737,-14.5107,178.44,1.8457,-145.283,508
1569684700,366.117,112.737,-14.5107,178.44,1.8457,-145.283,508
1569684700,366.117,112.737,-14.5107,178.44,1.8457,-145.283,508
1569684700,366.117,112.737,-14.5107,178.44,1.8457,-145.283,508
1569684700,366.117,112.737,-14.5107,178.44,1.8457,-145.283,508
1569684700,366.117,112.737,-14.5107,178.44,1.8457,-145.283,508
1569684700,366.117,112.737,-14.5107,178.44,1.8457,-145.283,508
1569684700,366.117,112.737,-14.5107,178.44,1.8457,-145.283,508
1569684700,366.117,112.737,-14.5107,178.44,1.8457,-145.283,512
1569684700,366.117,112.737,-14.5107,178.44,1.8457,-145.283,512
1569684700,366.117,112.737,-14.5107,178.44,1.8457,-145.283,512
1569684700,366.117,112.737,-14.5107,178.44,1.8457,-145.283,512
1569684700,366.117,112.737,-14.5107,178.44,1.8457,-145.283,512
1569684700,366.117,112.737,-14.5107,178.44,1.8457,-145.283,512
1569684700,366.117,112.737,-14.5107,178.44,1.8457,-145.283,516
1569684700,366.117,112.737,-14.5107,178.44,1.8457,-145.283,516
1569684700,366.117,112.737,-14.5107,178.418,1.8457,-145.283,516
1569684700,366.117,112.737,-14.5107,178.418,1.8457,-145.283,516
1569684700,366.117,112.737,-14.5107,178.44,1.8457,-145.283,516
1569684700,366.117,112.737,-14.5107,178.44,1.8457,-145.283,516
1569684700,366.117,112.737,-14.5107,178.44,1.8457,-145.283,516
1569684700,366.117,112.737,-14.5107,178.44,1.82373,-145.283,520
1569684700,366.117,112.737,-14.5107,178.44,1.82373,-145.283,520
1569684700,366.117,112.737,-14.5107,178.44,1.82373,-145.283,520
1569684700,366.117,112.737,-14.5107,178.44,1.82373,-145.283,520
1569684700,366.117,112.737,-14.5107,178.462,1.82373,-145.283,520
1569684700,366.117,112.737,-14.5107,178.462,1.82373,-145.283,520
1569684700,366.117,112.737,-14.5107,178.462,1.82373,-145.283,520
1569684700,366.117,112.737,-14.5107,178.462,1.82373,-145.283,520
1569684700,366.117,112.737,-14.5107,178.462,1.82373,-145.283,520
1569684700,366.117,112.737,-14.5107,178.462,1.82373,-145.283,520
1569684700,366.117,112.737,-14.5107,178.462,1.82373,-145.283,520
1569684700,366.117,112.737,-14.5107,178.462,1.82373,-145.283,520
1569684700,366.117,112.737,-14.5107,178.462,1.82373,-145.283,520
1569684700,366.117,112.737,-14.5107,178.462,1.82373,-145.283,520
1569684700,366.117,112.737,-14.5107,178.462,1.82373,-145.283,520
1569684700,366.117,112.737,-14.5107,178.462,1.82373,-145.283,520
1569684700,366.117,112.737,-14.5107,178.462,1.82373,-145.283,520
1569684700,366.117,112.737,-14.5107,178.462,1.82373,-145.283,520
1569684700,366.117,112.849,-14.5107,178.462,1.82373,-145.283,520
1569684700,366.117,112.849,-14.5107,178.462,1.82373,-145.283,520
1569684700,366.117,112.849,-14.5107,178.462,1.82373,-145.283,520
1569684700,366.117,112.849,-14.5107,178.462,1.82373,-145.283,520
1569684701,366.117,112.849,-14.5107,178.462,1.82373,-145.283,520
1569684701,366.117,112.849,-14.5107,178.462,1.82373,-145.283,516
1569684701,366.117,112.849,-14.5107,178.462,1.82373,-145.283,516
1569684701,366.117,112.849,-14.5107,178.462,1.82373,-145.283,516
1569684701,366.117,112.849,-14.5107,178.462,1.82373,-145.283,516
1569684701,366.117,112.849,-14.5107,178.462,1.82373,-145.283,516
1569684701,366.117,112.849,-14.6224,178.462,1.80176,-145.283,516
1569684701,366.117,112.849,-14.6224,178.462,1.80176,-145.283,516
1569684701,366.117,112.849,-14.6224,178.462,1.80176,-145.283,512
1569684701,366.117,112.849,-14.6224,178.462,1.80176,-145.283,512
1569684701,366.117,112.849,-14.6224,178.462,1.80176,-145.283,512
1569684701,366.117,112.849,-14.6224,178.462,1.80176,-145.283,512
1569684701,366.117,112.849,-14.6224,178.462,1.80176,-145.283,512
1569684701,366.117,112.849,-14.6224,178.462,1.80176,-145.261,512
1569684701,366.117,112.849,-14.6224,178.462,1.80176,-145.261,512
1569684701,366.117,112.849,-14.6224,178.462,1.82373,-145.261,508
1569684701,366.117,112.849,-14.6224,178.462,1.82373,-145.261,508
1569684701,366.117,112.849,-14.6224,178.462,1.82373,-145.261,508
1569684701,366.117,112.849,-14.6224,178.462,1.82373,-145.261,508
1569684701,366.117,112.849,-14.6224,178.462,1.82373,-145.261,508
1569684701,366.117,112.849,-14.6224,178.462,1.82373,-145.261,508
1569684701,366.117,112.849,-14.6224,178.462,1.80176,-145.261,508
1569684701,366.117,112.849,-14.6224,178.462,1.80176,-145.261,508
1569684701,366.117,112.849,-14.6224,178.462,1.80176,-145.261,508
1569684701,366.117,112.849,-14.6224,178.462,1.80176,-145.261,508
1569684701,366.117,112.849,-14.6224,178.462,1.80176,-145.261,508
1569684701,366.117,112.849,-14.6224,178.462,1.80176,-145.261,508
1569684701,366.117,112.737,-14.6224,178.462,1.80176,-145.261,508
1569684701,366.117,112.737,-14.6224,178.44,1.80176,-145.261,512
1569684701,366.117,112.737,-14.6224,178.44,1.80176,-145.261,512
1569684701,366.117,112.737,-14.6224,178.44,1.80176,-145.261,512
1569684701,366.117,112.737,-14.6224,178.44,1.82373,-145.261,512
1569684701,366.117,112.737,-14.6224,178.44,1.82373,-145.261,512
1569684701,366.117,112.737,-14.6224,178.44,1.82373,-145.261,516
1569684701,366.117,112.737,-14.6224,178.44,1.82373,-145.261,516
1569684701,366.117,112.737,-14.6224,178.44,1.82373,-145.261,516
1569684701,366.117,112.737,-14.6224,178.44,1.82373,-145.261,516
1569684701,366.117,112.737,-14.6224,178.44,1.82373,-145.261,516
1569684701,366.117,112.737,-14.6224,178.44,1.82373,-145.283,516
1569684701,366.117,112.737,-14.6224,178.44,1.82373,-145.283,520
1569684701,366.117,112.737,-14.6224,178.44,1.82373,-145.283,520
1569684701,366.117,112.737,-14.6224,178.44,1.82373,-145.283,520
1569684701,366.117,112.737,-14.6224,178.44,1.82373,-145.283,520
1569684701,366.117,112.737,-14.6224,178.44,1.82373,-145.283,520
1569684701,366.117,112.737,-14.6224,178.44,1.82373,-145.283,520
1569684701,366.117,112.737,-14.6224,178.44,1.82373,-145.283,516
1569684701,366.117,112.737,-14.6224,178.44,1.82373,-145.283,516
1569684701,366.117,112.737,-14.5107,178.44,1.82373,-145.283,516
1569684701,366.117,112.737,-14.5107,178.44,1.82373,-145.283,516
1569684701,366.117,112.737,-14.5107,178.44,1.82373,-145.283,516
1569684701,366.117,112.737,-14.5107,178.44,1.8457,-145.283,516
1569684701,366.117,112.737,-14.5107,178.44,1.8457,-145.283,516
1569684701,366.117,112.737,-14.5107,178.44,1.8457,-145.283,516
1569684701,366.117,112.737,-14.5107,178.44,1.8457,-145.283,516
1569684701,366.117,112.737,-14.5107,178.44,1.8457,-145.283,516
1569684701,366.117,112.737,-14.5107,178.44,1.8457,-145.283,516
1569684701,366.117,112.737,-14.5107,178.44,1.8457,-145.283,516
1569684701,366.117,112.737,-14.5107,178.44,1.8457,-145.283,516
1569684701,366.117,112.737,-14.5107,178.462,1.8457,-145.283,516
1569684701,366.117,112.737,-14.5107,178.462,1.8457,-145.261,516
1569684701,366.117,112.737,-14.5107,178.462,1.8457,-145.261,520
1569684701,366.117,112.737,-14.5107,178.462,1.8457,-145.261,520
1569684701,366.117,112.737,-14.5107,178.462,1.8457,-145.261,520
1569684701,366.117,112.737,-14.5107,178.462,1.82373,-145.261,520
1569684701,366.117,112.737,-14.6224,178.462,1.82373,-145.283,520
1569684701,366.117,112.737,-14.6224,178.462,1.82373,-145.283,520
1569684701,366.117,112.737,-14.6224,178.462,1.82373,-145.283,520
1569684701,366.117,112.737,-14.6224,178.462,1.82373,-145.283,520
1569684701,366.117,112.849,-14.6224,178.484,1.82373,-145.283,520
1569684701,366.117,112.849,-14.6224,178.484,1.82373,-145.283,520
1569684701,366.117,112.849,-14.6224,178.484,1.82373,-145.283,520
1569684701,366.117,112.849,-14.6224,178.484,1.82373,-145.283,520
1569684701,366.117,112.849,-14.6224,178.484,1.82373,-145.283,520
1569684701,366.117,112.849,-14.6224,178.484,1.82373,-145.283,520
1569684701,366.117,112.849,-14.6224,178.484,1.82373,-145.283,520
1569684701,366.117,112.849,-14.6224,178.484,1.82373,-145.283,520
1569684701,366.117,112.849,-14.5107,178.484,1.82373,-145.283,520
1569684701,366.117,112.849,-14.5107,178.484,1.82373,-145.283,520
1569684701,366.117,112.849,-14.5107,178.484,1.82373,-145.283,520
1569684701,366.117,112.849,-14.5107,178.484,1.82373,-145.283,516
1569684701,366.117,112.849,-14.5107,178.484,1.82373,-145.283,516
1569684701,366.117,112.849,-14.5107,178.484,1.82373,-145.283,516
1569684701,366.117,112.849,-14.5107,178.484,1.82373,-145.283,516
1569684701,366.117,112.849,-14.5107,178.484,1.82373,-145.283,512
1569684701,366.117,112.849,-14.5107,178.484,1.82373,-145.283,512
1569684701,366.117,112.849,-14.5107,178.484,1.82373,-145.283,512
1569684701,366.117,112.849,-14.5107,178.462,1.82373,-145.261,512
1569684701,366.117,112.849,-14.5107,178.462,1.82373,-145.261,508
1569684701,366.117,112.849,-14.5107,178.462,1.82373,-145.261,508
1569684701,366.117,112.849,-14.5107,178.462,1.82373,-145.261,508
1569684701,366.117,112.849,-14.5107,178.462,1.82373,-145.283,508
1569684701,366.117,112.849,-14.5107,178.462,1.82373,-145.283,508
1569684701,366.117,112.849,-14.5107,178.462,1.8457,-145.283,508
1569684701,366.117,112.737,-14.5107,178.462,1.8457,-145.283,508
1569684701,366.229,112.737,-14.5107,178.462,1.8457,-145.283,508
1569684701,366.229,112.737,-14.5107,178.44,1.8457,-145.283,508
1569684701,366.229,112.737,-14.5107,178.44,1.8457,-145.283,508
1569684701,366.229,112.737,-14.3991,178.44,1.8457,-145.283,508
1569684701,366.229,112.737,-14.3991,178.44,1.8457,-145.283,508
1569684701,366.229,112.737,-14.3991,178.44,1.8457,-145.283,508
1569684702,366.229,112.737,-14.3991,178.44,1.8457,-145.283,508
1569684702,366.229,112.737,-14.5107,178.44,1.8457,-145.283,512
1569684702,366.229,112.737,-14.5107,178.44,1.8457,-145.283,512
1569684702,366.229,112.737,-14.5107,178.44,1.8457,-145.283,512
1569684702,366.117,112.737,-14.5107,178.44,1.8457,-145.283,512
1569684702,366.117,112.849,-14.5107,178.44,1.8457,-145.283,516
1569684702,366.117,112.849,-14.5107,178.44,1.8457,-145.283,516
1569684702,366.117,112.849,-14.5107,178.44,1.8457,-145.283,516
1569684702,366.117,112.849,-14.5107,178.462,1.8457,-145.283,520
1569684702,366.117,112.849,-14.5107,178.44,1.8457,-145.283,520
1569684702,366.117,112.849,-14.5107,178.44,1.8457,-145.283,520
1569684702,366.117,112.849,-14.5107,178.44,1.8457,-145.283,524
1569684702,366.117,112.849,-14.5107,178.44,1.8457,-145.283,524
1569684702,366.229,112.849,-14.5107,178.44,1.8457,-145.283,524
1569684702,366.229,112.849,-14.5107,178.44,1.8457,-145.283,524
1569684702,366.229,112.737,-14.5107,178.44,1.8457,-145.283,524
1569684702,366.229,112.737,-14.5107,178.44,1.8457,-145.283,524
1569684702,366.229,112.737,-14.5107,178.44,1.8457,-145.283,528
1569684702,366.229,112.737,-14.5107,178.44,1.8457,-145.283,528
1569684702,366.229,112.737,-14.5107,178.44,1.8457,-145.283,528
1569684702,366.229,112.737,-14.5107,178.44,1.8457,-145.261,528
1569684702,366.229,112.737,-14.5107,178.44,1.8457,-145.261,528
1569684702,366.117,112.737,-14.5107,178.44,1.8457,-145.261,528
1569684702,366.117,112.737,-14.5107,178.44,1.8457,-145.261,528
1569684702,366.117,112.737,-14.6224,178.44,1.8457,-145.261,528
1569684702,366.117,112.737,-14.6224,178.44,1.82373,-145.261,528
1569684702,366.117,112.737,-14.6224,178.44,1.82373,-145.261,528
1569684702,366.117,112.737,-14.6224,178.44,1.82373,-145.261,528
1569684702,366.117,112.737,-14.6224,178.44,1.82373,-145.261,528
1569684702,366.117,112.737,-14.6224,178.44,1.82373,-145.261,528
1569684702,366.117,112.737,-14.6224,178.44,1.82373,-145.261,528
1569684702,366.117,112.737,-14.6224,178.44,1.82373,-145.261,528
1569684702,366.117,112.737,-14.6224,178.44,1.82373,-145.261,524
1569684702,366.117,112.737,-14.6224,178.44,1.82373,-145.261,524
1569684702,366.117,112.737,-14.6224,178.44,1.82373,-145.261,524
1569684702,366.117,112.737,-14.6224,178.44,1.82373,-145.261,524
1569684702,366.117,112.737,-14.6224,178.44,1.82373,-145.261,524
1569684702,366.117,112.737,-14.6224,178.44,1.82373,-145.261,520
1569684702,366.117,112.737,-14.6224,178.44,1.82373,-145.261,520
1569684702,366.117,112.737,-14.6224,178.44,1.82373,-145.261,520
1569684702,366.117,112.737,-14.6224,178.44,1.80176,-145.261,520
1569684702,366.117,112.737,-14.6224,178.44,1.80176,-145.261,520
1569684702,366.117,112.737,-14.6224,178.44,1.80176,-145.261,516
1569684702,366.117,112.737,-14.6224,178.44,1.80176,-145.261,516
1569684702,366.117,112.737,-14.6224,178.462,1.80176,-145.261,516
1569684702,366.117,112.737,-14.6224,178.462,1.82373,-145.261,516
1569684702,366.117,112.849,-14.6224,178.462,1.82373,-145.261,516
1569684702,366.117,112.849,-14.6224,178.462,1.82373,-145.261,512
1569684702,366.117,112.849,-14.6224,178.462,1.82373,-145.261,512
1569684702,366.117,112.849,-14.5107,178.462,1.82373,-145.261,512
1569684702,366.117,112.849,-14.5107,178.462,1.82373,-145.261,512
1569684702,366.117,112.849,-14.5107,178.462,1.82373,-145.261,512
1569684702,366.117,112.849,-14.5107,178.462,1.8457,-145.261,512
1569684702,366.117,112.849,-14.5107,178.462,1.8457,-145.261,512
1569684702,366.117,112.849,-14.5107,178.462,1.8457,-145.261,508
1569684702,366.117,112.849,-14.5107,178.462,1.8457,-145.261,508
1569684702,366.117,112.849,-14.5107,178.462,1.8457,-145.261,508
1569684702,366.117,112.849,-14.5107,178.462,1.82373,-145.261,508
1569684702,366.117,112.849,-14.5107,178.462,1.82373,-145.261,508
1569684702,366.117,112.849,-14.5107,178.462,1.82373,-145.261,508
1569684702,366.117,112.849,-14.5107,178.462,1.82373,-145.261,508
1569684702,366.117,112.849,-14.5107,178.462,1.82373,-145.261,508
1569684702,366.117,112.849,-14.5107,178.462,1.82373,-145.261,508
1569684702,366.117,112.849,-14.5107,178.462,1.82373,-145.261,508
1569684702,366.117,112.849,-14.5107,178.462,1.82373,-145.261,504
1569684702,366.229,112.849,-14.6224,178.484,1.82373,-145.261,504
1569684702,366.229,112.849,-14.6224,178.484,1.82373,-145.261,504
1569684702,366.229,112.961,-14.6224,178.484,1.82373,-145.261,504
1569684702,366.229,112.961,-14.6224,178.484,1.82373,-145.261,504
1569684702,366.229,112.961,-14.6224,178.484,1.82373,-145.261,504
1569684702,366.229,112.961,-14.6224,178.484,1.82373,-145.261,500
1569684702,366.229,112.849,-14.6224,178.484,1.82373,-145.261,500
1569684702,366.229,112.849,-14.6224,178.484,1.82373,-145.261,500
1569684702,366.229,112.849,-14.6224,178.484,1.82373,-145.261,500
1569684702,366.229,112.849,-14.6224,178.484,1.82373,-145.261,500
1569684702,366.229,112.849,-14.6224,178.462,1.82373,-145.261,500
1569684702,366.229,112.849,-14.6224,178.462,1.82373,-145.261,500
1569684702,366.229,112.849,-14.6224,178.462,1.82373,-145.261,500
1569684702,366.229,112.849,-14.6224,178.462,1.82373,-145.261,500
1569684702,366.229,112.849,-14.6224,178.462,1.82373,-145.261,500
1569684702,366.229,112.849,-14.6224,178.462,1.82373,-145.261,500
1569684702,366.229,112.849,-14.6224,178.462,1.82373,-145.261,500
1569684702,366.229,112.849,-14.6224,178.462,1.82373,-145.261,500
1569684702,366.229,112.737,-14.6224,178.462,1.82373,-145.261,500
1569684702,366.229,112.737,-14.5107,178.462,1.82373,-145.261,500
1569684702,366.229,112.737,-14.5107,178.462,1.82373,-145.283,500
1569684702,366.229,112.737,-14.5107,178.462,1.82373,-145.283,500
1569684702,366.229,112.737,-14.5107,178.462,1.82373,-145.283,500
1569684702,366.229,112.737,-14.5107,178.462,1.82373,-145.283,504
1569684702,366.229,112.737,-14.5107,178.44,1.82373,-145.283,504
1569684702,366.229,112.737,-14.5107,178.44,1.82373,-145.283,504
1569684702,366.229,112.737,-14.5107,178.44,1.82373,-145.283,504
1569684702,366.229,112.737,-14.5107,178.44,1.82373,-145.283,504
1569684702,366.229,112.737,-14.5107,178.44,1.82373,-145.283,504
1569684702,366.229,112.737,-14.5107,178.44,1.82373,-145.283,508
1569684702,366.229,112.737,-14.5107,178.44,1.82373,-145.283,508
1569684702,366.229,112.626,-14.5107,178.418,1.82373,-145.283,508
1569684702,366.229,112.626,-14.5107,178.418,1.82373,-145.283,508
1569684702,366.229,112.626,-14.5107,178.418,1.82373,-145.283,512
1569684702,366.229,112.626,-14.5107,178.418,1.82373,-145.283,512
1569684703,366.229,112.626,-14.5107,178.418,1.82373,-145.283,512
1569684703,366.229,112.626,-14.5107,178.418,1.82373,-145.283,512
1569684703,366.229,112.626,-14.5107,178.418,1.82373,-145.283,512
1569684703,366.229,112.626,-14.5107,178.418,1.82373,-145.283,512
1569684703,366.229,112.626,-14.5107,178.418,1.8457,-145.283,512
1569684703,366.229,112.626,-14.5107,178.418,1.8457,-145.283,516
1569684703,366.229,112.626,-14.5107,178.418,1.8457,-145.283,516
1569684703,366.229,112.626,-14.5107,178.418,1.82373,-145.283,516
1569684703,366.229,112.626,-14.5107,178.418,1.82373,-145.283,516
1569684703,366.229,112.626,-14.5107,178.418,1.82373,-145.283,516
1569684703,366.229,112.626,-14.5107,178.418,1.8457,-145.283,516
1569684703,366.229,112.626,-14.5107,178.418,1.8457,-145.283,516
1569684703,366.229,112.626,-14.5107,178.418,1.8457,-145.283,516
1569684703,366.229,112.626,-14.5107,178.418,1.8457,-145.283,520
1569684703,366.229,112.626,-14.5107,178.418,1.8457,-145.283,520
1569684703,366.229,112.626,-14.5107,178.418,1.8457,-145.283,520
1569684703,366.229,112.626,-14.5107,178.418,1.8457,-145.283,520
1569684703,366.34,112.626,-14.5107,178.418,1.8457,-145.283,520
1569684703,366.34,112.626,-14.5107,178.418,1.8457,-145.283,520
1569684703,366.34,112.626,-14.5107,178.418,1.8457,-145.283,520
1569684703,366.34,112.626,-14.5107,178.418,1.8457,-145.283,520
1569684703,366.229,112.626,-14.5107,178.418,1.8457,-145.283,520
1569684703,366.229,112.626,-14.5107,178.418,1.8457,-145.283,520
1569684703,366.229,112.737,-14.5107,178.418,1.8457,-145.283,520
1569684703,366.229,112.737,-14.5107,178.418,1.8457,-145.283,520
1569684703,366.229,112.737,-14.5107,178.44,1.82373,-145.283,520
1569684703,366.229,112.737,-14.5107,178.44,1.82373,-145.283,520
1569684703,366.229,112.737,-14.5107,178.418,1.82373,-145.283,516
1569684703,366.229,112.737,-14.5107,178.418,1.82373,-145.283,516
1569684703,366.229,112.737,-14.6224,178.418,1.82373,-145.283,516
1569684703,366.229,112.737,-14.6224,178.418,1.82373,-145.283,516
1569684703,366.229,112.737,-14.6224,178.418,1.82373,-145.283,516
1569684703,366.229,112.737,-14.6224,178.418,1.82373,-145.283,512
1569684703,366.229,112.737,-14.6224,178.418,1.82373,-145.283,512
1569684703,366.229,112.737,-14.5107,178.418,1.82373,-145.283,512
1569684703,366.229,112.626,-14.5107,178.418,1.82373,-145.283,512
1569684703,366.34,112.626,-14.5107,178.418,1.82373,-145.283,508
1569684703,366.34,112.626,-14.5107,178.418,1.8457,-145.283,508
1569684703,366.34,112.626,-14.5107,178.418,1.8457,-145.283,508
1569684703,366.34,112.626,-14.5107,178.418,1.8457,-145.283,508
1569684703,366.34,112.626,-14.5107,178.418,1.8457,-145.283,504
1569684703,366.34,112.626,-14.5107,178.418,1.8457,-145.283,504
1569684703,366.34,112.737,-14.5107,178.418,1.8457,-145.283,504
1569684703,366.34,112.737,-14.5107,178.418,1.8457,-145.283,504
1569684703,366.34,112.737,-14.5107,178.418,1.8457,-145.283,500
1569684703,366.34,112.737,-14.5107,178.44,1.8457,-145.283,500
1569684703,366.34,112.737,-14.5107,178.44,1.8457,-145.283,500
1569684703,366.34,112.737,-14.5107,178.44,1.8457,-145.283,496
1569684703,366.229,112.737,-14.5107,178.44,1.8457,-145.283,496
1569684703,366.229,112.737,-14.5107,178.44,1.8457,-145.283,496
1569684703,366.229,112.737,-14.5107,178.44,1.8457,-145.283,496
1569684703,366.229,112.737,-14.5107,178.44,1.8457,-145.283,496
1569684703,366.229,112.737,-14.5107,178.44,1.8457,-145.283,496
1569684703,366.229,112.737,-14.5107,178.44,1.8457,-145.283,496
1569684703,366.229,112.737,-14.5107,178.44,1.8457,-145.283,496
1569684703,366.229,112.737,-14.5107,178.44,1.8457,-145.283,496
1569684703,366.229,112.737,-14.5107,178.44,1.8457,-145.283,496
1569684703,366.229,112.737,-14.5107,178.44,1.8457,-145.283,496
1569684703,366.229,112.737,-14.5107,178.44,1.8457,-145.283,496
1569684703,366.229,112.737,-14.5107,178.44,1.8457,-145.283,496
1569684703,366.229,112.737,-14.5107,178.44,1.8457,-145.283,496
1569684703,366.229,112.849,-14.5107,178.462,1.8457,-145.283,496
1569684703,366.229,112.849,-14.5107,178.462,1.8457,-145.283,496
1569684703,366.229,112.849,-14.5107,178.462,1.8457,-145.283,496
1569684703,366.229,112.849,-14.5107,178.462,1.8457,-145.283,496
1569684703,366.229,112.849,-14.5107,178.462,1.8457,-145.283,496
1569684703,366.229,112.849,-14.5107,178.462,1.8457,-145.283,496
1569684703,366.229,112.849,-14.3991,178.462,1.8457,-145.283,492
1569684703,366.229,112.849,-14.3991,178.462,1.8457,-145.283,492
1569684703,366.229,112.849,-14.3991,178.462,1.8457,-145.283,492
1569684703,366.229,112.849,-14.3991,178.462,1.8457,-145.283,492
1569684703,366.229,112.849,-14.3991,178.462,1.8457,-145.283,492
1569684703,366.229,112.849,-14.5107,178.462,1.8457,-145.283,492
1569684703,366.229,112.849,-14.5107,178.462,1.8457,-145.283,492
1569684703,366.229,112.849,-14.5107,178.462,1.8457,-145.283,492
1569684703,366.229,112.849,-14.5107,178.462,1.8457,-145.283,492
1569684703,366.229,112.849,-14.5107,178.462,1.8457,-145.283,492
1569684703,366.229,112.849,-14.5107,178.462,1.8457,-145.283,492
1569684703,366.229,112.849,-14.5107,178.462,1.8457,-145.283,492
1569684703,366.229,112.849,-14.5107,178.462,1.8457,-145.283,492
1569684703,366.229,112.849,-14.5107,178.462,1.8457,-145.283,492
1569684703,366.229,112.849,-14.5107,178.462,1.8457,-145.261,492
1569684703,366.229,112.849,-14.5107,178.462,1.8457,-145.261,492
1569684703,366.229,112.849,-14.5107,178.462,1.8457,-145.261,492
1569684703,366.229,112.849,-14.5107,178.462,1.8457,-145.261,492
1569684703,366.229,112.849,-14.5107,178.462,1.8457,-145.261,492
1569684703,366.229,112.849,-14.5107,178.462,1.8457,-145.261,492
1569684703,366.229,112.849,-14.5107,178.462,1.8457,-145.261,492
1569684703,366.229,112.849,-14.5107,178.462,1.8457,-145.261,492
1569684703,366.229,112.849,-14.5107,178.462,1.8457,-145.261,492
1569684703,366.229,112.849,-14.5107,178.462,1.8457,-145.261,492
1569684703,366.229,112.849,-14.5107,178.462,1.8457,-145.261,492
1569684703,366.229,112.849,-14.5107,178.462,1.82373,-145.261,492
1569684703,366.229,112.849,-14.6224,178.462,1.82373,-145.261,492
1569684703,366.229,112.849,-14.6224,178.462,1.82373,-145.261,496
1569684703,366.229,112.737,-14.6224,178.462,1.82373,-145.261,496
1569684703,366.229,112.737,-14.6224,178.462,1.82373,-145.261,496
1569684703,366.229,112.737,-14.6224,178.462,1.82373,-145.283,496
1569684703,366.229,112.737,-14.6224,178.462,1.82373,-145.283,496
1569684703,366.229,112.737,-14.6224,178.462,1.80176,-145.283,496
1569684704,366.229,112.737,-14.6224,178.44,1.80176,-145.283,496
1569684704,366.229,112.737,-14.6224,178.44,1.80176,-145.283,496
1569684704,366.229,112.737,-14.6224,178.44,1.80176,-145.283,496
1569684704,366.229,112.737,-14.6224,178.44,1.80176,-145.283,500
1569684704,366.229,112.737,-14.6224,178.44,1.80176,-145.283,500
1569684704,366.229,112.737,-14.6224,178.44,1.82373,-145.283,500
1569684704,366.229,112.737,-14.6224,178.44,1.82373,-145.283,500
1569684704,366.229,112.737,-14.6224,178.44,1.82373,-145.283,500
1569684704,366.229,112.737,-14.6224,178.44,1.82373,-145.283,500
1569684704,366.229,112.737,-14.6224,178.44,1.80176,-145.283,500
1569684704,366.229,112.737,-14.6224,178.44,1.80176,-145.261,500
1569684704,366.229,112.737,-14.6224,178.44,1.80176,-145.261,500
1569684704,366.229,112.737,-14.734,178.44,1.80176,-145.261,500
1569684704,366.229,112.737,-14.734,178.44,1.80176,-145.261,500
1569684704,366.229,112.737,-14.734,178.44,1.80176,-145.261,500
1569684704,366.229,112.737,-14.734,178.44,1.80176,-145.261,500
1569684704,366.229,112.737,-14.734,178.44,1.80176,-145.261,500
1569684704,366.229,112.737,-14.734,178.44,1.80176,-145.261,500
1569684704,366.229,112.737,-14.734,178.44,1.80176,-145.261,500
1569684704,366.229,112.737,-14.734,178.44,1.80176,-145.261,504
1569684704,366.229,112.737,-14.734,178.44,1.80176,-145.261,504
1569684704,366.229,112.737,-14.734,178.44,1.80176,-145.261,504
1569684704,366.229,112.737,-14.6224,178.44,1.80176,-145.261,504
1569684704,366.229,112.737,-14.6224,178.44,1.80176,-145.261,504
1569684704,366.229,112.737,-14.6224,178.44,1.80176,-145.283,504
1569684704,366.229,112.737,-14.6224,178.44,1.82373,-145.283,504
1569684704,366.229,112.737,-14.6224,178.44,1.82373,-145.283,504
1569684704,366.229,112.737,-14.6224,178.44,1.82373,-145.283,504
1569684704,366.229,112.737,-14.6224,178.44,1.82373,-145.261,504
1569684704,366.229,112.737,-14.6224,178.44,1.82373,-145.261,504
1569684704,366.229,112.737,-14.6224,178.44,1.82373,-145.261,504
1569684704,366.229,112.737,-14.6224,178.44,1.82373,-145.261,504
1569684704,366.229,112.737,-14.6224,178.462,1.82373,-145.261,504
1569684704,366.229,112.737,-14.6224,178.462,1.82373,-145.261,504
1569684704,366.229,112.849,-14.5107,178.462,1.8457,-145.261,504
1569684704,366.229,112.849,-14.5107,178.462,1.8457,-145.261,504
1569684704,366.229,112.849,-14.5107,178.462,1.8457,-145.261,504
1569684704,366.229,112.849,-14.5107,178.462,1.8457,-145.261,504
1569684704,366.229,112.849,-14.5107,178.462,1.8457,-145.261,504
1569684704,366.229,112.849,-14.5107,178.462,1.8457,-145.261,504
1569684704,366.229,112.737,-14.5107,178.462,1.8457,-145.261,504
1569684704,366.229,112.737,-14.5107,178.462,1.8457,-145.261,504
1569684704,366.229,112.737,-14.5107,178.462,1.8457,-145.261,504
1569684704,366.229,112.737,-14.5107,178.44,1.8457,-145.261,504
1569684704,366.229,112.737,-14.5107,178.44,1.86768,-145.261,504
1569684704,366.229,112.737,-14.5107,178.44,1.86768,-145.261,504
1569684704,366.229,112.737,-14.5107,178.44,1.86768,-145.261,504
1569684704,366.229,112.737,-14.5107,178.44,1.86768,-145.261,504
1569684704,366.229,112.737,-14.5107,178.44,1.86768,-145.261,504
1569684704,366.229,112.737,-14.5107,178.44,1.86768,-145.261,508
1569684704,366.229,112.737,-14.5107,178.44,1.86768,-145.261,508
1569684704,366.117,112.737,-14.5107,178.44,1.86768,-145.261,508
1569684704,366.117,112.737,-14.3991,178.44,1.86768,-145.261,508
1569684704,366.117,112.737,-14.3991,178.44,1.88965,-145.261,508
1569684704,366.117,112.737,-14.3991,178.462,1.88965,-145.261,508
1569684704,366.117,112.737,-14.3991,178.462,1.88965,-145.261,508
1569684704,366.117,112.737,-14.3991,178.462,1.88965,-145.261,508
1569684704,366.117,112.849,-14.3991,178.462,1.88965,-145.283,508
1569684704,366.117,112.849,-14.3991,178.462,1.88965,-145.283,512
1569684704,366.117,112.849,-14.3991,178.462,1.88965,-145.283,512
1569684704,366.117,112.849,-14.3991,178.462,1.88965,-145.283,508
1569684704,366.229,112.849,-14.3991,178.462,1.88965,-145.283,508
1569684704,366.229,112.737,-14.3991,178.44,1.88965,-145.283,508
1569684704,366.229,112.737,-14.3991,178.44,1.88965,-145.283,508
1569684704,366.229,112.737,-14.3991,178.44,1.88965,-145.283,508
1569684704,366.229,112.737,-14.3991,178.44,1.88965,-145.283,508
1569684704,366.229,112.737,-14.3991,178.44,1.88965,-145.305,508
1569684704,366.229,112.737,-14.3991,178.44,1.88965,-145.305,508
1569684704,366.229,112.737,-14.3991,178.44,1.88965,-145.305,508
1569684704,366.229,112.737,-14.3991,178.44,1.88965,-145.305,508
1569684704,366.229,112.737,-14.3991,178.44,1.88965,-145.305,508
1569684704,366.229,112.737,-14.3991,178.44,1.88965,-145.305,508
1569684704,366.229,112.849,-14.3991,178.44,1.86768,-145.305,508
1569684704,366.229,112.849,-14.3991,178.44,1.86768,-145.305,508
1569684704,366.229,112.849,-14.3991,178.462,1.86768,-145.305,508
1569684704,366.229,112.849,-14.3991,178.462,1.86768,-145.305,508
1569684704,366.229,112.849,-14.3991,178.462,1.86768,-145.305,508
1569684704,366.229,112.849,-14.3991,178.462,1.86768,-145.305,512
1569684704,366.229,112.849,-14.5107,178.462,1.86768,-145.305,512
1569684704,366.229,112.849,-14.5107,178.462,1.86768,-145.305,512
1569684704,366.229,112.849,-14.5107,178.462,1.8457,-145.305,512
1569684704,366.229,112.849,-14.5107,178.462,1.8457,-145.305,512
1569684704,366.229,112.849,-14.5107,178.462,1.8457,-145.305,516
1569684704,366.117,112.849,-14.5107,178.462,1.8457,-145.305,516
1569684704,366.117,112.849,-14.5107,178.462,1.8457,-145.305,516
1569684704,366.117,112.849,-14.5107,178.462,1.8457,-145.305,516
1569684704,366.117,112.849,-14.5107,178.462,1.8457,-145.305,516
1569684704,366.117,112.849,-14.5107,178.462,1.8457,-145.305,516
1569684704,366.117,112.849,-14.5107,178.462,1.8457,-145.305,516
1569684704,366.117,112.849,-14.5107,178.462,1.8457,-145.305,516
1569684704,366.117,112.849,-14.5107,178.462,1.8457,-145.305,516
1569684704,366.117,112.849,-14.5107,178.462,1.8457,-145.305,516
1569684704,366.117,112.849,-14.5107,178.462,1.8457,-145.305,520
1569684704,366.117,112.849,-14.5107,178.462,1.8457,-145.305,520
1569684704,366.117,112.849,-14.5107,178.462,1.8457,-145.305,520
1569684704,366.117,112.849,-14.5107,178.462,1.8457,-145.305,520
1569684704,366.117,112.849,-14.5107,178.462,1.8457,-145.305,520
1569684704,366.117,112.849,-14.5107,178.462,1.8457,-145.305,520
1569684704,366.117,112.849,-14.5107,178.462,1.8457,-145.305,520
1569684704,366.117,112.849,-14.5107,178.462,1.8457,-145.305,520
1569684705,366.117,112.849,-14.5107,178.484,1.8457,-145.305,520
1569684705,366.117,112.849,-14.5107,178.484,1.8457,-145.305,520
1569684705,366.117,112.849,-14.5107,178.484,1.8457,-145.305,516
1569684705,366.117,112.849,-14.5107,178.484,1.8457,-145.305,516
1569684705,366.117,112.849,-14.5107,178.484,1.8457,-145.305,516
1569684705,366.117,112.849,-14.5107,178.484,1.8457,-145.305,516
1569684705,366.117,112.961,-14.5107,178.484,1.8457,-145.305,516
1569684705,366.117,112.961,-14.5107,178.484,1.8457,-145.305,516
1569684705,366.117,112.961,-14.5107,178.484,1.8457,-145.305,512
1569684705,366.117,112.961,-14.5107,178.484,1.8457,-145.305,512
1569684705,366.117,112.961,-14.5107,178.484,1.8457,-145.305,512
1569684705,366.117,112.961,-14.5107,178.484,1.8457,-145.305,512
1569684705,366.229,112.849,-14.5107,178.484,1.8457,-145.305,508
1569684705,366.229,112.849,-14.5107,178.484,1.8457,-145.305,508
1569684705,366.229,112.849,-14.5107,178.462,1.8457,-145.305,508
1569684705,366.229,112.849,-14.5107,178.462,1.8457,-145.305,508
1569684705,366.229,112.849,-14.5107,178.462,1.8457,-145.305,504
1569684705,366.229,112.849,-14.5107,178.462,1.8457,-145.305,504
1569684705,366.229,112.849,-14.5107,178.462,1.8457,-145.305,504
1569684705,366.229,112.849,-14.5107,178.462,1.8457,-145.305,504
1569684705,366.229,112.737,-14.5107,178.44,1.8457,-145.305,504
1569684705,366.229,112.737,-14.5107,178.44,1.8457,-145.305,504
1569684705,366.229,112.737,-14.5107,178.44,1.8457,-145.305,504
1569684705,366.229,112.737,-14.5107,178.44,1.8457,-145.305,504
1569684705,366.229,112.737,-14.5107,178.44,1.8457,-145.305,504
1569684705,366.117,112.737,-14.5107,178.44,1.8457,-145.305,504
1569684705,366.117,112.737,-14.5107,178.44,1.8457,-145.305,504
1569684705,366.117,112.737,-14.5107,178.462,1.8457,-145.305,504
1569684705,366.117,112.737,-14.5107,178.462,1.82373,-145.305,508
1569684705,366.117,112.737,-14.5107,178.462,1.82373,-145.305,508
1569684705,366.117,112.737,-14.5107,178.462,1.82373,-145.305,508
1569684705,366.117,112.737,-14.5107,178.462,1.82373,-145.305,508
1569684705,366.117,112.737,-14.5107,178.462,1.82373,-145.305,508
1569684705,366.117,112.849,-14.5107,178.462,1.82373,-145.305,508
1569684705,366.117,112.849,-14.6224,178.462,1.82373,-145.283,512
1569684705,366.117,112.849,-14.6224,178.462,1.82373,-145.283,512
1569684705,366.117,112.849,-14.6224,178.462,1.82373,-145.283,512
1569684705,366.117,112.849,-14.6224,178.462,1.82373,-145.283,512
1569684705,366.117,112.849,-14.5107,178.462,1.82373,-145.283,512
1569684705,366.117,112.737,-14.5107,178.462,1.82373,-145.283,512
1569684705,366.117,112.737,-14.5107,178.462,1.82373,-145.283,512
1569684705,366.117,112.737,-14.5107,178.462,1.82373,-145.283,512
1569684705,366.117,112.737,-14.5107,178.462,1.82373,-145.283,512
1569684705,366.117,112.737,-14.5107,178.462,1.82373,-145.283,512
1569684705,366.117,112.737,-14.5107,178.462,1.8457,-145.283,512
1569684705,366.117,112.737,-14.5107,178.462,1.8457,-145.283,512
1569684705,366.117,112.849,-14.5107,178.462,1.8457,-145.283,516
1569684705,366.117,112.849,-14.5107,178.462,1.8457,-145.283,516
1569684710,404.292,72.1072,-13.1713,178.572,2.43896,-145.129,584
1569684710,404.292,72.1072,-13.1713,178.572,2.43896,-145.129,580
1569684710,404.292,72.2188,-13.1713,178.594,2.43896,-145.129,580
1569684710,404.292,72.2188,-13.1713,178.594,2.43896,-145.129,580
1569684710,404.292,72.2188,-13.1713,178.594,2.43896,-145.129,580
1569684710,404.292,72.2188,-13.1713,178.594,2.43896,-145.129,576
1569684710,404.292,72.2188,-13.1713,178.594,2.43896,-145.129,576
1569684710,404.292,72.2188,-13.1713,178.594,2.43896,-145.129,576
1569684710,404.292,72.2188,-13.1713,178.594,2.43896,-145.129,572
1569684710,404.292,72.2188,-13.1713,178.594,2.43896,-145.129,572
1569684710,404.292,72.2188,-13.1713,178.594,2.43896,-145.129,572
1569684710,404.292,72.2188,-13.1713,178.594,2.43896,-145.129,572
1569684710,404.292,72.2188,-13.1713,178.594,2.43896,-145.107,568
1569684710,404.292,72.2188,-13.1713,178.594,2.43896,-145.107,568
1569684710,404.292,72.2188,-13.1713,178.594,2.43896,-145.107,568
1569684710,404.292,72.1072,-13.1713,178.572,2.43896,-145.129,568
1569684710,404.292,72.1072,-13.1713,178.572,2.41699,-145.129,568
1569684710,404.18,72.1072,-13.1713,178.572,2.41699,-145.129,572
1569684710,404.18,72.1072,-13.1713,178.572,2.41699,-145.129,572
1569684710,404.18,72.1072,-13.1713,178.572,2.41699,-145.129,572
1569684710,404.18,72.1072,-13.2829,178.572,2.41699,-145.129,572
1569684710,404.18,72.1072,-13.2829,178.572,2.41699,-145.129,572
1569684710,404.18,72.1072,-13.2829,178.572,2.41699,-145.129,572
1569684710,404.292,72.1072,-13.2829,178.572,2.41699,-145.129,572
1569684711,404.292,72.1072,-13.2829,178.572,2.39502,-145.129,572
1569684711,404.292,72.1072,-13.2829,178.572,2.39502,-145.129,572
1569684711,404.292,72.1072,-13.2829,178.572,2.39502,-145.129,572
1569684711,404.292,72.1072,-13.3945,178.594,2.39502,-145.129,572
1569684711,404.292,72.1072,-13.3945,178.594,2.39502,-145.129,572
1569684711,404.292,72.1072,-13.3945,178.594,2.39502,-145.129,572
1569684711,404.292,72.1072,-13.3945,178.594,2.39502,-145.129,572
1569684711,404.292,72.1072,-13.3945,178.594,2.39502,-145.129,572
1569684711,404.292,72.1072,-13.3945,178.594,2.39502,-145.129,572
1569684711,404.292,72.1072,-13.3945,178.594,2.39502,-145.129,572
1569684711,404.292,72.1072,-13.2829,178.594,2.39502,-145.129,572
1569684711,404.292,72.1072,-13.2829,178.572,2.39502,-145.129,572
1569684711,404.292,72.1072,-13.2829,178.572,2.39502,-145.129,572
1569684711,404.292,72.1072,-13.2829,178.572,2.41699,-145.129,572
1569684711,404.292,72.1072,-13.2829,178.572,2.41699,-145.129,572
1569684711,404.292,72.1072,-13.2829,178.572,2.41699,-145.129,568
1569684711,404.292,72.1072,-13.2829,178.572,2.41699,-145.129,568
1569684711,404.292,72.1072,-13.2829,178.572,2.41699,-145.129,568
1569684711,404.292,72.1072,-13.2829,178.572,2.39502,-145.129,568
1569684711,404.403,72.1072,-13.2829,178.572,2.39502,-145.129,564
1569684711,404.403,72.1072,-13.2829,178.572,2.39502,-145.129,564
1569684711,404.403,72.1072,-13.3945,178.55,2.39502,-145.129,564
1569684711,404.403,72.1072,-13.3945,178.55,2.39502,-145.129,560
1569684711,404.403,72.1072,-13.3945,178.55,2.39502,-145.129,560
1569684711,404.403,72.1072,-13.3945,178.55,2.39502,-145.129,560
1569684711,404.403,72.1072,-13.3945,178.55,2.37305,-145.129,560
1569684711,404.403,72.1072,-13.3945,178.55,2.37305,-145.129,556
1569684711,404.403,72.1072,-13.3945,178.55,2.37305,-145.129,556
1569684711,404.403,72.1072,-13.3945,178.55,2.37305,-145.129,556
1569684711,404.403,72.1072,-13.5062,178.55,2.37305,-145.129,556
1569684711,404.292,72.1072,-13.5062,178.55,2.37305,-145.129,556
1569684711,404.292,72.1072,-13.3945,178.55,2.37305,-145.129,556
1569684711,404.292,72.1072,-13.3945,178.55,2.37305,-145.151,556
1569684711,404.292,72.1072,-13.3945,178.572,2.37305,-145.151,556
1569684711,404.292,72.1072,-13.3945,178.572,2.37305,-145.151,556
1569684711,404.292,72.1072,-13.3945,178.572,2.37305,-145.151,556
1569684711,404.292,72.1072,-13.3945,178.572,2.39502,-145.151,556
1569684711,404.292,72.1072,-13.3945,178.572,2.39502,-145.151,560
1569684711,404.292,72.1072,-13.3945,178.572,2.39502,-145.151,560
1569684711,404.292,72.1072,-13.3945,178.572,2.39502,-145.151,560
1569684711,404.292,72.1072,-13.3945,178.572,2.39502,-145.151,560
1569684711,404.292,72.1072,-13.3945,178.572,2.39502,-145.173,560
1569684711,404.292,72.1072,-13.3945,178.572,2.39502,-145.173,560
1569684711,404.292,72.1072,-13.3945,178.55,2.39502,-145.173,560
1569684711,404.292,72.1072,-13.3945,178.55,2.39502,-145.173,560
1569684711,404.292,72.1072,-13.3945,178.55,2.37305,-145.173,560
1569684711,404.292,72.1072,-13.3945,178.55,2.37305,-145.173,560
1569684711,404.292,72.1072,-13.3945,178.55,2.37305,-145.173,560
1569684711,404.292,72.1072,-13.3945,178.55,2.37305,-145.173,564
1569684711,404.403,72.1072,-13.3945,178.55,2.37305,-145.173,564
1569684711,404.403,72.1072,-13.3945,178.55,2.37305,-145.173,564
1569684711,404.403,72.1072,-13.3945,178.55,2.37305,-145.173,564
1569684711,404.403,72.1072,-13.3945,178.55,2.37305,-145.173,564
1569684711,404.403,72.1072,-13.3945,178.55,2.37305,-145.173,568
1569684711,404.403,72.1072,-13.3945,178.55,2.35107,-145.173,568
1569684711,404.403,72.1072,-13.3945,178.55,2.35107,-145.151,568
1569684711,404.403,72.1072,-13.3945,178.55,2.35107,-145.151,568
1569684711,404.403,72.1072,-13.3945,178.572,2.35107,-145.151,568
1569684711,404.403,72.1072,-13.3945,178.572,2.37305,-145.151,568
1569684711,404.403,72.1072,-13.3945,178.572,2.37305,-145.151,564
1569684711,404.403,72.1072,-13.3945,178.572,2.37305,-145.151,564
1569684711,404.403,72.1072,-13.3945,178.572,2.37305,-145.151,564
1569684711,404.403,72.1072,-13.3945,178.572,2.37305,-145.151,564
1569684711,404.403,72.2188,-13.5062,178.572,2.35107,-145.151,564
1569684711,404.403,72.2188,-13.5062,178.572,2.35107,-145.151,560
1569684711,404.403,72.2188,-13.5062,178.572,2.35107,-145.151,560
1569684711,404.403,72.2188,-13.5062,178.594,2.35107,-145.151,560
1569684711,404.403,72.2188,-13.5062,178.594,2.35107,-145.151,560
1569684711,404.403,72.2188,-13.5062,178.594,2.35107,-145.173,560
1569684711,404.403,72.2188,-13.5062,178.594,2.35107,-145.173,556
1569684711,404.403,72.2188,-13.5062,178.594,2.35107,-145.173,556
1569684711,404.403,72.2188,-13.5062,178.572,2.35107,-145.173,556
1569684711,404.403,72.2188,-13.5062,178.572,2.35107,-145.173,556
1569684711,404.403,72.1072,-13.5062,178.572,2.35107,-145.173,556
1569684711,404.403,72.1072,-13.5062,178.572,2.35107,-145.173,560
1569684711,404.403,72.1072,-13.5062,178.572,2.35107,-145.173,560
1569684711,404.403,72.1072,-13.5062,178.572,2.35107,-145.173,560
1569684711,404.403,72.1072,-13.5062,178.572,2.35107,-145.173,560
1569684711,404.403,72.1072,-13.5062,178.572,2.35107,-145.173,560
1569684711,404.403,72.1072,-13.5062,178.572,2.35107,-145.173,560
1569684711,404.403,72.1072,-13.5062,178.572,2.35107,-145.173,560
1569684711,404.403,72.1072,-13.5062,178.572,2.35107,-145.173,560
1569684711,404.403,72.1072,-13.5062,178.572,2.35107,-145.173,560
1569684711,404.292,72.2188,-13.5062,178.594,2.35107,-145.173,560
1569684711,404.292,72.2188,-13.5062,178.594,2.37305,-145.173,560
1569684711,404.292,72.2188,-13.5062,178.594,2.37305,-145.173,560
1569684711,404.292,72.2188,-13.5062,178.594,2.37305,-145.173,564
1569684711,404.292,72.2188,-13.5062,178.594,2.37305,-145.173,564
1569684711,404.292,72.2188,-13.5062,178.594,2.37305,-145.173,564
1569684711,404.292,72.2188,-13.5062,178.594,2.37305,-145.173,564
1569684711,404.292,72.2188,-13.5062,178.594,2.37305,-145.173,564
1569684711,404.292,72.2188,-13.5062,178.594,2.37305,-145.173,564
1569684711,404.292,72.2188,-13.5062,178.594,2.37305,-145.173,568
1569684711,404.292,72.2188,-13.5062,178.594,2.37305,-145.151,568
1569684711,404.292,72.2188,-13.5062,178.616,2.37305,-145.151,568
1569684711,404.292,72.2188,-13.5062,178.616,2.37305,-145.151,568
1569684711,404.292,72.2188,-13.5062,178.616,2.37305,-145.151,568
1569684711,404.292,72.2188,-13.5062,178.616,2.37305,-145.151,572
1569684711,404.292,72.2188,-13.5062,178.616,2.37305,-145.151,572
1569684711,404.292,72.2188,-13.5062,178.616,2.37305,-145.151,572
1569684712,404.292,72.2188,-13.5062,178.616,2.37305,-145.151,572
1569684712,404.292,72.2188,-13.5062,178.616,2.37305,-145.151,572
1569684712,404.292,72.2188,-13.5062,178.616,2.37305,-145.151,572
1569684712,404.18,72.2188,-13.5062,178.616,2.37305,-145.151,572
1569684712,404.18,72.2188,-13.5062,178.616,2.37305,-145.129,572
1569684712,404.18,72.2188,-13.3945,178.616,2.37305,-145.129,572
1569684712,404.18,72.2188,-13.3945,178.616,2.37305,-145.129,572
1569684712,404.18,72.2188,-13.3945,178.616,2.37305,-145.151,572
1569684712,404.18,72.2188,-13.3945,178.616,2.37305,-145.151,572
1569684712,404.18,72.2188,-13.3945,178.594,2.39502,-145.151,572
1569684712,404.18,72.2188,-13.3945,178.594,2.39502,-145.151,572
1569684712,404.18,72.2188,-13.3945,178.594,2.39502,-145.151,572
1569684712,404.18,72.1072,-13.3945,178.594,2.39502,-145.151,572
1569684712,404.18,72.1072,-13.3945,178.594,2.39502,-145.151,572
1569684712,404.18,72.1072,-13.2829,178.594,2.39502,-145.151,572
1569684712,404.18,72.1072,-13.2829,178.594,2.39502,-145.151,572
1569684712,404.18,72.1072,-13.3945,178.572,2.39502,-145.151,572
1569684712,404.18,72.1072,-13.3945,178.572,2.39502,-145.151,572
1569684712,404.18,72.1072,-13.3945,178.572,2.39502,-145.151,572
1569684712,404.18,72.1072,-13.3945,178.572,2.39502,-145.151,572
1569684712,404.18,72.1072,-13.3945,178.572,2.39502,-145.151,572
1569684712,404.18,72.1072,-13.3945,178.572,2.39502,-145.151,572
1569684712,404.18,72.1072,-13.3945,178.594,2.39502,-145.151,572
1569684712,404.18,72.1072,-13.3945,178.594,2.39502,-145.151,572
1569684712,404.18,72.1072,-13.3945,178.594,2.39502,-145.151,572
1569684712,404.18,72.1072,-13.3945,178.594,2.39502,-145.151,572
1569684712,404.18,72.1072,-13.3945,178.594,2.39502,-145.151,572
1569684712,404.18,72.1072,-13.3945,178.594,2.39502,-145.151,568
1569684712,404.292,72.2188,-13.2829,178.594,2.39502,-145.129,568
1569684712,404.292,72.2188,-13.2829,178.594,2.39502,-145.129,568
1569684712,404.292,72.2188,-13.2829,178.594,2.41699,-145.129,564
1569684712,404.292,72.2188,-13.2829,178.594,2.41699,-145.129,564
1569684712,404.292,72.1072,-13.2829,178.594,2.41699,-145.129,564
1569684712,404.292,72.1072,-13.2829,178.572,2.41699,-145.129,560
1569684712,404.292,72.1072,-13.2829,178.572,2.41699,-145.129,560
1569684712,404.292,72.1072,-13.2829,178.572,2.39502,-145.129,556
1569684712,404.18,72.1072,-13.2829,178.572,2.39502,-145.129,556
1569684712,404.18,72.1072,-13.2829,178.572,2.39502,-145.129,556
1569684712,404.18,72.1072,-13.2829,178.572,2.39502,-145.129,556
1569684712,404.18,72.1072,-13.2829,178.572,2.39502,-145.129,556
1569684712,404.292,72.1072,-13.2829,178.572,2.41699,-145.129,552
1569684712,404.292,72.1072,-13.2829,178.572,2.41699,-145.129,552
1569684712,404.292,72.1072,-13.2829,178.572,2.41699,-145.129,552
1569684712,404.292,72.1072,-13.2829,178.572,2.41699,-145.129,552
1569684712,404.292,72.1072,-13.2829,178.572,2.41699,-145.129,552
1569684712,404.18,72.1072,-13.2829,178.572,2.41699,-145.129,552
1569684712,404.18,71.9956,-13.2829,178.572,2.41699,-145.151,556
1569684712,404.18,71.9956,-13.1713,178.55,2.41699,-145.151,556
1569684712,404.18,71.9956,-13.1713,178.55,2.41699,-145.151,556
1569684712,404.18,71.9956,-13.2829,178.55,2.41699,-145.151,556
1569684712,404.18,71.9956,-13.2829,178.55,2.41699,-145.151,556
1569684712,404.18,71.9956,-13.2829,178.572,2.41699,-145.151,560
1569684712,404.18,71.9956,-13.2829,178.572,2.41699,-145.151,560
1569684712,404.18,71.9956,-13.2829,178.572,2.41699,-145.151,560
1569684712,404.18,72.1072,-13.2829,178.572,2.41699,-145.151,560
1569684712,404.18,72.1072,-13.2829,178.572,2.41699,-145.151,564
1569684712,404.18,72.1072,-13.2829,178.594,2.41699,-145.151,564
1569684712,404.18,72.1072,-13.2829,178.594,2.41699,-145.151,564
1569684712,404.18,72.1072,-13.2829,178.594,2.43896,-145.151,564
1569684712,404.18,72.1072,-13.2829,178.594,2.43896,-145.151,564
1569684712,404.18,72.2188,-13.1713,178.616,2.43896,-145.151,564
1569684712,404.18,72.2188,-13.1713,178.616,2.43896,-145.151,564
1569684712,404.18,72.2188,-13.1713,178.616,2.43896,-145.129,564
1569684712,404.18,72.2188,-13.1713,178.616,2.43896,-145.129,564
1569684712,404.18,72.2188,-13.1713,178.616,2.43896,-145.129,560
1569684712,404.18,72.2188,-13.1713,178.616,2.43896,-145.129,560
1569684712,404.18,72.2188,-13.1713,178.616,2.43896,-145.129,560
1569684712,404.18,72.2188,-13.1713,178.616,2.43896,-145.129,560
1569684712,404.18,72.2188,-13.2829,178.616,2.43896,-145.151,560
1569684712,404.18,72.2188,-13.2829,178.616,2.43896,-145.151,560
1569684712,404.18,72.2188,-13.2829,178.616,2.43896,-145.151,560
1569684712,404.18,72.2188,-13.2829,178.616,2.43896,-145.151,564
1569684712,404.18,72.2188,-13.2829,178.616,2.43896,-145.129,564
1569684712,404.18,72.2188,-13.2829,178.594,2.43896,-145.129,564
1569684712,404.18,72.2188,-13.2829,178.594,2.41699,-145.129,564
1569684712,404.18,72.2188,-13.2829,178.594,2.41699,-145.129,568
1569684712,404.18,72.2188,-13.2829,178.594,2.41699,-145.129,568
1569684712,404.18,72.2188,-13.2829,178.594,2.41699,-145.151,568
1569684712,404.18,72.2188,-13.2829,178.594,2.41699,-145.151,568
1569684712,404.18,72.2188,-13.2829,178.594,2.41699,-145.151,572
1569684712,404.18,72.2188,-13.2829,178.594,2.41699,-145.151,572
1569684712,404.292,72.2188,-13.2829,178.594,2.41699,-145.151,572
1569684712,404.292,72.2188,-13.2829,178.594,2.41699,-145.151,572
1569684712,404.292,72.2188,-13.2829,178.594,2.41699,-145.151,576
1569684712,404.292,72.2188,-13.2829,178.594,2.41699,-145.151,576
1569684712,404.292,72.2188,-13.2829,178.572,2.41699,-145.151,576
1569684712,404.292,72.1072,-13.2829,178.572,2.39502,-145.151,576
1569684712,404.292,72.1072,-13.2829,178.572,2.39502,-145.151,576
1569684712,404.292,72.1072,-13.3945,178.572,2.39502,-145.151,576
1569684712,404.292,72.1072,-13.3945,178.572,2.39502,-145.151,576
1569684712,404.292,72.1072,-13.3945,178.572,2.39502,-145.151,576
1569684712,404.403,72.1072,-13.3945,178.572,2.39502,-145.151,576
1569684712,404.403,72.1072,-13.3945,178.572,2.39502,-145.151,572
1569684712,404.403,72.1072,-13.3945,178.572,2.39502,-145.151,572
1569684712,404.403,72.1072,-13.3945,178.572,2.39502,-145.151,572
1569684712,404.403,72.1072,-13.3945,178.572,2.39502,-145.129,572
1569684712,404.403,72.1072,-13.3945,178.572,2.39502,-145.129,568
1569684712,404.403,72.1072,-13.2829,178.572,2.39502,-145.129,568
1569684712,404.403,72.1072,-13.2829,178.572,2.39502,-145.129,568
1569684712,404.403,72.1072,-13.2829,178.572,2.41699,-145.129,564
1569684713,404.403,72.1072,-13.2829,178.572,2.41699,-145.129,564
1569684713,404.403,72.1072,-13.2829,178.572,2.41699,-145.129,564
1569684713,404.403,72.1072,-13.2829,178.572,2.41699,-145.129,560
1569684713,404.403,72.1072,-13.1713,178.572,2.41699,-145.129,560
1569684713,404.403,72.1072,-13.1713,178.572,2.43896,-145.129,560
1569684713,404.403,72.1072,-13.1713,178.572,2.43896,-145.151,556
1569684713,404.403,72.1072,-13.1713,178.572,2.43896,-145.151,556
1569684713,404.403,72.1072,-13.1713,178.572,2.43896,-145.151,556
1569684713,404.403,72.1072,-13.1713,178.572,2.43896,-145.151,556
1569684713,404.403,72.1072,-13.1713,178.572,2.43896,-145.151,556
1569684713,404.403,72.1072,-13.1713,178.572,2.46094,-145.151,556
1569684713,404.403,72.1072,-13.1713,178.572,2.46094,-145.151,556
1569684713,404.403,72.1072,-13.1713,178.572,2.43896,-145.151,556
1569684713,404.403,72.1072,-13.1713,178.572,2.43896,-145.151,552
1569684713,404.403,72.1072,-13.1713,178.55,2.43896,-145.151,552
1569684713,404.403,72.1072,-13.1713,178.55,2.43896,-145.151,552
1569684713,404.403,72.1072,-13.1713,178.55,2.43896,-145.151,552
1569684713,404.403,72.1072,-13.1713,178.55,2.43896,-145.151,552
1569684713,404.403,72.1072,-13.1713,178.55,2.43896,-145.151,552
1569684713,404.403,72.1072,-13.1713,178.55,2.43896,-145.151,556
1569684713,404.403,72.1072,-13.1713,178.55,2.43896,-145.151,556
1569684713,404.403,72.1072,-13.1713,178.55,2.43896,-145.151,556
1569684713,404.403,72.1072,-13.1713,178.55,2.43896,-145.151,556
1569684713,404.292,72.1072,-13.1713,178.55,2.43896,-145.151,560
1569684713,404.292,72.1072,-13.1713,178.55,2.43896,-145.151,560
1569684713,404.292,72.1072,-13.1713,178.55,2.43896,-145.151,560
1569684713,404.292,72.1072,-13.1713,178.55,2.41699,-145.151,564
1569684713,404.292,72.1072,-13.1713,178.55,2.41699,-145.151,564
1569684713,404.292,72.1072,-13.2829,178.55,2.41699,-145.151,564
1569684713,404.292,72.1072,-13.2829,178.572,2.41699,-145.151,568
1569684713,404.292,72.1072,-13.2829,178.572,2.41699,-145.151,568
1569684713,404.292,72.1072,-13.2829,178.572,2.41699,-145.151,568
1569684713,404.292,72.1072,-13.2829,178.572,2.41699,-145.151,572
1569684713,404.292,72.1072,-13.2829,178.572,2.39502,-145.151,572
1569684713,404.292,72.1072,-13.2829,178.572,2.39502,-145.151,572
1569684713,404.292,72.1072,-13.2829,178.572,2.39502,-145.151,572
1569684713,404.292,72.1072,-13.2829,178.55,2.39502,-145.151,572
1569684713,404.292,72.1072,-13.2829,178.55,2.39502,-145.151,572
1569684713,404.292,72.1072,-13.2829,178.55,2.39502,-145.151,572
1569684713,404.292,72.1072,-13.2829,178.55,2.39502,-145.151,572
1569684713,404.292,71.9956,-13.2829,178.55,2.39502,-145.151,572
1569684713,404.292,71.9956,-13.2829,178.55,2.39502,-145.151,572
1569684713,404.292,71.9956,-13.2829,178.55,2.39502,-145.151,572
1569684713,404.292,71.9956,-13.2829,178.55,2.39502,-145.151,572
1569684713,404.292,71.9956,-13.2829,178.55,2.39502,-145.151,572
1569684713,404.292,72.1072,-13.2829,178.55,2.39502,-145.151,572
1569684713,404.18,72.1072,-13.2829,178.572,2.39502,-145.151,572
1569684713,404.18,72.1072,-13.2829,178.572,2.39502,-145.151,572
1569684713,404.18,72.1072,-13.2829,178.572,2.39502,-145.151,572
1569684713,404.18,72.1072,-13.2829,178.572,2.39502,-145.151,576
1569684713,404.18,72.1072,-13.2829,178.572,2.39502,-145.151,576
1569684713,404.18,72.1072,-13.2829,178.572,2.39502,-145.151,576
1569684713,404.18,72.1072,-13.2829,178.572,2.39502,-145.151,576
1569684713,404.18,72.2188,-13.3945,178.594,2.39502,-145.151,580
1569684713,404.18,72.2188,-13.3945,178.594,2.39502,-145.151,580
1569684713,404.18,72.2188,-13.3945,178.594,2.39502,-145.151,580
1569684713,404.18,72.1072,-13.3945,178.572,2.39502,-145.151,580
1569684713,404.18,72.1072,-13.3945,178.572,2.39502,-145.151,584
1569684713,404.18,72.1072,-13.3945,178.572,2.39502,-145.151,584
1569684713,404.18,72.1072,-13.3945,178.572,2.37305,-145.151,584
1569684713,404.18,72.1072,-13.3945,178.572,2.37305,-145.151,584
1569684713,404.18,72.1072,-13.3945,178.572,2.37305,-145.151,588
1569684713,404.18,72.1072,-13.3945,178.572,2.37305,-145.151,588
1569684713,404.18,72.1072,-13.3945,178.572,2.37305,-145.151,588
1569684713,404.18,72.1072,-13.3945,178.572,2.37305,-145.151,588
1569684713,404.18,72.1072,-13.3945,178.572,2.37305,-145.151,588
1569684713,404.18,72.1072,-13.3945,178.572,2.37305,-145.151,592
1569684713,404.18,72.1072,-13.3945,178.572,2.37305,-145.151,592
1569684713,404.18,72.2188,-13.3945,178.572,2.39502,-145.151,592
1569684713,404.18,72.2188,-13.3945,178.572,2.39502,-145.151,592
1569684713,404.18,72.2188,-13.3945,178.594,2.39502,-145.151,592
1569684713,404.18,72.2188,-13.3945,178.594,2.39502,-145.151,592
1569684713,404.18,72.2188,-13.2829,178.594,2.39502,-145.151,592
1569684713,404.18,72.2188,-13.2829,178.594,2.41699,-145.151,588
1569684713,404.18,72.2188,-13.2829,178.594,2.41699,-145.151,588
1569684713,404.18,72.2188,-13.2829,178.594,2.41699,-145.151,588
1569684713,404.18,72.2188,-13.2829,178.594,2.41699,-145.151,588
1569684713,404.18,72.2188,-13.2829,178.594,2.41699,-145.151,588
1569684713,404.18,72.2188,-13.2829,178.594,2.41699,-145.151,588
1569684713,404.18,72.1072,-13.2829,178.572,2.41699,-145.151,588
1569684713,404.18,72.1072,-13.2829,178.572,2.43896,-145.151,588
1569684713,404.18,72.1072,-13.2829,178.572,2.43896,-145.151,588
1569684713,404.18,72.1072,-13.1713,178.572,2.43896,-145.151,588
1569684713,404.18,72.1072,-13.1713,178.572,2.43896,-145.151,588
1569684713,404.18,72.1072,-13.1713,178.572,2.43896,-145.151,588
1569684713,404.18,72.1072,-13.1713,178.572,2.43896,-145.151,588
1569684713,404.18,72.1072,-13.1713,178.572,2.43896,-145.151,588
1569684713,404.18,72.1072,-13.1713,178.572,2.43896,-145.151,584
1569684713,404.18,72.1072,-13.1713,178.572,2.43896,-145.151,584
1569684713,404.18,72.1072,-13.1713,178.594,2.43896,-145.151,584
1569684713,404.18,72.1072,-13.2829,178.594,2.41699,-145.151,584
1569684713,404.18,72.1072,-13.2829,178.594,2.41699,-145.151,584
1569684713,404.18,72.2188,-13.2829,178.594,2.41699,-145.151,584
1569684713,404.18,72.2188,-13.2829,178.594,2.41699,-145.151,584
1569684713,404.18,72.2188,-13.2829,178.616,2.41699,-145.151,580
1569684713,404.18,72.2188,-13.2829,178.616,2.41699,-145.151,580
1569684713,404.18,72.2188,-13.2829,178.616,2.39502,-145.151,580
1569684713,404.18,72.2188,-13.2829,178.616,2.39502,-145.151,580
1569684713,404.18,72.2188,-13.3945,178.616,2.39502,-145.151,580
1569684713,404.18,72.2188,-13.3945,178.616,2.39502,-145.151,580
1569684714,404.18,72.2188,-13.3945,178.616,2.39502,-145.151,580
1569684714,404.18,72.2188,-13.3945,178.616,2.39502,-145.151,580
1569684714,404.18,72.2188,-13.3945,178.616,2.39502,-145.151,580
1569684714,404.18,72.2188,-13.3945,178.616,2.39502,-145.151,580
1569684714,404.18,72.2188,-13.3945,178.616,2.39502,-145.151,580
1569684714,404.18,72.2188,-13.3945,178.616,2.39502,-145.151,580
1569684714,404.18,72.2188,-13.3945,178.616,2.39502,-145.151,576
1569684714,404.18,72.2188,-13.3945,178.616,2.39502,-145.151,576
1569684714,404.18,72.2188,-13.3945,178.616,2.39502,-145.151,576
1569684714,404.18,72.2188,-13.3945,178.616,2.39502,-145.151,576
1569684714,404.18,72.3305,-13.3945,178.616,2.39502,-145.151,576
1569684714,404.18,72.3305,-13.3945,178.616,2.39502,-145.151,576
1569684714,404.18,72.3305,-13.3945,178.638,2.39502,-145.151,576
1569684714,404.18,72.3305,-13.3945,178.638,2.37305,-145.151,576
1569684714,404.18,72.3305,-13.3945,178.638,2.37305,-145.151,576
1569684714,404.18,72.3305,-13.3945,178.638,2.37305,-145.151,576
