time,x,y,z,ax,ay,az,q
1569922526,407.975,-54.2479,-2.56729,178.945,5.00977,-144.492,1756
1569922526,407.975,-54.2479,-2.56729,178.945,5.00977,-144.492,1752
1569922526,407.975,-54.2479,-2.56729,178.945,5.00977,-144.47,1752
1569922526,407.975,-54.2479,-2.56729,178.945,5.00977,-144.47,1752
1569922526,407.975,-54.2479,-2.56729,178.945,5.00977,-144.47,1752
1569922526,407.975,-54.2479,-2.56729,178.945,5.00977,-144.47,1752
1569922526,407.975,-54.2479,-2.56729,178.945,5.00977,-144.47,1752
1569922526,407.975,-54.2479,-2.56729,178.945,5.00977,-144.47,1748
1569922526,407.975,-54.2479,-2.56729,178.945,5.00977,-144.47,1748
1569922526,407.975,-54.2479,-2.56729,178.945,5.00977,-144.47,1748
1569922526,407.975,-54.2479,-2.56729,178.945,5.00977,-144.47,1748
1569922526,407.975,-54.2479,-2.56729,178.945,5.00977,-144.47,1748
1569922526,407.975,-54.2479,-2.56729,178.945,5.00977,-144.47,1748
1569922526,407.975,-54.2479,-2.67891,178.945,5.00977,-144.492,1744
1569922526,407.863,-54.2479,-2.67891,178.945,5.00977,-144.492,1744
1569922526,407.863,-54.2479,-2.67891,178.945,5.00977,-144.492,1744
1569922527,407.863,-54.2479,-2.67891,178.945,4.98779,-144.492,1744
1569922527,407.863,-54.2479,-2.67891,178.945,4.98779,-144.492,1744
1569922527,407.863,-54.2479,-2.67891,178.945,4.98779,-144.492,1744
1569922527,407.863,-54.2479,-2.67891,178.945,4.98779,-144.47,1744
1569922527,407.863,-54.2479,-2.67891,178.945,5.00977,-144.47,1744
1569922527,407.863,-54.2479,-2.67891,178.945,5.00977,-144.47,1744
1569922527,407.863,-54.2479,-2.56729,178.967,5.00977,-144.47,1744
1569922527,407.863,-54.2479,-2.56729,178.967,5.00977,-144.47,1744
1569922527,407.863,-54.2479,-2.56729,178.967,5.00977,-144.47,1748
1569922527,407.863,-54.2479,-2.56729,178.967,5.00977,-144.47,1748
1569922527,407.863,-54.2479,-2.56729,178.967,5.00977,-144.448,1748
1569922527,407.863,-54.2479,-2.56729,178.967,5.00977,-144.448,1748
1569922527,407.863,-54.2479,-2.56729,178.967,5.00977,-144.448,1748
1569922527,407.863,-54.2479,-2.56729,178.967,5.00977,-144.448,1748
1569922527,407.863,-54.2479,-2.56729,178.967,5.00977,-144.448,1748
1569922527,407.863,-54.2479,-2.56729,178.967,5.00977,-144.448,1748
1569922527,407.863,-54.2479,-2.56729,178.967,5.00977,-144.448,1748
1569922527,407.863,-54.2479,-2.56729,178.967,5.00977,-144.448,1748
1569922527,407.863,-54.2479,-2.56729,178.967,5.00977,-144.47,1748
1569922527,407.863,-54.2479,-2.56729,178.967,5.00977,-144.47,1748
1569922527,407.863,-54.2479,-2.56729,178.967,4.98779,-144.47,1748
1569922527,407.863,-54.2479,-2.67891,178.967,4.98779,-144.47,1748
1569922527,407.863,-54.2479,-2.67891,178.967,4.98779,-144.47,1748
1569922527,407.863,-54.2479,-2.67891,178.967,4.98779,-144.47,1748
1569922527,407.863,-54.2479,-2.67891,178.945,4.98779,-144.47,1748
1569922527,407.863,-54.2479,-2.67891,178.945,4.98779,-144.47,1744
1569922527,407.863,-54.2479,-2.67891,178.945,4.98779,-144.47,1744
1569922527,407.863,-54.2479,-2.67891,178.945,4.98779,-144.47,1744
1569922527,407.863,-54.2479,-2.67891,178.945,4.98779,-144.492,1744
1569922527,407.863,-54.2479,-2.67891,178.945,4.98779,-144.492,1744
1569922527,407.975,-54.2479,-2.67891,178.945,4.98779,-144.492,1744
1569922527,407.975,-54.2479,-2.67891,178.945,4.98779,-144.492,1744
1569922527,407.975,-54.2479,-2.67891,178.945,4.98779,-144.492,1744
1569922527,407.975,-54.2479,-2.67891,178.945,4.98779,-144.492,1748
1569922527,407.975,-54.2479,-2.67891,178.945,4.98779,-144.492,1748
1569922527,407.975,-54.2479,-2.67891,178.945,4.98779,-144.492,1748
1569922527,407.975,-54.2479,-2.67891,178.945,4.98779,-144.492,1748
1569922527,407.975,-54.2479,-2.67891,178.945,4.98779,-144.492,1748
1569922527,407.975,-54.2479,-2.67891,178.945,4.98779,-144.492,1752
1569922527,407.975,-54.2479,-2.67891,178.945,4.98779,-144.492,1752
1569922527,407.975,-54.2479,-2.67891,178.945,4.98779,-144.492,1752
1569922527,407.863,-54.2479,-2.79053,178.923,4.96582,-144.492,1752
1569922527,407.863,-54.2479,-2.79053,178.923,4.96582,-144.492,1748
1569922527,407.863,-54.3595,-2.79053,178.923,4.96582,-144.492,1748
1569922527,407.863,-54.3595,-2.79053,178.923,4.96582,-144.492,1748
1569922527,407.863,-54.3595,-2.79053,178.923,4.96582,-144.47,1748
1569922527,407.863,-54.3595,-2.79053,178.923,4.96582,-144.47,1744
1569922527,407.863,-54.3595,-2.79053,178.923,4.96582,-144.47,1744
1569922527,407.863,-54.3595,-2.79053,178.923,4.96582,-144.47,1744
1569922527,407.863,-54.3595,-2.79053,178.901,4.96582,-144.47,1744
1569922527,407.863,-54.3595,-2.79053,178.901,4.96582,-144.47,1740
1569922527,407.863,-54.3595,-2.79053,178.901,4.96582,-144.47,1740
1569922527,407.863,-54.3595,-2.79053,178.901,4.96582,-144.448,1740
1569922527,407.863,-54.3595,-2.79053,178.901,4.96582,-144.448,1740
1569922527,407.863,-54.3595,-2.79053,178.901,4.96582,-144.448,1740
1569922527,407.863,-54.4711,-2.79053,178.901,4.96582,-144.448,1740
1569922527,407.863,-54.4711,-2.67891,178.879,4.96582,-144.448,1740
1569922527,407.863,-54.4711,-2.67891,178.879,4.96582,-144.448,1736
1569922527,407.863,-54.4711,-2.67891,178.879,4.96582,-144.448,1736
1569922527,407.863,-54.4711,-2.67891,178.901,4.96582,-144.448,1736
1569922527,407.863,-54.3595,-2.67891,178.901,4.96582,-144.448,1736
1569922527,407.863,-54.3595,-2.67891,178.901,4.96582,-144.448,1736
1569922527,407.752,-54.3595,-2.67891,178.901,4.96582,-144.47,1736
1569922527,407.752,-54.3595,-2.67891,178.901,4.98779,-144.47,1736
1569922527,407.752,-54.3595,-2.67891,178.901,4.98779,-144.47,1736
1569922527,407.752,-54.3595,-2.67891,178.901,4.98779,-144.47,1736
1569922527,407.752,-54.3595,-2.67891,178.901,4.98779,-144.47,1736
1569922527,407.752,-54.3595,-2.67891,178.901,4.98779,-144.47,1736
1569922527,407.752,-54.3595,-2.67891,178.901,4.98779,-144.47,1732
1569922527,407.752,-54.3595,-2.67891,178.901,4.98779,-144.47,1732
1569922527,407.752,-54.3595,-2.67891,178.901,4.98779,-144.47,1732
1569922527,407.752,-54.3595,-2.67891,178.901,4.98779,-144.47,1732
1569922527,407.863,-54.3595,-2.67891,178.901,4.98779,-144.47,1732
1569922527,407.863,-54.3595,-2.67891,178.901,4.98779,-144.47,1732
1569922527,407.863,-54.3595,-2.67891,178.901,4.98779,-144.47,1728
1569922527,407.863,-54.3595,-2.79053,178.901,4.98779,-144.47,1728
1569922527,407.863,-54.3595,-2.79053,178.901,4.96582,-144.47,1728
1569922527,407.863,-54.3595,-2.79053,178.901,4.96582,-144.47,1728
1569922527,407.863,-54.3595,-2.79053,178.901,4.96582,-144.47,1728
1569922527,407.863,-54.3595,-2.79053,178.901,4.96582,-144.47,1728
1569922527,407.863,-54.3595,-2.67891,178.901,4.96582,-144.47,1728
1569922527,407.863,-54.3595,-2.67891,178.901,4.98779,-144.47,1728
1569922527,407.863,-54.3595,-2.67891,178.901,4.98779,-144.47,1728
1569922527,407.863,-54.3595,-2.67891,178.901,4.96582,-144.47,1724
1569922527,407.752,-54.3595,-2.67891,178.901,4.96582,-144.47,1724
1569922527,407.752,-54.3595,-2.67891,178.901,4.96582,-144.47,1724
1569922527,407.752,-54.3595,-2.67891,178.901,4.96582,-144.47,1724
1569922527,407.752,-54.3595,-2.67891,178.923,4.96582,-144.47,1724
1569922527,407.752,-54.3595,-2.67891,178.923,4.96582,-144.47,1724
1569922527,407.752,-54.3595,-2.67891,178.923,4.96582,-144.47,1720
1569922527,407.752,-54.3595,-2.67891,178.923,4.96582,-144.47,1720
1569922527,407.752,-54.3595,-2.79053,178.923,4.96582,-144.47,1720
1569922527,407.752,-54.3595,-2.79053,178.923,4.96582,-144.47,1720
1569922527,407.752,-54.3595,-2.67891,178.923,4.96582,-144.47,1720
1569922527,407.752,-54.3595,-2.67891,178.923,4.96582,-144.47,1720
1569922527,407.752,-54.3595,-2.67891,178.923,4.96582,-144.47,1716
1569922527,407.752,-54.3595,-2.67891,178.923,4.96582,-144.47,1716
1569922527,407.752,-54.3595,-2.67891,178.923,4.96582,-144.492,1716
1569922527,407.752,-54.3595,-2.67891,178.923,4.98779,-144.492,1716
1569922527,407.752,-54.3595,-2.67891,178.923,4.98779,-144.492,1716
1569922528,407.752,-54.3595,-2.67891,178.923,4.98779,-144.492,1716
1569922528,407.752,-54.3595,-2.67891,178.923,4.98779,-144.492,1716
1569922528,407.863,-54.3595,-2.67891,178.923,4.98779,-144.492,1716
1569922528,407.863,-54.3595,-2.67891,178.923,4.98779,-144.492,1716
1569922528,407.863,-54.3595,-2.67891,178.923,4.98779,-144.492,1716
1569922528,407.863,-54.3595,-2.67891,178.923,4.98779,-144.492,1716
1569922528,407.863,-54.3595,-2.67891,178.945,4.98779,-144.492,1716
1569922528,407.863,-54.2479,-2.67891,178.945,4.98779,-144.492,1716
1569922528,407.863,-54.2479,-2.67891,178.945,4.98779,-144.492,1716
1569922528,407.863,-54.2479,-2.67891,178.945,4.98779,-144.492,1716
1569922528,407.863,-54.2479,-2.67891,178.945,4.98779,-144.47,1716
1569922528,407.863,-54.2479,-2.67891,178.945,4.98779,-144.47,1716
1569922528,407.863,-54.2479,-2.67891,178.967,4.98779,-144.47,1716
1569922528,407.863,-54.2479,-2.67891,178.967,4.98779,-144.47,1716
1569922528,407.863,-54.2479,-2.67891,178.967,4.98779,-144.47,1712
1569922528,407.863,-54.2479,-2.67891,178.967,4.98779,-144.47,1712
1569922528,407.752,-54.2479,-2.56729,178.967,4.98779,-144.47,1712
1569922528,407.752,-54.2479,-2.56729,178.967,4.98779,-144.47,1712
1569922528,407.752,-54.2479,-2.56729,178.967,4.98779,-144.47,1712
1569922528,407.752,-54.2479,-2.56729,178.967,4.98779,-144.47,1712
1569922528,407.752,-54.2479,-2.56729,178.967,4.98779,-144.47,1708
1569922528,407.752,-54.2479,-2.56729,178.967,4.98779,-144.47,1708
1569922528,407.752,-54.2479,-2.56729,178.967,5.00977,-144.47,1708
1569922528,407.752,-54.2479,-2.56729,178.967,5.00977,-144.47,1708
1569922528,407.752,-54.2479,-2.56729,178.967,5.00977,-144.47,1708
1569922528,407.752,-54.2479,-2.56729,178.945,5.00977,-144.47,1708
1569922528,407.752,-54.2479,-2.56729,178.945,5.00977,-144.47,1704
1569922528,407.752,-54.2479,-2.56729,178.945,5.00977,-144.47,1704
1569922528,407.752,-54.2479,-2.56729,178.945,5.00977,-144.47,1708
1569922528,407.752,-54.2479,-2.56729,178.945,5.00977,-144.47,1708
1569922528,407.752,-54.2479,-2.56729,178.945,5.00977,-144.47,1708
1569922528,407.752,-54.2479,-2.56729,178.945,5.00977,-144.47,1708
1569922528,407.752,-54.2479,-2.56729,178.945,5.00977,-144.47,1708
1569922528,407.752,-54.2479,-2.56729,178.945,5.00977,-144.47,1708
1569922528,407.863,-54.2479,-2.67891,178.945,4.98779,-144.47,1708
1569922528,407.863,-54.2479,-2.67891,178.945,4.98779,-144.47,1712
1569922528,407.863,-54.2479,-2.67891,178.945,4.98779,-144.47,1712
1569922528,407.863,-54.2479,-2.67891,178.945,4.98779,-144.47,1712
1569922528,407.863,-54.2479,-2.67891,178.945,4.98779,-144.47,1712
1569922528,407.863,-54.2479,-2.67891,178.945,4.98779,-144.47,1712
1569922528,407.863,-54.2479,-2.67891,178.945,4.98779,-144.47,1716
1569922528,407.863,-54.2479,-2.67891,178.945,4.98779,-144.47,1716
1569922528,407.863,-54.2479,-2.67891,178.945,4.98779,-144.47,1716
1569922528,407.863,-54.2479,-2.67891,178.945,4.98779,-144.47,1716
1569922528,407.863,-54.2479,-2.56729,178.945,4.98779,-144.47,1716
1569922528,407.863,-54.2479,-2.56729,178.923,4.98779,-144.47,1720
1569922528,407.863,-54.2479,-2.56729,178.923,4.98779,-144.47,1720
1569922528,407.863,-54.2479,-2.56729,178.923,4.98779,-144.47,1720
1569922528,407.863,-54.2479,-2.56729,178.923,5.00977,-144.47,1720
1569922528,407.863,-54.2479,-2.56729,178.923,5.00977,-144.47,1720
1569922528,407.863,-54.3595,-2.56729,178.923,5.00977,-144.47,1720
1569922528,407.863,-54.3595,-2.56729,178.923,5.00977,-144.47,1720
1569922528,407.863,-54.3595,-2.56729,178.923,5.00977,-144.47,1720
1569922528,407.863,-54.3595,-2.56729,178.923,5.00977,-144.47,1720
1569922528,407.863,-54.3595,-2.56729,178.923,5.03174,-144.47,1720
1569922528,407.863,-54.3595,-2.56729,178.923,5.03174,-144.47,1720
1569922528,407.863,-54.3595,-2.56729,178.923,5.03174,-144.47,1720
1569922528,407.863,-54.3595,-2.56729,178.923,5.03174,-144.47,1720
1569922528,407.863,-54.3595,-2.56729,178.923,5.03174,-144.47,1720
1569922528,407.863,-54.3595,-2.56729,178.923,5.03174,-144.47,1720
1569922528,407.863,-54.3595,-2.56729,178.923,5.03174,-144.47,1720
1569922528,407.863,-54.3595,-2.56729,178.923,5.00977,-144.47,1720
1569922528,407.863,-54.3595,-2.56729,178.923,5.00977,-144.47,1720
1569922528,407.863,-54.3595,-2.56729,178.923,5.00977,-144.47,1720
1569922528,407.863,-54.3595,-2.56729,178.923,5.00977,-144.47,1720
1569922528,407.863,-54.3595,-2.56729,178.923,5.00977,-144.47,1720
1569922528,407.863,-54.3595,-2.56729,178.923,5.00977,-144.47,1720
1569922528,407.863,-54.3595,-2.56729,178.923,5.00977,-144.47,1720
1569922528,407.863,-54.3595,-2.56729,178.923,5.00977,-144.47,1720
1569922528,407.863,-54.3595,-2.67891,178.923,4.98779,-144.47,1720
1569922528,407.863,-54.3595,-2.67891,178.923,4.98779,-144.47,1720
1569922528,407.863,-54.3595,-2.67891,178.923,4.98779,-144.47,1720
1569922528,407.863,-54.3595,-2.67891,178.923,4.98779,-144.47,1720
1569922528,407.863,-54.3595,-2.67891,178.923,4.98779,-144.47,1720
1569922528,407.863,-54.3595,-2.67891,178.923,4.98779,-144.47,1720
1569922528,407.863,-54.3595,-2.67891,178.923,4.98779,-144.47,1720
1569922528,407.863,-54.3595,-2.67891,178.923,4.98779,-144.47,1720
1569922528,407.863,-54.3595,-2.67891,178.923,4.98779,-144.47,1720
1569922528,407.863,-54.3595,-2.67891,178.923,4.98779,-144.47,1720
1569922528,407.863,-54.3595,-2.67891,178.923,4.98779,-144.47,1720
1569922528,407.863,-54.3595,-2.67891,178.923,4.98779,-144.47,1724
1569922528,407.863,-54.3595,-2.67891,178.923,4.98779,-144.47,1724
1569922528,407.863,-54.3595,-2.67891,178.923,4.98779,-144.47,1724
1569922528,407.752,-54.3595,-2.67891,178.923,4.98779,-144.47,1724
1569922528,407.752,-54.3595,-2.67891,178.923,4.98779,-144.47,1724
1569922528,407.752,-54.3595,-2.67891,178.923,4.98779,-144.47,1724
1569922528,407.752,-54.3595,-2.67891,178.923,4.98779,-144.47,1724
1569922528,407.752,-54.2479,-2.67891,178.923,4.98779,-144.47,1724
1569922528,407.752,-54.2479,-2.67891,178.923,4.98779,-144.47,1724
1569922528,407.752,-54.2479,-2.67891,178.923,4.98779,-144.47,1720
1569922528,407.752,-54.2479,-2.67891,178.923,4.98779,-144.47,1720
1569922528,407.752,-54.2479,-2.67891,178.923,4.98779,-144.47,1720
1569922528,407.752,-54.2479,-2.67891,178.945,4.98779,-144.47,1720
1569922528,407.752,-54.2479,-2.67891,178.923,4.98779,-144.47,1720
1569922528,407.752,-54.2479,-2.67891,178.923,4.98779,-144.47,1716
1569922528,407.752,-54.2479,-2.67891,178.923,4.98779,-144.47,1716
1569922528,407.752,-54.2479,-2.67891,178.923,4.98779,-144.47,1716
1569922528,407.752,-54.2479,-2.67891,178.923,4.98779,-144.47,1716
1569922528,407.752,-54.2479,-2.67891,178.923,4.98779,-144.47,1716
1569922528,407.752,-54.2479,-2.67891,178.923,4.98779,-144.47,1716
1569922529,407.752,-54.2479,-2.67891,178.923,4.98779,-144.47,1716
1569922529,407.752,-54.2479,-2.67891,178.923,4.98779,-144.47,1716
1569922529,407.752,-54.2479,-2.67891,178.923,4.98779,-144.47,1716
1569922529,407.752,-54.2479,-2.67891,178.923,5.00977,-144.47,1716
1569922529,407.752,-54.2479,-2.67891,178.945,5.00977,-144.47,1716
1569922529,407.752,-54.2479,-2.67891,178.945,5.00977,-144.47,1716
1569922529,407.752,-54.2479,-2.67891,178.945,5.00977,-144.47,1716
1569922529,407.863,-54.2479,-2.67891,178.945,5.00977,-144.47,1720
1569922529,407.863,-54.2479,-2.67891,178.923,5.00977,-144.47,1720
1569922529,407.863,-54.2479,-2.67891,178.923,5.00977,-144.47,1720
1569922529,407.863,-54.2479,-2.67891,178.923,5.00977,-144.47,1720
1569922529,407.863,-54.2479,-2.67891,178.923,5.00977,-144.47,1720
1569922529,407.863,-54.2479,-2.67891,178.945,5.00977,-144.47,1720
1569922529,407.863,-54.2479,-2.56729,178.923,5.00977,-144.47,1720
1569922529,407.863,-54.2479,-2.56729,178.923,5.00977,-144.47,1724
1569922529,407.863,-54.2479,-2.56729,178.923,5.00977,-144.47,1724
1569922529,407.863,-54.2479,-2.56729,178.923,5.00977,-144.47,1724
1569922529,407.863,-54.2479,-2.56729,178.923,5.00977,-144.47,1724
1569922529,407.863,-54.2479,-2.56729,178.923,5.00977,-144.47,1728
1569922529,407.863,-54.2479,-2.56729,178.923,5.00977,-144.47,1728
1569922529,407.863,-54.3595,-2.56729,178.923,5.00977,-144.47,1728
1569922529,407.863,-54.3595,-2.67891,178.923,5.00977,-144.47,1728
1569922529,407.863,-54.3595,-2.67891,178.923,5.00977,-144.47,1728
1569922529,407.863,-54.3595,-2.67891,178.923,5.00977,-144.47,1728
1569922529,407.863,-54.3595,-2.67891,178.923,4.98779,-144.47,1728
1569922529,407.863,-54.3595,-2.67891,178.923,4.98779,-144.47,1728
1569922529,407.863,-54.3595,-2.67891,178.923,4.98779,-144.47,1728
1569922529,407.863,-54.3595,-2.67891,178.923,4.98779,-144.47,1728
1569922529,407.863,-54.3595,-2.67891,178.923,4.98779,-144.47,1728
1569922529,407.863,-54.3595,-2.67891,178.923,4.98779,-144.47,1728
1569922529,407.863,-54.3595,-2.67891,178.923,4.98779,-144.47,1724
1569922529,407.863,-54.3595,-2.67891,178.923,4.98779,-144.47,1724
1569922529,407.863,-54.3595,-2.67891,178.923,4.98779,-144.47,1724
1569922529,407.863,-54.3595,-2.67891,178.923,4.98779,-144.47,1724
1569922529,407.863,-54.3595,-2.67891,178.923,4.98779,-144.47,1724
1569922529,407.863,-54.3595,-2.67891,178.923,4.98779,-144.47,1724
1569922529,407.863,-54.3595,-2.67891,178.901,5.00977,-144.47,1724
1569922529,407.863,-54.3595,-2.67891,178.923,5.00977,-144.47,1724
1569922529,407.863,-54.3595,-2.67891,178.923,5.00977,-144.47,1724
1569922529,407.863,-54.3595,-2.67891,178.923,5.00977,-144.47,1724
1569922529,407.863,-54.3595,-2.67891,178.923,5.00977,-144.47,1724
1569922529,407.863,-54.3595,-2.67891,178.923,5.00977,-144.47,1724
1569922529,407.863,-54.3595,-2.67891,178.923,5.00977,-144.47,1724
1569922529,407.863,-54.3595,-2.67891,178.923,5.00977,-144.47,1724
1569922529,407.863,-54.2479,-2.56729,178.945,5.00977,-144.47,1724
1569922529,407.863,-54.2479,-2.56729,178.945,5.00977,-144.47,1724
1569922529,407.863,-54.2479,-2.56729,178.945,5.00977,-144.47,1724
1569922529,407.863,-54.2479,-2.56729,178.945,5.00977,-144.448,1728
1569922529,407.863,-54.2479,-2.56729,178.945,5.00977,-144.448,1728
1569922529,407.863,-54.2479,-2.56729,178.945,5.00977,-144.448,1728
1569922529,407.863,-54.2479,-2.56729,178.945,5.00977,-144.448,1728
1569922529,407.863,-54.2479,-2.56729,178.945,5.00977,-144.448,1728
1569922529,407.863,-54.2479,-2.56729,178.945,5.00977,-144.448,1732
1569922529,407.863,-54.2479,-2.56729,178.945,5.00977,-144.448,1732
1569922529,407.863,-54.2479,-2.56729,178.945,5.00977,-144.448,1732
1569922529,407.863,-54.2479,-2.56729,178.945,5.00977,-144.448,1732
1569922529,407.863,-54.2479,-2.56729,178.945,5.03174,-144.448,1736
1569922529,407.863,-54.2479,-2.56729,178.945,5.03174,-144.448,1736
1569922529,407.863,-54.2479,-2.56729,178.945,5.03174,-144.448,1736
1569922529,407.863,-54.2479,-2.56729,178.945,5.03174,-144.448,1736
1569922529,407.863,-54.2479,-2.45566,178.945,5.03174,-144.448,1736
1569922529,407.863,-54.2479,-2.45566,178.945,5.03174,-144.448,1736
1569922529,407.863,-54.2479,-2.45566,178.945,5.03174,-144.448,1736
1569922529,407.863,-54.2479,-2.45566,178.945,5.03174,-144.47,1736
1569922529,407.863,-54.2479,-2.45566,178.945,5.05371,-144.47,1736
1569922529,407.863,-54.2479,-2.45566,178.967,5.05371,-144.47,1736
1569922529,407.863,-54.2479,-2.45566,178.967,5.05371,-144.47,1736
1569922529,407.863,-54.2479,-2.45566,178.967,5.05371,-144.47,1736
1569922529,407.863,-54.2479,-2.45566,178.967,5.05371,-144.47,1740
1569922529,407.863,-54.2479,-2.45566,178.967,5.05371,-144.47,1740
1569922529,407.863,-54.2479,-2.45566,178.967,5.05371,-144.47,1740
1569922529,407.863,-54.2479,-2.45566,178.967,5.05371,-144.47,1740
1569922529,407.863,-54.1362,-2.45566,178.967,5.05371,-144.47,1740
1569922529,407.863,-54.1362,-2.45566,178.967,5.05371,-144.47,1740
1569922529,407.863,-54.1362,-2.45566,178.989,5.05371,-144.47,1740
1569922529,407.863,-54.1362,-2.45566,178.989,5.05371,-144.47,1740
1569922529,407.863,-54.1362,-2.45566,178.989,5.05371,-144.47,1740
1569922529,407.863,-54.1362,-2.45566,178.989,5.05371,-144.47,1736
1569922529,407.863,-54.1362,-2.45566,178.989,5.05371,-144.47,1736
1569922529,407.863,-54.1362,-2.45566,178.989,5.05371,-144.47,1736
1569922529,407.863,-54.1362,-2.45566,178.989,5.05371,-144.47,1736
1569922529,407.863,-54.1362,-2.45566,178.989,5.05371,-144.47,1736
1569922529,407.863,-54.1362,-2.45566,178.967,5.05371,-144.47,1732
1569922529,407.863,-54.1362,-2.45566,178.967,5.05371,-144.47,1732
1569922529,407.863,-54.1362,-2.45566,178.967,5.05371,-144.47,1732
1569922529,407.863,-54.1362,-2.45566,178.967,5.05371,-144.47,1732
1569922529,407.863,-54.1362,-2.45566,178.967,5.05371,-144.47,1732
1569922529,407.863,-54.2479,-2.45566,178.967,5.05371,-144.492,1732
1569922529,407.863,-54.2479,-2.45566,178.967,5.05371,-144.492,1736
1569922529,407.863,-54.2479,-2.45566,178.967,5.05371,-144.492,1736
1569922529,407.863,-54.2479,-2.45566,178.945,5.03174,-144.492,1736
1569922529,407.863,-54.2479,-2.56729,178.945,5.03174,-144.492,1736
1569922529,407.863,-54.2479,-2.56729,178.945,5.03174,-144.492,1736
1569922529,407.863,-54.2479,-2.56729,178.945,5.03174,-144.492,1736
1569922529,407.863,-54.2479,-2.56729,178.923,5.03174,-144.492,1740
1569922529,407.863,-54.3595,-2.56729,178.923,5.03174,-144.492,1740
1569922529,407.863,-54.3595,-2.56729,178.923,5.00977,-144.492,1740
1569922529,407.863,-54.3595,-2.56729,178.923,5.00977,-144.492,1740
1569922529,407.863,-54.3595,-2.56729,178.923,5.00977,-144.492,1740
1569922529,407.863,-54.3595,-2.56729,178.923,5.00977,-144.492,1740
1569922530,407.863,-54.3595,-2.56729,178.923,5.00977,-144.492,1744
1569922530,407.863,-54.3595,-2.56729,178.923,5.00977,-144.492,1744
1569922530,407.863,-54.3595,-2.56729,178.923,5.00977,-144.492,1744
1569922530,407.863,-54.3595,-2.56729,178.923,5.00977,-144.492,1744
1569922530,407.863,-54.3595,-2.56729,178.923,5.00977,-144.492,1744
1569922530,407.863,-54.3595,-2.56729,178.923,5.00977,-144.492,1744
1569922530,407.863,-54.3595,-2.56729,178.923,5.00977,-144.492,1744
1569922530,407.863,-54.3595,-2.56729,178.923,5.00977,-144.492,1744
1569922530,407.863,-54.2479,-2.56729,178.923,5.00977,-144.492,1744
1569922530,407.863,-54.2479,-2.56729,178.923,5.00977,-144.492,1744
1569922530,407.863,-54.2479,-2.56729,178.923,5.00977,-144.492,1748
1569922530,407.863,-54.2479,-2.56729,178.923,5.00977,-144.492,1748
1569922530,407.863,-54.2479,-2.56729,178.923,5.00977,-144.492,1752
1569922530,407.863,-54.2479,-2.56729,178.923,5.00977,-144.492,1752
1569922530,407.863,-54.2479,-2.56729,178.923,5.00977,-144.492,1752
1569922530,407.975,-54.2479,-2.56729,178.923,5.00977,-144.492,1756
1569922530,407.975,-54.2479,-2.56729,178.923,5.00977,-144.492,1756
1569922530,407.975,-54.2479,-2.56729,178.923,5.00977,-144.492,1756
1569922530,407.975,-54.2479,-2.56729,178.945,5.00977,-144.492,1760
1569922530,407.975,-54.2479,-2.56729,178.945,5.00977,-144.492,1760
1569922530,407.975,-54.2479,-2.56729,178.945,5.00977,-144.47,1760
1569922530,407.975,-54.2479,-2.56729,178.945,5.00977,-144.47,1760
1569922530,407.975,-54.2479,-2.56729,178.945,5.00977,-144.47,1760
1569922530,407.975,-54.2479,-2.56729,178.945,5.00977,-144.47,1760
1569922530,407.975,-54.2479,-2.56729,178.945,5.00977,-144.47,1760
1569922530,407.975,-54.2479,-2.56729,178.945,5.00977,-144.47,1760
1569922530,407.975,-54.2479,-2.56729,178.945,5.00977,-144.47,1760
1569922530,407.975,-54.2479,-2.56729,178.945,5.00977,-144.47,1760
1569922530,407.975,-54.2479,-2.56729,178.945,5.00977,-144.47,1756
1569922530,407.975,-54.2479,-2.56729,178.945,5.00977,-144.492,1756
1569922530,407.975,-54.2479,-2.67891,178.945,5.00977,-144.492,1756
1569922530,407.975,-54.2479,-2.67891,178.945,5.00977,-144.492,1756
1569922530,407.975,-54.2479,-2.67891,178.945,5.00977,-144.492,1752
1569922530,407.975,-54.2479,-2.67891,178.945,5.00977,-144.492,1752
1569922530,407.975,-54.2479,-2.67891,178.945,5.00977,-144.492,1752
1569922530,407.975,-54.2479,-2.67891,178.945,5.00977,-144.492,1752
1569922530,407.975,-54.2479,-2.67891,178.945,5.00977,-144.492,1748
1569922530,407.975,-54.2479,-2.67891,178.945,5.00977,-144.492,1748
1569922530,407.975,-54.2479,-2.67891,178.945,5.00977,-144.492,1748
1569922530,407.975,-54.2479,-2.67891,178.945,5.00977,-144.492,1748
1569922530,407.975,-54.2479,-2.56729,178.945,5.00977,-144.47,1748
1569922530,407.975,-54.2479,-2.56729,178.945,5.00977,-144.47,1748
1569922530,407.975,-54.2479,-2.56729,178.945,5.00977,-144.47,1744
1569922530,407.975,-54.2479,-2.56729,178.945,5.00977,-144.47,1744
1569922530,407.975,-54.2479,-2.56729,178.945,5.00977,-144.47,1744
1569922530,407.975,-54.2479,-2.56729,178.967,5.00977,-144.47,1748
1569922530,407.975,-54.1362,-2.56729,178.967,5.00977,-144.47,1748
1569922530,407.975,-54.1362,-2.56729,178.967,5.00977,-144.47,1748
1569922530,407.975,-54.1362,-2.56729,178.967,5.00977,-144.47,1748
1569922530,407.975,-54.1362,-2.56729,178.967,5.00977,-144.47,1748
1569922530,407.975,-54.1362,-2.56729,178.967,5.00977,-144.47,1744
1569922530,407.975,-54.1362,-2.56729,178.989,5.00977,-144.47,1744
1569922530,407.863,-54.1362,-2.56729,178.989,5.00977,-144.47,1744
1569922530,407.863,-54.1362,-2.56729,178.989,5.00977,-144.47,1744
1569922530,407.863,-54.1362,-2.56729,178.967,5.00977,-144.47,1744
1569922530,407.863,-54.1362,-2.56729,178.967,5.00977,-144.47,1740
1569922530,407.863,-54.1362,-2.56729,178.967,5.00977,-144.47,1740
1569922530,407.863,-54.1362,-2.56729,178.967,5.00977,-144.47,1740
1569922530,407.863,-54.1362,-2.56729,178.967,5.00977,-144.47,1740
1569922530,407.863,-54.1362,-2.56729,178.967,5.00977,-144.47,1736
1569922530,407.863,-54.2479,-2.56729,178.967,5.00977,-144.47,1736
1569922530,407.863,-54.2479,-2.56729,178.945,5.00977,-144.47,1736
1569922530,407.863,-54.2479,-2.56729,178.945,5.03174,-144.448,1736
1569922530,407.863,-54.2479,-2.56729,178.945,5.03174,-144.448,1732
1569922530,407.863,-54.2479,-2.56729,178.945,5.03174,-144.448,1732
1569922530,407.863,-54.2479,-2.56729,178.945,5.03174,-144.448,1732
1569922530,407.863,-54.2479,-2.56729,178.945,5.03174,-144.448,1732
1569922530,407.975,-54.2479,-2.56729,178.945,5.03174,-144.448,1732
1569922530,407.975,-54.2479,-2.56729,178.945,5.03174,-144.448,1732
1569922530,407.975,-54.2479,-2.56729,178.945,5.03174,-144.448,1732
1569922530,407.975,-54.2479,-2.56729,178.945,5.00977,-144.448,1732
1569922530,407.975,-54.2479,-2.56729,178.945,5.00977,-144.448,1732
1569922530,407.863,-54.2479,-2.56729,178.945,5.00977,-144.47,1732
1569922530,407.863,-54.2479,-2.56729,178.945,5.00977,-144.47,1732
1569922530,407.863,-54.2479,-2.56729,178.945,5.00977,-144.47,1732
1569922530,407.863,-54.1362,-2.56729,178.945,5.00977,-144.47,1732
1569922530,407.863,-54.1362,-2.67891,178.945,5.00977,-144.47,1732
1569922530,407.863,-54.2479,-2.67891,178.945,5.00977,-144.47,1732
1569922530,407.863,-54.2479,-2.67891,178.945,5.00977,-144.47,1732
1569922530,407.863,-54.2479,-2.67891,178.945,5.00977,-144.47,1732
1569922530,407.863,-54.2479,-2.56729,178.945,5.00977,-144.47,1732
1569922530,407.863,-54.2479,-2.56729,178.945,5.00977,-144.47,1732
1569922530,407.863,-54.2479,-2.56729,178.923,5.00977,-144.47,1728
1569922530,407.863,-54.2479,-2.56729,178.923,5.00977,-144.47,1728
1569922530,407.863,-54.2479,-2.56729,178.923,5.00977,-144.47,1728
1569922530,407.863,-54.2479,-2.56729,178.923,5.03174,-144.492,1728
1569922530,407.863,-54.2479,-2.56729,178.923,5.03174,-144.492,1728
1569922530,407.863,-54.2479,-2.56729,178.923,5.03174,-144.492,1728
1569922530,407.863,-54.2479,-2.56729,178.923,5.03174,-144.492,1728
1569922530,407.863,-54.2479,-2.56729,178.923,5.03174,-144.492,1728
1569922530,407.863,-54.2479,-2.45566,178.945,5.03174,-144.492,1728
1569922530,407.863,-54.2479,-2.45566,178.945,5.03174,-144.492,1728
1569922530,407.863,-54.2479,-2.45566,178.945,5.03174,-144.492,1728
1569922530,407.863,-54.2479,-2.45566,178.945,5.03174,-144.492,1732
1569922530,407.863,-54.2479,-2.45566,178.945,5.03174,-144.492,1732
1569922530,407.863,-54.2479,-2.45566,178.945,5.03174,-144.492,1732
1569922530,407.863,-54.2479,-2.45566,178.945,5.03174,-144.492,1732
1569922530,407.863,-54.2479,-2.45566,178.945,5.03174,-144.492,1732
1569922530,407.863,-54.2479,-2.45566,178.945,5.03174,-144.492,1732
1569922530,407.863,-54.2479,-2.45566,178.945,5.03174,-144.492,1732
1569922531,407.863,-54.2479,-2.45566,178.945,5.03174,-144.492,1732
1569922531,407.863,-54.2479,-2.45566,178.945,5.03174,-144.492,1736
1569922531,407.863,-54.2479,-2.45566,178.945,5.03174,-144.492,1736
1569922531,407.863,-54.2479,-2.45566,178.945,5.03174,-144.492,1736
1569922531,407.863,-54.2479,-2.45566,178.945,5.03174,-144.492,1736
1569922531,407.863,-54.2479,-2.45566,178.945,5.03174,-144.492,1736
1569922531,407.863,-54.2479,-2.45566,178.945,5.03174,-144.492,1736
1569922531,407.863,-54.2479,-2.56729,178.945,5.03174,-144.492,1736
1569922531,407.863,-54.2479,-2.56729,178.945,5.03174,-144.492,1736
1569922531,407.863,-54.2479,-2.56729,178.945,5.00977,-144.492,1736
1569922531,407.863,-54.2479,-2.56729,178.945,5.00977,-144.492,1736
1569922531,407.863,-54.2479,-2.56729,178.945,5.00977,-144.492,1736
1569922531,407.863,-54.2479,-2.56729,178.945,5.00977,-144.492,1736
1569922531,407.863,-54.2479,-2.56729,178.945,5.00977,-144.492,1736
1569922531,407.863,-54.2479,-2.56729,178.945,5.00977,-144.492,1736
1569922531,407.863,-54.2479,-2.56729,178.945,5.00977,-144.492,1736
1569922531,407.863,-54.2479,-2.56729,178.945,5.00977,-144.492,1736
1569922531,407.863,-54.2479,-2.56729,178.945,5.00977,-144.492,1736
1569922531,407.863,-54.2479,-2.56729,178.945,5.00977,-144.492,1736
1569922531,407.863,-54.2479,-2.56729,178.945,5.00977,-144.492,1736
1569922531,407.863,-54.2479,-2.56729,178.945,5.00977,-144.47,1736
1569922531,407.863,-54.2479,-2.56729,178.945,5.00977,-144.47,1736
1569922531,407.863,-54.2479,-2.56729,178.945,5.00977,-144.47,1736
1569922531,407.863,-54.2479,-2.56729,178.945,5.00977,-144.47,1736
1569922531,407.863,-54.2479,-2.56729,178.923,5.00977,-144.47,1736
1569922531,407.863,-54.2479,-2.56729,178.923,5.00977,-144.47,1732
1569922531,407.863,-54.2479,-2.56729,178.923,5.00977,-144.47,1732
1569922531,407.863,-54.2479,-2.56729,178.923,5.00977,-144.47,1732
1569922531,407.863,-54.2479,-2.56729,178.923,5.00977,-144.47,1732
1569922531,407.863,-54.2479,-2.56729,178.923,5.00977,-144.492,1732
1569922531,407.863,-54.2479,-2.56729,178.923,5.00977,-144.492,1728
1569922531,407.863,-54.2479,-2.56729,178.923,5.00977,-144.492,1728
1569922531,407.863,-54.2479,-2.56729,178.945,5.00977,-144.492,1728
1569922531,407.863,-54.2479,-2.56729,178.945,5.03174,-144.492,1728
1569922531,407.752,-54.2479,-2.56729,178.945,5.03174,-144.492,1724
1569922531,407.863,-54.2479,-2.56729,178.923,5.03174,-144.492,1724
1569922531,407.863,-54.2479,-2.56729,178.923,5.03174,-144.492,1724
1569922531,407.863,-54.2479,-2.56729,178.923,5.03174,-144.492,1724
1569922531,407.863,-54.2479,-2.56729,178.923,5.03174,-144.492,1724
1569922531,407.863,-54.2479,-2.45566,178.923,5.03174,-144.492,1720
1569922531,407.863,-54.2479,-2.45566,178.923,5.03174,-144.492,1720
1569922531,407.863,-54.2479,-2.45566,178.923,5.03174,-144.492,1720
1569922531,407.863,-54.3595,-2.45566,178.923,5.03174,-144.492,1720
1569922531,407.863,-54.3595,-2.45566,178.923,5.03174,-144.492,1720
1569922531,407.863,-54.3595,-2.45566,178.923,5.03174,-144.47,1720
1569922531,407.863,-54.3595,-2.45566,178.923,5.03174,-144.47,1720
1569922531,407.863,-54.3595,-2.45566,178.923,5.03174,-144.47,1720
1569922531,407.863,-54.3595,-2.45566,178.923,5.03174,-144.47,1720
1569922531,407.863,-54.3595,-2.45566,178.923,5.03174,-144.47,1720
1569922531,407.863,-54.3595,-2.45566,178.923,5.03174,-144.47,1720
1569922531,407.863,-54.3595,-2.45566,178.923,5.03174,-144.47,1720
1569922531,407.863,-54.3595,-2.45566,178.923,5.03174,-144.47,1720
1569922531,407.752,-54.3595,-2.56729,178.923,5.03174,-144.47,1720
1569922531,407.752,-54.3595,-2.56729,178.923,5.03174,-144.47,1720
1569922531,407.863,-54.3595,-2.56729,178.923,5.00977,-144.492,1720
1569922531,407.863,-54.3595,-2.56729,178.923,5.00977,-144.492,1720
1569922531,407.863,-54.3595,-2.56729,178.923,5.00977,-144.492,1720
1569922531,407.863,-54.3595,-2.56729,178.923,5.00977,-144.492,1720
1569922531,407.863,-54.3595,-2.56729,178.923,5.00977,-144.492,1720
1569922531,407.863,-54.3595,-2.56729,178.923,5.00977,-144.492,1720
1569922531,407.863,-54.3595,-2.56729,178.923,5.00977,-144.492,1720
1569922531,407.863,-54.3595,-2.56729,178.923,5.00977,-144.492,1720
1569922531,407.863,-54.3595,-2.56729,178.923,5.00977,-144.492,1720
1569922531,407.863,-54.3595,-2.56729,178.923,5.00977,-144.492,1720
1569922531,407.863,-54.3595,-2.56729,178.923,5.00977,-144.492,1720
1569922531,407.863,-54.3595,-2.56729,178.923,5.00977,-144.492,1720
1569922531,407.863,-54.3595,-2.56729,178.923,5.00977,-144.47,1720
1569922531,407.863,-54.3595,-2.56729,178.923,5.00977,-144.47,1720
1569922531,407.863,-54.3595,-2.56729,178.923,5.00977,-144.47,1720
1569922531,407.863,-54.3595,-2.56729,178.923,5.00977,-144.47,1720
1569922531,407.863,-54.3595,-2.56729,178.923,5.00977,-144.47,1724
1569922531,407.863,-54.3595,-2.56729,178.923,5.00977,-144.47,1724
1569922531,407.863,-54.3595,-2.56729,178.923,5.00977,-144.47,1724
1569922531,407.863,-54.3595,-2.67891,178.923,4.98779,-144.47,1724
1569922531,407.863,-54.3595,-2.67891,178.901,4.98779,-144.47,1728
1569922531,407.863,-54.3595,-2.67891,178.901,4.98779,-144.47,1728
1569922531,407.863,-54.3595,-2.67891,178.901,4.98779,-144.47,1728
1569922531,407.752,-54.3595,-2.67891,178.901,4.98779,-144.492,1728
1569922531,407.752,-54.3595,-2.67891,178.901,4.98779,-144.492,1728
1569922531,407.752,-54.3595,-2.67891,178.901,4.98779,-144.492,1728
1569922531,407.752,-54.3595,-2.67891,178.901,4.98779,-144.492,1732
1569922531,407.752,-54.3595,-2.67891,178.901,4.98779,-144.492,1732
1569922531,407.752,-54.3595,-2.67891,178.923,4.98779,-144.492,1732
1569922531,407.752,-54.3595,-2.67891,178.923,4.98779,-144.492,1732
1569922534,391.678,-38.286,-1.78594,178.638,5.71289,-145.129,1624
1569922534,391.678,-38.286,-1.78594,178.638,5.71289,-145.129,1624
1569922534,391.678,-38.286,-1.78594,178.638,5.71289,-145.129,1624
1569922534,391.678,-38.286,-1.78594,178.638,5.71289,-145.129,1624
1569922534,391.678,-38.286,-1.78594,178.638,5.71289,-145.129,1628
1569922534,391.678,-38.286,-1.78594,178.638,5.71289,-145.151,1628
1569922534,391.678,-38.286,-1.78594,178.638,5.71289,-145.151,1628
1569922534,391.678,-38.286,-1.78594,178.638,5.71289,-145.151,1628
1569922534,391.678,-38.286,-1.78594,178.638,5.71289,-145.151,1632
1569922534,391.678,-38.286,-1.78594,178.638,5.71289,-145.151,1632
1569922534,391.678,-38.286,-1.78594,178.616,5.71289,-145.151,1632
1569922534,391.678,-38.286,-1.78594,178.616,5.71289,-145.151,1632
1569922534,391.678,-38.286,-1.78594,178.616,5.71289,-145.151,1632
1569922534,391.678,-38.286,-1.78594,178.616,5.71289,-145.151,1632
1569922534,391.678,-38.286,-1.78594,178.616,5.71289,-145.151,1632
1569922534,391.678,-38.286,-1.78594,178.616,5.71289,-145.151,1628
1569922534,391.678,-38.286,-1.78594,178.616,5.71289,-145.151,1628
1569922534,391.678,-38.286,-1.78594,178.616,5.71289,-145.151,1628
1569922534,391.678,-38.286,-1.78594,178.616,5.71289,-145.151,1628
1569922534,391.678,-38.286,-1.78594,178.616,5.69092,-145.151,1628
1569922534,391.678,-38.286,-1.78594,178.616,5.69092,-145.151,1628
1569922534,391.678,-38.286,-1.78594,178.616,5.69092,-145.151,1628
1569922535,391.678,-38.286,-1.78594,178.594,5.69092,-145.151,1628
1569922535,391.678,-38.286,-1.78594,178.594,5.69092,-145.151,1628
1569922535,391.678,-38.286,-1.78594,178.594,5.69092,-145.151,1628
1569922535,391.678,-38.286,-1.78594,178.594,5.69092,-145.151,1628
1569922535,391.678,-38.286,-1.78594,178.616,5.69092,-145.151,1632
1569922535,391.678,-38.286,-1.78594,178.616,5.69092,-145.151,1632
1569922535,391.678,-38.286,-1.78594,178.616,5.69092,-145.151,1632
1569922535,391.678,-38.286,-1.78594,178.616,5.69092,-145.151,1636
1569922535,391.678,-38.286,-1.78594,178.616,5.69092,-145.151,1636
1569922535,391.678,-38.286,-1.89756,178.616,5.69092,-145.151,1636
1569922535,391.678,-38.286,-1.89756,178.616,5.69092,-145.151,1636
1569922535,391.678,-38.286,-1.89756,178.616,5.69092,-145.151,1636
1569922535,391.678,-38.286,-1.89756,178.616,5.69092,-145.151,1640
1569922535,391.678,-38.286,-1.89756,178.616,5.69092,-145.151,1640
1569922535,391.678,-38.286,-1.89756,178.616,5.69092,-145.151,1640
1569922535,391.678,-38.286,-1.89756,178.616,5.69092,-145.151,1640
1569922535,391.678,-38.286,-1.89756,178.616,5.69092,-145.151,1640
1569922535,391.678,-38.286,-1.89756,178.616,5.69092,-145.151,1640
1569922535,391.678,-38.286,-1.89756,178.616,5.69092,-145.151,1640
1569922535,391.678,-38.286,-1.78594,178.616,5.69092,-145.151,1640
1569922535,391.678,-38.286,-1.78594,178.616,5.69092,-145.151,1640
1569922535,391.678,-38.286,-1.78594,178.616,5.69092,-145.151,1640
1569922535,391.678,-38.286,-1.78594,178.616,5.69092,-145.151,1640
1569922535,391.678,-38.286,-1.78594,178.616,5.69092,-145.151,1640
1569922535,391.678,-38.286,-1.78594,178.616,5.71289,-145.151,1640
1569922535,391.678,-38.286,-1.78594,178.616,5.71289,-145.151,1640
1569922535,391.678,-38.286,-1.78594,178.616,5.71289,-145.151,1640
1569922535,391.678,-38.286,-1.78594,178.616,5.71289,-145.151,1640
1569922535,391.678,-38.286,-1.78594,178.616,5.71289,-145.173,1640
1569922535,391.678,-38.286,-1.78594,178.616,5.71289,-145.173,1640
1569922535,391.678,-38.286,-1.78594,178.616,5.71289,-145.173,1640
1569922535,391.678,-38.286,-1.78594,178.616,5.71289,-145.173,1640
1569922535,391.79,-38.286,-1.78594,178.616,5.71289,-145.173,1640
1569922535,391.79,-38.286,-1.78594,178.616,5.71289,-145.173,1640
1569922535,391.79,-38.286,-1.78594,178.616,5.71289,-145.173,1640
1569922535,391.79,-38.286,-1.78594,178.616,5.71289,-145.173,1640
1569922535,391.79,-38.286,-1.78594,178.616,5.71289,-145.173,1640
1569922535,391.79,-38.286,-1.78594,178.616,5.71289,-145.173,1640
1569922535,391.79,-38.286,-1.78594,178.616,5.71289,-145.151,1640
1569922535,391.79,-38.286,-1.78594,178.616,5.71289,-145.151,1640
1569922535,391.79,-38.286,-1.78594,178.616,5.71289,-145.151,1640
1569922535,391.79,-38.286,-1.78594,178.616,5.71289,-145.151,1640
1569922535,391.79,-38.286,-1.78594,178.616,5.71289,-145.151,1640
1569922535,391.79,-38.286,-1.78594,178.616,5.71289,-145.151,1640
1569922535,391.79,-38.286,-1.78594,178.616,5.71289,-145.129,1644
1569922535,391.79,-38.286,-1.78594,178.616,5.71289,-145.129,1644
1569922535,391.79,-38.286,-1.78594,178.616,5.71289,-145.129,1644
1569922535,391.79,-38.286,-1.78594,178.616,5.71289,-145.129,1644
1569922535,391.79,-38.286,-1.78594,178.616,5.71289,-145.129,1644
1569922535,391.79,-38.286,-1.78594,178.616,5.71289,-145.129,1644
1569922535,391.79,-38.286,-1.78594,178.616,5.71289,-145.129,1644
1569922535,391.79,-38.286,-1.78594,178.616,5.71289,-145.129,1644
1569922535,391.79,-38.286,-1.78594,178.616,5.71289,-145.129,1644
1569922535,391.79,-38.286,-1.78594,178.616,5.69092,-145.129,1644
1569922535,391.79,-38.286,-1.78594,178.616,5.69092,-145.129,1644
1569922535,391.79,-38.286,-1.78594,178.616,5.69092,-145.129,1644
1569922535,391.79,-38.286,-1.78594,178.616,5.69092,-145.129,1644
1569922535,391.79,-38.286,-1.78594,178.616,5.69092,-145.129,1644
1569922535,391.79,-38.286,-1.78594,178.616,5.69092,-145.129,1644
1569922535,391.678,-38.286,-1.78594,178.616,5.69092,-145.129,1644
1569922535,391.678,-38.286,-1.78594,178.616,5.69092,-145.129,1644
1569922535,391.678,-38.286,-1.78594,178.616,5.71289,-145.129,1640
1569922535,391.678,-38.286,-1.78594,178.616,5.71289,-145.129,1640
1569922535,391.678,-38.286,-1.78594,178.616,5.71289,-145.129,1640
1569922535,391.678,-38.286,-1.78594,178.616,5.71289,-145.129,1640
1569922535,391.678,-38.286,-1.78594,178.616,5.71289,-145.129,1640
1569922535,391.79,-38.286,-1.78594,178.616,5.71289,-145.129,1640
1569922535,391.79,-38.286,-1.78594,178.616,5.71289,-145.129,1640
1569922535,391.79,-38.286,-1.78594,178.616,5.71289,-145.129,1640
1569922535,391.79,-38.286,-1.78594,178.616,5.71289,-145.129,1640
1569922535,391.79,-38.286,-1.78594,178.616,5.71289,-145.129,1640
1569922535,391.79,-38.286,-1.78594,178.616,5.69092,-145.129,1640
1569922535,391.79,-38.286,-1.78594,178.616,5.69092,-145.129,1640
1569922535,391.79,-38.286,-1.78594,178.616,5.69092,-145.129,1644
1569922535,391.79,-38.286,-1.78594,178.638,5.69092,-145.129,1644
1569922535,391.79,-38.286,-1.78594,178.638,5.69092,-145.129,1644
1569922535,391.79,-38.286,-1.78594,178.638,5.69092,-145.129,1644
1569922535,391.79,-38.286,-1.89756,178.638,5.69092,-145.129,1644
1569922535,391.79,-38.286,-1.89756,178.638,5.69092,-145.129,1644
1569922535,391.79,-38.286,-1.89756,178.638,5.69092,-145.129,1644
1569922535,391.79,-38.286,-1.89756,178.638,5.69092,-145.129,1644
1569922535,391.79,-38.286,-1.89756,178.638,5.66895,-145.129,1648
1569922535,391.79,-38.286,-1.89756,178.638,5.66895,-145.151,1648
1569922535,391.79,-38.286,-1.89756,178.638,5.66895,-145.151,1648
1569922535,391.79,-38.286,-1.89756,178.638,5.66895,-145.151,1648
1569922535,391.79,-38.286,-1.89756,178.638,5.66895,-145.151,1648
1569922535,391.79,-38.286,-1.89756,178.638,5.66895,-145.151,1648
1569922535,391.79,-38.286,-1.89756,178.638,5.66895,-145.151,1648
1569922535,391.79,-38.286,-1.89756,178.638,5.69092,-145.151,1648
1569922535,391.678,-38.286,-1.89756,178.638,5.66895,-145.151,1648
1569922535,391.678,-38.286,-1.89756,178.638,5.66895,-145.151,1648
1569922535,391.678,-38.286,-1.89756,178.638,5.66895,-145.151,1648
1569922535,391.678,-38.286,-1.89756,178.638,5.66895,-145.151,1648
1569922535,391.678,-38.286,-1.89756,178.638,5.66895,-145.151,1648
1569922535,391.678,-38.286,-1.89756,178.638,5.66895,-145.151,1648
1569922535,391.678,-38.286,-1.89756,178.638,5.66895,-145.151,1648
1569922535,391.678,-38.286,-1.89756,178.638,5.66895,-145.151,1648
1569922535,391.678,-38.286,-1.89756,178.638,5.66895,-145.151,1652
1569922535,391.678,-38.286,-1.89756,178.616,5.66895,-145.151,1652
1569922535,391.678,-38.286,-1.89756,178.616,5.66895,-145.151,1652
1569922536,391.79,-38.286,-1.89756,178.616,5.66895,-145.151,1652
1569922536,391.79,-38.286,-1.89756,178.616,5.66895,-145.151,1652
1569922536,391.79,-38.286,-1.89756,178.616,5.66895,-145.151,1652
1569922536,391.79,-38.286,-1.89756,178.616,5.66895,-145.151,1652
1569922536,391.678,-38.286,-1.89756,178.616,5.66895,-145.129,1652
1569922536,391.678,-38.286,-1.89756,178.616,5.66895,-145.129,1652
1569922536,391.678,-38.286,-1.89756,178.616,5.66895,-145.129,1652
1569922536,391.678,-38.286,-1.89756,178.616,5.66895,-145.129,1652
1569922536,391.678,-38.286,-1.89756,178.616,5.66895,-145.151,1652
1569922536,391.678,-38.286,-1.89756,178.616,5.66895,-145.151,1652
1569922536,391.678,-38.286,-1.89756,178.616,5.66895,-145.151,1652
1569922536,391.678,-38.286,-1.89756,178.616,5.66895,-145.151,1652
1569922536,391.678,-38.286,-1.89756,178.616,5.69092,-145.151,1652
1569922536,391.678,-38.286,-1.89756,178.616,5.69092,-145.151,1652
1569922536,391.678,-38.286,-1.89756,178.616,5.69092,-145.151,1652
1569922536,391.678,-38.286,-1.89756,178.616,5.69092,-145.151,1648
1569922536,391.678,-38.286,-1.89756,178.616,5.69092,-145.151,1648
1569922536,391.678,-38.286,-1.89756,178.616,5.69092,-145.151,1648
1569922536,391.678,-38.286,-1.89756,178.616,5.69092,-145.151,1648
1569922536,391.678,-38.286,-1.89756,178.638,5.69092,-145.151,1648
1569922536,391.678,-38.286,-1.89756,178.638,5.69092,-145.151,1648
1569922536,391.678,-38.286,-1.89756,178.638,5.69092,-145.151,1648
1569922536,391.678,-38.286,-1.89756,178.638,5.69092,-145.151,1648
1569922536,391.678,-38.286,-1.89756,178.638,5.69092,-145.151,1644
1569922536,391.678,-38.286,-1.89756,178.638,5.69092,-145.151,1644
1569922536,391.678,-38.286,-1.89756,178.638,5.69092,-145.151,1644
1569922536,391.678,-38.286,-1.89756,178.638,5.69092,-145.151,1644
1569922536,391.678,-38.286,-1.89756,178.638,5.69092,-145.151,1644
1569922536,391.678,-38.286,-1.89756,178.638,5.69092,-145.151,1644
1569922536,391.678,-38.286,-1.89756,178.638,5.69092,-145.151,1644
1569922536,391.678,-38.286,-1.89756,178.638,5.69092,-145.151,1644
1569922536,391.678,-38.286,-1.89756,178.638,5.69092,-145.151,1644
1569922536,391.678,-38.286,-1.89756,178.638,5.69092,-145.151,1644
1569922536,391.678,-38.286,-1.89756,178.638,5.69092,-145.151,1644
1569922536,391.79,-38.286,-1.89756,178.638,5.69092,-145.151,1644
1569922536,391.79,-38.286,-1.89756,178.638,5.69092,-145.151,1648
1569922536,391.79,-38.286,-1.89756,178.638,5.69092,-145.151,1648
1569922536,391.79,-38.286,-1.89756,178.638,5.69092,-145.151,1648
1569922536,391.79,-38.286,-1.89756,178.638,5.69092,-145.151,1648
1569922536,391.79,-38.286,-1.89756,178.638,5.69092,-145.151,1648
1569922536,391.79,-38.286,-1.89756,178.638,5.69092,-145.151,1648
1569922536,391.678,-38.286,-1.89756,178.638,5.69092,-145.151,1648
1569922536,391.678,-38.286,-1.89756,178.638,5.69092,-145.151,1648
1569922536,391.678,-38.286,-1.89756,178.638,5.69092,-145.151,1648
1569922536,391.678,-38.286,-1.89756,178.638,5.69092,-145.129,1648
1569922536,391.678,-38.286,-1.89756,178.638,5.69092,-145.129,1648
1569922536,391.678,-38.286,-1.78594,178.638,5.69092,-145.129,1644
1569922536,391.678,-38.286,-1.78594,178.638,5.69092,-145.129,1644
1569922536,391.678,-38.286,-1.78594,178.638,5.69092,-145.129,1644
1569922536,391.678,-38.286,-1.78594,178.616,5.69092,-145.129,1644
1569922536,391.79,-38.286,-1.78594,178.616,5.69092,-145.129,1644
1569922536,391.79,-38.286,-1.78594,178.616,5.69092,-145.129,1640
1569922536,391.79,-38.286,-1.78594,178.616,5.71289,-145.129,1640
1569922536,391.79,-38.286,-1.78594,178.616,5.71289,-145.129,1640
1569922536,391.79,-38.286,-1.78594,178.616,5.71289,-145.129,1640
1569922536,391.79,-38.286,-1.78594,178.616,5.71289,-145.129,1640
1569922536,391.79,-38.286,-1.78594,178.616,5.71289,-145.129,1640
1569922536,391.79,-38.286,-1.78594,178.616,5.71289,-145.129,1640
1569922536,391.79,-38.286,-1.78594,178.616,5.71289,-145.129,1640
1569922536,391.79,-38.286,-1.78594,178.616,5.71289,-145.129,1640
1569922536,391.79,-38.286,-1.78594,178.616,5.71289,-145.129,1640
1569922536,391.79,-38.286,-1.78594,178.616,5.69092,-145.129,1640
1569922536,391.79,-38.286,-1.78594,178.616,5.69092,-145.129,1640
1569922536,391.79,-38.286,-1.78594,178.616,5.69092,-145.129,1640
1569922536,391.79,-38.286,-1.78594,178.616,5.71289,-145.129,1640
1569922536,391.79,-38.286,-1.78594,178.616,5.71289,-145.129,1640
1569922536,391.79,-38.286,-1.78594,178.616,5.71289,-145.129,1640
1569922536,391.79,-38.286,-1.78594,178.616,5.71289,-145.129,1640
1569922536,391.79,-38.286,-1.78594,178.616,5.71289,-145.129,1640
1569922536,391.79,-38.286,-1.78594,178.616,5.71289,-145.129,1640
1569922536,391.79,-38.286,-1.78594,178.616,5.71289,-145.129,1640
1569922536,391.79,-38.286,-1.78594,178.616,5.71289,-145.129,1640
1569922536,391.79,-38.286,-1.78594,178.616,5.71289,-145.151,1640
1569922536,391.79,-38.286,-1.78594,178.616,5.71289,-145.151,1640
1569922536,391.79,-38.286,-1.78594,178.616,5.71289,-145.151,1640
1569922536,391.79,-38.286,-1.78594,178.616,5.71289,-145.151,1640
1569922536,391.79,-38.286,-1.78594,178.616,5.71289,-145.151,1640
1569922536,391.79,-38.286,-1.78594,178.616,5.71289,-145.151,1640
1569922536,391.79,-38.286,-1.78594,178.616,5.71289,-145.151,1640
1569922536,391.79,-38.286,-1.78594,178.616,5.73486,-145.151,1640
1569922536,391.79,-38.286,-1.78594,178.616,5.73486,-145.151,1640
1569922536,391.79,-38.286,-1.78594,178.616,5.73486,-145.151,1640
1569922536,391.79,-38.286,-1.78594,178.616,5.73486,-145.151,1640
1569922536,391.79,-38.286,-1.78594,178.616,5.73486,-145.151,1640
1569922536,391.79,-38.286,-1.78594,178.616,5.73486,-145.151,1640
1569922536,391.79,-38.286,-1.78594,178.616,5.73486,-145.151,1640
1569922536,391.79,-38.286,-1.78594,178.616,5.73486,-145.151,1644
1569922536,391.79,-38.286,-1.78594,178.616,5.71289,-145.151,1644
1569922536,391.79,-38.286,-1.78594,178.616,5.71289,-145.151,1644
1569922536,391.79,-38.286,-1.78594,178.616,5.71289,-145.151,1644
1569922536,391.79,-38.286,-1.78594,178.616,5.71289,-145.151,1644
1569922536,391.79,-38.286,-1.78594,178.616,5.71289,-145.151,1644
1569922536,391.79,-38.286,-1.78594,178.616,5.71289,-145.151,1640
1569922536,391.79,-38.286,-1.78594,178.616,5.71289,-145.151,1640
1569922536,391.79,-38.286,-1.78594,178.616,5.71289,-145.151,1640
1569922536,391.79,-38.286,-1.78594,178.616,5.71289,-145.151,1640
1569922536,391.678,-38.286,-1.78594,178.616,5.71289,-145.151,1640
1569922536,391.678,-38.286,-1.78594,178.616,5.71289,-145.151,1640
1569922536,391.678,-38.286,-1.78594,178.616,5.71289,-145.151,1640
1569922536,391.678,-38.286,-1.78594,178.616,5.71289,-145.151,1640
1569922537,391.678,-38.286,-1.78594,178.616,5.71289,-145.151,1640
1569922537,391.678,-38.286,-1.78594,178.616,5.71289,-145.151,1640
1569922537,391.678,-38.286,-1.78594,178.616,5.71289,-145.151,1640
1569922537,391.678,-38.286,-1.78594,178.616,5.71289,-145.151,1640
1569922537,391.678,-38.286,-1.78594,178.616,5.71289,-145.151,1644
1569922537,391.79,-38.286,-1.78594,178.616,5.71289,-145.151,1644
1569922537,391.79,-38.286,-1.78594,178.616,5.71289,-145.151,1644
1569922537,391.79,-38.286,-1.78594,178.638,5.71289,-145.151,1644
1569922537,391.79,-38.286,-1.78594,178.638,5.71289,-145.151,1644
1569922537,391.79,-38.286,-1.78594,178.638,5.71289,-145.151,1648
1569922537,391.79,-38.286,-1.78594,178.638,5.71289,-145.151,1648
1569922537,391.79,-38.286,-1.78594,178.638,5.71289,-145.151,1648
1569922537,391.79,-38.286,-1.78594,178.638,5.71289,-145.151,1648
1569922537,391.79,-38.286,-1.78594,178.638,5.71289,-145.151,1652
1569922537,391.79,-38.286,-1.78594,178.638,5.71289,-145.151,1652
1569922537,391.79,-38.286,-1.78594,178.638,5.71289,-145.151,1652
1569922537,391.79,-38.286,-1.78594,178.638,5.71289,-145.151,1652
1569922537,391.79,-38.286,-1.78594,178.616,5.69092,-145.151,1652
1569922537,391.79,-38.286,-1.78594,178.616,5.69092,-145.151,1656
1569922537,391.79,-38.286,-1.78594,178.616,5.69092,-145.151,1656
1569922537,391.79,-38.286,-1.78594,178.616,5.69092,-145.151,1656
1569922537,391.678,-38.286,-1.78594,178.616,5.69092,-145.151,1656
1569922537,391.678,-38.286,-1.78594,178.616,5.69092,-145.151,1656
1569922537,391.678,-38.286,-1.78594,178.616,5.69092,-145.151,1656
1569922537,391.678,-38.286,-1.78594,178.616,5.69092,-145.151,1656
1569922537,391.678,-38.286,-1.78594,178.616,5.71289,-145.151,1656
1569922537,391.678,-38.286,-1.78594,178.616,5.71289,-145.151,1656
1569922537,391.678,-38.286,-1.78594,178.616,5.71289,-145.151,1656
1569922537,391.678,-38.286,-1.78594,178.616,5.71289,-145.151,1656
1569922537,391.678,-38.286,-1.78594,178.616,5.71289,-145.151,1656
1569922537,391.678,-38.286,-1.78594,178.616,5.71289,-145.151,1656
1569922537,391.678,-38.286,-1.78594,178.616,5.71289,-145.151,1656
1569922537,391.678,-38.286,-1.78594,178.616,5.71289,-145.151,1656
1569922537,391.678,-38.286,-1.78594,178.616,5.71289,-145.151,1656
1569922537,391.678,-38.286,-1.78594,178.616,5.71289,-145.151,1656
1569922537,391.678,-38.286,-1.78594,178.616,5.71289,-145.129,1656
1569922537,391.79,-38.286,-1.78594,178.638,5.71289,-145.129,1656
1569922537,391.79,-38.286,-1.78594,178.638,5.71289,-145.129,1656
1569922537,391.79,-38.286,-1.78594,178.638,5.71289,-145.129,1656
1569922537,391.79,-38.286,-1.78594,178.638,5.71289,-145.129,1656
1569922537,391.79,-38.286,-1.78594,178.638,5.71289,-145.129,1656
1569922537,391.79,-38.286,-1.78594,178.638,5.71289,-145.129,1656
1569922537,391.79,-38.286,-1.78594,178.638,5.71289,-145.129,1656
1569922537,391.79,-38.286,-1.78594,178.638,5.71289,-145.129,1656
1569922537,391.79,-38.286,-1.78594,178.638,5.71289,-145.129,1656
1569922537,391.79,-38.286,-1.78594,178.638,5.71289,-145.129,1656
1569922537,391.79,-38.286,-1.78594,178.638,5.71289,-145.129,1656
1569922537,391.79,-38.286,-1.78594,178.638,5.71289,-145.129,1652
1569922537,391.79,-38.286,-1.78594,178.638,5.71289,-145.129,1652
1569922537,391.79,-38.286,-1.78594,178.638,5.71289,-145.129,1652
1569922537,391.79,-38.286,-1.78594,178.638,5.71289,-145.129,1648
1569922537,391.79,-38.286,-1.78594,178.638,5.71289,-145.129,1648
1569922537,391.79,-38.286,-1.78594,178.638,5.71289,-145.129,1648
1569922537,391.79,-38.286,-1.78594,178.638,5.71289,-145.129,1644
1569922537,391.79,-38.286,-1.78594,178.638,5.71289,-145.129,1644
1569922537,391.79,-38.286,-1.78594,178.638,5.71289,-145.129,1644
1569922537,391.79,-38.286,-1.78594,178.638,5.71289,-145.129,1644
1569922537,391.79,-38.286,-1.78594,178.638,5.71289,-145.129,1644
1569922537,391.79,-38.286,-1.78594,178.638,5.71289,-145.129,1644
1569922537,391.79,-38.286,-1.78594,178.638,5.71289,-145.129,1644
1569922537,391.79,-38.286,-1.78594,178.638,5.71289,-145.129,1644
1569922537,391.79,-38.286,-1.78594,178.638,5.71289,-145.129,1644
1569922537,391.79,-38.286,-1.78594,178.638,5.71289,-145.129,1644
1569922537,391.79,-38.286,-1.78594,178.638,5.71289,-145.129,1644
1569922537,391.79,-38.286,-1.78594,178.638,5.71289,-145.129,1644
1569922537,391.79,-38.286,-1.78594,178.638,5.71289,-145.129,1644
1569922537,391.79,-38.286,-1.78594,178.638,5.71289,-145.129,1644
1569922537,391.678,-38.286,-1.78594,178.638,5.71289,-145.129,1644
1569922537,391.678,-38.286,-1.78594,178.638,5.71289,-145.129,1644
1569922537,391.678,-38.286,-1.78594,178.638,5.71289,-145.129,1644
1569922537,391.678,-38.286,-1.78594,178.638,5.71289,-145.129,1644
1569922537,391.678,-38.286,-1.78594,178.638,5.71289,-145.129,1644
1569922537,391.678,-38.286,-1.78594,178.638,5.71289,-145.129,1640
1569922537,391.678,-38.286,-1.78594,178.638,5.71289,-145.129,1640
1569922537,391.678,-38.286,-1.78594,178.638,5.71289,-145.129,1640
1569922537,391.678,-38.286,-1.78594,178.638,5.71289,-145.129,1640
1569922537,391.678,-38.286,-1.78594,178.638,5.71289,-145.129,1640
1569922537,391.678,-38.286,-1.78594,178.638,5.71289,-145.151,1636
1569922537,391.678,-38.1744,-1.78594,178.638,5.71289,-145.151,1636
1569922537,391.678,-38.1744,-1.78594,178.638,5.71289,-145.151,1636
1569922537,391.678,-38.1744,-1.78594,178.638,5.71289,-145.151,1636
1569922537,391.678,-38.1744,-1.78594,178.638,5.69092,-145.151,1636
1569922537,391.678,-38.1744,-1.78594,178.638,5.69092,-145.151,1636
1569922537,391.678,-38.1744,-1.78594,178.638,5.69092,-145.151,1636
1569922537,391.678,-38.1744,-1.78594,178.638,5.69092,-145.151,1636
1569922537,391.678,-38.1744,-1.78594,178.638,5.69092,-145.151,1636
1569922537,391.678,-38.1744,-1.78594,178.638,5.69092,-145.151,1636
1569922537,391.678,-38.1744,-1.78594,178.638,5.69092,-145.151,1640
1569922537,391.678,-38.1744,-1.78594,178.638,5.69092,-145.129,1640
1569922537,391.678,-38.1744,-1.78594,178.638,5.69092,-145.129,1640
1569922537,391.678,-38.1744,-1.78594,178.638,5.69092,-145.129,1640
1569922537,391.678,-38.1744,-1.78594,178.638,5.69092,-145.129,1640
1569922537,391.678,-38.1744,-1.78594,178.638,5.71289,-145.129,1640
1569922537,391.678,-38.1744,-1.78594,178.66,5.71289,-145.129,1640
1569922537,391.678,-38.1744,-1.78594,178.66,5.71289,-145.129,1640
1569922537,391.678,-38.1744,-1.78594,178.66,5.71289,-145.129,1640
1569922537,391.79,-38.1744,-1.78594,178.66,5.71289,-145.129,1640
1569922537,391.79,-38.1744,-1.78594,178.66,5.71289,-145.129,1640
1569922537,391.79,-38.1744,-1.78594,178.66,5.71289,-145.129,1640
1569922537,391.79,-38.1744,-1.78594,178.66,5.71289,-145.129,1640
1569922538,391.79,-38.1744,-1.78594,178.66,5.71289,-145.129,1640
1569922538,391.79,-38.1744,-1.78594,178.66,5.71289,-145.129,1640
1569922538,391.79,-38.1744,-1.78594,178.66,5.71289,-145.129,1640
1569922538,391.79,-38.1744,-1.78594,178.66,5.71289,-145.129,1640
1569922538,391.678,-38.1744,-1.78594,178.66,5.71289,-145.129,1640
1569922538,391.678,-38.1744,-1.78594,178.66,5.71289,-145.129,1640
1569922538,391.678,-38.1744,-1.78594,178.66,5.71289,-145.129,1640
1569922538,391.678,-38.1744,-1.78594,178.66,5.71289,-145.129,1636
1569922538,391.678,-38.1744,-1.78594,178.66,5.71289,-145.129,1636
1569922538,391.678,-38.1744,-1.78594,178.638,5.71289,-145.129,1636
1569922538,391.678,-38.1744,-1.78594,178.638,5.71289,-145.129,1636
1569922538,391.678,-38.1744,-1.78594,178.638,5.71289,-145.129,1636
1569922538,391.678,-38.1744,-1.78594,178.638,5.71289,-145.129,1636
1569922538,391.678,-38.1744,-1.78594,178.638,5.71289,-145.129,1636
1569922538,391.678,-38.286,-1.78594,178.638,5.71289,-145.129,1640
1569922538,391.678,-38.286,-1.67432,178.638,5.71289,-145.129,1640
1569922538,391.678,-38.286,-1.67432,178.638,5.71289,-145.129,1640
1569922538,391.678,-38.286,-1.67432,178.638,5.71289,-145.129,1640
1569922538,391.678,-38.286,-1.67432,178.638,5.71289,-145.129,1640
1569922538,391.678,-38.286,-1.67432,178.638,5.71289,-145.129,1640
1569922538,391.678,-38.286,-1.67432,178.638,5.71289,-145.129,1640
1569922538,391.678,-38.286,-1.78594,178.638,5.71289,-145.129,1640
1569922538,391.678,-38.286,-1.78594,178.638,5.71289,-145.129,1640
1569922538,391.678,-38.286,-1.78594,178.638,5.71289,-145.129,1636
1569922538,391.678,-38.286,-1.78594,178.638,5.71289,-145.129,1640
1569922538,391.678,-38.286,-1.78594,178.638,5.71289,-145.129,1640
1569922538,391.678,-38.286,-1.78594,178.638,5.69092,-145.129,1640
1569922538,391.678,-38.286,-1.78594,178.638,5.69092,-145.129,1640
1569922538,391.678,-38.286,-1.78594,178.638,5.69092,-145.129,1640
1569922538,391.678,-38.286,-1.78594,178.616,5.69092,-145.129,1640
1569922538,391.678,-38.286,-1.78594,178.616,5.69092,-145.129,1640
1569922538,391.678,-38.286,-1.78594,178.616,5.69092,-145.129,1640
1569922538,391.678,-38.286,-1.78594,178.616,5.69092,-145.129,1640
1569922538,391.678,-38.286,-1.78594,178.616,5.69092,-145.129,1640
1569922538,391.678,-38.286,-1.78594,178.616,5.69092,-145.129,1640
1569922538,391.678,-38.286,-1.78594,178.616,5.69092,-145.129,1640
1569922538,391.678,-38.286,-1.78594,178.616,5.69092,-145.129,1640
1569922538,391.678,-38.286,-1.78594,178.616,5.69092,-145.129,1640
1569922538,391.678,-38.286,-1.78594,178.616,5.69092,-145.129,1640
1569922538,391.678,-38.286,-1.78594,178.616,5.69092,-145.129,1640
1569922538,391.678,-38.286,-1.78594,178.616,5.69092,-145.129,1640
1569922538,391.678,-38.286,-1.78594,178.616,5.69092,-145.129,1640
1569922538,391.79,-38.286,-1.78594,178.616,5.69092,-145.129,1640
1569922538,391.79,-38.286,-1.78594,178.616,5.69092,-145.129,1640
1569922538,391.79,-38.286,-1.78594,178.616,5.69092,-145.129,1640
1569922538,391.79,-38.286,-1.78594,178.616,5.69092,-145.129,1640
1569922538,391.79,-38.286,-1.78594,178.616,5.69092,-145.129,1640
1569922538,391.79,-38.286,-1.78594,178.616,5.69092,-145.129,1640
1569922538,391.79,-38.286,-1.78594,178.616,5.71289,-145.129,1640
1569922538,391.79,-38.286,-1.78594,178.616,5.69092,-145.129,1640
1569922538,391.678,-38.286,-1.78594,178.616,5.69092,-145.129,1640
1569922538,391.678,-38.286,-1.78594,178.616,5.69092,-145.129,1640
1569922538,391.678,-38.286,-1.78594,178.616,5.69092,-145.129,1640
1569922538,391.678,-38.286,-1.78594,178.616,5.69092,-145.129,1640
1569922538,391.678,-38.286,-1.78594,178.616,5.71289,-145.129,1640
1569922538,391.678,-38.286,-1.78594,178.616,5.71289,-145.129,1640
1569922538,391.678,-38.286,-1.78594,178.616,5.71289,-145.129,1640
1569922538,391.678,-38.286,-1.78594,178.616,5.71289,-145.129,1640
1569922538,391.678,-38.286,-1.78594,178.616,5.71289,-145.129,1640
1569922538,391.678,-38.286,-1.78594,178.616,5.71289,-145.129,1640
1569922538,391.678,-38.286,-1.78594,178.616,5.71289,-145.129,1640
1569922538,391.678,-38.286,-1.78594,178.616,5.71289,-145.107,1640
1569922538,391.678,-38.286,-1.78594,178.616,5.71289,-145.107,1640
1569922538,391.678,-38.286,-1.78594,178.616,5.71289,-145.107,1640
1569922538,391.678,-38.286,-1.78594,178.616,5.71289,-145.107,1640
1569922538,391.678,-38.286,-1.78594,178.616,5.71289,-145.107,1640
1569922538,391.678,-38.286,-1.78594,178.616,5.71289,-145.107,1640
1569922538,391.678,-38.286,-1.78594,178.616,5.71289,-145.107,1640
1569922538,391.678,-38.286,-1.78594,178.616,5.71289,-145.129,1640
1569922538,391.678,-38.286,-1.78594,178.616,5.71289,-145.129,1640
1569922538,391.678,-38.286,-1.78594,178.616,5.71289,-145.129,1640
1569922538,391.678,-38.286,-1.78594,178.616,5.71289,-145.129,1636
1569922538,391.678,-38.286,-1.78594,178.616,5.71289,-145.129,1636
1569922538,391.678,-38.286,-1.78594,178.616,5.71289,-145.129,1636
1569922538,391.678,-38.286,-1.78594,178.616,5.71289,-145.129,1632
1569922538,391.678,-38.286,-1.78594,178.616,5.71289,-145.129,1632
1569922538,391.678,-38.286,-1.78594,178.616,5.71289,-145.129,1632
1569922538,391.678,-38.286,-1.78594,178.616,5.71289,-145.129,1632
1569922538,391.678,-38.286,-1.78594,178.616,5.71289,-145.129,1628
1569922538,391.678,-38.286,-1.78594,178.616,5.71289,-145.129,1628
1569922538,391.678,-38.286,-1.78594,178.616,5.71289,-145.129,1628
1569922538,391.678,-38.286,-1.78594,178.616,5.71289,-145.129,1628
1569922538,391.678,-38.286,-1.78594,178.616,5.71289,-145.129,1628
1569922538,391.678,-38.286,-1.78594,178.616,5.71289,-145.129,1628
1569922538,391.678,-38.286,-1.78594,178.616,5.69092,-145.129,1628
1569922538,391.678,-38.286,-1.78594,178.616,5.69092,-145.129,1628
1569922538,391.678,-38.286,-1.78594,178.616,5.69092,-145.129,1628
1569922538,391.678,-38.286,-1.78594,178.638,5.69092,-145.129,1628
1569922538,391.678,-38.286,-1.78594,178.638,5.69092,-145.129,1628
1569922538,391.678,-38.286,-1.78594,178.638,5.69092,-145.129,1628
1569922538,391.678,-38.286,-1.78594,178.638,5.69092,-145.129,1632
1569922538,391.678,-38.286,-1.78594,178.638,5.69092,-145.129,1632
1569922538,391.678,-38.1744,-1.78594,178.638,5.69092,-145.129,1632
1569922538,391.678,-38.1744,-1.78594,178.638,5.69092,-145.129,1632
1569922538,391.678,-38.1744,-1.78594,178.638,5.71289,-145.107,1632
1569922538,391.678,-38.1744,-1.78594,178.638,5.71289,-145.107,1632
1569922538,391.678,-38.1744,-1.78594,178.638,5.71289,-145.107,1632
1569922538,391.678,-38.1744,-1.78594,178.638,5.71289,-145.107,1636
1569922538,391.678,-38.1744,-1.78594,178.638,5.71289,-145.107,1636
1569922538,391.678,-38.1744,-1.78594,178.66,5.71289,-145.107,1636
1569922539,391.678,-38.1744,-1.78594,178.66,5.71289,-145.107,1636
1569922539,391.678,-38.1744,-1.78594,178.66,5.71289,-145.107,1636
1569922539,391.678,-38.1744,-1.78594,178.66,5.71289,-145.107,1636
1569922539,391.678,-38.1744,-1.78594,178.66,5.71289,-145.107,1636
1569922539,391.678,-38.1744,-1.78594,178.638,5.71289,-145.107,1636
1569922539,391.678,-38.1744,-1.78594,178.638,5.71289,-145.107,1636
1569922539,391.678,-38.1744,-1.78594,178.638,5.71289,-145.107,1636
1569922539,391.678,-38.1744,-1.78594,178.638,5.71289,-145.107,1636
1569922539,391.678,-38.1744,-1.78594,178.638,5.71289,-145.107,1636
1569922539,391.678,-38.286,-1.78594,178.638,5.71289,-145.129,1636
1569922539,391.678,-38.286,-1.78594,178.638,5.73486,-145.129,1640
1569922539,391.678,-38.286,-1.78594,178.616,5.73486,-145.129,1640
1569922539,391.678,-38.286,-1.78594,178.616,5.73486,-145.129,1640
1569922539,391.678,-38.286,-1.78594,178.616,5.73486,-145.129,1640
1569922539,391.678,-38.286,-1.78594,178.616,5.73486,-145.129,1640
1569922539,391.678,-38.286,-1.78594,178.616,5.73486,-145.129,1640
1569922539,391.678,-38.286,-1.78594,178.616,5.73486,-145.129,1640
1569922539,391.678,-38.286,-1.78594,178.616,5.73486,-145.129,1640
1569922539,391.678,-38.286,-1.78594,178.616,5.73486,-145.129,1636
1569922539,391.678,-38.286,-1.78594,178.616,5.73486,-145.129,1636
1569922539,391.678,-38.286,-1.78594,178.616,5.73486,-145.129,1636
1569922539,391.678,-38.286,-1.78594,178.616,5.73486,-145.129,1636
1569922539,391.678,-38.286,-1.78594,178.616,5.73486,-145.129,1636
1569922539,391.678,-38.286,-1.78594,178.616,5.73486,-145.129,1636
1569922539,391.678,-38.286,-1.78594,178.616,5.73486,-145.129,1636
1569922539,391.678,-38.286,-1.78594,178.616,5.73486,-145.129,1636
1569922539,391.678,-38.286,-1.78594,178.616,5.73486,-145.129,1636
1569922539,391.678,-38.286,-1.78594,178.616,5.73486,-145.129,1636
1569922539,391.678,-38.286,-1.78594,178.616,5.71289,-145.151,1636
1569922539,391.678,-38.286,-1.78594,178.616,5.71289,-145.151,1636
1569922539,391.678,-38.286,-1.78594,178.616,5.71289,-145.151,1636
1569922539,391.678,-38.286,-1.78594,178.616,5.71289,-145.151,1636
1569922539,391.678,-38.286,-1.78594,178.616,5.71289,-145.151,1636
1569922539,391.678,-38.286,-1.78594,178.616,5.71289,-145.151,1636
1569922539,391.678,-38.286,-1.78594,178.616,5.71289,-145.151,1636
1569922539,391.678,-38.286,-1.78594,178.616,5.71289,-145.151,1636
1569922539,391.678,-38.286,-1.78594,178.616,5.71289,-145.151,1636
1569922539,391.678,-38.286,-1.78594,178.616,5.71289,-145.151,1636
1569922539,391.678,-38.286,-1.78594,178.616,5.71289,-145.129,1636
1569922539,391.678,-38.286,-1.78594,178.616,5.71289,-145.129,1636
1569922539,391.678,-38.286,-1.78594,178.638,5.71289,-145.129,1632
1569922539,391.678,-38.286,-1.78594,178.638,5.73486,-145.129,1632
1569922539,391.678,-38.286,-1.78594,178.638,5.73486,-145.129,1632
1569922539,391.678,-38.286,-1.78594,178.638,5.73486,-145.129,1632
1569922539,391.678,-38.286,-1.78594,178.638,5.73486,-145.129,1632
1569922539,391.678,-38.286,-1.78594,178.638,5.73486,-145.129,1632
1569922539,391.79,-38.286,-1.78594,178.638,5.73486,-145.129,1636
1569922539,391.79,-38.286,-1.78594,178.66,5.73486,-145.129,1636
1569922539,391.79,-38.1744,-1.67432,178.66,5.73486,-145.129,1636
1569922539,391.79,-38.1744,-1.67432,178.66,5.73486,-145.129,1636
1569922539,391.79,-38.1744,-1.67432,178.66,5.73486,-145.129,1636
1569922539,391.79,-38.1744,-1.67432,178.66,5.73486,-145.129,1636
1569922539,391.79,-38.286,-1.67432,178.66,5.73486,-145.129,1636
1569922539,391.79,-38.286,-1.67432,178.638,5.73486,-145.129,1640
1569922539,391.79,-38.286,-1.67432,178.638,5.73486,-145.151,1640
1569922539,391.79,-38.286,-1.67432,178.638,5.73486,-145.151,1640
1569922539,391.79,-38.286,-1.78594,178.638,5.73486,-145.129,1640
1569922539,391.79,-38.286,-1.78594,178.638,5.73486,-145.129,1640
1569922539,391.79,-38.286,-1.78594,178.638,5.73486,-145.129,1640
1569922539,391.79,-38.286,-1.78594,178.638,5.73486,-145.129,1640
1569922539,391.79,-38.286,-1.78594,178.638,5.73486,-145.129,1640
1569922539,391.79,-38.1744,-1.78594,178.66,5.73486,-145.129,1640
1569922539,391.79,-38.1744,-1.78594,178.66,5.73486,-145.129,1640
1569922539,391.79,-38.1744,-1.78594,178.66,5.73486,-145.129,1640
1569922539,391.79,-38.1744,-1.78594,178.66,5.73486,-145.129,1640
1569922539,391.79,-38.1744,-1.78594,178.66,5.73486,-145.129,1640
1569922539,391.79,-38.1744,-1.78594,178.66,5.73486,-145.107,1640
1569922539,391.79,-38.1744,-1.78594,178.66,5.73486,-145.107,1636
1569922539,391.79,-38.1744,-1.78594,178.66,5.73486,-145.107,1640
1569922539,391.79,-38.286,-1.67432,178.66,5.73486,-145.107,1640
1569922539,391.79,-38.286,-1.67432,178.638,5.73486,-145.107,1640
1569922539,391.79,-38.286,-1.67432,178.638,5.73486,-145.107,1640
1569922539,391.79,-38.286,-1.67432,178.638,5.73486,-145.107,1640
1569922539,391.79,-38.286,-1.67432,178.638,5.73486,-145.107,1640
1569922539,391.79,-38.286,-1.67432,178.638,5.73486,-145.107,1640
1569922539,391.79,-38.286,-1.67432,178.638,5.73486,-145.107,1640
1569922539,391.79,-38.286,-1.67432,178.638,5.73486,-145.107,1640
1569922539,391.79,-38.286,-1.67432,178.638,5.73486,-145.107,1644
1569922543,367.233,-14.3991,-1.45107,178.242,6.02051,-145.393,1444
1569922543,367.233,-14.3991,-1.45107,178.242,6.02051,-145.393,1444
1569922543,367.233,-14.3991,-1.45107,178.242,6.02051,-145.393,1444
1569922543,367.233,-14.3991,-1.45107,178.242,6.02051,-145.393,1444
1569922543,367.233,-14.3991,-1.45107,178.242,6.02051,-145.393,1444
1569922543,367.233,-14.3991,-1.45107,178.242,6.02051,-145.393,1444
1569922543,367.233,-14.3991,-1.45107,178.242,6.02051,-145.393,1444
1569922543,367.233,-14.3991,-1.45107,178.242,6.02051,-145.393,1444
1569922543,367.233,-14.3991,-1.45107,178.242,6.02051,-145.393,1444
1569922543,367.233,-14.3991,-1.45107,178.242,6.02051,-145.393,1444
1569922543,367.233,-14.3991,-1.45107,178.242,6.02051,-145.393,1444
1569922543,367.233,-14.3991,-1.45107,178.242,6.02051,-145.393,1444
1569922543,367.233,-14.3991,-1.45107,178.242,6.02051,-145.393,1444
1569922543,367.345,-14.3991,-1.45107,178.242,6.02051,-145.393,1444
1569922543,367.345,-14.3991,-1.45107,178.242,6.02051,-145.393,1440
1569922543,367.345,-14.3991,-1.45107,178.242,6.04248,-145.393,1440
1569922543,367.345,-14.3991,-1.45107,178.242,6.04248,-145.393,1440
1569922543,367.345,-14.3991,-1.45107,178.242,6.04248,-145.393,1440
1569922543,367.345,-14.3991,-1.45107,178.242,6.04248,-145.393,1440
1569922543,367.345,-14.3991,-1.33945,178.242,6.04248,-145.393,1440
1569922543,367.345,-14.3991,-1.33945,178.242,6.04248,-145.393,1440
1569922543,367.345,-14.3991,-1.33945,178.242,6.04248,-145.393,1440
1569922543,367.345,-14.3991,-1.33945,178.242,6.04248,-145.393,1440
1569922543,367.345,-14.3991,-1.33945,178.242,6.04248,-145.393,1440
1569922543,367.345,-14.3991,-1.33945,178.242,6.04248,-145.393,1440
1569922543,367.345,-14.3991,-1.33945,178.242,6.04248,-145.393,1440
1569922543,367.345,-14.3991,-1.33945,178.242,6.04248,-145.393,1444
1569922543,367.345,-14.3991,-1.33945,178.242,6.04248,-145.393,1444
1569922543,367.345,-14.3991,-1.33945,178.242,6.04248,-145.393,1444
1569922543,367.345,-14.3991,-1.33945,178.242,6.04248,-145.393,1444
1569922543,367.345,-14.3991,-1.33945,178.242,6.04248,-145.393,1444
1569922543,367.345,-14.3991,-1.33945,178.242,6.04248,-145.393,1444
1569922543,367.345,-14.3991,-1.33945,178.242,6.04248,-145.393,1444
1569922543,367.345,-14.3991,-1.33945,178.242,6.04248,-145.393,1444
1569922543,367.345,-14.3991,-1.33945,178.242,6.04248,-145.393,1444
1569922543,367.345,-14.3991,-1.33945,178.242,6.04248,-145.393,1444
1569922543,367.345,-14.3991,-1.33945,178.242,6.04248,-145.393,1448
1569922543,367.345,-14.3991,-1.33945,178.242,6.04248,-145.393,1448
1569922543,367.345,-14.3991,-1.33945,178.242,6.04248,-145.393,1448
1569922543,367.345,-14.3991,-1.33945,178.242,6.04248,-145.393,1448
1569922543,367.345,-14.3991,-1.33945,178.242,6.04248,-145.393,1448
1569922543,367.345,-14.3991,-1.33945,178.242,6.04248,-145.393,1448
1569922543,367.345,-14.3991,-1.33945,178.242,6.04248,-145.393,1448
1569922543,367.345,-14.3991,-1.33945,178.242,6.04248,-145.393,1448
1569922543,367.345,-14.3991,-1.33945,178.22,6.04248,-145.393,1448
1569922543,367.345,-14.3991,-1.33945,178.22,6.04248,-145.393,1448
1569922543,367.345,-14.3991,-1.33945,178.22,6.04248,-145.393,1444
1569922543,367.345,-14.3991,-1.33945,178.22,6.04248,-145.393,1444
1569922543,367.345,-14.3991,-1.33945,178.22,6.04248,-145.393,1444
1569922543,367.345,-14.3991,-1.33945,178.22,6.04248,-145.393,1444
1569922543,367.345,-14.3991,-1.33945,178.22,6.04248,-145.393,1444
1569922543,367.233,-14.3991,-1.33945,178.22,6.04248,-145.393,1444
1569922543,367.233,-14.3991,-1.33945,178.198,6.04248,-145.393,1440
1569922543,367.233,-14.5107,-1.33945,178.198,6.04248,-145.393,1440
1569922543,367.233,-14.5107,-1.33945,178.198,6.04248,-145.393,1440
1569922543,367.233,-14.5107,-1.33945,178.198,6.04248,-145.393,1440
1569922543,367.233,-14.5107,-1.33945,178.198,6.04248,-145.393,1440
1569922543,367.233,-14.5107,-1.33945,178.198,6.04248,-145.393,1444
1569922543,367.233,-14.5107,-1.33945,178.198,6.04248,-145.393,1444
1569922543,367.233,-14.5107,-1.33945,178.198,6.04248,-145.393,1444
1569922543,367.233,-14.5107,-1.33945,178.198,6.04248,-145.393,1444
1569922543,367.233,-14.5107,-1.33945,178.198,6.04248,-145.393,1444
1569922543,367.233,-14.5107,-1.33945,178.198,6.04248,-145.393,1444
1569922543,367.233,-14.5107,-1.45107,178.198,6.04248,-145.393,1444
1569922543,367.233,-14.5107,-1.45107,178.198,6.04248,-145.393,1444
1569922543,367.233,-14.5107,-1.45107,178.198,6.04248,-145.393,1448
1569922543,367.233,-14.5107,-1.45107,178.198,6.04248,-145.393,1448
1569922543,367.233,-14.5107,-1.45107,178.198,6.04248,-145.393,1448
1569922543,367.233,-14.5107,-1.45107,178.198,6.04248,-145.393,1444
1569922543,367.233,-14.5107,-1.45107,178.198,6.04248,-145.393,1444
1569922543,367.233,-14.5107,-1.45107,178.198,6.04248,-145.393,1444
1569922543,367.233,-14.5107,-1.45107,178.198,6.02051,-145.393,1444
1569922543,367.233,-14.5107,-1.45107,178.198,6.02051,-145.393,1444
1569922543,367.233,-14.5107,-1.45107,178.198,6.02051,-145.393,1444
1569922543,367.233,-14.5107,-1.45107,178.198,6.02051,-145.393,1444
1569922543,367.233,-14.5107,-1.45107,178.198,6.02051,-145.393,1444
1569922543,367.233,-14.5107,-1.45107,178.198,6.02051,-145.393,1440
1569922543,367.233,-14.5107,-1.45107,178.198,6.02051,-145.393,1440
1569922543,367.233,-14.5107,-1.45107,178.198,6.02051,-145.393,1440
1569922543,367.233,-14.5107,-1.45107,178.198,6.02051,-145.393,1440
1569922543,367.233,-14.5107,-1.45107,178.198,6.02051,-145.393,1436
1569922543,367.233,-14.5107,-1.45107,178.198,6.02051,-145.393,1436
1569922544,367.233,-14.5107,-1.45107,178.198,6.04248,-145.393,1436
1569922544,367.233,-14.3991,-1.45107,178.22,6.04248,-145.393,1436
1569922544,367.233,-14.3991,-1.45107,178.22,6.04248,-145.393,1432
1569922544,367.233,-14.3991,-1.45107,178.22,6.04248,-145.393,1432
1569922544,367.233,-14.3991,-1.45107,178.22,6.04248,-145.393,1432
1569922544,367.233,-14.3991,-1.45107,178.22,6.04248,-145.393,1432
1569922544,367.233,-14.3991,-1.45107,178.22,6.04248,-145.393,1432
1569922544,367.233,-14.3991,-1.45107,178.22,6.04248,-145.393,1432
1569922544,367.233,-14.3991,-1.45107,178.22,6.04248,-145.393,1432
1569922544,367.233,-14.3991,-1.45107,178.22,6.04248,-145.393,1428
1569922544,367.233,-14.3991,-1.45107,178.22,6.04248,-145.393,1432
1569922544,367.233,-14.3991,-1.45107,178.22,6.04248,-145.393,1432
1569922544,367.233,-14.3991,-1.45107,178.22,6.04248,-145.393,1432
1569922544,367.233,-14.3991,-1.45107,178.22,6.04248,-145.393,1432
1569922544,367.233,-14.3991,-1.45107,178.22,6.04248,-145.393,1432
1569922544,367.233,-14.3991,-1.45107,178.22,6.04248,-145.393,1432
1569922544,367.233,-14.3991,-1.45107,178.22,6.04248,-145.393,1432
1569922544,367.233,-14.3991,-1.45107,178.22,6.04248,-145.393,1432
1569922544,367.233,-14.3991,-1.45107,178.22,6.02051,-145.393,1432
1569922544,367.233,-14.3991,-1.45107,178.22,6.02051,-145.393,1436
1569922544,367.233,-14.3991,-1.45107,178.22,6.02051,-145.393,1436
1569922544,367.233,-14.3991,-1.45107,178.22,6.02051,-145.393,1436
1569922544,367.233,-14.3991,-1.45107,178.22,6.02051,-145.393,1436
1569922544,367.233,-14.3991,-1.45107,178.22,6.02051,-145.393,1436
1569922544,367.233,-14.3991,-1.45107,178.22,6.02051,-145.393,1436
1569922544,367.233,-14.3991,-1.45107,178.22,6.02051,-145.393,1436
1569922544,367.233,-14.3991,-1.45107,178.22,6.02051,-145.393,1436
1569922544,367.233,-14.3991,-1.45107,178.22,6.02051,-145.393,1436
1569922544,367.233,-14.3991,-1.45107,178.22,6.02051,-145.393,1440
1569922544,367.233,-14.3991,-1.45107,178.22,6.02051,-145.393,1440
1569922544,367.233,-14.3991,-1.45107,178.22,6.02051,-145.393,1440
1569922544,367.233,-14.3991,-1.45107,178.22,6.02051,-145.393,1440
1569922544,367.233,-14.3991,-1.45107,178.22,6.02051,-145.393,1444
1569922544,367.233,-14.3991,-1.45107,178.22,6.02051,-145.415,1444
1569922544,367.233,-14.3991,-1.45107,178.22,6.04248,-145.393,1444
1569922544,367.345,-14.3991,-1.45107,178.22,6.04248,-145.393,1444
1569922544,367.345,-14.3991,-1.45107,178.22,6.04248,-145.393,1448
1569922544,367.345,-14.3991,-1.45107,178.22,6.04248,-145.393,1448
1569922544,367.345,-14.3991,-1.45107,178.22,6.04248,-145.393,1448
1569922544,367.345,-14.3991,-1.45107,178.22,6.04248,-145.393,1448
1569922544,367.345,-14.3991,-1.45107,178.22,6.04248,-145.393,1448
1569922544,367.345,-14.3991,-1.45107,178.22,6.04248,-145.393,1448
1569922544,367.345,-14.3991,-1.45107,178.22,6.04248,-145.393,1448
1569922544,367.345,-14.3991,-1.45107,178.22,6.02051,-145.393,1448
1569922544,367.345,-14.3991,-1.45107,178.22,6.02051,-145.393,1448
1569922544,367.233,-14.3991,-1.45107,178.22,6.02051,-145.415,1448
1569922544,367.233,-14.3991,-1.45107,178.22,6.04248,-145.415,1448
1569922544,367.233,-14.3991,-1.45107,178.22,6.04248,-145.415,1448
1569922544,367.233,-14.3991,-1.45107,178.22,6.04248,-145.415,1444
1569922544,367.233,-14.3991,-1.45107,178.22,6.04248,-145.415,1444
1569922544,367.233,-14.3991,-1.45107,178.22,6.04248,-145.415,1444
1569922544,367.233,-14.3991,-1.45107,178.22,6.04248,-145.415,1444
1569922544,367.233,-14.3991,-1.45107,178.22,6.04248,-145.415,1444
1569922544,367.233,-14.5107,-1.45107,178.22,6.04248,-145.415,1444
1569922544,367.233,-14.5107,-1.45107,178.22,6.04248,-145.415,1444
1569922544,367.233,-14.5107,-1.45107,178.22,6.04248,-145.415,1444
1569922544,367.233,-14.5107,-1.45107,178.198,6.04248,-145.415,1444
1569922544,367.233,-14.5107,-1.45107,178.198,6.04248,-145.415,1444
1569922544,367.233,-14.5107,-1.45107,178.198,6.04248,-145.415,1444
1569922544,367.233,-14.5107,-1.33945,178.198,6.04248,-145.415,1444
1569922544,367.233,-14.5107,-1.33945,178.198,6.04248,-145.415,1444
1569922544,367.233,-14.5107,-1.33945,178.198,6.04248,-145.415,1444
1569922544,367.233,-14.5107,-1.45107,178.198,6.04248,-145.415,1444
1569922544,367.233,-14.5107,-1.45107,178.198,6.04248,-145.415,1444
1569922544,367.233,-14.5107,-1.45107,178.198,6.04248,-145.415,1444
1569922544,367.233,-14.5107,-1.45107,178.198,6.04248,-145.415,1444
1569922544,367.233,-14.5107,-1.45107,178.198,6.04248,-145.415,1444
1569922544,367.233,-14.5107,-1.45107,178.198,6.04248,-145.415,1444
1569922544,367.233,-14.5107,-1.45107,178.198,6.04248,-145.415,1444
1569922544,367.233,-14.5107,-1.45107,178.198,6.04248,-145.415,1444
1569922544,367.233,-14.5107,-1.45107,178.198,6.04248,-145.415,1440
1569922544,367.345,-14.5107,-1.45107,178.198,6.04248,-145.415,1440
1569922544,367.345,-14.5107,-1.45107,178.198,6.04248,-145.415,1440
1569922544,367.345,-14.5107,-1.45107,178.198,6.04248,-145.415,1440
1569922544,367.345,-14.5107,-1.45107,178.198,6.04248,-145.415,1440
1569922544,367.345,-14.5107,-1.45107,178.198,6.04248,-145.415,1440
1569922544,367.345,-14.5107,-1.45107,178.198,6.02051,-145.415,1444
1569922544,367.345,-14.5107,-1.45107,178.198,6.02051,-145.415,1444
1569922544,367.345,-14.5107,-1.45107,178.198,6.02051,-145.415,1444
1569922544,367.345,-14.5107,-1.45107,178.198,6.02051,-145.415,1444
1569922544,367.233,-14.5107,-1.45107,178.198,6.02051,-145.415,1444
1569922544,367.233,-14.3991,-1.45107,178.198,6.02051,-145.415,1444
1569922544,367.233,-14.3991,-1.45107,178.198,6.02051,-145.393,1444
1569922544,367.233,-14.3991,-1.45107,178.198,6.02051,-145.393,1444
1569922544,367.233,-14.3991,-1.45107,178.22,6.02051,-145.393,1444
1569922544,367.233,-14.3991,-1.45107,178.22,6.02051,-145.393,1444
1569922544,367.233,-14.3991,-1.45107,178.22,6.02051,-145.393,1444
1569922544,367.233,-14.3991,-1.45107,178.22,6.02051,-145.393,1444
1569922544,367.233,-14.3991,-1.45107,178.198,6.02051,-145.393,1444
1569922544,367.233,-14.3991,-1.45107,178.198,6.02051,-145.393,1444
1569922544,367.233,-14.3991,-1.45107,178.198,6.02051,-145.393,1444
1569922544,367.233,-14.3991,-1.45107,178.198,6.02051,-145.393,1444
1569922544,367.233,-14.5107,-1.45107,178.198,6.02051,-145.393,1444
1569922544,367.233,-14.5107,-1.45107,178.198,6.02051,-145.393,1444
1569922544,367.233,-14.5107,-1.45107,178.198,6.02051,-145.393,1444
1569922544,367.233,-14.5107,-1.45107,178.198,6.02051,-145.415,1444
1569922544,367.233,-14.5107,-1.45107,178.198,6.02051,-145.415,1440
1569922544,367.233,-14.5107,-1.45107,178.198,6.02051,-145.415,1440
1569922544,367.233,-14.5107,-1.45107,178.198,6.02051,-145.415,1440
1569922544,367.233,-14.5107,-1.45107,178.198,6.02051,-145.415,1440
1569922545,367.233,-14.5107,-1.45107,178.198,6.02051,-145.415,1440
1569922545,367.233,-14.5107,-1.45107,178.198,6.02051,-145.415,1440
1569922545,367.233,-14.5107,-1.45107,178.198,6.02051,-145.415,1436
1569922545,367.233,-14.5107,-1.45107,178.198,6.02051,-145.415,1436
1569922545,367.233,-14.5107,-1.45107,178.198,6.02051,-145.415,1436
1569922545,367.233,-14.5107,-1.45107,178.198,6.02051,-145.415,1436
1569922545,367.233,-14.5107,-1.45107,178.198,6.02051,-145.415,1436
1569922545,367.233,-14.5107,-1.45107,178.198,6.02051,-145.415,1436
1569922545,367.233,-14.5107,-1.45107,178.198,6.02051,-145.415,1436
1569922545,367.233,-14.5107,-1.45107,178.198,6.02051,-145.415,1436
1569922545,367.233,-14.5107,-1.45107,178.198,6.02051,-145.415,1436
1569922545,367.233,-14.5107,-1.45107,178.198,6.02051,-145.415,1436
1569922545,367.233,-14.5107,-1.45107,178.198,6.02051,-145.415,1432
1569922545,367.233,-14.5107,-1.45107,178.198,6.02051,-145.415,1432
1569922545,367.233,-14.5107,-1.45107,178.198,6.02051,-145.415,1436
1569922545,367.233,-14.5107,-1.45107,178.198,6.02051,-145.437,1436
1569922545,367.233,-14.5107,-1.45107,178.198,6.02051,-145.437,1436
1569922545,367.233,-14.5107,-1.45107,178.198,6.02051,-145.437,1436
1569922545,367.233,-14.5107,-1.45107,178.198,6.02051,-145.437,1436
1569922545,367.233,-14.5107,-1.45107,178.198,6.02051,-145.437,1436
1569922545,367.233,-14.5107,-1.45107,178.198,6.02051,-145.415,1436
1569922545,367.233,-14.5107,-1.45107,178.198,6.02051,-145.415,1436
1569922545,367.233,-14.5107,-1.45107,178.198,6.02051,-145.415,1436
1569922545,367.233,-14.5107,-1.45107,178.198,6.02051,-145.415,1436
1569922545,367.233,-14.5107,-1.45107,178.198,6.02051,-145.415,1440
1569922545,367.233,-14.5107,-1.45107,178.198,6.02051,-145.415,1440
1569922545,367.233,-14.5107,-1.45107,178.198,6.02051,-145.415,1440
1569922545,367.233,-14.5107,-1.45107,178.198,6.02051,-145.415,1440
1569922545,367.233,-14.5107,-1.45107,178.198,6.02051,-145.437,1444
1569922545,367.233,-14.3991,-1.45107,178.198,6.02051,-145.437,1444
1569922545,367.233,-14.3991,-1.45107,178.198,6.02051,-145.437,1444
1569922545,367.233,-14.3991,-1.45107,178.198,6.02051,-145.437,1444
1569922545,367.233,-14.3991,-1.45107,178.198,6.02051,-145.437,1444
1569922545,367.233,-14.3991,-1.45107,178.22,6.02051,-145.437,1448
1569922545,367.233,-14.3991,-1.45107,178.22,6.02051,-145.437,1448
1569922545,367.233,-14.3991,-1.45107,178.22,6.02051,-145.437,1448
1569922545,367.233,-14.3991,-1.45107,178.22,6.02051,-145.437,1448
1569922545,367.233,-14.3991,-1.45107,178.22,6.02051,-145.437,1448
1569922545,367.233,-14.3991,-1.45107,178.22,6.02051,-145.415,1448
1569922545,367.233,-14.3991,-1.45107,178.22,6.02051,-145.415,1448
1569922545,367.233,-14.3991,-1.45107,178.22,6.02051,-145.415,1448
1569922545,367.233,-14.3991,-1.45107,178.22,6.02051,-145.415,1448
1569922545,367.233,-14.3991,-1.45107,178.22,6.02051,-145.415,1448
1569922545,367.233,-14.3991,-1.45107,178.22,6.02051,-145.415,1448
1569922545,367.233,-14.3991,-1.45107,178.22,6.02051,-145.415,1448
1569922545,367.233,-14.3991,-1.45107,178.22,6.04248,-145.415,1448
1569922545,367.233,-14.3991,-1.45107,178.22,6.04248,-145.415,1452
1569922545,367.233,-14.3991,-1.45107,178.22,6.04248,-145.415,1452
1569922545,367.233,-14.3991,-1.45107,178.22,6.04248,-145.415,1452
1569922545,367.233,-14.3991,-1.45107,178.22,6.04248,-145.415,1452
1569922545,367.233,-14.3991,-1.45107,178.22,6.04248,-145.415,1452
1569922545,367.345,-14.3991,-1.45107,178.22,6.04248,-145.415,1452
1569922545,367.345,-14.3991,-1.45107,178.22,6.02051,-145.415,1452
1569922545,367.345,-14.3991,-1.45107,178.22,6.02051,-145.415,1452
1569922545,367.345,-14.3991,-1.45107,178.22,6.02051,-145.415,1452
1569922545,367.345,-14.3991,-1.45107,178.22,6.02051,-145.415,1452
1569922545,367.345,-14.3991,-1.45107,178.22,6.02051,-145.415,1452
1569922545,367.345,-14.3991,-1.45107,178.22,6.02051,-145.415,1452
1569922545,367.345,-14.3991,-1.45107,178.22,6.02051,-145.415,1452
1569922545,367.345,-14.3991,-1.45107,178.22,6.02051,-145.393,1452
1569922545,367.345,-14.3991,-1.45107,178.22,6.02051,-145.393,1452
1569922545,367.345,-14.3991,-1.45107,178.22,6.02051,-145.393,1452
1569922545,367.345,-14.3991,-1.45107,178.22,6.02051,-145.393,1452
1569922545,367.345,-14.3991,-1.45107,178.22,6.02051,-145.393,1452
1569922545,367.345,-14.3991,-1.45107,178.22,6.02051,-145.393,1452
1569922545,367.345,-14.3991,-1.45107,178.22,6.02051,-145.393,1452
1569922545,367.345,-14.5107,-1.45107,178.22,6.02051,-145.393,1452
1569922545,367.345,-14.5107,-1.45107,178.22,6.02051,-145.393,1452
1569922545,367.345,-14.5107,-1.45107,178.198,6.02051,-145.393,1452
1569922545,367.233,-14.5107,-1.45107,178.198,6.02051,-145.393,1448
1569922545,367.345,-14.5107,-1.45107,178.198,6.02051,-145.393,1448
1569922545,367.233,-14.5107,-1.45107,178.198,6.02051,-145.393,1448
1569922545,367.233,-14.5107,-1.45107,178.198,6.02051,-145.393,1448
1569922545,367.233,-14.5107,-1.45107,178.198,6.02051,-145.393,1448
1569922545,367.233,-14.5107,-1.45107,178.198,6.02051,-145.393,1448
1569922545,367.345,-14.5107,-1.45107,178.198,6.02051,-145.393,1448
1569922545,367.345,-14.5107,-1.45107,178.198,6.02051,-145.393,1448
1569922545,367.345,-14.5107,-1.45107,178.198,6.02051,-145.393,1448
1569922545,367.345,-14.5107,-1.45107,178.198,6.02051,-145.393,1448
1569922545,367.345,-14.5107,-1.45107,178.198,6.02051,-145.393,1448
1569922545,367.345,-14.5107,-1.45107,178.198,6.02051,-145.393,1448
1569922545,367.345,-14.5107,-1.45107,178.198,6.02051,-145.393,1448
1569922545,367.345,-14.5107,-1.45107,178.198,6.02051,-145.393,1444
1569922545,367.345,-14.5107,-1.45107,178.198,6.02051,-145.393,1444
1569922545,367.345,-14.5107,-1.45107,178.198,6.02051,-145.393,1444
1569922545,367.345,-14.5107,-1.45107,178.198,6.02051,-145.393,1444
1569922545,367.345,-14.5107,-1.45107,178.198,6.02051,-145.393,1448
1569922545,367.345,-14.5107,-1.45107,178.198,6.02051,-145.393,1448
1569922545,367.345,-14.5107,-1.45107,178.198,6.02051,-145.393,1448
1569922545,367.345,-14.5107,-1.45107,178.198,6.02051,-145.393,1448
1569922545,367.345,-14.5107,-1.45107,178.198,6.02051,-145.393,1452
1569922545,367.345,-14.5107,-1.45107,178.198,6.02051,-145.393,1452
1569922545,367.345,-14.5107,-1.45107,178.198,6.02051,-145.393,1452
1569922545,367.345,-14.5107,-1.45107,178.198,6.02051,-145.393,1452
1569922545,367.345,-14.5107,-1.45107,178.198,6.02051,-145.393,1456
1569922545,367.345,-14.5107,-1.45107,178.198,6.02051,-145.393,1456
1569922545,367.345,-14.5107,-1.45107,178.198,6.04248,-145.393,1456
1569922545,367.345,-14.5107,-1.45107,178.198,6.04248,-145.393,1456
1569922545,367.345,-14.5107,-1.45107,178.198,6.04248,-145.393,1456
1569922545,367.345,-14.5107,-1.45107,178.198,6.04248,-145.393,1456
1569922546,367.345,-14.5107,-1.45107,178.198,6.04248,-145.393,1460
1569922546,367.345,-14.5107,-1.45107,178.198,6.04248,-145.393,1460
1569922546,367.345,-14.5107,-1.45107,178.198,6.04248,-145.393,1460
1569922546,367.345,-14.5107,-1.45107,178.198,6.04248,-145.393,1460
1569922546,367.345,-14.5107,-1.45107,178.198,6.04248,-145.393,1460
1569922546,367.345,-14.5107,-1.45107,178.198,6.04248,-145.393,1464
1569922546,367.345,-14.5107,-1.45107,178.198,6.04248,-145.415,1464
1569922546,367.345,-14.5107,-1.45107,178.198,6.04248,-145.415,1464
1569922546,367.345,-14.5107,-1.45107,178.198,6.04248,-145.415,1464
1569922546,367.345,-14.5107,-1.45107,178.198,6.04248,-145.415,1464
1569922546,367.345,-14.5107,-1.45107,178.198,6.04248,-145.415,1464
1569922546,367.345,-14.5107,-1.33945,178.198,6.04248,-145.415,1468
1569922546,367.345,-14.5107,-1.33945,178.198,6.04248,-145.415,1468
1569922546,367.345,-14.5107,-1.33945,178.198,6.04248,-145.415,1468
1569922546,367.345,-14.5107,-1.33945,178.198,6.04248,-145.415,1468
1569922546,367.345,-14.5107,-1.33945,178.198,6.04248,-145.415,1468
1569922546,367.345,-14.5107,-1.33945,178.198,6.04248,-145.415,1468
1569922546,367.345,-14.5107,-1.33945,178.198,6.04248,-145.415,1468
1569922546,367.345,-14.5107,-1.33945,178.198,6.04248,-145.415,1468
1569922546,367.345,-14.5107,-1.33945,178.198,6.06445,-145.415,1468
1569922546,367.345,-14.5107,-1.33945,178.198,6.06445,-145.415,1468
1569922546,367.345,-14.5107,-1.33945,178.198,6.06445,-145.415,1468
1569922546,367.345,-14.5107,-1.33945,178.198,6.06445,-145.415,1468
1569922546,367.345,-14.5107,-1.33945,178.198,6.06445,-145.415,1468
1569922546,367.345,-14.5107,-1.33945,178.198,6.06445,-145.415,1468
1569922546,367.345,-14.5107,-1.33945,178.198,6.06445,-145.393,1468
1569922546,367.345,-14.3991,-1.33945,178.198,6.04248,-145.393,1468
1569922546,367.345,-14.3991,-1.33945,178.22,6.04248,-145.393,1468
1569922546,367.345,-14.3991,-1.33945,178.22,6.04248,-145.393,1468
1569922546,367.345,-14.3991,-1.33945,178.22,6.04248,-145.393,1468
1569922546,367.345,-14.3991,-1.33945,178.22,6.04248,-145.393,1468
1569922546,367.345,-14.3991,-1.33945,178.22,6.04248,-145.393,1468
1569922546,367.345,-14.3991,-1.33945,178.22,6.04248,-145.393,1468
1569922546,367.345,-14.3991,-1.33945,178.22,6.04248,-145.393,1464
1569922546,367.345,-14.3991,-1.33945,178.22,6.04248,-145.393,1464
1569922546,367.345,-14.3991,-1.45107,178.22,6.04248,-145.393,1464
1569922546,367.345,-14.3991,-1.45107,178.22,6.04248,-145.393,1464
1569922546,367.345,-14.3991,-1.45107,178.22,6.04248,-145.393,1464
1569922546,367.345,-14.3991,-1.45107,178.22,6.04248,-145.393,1464
1569922546,367.345,-14.3991,-1.45107,178.22,6.04248,-145.393,1464
1569922546,367.345,-14.3991,-1.45107,178.22,6.04248,-145.393,1464
1569922546,367.345,-14.3991,-1.45107,178.22,6.04248,-145.393,1460
1569922546,367.345,-14.3991,-1.45107,178.22,6.04248,-145.393,1460
1569922546,367.345,-14.3991,-1.45107,178.22,6.04248,-145.393,1460
1569922546,367.345,-14.5107,-1.45107,178.198,6.04248,-145.393,1460
1569922546,367.345,-14.5107,-1.45107,178.198,6.02051,-145.393,1460
1569922546,367.345,-14.5107,-1.45107,178.198,6.02051,-145.393,1460
1569922546,367.345,-14.5107,-1.45107,178.198,6.02051,-145.393,1460
1569922546,367.345,-14.5107,-1.45107,178.198,6.02051,-145.393,1460
1569922546,367.345,-14.5107,-1.45107,178.198,6.02051,-145.393,1460
1569922546,367.345,-14.5107,-1.45107,178.198,6.02051,-145.393,1460
1569922546,367.345,-14.5107,-1.45107,178.198,6.02051,-145.393,1460
1569922546,367.345,-14.5107,-1.45107,178.198,6.02051,-145.393,1460
1569922546,367.345,-14.5107,-1.45107,178.198,6.02051,-145.393,1460
1569922546,367.345,-14.5107,-1.45107,178.198,6.02051,-145.393,1460
1569922546,367.345,-14.5107,-1.45107,178.198,6.02051,-145.393,1460
1569922546,367.345,-14.5107,-1.45107,178.198,6.02051,-145.393,1460
1569922546,367.345,-14.5107,-1.45107,178.198,6.02051,-145.393,1460
1569922546,367.345,-14.5107,-1.45107,178.198,6.02051,-145.393,1460
1569922546,367.345,-14.5107,-1.45107,178.198,6.02051,-145.393,1460
1569922546,367.345,-14.5107,-1.45107,178.198,5.99854,-145.393,1456
1569922546,367.345,-14.5107,-1.45107,178.198,5.99854,-145.415,1456
1569922546,367.345,-14.5107,-1.45107,178.198,5.99854,-145.415,1456
1569922546,367.233,-14.5107,-1.45107,178.198,5.99854,-145.415,1456
1569922546,367.233,-14.5107,-1.45107,178.198,5.99854,-145.415,1456
1569922546,367.233,-14.5107,-1.5627,178.198,5.99854,-145.415,1456
1569922546,367.233,-14.5107,-1.5627,178.198,5.99854,-145.415,1456
1569922546,367.233,-14.5107,-1.5627,178.198,5.99854,-145.415,1456
1569922546,367.233,-14.5107,-1.5627,178.198,5.99854,-145.415,1452
1569922546,367.233,-14.5107,-1.5627,178.198,5.99854,-145.415,1452
1569922546,367.233,-14.5107,-1.5627,178.198,5.99854,-145.415,1452
1569922546,367.233,-14.5107,-1.5627,178.198,5.99854,-145.415,1452
1569922546,367.233,-14.5107,-1.5627,178.198,5.99854,-145.415,1452
1569922546,367.233,-14.5107,-1.5627,178.198,5.99854,-145.415,1452
1569922546,367.233,-14.5107,-1.5627,178.198,5.99854,-145.415,1452
1569922546,367.233,-14.5107,-1.5627,178.198,5.99854,-145.415,1452
1569922546,367.233,-14.5107,-1.5627,178.198,6.02051,-145.415,1452
1569922546,367.233,-14.5107,-1.5627,178.198,6.02051,-145.415,1452
1569922546,367.233,-14.5107,-1.5627,178.198,6.02051,-145.415,1452
1569922546,367.345,-14.5107,-1.5627,178.198,6.02051,-145.415,1452
1569922546,367.345,-14.5107,-1.5627,178.198,6.02051,-145.415,1452
1569922546,367.345,-14.5107,-1.5627,178.198,6.02051,-145.415,1452
1569922546,367.345,-14.5107,-1.5627,178.198,6.02051,-145.415,1452
1569922546,367.345,-14.5107,-1.5627,178.176,6.02051,-145.415,1456
1569922546,367.345,-14.5107,-1.5627,178.176,6.02051,-145.415,1456
1569922546,367.345,-14.5107,-1.45107,178.176,6.02051,-145.415,1456
1569922546,367.345,-14.5107,-1.45107,178.176,6.02051,-145.415,1456
1569922546,367.345,-14.5107,-1.45107,178.176,6.02051,-145.415,1456
1569922546,367.345,-14.5107,-1.45107,178.176,6.02051,-145.415,1456
1569922546,367.345,-14.5107,-1.45107,178.176,6.04248,-145.415,1456
1569922546,367.345,-14.5107,-1.45107,178.176,6.04248,-145.415,1456
1569922546,367.345,-14.5107,-1.45107,178.176,6.04248,-145.393,1456
1569922546,367.345,-14.5107,-1.45107,178.198,6.04248,-145.393,1456
1569922546,367.345,-14.5107,-1.45107,178.198,6.04248,-145.393,1456
1569922546,367.345,-14.5107,-1.45107,178.198,6.04248,-145.393,1456
1569922546,367.345,-14.5107,-1.45107,178.176,6.04248,-145.393,1456
1569922546,367.345,-14.5107,-1.45107,178.176,6.02051,-145.393,1456
1569922546,367.345,-14.5107,-1.45107,178.176,6.02051,-145.393,1456
1569922546,367.345,-14.5107,-1.45107,178.176,6.02051,-145.393,1456
1569922546,367.345,-14.5107,-1.45107,178.176,6.02051,-145.393,1456
1569922547,367.345,-14.5107,-1.45107,178.176,6.02051,-145.393,1456
1569922547,367.345,-14.5107,-1.45107,178.176,6.02051,-145.393,1456
1569922547,367.345,-14.5107,-1.45107,178.176,6.02051,-145.393,1456
1569922547,367.345,-14.5107,-1.45107,178.198,6.02051,-145.393,1456
1569922547,367.345,-14.5107,-1.45107,178.198,6.02051,-145.393,1456
1569922547,367.345,-14.5107,-1.45107,178.198,6.02051,-145.393,1456
1569922547,367.345,-14.5107,-1.45107,178.198,6.02051,-145.393,1456
1569922547,367.345,-14.5107,-1.45107,178.198,6.02051,-145.393,1456
1569922547,367.345,-14.5107,-1.45107,178.198,6.02051,-145.393,1456
1569922547,367.345,-14.5107,-1.45107,178.198,6.02051,-145.393,1452
1569922547,367.345,-14.5107,-1.45107,178.198,6.02051,-145.393,1452
1569922547,367.233,-14.5107,-1.45107,178.198,6.02051,-145.393,1452
1569922547,367.233,-14.5107,-1.45107,178.198,6.04248,-145.393,1452
1569922547,367.233,-14.5107,-1.45107,178.198,6.04248,-145.393,1452
1569922547,367.233,-14.5107,-1.45107,178.198,6.04248,-145.393,1452
1569922547,367.233,-14.5107,-1.45107,178.198,6.04248,-145.393,1448
1569922547,367.233,-14.5107,-1.45107,178.198,6.04248,-145.393,1448
1569922547,367.233,-14.5107,-1.45107,178.198,6.04248,-145.393,1448
1569922547,367.233,-14.5107,-1.45107,178.198,6.02051,-145.393,1448
1569922547,367.233,-14.5107,-1.45107,178.198,6.02051,-145.393,1448
1569922547,367.233,-14.5107,-1.45107,178.176,6.02051,-145.415,1448
1569922547,367.233,-14.5107,-1.45107,178.176,6.02051,-145.415,1448
1569922547,367.233,-14.5107,-1.45107,178.176,6.02051,-145.415,1448
1569922547,367.233,-14.5107,-1.45107,178.176,6.02051,-145.415,1448
1569922547,367.233,-14.5107,-1.45107,178.176,6.02051,-145.415,1448
1569922547,367.233,-14.5107,-1.45107,178.176,6.02051,-145.415,1448
1569922547,367.233,-14.5107,-1.45107,178.176,6.02051,-145.415,1448
1569922547,367.233,-14.5107,-1.45107,178.176,6.02051,-145.415,1448
1569922547,367.233,-14.5107,-1.45107,178.176,6.02051,-145.415,1448
1569922547,367.233,-14.5107,-1.45107,178.176,6.02051,-145.415,1448
1569922547,367.233,-14.5107,-1.45107,178.176,6.02051,-145.415,1448
1569922547,367.233,-14.5107,-1.45107,178.176,6.02051,-145.415,1448
1569922547,367.233,-14.5107,-1.45107,178.176,6.02051,-145.415,1448
1569922547,367.233,-14.5107,-1.45107,178.176,6.04248,-145.415,1448
1569922547,367.233,-14.5107,-1.45107,178.198,6.04248,-145.415,1448
1569922547,367.233,-14.5107,-1.45107,178.198,6.04248,-145.415,1448
1569922547,367.233,-14.5107,-1.45107,178.198,6.04248,-145.415,1448
1569922547,367.233,-14.5107,-1.45107,178.198,6.04248,-145.415,1448
1569922547,367.233,-14.5107,-1.45107,178.198,6.04248,-145.415,1452
1569922547,367.233,-14.5107,-1.45107,178.198,6.04248,-145.415,1452
1569922547,367.233,-14.5107,-1.45107,178.198,6.04248,-145.415,1452
1569922547,367.233,-14.5107,-1.45107,178.198,6.04248,-145.415,1452
1569922547,367.233,-14.5107,-1.45107,178.198,6.04248,-145.415,1452
1569922547,367.233,-14.5107,-1.33945,178.198,6.04248,-145.415,1452
1569922547,367.233,-14.5107,-1.33945,178.198,6.04248,-145.415,1452
1569922547,367.233,-14.5107,-1.33945,178.198,6.04248,-145.415,1452
1569922547,367.233,-14.5107,-1.33945,178.198,6.04248,-145.415,1452
1569922547,367.233,-14.5107,-1.33945,178.198,6.04248,-145.415,1452
1569922547,367.233,-14.5107,-1.33945,178.198,6.04248,-145.415,1452
1569922547,367.233,-14.5107,-1.33945,178.198,6.04248,-145.415,1452
1569922547,367.233,-14.5107,-1.33945,178.198,6.04248,-145.415,1452
1569922547,367.233,-14.5107,-1.33945,178.198,6.04248,-145.393,1452
1569922547,367.233,-14.5107,-1.33945,178.198,6.04248,-145.393,1452
1569922547,367.233,-14.5107,-1.33945,178.198,6.04248,-145.393,1452
1569922547,367.233,-14.5107,-1.33945,178.198,6.04248,-145.393,1452
1569922547,367.233,-14.5107,-1.45107,178.198,6.04248,-145.393,1448
1569922547,367.233,-14.5107,-1.45107,178.198,6.04248,-145.393,1448
1569922547,367.233,-14.5107,-1.45107,178.198,6.04248,-145.393,1448
1569922547,367.233,-14.5107,-1.45107,178.198,6.04248,-145.393,1448
1569922547,367.233,-14.3991,-1.45107,178.198,6.04248,-145.393,1448
1569922547,367.233,-14.5107,-1.45107,178.198,6.04248,-145.393,1448
1569922547,367.233,-14.5107,-1.45107,178.198,6.04248,-145.393,1448
1569922547,367.233,-14.5107,-1.45107,178.198,6.04248,-145.393,1448
1569922547,367.233,-14.5107,-1.45107,178.198,6.04248,-145.415,1448
1569922547,367.233,-14.5107,-1.45107,178.198,6.04248,-145.415,1448
1569922547,367.233,-14.5107,-1.45107,178.22,6.04248,-145.415,1448
1569922547,367.233,-14.5107,-1.45107,178.22,6.04248,-145.415,1452
1569922547,367.233,-14.5107,-1.45107,178.22,6.04248,-145.415,1452
1569922547,367.233,-14.5107,-1.45107,178.198,6.04248,-145.415,1452
1569922547,367.233,-14.5107,-1.45107,178.198,6.04248,-145.415,1452
1569922547,367.233,-14.5107,-1.45107,178.198,6.04248,-145.415,1452
1569922547,367.233,-14.5107,-1.45107,178.198,6.04248,-145.393,1452
1569922547,367.233,-14.5107,-1.45107,178.198,6.04248,-145.393,1452
1569922547,367.233,-14.5107,-1.45107,178.198,6.04248,-145.393,1452
1569922547,367.233,-14.5107,-1.45107,178.198,6.04248,-145.393,1452
1569922547,367.233,-14.5107,-1.45107,178.198,6.04248,-145.393,1452
1569922547,367.233,-14.5107,-1.45107,178.198,6.04248,-145.393,1452
1569922547,367.233,-14.5107,-1.45107,178.198,6.04248,-145.393,1452
1569922547,367.233,-14.5107,-1.45107,178.198,6.04248,-145.393,1448
1569922547,367.233,-14.5107,-1.45107,178.198,6.04248,-145.393,1448
1569922547,367.233,-14.5107,-1.45107,178.198,6.04248,-145.415,1448
1569922547,367.233,-14.5107,-1.45107,178.198,6.04248,-145.415,1448
1569922547,367.233,-14.5107,-1.45107,178.198,6.04248,-145.415,1448
1569922547,367.233,-14.5107,-1.45107,178.198,6.04248,-145.415,1448
1569922547,367.233,-14.5107,-1.45107,178.198,6.04248,-145.415,1448
1569922547,367.233,-14.5107,-1.45107,178.22,6.04248,-145.415,1444
1569922547,367.233,-14.5107,-1.45107,178.22,6.04248,-145.415,1444
1569922547,367.233,-14.5107,-1.45107,178.22,6.04248,-145.415,1444
1569922547,367.233,-14.5107,-1.45107,178.22,6.04248,-145.415,1444
1569922547,367.233,-14.5107,-1.45107,178.22,6.02051,-145.415,1444
1569922547,367.233,-14.5107,-1.45107,178.22,6.04248,-145.415,1444
1569922547,367.233,-14.5107,-1.45107,178.22,6.04248,-145.415,1444
1569922547,367.233,-14.5107,-1.45107,178.22,6.04248,-145.415,1444
1569922547,367.233,-14.5107,-1.45107,178.22,6.04248,-145.415,1444
1569922547,367.233,-14.5107,-1.45107,178.22,6.04248,-145.415,1444
1569922547,367.233,-14.5107,-1.45107,178.198,6.04248,-145.415,1444
1569922547,367.233,-14.5107,-1.45107,178.198,6.04248,-145.415,1444
1569922547,367.233,-14.5107,-1.45107,178.198,6.04248,-145.415,1444
1569922547,367.233,-14.5107,-1.45107,178.198,6.04248,-145.415,1444
1569922547,367.233,-14.5107,-1.33945,178.198,6.04248,-145.415,1444
1569922548,367.233,-14.5107,-1.33945,178.198,6.04248,-145.415,1444
1569922548,367.233,-14.5107,-1.33945,178.198,6.04248,-145.415,1444
1569922548,367.233,-14.5107,-1.33945,178.198,6.04248,-145.415,1444
1569922548,367.233,-14.5107,-1.33945,178.198,6.04248,-145.415,1444
1569922548,367.233,-14.5107,-1.33945,178.198,6.04248,-145.415,1444
1569922548,367.233,-14.5107,-1.45107,178.198,6.04248,-145.415,1444
1569922548,367.233,-14.5107,-1.45107,178.198,6.04248,-145.415,1444
1569922548,367.233,-14.5107,-1.45107,178.198,6.04248,-145.415,1444
1569922548,367.233,-14.5107,-1.45107,178.198,6.04248,-145.415,1448
1569922548,367.233,-14.5107,-1.45107,178.198,6.04248,-145.415,1448
1569922548,367.233,-14.5107,-1.45107,178.198,6.04248,-145.415,1448
1569922548,367.233,-14.5107,-1.45107,178.198,6.04248,-145.415,1448
1569922548,367.233,-14.5107,-1.45107,178.198,6.04248,-145.415,1448
1569922548,367.233,-14.5107,-1.45107,178.198,6.04248,-145.415,1448
1569922548,367.233,-14.5107,-1.45107,178.198,6.04248,-145.415,1448
1569922548,367.233,-14.5107,-1.33945,178.198,6.04248,-145.415,1448
1569922548,367.233,-14.5107,-1.33945,178.198,6.04248,-145.393,1448
1569922548,367.233,-14.5107,-1.33945,178.198,6.06445,-145.393,1448
1569922551,326.938,25.1147,-2.00918,177.561,6.3501,-145.437,1000
1569922551,326.938,25.1147,-2.00918,177.561,6.3501,-145.437,1000
1569922551,326.938,25.1147,-2.00918,177.561,6.3501,-145.437,996
1569922551,326.938,25.0031,-2.00918,177.561,6.3501,-145.437,996
1569922551,326.938,25.0031,-2.00918,177.561,6.3501,-145.437,996
1569922551,326.938,25.0031,-2.00918,177.561,6.3501,-145.437,996
1569922551,326.938,25.0031,-2.00918,177.561,6.37207,-145.437,992
1569922551,326.938,25.0031,-2.00918,177.561,6.37207,-145.437,992
1569922551,326.938,25.0031,-2.00918,177.561,6.37207,-145.437,992
1569922551,326.938,25.0031,-2.00918,177.561,6.37207,-145.437,992
1569922551,326.938,25.0031,-2.00918,177.561,6.37207,-145.437,992
1569922551,326.938,25.0031,-2.00918,177.561,6.3501,-145.437,988
1569922551,326.938,25.0031,-2.00918,177.561,6.3501,-145.437,988
1569922551,326.938,25.0031,-2.00918,177.561,6.3501,-145.437,988
1569922551,326.938,25.0031,-2.00918,177.561,6.3501,-145.437,988
1569922551,326.938,25.0031,-2.00918,177.561,6.3501,-145.437,988
1569922551,326.938,25.0031,-2.00918,177.561,6.3501,-145.437,988
1569922551,326.938,25.0031,-2.00918,177.561,6.3501,-145.437,988
1569922551,326.938,25.0031,-2.00918,177.561,6.3501,-145.437,988
1569922551,326.938,25.0031,-2.00918,177.561,6.37207,-145.437,988
1569922551,326.938,25.0031,-2.00918,177.561,6.37207,-145.437,988
1569922551,326.938,25.0031,-2.00918,177.561,6.37207,-145.437,988
1569922551,326.938,25.0031,-2.00918,177.561,6.37207,-145.437,988
1569922551,326.938,25.0031,-2.00918,177.561,6.37207,-145.437,984
1569922551,326.938,25.0031,-2.00918,177.561,6.37207,-145.437,984
1569922551,326.938,25.0031,-2.00918,177.561,6.37207,-145.437,988
1569922551,326.938,25.0031,-2.00918,177.561,6.37207,-145.437,988
1569922551,326.938,25.0031,-2.00918,177.561,6.37207,-145.437,988
1569922551,326.938,25.0031,-2.00918,177.561,6.37207,-145.437,988
1569922551,326.938,25.0031,-2.00918,177.561,6.37207,-145.437,988
1569922551,326.938,25.0031,-2.00918,177.561,6.3501,-145.437,988
1569922551,326.938,25.0031,-2.00918,177.561,6.3501,-145.437,988
1569922551,326.938,25.0031,-2.00918,177.561,6.3501,-145.437,988
1569922551,326.938,25.0031,-2.00918,177.561,6.3501,-145.437,988
1569922551,326.938,25.0031,-2.00918,177.561,6.3501,-145.437,988
1569922551,326.938,25.0031,-2.00918,177.561,6.3501,-145.437,988
1569922551,326.938,25.0031,-2.00918,177.539,6.3501,-145.437,988
1569922551,326.938,25.0031,-2.00918,177.539,6.3501,-145.437,988
1569922551,326.938,25.0031,-2.00918,177.539,6.3501,-145.437,988
1569922551,326.938,25.0031,-2.00918,177.539,6.3501,-145.437,988
1569922551,326.938,25.0031,-2.00918,177.539,6.3501,-145.437,988
1569922551,326.938,25.0031,-2.00918,177.539,6.3501,-145.437,988
1569922551,326.938,25.0031,-2.00918,177.539,6.3501,-145.437,988
1569922551,326.938,25.0031,-2.00918,177.539,6.3501,-145.415,988
1569922551,326.938,25.0031,-2.00918,177.539,6.3501,-145.415,988
1569922551,326.938,25.0031,-2.00918,177.539,6.3501,-145.415,988
1569922551,326.938,25.0031,-2.00918,177.539,6.3501,-145.415,988
1569922551,326.938,25.0031,-2.00918,177.539,6.3501,-145.415,988
1569922551,326.938,25.0031,-2.00918,177.539,6.3501,-145.415,992
1569922551,326.938,25.0031,-2.00918,177.539,6.3501,-145.415,992
1569922551,326.938,25.0031,-2.00918,177.539,6.3501,-145.415,992
1569922551,326.938,25.0031,-2.00918,177.517,6.3501,-145.415,992
1569922551,326.938,25.0031,-2.00918,177.517,6.3501,-145.415,992
1569922551,326.938,25.0031,-2.00918,177.517,6.3501,-145.415,992
1569922551,326.938,25.0031,-2.00918,177.517,6.32813,-145.415,992
1569922551,326.938,25.0031,-2.00918,177.517,6.32813,-145.415,992
1569922551,326.938,25.0031,-2.00918,177.539,6.32813,-145.415,992
1569922551,326.938,25.0031,-2.00918,177.539,6.32813,-145.415,992
1569922551,326.938,25.0031,-2.00918,177.539,6.32813,-145.415,992
1569922551,326.938,25.0031,-2.00918,177.539,6.32813,-145.415,992
1569922551,326.938,25.0031,-2.00918,177.539,6.32813,-145.415,992
1569922551,326.938,25.0031,-2.00918,177.539,6.32813,-145.415,996
1569922551,326.938,25.0031,-2.00918,177.539,6.32813,-145.415,996
1569922551,326.938,25.0031,-2.00918,177.539,6.3501,-145.415,996
1569922551,326.938,25.0031,-2.00918,177.539,6.3501,-145.415,996
1569922551,326.938,25.0031,-2.00918,177.539,6.3501,-145.415,996
1569922551,326.938,25.0031,-2.00918,177.539,6.3501,-145.415,996
1569922551,326.938,25.0031,-2.00918,177.539,6.3501,-145.415,996
1569922551,326.938,25.0031,-2.00918,177.539,6.3501,-145.415,996
1569922551,326.938,25.0031,-2.00918,177.539,6.3501,-145.415,996
1569922551,326.938,25.0031,-2.00918,177.539,6.3501,-145.415,996
1569922551,326.938,25.0031,-2.00918,177.539,6.3501,-145.415,996
1569922551,326.938,25.0031,-2.00918,177.539,6.3501,-145.415,996
1569922552,326.938,25.0031,-2.00918,177.539,6.3501,-145.415,996
1569922552,326.938,25.0031,-2.00918,177.539,6.3501,-145.415,996
1569922552,326.938,25.0031,-2.00918,177.539,6.3501,-145.415,996
1569922552,326.938,25.0031,-2.00918,177.539,6.3501,-145.415,996
1569922552,326.938,25.0031,-2.00918,177.539,6.3501,-145.415,996
1569922552,326.938,25.0031,-2.00918,177.539,6.3501,-145.415,996
1569922552,326.938,25.0031,-2.00918,177.539,6.3501,-145.415,996
1569922552,326.938,25.0031,-2.00918,177.539,6.3501,-145.415,996
1569922552,326.938,25.0031,-2.00918,177.539,6.3501,-145.437,996
1569922552,326.938,25.0031,-2.00918,177.539,6.3501,-145.437,996
1569922552,326.938,25.0031,-2.00918,177.539,6.3501,-145.437,996
1569922552,326.938,25.0031,-2.00918,177.539,6.3501,-145.437,996
1569922552,326.938,25.0031,-2.00918,177.539,6.3501,-145.437,996
1569922552,326.938,25.0031,-2.00918,177.539,6.3501,-145.437,996
1569922552,326.938,25.0031,-2.00918,177.539,6.3501,-145.437,996
1569922552,326.938,25.0031,-2.00918,177.561,6.3501,-145.437,996
1569922552,326.938,25.0031,-2.00918,177.561,6.3501,-145.437,996
1569922552,326.938,25.0031,-2.00918,177.561,6.3501,-145.437,996
1569922552,326.938,25.0031,-2.00918,177.561,6.3501,-145.437,996
1569922552,326.938,25.0031,-2.00918,177.561,6.3501,-145.437,996
1569922552,326.938,25.0031,-2.00918,177.539,6.3501,-145.437,996
1569922552,326.938,25.0031,-2.00918,177.539,6.3501,-145.437,996
1569922552,326.938,25.0031,-2.00918,177.539,6.3501,-145.437,1000
1569922552,326.938,25.0031,-2.00918,177.539,6.3501,-145.437,1000
1569922552,326.938,25.0031,-2.00918,177.539,6.3501,-145.437,1000
1569922552,326.938,25.0031,-2.00918,177.539,6.3501,-145.437,1000
1569922552,326.938,25.0031,-2.00918,177.539,6.3501,-145.437,1000
1569922552,326.938,25.0031,-2.00918,177.539,6.3501,-145.437,1000
1569922552,326.938,25.0031,-2.00918,177.539,6.3501,-145.437,1000
1569922552,326.938,25.0031,-2.00918,177.539,6.3501,-145.437,1000
1569922552,326.938,25.0031,-2.00918,177.539,6.3501,-145.437,1000
1569922552,326.938,25.0031,-2.00918,177.539,6.3501,-145.437,1000
1569922552,326.938,25.0031,-2.00918,177.539,6.3501,-145.437,1000
1569922552,326.938,25.0031,-2.00918,177.539,6.3501,-145.437,1000
1569922552,326.938,25.0031,-2.00918,177.539,6.3501,-145.437,1000
1569922552,326.938,25.0031,-2.00918,177.539,6.3501,-145.437,1000
1569922552,326.938,25.0031,-2.00918,177.539,6.3501,-145.437,1000
1569922552,326.938,25.0031,-2.00918,177.539,6.3501,-145.437,1000
1569922552,326.938,25.0031,-2.00918,177.539,6.3501,-145.437,1000
1569922552,326.938,25.0031,-2.00918,177.539,6.3501,-145.437,1000
1569922552,326.938,25.0031,-2.00918,177.539,6.3501,-145.437,1000
1569922552,326.938,25.0031,-2.00918,177.539,6.3501,-145.437,1000
1569922552,326.938,25.0031,-2.00918,177.539,6.3501,-145.437,1000
1569922552,326.938,25.0031,-2.00918,177.539,6.3501,-145.437,1000
1569922552,326.938,25.0031,-2.00918,177.539,6.3501,-145.437,1000
1569922552,326.938,25.0031,-2.00918,177.539,6.3501,-145.437,1000
1569922552,326.938,25.0031,-2.00918,177.539,6.3501,-145.437,1000
1569922552,326.938,25.0031,-2.00918,177.539,6.3501,-145.437,1000
1569922552,326.938,25.0031,-2.00918,177.539,6.3501,-145.437,1000
1569922552,326.938,25.0031,-2.00918,177.539,6.3501,-145.437,1000
1569922552,326.938,25.0031,-2.00918,177.539,6.3501,-145.437,1000
1569922552,326.938,25.0031,-2.00918,177.539,6.3501,-145.437,1000
1569922552,326.938,25.0031,-2.00918,177.539,6.3501,-145.437,1000
1569922552,326.938,25.0031,-2.00918,177.539,6.3501,-145.437,1000
1569922552,326.938,25.0031,-2.00918,177.539,6.3501,-145.437,1000
1569922552,327.05,25.0031,-2.00918,177.539,6.3501,-145.437,1000
1569922552,327.05,25.0031,-2.00918,177.539,6.3501,-145.437,1000
1569922552,327.05,25.0031,-2.00918,177.539,6.3501,-145.437,1000
1569922552,327.05,25.0031,-2.00918,177.539,6.3501,-145.437,1000
1569922552,327.05,25.0031,-2.00918,177.539,6.3501,-145.437,1000
1569922552,327.05,25.0031,-2.00918,177.539,6.3501,-145.437,1000
1569922552,327.05,25.0031,-2.00918,177.539,6.3501,-145.437,1000
1569922552,327.05,25.0031,-2.00918,177.539,6.3501,-145.437,1000
1569922552,327.05,25.0031,-2.00918,177.539,6.3501,-145.437,1000
1569922552,327.05,25.0031,-2.00918,177.539,6.3501,-145.437,1000
1569922552,327.05,25.0031,-2.00918,177.539,6.3501,-145.437,1000
1569922552,327.05,25.0031,-2.00918,177.539,6.3501,-145.437,1000
1569922552,326.938,25.0031,-2.00918,177.539,6.3501,-145.437,1000
1569922552,326.938,25.0031,-2.00918,177.539,6.3501,-145.437,996
1569922552,326.938,25.0031,-2.00918,177.539,6.3501,-145.437,996
1569922552,326.938,25.0031,-2.00918,177.539,6.3501,-145.437,996
1569922552,326.938,25.0031,-2.00918,177.539,6.3501,-145.437,996
1569922552,326.938,25.0031,-2.00918,177.539,6.3501,-145.437,996
1569922552,326.938,25.0031,-2.00918,177.539,6.3501,-145.437,992
1569922552,326.938,25.0031,-2.00918,177.539,6.3501,-145.437,992
1569922552,326.938,25.0031,-2.00918,177.539,6.3501,-145.437,992
1569922552,326.938,25.0031,-2.00918,177.539,6.3501,-145.437,992
1569922552,326.938,25.0031,-2.00918,177.539,6.3501,-145.437,992
1569922552,326.938,25.0031,-2.00918,177.539,6.3501,-145.437,992
1569922552,326.938,25.0031,-2.00918,177.539,6.3501,-145.437,992
1569922552,326.938,25.0031,-2.00918,177.539,6.3501,-145.437,992
1569922552,326.938,25.0031,-2.00918,177.539,6.3501,-145.437,992
1569922552,326.938,25.0031,-2.00918,177.539,6.3501,-145.437,992
1569922552,326.938,25.0031,-2.00918,177.539,6.3501,-145.437,992
1569922552,326.938,25.0031,-2.00918,177.539,6.3501,-145.437,992
1569922552,326.938,25.0031,-2.00918,177.539,6.3501,-145.437,988
1569922552,326.938,25.0031,-2.00918,177.561,6.3501,-145.437,988
1569922552,326.938,25.0031,-2.00918,177.561,6.3501,-145.437,988
1569922552,326.938,25.0031,-2.00918,177.561,6.3501,-145.437,988
1569922552,326.938,25.0031,-2.00918,177.561,6.3501,-145.437,988
1569922552,326.938,25.0031,-2.00918,177.561,6.3501,-145.437,988
1569922552,326.938,25.0031,-2.00918,177.561,6.3501,-145.437,988
1569922552,326.938,25.1147,-2.00918,177.561,6.3501,-145.437,992
1569922552,326.938,25.1147,-2.00918,177.561,6.3501,-145.437,992
1569922552,326.938,25.1147,-2.00918,177.561,6.3501,-145.437,992
1569922552,326.938,25.1147,-2.00918,177.561,6.3501,-145.437,992
1569922552,326.938,25.1147,-2.00918,177.561,6.3501,-145.437,992
1569922552,326.938,25.1147,-2.00918,177.561,6.32813,-145.437,992
1569922552,326.938,25.1147,-2.1208,177.561,6.32813,-145.437,992
1569922552,326.938,25.1147,-2.1208,177.561,6.32813,-145.437,996
1569922553,326.938,25.1147,-2.1208,177.561,6.32813,-145.437,996
1569922553,326.938,25.1147,-2.1208,177.561,6.32813,-145.437,996
1569922553,326.938,25.1147,-2.1208,177.561,6.32813,-145.437,996
1569922553,326.938,25.1147,-2.1208,177.561,6.32813,-145.437,996
1569922553,326.938,25.1147,-2.1208,177.561,6.32813,-145.437,996
1569922553,326.938,25.1147,-2.1208,177.561,6.32813,-145.437,996
1569922553,326.938,25.1147,-2.1208,177.561,6.32813,-145.437,996
1569922553,326.938,25.1147,-2.1208,177.561,6.32813,-145.437,996
1569922553,326.938,25.0031,-2.1208,177.561,6.32813,-145.437,996
1569922553,326.938,25.0031,-2.1208,177.561,6.32813,-145.437,996
1569922553,326.938,25.0031,-2.1208,177.561,6.32813,-145.437,996
1569922553,326.938,25.0031,-2.1208,177.561,6.32813,-145.437,996
1569922553,326.938,25.0031,-2.1208,177.561,6.32813,-145.437,996
1569922553,326.938,25.0031,-2.1208,177.561,6.32813,-145.437,996
1569922553,326.938,25.0031,-2.1208,177.561,6.32813,-145.437,996
1569922553,326.938,25.0031,-2.1208,177.561,6.32813,-145.437,996
1569922553,326.938,25.0031,-2.00918,177.561,6.32813,-145.437,996
1569922553,326.938,25.0031,-2.00918,177.561,6.32813,-145.437,996
1569922553,326.938,25.0031,-2.00918,177.561,6.32813,-145.437,996
1569922553,326.938,25.0031,-2.00918,177.561,6.32813,-145.437,996
1569922553,326.938,25.0031,-2.00918,177.561,6.32813,-145.437,996
1569922553,326.938,25.0031,-2.00918,177.561,6.32813,-145.437,996
1569922553,326.938,25.0031,-2.00918,177.561,6.32813,-145.437,996
1569922553,326.938,25.0031,-2.00918,177.561,6.32813,-145.437,996
1569922553,326.938,25.0031,-2.00918,177.561,6.32813,-145.437,996
1569922553,326.938,25.0031,-2.1208,177.561,6.32813,-145.437,996
1569922553,326.938,25.0031,-2.1208,177.561,6.32813,-145.437,996
1569922553,326.938,25.1147,-2.1208,177.561,6.32813,-145.437,996
1569922553,326.938,25.1147,-2.1208,177.561,6.32813,-145.437,996
1569922553,326.938,25.1147,-2.1208,177.561,6.32813,-145.437,996
1569922553,326.938,25.1147,-2.1208,177.561,6.32813,-145.437,996
1569922553,326.938,25.1147,-2.1208,177.561,6.32813,-145.437,996
1569922553,326.938,25.1147,-2.1208,177.561,6.32813,-145.437,996
1569922553,326.938,25.0031,-2.1208,177.561,6.32813,-145.437,996
1569922553,326.938,25.0031,-2.1208,177.561,6.32813,-145.437,996
1569922553,326.938,25.0031,-2.1208,177.561,6.32813,-145.437,996
1569922553,326.938,25.0031,-2.1208,177.561,6.32813,-145.437,996
1569922553,326.938,25.0031,-2.1208,177.561,6.32813,-145.437,996
1569922553,326.938,25.0031,-2.1208,177.561,6.32813,-145.437,996
1569922553,326.938,25.0031,-2.1208,177.561,6.32813,-145.437,996
1569922553,326.938,25.0031,-2.1208,177.539,6.32813,-145.437,996
1569922553,326.938,25.0031,-2.1208,177.539,6.32813,-145.437,996
1569922553,326.938,25.0031,-2.1208,177.539,6.32813,-145.437,996
1569922553,326.938,25.0031,-2.1208,177.539,6.32813,-145.437,996
1569922553,326.938,25.0031,-2.1208,177.539,6.32813,-145.437,996
1569922553,326.938,25.0031,-2.1208,177.539,6.32813,-145.437,996
1569922553,326.938,25.0031,-2.1208,177.539,6.32813,-145.459,996
1569922553,326.938,25.0031,-2.1208,177.561,6.32813,-145.459,996
1569922553,326.938,25.0031,-2.1208,177.561,6.32813,-145.459,996
1569922553,326.938,25.0031,-2.1208,177.561,6.32813,-145.459,996
1569922553,326.938,25.0031,-2.1208,177.561,6.32813,-145.459,996
1569922553,326.938,25.1147,-2.1208,177.561,6.32813,-145.459,996
1569922553,326.938,25.1147,-2.1208,177.561,6.32813,-145.459,996
1569922553,326.938,25.1147,-2.1208,177.561,6.32813,-145.459,996
1569922553,326.938,25.1147,-2.1208,177.561,6.32813,-145.459,996
1569922553,326.938,25.1147,-2.1208,177.561,6.32813,-145.459,996
1569922553,326.938,25.1147,-2.1208,177.561,6.32813,-145.459,996
1569922553,326.938,25.0031,-2.1208,177.561,6.32813,-145.459,996
1569922553,326.938,25.0031,-2.1208,177.561,6.32813,-145.459,996
1569922553,326.938,25.0031,-2.1208,177.561,6.32813,-145.437,996
1569922553,326.938,25.0031,-2.1208,177.561,6.32813,-145.437,992
1569922553,326.938,25.0031,-2.1208,177.561,6.32813,-145.437,992
1569922553,326.938,25.0031,-2.1208,177.561,6.32813,-145.437,992
1569922553,326.938,25.0031,-2.1208,177.539,6.32813,-145.437,992
1569922553,326.938,25.0031,-2.1208,177.539,6.32813,-145.437,992
1569922553,326.938,25.0031,-2.1208,177.539,6.32813,-145.437,992
1569922553,326.938,25.0031,-2.1208,177.539,6.32813,-145.437,992
1569922553,326.938,25.0031,-2.00918,177.561,6.32813,-145.437,992
1569922553,326.938,25.0031,-2.00918,177.561,6.32813,-145.437,992
1569922553,326.938,25.0031,-2.00918,177.561,6.32813,-145.437,992
1569922553,326.938,25.0031,-2.00918,177.561,6.32813,-145.437,992
1569922553,326.938,25.0031,-2.00918,177.561,6.3501,-145.437,992
1569922553,326.938,25.0031,-2.00918,177.561,6.3501,-145.437,992
1569922553,326.938,25.0031,-2.00918,177.561,6.3501,-145.437,992
1569922553,326.938,25.0031,-2.00918,177.561,6.3501,-145.437,992
1569922553,326.938,25.0031,-2.00918,177.561,6.3501,-145.437,996
1569922553,326.938,25.0031,-2.00918,177.561,6.3501,-145.437,996
1569922553,326.938,25.0031,-2.00918,177.561,6.3501,-145.437,996
1569922553,326.938,25.0031,-2.00918,177.561,6.3501,-145.437,996
1569922553,326.938,25.0031,-2.00918,177.561,6.3501,-145.437,996
1569922553,326.938,25.0031,-2.00918,177.561,6.3501,-145.437,996
1569922553,326.938,25.0031,-2.00918,177.561,6.3501,-145.437,996
1569922553,326.938,25.1147,-2.00918,177.561,6.3501,-145.437,996
1569922553,326.938,25.1147,-2.00918,177.561,6.3501,-145.437,996
1569922553,326.938,25.1147,-2.00918,177.561,6.3501,-145.437,996
1569922553,326.938,25.1147,-2.00918,177.561,6.3501,-145.437,996
1569922553,326.938,25.1147,-2.00918,177.561,6.3501,-145.437,992
1569922553,326.938,25.1147,-2.00918,177.561,6.3501,-145.437,992
1569922553,326.938,25.1147,-2.00918,177.561,6.3501,-145.437,992
1569922553,326.938,25.1147,-2.00918,177.561,6.3501,-145.437,992
1569922553,326.938,25.1147,-2.00918,177.561,6.3501,-145.437,992
1569922553,326.938,25.1147,-2.00918,177.561,6.3501,-145.437,992
1569922553,326.938,25.1147,-2.00918,177.561,6.3501,-145.437,992
1569922553,326.938,25.1147,-2.00918,177.561,6.3501,-145.437,988
1569922553,326.938,25.1147,-2.00918,177.561,6.3501,-145.437,988
1569922553,326.938,25.1147,-2.00918,177.561,6.3501,-145.437,988
1569922553,326.938,25.1147,-2.00918,177.561,6.3501,-145.437,988
1569922553,326.938,25.1147,-2.00918,177.561,6.3501,-145.437,988
1569922553,326.938,25.1147,-2.00918,177.561,6.3501,-145.437,988
1569922553,326.938,25.1147,-2.00918,177.561,6.3501,-145.437,988
1569922554,326.938,25.1147,-2.00918,177.561,6.3501,-145.437,988
1569922554,326.938,25.1147,-2.00918,177.561,6.3501,-145.437,988
1569922554,326.938,25.1147,-2.00918,177.561,6.3501,-145.437,984
1569922554,326.938,25.1147,-2.00918,177.561,6.3501,-145.437,984
1569922554,326.938,25.1147,-2.00918,177.561,6.3501,-145.437,984
1569922554,326.938,25.1147,-2.00918,177.561,6.3501,-145.437,984
1569922554,326.938,25.1147,-2.00918,177.561,6.3501,-145.437,984
1569922554,326.938,25.1147,-2.00918,177.561,6.3501,-145.437,988
1569922554,326.938,25.1147,-2.00918,177.561,6.3501,-145.437,988
1569922554,326.938,25.1147,-2.00918,177.561,6.3501,-145.437,988
1569922554,326.938,25.1147,-2.00918,177.561,6.3501,-145.437,988
1569922554,326.938,25.1147,-2.00918,177.561,6.3501,-145.437,988
1569922554,326.938,25.1147,-2.00918,177.561,6.3501,-145.437,988
1569922554,326.938,25.1147,-2.00918,177.561,6.3501,-145.437,988
1569922554,326.938,25.1147,-2.00918,177.561,6.3501,-145.437,988
1569922554,326.938,25.1147,-2.00918,177.561,6.3501,-145.437,988
1569922554,326.938,25.1147,-2.00918,177.561,6.3501,-145.437,988
1569922554,326.938,25.1147,-2.00918,177.561,6.3501,-145.437,988
1569922554,326.938,25.1147,-2.00918,177.561,6.3501,-145.437,988
