time,x,y,z,ax,ay,az,q
1569932941,245.566,30.5842,-16.5199,178.857,1.42822,-145.173,336
1569932941,245.566,30.5842,-16.5199,178.857,1.42822,-145.173,336
1569932941,245.566,30.5842,-16.5199,178.857,1.42822,-145.173,336
1569932941,245.566,30.5842,-16.5199,178.857,1.42822,-145.173,336
1569932941,245.566,30.5842,-16.5199,178.857,1.42822,-145.173,336
1569932941,245.566,30.5842,-16.5199,178.857,1.42822,-145.173,336
1569932941,245.566,30.5842,-16.5199,178.857,1.42822,-145.173,336
1569932941,245.566,30.5842,-16.5199,178.857,1.42822,-145.173,336
1569932941,245.566,30.5842,-16.5199,178.857,1.42822,-145.173,336
1569932941,245.566,30.5842,-16.5199,178.857,1.42822,-145.173,336
1569932941,245.566,30.5842,-16.5199,178.857,1.42822,-145.173,336
1569932941,245.566,30.5842,-16.5199,178.857,1.42822,-145.173,336
1569932941,245.566,30.5842,-16.5199,178.857,1.42822,-145.173,336
1569932941,245.566,30.5842,-16.5199,178.857,1.42822,-145.173,336
1569932941,245.566,30.5842,-16.5199,178.857,1.42822,-145.173,336
1569932941,245.566,30.5842,-16.5199,178.857,1.42822,-145.173,336
1569932941,245.566,30.5842,-16.5199,178.857,1.42822,-145.173,336
1569932941,245.566,30.5842,-16.5199,178.857,1.42822,-145.173,336
1569932941,245.566,30.5842,-16.5199,178.857,1.42822,-145.173,336
1569932941,245.566,30.5842,-16.5199,178.857,1.42822,-145.173,336
1569932941,245.566,30.5842,-16.5199,178.857,1.42822,-145.173,336
1569932941,245.566,30.5842,-16.5199,178.857,1.42822,-145.173,336
1569932941,245.566,30.5842,-16.5199,178.857,1.42822,-145.173,336
1569932941,245.566,30.5842,-16.5199,178.857,1.42822,-145.173,336
1569932941,245.566,30.5842,-16.5199,178.857,1.42822,-145.173,336
1569932941,245.566,30.5842,-16.5199,178.857,1.42822,-145.173,336
1569932941,245.566,30.5842,-16.5199,178.857,1.42822,-145.173,336
1569932941,245.566,30.5842,-16.5199,178.857,1.42822,-145.173,336
1569932941,245.566,30.5842,-16.5199,178.857,1.42822,-145.173,336
1569932941,245.566,30.5842,-16.5199,178.857,1.42822,-145.173,336
1569932941,245.566,30.5842,-16.5199,178.857,1.42822,-145.173,336
1569932941,245.566,30.5842,-16.5199,178.857,1.4502,-145.173,336
1569932941,245.566,30.5842,-16.5199,178.857,1.4502,-145.173,336
1569932941,245.566,30.5842,-16.5199,178.857,1.4502,-145.173,336
1569932941,245.566,30.5842,-16.5199,178.857,1.4502,-145.173,332
1569932941,245.566,30.5842,-16.5199,178.857,1.4502,-145.195,332
1569932941,245.566,30.5842,-16.5199,178.857,1.4502,-145.195,332
1569932941,245.566,30.5842,-16.5199,178.857,1.4502,-145.195,332
1569932941,245.566,30.5842,-16.5199,178.857,1.4502,-145.195,332
1569932941,245.566,30.5842,-16.5199,178.857,1.4502,-145.195,332
1569932941,245.566,30.5842,-16.5199,178.857,1.4502,-145.195,332
1569932941,245.566,30.5842,-16.5199,178.857,1.4502,-145.195,332
1569932941,245.566,30.5842,-16.5199,178.857,1.4502,-145.195,332
1569932941,245.566,30.5842,-16.5199,178.857,1.4502,-145.195,332
1569932941,245.566,30.5842,-16.5199,178.857,1.4502,-145.195,332
1569932941,245.566,30.5842,-16.5199,178.857,1.4502,-145.195,336
1569932941,245.566,30.5842,-16.5199,178.857,1.42822,-145.195,336
1569932941,245.566,30.5842,-16.5199,178.857,1.42822,-145.195,336
1569932941,245.455,30.5842,-16.5199,178.857,1.42822,-145.195,336
1569932941,245.455,30.5842,-16.5199,178.857,1.42822,-145.195,336
1569932941,245.455,30.5842,-16.5199,178.857,1.42822,-145.195,336
1569932941,245.455,30.5842,-16.5199,178.857,1.42822,-145.195,336
1569932941,245.455,30.5842,-16.5199,178.857,1.42822,-145.195,336
1569932941,245.455,30.5842,-16.5199,178.857,1.42822,-145.195,336
1569932941,245.455,30.5842,-16.5199,178.857,1.42822,-145.195,336
1569932941,245.455,30.5842,-16.5199,178.857,1.42822,-145.195,336
1569932941,245.455,30.5842,-16.5199,178.857,1.42822,-145.195,336
1569932941,245.455,30.5842,-16.5199,178.857,1.42822,-145.195,336
1569932941,245.455,30.5842,-16.5199,178.857,1.42822,-145.195,336
1569932941,245.455,30.5842,-16.5199,178.857,1.42822,-145.195,336
1569932941,245.566,30.5842,-16.5199,178.857,1.42822,-145.195,336
1569932941,245.566,30.5842,-16.5199,178.857,1.42822,-145.195,336
1569932941,245.566,30.5842,-16.5199,178.857,1.42822,-145.195,336
1569932941,245.566,30.5842,-16.5199,178.857,1.42822,-145.195,336
1569932941,245.566,30.5842,-16.5199,178.857,1.42822,-145.195,336
1569932941,245.566,30.5842,-16.5199,178.857,1.42822,-145.195,336
1569932941,245.566,30.5842,-16.5199,178.857,1.42822,-145.195,336
1569932942,245.566,30.5842,-16.5199,178.857,1.42822,-145.195,336
1569932942,245.566,30.5842,-16.5199,178.857,1.42822,-145.195,336
1569932942,245.566,30.5842,-16.5199,178.857,1.42822,-145.195,336
1569932942,245.566,30.5842,-16.5199,178.857,1.42822,-145.195,336
1569932942,245.566,30.5842,-16.5199,178.857,1.4502,-145.195,336
1569932942,245.566,30.5842,-16.5199,178.857,1.4502,-145.195,336
1569932942,245.566,30.5842,-16.5199,178.857,1.4502,-145.195,336
1569932942,245.566,30.5842,-16.5199,178.857,1.4502,-145.195,336
1569932942,245.566,30.5842,-16.5199,178.857,1.4502,-145.195,332
1569932942,245.566,30.5842,-16.5199,178.857,1.4502,-145.195,332
1569932942,245.566,30.5842,-16.5199,178.857,1.4502,-145.195,332
1569932942,245.566,30.5842,-16.5199,178.857,1.4502,-145.195,336
1569932942,245.566,30.5842,-16.5199,178.857,1.4502,-145.195,336
1569932942,245.566,30.5842,-16.5199,178.857,1.4502,-145.195,336
1569932942,245.566,30.5842,-16.5199,178.857,1.4502,-145.195,336
1569932942,245.455,30.5842,-16.5199,178.857,1.42822,-145.195,336
1569932942,245.455,30.5842,-16.5199,178.857,1.42822,-145.195,336
1569932942,245.455,30.5842,-16.5199,178.857,1.42822,-145.195,336
1569932942,245.455,30.5842,-16.5199,178.857,1.42822,-145.195,336
1569932942,245.455,30.5842,-16.5199,178.857,1.42822,-145.195,336
1569932942,245.455,30.5842,-16.5199,178.857,1.42822,-145.195,336
1569932942,245.455,30.5842,-16.5199,178.857,1.42822,-145.195,336
1569932942,245.455,30.5842,-16.5199,178.857,1.42822,-145.195,336
1569932942,245.455,30.5842,-16.5199,178.857,1.42822,-145.195,336
1569932942,245.455,30.5842,-16.5199,178.857,1.42822,-145.195,336
1569932942,245.455,30.5842,-16.5199,178.857,1.4502,-145.195,336
1569932942,245.455,30.5842,-16.5199,178.857,1.4502,-145.195,336
1569932942,245.455,30.5842,-16.5199,178.857,1.4502,-145.195,336
1569932942,245.566,30.5842,-16.5199,178.879,1.4502,-145.195,336
1569932942,245.566,30.5842,-16.5199,178.879,1.4502,-145.195,336
1569932942,245.566,30.5842,-16.5199,178.879,1.4502,-145.195,336
1569932942,245.566,30.5842,-16.5199,178.879,1.42822,-145.195,336
1569932942,245.566,30.5842,-16.5199,178.879,1.42822,-145.195,336
1569932942,245.566,30.5842,-16.5199,178.879,1.42822,-145.195,336
1569932942,245.566,30.5842,-16.5199,178.879,1.42822,-145.195,336
1569932942,245.566,30.5842,-16.5199,178.879,1.42822,-145.195,336
1569932942,245.566,30.5842,-16.5199,178.879,1.42822,-145.195,336
1569932942,245.566,30.5842,-16.5199,178.879,1.42822,-145.195,336
1569932942,245.566,30.5842,-16.5199,178.879,1.42822,-145.195,336
1569932942,245.566,30.5842,-16.5199,178.879,1.42822,-145.195,336
1569932942,245.566,30.5842,-16.5199,178.879,1.42822,-145.195,336
1569932942,245.566,30.5842,-16.5199,178.879,1.42822,-145.195,336
1569932942,245.566,30.5842,-16.5199,178.879,1.42822,-145.195,336
1569932942,245.455,30.5842,-16.5199,178.857,1.42822,-145.195,336
1569932942,245.455,30.5842,-16.5199,178.857,1.42822,-145.195,336
1569932942,245.455,30.5842,-16.5199,178.857,1.4502,-145.195,336
1569932942,245.455,30.5842,-16.5199,178.857,1.4502,-145.195,336
1569932942,245.455,30.5842,-16.5199,178.857,1.4502,-145.195,336
1569932942,245.455,30.5842,-16.5199,178.857,1.4502,-145.195,336
1569932942,245.455,30.5842,-16.5199,178.857,1.42822,-145.195,340
1569932942,245.455,30.5842,-16.5199,178.857,1.42822,-145.195,340
1569932942,245.455,30.5842,-16.5199,178.857,1.42822,-145.195,340
1569932942,245.455,30.5842,-16.5199,178.857,1.42822,-145.195,340
1569932942,245.455,30.5842,-16.5199,178.857,1.42822,-145.195,340
1569932942,245.455,30.5842,-16.5199,178.857,1.42822,-145.195,340
1569932942,245.455,30.5842,-16.5199,178.857,1.42822,-145.195,340
1569932942,245.455,30.5842,-16.5199,178.857,1.42822,-145.195,340
1569932942,245.455,30.5842,-16.5199,178.857,1.42822,-145.195,340
1569932942,245.455,30.5842,-16.5199,178.857,1.42822,-145.195,340
1569932942,245.455,30.5842,-16.5199,178.857,1.42822,-145.195,340
1569932942,245.455,30.5842,-16.5199,178.857,1.42822,-145.195,340
1569932942,245.455,30.5842,-16.5199,178.857,1.42822,-145.195,340
1569932942,245.455,30.5842,-16.5199,178.857,1.42822,-145.195,340
1569932942,245.455,30.5842,-16.5199,178.857,1.42822,-145.195,340
1569932942,245.455,30.5842,-16.5199,178.857,1.42822,-145.195,340
1569932942,245.455,30.5842,-16.5199,178.857,1.42822,-145.195,340
1569932942,245.455,30.5842,-16.5199,178.857,1.42822,-145.195,340
1569932942,245.455,30.5842,-16.5199,178.857,1.42822,-145.195,340
1569932942,245.455,30.5842,-16.5199,178.857,1.42822,-145.195,340
1569932942,245.455,30.5842,-16.5199,178.857,1.42822,-145.195,340
1569932942,245.455,30.5842,-16.5199,178.857,1.42822,-145.195,340
1569932942,245.455,30.5842,-16.5199,178.857,1.42822,-145.195,340
1569932942,245.455,30.5842,-16.5199,178.857,1.42822,-145.195,340
1569932942,245.455,30.5842,-16.5199,178.857,1.42822,-145.195,336
1569932942,245.455,30.5842,-16.5199,178.857,1.42822,-145.195,336
1569932942,245.455,30.5842,-16.5199,178.857,1.4502,-145.195,336
1569932942,245.455,30.5842,-16.5199,178.857,1.4502,-145.195,336
1569932942,245.455,30.5842,-16.5199,178.857,1.4502,-145.195,336
1569932942,245.455,30.5842,-16.5199,178.857,1.4502,-145.195,336
1569932942,245.455,30.5842,-16.5199,178.857,1.4502,-145.195,336
1569932942,245.566,30.5842,-16.5199,178.857,1.4502,-145.195,336
1569932942,245.566,30.5842,-16.5199,178.857,1.4502,-145.195,336
1569932942,245.566,30.5842,-16.5199,178.857,1.4502,-145.195,336
1569932942,245.566,30.5842,-16.5199,178.857,1.4502,-145.195,336
1569932942,245.566,30.5842,-16.5199,178.857,1.4502,-145.195,336
1569932942,245.566,30.5842,-16.5199,178.857,1.4502,-145.195,336
1569932942,245.566,30.5842,-16.5199,178.857,1.4502,-145.195,336
1569932942,245.566,30.5842,-16.5199,178.857,1.4502,-145.195,336
1569932942,245.566,30.5842,-16.5199,178.857,1.4502,-145.195,336
1569932942,245.566,30.5842,-16.4083,178.857,1.4502,-145.195,336
1569932942,245.566,30.5842,-16.4083,178.857,1.4502,-145.195,336
1569932942,245.566,30.5842,-16.5199,178.857,1.4502,-145.195,336
1569932942,245.566,30.5842,-16.5199,178.857,1.4502,-145.195,336
1569932942,245.566,30.5842,-16.5199,178.857,1.4502,-145.195,336
1569932942,245.566,30.5842,-16.5199,178.857,1.4502,-145.195,336
1569932942,245.566,30.5842,-16.5199,178.857,1.4502,-145.195,336
1569932942,245.566,30.5842,-16.5199,178.857,1.4502,-145.195,340
1569932942,245.566,30.5842,-16.5199,178.857,1.4502,-145.195,340
1569932942,245.566,30.5842,-16.5199,178.857,1.4502,-145.195,340
1569932942,245.566,30.5842,-16.5199,178.857,1.4502,-145.195,340
1569932943,245.566,30.5842,-16.5199,178.857,1.4502,-145.195,340
1569932943,245.566,30.5842,-16.5199,178.857,1.4502,-145.195,340
1569932943,245.566,30.5842,-16.5199,178.857,1.4502,-145.195,340
1569932943,245.566,30.5842,-16.5199,178.857,1.4502,-145.195,340
1569932943,245.566,30.5842,-16.5199,178.857,1.4502,-145.195,340
1569932943,245.566,30.5842,-16.5199,178.857,1.4502,-145.195,340
1569932943,245.566,30.5842,-16.5199,178.857,1.4502,-145.195,336
1569932943,245.566,30.5842,-16.5199,178.857,1.4502,-145.195,336
1569932943,245.566,30.5842,-16.5199,178.857,1.4502,-145.195,336
1569932943,245.566,30.5842,-16.4083,178.857,1.4502,-145.195,336
1569932943,245.566,30.5842,-16.4083,178.857,1.4502,-145.195,336
1569932943,245.566,30.5842,-16.4083,178.857,1.4502,-145.195,336
1569932943,245.566,30.5842,-16.4083,178.857,1.4502,-145.195,336
1569932943,245.566,30.5842,-16.4083,178.857,1.4502,-145.195,336
1569932943,245.566,30.5842,-16.4083,178.857,1.4502,-145.195,336
1569932943,245.566,30.5842,-16.4083,178.857,1.4502,-145.195,336
1569932943,245.566,30.5842,-16.4083,178.857,1.4502,-145.195,336
1569932943,245.566,30.5842,-16.4083,178.857,1.4502,-145.195,336
1569932943,245.566,30.5842,-16.4083,178.857,1.4502,-145.195,336
1569932943,245.566,30.5842,-16.4083,178.857,1.4502,-145.195,336
1569932943,245.566,30.5842,-16.4083,178.857,1.4502,-145.195,336
1569932943,245.566,30.5842,-16.4083,178.857,1.4502,-145.195,336
1569932943,245.566,30.5842,-16.4083,178.857,1.4502,-145.195,336
1569932943,245.566,30.5842,-16.4083,178.857,1.4502,-145.195,336
1569932943,245.566,30.5842,-16.4083,178.857,1.4502,-145.195,336
1569932943,245.566,30.5842,-16.4083,178.857,1.4502,-145.195,336
1569932943,245.566,30.5842,-16.4083,178.857,1.4502,-145.195,336
1569932943,245.566,30.5842,-16.4083,178.857,1.4502,-145.195,336
1569932943,245.566,30.5842,-16.4083,178.857,1.4502,-145.195,336
1569932943,245.566,30.5842,-16.4083,178.857,1.4502,-145.195,336
1569932943,245.566,30.5842,-16.4083,178.857,1.4502,-145.195,340
1569932943,245.566,30.5842,-16.4083,178.857,1.4502,-145.195,340
1569932943,245.566,30.5842,-16.4083,178.857,1.4502,-145.195,340
1569932943,245.566,30.5842,-16.4083,178.857,1.4502,-145.195,340
1569932943,245.566,30.5842,-16.4083,178.857,1.4502,-145.195,340
1569932943,245.566,30.5842,-16.4083,178.857,1.4502,-145.195,340
1569932943,245.566,30.5842,-16.4083,178.857,1.4502,-145.195,340
1569932943,245.566,30.5842,-16.4083,178.857,1.4502,-145.195,340
1569932943,245.566,30.5842,-16.4083,178.857,1.4502,-145.195,340
1569932943,245.455,30.5842,-16.4083,178.857,1.4502,-145.195,340
1569932943,245.455,30.5842,-16.4083,178.857,1.4502,-145.195,340
1569932943,245.455,30.5842,-16.4083,178.857,1.4502,-145.195,340
1569932943,245.455,30.5842,-16.4083,178.857,1.4502,-145.195,340
1569932943,245.455,30.5842,-16.4083,178.857,1.4502,-145.173,340
1569932943,245.455,30.5842,-16.4083,178.857,1.4502,-145.195,340
1569932943,245.455,30.5842,-16.4083,178.857,1.4502,-145.195,340
1569932943,245.455,30.5842,-16.4083,178.879,1.4502,-145.195,340
1569932943,245.455,30.5842,-16.4083,178.857,1.4502,-145.195,340
1569932943,245.455,30.5842,-16.4083,178.857,1.4502,-145.195,340
1569932943,245.455,30.5842,-16.4083,178.857,1.4502,-145.195,340
1569932943,245.455,30.5842,-16.4083,178.857,1.4502,-145.195,344
1569932943,245.455,30.5842,-16.4083,178.857,1.4502,-145.195,344
1569932943,245.455,30.5842,-16.4083,178.857,1.4502,-145.195,344
1569932943,245.455,30.5842,-16.4083,178.857,1.4502,-145.195,344
1569932943,245.455,30.5842,-16.4083,178.857,1.4502,-145.195,344
1569932943,245.455,30.5842,-16.4083,178.857,1.4502,-145.195,344
1569932943,245.455,30.5842,-16.4083,178.857,1.4502,-145.195,344
1569932943,245.455,30.5842,-16.4083,178.857,1.4502,-145.195,344
1569932943,245.455,30.5842,-16.4083,178.857,1.4502,-145.195,344
1569932943,245.455,30.5842,-16.4083,178.857,1.4502,-145.195,344
1569932943,245.455,30.5842,-16.4083,178.857,1.4502,-145.195,344
1569932943,245.455,30.5842,-16.4083,178.857,1.4502,-145.195,344
1569932943,245.455,30.5842,-16.4083,178.857,1.4502,-145.195,344
1569932943,245.455,30.5842,-16.4083,178.857,1.4502,-145.195,344
1569932943,245.455,30.5842,-16.5199,178.857,1.4502,-145.195,344
1569932943,245.455,30.5842,-16.5199,178.857,1.4502,-145.195,344
1569932943,245.455,30.5842,-16.5199,178.857,1.4502,-145.195,344
1569932943,245.455,30.5842,-16.5199,178.857,1.4502,-145.195,344
1569932943,245.455,30.5842,-16.5199,178.857,1.4502,-145.195,344
1569932943,245.455,30.5842,-16.5199,178.857,1.4502,-145.195,344
1569932943,245.455,30.5842,-16.5199,178.857,1.4502,-145.195,344
1569932943,245.455,30.5842,-16.5199,178.857,1.4502,-145.195,344
1569932943,245.455,30.5842,-16.5199,178.857,1.4502,-145.195,344
1569932943,245.455,30.5842,-16.5199,178.857,1.4502,-145.195,344
1569932943,245.455,30.5842,-16.5199,178.857,1.4502,-145.195,344
1569932943,245.455,30.5842,-16.5199,178.857,1.4502,-145.195,344
1569932943,245.455,30.5842,-16.5199,178.857,1.4502,-145.195,344
1569932943,245.455,30.5842,-16.5199,178.857,1.4502,-145.195,344
1569932943,245.455,30.5842,-16.5199,178.879,1.4502,-145.195,344
1569932943,245.455,30.5842,-16.5199,178.879,1.4502,-145.195,344
1569932943,245.455,30.5842,-16.5199,178.879,1.4502,-145.195,344
1569932943,245.455,30.5842,-16.5199,178.879,1.4502,-145.195,344
1569932943,245.455,30.5842,-16.5199,178.879,1.4502,-145.195,344
1569932943,245.455,30.5842,-16.5199,178.879,1.4502,-145.195,344
1569932943,245.455,30.5842,-16.5199,178.879,1.4502,-145.195,344
1569932943,245.455,30.5842,-16.5199,178.879,1.4502,-145.195,340
1569932943,245.455,30.5842,-16.5199,178.879,1.4502,-145.195,340
1569932943,245.455,30.5842,-16.5199,178.879,1.4502,-145.195,340
1569932943,245.455,30.5842,-16.5199,178.879,1.4502,-145.195,340
1569932943,245.455,30.5842,-16.5199,178.857,1.4502,-145.195,340
1569932943,245.455,30.5842,-16.5199,178.857,1.4502,-145.195,344
1569932943,245.455,30.5842,-16.5199,178.857,1.4502,-145.195,344
1569932943,245.455,30.5842,-16.4083,178.857,1.4502,-145.195,344
1569932943,245.455,30.5842,-16.4083,178.857,1.4502,-145.195,344
1569932943,245.455,30.5842,-16.4083,178.857,1.4502,-145.195,344
1569932943,245.455,30.5842,-16.4083,178.857,1.4502,-145.195,344
1569932943,245.455,30.5842,-16.4083,178.857,1.4502,-145.195,344
1569932943,245.455,30.5842,-16.4083,178.857,1.4502,-145.195,344
1569932943,245.455,30.5842,-16.4083,178.857,1.4502,-145.195,344
1569932943,245.455,30.5842,-16.4083,178.857,1.4502,-145.195,340
1569932944,245.455,30.5842,-16.4083,178.857,1.4502,-145.195,340
1569932944,245.455,30.5842,-16.4083,178.857,1.4502,-145.195,340
1569932944,245.455,30.5842,-16.4083,178.857,1.4502,-145.195,340
1569932944,245.455,30.5842,-16.4083,178.857,1.4502,-145.195,340
1569932944,245.455,30.5842,-16.4083,178.857,1.4502,-145.195,340
1569932944,245.455,30.5842,-16.4083,178.857,1.4502,-145.195,340
1569932944,245.455,30.5842,-16.4083,178.857,1.4502,-145.195,340
1569932944,245.455,30.5842,-16.4083,178.857,1.4502,-145.195,340
1569932944,245.455,30.5842,-16.5199,178.857,1.4502,-145.195,340
1569932944,245.455,30.5842,-16.5199,178.857,1.4502,-145.195,340
1569932944,245.455,30.5842,-16.5199,178.857,1.4502,-145.195,340
1569932944,245.455,30.5842,-16.5199,178.857,1.4502,-145.195,340
1569932944,245.455,30.5842,-16.5199,178.857,1.4502,-145.195,340
1569932944,245.455,30.5842,-16.5199,178.857,1.4502,-145.195,340
1569932944,245.455,30.5842,-16.5199,178.857,1.4502,-145.195,340
1569932944,245.455,30.5842,-16.5199,178.857,1.4502,-145.195,340
1569932944,245.455,30.5842,-16.5199,178.857,1.4502,-145.195,340
1569932944,245.455,30.5842,-16.5199,178.857,1.4502,-145.195,340
1569932944,245.455,30.5842,-16.5199,178.857,1.4502,-145.195,340
1569932944,245.455,30.5842,-16.5199,178.857,1.4502,-145.195,340
1569932944,245.455,30.5842,-16.5199,178.857,1.4502,-145.195,340
1569932944,245.455,30.5842,-16.5199,178.857,1.4502,-145.195,340
1569932944,245.455,30.5842,-16.5199,178.857,1.4502,-145.195,340
1569932944,245.455,30.5842,-16.5199,178.857,1.4502,-145.195,340
1569932944,245.455,30.5842,-16.5199,178.857,1.4502,-145.195,340
1569932944,245.455,30.5842,-16.5199,178.857,1.4502,-145.195,340
1569932944,245.455,30.5842,-16.5199,178.857,1.4502,-145.195,340
1569932944,245.455,30.5842,-16.5199,178.857,1.4502,-145.195,340
1569932944,245.455,30.5842,-16.5199,178.857,1.4502,-145.195,340
1569932944,245.455,30.5842,-16.5199,178.857,1.4502,-145.195,340
1569932944,245.455,30.5842,-16.5199,178.857,1.4502,-145.195,340
1569932944,245.455,30.5842,-16.5199,178.857,1.4502,-145.195,340
1569932944,245.455,30.5842,-16.5199,178.857,1.42822,-145.195,340
1569932944,245.455,30.5842,-16.5199,178.857,1.42822,-145.195,340
1569932944,245.455,30.5842,-16.5199,178.857,1.42822,-145.195,340
1569932944,245.455,30.5842,-16.5199,178.857,1.42822,-145.195,340
1569932944,245.455,30.5842,-16.5199,178.857,1.42822,-145.195,340
1569932944,245.455,30.5842,-16.5199,178.857,1.42822,-145.195,344
1569932944,245.455,30.5842,-16.5199,178.857,1.42822,-145.195,344
1569932944,245.455,30.5842,-16.5199,178.857,1.42822,-145.195,344
1569932944,245.455,30.5842,-16.5199,178.857,1.42822,-145.195,344
1569932944,245.455,30.5842,-16.5199,178.857,1.42822,-145.195,344
1569932944,245.455,30.5842,-16.5199,178.857,1.42822,-145.195,344
1569932944,245.455,30.5842,-16.5199,178.857,1.42822,-145.195,344
1569932944,245.455,30.5842,-16.5199,178.857,1.42822,-145.195,344
1569932944,245.455,30.5842,-16.5199,178.857,1.42822,-145.195,344
1569932944,245.455,30.5842,-16.5199,178.857,1.42822,-145.195,344
1569932944,245.455,30.5842,-16.5199,178.857,1.42822,-145.195,344
1569932944,245.455,30.5842,-16.5199,178.857,1.42822,-145.195,344
1569932944,245.455,30.5842,-16.5199,178.857,1.42822,-145.195,344
1569932944,245.455,30.5842,-16.5199,178.857,1.4502,-145.195,344
1569932944,245.455,30.5842,-16.5199,178.857,1.4502,-145.195,344
1569932944,245.455,30.5842,-16.5199,178.857,1.4502,-145.173,344
1569932944,245.455,30.5842,-16.5199,178.857,1.4502,-145.173,344
1569932944,245.455,30.5842,-16.5199,178.857,1.4502,-145.173,344
1569932944,245.455,30.5842,-16.5199,178.857,1.4502,-145.173,344
1569932944,245.455,30.5842,-16.5199,178.857,1.4502,-145.173,344
1569932944,245.455,30.5842,-16.5199,178.857,1.4502,-145.173,344
1569932944,245.455,30.5842,-16.5199,178.857,1.4502,-145.173,344
1569932944,245.455,30.5842,-16.5199,178.879,1.4502,-145.195,344
1569932944,245.455,30.5842,-16.5199,178.879,1.4502,-145.195,344
1569932944,245.455,30.5842,-16.5199,178.879,1.4502,-145.195,344
1569932944,245.455,30.5842,-16.5199,178.879,1.4502,-145.195,344
1569932944,245.455,30.5842,-16.5199,178.857,1.4502,-145.195,344
1569932944,245.455,30.5842,-16.5199,178.879,1.4502,-145.195,344
1569932944,245.455,30.5842,-16.5199,178.879,1.4502,-145.195,344
1569932944,245.455,30.5842,-16.5199,178.879,1.4502,-145.195,344
1569932944,245.455,30.5842,-16.5199,178.879,1.4502,-145.195,344
1569932944,245.455,30.5842,-16.5199,178.857,1.4502,-145.195,344
1569932944,245.455,30.5842,-16.5199,178.857,1.4502,-145.195,344
1569932944,245.566,30.5842,-16.5199,178.879,1.4502,-145.195,344
1569932944,245.566,30.5842,-16.5199,178.879,1.4502,-145.195,344
1569932944,245.566,30.5842,-16.5199,178.879,1.4502,-145.195,344
1569932944,245.566,30.5842,-16.5199,178.879,1.4502,-145.195,344
1569932944,245.566,30.5842,-16.5199,178.879,1.4502,-145.195,344
1569932944,245.566,30.5842,-16.5199,178.879,1.4502,-145.195,344
1569932944,245.566,30.5842,-16.5199,178.879,1.4502,-145.195,344
1569932944,245.566,30.5842,-16.5199,178.879,1.4502,-145.195,344
1569932944,245.566,30.5842,-16.5199,178.857,1.42822,-145.195,344
1569932944,245.566,30.5842,-16.5199,178.857,1.42822,-145.195,344
1569932944,245.566,30.5842,-16.5199,178.879,1.42822,-145.195,344
1569932944,245.566,30.5842,-16.5199,178.879,1.42822,-145.195,344
1569932944,245.566,30.5842,-16.5199,178.879,1.42822,-145.195,344
1569932944,245.566,30.5842,-16.5199,178.879,1.42822,-145.195,340
1569932944,245.566,30.5842,-16.5199,178.879,1.42822,-145.195,340
1569932944,245.566,30.5842,-16.5199,178.879,1.4502,-145.195,340
1569932944,245.566,30.5842,-16.5199,178.879,1.4502,-145.195,340
1569932944,245.566,30.5842,-16.5199,178.879,1.4502,-145.195,340
1569932944,245.566,30.5842,-16.5199,178.879,1.4502,-145.195,340
1569932944,245.566,30.5842,-16.5199,178.879,1.4502,-145.195,340
1569932944,245.566,30.5842,-16.5199,178.879,1.4502,-145.195,340
1569932944,245.566,30.5842,-16.5199,178.879,1.4502,-145.195,340
1569932944,245.566,30.5842,-16.5199,178.879,1.4502,-145.195,340
1569932944,245.566,30.5842,-16.4083,178.879,1.4502,-145.195,340
1569932944,245.566,30.5842,-16.4083,178.879,1.4502,-145.195,340
1569932944,245.566,30.5842,-16.4083,178.879,1.4502,-145.195,336
1569932944,245.566,30.5842,-16.4083,178.879,1.4502,-145.195,336
1569932944,245.566,30.5842,-16.4083,178.879,1.4502,-145.195,336
1569932944,245.566,30.5842,-16.4083,178.879,1.4502,-145.195,336
1569932944,245.566,30.5842,-16.4083,178.879,1.4502,-145.195,336
1569932945,245.566,30.5842,-16.5199,178.879,1.4502,-145.195,336
1569932945,245.566,30.5842,-16.5199,178.879,1.4502,-145.195,336
1569932945,245.566,30.5842,-16.5199,178.879,1.4502,-145.195,336
1569932945,245.566,30.5842,-16.5199,178.857,1.4502,-145.195,336
1569932945,245.566,30.5842,-16.5199,178.857,1.4502,-145.195,336
1569932945,245.566,30.5842,-16.5199,178.857,1.4502,-145.195,336
1569932945,245.566,30.5842,-16.5199,178.857,1.4502,-145.195,336
1569932945,245.566,30.5842,-16.5199,178.857,1.4502,-145.195,336
1569932945,245.566,30.5842,-16.5199,178.857,1.42822,-145.195,336
1569932945,245.455,30.5842,-16.5199,178.857,1.42822,-145.195,336
1569932945,245.455,30.5842,-16.5199,178.857,1.4502,-145.195,336
1569932945,245.455,30.5842,-16.5199,178.857,1.4502,-145.195,340
1569932945,245.455,30.5842,-16.5199,178.857,1.4502,-145.195,340
1569932945,245.455,30.5842,-16.5199,178.857,1.4502,-145.173,340
1569932945,245.455,30.5842,-16.5199,178.857,1.4502,-145.173,340
1569932945,245.455,30.5842,-16.5199,178.857,1.4502,-145.173,340
1569932945,245.455,30.5842,-16.5199,178.857,1.4502,-145.173,340
1569932945,245.455,30.5842,-16.5199,178.857,1.4502,-145.173,340
1569932945,245.455,30.5842,-16.5199,178.857,1.4502,-145.195,340
1569932945,245.455,30.5842,-16.5199,178.857,1.42822,-145.195,340
1569932945,245.455,30.5842,-16.5199,178.857,1.42822,-145.195,340
1569932945,245.455,30.5842,-16.5199,178.857,1.42822,-145.195,340
1569932945,245.455,30.5842,-16.5199,178.857,1.42822,-145.195,340
1569932945,245.455,30.5842,-16.5199,178.857,1.42822,-145.195,340
1569932945,245.455,30.5842,-16.5199,178.857,1.42822,-145.195,340
1569932945,245.455,30.5842,-16.5199,178.857,1.42822,-145.195,340
1569932945,245.566,30.5842,-16.5199,178.857,1.42822,-145.195,340
1569932945,245.566,30.5842,-16.5199,178.857,1.42822,-145.195,340
1569932945,245.566,30.5842,-16.5199,178.857,1.42822,-145.195,340
1569932945,245.566,30.5842,-16.5199,178.857,1.42822,-145.195,340
1569932945,245.566,30.5842,-16.5199,178.857,1.42822,-145.195,340
1569932945,245.566,30.5842,-16.5199,178.857,1.42822,-145.195,340
1569932945,245.566,30.5842,-16.5199,178.857,1.42822,-145.195,340
1569932945,245.566,30.5842,-16.5199,178.857,1.42822,-145.195,340
1569932945,245.566,30.5842,-16.5199,178.857,1.42822,-145.195,340
1569932945,245.566,30.5842,-16.5199,178.857,1.42822,-145.195,340
1569932945,245.566,30.5842,-16.5199,178.857,1.42822,-145.195,340
1569932945,245.566,30.5842,-16.5199,178.857,1.42822,-145.195,340
1569932945,245.566,30.5842,-16.5199,178.857,1.42822,-145.195,340
1569932945,245.566,30.5842,-16.5199,178.857,1.42822,-145.195,340
1569932945,245.566,30.5842,-16.5199,178.857,1.42822,-145.195,340
1569932945,245.566,30.5842,-16.5199,178.857,1.42822,-145.195,340
1569932945,245.566,30.5842,-16.5199,178.857,1.42822,-145.195,340
1569932945,245.566,30.5842,-16.5199,178.857,1.42822,-145.195,340
1569932945,245.566,30.5842,-16.5199,178.857,1.42822,-145.195,340
1569932945,245.566,30.5842,-16.5199,178.857,1.42822,-145.195,340
1569932945,245.566,30.5842,-16.5199,178.857,1.42822,-145.195,340
1569932945,245.566,30.5842,-16.5199,178.857,1.42822,-145.195,340
1569932945,245.566,30.5842,-16.5199,178.857,1.42822,-145.195,340
1569932945,245.566,30.5842,-16.5199,178.857,1.42822,-145.195,336
1569932945,245.566,30.5842,-16.5199,178.857,1.42822,-145.195,336
1569932945,245.566,30.5842,-16.5199,178.857,1.42822,-145.195,336
1569932945,245.566,30.5842,-16.5199,178.857,1.42822,-145.195,336
1569932945,245.566,30.5842,-16.5199,178.857,1.42822,-145.195,336
1569932945,245.566,30.5842,-16.5199,178.857,1.42822,-145.195,336
1569932945,245.566,30.5842,-16.5199,178.857,1.42822,-145.195,336
1569932945,245.566,30.5842,-16.5199,178.857,1.42822,-145.195,340
1569932945,245.566,30.5842,-16.5199,178.857,1.42822,-145.195,340
1569932945,245.566,30.5842,-16.5199,178.857,1.42822,-145.195,340
1569932945,245.566,30.5842,-16.5199,178.857,1.42822,-145.195,340
1569932945,245.455,30.5842,-16.5199,178.857,1.42822,-145.195,340
1569932945,245.455,30.5842,-16.5199,178.857,1.42822,-145.195,340
1569932945,245.455,30.5842,-16.5199,178.857,1.42822,-145.195,340
1569932945,245.455,30.5842,-16.5199,178.857,1.42822,-145.195,340
1569932945,245.455,30.5842,-16.5199,178.857,1.42822,-145.195,340
1569932945,245.455,30.5842,-16.5199,178.857,1.42822,-145.195,340
1569932945,245.455,30.5842,-16.5199,178.857,1.42822,-145.195,340
1569932945,245.455,30.5842,-16.5199,178.857,1.42822,-145.195,340
1569932945,245.455,30.5842,-16.5199,178.857,1.42822,-145.195,340
1569932945,245.455,30.5842,-16.5199,178.857,1.42822,-145.195,340
1569932945,245.455,30.5842,-16.5199,178.857,1.42822,-145.195,340
1569932945,245.455,30.5842,-16.5199,178.857,1.42822,-145.195,340
1569932945,245.455,30.5842,-16.5199,178.857,1.4502,-145.195,340
1569932945,245.566,30.5842,-16.5199,178.857,1.42822,-145.195,340
1569932945,245.566,30.5842,-16.5199,178.857,1.42822,-145.195,340
1569932945,245.566,30.5842,-16.5199,178.857,1.4502,-145.195,340
1569932945,245.566,30.5842,-16.5199,178.857,1.4502,-145.195,340
1569932945,245.566,30.5842,-16.5199,178.857,1.4502,-145.195,340
1569932945,245.566,30.5842,-16.5199,178.857,1.4502,-145.195,340
1569932945,245.566,30.5842,-16.5199,178.857,1.4502,-145.195,340
1569932945,245.566,30.5842,-16.5199,178.857,1.4502,-145.195,340
1569932945,245.566,30.5842,-16.5199,178.857,1.4502,-145.195,340
1569932945,245.566,30.5842,-16.5199,178.857,1.4502,-145.195,340
1569932945,245.566,30.5842,-16.5199,178.857,1.4502,-145.195,340
1569932945,245.566,30.5842,-16.5199,178.857,1.4502,-145.195,340
1569932945,245.566,30.5842,-16.5199,178.857,1.42822,-145.195,340
1569932945,245.566,30.5842,-16.5199,178.857,1.42822,-145.195,340
1569932945,245.566,30.5842,-16.5199,178.857,1.42822,-145.195,340
1569932945,245.566,30.5842,-16.5199,178.857,1.42822,-145.195,340
1569932945,245.566,30.5842,-16.5199,178.857,1.42822,-145.195,340
1569932945,245.566,30.5842,-16.5199,178.857,1.42822,-145.195,336
1569932945,245.566,30.5842,-16.5199,178.857,1.42822,-145.195,336
1569932945,245.566,30.5842,-16.5199,178.857,1.42822,-145.195,336
1569932945,245.566,30.5842,-16.5199,178.857,1.42822,-145.195,336
1569932945,245.566,30.5842,-16.5199,178.857,1.42822,-145.195,336
1569932945,245.566,30.5842,-16.5199,178.857,1.42822,-145.195,336
1569932945,245.566,30.5842,-16.5199,178.857,1.42822,-145.195,336
1569932945,245.566,30.5842,-16.5199,178.857,1.42822,-145.195,336
1569932945,245.566,30.5842,-16.5199,178.857,1.42822,-145.195,336
1569932945,245.566,30.5842,-16.5199,178.857,1.42822,-145.195,336
1569932946,245.566,30.5842,-16.5199,178.857,1.42822,-145.195,336
1569932946,245.566,30.5842,-16.5199,178.857,1.42822,-145.195,336
1569932946,245.566,30.5842,-16.5199,178.857,1.42822,-145.195,336
1569932946,245.566,30.5842,-16.5199,178.857,1.42822,-145.195,336
1569932946,245.566,30.5842,-16.5199,178.857,1.42822,-145.195,336
1569932946,245.566,30.5842,-16.5199,178.857,1.42822,-145.195,336
1569932946,245.566,30.5842,-16.5199,178.857,1.42822,-145.195,336
1569932946,245.566,30.5842,-16.5199,178.857,1.4502,-145.195,336
1569932946,245.566,30.5842,-16.5199,178.857,1.4502,-145.195,336
1569932946,245.566,30.5842,-16.5199,178.857,1.4502,-145.195,336
1569932946,245.566,30.5842,-16.5199,178.857,1.4502,-145.195,336
1569932946,245.566,30.5842,-16.5199,178.857,1.4502,-145.195,336
1569932946,245.566,30.5842,-16.5199,178.857,1.4502,-145.195,336
1569932946,245.566,30.5842,-16.5199,178.857,1.4502,-145.195,336
1569932946,245.566,30.5842,-16.5199,178.857,1.4502,-145.195,336
1569932946,245.566,30.5842,-16.5199,178.857,1.4502,-145.195,336
1569932946,245.566,30.5842,-16.5199,178.857,1.4502,-145.195,336
1569932946,245.566,30.5842,-16.5199,178.857,1.4502,-145.195,336
1569932946,245.566,30.5842,-16.5199,178.857,1.4502,-145.195,336
1569932946,245.566,30.5842,-16.5199,178.857,1.4502,-145.195,336
1569932946,245.566,30.5842,-16.5199,178.857,1.4502,-145.195,336
1569932946,245.566,30.5842,-16.5199,178.857,1.4502,-145.195,336
1569932946,245.566,30.5842,-16.5199,178.857,1.4502,-145.195,336
1569932946,245.566,30.5842,-16.4083,178.857,1.4502,-145.195,336
1569932946,245.566,30.5842,-16.4083,178.857,1.4502,-145.195,336
1569932946,245.455,30.5842,-16.4083,178.857,1.4502,-145.195,336
1569932946,245.455,30.5842,-16.4083,178.857,1.4502,-145.195,336
1569932946,245.455,30.5842,-16.4083,178.857,1.4502,-145.195,336
1569932946,245.566,30.5842,-16.4083,178.857,1.4502,-145.195,336
1569932946,245.566,30.5842,-16.4083,178.857,1.4502,-145.195,336
1569932946,245.566,30.5842,-16.5199,178.857,1.4502,-145.195,336
1569932946,245.566,30.5842,-16.5199,178.857,1.4502,-145.195,336
1569932946,245.455,30.5842,-16.5199,178.857,1.4502,-145.195,336
1569932950,260.747,13.841,-16.4083,178.857,1.27441,-144.646,360
1569932950,260.747,13.841,-16.4083,178.857,1.27441,-144.646,360
1569932950,260.747,13.841,-16.4083,178.857,1.27441,-144.646,360
1569932950,260.747,13.841,-16.4083,178.857,1.27441,-144.646,360
1569932950,260.747,13.841,-16.4083,178.857,1.27441,-144.646,360
1569932950,260.747,13.841,-16.4083,178.857,1.27441,-144.646,360
1569932950,260.747,13.841,-16.4083,178.857,1.27441,-144.646,360
1569932950,260.747,13.841,-16.4083,178.857,1.27441,-144.646,360
1569932950,260.747,13.841,-16.4083,178.857,1.27441,-144.646,364
1569932950,260.747,13.841,-16.4083,178.857,1.27441,-144.646,364
1569932950,260.747,13.841,-16.4083,178.857,1.27441,-144.646,364
1569932950,260.747,13.841,-16.4083,178.857,1.27441,-144.646,364
1569932950,260.747,13.841,-16.4083,178.857,1.27441,-144.646,364
1569932950,260.747,13.841,-16.4083,178.857,1.27441,-144.646,364
1569932950,260.747,13.841,-16.4083,178.857,1.27441,-144.646,364
1569932950,260.747,13.841,-16.4083,178.857,1.27441,-144.646,364
1569932950,260.747,13.841,-16.4083,178.857,1.27441,-144.646,364
1569932950,260.747,13.841,-16.4083,178.857,1.27441,-144.646,364
1569932950,260.747,13.841,-16.4083,178.857,1.27441,-144.646,364
1569932950,260.747,13.841,-16.4083,178.857,1.27441,-144.646,364
1569932950,260.747,13.841,-16.4083,178.857,1.27441,-144.646,364
1569932950,260.747,13.841,-16.4083,178.857,1.27441,-144.646,364
1569932950,260.747,13.841,-16.4083,178.857,1.27441,-144.646,364
1569932950,260.747,13.841,-16.4083,178.857,1.27441,-144.646,364
1569932950,260.747,13.841,-16.4083,178.857,1.27441,-144.646,364
1569932950,260.747,13.841,-16.4083,178.857,1.27441,-144.646,364
1569932950,260.747,13.841,-16.4083,178.857,1.27441,-144.646,364
1569932950,260.747,13.841,-16.4083,178.857,1.27441,-144.646,360
1569932950,260.747,13.841,-16.4083,178.857,1.27441,-144.646,360
1569932950,260.747,13.841,-16.4083,178.857,1.27441,-144.646,360
1569932950,260.747,13.841,-16.4083,178.857,1.27441,-144.646,360
1569932950,260.747,13.841,-16.4083,178.857,1.27441,-144.646,360
1569932950,260.747,13.841,-16.4083,178.857,1.27441,-144.646,360
1569932950,260.747,13.841,-16.4083,178.857,1.27441,-144.646,360
1569932950,260.747,13.841,-16.4083,178.857,1.27441,-144.646,360
1569932950,260.747,13.841,-16.4083,178.857,1.27441,-144.646,360
1569932950,260.747,13.841,-16.4083,178.857,1.27441,-144.646,360
1569932950,260.747,13.841,-16.4083,178.857,1.27441,-144.646,360
1569932950,260.747,13.841,-16.4083,178.857,1.27441,-144.646,360
1569932950,260.747,13.841,-16.4083,178.857,1.27441,-144.646,360
1569932950,260.747,13.841,-16.4083,178.857,1.27441,-144.646,360
1569932950,260.747,13.841,-16.4083,178.857,1.27441,-144.646,360
1569932950,260.747,13.841,-16.4083,178.857,1.27441,-144.646,360
1569932950,260.747,13.841,-16.4083,178.857,1.27441,-144.646,360
1569932950,260.747,13.841,-16.4083,178.857,1.27441,-144.646,360
1569932950,260.747,13.841,-16.4083,178.857,1.27441,-144.668,360
1569932950,260.747,13.841,-16.4083,178.857,1.27441,-144.668,360
1569932950,260.747,13.841,-16.4083,178.857,1.27441,-144.668,360
1569932950,260.747,13.841,-16.4083,178.857,1.27441,-144.668,360
1569932950,260.747,13.841,-16.4083,178.857,1.27441,-144.668,360
1569932950,260.747,13.841,-16.4083,178.857,1.27441,-144.668,360
1569932950,260.747,13.841,-16.4083,178.857,1.27441,-144.668,360
1569932950,260.747,13.841,-16.4083,178.857,1.27441,-144.668,360
1569932950,260.747,13.841,-16.4083,178.857,1.27441,-144.668,360
1569932950,260.747,13.841,-16.4083,178.857,1.27441,-144.668,360
1569932950,260.747,13.841,-16.4083,178.857,1.27441,-144.668,360
1569932950,260.747,13.841,-16.4083,178.857,1.27441,-144.668,360
1569932950,260.747,13.841,-16.4083,178.857,1.25244,-144.668,360
1569932950,260.747,13.841,-16.4083,178.857,1.25244,-144.668,360
1569932950,260.747,13.841,-16.4083,178.857,1.25244,-144.668,360
1569932950,260.747,13.841,-16.4083,178.857,1.25244,-144.668,360
1569932950,260.747,13.841,-16.4083,178.857,1.25244,-144.668,360
1569932950,260.747,13.841,-16.4083,178.857,1.25244,-144.668,360
1569932950,260.747,13.841,-16.4083,178.857,1.25244,-144.668,360
1569932950,260.747,13.841,-16.4083,178.857,1.25244,-144.668,360
1569932950,260.747,13.841,-16.4083,178.857,1.25244,-144.668,360
1569932950,260.747,13.841,-16.4083,178.857,1.25244,-144.668,360
1569932951,260.747,13.841,-16.4083,178.857,1.27441,-144.646,360
1569932951,260.747,13.841,-16.4083,178.857,1.27441,-144.646,360
1569932951,260.747,13.841,-16.4083,178.857,1.27441,-144.646,360
1569932951,260.747,13.841,-16.4083,178.857,1.27441,-144.646,360
1569932951,260.747,13.841,-16.4083,178.857,1.27441,-144.646,360
1569932951,260.747,13.841,-16.4083,178.857,1.27441,-144.646,360
1569932951,260.747,13.841,-16.4083,178.857,1.27441,-144.646,356
1569932951,260.747,13.841,-16.4083,178.857,1.27441,-144.646,356
1569932951,260.747,13.841,-16.4083,178.857,1.27441,-144.646,356
1569932951,260.747,13.841,-16.4083,178.857,1.27441,-144.646,356
1569932951,260.747,13.841,-16.4083,178.857,1.27441,-144.646,356
1569932951,260.747,13.841,-16.4083,178.857,1.27441,-144.646,356
1569932951,260.747,13.841,-16.4083,178.857,1.27441,-144.646,356
1569932951,260.747,13.841,-16.4083,178.857,1.27441,-144.646,356
1569932951,260.747,13.841,-16.4083,178.857,1.27441,-144.646,356
1569932951,260.747,13.841,-16.4083,178.857,1.27441,-144.646,356
1569932951,260.747,13.841,-16.4083,178.857,1.27441,-144.646,352
1569932951,260.747,13.841,-16.4083,178.857,1.27441,-144.646,352
1569932951,260.747,13.841,-16.4083,178.857,1.27441,-144.646,352
1569932951,260.747,13.841,-16.4083,178.857,1.27441,-144.646,352
1569932951,260.747,13.841,-16.4083,178.857,1.27441,-144.668,352
1569932951,260.747,13.841,-16.4083,178.857,1.27441,-144.668,352
1569932951,260.747,13.841,-16.4083,178.857,1.27441,-144.668,352
1569932951,260.747,13.841,-16.4083,178.857,1.27441,-144.668,352
1569932951,260.747,13.841,-16.4083,178.857,1.27441,-144.668,352
1569932951,260.747,13.841,-16.4083,178.857,1.27441,-144.668,352
1569932951,260.747,13.841,-16.4083,178.857,1.27441,-144.668,352
1569932951,260.747,13.841,-16.4083,178.857,1.27441,-144.668,352
1569932951,260.747,13.841,-16.4083,178.857,1.27441,-144.668,352
1569932951,260.747,13.841,-16.4083,178.857,1.27441,-144.668,352
1569932951,260.747,13.841,-16.4083,178.857,1.27441,-144.668,352
1569932951,260.747,13.841,-16.4083,178.857,1.27441,-144.668,352
1569932951,260.747,13.841,-16.4083,178.857,1.27441,-144.668,352
1569932951,260.747,13.841,-16.4083,178.857,1.27441,-144.668,352
1569932951,260.747,13.841,-16.4083,178.857,1.27441,-144.668,352
1569932951,260.747,13.841,-16.4083,178.857,1.27441,-144.668,352
1569932951,260.747,13.841,-16.4083,178.857,1.27441,-144.668,352
1569932951,260.747,13.841,-16.4083,178.857,1.27441,-144.668,352
1569932951,260.747,13.841,-16.4083,178.857,1.27441,-144.668,352
1569932951,260.747,13.841,-16.4083,178.857,1.27441,-144.668,352
1569932951,260.747,13.841,-16.4083,178.857,1.27441,-144.668,352
1569932951,260.747,13.841,-16.4083,178.857,1.27441,-144.668,352
1569932951,260.747,13.841,-16.4083,178.857,1.27441,-144.668,352
1569932951,260.747,13.841,-16.4083,178.857,1.27441,-144.668,352
1569932951,260.747,13.841,-16.4083,178.857,1.27441,-144.668,356
1569932951,260.747,13.841,-16.4083,178.857,1.27441,-144.668,356
1569932951,260.747,13.841,-16.4083,178.857,1.27441,-144.668,356
1569932951,260.747,13.841,-16.4083,178.857,1.27441,-144.668,356
1569932951,260.747,13.841,-16.4083,178.857,1.27441,-144.668,356
1569932951,260.747,13.841,-16.4083,178.857,1.27441,-144.668,356
1569932951,260.747,13.841,-16.4083,178.857,1.27441,-144.668,356
1569932951,260.747,13.841,-16.4083,178.857,1.27441,-144.668,356
1569932951,260.747,13.841,-16.4083,178.857,1.27441,-144.668,356
1569932951,260.747,13.841,-16.4083,178.857,1.27441,-144.668,356
1569932951,260.747,13.841,-16.4083,178.857,1.27441,-144.668,356
1569932951,260.747,13.841,-16.4083,178.857,1.27441,-144.668,356
1569932951,260.747,13.841,-16.4083,178.857,1.27441,-144.668,356
1569932951,260.747,13.841,-16.4083,178.857,1.27441,-144.668,356
1569932951,260.747,13.841,-16.4083,178.857,1.27441,-144.668,356
1569932951,260.747,13.841,-16.4083,178.857,1.27441,-144.668,356
1569932951,260.747,13.841,-16.4083,178.857,1.27441,-144.668,360
1569932951,260.747,13.841,-16.4083,178.857,1.27441,-144.668,360
1569932951,260.747,13.841,-16.4083,178.857,1.27441,-144.668,360
1569932951,260.747,13.841,-16.4083,178.857,1.27441,-144.668,360
1569932951,260.747,13.841,-16.4083,178.857,1.27441,-144.668,360
1569932951,260.747,13.841,-16.4083,178.857,1.27441,-144.668,360
1569932951,260.747,13.841,-16.4083,178.857,1.27441,-144.668,356
1569932951,260.747,13.841,-16.4083,178.857,1.27441,-144.668,356
1569932951,260.747,13.841,-16.4083,178.857,1.27441,-144.668,356
1569932951,260.747,13.841,-16.4083,178.857,1.27441,-144.668,356
1569932951,260.747,13.841,-16.4083,178.857,1.27441,-144.668,356
1569932951,260.747,13.841,-16.4083,178.857,1.27441,-144.668,356
1569932951,260.747,13.841,-16.4083,178.857,1.27441,-144.668,356
1569932951,260.747,13.841,-16.4083,178.857,1.27441,-144.668,356
1569932951,260.747,13.841,-16.4083,178.857,1.27441,-144.668,356
1569932951,260.747,13.841,-16.4083,178.857,1.27441,-144.668,356
1569932951,260.747,13.841,-16.4083,178.857,1.27441,-144.668,356
1569932951,260.747,13.841,-16.4083,178.857,1.27441,-144.668,356
1569932951,260.747,13.841,-16.4083,178.857,1.27441,-144.668,356
1569932951,260.747,13.841,-16.4083,178.857,1.27441,-144.668,352
1569932951,260.747,13.841,-16.4083,178.857,1.27441,-144.668,352
1569932951,260.747,13.841,-16.4083,178.857,1.27441,-144.668,356
1569932951,260.747,13.841,-16.4083,178.857,1.27441,-144.668,356
1569932951,260.747,13.841,-16.4083,178.857,1.27441,-144.668,356
1569932951,260.747,13.841,-16.4083,178.857,1.27441,-144.668,356
1569932951,260.747,13.841,-16.4083,178.857,1.27441,-144.668,356
1569932951,260.747,13.841,-16.4083,178.857,1.27441,-144.668,356
1569932951,260.747,13.841,-16.4083,178.857,1.27441,-144.668,356
1569932951,260.747,13.841,-16.4083,178.857,1.27441,-144.668,356
1569932951,260.747,13.841,-16.4083,178.857,1.27441,-144.668,356
1569932951,260.747,13.841,-16.4083,178.857,1.27441,-144.668,356
1569932951,260.747,13.841,-16.4083,178.857,1.27441,-144.668,356
1569932951,260.747,13.841,-16.4083,178.857,1.27441,-144.668,356
1569932951,260.747,13.841,-16.4083,178.857,1.27441,-144.668,356
1569932951,260.747,13.841,-16.4083,178.857,1.27441,-144.668,356
1569932951,260.747,13.841,-16.4083,178.857,1.27441,-144.668,356
1569932951,260.747,13.841,-16.4083,178.857,1.27441,-144.668,360
1569932951,260.747,13.841,-16.4083,178.857,1.27441,-144.668,360
1569932951,260.747,13.841,-16.4083,178.857,1.27441,-144.668,360
1569932951,260.747,13.841,-16.4083,178.857,1.27441,-144.668,360
1569932952,260.747,13.841,-16.4083,178.857,1.27441,-144.668,360
1569932952,260.747,13.841,-16.4083,178.857,1.27441,-144.668,360
1569932952,260.747,13.841,-16.4083,178.857,1.27441,-144.668,360
1569932952,260.747,13.841,-16.4083,178.857,1.27441,-144.668,360
1569932952,260.747,13.841,-16.4083,178.857,1.27441,-144.668,360
1569932952,260.747,13.841,-16.4083,178.857,1.27441,-144.668,360
1569932952,260.747,13.841,-16.4083,178.857,1.27441,-144.668,360
1569932952,260.747,13.841,-16.4083,178.857,1.27441,-144.668,360
1569932952,260.747,13.841,-16.4083,178.857,1.27441,-144.668,360
1569932952,260.747,13.841,-16.4083,178.857,1.27441,-144.668,356
1569932952,260.747,13.841,-16.4083,178.857,1.27441,-144.668,356
1569932952,260.747,13.841,-16.4083,178.857,1.27441,-144.668,356
1569932952,260.747,13.841,-16.4083,178.857,1.27441,-144.668,356
1569932952,260.747,13.841,-16.4083,178.857,1.27441,-144.668,356
1569932952,260.747,13.841,-16.4083,178.857,1.27441,-144.668,356
1569932952,260.747,13.841,-16.4083,178.857,1.27441,-144.668,356
1569932952,260.747,13.841,-16.4083,178.857,1.27441,-144.668,356
1569932952,260.747,13.841,-16.4083,178.857,1.27441,-144.668,356
1569932952,260.747,13.841,-16.4083,178.857,1.27441,-144.668,356
1569932952,260.747,13.841,-16.4083,178.857,1.27441,-144.646,356
1569932952,260.747,13.841,-16.4083,178.857,1.27441,-144.646,356
1569932952,260.747,13.841,-16.4083,178.857,1.27441,-144.646,360
1569932952,260.747,13.841,-16.4083,178.857,1.27441,-144.646,360
1569932952,260.747,13.841,-16.4083,178.857,1.27441,-144.646,360
1569932952,260.747,13.841,-16.4083,178.857,1.27441,-144.646,360
1569932952,260.747,13.841,-16.4083,178.857,1.27441,-144.646,360
1569932952,260.747,13.841,-16.4083,178.857,1.27441,-144.646,360
1569932952,260.747,13.841,-16.4083,178.857,1.27441,-144.646,360
1569932952,260.747,13.841,-16.4083,178.857,1.27441,-144.646,360
1569932952,260.747,13.841,-16.4083,178.857,1.27441,-144.646,360
1569932952,260.747,13.841,-16.4083,178.857,1.27441,-144.646,360
1569932952,260.747,13.841,-16.4083,178.857,1.27441,-144.646,360
1569932952,260.747,13.841,-16.4083,178.857,1.27441,-144.646,360
1569932952,260.747,13.841,-16.4083,178.857,1.27441,-144.646,360
1569932952,260.747,13.841,-16.4083,178.857,1.27441,-144.646,360
1569932952,260.747,13.841,-16.4083,178.857,1.27441,-144.646,360
1569932952,260.747,13.841,-16.4083,178.857,1.27441,-144.646,360
1569932952,260.747,13.841,-16.4083,178.857,1.27441,-144.646,360
1569932952,260.747,13.841,-16.4083,178.857,1.27441,-144.646,360
1569932952,260.747,13.841,-16.4083,178.857,1.27441,-144.646,360
1569932952,260.747,13.841,-16.4083,178.857,1.27441,-144.646,360
1569932952,260.747,13.841,-16.4083,178.857,1.27441,-144.646,360
1569932952,260.747,13.841,-16.4083,178.857,1.27441,-144.646,360
1569932952,260.747,13.841,-16.4083,178.857,1.27441,-144.646,360
1569932952,260.747,13.841,-16.4083,178.857,1.27441,-144.646,360
1569932952,260.747,13.841,-16.4083,178.857,1.27441,-144.646,360
1569932952,260.747,13.841,-16.4083,178.857,1.27441,-144.646,360
1569932952,260.747,13.841,-16.4083,178.857,1.27441,-144.646,360
1569932952,260.747,13.841,-16.4083,178.857,1.27441,-144.646,360
1569932952,260.747,13.841,-16.4083,178.857,1.27441,-144.646,360
1569932952,260.747,13.841,-16.4083,178.857,1.27441,-144.646,360
1569932952,260.747,13.841,-16.4083,178.857,1.27441,-144.646,360
1569932952,260.747,13.841,-16.4083,178.857,1.27441,-144.646,360
1569932952,260.747,13.841,-16.4083,178.857,1.25244,-144.646,360
1569932952,260.747,13.841,-16.4083,178.857,1.25244,-144.646,360
1569932952,260.747,13.841,-16.4083,178.857,1.25244,-144.646,360
1569932952,260.747,13.841,-16.4083,178.857,1.25244,-144.646,364
1569932952,260.747,13.841,-16.4083,178.857,1.25244,-144.646,364
1569932952,260.747,13.841,-16.4083,178.857,1.25244,-144.646,364
1569932952,260.747,13.841,-16.4083,178.857,1.25244,-144.646,364
1569932952,260.747,13.841,-16.4083,178.857,1.25244,-144.646,364
1569932952,260.747,13.841,-16.4083,178.857,1.25244,-144.646,364
1569932952,260.747,13.841,-16.4083,178.857,1.25244,-144.646,364
1569932952,260.747,13.841,-16.4083,178.857,1.25244,-144.646,364
1569932952,260.747,13.841,-16.4083,178.857,1.25244,-144.668,364
1569932952,260.747,13.841,-16.4083,178.857,1.25244,-144.668,364
1569932952,260.747,13.841,-16.4083,178.857,1.27441,-144.668,364
1569932952,260.747,13.841,-16.4083,178.857,1.27441,-144.668,364
1569932952,260.747,13.841,-16.4083,178.857,1.27441,-144.668,364
1569932952,260.747,13.841,-16.4083,178.857,1.27441,-144.668,364
1569932952,260.747,13.841,-16.4083,178.857,1.27441,-144.668,364
1569932952,260.747,13.841,-16.4083,178.857,1.27441,-144.668,364
1569932952,260.747,13.841,-16.4083,178.857,1.27441,-144.668,364
1569932952,260.747,13.841,-16.4083,178.857,1.27441,-144.668,360
1569932952,260.747,13.841,-16.4083,178.857,1.27441,-144.668,360
1569932952,260.747,13.841,-16.4083,178.879,1.27441,-144.668,360
1569932952,260.747,13.841,-16.4083,178.879,1.27441,-144.668,360
1569932952,260.747,13.841,-16.4083,178.879,1.27441,-144.668,360
1569932952,260.747,13.841,-16.4083,178.879,1.27441,-144.668,360
1569932952,260.747,13.841,-16.4083,178.879,1.27441,-144.668,360
1569932952,260.747,13.841,-16.4083,178.879,1.27441,-144.668,360
1569932952,260.747,13.841,-16.4083,178.879,1.27441,-144.668,360
1569932952,260.747,13.841,-16.4083,178.879,1.27441,-144.668,360
1569932952,260.747,13.841,-16.4083,178.879,1.27441,-144.668,360
1569932952,260.747,13.841,-16.4083,178.857,1.27441,-144.668,360
1569932952,260.747,13.841,-16.4083,178.857,1.27441,-144.668,360
1569932952,260.747,13.841,-16.4083,178.857,1.27441,-144.668,360
1569932952,260.747,13.841,-16.4083,178.857,1.27441,-144.668,360
1569932952,260.747,13.841,-16.4083,178.857,1.27441,-144.668,360
1569932952,260.747,13.841,-16.4083,178.857,1.27441,-144.668,364
1569932952,260.747,13.841,-16.4083,178.857,1.27441,-144.668,364
1569932952,260.747,13.841,-16.4083,178.857,1.27441,-144.668,364
1569932952,260.747,13.841,-16.4083,178.857,1.27441,-144.668,364
1569932952,260.747,13.841,-16.4083,178.857,1.27441,-144.668,364
1569932952,260.747,13.841,-16.4083,178.857,1.27441,-144.668,364
1569932952,260.747,13.841,-16.4083,178.857,1.27441,-144.668,364
1569932952,260.747,13.841,-16.4083,178.857,1.27441,-144.668,364
1569932952,260.747,13.841,-16.4083,178.857,1.27441,-144.668,364
1569932952,260.747,13.841,-16.4083,178.857,1.27441,-144.668,364
1569932952,260.747,13.841,-16.4083,178.857,1.27441,-144.668,364
1569932953,260.747,13.841,-16.4083,178.857,1.27441,-144.668,364
1569932953,260.747,13.841,-16.4083,178.857,1.27441,-144.668,364
1569932953,260.747,13.841,-16.4083,178.857,1.27441,-144.668,364
1569932953,260.747,13.841,-16.4083,178.857,1.27441,-144.668,364
1569932953,260.747,13.841,-16.4083,178.857,1.27441,-144.668,364
1569932953,260.747,13.841,-16.4083,178.857,1.27441,-144.668,364
1569932953,260.747,13.841,-16.4083,178.857,1.27441,-144.668,364
1569932953,260.747,13.841,-16.4083,178.857,1.27441,-144.668,364
1569932953,260.747,13.841,-16.4083,178.857,1.27441,-144.668,364
1569932953,260.747,13.841,-16.4083,178.857,1.27441,-144.668,364
1569932953,260.747,13.841,-16.4083,178.857,1.27441,-144.668,364
1569932953,260.747,13.841,-16.4083,178.857,1.27441,-144.668,364
1569932953,260.747,13.841,-16.4083,178.857,1.27441,-144.668,364
1569932953,260.747,13.841,-16.4083,178.857,1.27441,-144.668,364
1569932953,260.747,13.841,-16.4083,178.857,1.27441,-144.668,364
1569932953,260.747,13.841,-16.4083,178.857,1.27441,-144.668,364
1569932953,260.747,13.841,-16.4083,178.857,1.27441,-144.668,364
1569932953,260.747,13.841,-16.4083,178.857,1.27441,-144.668,360
1569932953,260.747,13.841,-16.4083,178.857,1.27441,-144.668,360
1569932953,260.747,13.841,-16.4083,178.857,1.27441,-144.668,360
1569932953,260.747,13.841,-16.4083,178.857,1.27441,-144.668,360
1569932953,260.747,13.841,-16.4083,178.857,1.27441,-144.668,360
1569932953,260.747,13.841,-16.4083,178.857,1.27441,-144.668,360
1569932953,260.747,13.841,-16.4083,178.857,1.27441,-144.668,360
1569932953,260.747,13.841,-16.4083,178.857,1.27441,-144.668,360
1569932953,260.747,13.841,-16.4083,178.857,1.27441,-144.668,360
1569932953,260.747,13.841,-16.4083,178.857,1.27441,-144.668,360
1569932953,260.747,13.841,-16.4083,178.857,1.27441,-144.668,360
1569932953,260.747,13.841,-16.4083,178.857,1.27441,-144.668,360
1569932953,260.747,13.841,-16.4083,178.857,1.27441,-144.668,360
1569932953,260.747,13.841,-16.4083,178.857,1.27441,-144.668,360
1569932953,260.747,13.841,-16.4083,178.857,1.27441,-144.668,356
1569932953,260.747,13.841,-16.4083,178.857,1.27441,-144.668,356
1569932953,260.747,13.841,-16.4083,178.857,1.27441,-144.668,360
1569932953,260.747,13.841,-16.4083,178.857,1.27441,-144.668,360
1569932953,260.747,13.841,-16.4083,178.857,1.27441,-144.668,360
1569932953,260.747,13.841,-16.4083,178.857,1.27441,-144.668,360
1569932953,260.747,13.841,-16.4083,178.857,1.27441,-144.668,360
1569932953,260.747,13.841,-16.4083,178.857,1.27441,-144.668,360
1569932953,260.747,13.841,-16.4083,178.857,1.27441,-144.668,360
1569932953,260.747,13.841,-16.4083,178.857,1.27441,-144.668,360
1569932953,260.747,13.841,-16.4083,178.857,1.27441,-144.668,360
1569932953,260.747,13.841,-16.4083,178.857,1.27441,-144.668,360
1569932953,260.747,13.841,-16.4083,178.857,1.27441,-144.668,360
1569932953,260.747,13.841,-16.4083,178.857,1.27441,-144.668,360
1569932953,260.747,13.841,-16.4083,178.857,1.27441,-144.668,360
1569932953,260.747,13.841,-16.4083,178.857,1.27441,-144.668,364
1569932953,260.747,13.841,-16.4083,178.857,1.27441,-144.668,364
1569932953,260.747,13.841,-16.4083,178.857,1.27441,-144.668,364
1569932953,260.747,13.841,-16.4083,178.857,1.27441,-144.668,364
1569932953,260.747,13.841,-16.4083,178.857,1.27441,-144.668,364
1569932953,260.747,13.841,-16.4083,178.857,1.27441,-144.668,364
1569932953,260.747,13.841,-16.4083,178.857,1.27441,-144.668,364
1569932953,260.747,13.841,-16.4083,178.857,1.27441,-144.668,364
1569932953,260.747,13.841,-16.4083,178.857,1.27441,-144.646,364
1569932953,260.747,13.841,-16.4083,178.857,1.27441,-144.646,364
1569932953,260.747,13.841,-16.4083,178.857,1.27441,-144.646,364
1569932953,260.747,13.841,-16.4083,178.857,1.27441,-144.646,364
1569932953,260.747,13.841,-16.4083,178.857,1.27441,-144.646,364
1569932953,260.747,13.841,-16.4083,178.857,1.27441,-144.646,364
1569932953,260.747,13.841,-16.4083,178.857,1.27441,-144.646,364
1569932953,260.747,13.841,-16.4083,178.857,1.27441,-144.646,364
1569932953,260.747,13.841,-16.4083,178.857,1.27441,-144.646,364
1569932953,260.747,13.841,-16.4083,178.857,1.27441,-144.646,364
1569932953,260.747,13.841,-16.4083,178.857,1.27441,-144.646,364
1569932953,260.747,13.841,-16.4083,178.857,1.27441,-144.646,364
1569932953,260.747,13.841,-16.4083,178.857,1.27441,-144.646,364
1569932953,260.747,13.841,-16.4083,178.857,1.25244,-144.646,364
1569932953,260.747,13.841,-16.4083,178.857,1.25244,-144.646,364
1569932953,260.747,13.841,-16.4083,178.857,1.25244,-144.646,364
1569932953,260.747,13.841,-16.4083,178.857,1.25244,-144.646,364
1569932953,260.747,13.841,-16.4083,178.857,1.25244,-144.646,364
1569932953,260.747,13.841,-16.4083,178.857,1.27441,-144.646,364
1569932953,260.747,13.841,-16.4083,178.857,1.27441,-144.646,364
1569932953,260.747,13.841,-16.4083,178.857,1.27441,-144.646,364
1569932953,260.747,13.841,-16.4083,178.857,1.27441,-144.646,364
1569932953,260.747,13.841,-16.4083,178.857,1.27441,-144.646,364
1569932953,260.747,13.841,-16.4083,178.857,1.27441,-144.646,364
1569932953,260.747,13.841,-16.4083,178.857,1.27441,-144.646,364
1569932953,260.747,13.841,-16.4083,178.857,1.27441,-144.646,364
1569932953,260.747,13.841,-16.4083,178.857,1.27441,-144.646,364
1569932953,260.747,13.841,-16.4083,178.857,1.27441,-144.646,364
1569932953,260.747,13.841,-16.4083,178.857,1.27441,-144.646,364
1569932953,260.747,13.841,-16.4083,178.857,1.27441,-144.646,364
1569932953,260.747,13.841,-16.4083,178.857,1.25244,-144.646,364
1569932953,260.747,13.841,-16.4083,178.857,1.25244,-144.646,364
1569932953,260.747,13.841,-16.4083,178.857,1.25244,-144.646,364
1569932953,260.747,13.841,-16.4083,178.857,1.25244,-144.646,364
1569932953,260.747,13.841,-16.4083,178.857,1.25244,-144.646,364
1569932953,260.747,13.841,-16.4083,178.857,1.25244,-144.646,364
1569932953,260.747,13.841,-16.4083,178.857,1.25244,-144.646,364
1569932953,260.747,13.841,-16.4083,178.857,1.25244,-144.646,364
1569932953,260.747,13.841,-16.4083,178.857,1.25244,-144.646,364
1569932953,260.747,13.841,-16.4083,178.857,1.25244,-144.646,364
1569932953,260.747,13.841,-16.4083,178.857,1.27441,-144.646,364
1569932953,260.747,13.841,-16.4083,178.879,1.27441,-144.646,364
1569932953,260.747,13.841,-16.4083,178.879,1.27441,-144.646,364
1569932953,260.747,13.841,-16.4083,178.879,1.27441,-144.646,364
1569932953,260.747,13.841,-16.4083,178.879,1.27441,-144.646,364
1569932953,260.747,13.841,-16.4083,178.879,1.27441,-144.646,364
1569932954,260.747,13.841,-16.4083,178.879,1.27441,-144.646,364
1569932954,260.747,13.841,-16.4083,178.879,1.27441,-144.646,364
1569932954,260.747,13.841,-16.4083,178.879,1.27441,-144.646,364
1569932954,260.747,13.841,-16.4083,178.879,1.27441,-144.646,364
1569932954,260.747,13.841,-16.4083,178.879,1.27441,-144.646,364
1569932954,260.747,13.841,-16.4083,178.879,1.27441,-144.646,364
1569932954,260.747,13.841,-16.4083,178.879,1.27441,-144.646,364
1569932954,260.747,13.841,-16.4083,178.879,1.27441,-144.646,364
1569932954,260.747,13.841,-16.4083,178.879,1.27441,-144.646,364
1569932954,260.747,13.841,-16.4083,178.857,1.27441,-144.646,364
1569932954,260.747,13.841,-16.4083,178.857,1.27441,-144.646,364
1569932954,260.747,13.841,-16.4083,178.857,1.27441,-144.646,364
1569932954,260.747,13.841,-16.4083,178.857,1.27441,-144.646,364
1569932954,260.747,13.841,-16.4083,178.857,1.27441,-144.646,364
1569932954,260.747,13.841,-16.4083,178.857,1.27441,-144.646,364
1569932954,260.747,13.841,-16.4083,178.857,1.27441,-144.646,364
1569932954,260.747,13.841,-16.4083,178.857,1.27441,-144.646,364
1569932954,260.747,13.841,-16.4083,178.857,1.27441,-144.646,364
1569932954,260.747,13.841,-16.4083,178.857,1.27441,-144.646,364
1569932954,260.747,13.841,-16.4083,178.857,1.27441,-144.646,364
1569932954,260.747,13.841,-16.4083,178.857,1.27441,-144.668,364
1569932954,260.747,13.841,-16.4083,178.857,1.27441,-144.646,364
1569932954,260.747,13.841,-16.4083,178.857,1.27441,-144.646,364
1569932954,260.747,13.841,-16.4083,178.857,1.27441,-144.646,360
1569932954,260.747,13.841,-16.4083,178.857,1.27441,-144.646,360
1569932954,260.747,13.841,-16.4083,178.857,1.27441,-144.646,360
1569932954,260.747,13.841,-16.4083,178.857,1.27441,-144.668,360
1569932954,260.747,13.841,-16.4083,178.857,1.27441,-144.668,360
1569932954,260.747,13.841,-16.4083,178.857,1.27441,-144.668,360
1569932954,260.747,13.841,-16.4083,178.857,1.27441,-144.668,360
1569932954,260.747,13.841,-16.4083,178.857,1.27441,-144.668,360
1569932954,260.747,13.841,-16.4083,178.857,1.27441,-144.668,360
1569932954,260.747,13.841,-16.4083,178.857,1.27441,-144.668,360
1569932954,260.747,13.841,-16.4083,178.857,1.27441,-144.668,360
1569932954,260.747,13.841,-16.4083,178.857,1.27441,-144.668,360
1569932954,260.747,13.841,-16.4083,178.857,1.27441,-144.668,360
1569932954,260.747,13.841,-16.4083,178.857,1.27441,-144.668,360
1569932954,260.747,13.841,-16.4083,178.857,1.27441,-144.668,360
1569932954,260.747,13.841,-16.4083,178.857,1.27441,-144.668,360
1569932954,260.747,13.841,-16.4083,178.857,1.27441,-144.668,360
1569932954,260.747,13.841,-16.4083,178.857,1.27441,-144.668,360
1569932954,260.747,13.841,-16.4083,178.857,1.27441,-144.668,360
1569932954,260.747,13.841,-16.4083,178.857,1.27441,-144.668,360
1569932954,260.747,13.841,-16.4083,178.857,1.27441,-144.668,360
1569932954,260.747,13.841,-16.4083,178.857,1.27441,-144.668,360
1569932954,260.747,13.841,-16.4083,178.857,1.27441,-144.668,360
1569932954,260.747,13.841,-16.4083,178.857,1.27441,-144.668,360
1569932954,260.747,13.841,-16.4083,178.857,1.27441,-144.668,360
1569932954,260.747,13.841,-16.4083,178.857,1.27441,-144.668,360
1569932954,260.747,13.841,-16.4083,178.857,1.27441,-144.668,360
1569932954,260.747,13.841,-16.4083,178.857,1.27441,-144.668,360
1569932954,260.747,13.841,-16.4083,178.857,1.27441,-144.668,360
1569932954,260.747,13.841,-16.4083,178.857,1.27441,-144.668,360
1569932954,260.747,13.841,-16.4083,178.857,1.27441,-144.646,360
1569932954,260.747,13.841,-16.4083,178.857,1.27441,-144.646,360
1569932954,260.747,13.841,-16.4083,178.857,1.27441,-144.646,360
1569932954,260.747,13.841,-16.4083,178.857,1.27441,-144.646,360
1569932954,260.747,13.841,-16.4083,178.857,1.27441,-144.646,364
1569932954,260.747,13.841,-16.4083,178.857,1.27441,-144.646,364
1569932954,260.747,13.841,-16.4083,178.857,1.27441,-144.646,364
1569932954,260.747,13.841,-16.4083,178.857,1.27441,-144.646,364
1569932954,260.747,13.841,-16.4083,178.857,1.27441,-144.646,360
1569932954,260.747,13.841,-16.4083,178.857,1.27441,-144.646,360
1569932954,260.747,13.841,-16.4083,178.857,1.27441,-144.646,360
1569932954,260.747,13.841,-16.4083,178.857,1.27441,-144.646,360
1569932954,260.747,13.841,-16.4083,178.857,1.27441,-144.646,360
1569932954,260.747,13.841,-16.4083,178.857,1.27441,-144.646,360
1569932954,260.747,13.841,-16.4083,178.857,1.27441,-144.646,360
1569932954,260.747,13.841,-16.4083,178.857,1.27441,-144.646,360
1569932954,260.747,13.841,-16.4083,178.857,1.27441,-144.646,360
1569932954,260.747,13.841,-16.4083,178.857,1.27441,-144.646,360
1569932954,260.747,13.841,-16.4083,178.857,1.27441,-144.646,360
1569932954,260.747,13.841,-16.4083,178.857,1.27441,-144.646,360
1569932954,260.747,13.841,-16.4083,178.857,1.27441,-144.646,360
1569932954,260.747,13.841,-16.4083,178.857,1.27441,-144.646,356
1569932954,260.747,13.841,-16.4083,178.857,1.27441,-144.646,356
1569932954,260.747,13.841,-16.4083,178.857,1.27441,-144.646,356
1569932954,260.747,13.841,-16.4083,178.857,1.27441,-144.646,356
1569932954,260.747,13.841,-16.4083,178.857,1.27441,-144.646,356
1569932954,260.747,13.841,-16.4083,178.857,1.27441,-144.646,356
1569932954,260.747,13.841,-16.4083,178.857,1.27441,-144.646,356
1569932954,260.747,13.841,-16.4083,178.857,1.27441,-144.646,356
1569932954,260.747,13.841,-16.4083,178.857,1.27441,-144.646,356
1569932954,260.747,13.841,-16.4083,178.857,1.27441,-144.668,356
1569932954,260.747,13.841,-16.4083,178.857,1.27441,-144.668,356
1569932954,260.747,13.841,-16.4083,178.857,1.27441,-144.668,356
1569932954,260.747,13.841,-16.4083,178.857,1.27441,-144.668,356
1569932954,260.747,13.841,-16.4083,178.857,1.27441,-144.668,356
1569932954,260.747,13.841,-16.4083,178.857,1.27441,-144.668,356
1569932954,260.747,13.841,-16.4083,178.857,1.27441,-144.668,356
1569932954,260.747,13.841,-16.4083,178.857,1.27441,-144.668,356
1569932954,260.747,13.841,-16.4083,178.857,1.27441,-144.668,356
1569932954,260.747,13.841,-16.4083,178.857,1.29639,-144.668,356
1569932954,260.747,13.841,-16.4083,178.857,1.29639,-144.668,356
1569932954,260.747,13.841,-16.4083,178.857,1.29639,-144.668,356
1569932954,260.747,13.841,-16.4083,178.857,1.29639,-144.668,356
1569932954,260.747,13.841,-16.4083,178.857,1.29639,-144.668,356
1569932954,260.747,13.841,-16.4083,178.857,1.29639,-144.668,356
1569932954,260.747,13.841,-16.4083,178.857,1.29639,-144.668,356
1569932954,260.747,13.841,-16.4083,178.857,1.29639,-144.668,356
1569932955,260.747,13.841,-16.4083,178.857,1.27441,-144.668,356
1569932955,260.747,13.841,-16.4083,178.857,1.27441,-144.668,356
1569932955,260.747,13.841,-16.4083,178.857,1.27441,-144.668,356
1569932955,260.747,13.841,-16.4083,178.857,1.27441,-144.668,356
1569932955,260.747,13.841,-16.4083,178.857,1.27441,-144.668,356
1569932955,260.747,13.841,-16.4083,178.857,1.27441,-144.668,356
1569932955,260.747,13.841,-16.4083,178.857,1.27441,-144.668,360
1569932955,260.747,13.841,-16.4083,178.857,1.27441,-144.668,360
1569932955,260.747,13.841,-16.4083,178.857,1.27441,-144.668,360
1569932955,260.747,13.841,-16.4083,178.857,1.27441,-144.668,360
1569932955,260.747,13.841,-16.4083,178.857,1.27441,-144.668,360
1569932955,260.747,13.841,-16.4083,178.857,1.27441,-144.668,360
1569932955,260.747,13.841,-16.4083,178.857,1.27441,-144.668,360
1569932955,260.747,13.841,-16.4083,178.857,1.27441,-144.668,360
1569932955,260.747,13.841,-16.4083,178.857,1.27441,-144.668,360
1569932955,260.747,13.841,-16.4083,178.857,1.27441,-144.668,360
1569932955,260.747,13.841,-16.4083,178.857,1.27441,-144.668,360
1569932955,260.747,13.841,-16.4083,178.857,1.27441,-144.668,360
1569932955,260.747,13.841,-16.4083,178.857,1.27441,-144.668,360
1569932955,260.747,13.841,-16.4083,178.857,1.27441,-144.668,360
1569932955,260.747,13.841,-16.4083,178.857,1.27441,-144.668,360
1569932955,260.747,13.841,-16.4083,178.835,1.27441,-144.646,360
1569932955,260.747,13.841,-16.4083,178.835,1.27441,-144.646,360
1569932955,260.747,13.841,-16.4083,178.835,1.27441,-144.646,360
1569932955,260.747,13.841,-16.4083,178.835,1.27441,-144.646,364
1569932955,260.747,13.841,-16.4083,178.835,1.27441,-144.646,364
1569932955,260.747,13.841,-16.4083,178.835,1.27441,-144.646,364
1569932955,260.747,13.841,-16.4083,178.857,1.27441,-144.646,364
1569932955,260.747,13.841,-16.4083,178.857,1.27441,-144.646,364
1569932955,260.747,13.841,-16.4083,178.857,1.27441,-144.646,364
1569932955,260.747,13.841,-16.4083,178.857,1.27441,-144.646,364
1569932955,260.747,13.841,-16.4083,178.857,1.27441,-144.646,364
1569932955,260.747,13.841,-16.4083,178.857,1.27441,-144.646,364
1569932959,283.852,-10.9389,-15.627,178.77,1.77979,-144.954,376
1569932959,283.852,-10.9389,-15.627,178.77,1.77979,-144.954,376
1569932959,283.852,-10.9389,-15.627,178.77,1.77979,-144.954,376
1569932959,283.852,-10.9389,-15.627,178.77,1.77979,-144.954,376
1569932959,283.852,-10.9389,-15.627,178.77,1.77979,-144.954,376
1569932959,283.852,-10.9389,-15.627,178.77,1.77979,-144.954,372
1569932959,283.852,-10.9389,-15.627,178.77,1.77979,-144.954,372
1569932959,283.852,-10.9389,-15.627,178.77,1.77979,-144.954,372
1569932959,283.852,-10.9389,-15.627,178.77,1.77979,-144.954,372
1569932959,283.852,-10.9389,-15.627,178.77,1.77979,-144.954,372
1569932959,283.852,-10.9389,-15.627,178.77,1.77979,-144.954,372
1569932959,283.852,-10.9389,-15.627,178.77,1.77979,-144.954,372
1569932959,283.852,-10.9389,-15.627,178.77,1.77979,-144.954,372
1569932959,283.852,-10.9389,-15.627,178.77,1.77979,-144.954,376
1569932959,283.852,-10.9389,-15.627,178.77,1.77979,-144.954,376
1569932959,283.852,-10.9389,-15.627,178.77,1.77979,-144.954,376
1569932959,283.852,-10.9389,-15.627,178.77,1.77979,-144.954,376
1569932959,283.852,-10.9389,-15.627,178.77,1.77979,-144.954,376
1569932959,283.852,-10.9389,-15.627,178.77,1.77979,-144.954,376
1569932959,283.852,-10.9389,-15.627,178.77,1.77979,-144.954,376
1569932959,283.852,-10.9389,-15.627,178.77,1.77979,-144.954,376
1569932959,283.852,-10.9389,-15.627,178.77,1.77979,-144.954,376
1569932959,283.852,-10.9389,-15.627,178.77,1.77979,-144.954,376
1569932959,283.852,-10.9389,-15.627,178.77,1.77979,-144.954,376
1569932959,283.852,-10.9389,-15.627,178.77,1.77979,-144.954,376
1569932959,283.964,-10.9389,-15.627,178.77,1.77979,-144.954,376
1569932959,283.964,-10.9389,-15.627,178.77,1.77979,-144.954,376
1569932959,283.964,-10.9389,-15.627,178.77,1.77979,-144.954,376
1569932959,283.964,-10.9389,-15.627,178.77,1.77979,-144.954,376
1569932960,283.964,-10.9389,-15.627,178.77,1.77979,-144.954,376
1569932960,283.964,-10.9389,-15.627,178.77,1.77979,-144.954,376
1569932960,283.964,-10.9389,-15.627,178.77,1.77979,-144.954,376
1569932960,283.964,-10.9389,-15.627,178.77,1.77979,-144.954,376
1569932960,283.964,-10.9389,-15.627,178.77,1.77979,-144.954,376
1569932960,283.964,-10.9389,-15.627,178.77,1.77979,-144.954,376
1569932960,283.964,-10.9389,-15.627,178.77,1.77979,-144.954,376
1569932960,283.964,-10.9389,-15.627,178.77,1.77979,-144.954,376
1569932960,283.964,-10.9389,-15.627,178.748,1.77979,-144.954,376
1569932960,283.964,-10.9389,-15.627,178.748,1.77979,-144.954,376
1569932960,283.964,-10.9389,-15.627,178.748,1.77979,-144.954,376
1569932960,283.964,-10.9389,-15.627,178.748,1.77979,-144.954,376
1569932960,283.964,-10.9389,-15.627,178.77,1.77979,-144.954,376
1569932960,283.964,-10.9389,-15.627,178.77,1.77979,-144.954,376
1569932960,283.964,-10.9389,-15.627,178.77,1.77979,-144.954,376
1569932960,283.964,-10.9389,-15.627,178.77,1.77979,-144.954,376
1569932960,283.964,-10.9389,-15.627,178.77,1.77979,-144.954,376
1569932960,283.964,-10.9389,-15.627,178.77,1.77979,-144.954,376
1569932960,283.964,-10.9389,-15.627,178.77,1.77979,-144.954,376
1569932960,283.964,-10.9389,-15.627,178.77,1.77979,-144.954,376
1569932960,283.964,-10.9389,-15.627,178.77,1.77979,-144.954,376
1569932960,283.964,-10.9389,-15.627,178.77,1.77979,-144.954,376
1569932960,283.964,-10.9389,-15.627,178.77,1.77979,-144.954,376
1569932960,283.964,-10.9389,-15.627,178.77,1.77979,-144.954,376
1569932960,283.964,-10.9389,-15.627,178.77,1.77979,-144.954,376
1569932960,283.852,-10.9389,-15.627,178.77,1.77979,-144.954,376
1569932960,283.852,-10.9389,-15.627,178.77,1.77979,-144.954,376
1569932960,283.852,-10.9389,-15.627,178.77,1.77979,-144.954,376
1569932960,283.852,-10.9389,-15.627,178.77,1.77979,-144.954,376
1569932960,283.852,-10.9389,-15.627,178.77,1.77979,-144.954,376
1569932960,283.852,-10.9389,-15.627,178.77,1.77979,-144.954,380
1569932960,283.852,-10.9389,-15.627,178.77,1.77979,-144.954,380
1569932960,283.852,-10.9389,-15.627,178.77,1.77979,-144.954,380
1569932960,283.852,-10.9389,-15.627,178.77,1.77979,-144.954,380
1569932960,283.852,-10.9389,-15.627,178.77,1.77979,-144.954,380
1569932960,283.964,-10.9389,-15.627,178.77,1.77979,-144.954,380
1569932960,283.964,-10.9389,-15.627,178.77,1.77979,-144.954,380
1569932960,283.964,-10.9389,-15.627,178.77,1.77979,-144.954,380
1569932960,283.964,-10.9389,-15.627,178.77,1.77979,-144.954,380
1569932960,283.964,-10.9389,-15.627,178.77,1.77979,-144.954,380
1569932960,283.964,-10.9389,-15.627,178.77,1.77979,-144.954,380
1569932960,283.964,-10.9389,-15.627,178.77,1.77979,-144.954,380
1569932960,283.964,-10.9389,-15.627,178.77,1.77979,-144.954,380
1569932960,283.964,-10.9389,-15.627,178.77,1.77979,-144.954,380
1569932960,283.964,-10.9389,-15.627,178.77,1.77979,-144.954,380
1569932960,283.964,-10.9389,-15.627,178.77,1.77979,-144.954,380
1569932960,283.964,-10.9389,-15.627,178.77,1.77979,-144.954,380
1569932960,283.964,-10.9389,-15.627,178.77,1.77979,-144.954,380
1569932960,283.964,-10.9389,-15.627,178.77,1.77979,-144.954,380
1569932960,283.964,-10.9389,-15.627,178.77,1.77979,-144.954,380
1569932960,283.964,-10.9389,-15.627,178.77,1.77979,-144.954,380
1569932960,283.964,-10.9389,-15.627,178.77,1.77979,-144.954,380
1569932960,283.964,-10.9389,-15.627,178.77,1.77979,-144.954,380
1569932960,283.964,-10.9389,-15.627,178.77,1.77979,-144.954,380
1569932960,283.964,-10.9389,-15.627,178.77,1.77979,-144.954,376
1569932960,283.964,-10.9389,-15.627,178.77,1.77979,-144.954,376
1569932960,283.964,-10.9389,-15.627,178.77,1.77979,-144.954,376
1569932960,283.964,-10.9389,-15.627,178.77,1.77979,-144.954,376
1569932960,283.964,-10.9389,-15.627,178.77,1.77979,-144.954,376
1569932960,283.964,-10.9389,-15.627,178.77,1.77979,-144.954,376
1569932960,283.964,-10.9389,-15.627,178.77,1.77979,-144.954,376
1569932960,283.964,-10.9389,-15.627,178.77,1.77979,-144.954,376
1569932960,283.964,-10.9389,-15.627,178.77,1.77979,-144.954,376
1569932960,283.964,-10.9389,-15.627,178.77,1.77979,-144.954,372
1569932960,283.964,-10.9389,-15.627,178.77,1.77979,-144.954,372
1569932960,283.964,-10.9389,-15.627,178.77,1.77979,-144.954,372
1569932960,283.964,-10.9389,-15.627,178.77,1.77979,-144.954,372
1569932960,283.964,-10.9389,-15.627,178.77,1.77979,-144.954,372
1569932960,283.964,-10.9389,-15.627,178.77,1.77979,-144.954,372
1569932960,283.964,-10.9389,-15.627,178.77,1.77979,-144.954,372
1569932960,283.964,-10.9389,-15.627,178.77,1.77979,-144.954,372
1569932960,283.964,-10.9389,-15.627,178.77,1.77979,-144.954,372
1569932960,283.964,-10.9389,-15.627,178.77,1.77979,-144.954,372
1569932960,283.964,-10.9389,-15.627,178.77,1.77979,-144.954,372
1569932960,283.964,-10.9389,-15.627,178.77,1.77979,-144.954,372
1569932960,283.964,-10.9389,-15.627,178.77,1.77979,-144.954,372
1569932960,283.964,-10.9389,-15.627,178.77,1.77979,-144.954,372
1569932960,283.964,-10.9389,-15.627,178.77,1.77979,-144.954,372
1569932960,283.964,-10.9389,-15.627,178.77,1.77979,-144.954,372
1569932960,283.964,-10.9389,-15.627,178.77,1.77979,-144.954,372
1569932960,283.852,-10.9389,-15.627,178.77,1.77979,-144.954,372
1569932960,283.852,-10.9389,-15.627,178.77,1.77979,-144.954,372
1569932960,283.852,-10.9389,-15.627,178.77,1.77979,-144.954,372
1569932960,283.852,-10.9389,-15.627,178.77,1.77979,-144.954,372
1569932960,283.852,-10.9389,-15.627,178.77,1.77979,-144.954,372
1569932960,283.852,-10.9389,-15.627,178.77,1.77979,-144.954,372
1569932960,283.852,-10.9389,-15.627,178.77,1.77979,-144.954,372
1569932960,283.852,-10.9389,-15.627,178.77,1.77979,-144.954,372
1569932960,283.852,-10.9389,-15.627,178.77,1.77979,-144.954,372
1569932960,283.852,-10.9389,-15.627,178.77,1.77979,-144.954,372
1569932960,283.852,-10.9389,-15.627,178.77,1.77979,-144.954,372
1569932960,283.852,-10.9389,-15.627,178.77,1.77979,-144.954,372
1569932960,283.852,-10.9389,-15.627,178.77,1.77979,-144.954,372
1569932960,283.852,-10.9389,-15.627,178.77,1.77979,-144.954,372
1569932960,283.852,-10.9389,-15.627,178.77,1.77979,-144.954,372
1569932960,283.852,-10.9389,-15.627,178.77,1.77979,-144.954,372
1569932960,283.852,-10.9389,-15.627,178.77,1.77979,-144.932,372
1569932960,283.852,-10.9389,-15.627,178.77,1.77979,-144.932,376
1569932960,283.852,-10.9389,-15.627,178.77,1.77979,-144.932,376
1569932960,283.852,-10.9389,-15.627,178.77,1.77979,-144.932,376
1569932961,283.852,-10.9389,-15.627,178.77,1.77979,-144.932,376
1569932961,283.852,-10.9389,-15.627,178.77,1.77979,-144.932,376
1569932961,283.852,-10.9389,-15.627,178.77,1.77979,-144.932,376
1569932961,283.852,-10.9389,-15.627,178.77,1.77979,-144.932,376
1569932961,283.852,-10.9389,-15.627,178.77,1.77979,-144.932,376
1569932961,283.852,-10.9389,-15.627,178.77,1.77979,-144.932,376
1569932961,283.852,-10.9389,-15.627,178.77,1.77979,-144.932,376
1569932961,283.852,-10.9389,-15.627,178.77,1.77979,-144.932,376
1569932961,283.852,-10.9389,-15.627,178.77,1.77979,-144.932,376
1569932961,283.852,-10.9389,-15.627,178.77,1.75781,-144.932,376
1569932961,283.852,-10.9389,-15.627,178.77,1.75781,-144.932,376
1569932961,283.852,-10.9389,-15.627,178.77,1.75781,-144.932,376
1569932961,283.852,-10.9389,-15.627,178.77,1.75781,-144.932,376
1569932961,283.852,-10.9389,-15.627,178.77,1.75781,-144.932,376
1569932961,283.852,-10.9389,-15.627,178.77,1.75781,-144.932,380
1569932961,283.852,-10.9389,-15.627,178.77,1.75781,-144.932,380
1569932961,283.852,-10.9389,-15.627,178.77,1.75781,-144.932,380
1569932961,283.852,-10.9389,-15.627,178.77,1.75781,-144.954,380
1569932961,283.852,-10.9389,-15.627,178.77,1.75781,-144.954,380
1569932961,283.852,-10.9389,-15.627,178.77,1.75781,-144.954,380
1569932961,283.852,-10.9389,-15.627,178.77,1.77979,-144.954,380
1569932961,283.852,-10.9389,-15.627,178.77,1.77979,-144.954,384
1569932961,283.852,-10.9389,-15.627,178.77,1.77979,-144.954,384
1569932961,283.852,-10.9389,-15.627,178.77,1.77979,-144.954,384
1569932961,283.852,-10.9389,-15.627,178.77,1.77979,-144.954,384
1569932961,283.852,-10.9389,-15.627,178.77,1.77979,-144.954,384
1569932961,283.852,-10.9389,-15.627,178.77,1.77979,-144.954,384
1569932961,283.852,-10.9389,-15.627,178.77,1.77979,-144.954,384
1569932961,283.852,-10.9389,-15.627,178.77,1.77979,-144.954,384
1569932961,283.852,-10.9389,-15.627,178.77,1.77979,-144.954,384
1569932961,283.852,-10.9389,-15.627,178.77,1.77979,-144.954,384
1569932961,283.852,-10.9389,-15.627,178.77,1.77979,-144.954,384
1569932961,283.852,-10.9389,-15.627,178.77,1.77979,-144.954,384
1569932961,283.852,-10.9389,-15.627,178.77,1.77979,-144.954,384
1569932961,283.852,-10.9389,-15.627,178.77,1.77979,-144.932,384
1569932961,283.852,-10.9389,-15.627,178.77,1.77979,-144.932,384
1569932961,283.852,-10.9389,-15.627,178.77,1.77979,-144.932,384
1569932961,283.852,-10.9389,-15.627,178.77,1.77979,-144.932,384
1569932961,283.852,-10.9389,-15.627,178.77,1.77979,-144.954,384
1569932961,283.852,-10.9389,-15.627,178.77,1.77979,-144.954,384
1569932961,283.852,-10.9389,-15.627,178.77,1.77979,-144.954,384
1569932961,283.852,-10.9389,-15.627,178.77,1.77979,-144.954,384
1569932961,283.852,-10.9389,-15.627,178.77,1.77979,-144.954,384
1569932961,283.852,-10.9389,-15.627,178.77,1.77979,-144.954,384
1569932961,283.852,-10.9389,-15.627,178.77,1.77979,-144.954,384
1569932961,283.852,-10.9389,-15.627,178.77,1.77979,-144.954,384
1569932961,283.852,-10.9389,-15.627,178.77,1.77979,-144.954,384
1569932961,283.852,-10.9389,-15.627,178.77,1.77979,-144.954,384
1569932961,283.852,-10.9389,-15.627,178.77,1.77979,-144.954,388
1569932961,283.852,-10.9389,-15.627,178.77,1.77979,-144.954,388
1569932961,283.852,-10.9389,-15.627,178.77,1.77979,-144.954,388
1569932961,283.852,-10.9389,-15.627,178.77,1.77979,-144.954,388
1569932961,283.852,-10.9389,-15.627,178.77,1.77979,-144.954,388
1569932961,283.852,-10.9389,-15.627,178.77,1.77979,-144.954,388
1569932961,283.852,-10.9389,-15.627,178.77,1.77979,-144.954,388
1569932961,283.852,-10.9389,-15.627,178.77,1.77979,-144.954,388
1569932961,283.852,-10.9389,-15.627,178.77,1.77979,-144.954,388
1569932961,283.852,-10.9389,-15.627,178.77,1.77979,-144.954,388
1569932961,283.852,-10.9389,-15.627,178.77,1.77979,-144.954,388
1569932961,283.852,-10.9389,-15.627,178.77,1.77979,-144.954,388
1569932961,283.852,-10.9389,-15.627,178.77,1.77979,-144.954,388
1569932961,283.852,-10.9389,-15.627,178.77,1.77979,-144.954,384
1569932961,283.852,-10.9389,-15.627,178.77,1.77979,-144.954,384
1569932961,283.852,-10.9389,-15.627,178.77,1.77979,-144.954,384
1569932961,283.852,-10.9389,-15.627,178.77,1.77979,-144.954,384
1569932961,283.852,-10.9389,-15.627,178.77,1.77979,-144.954,384
1569932961,283.852,-10.9389,-15.627,178.77,1.77979,-144.954,384
1569932961,283.852,-10.9389,-15.627,178.77,1.77979,-144.954,384
1569932961,283.852,-10.9389,-15.627,178.77,1.77979,-144.954,384
1569932961,283.852,-10.9389,-15.627,178.77,1.77979,-144.954,384
1569932961,283.852,-10.9389,-15.627,178.77,1.77979,-144.954,384
1569932961,283.964,-10.9389,-15.627,178.77,1.77979,-144.954,384
1569932961,283.964,-10.9389,-15.627,178.77,1.77979,-144.954,384
1569932961,283.964,-10.9389,-15.627,178.77,1.77979,-144.954,384
1569932961,283.964,-10.9389,-15.627,178.77,1.77979,-144.954,380
1569932961,283.852,-10.9389,-15.627,178.77,1.77979,-144.954,380
1569932961,283.852,-10.9389,-15.627,178.77,1.77979,-144.954,380
1569932961,283.852,-10.9389,-15.627,178.77,1.77979,-144.954,380
1569932961,283.852,-10.9389,-15.627,178.77,1.77979,-144.954,380
1569932961,283.852,-10.9389,-15.627,178.77,1.77979,-144.954,380
1569932961,283.852,-10.9389,-15.627,178.77,1.77979,-144.954,380
1569932961,283.852,-10.9389,-15.627,178.77,1.77979,-144.954,380
1569932961,283.852,-10.9389,-15.627,178.77,1.77979,-144.954,380
1569932961,283.852,-10.9389,-15.627,178.77,1.77979,-144.954,384
1569932961,283.852,-10.9389,-15.627,178.77,1.77979,-144.954,384
1569932961,283.852,-10.9389,-15.627,178.77,1.77979,-144.954,384
1569932961,283.852,-10.9389,-15.627,178.77,1.77979,-144.954,384
1569932961,283.852,-10.9389,-15.627,178.77,1.77979,-144.954,384
1569932961,283.852,-10.9389,-15.627,178.77,1.77979,-144.954,384
1569932961,283.852,-10.9389,-15.627,178.77,1.77979,-144.954,384
1569932961,283.852,-10.9389,-15.627,178.77,1.77979,-144.954,384
1569932961,283.852,-10.9389,-15.627,178.77,1.77979,-144.954,384
1569932961,283.852,-10.9389,-15.627,178.77,1.77979,-144.954,384
1569932961,283.852,-10.9389,-15.627,178.77,1.77979,-144.954,384
1569932961,283.852,-10.9389,-15.627,178.77,1.77979,-144.954,384
1569932961,283.852,-10.9389,-15.627,178.77,1.77979,-144.954,384
1569932961,283.852,-10.9389,-15.627,178.77,1.77979,-144.954,384
1569932961,283.852,-10.9389,-15.627,178.77,1.77979,-144.954,384
1569932961,283.852,-10.9389,-15.627,178.77,1.77979,-144.954,384
1569932961,283.852,-10.9389,-15.627,178.77,1.77979,-144.954,384
1569932962,283.852,-10.9389,-15.627,178.77,1.75781,-144.954,384
1569932962,283.852,-10.9389,-15.627,178.77,1.75781,-144.954,384
1569932962,283.852,-10.9389,-15.627,178.77,1.75781,-144.954,384
1569932962,283.852,-10.9389,-15.627,178.77,1.77979,-144.954,384
1569932962,283.852,-10.9389,-15.627,178.77,1.77979,-144.954,384
1569932962,283.852,-10.9389,-15.627,178.77,1.77979,-144.954,384
1569932962,283.852,-10.9389,-15.627,178.77,1.77979,-144.954,384
1569932962,283.852,-10.9389,-15.627,178.77,1.77979,-144.954,384
1569932962,283.852,-10.9389,-15.627,178.77,1.77979,-144.954,384
1569932962,283.852,-10.9389,-15.627,178.77,1.77979,-144.954,384
1569932962,283.852,-10.9389,-15.627,178.77,1.77979,-144.954,384
1569932962,283.852,-10.9389,-15.627,178.77,1.77979,-144.954,384
1569932962,283.852,-10.9389,-15.627,178.77,1.77979,-144.954,384
1569932962,283.852,-10.9389,-15.627,178.77,1.77979,-144.954,384
1569932962,283.852,-10.9389,-15.627,178.77,1.77979,-144.954,384
1569932962,283.852,-10.9389,-15.627,178.77,1.77979,-144.954,384
1569932962,283.852,-10.9389,-15.627,178.77,1.77979,-144.954,384
1569932962,283.852,-10.9389,-15.627,178.77,1.77979,-144.954,384
1569932962,283.852,-10.9389,-15.627,178.77,1.77979,-144.954,384
1569932962,283.852,-10.9389,-15.627,178.77,1.77979,-144.954,384
1569932962,283.852,-10.9389,-15.627,178.77,1.77979,-144.954,384
1569932962,283.852,-10.9389,-15.627,178.77,1.77979,-144.954,384
1569932962,283.852,-10.9389,-15.627,178.77,1.77979,-144.954,384
1569932962,283.852,-10.9389,-15.627,178.77,1.77979,-144.954,380
1569932962,283.852,-10.9389,-15.627,178.77,1.77979,-144.954,380
1569932962,283.852,-10.9389,-15.627,178.77,1.77979,-144.954,380
1569932962,283.852,-10.9389,-15.627,178.77,1.77979,-144.954,380
1569932962,283.852,-10.9389,-15.627,178.77,1.77979,-144.954,380
1569932962,283.852,-10.9389,-15.627,178.77,1.77979,-144.954,380
1569932962,283.852,-10.9389,-15.627,178.77,1.77979,-144.954,380
1569932962,283.852,-10.9389,-15.627,178.77,1.77979,-144.954,384
1569932962,283.852,-10.9389,-15.627,178.77,1.77979,-144.954,384
1569932962,283.852,-10.9389,-15.627,178.77,1.77979,-144.954,384
1569932962,283.852,-10.9389,-15.627,178.77,1.77979,-144.954,384
1569932962,283.852,-10.9389,-15.627,178.77,1.77979,-144.954,384
1569932962,283.852,-10.9389,-15.627,178.748,1.77979,-144.954,384
1569932962,283.852,-10.9389,-15.627,178.748,1.77979,-144.954,384
1569932962,283.852,-10.9389,-15.627,178.748,1.77979,-144.954,384
1569932962,283.852,-10.9389,-15.627,178.748,1.77979,-144.954,384
1569932962,283.852,-10.9389,-15.627,178.748,1.77979,-144.954,384
1569932962,283.852,-10.9389,-15.627,178.748,1.77979,-144.954,384
1569932962,283.852,-10.9389,-15.627,178.748,1.77979,-144.954,384
1569932962,283.852,-10.9389,-15.627,178.748,1.77979,-144.954,384
1569932962,283.852,-10.9389,-15.627,178.748,1.77979,-144.954,384
1569932962,283.852,-10.9389,-15.627,178.748,1.77979,-144.954,384
1569932962,283.852,-10.9389,-15.627,178.748,1.77979,-144.954,384
1569932962,283.852,-10.9389,-15.627,178.748,1.77979,-144.954,384
1569932962,283.852,-10.9389,-15.627,178.77,1.77979,-144.954,384
1569932962,283.852,-10.9389,-15.627,178.77,1.77979,-144.954,384
1569932962,283.852,-10.9389,-15.627,178.77,1.77979,-144.954,384
1569932962,283.852,-10.9389,-15.627,178.77,1.77979,-144.954,384
1569932962,283.852,-10.9389,-15.627,178.77,1.77979,-144.954,384
1569932962,283.852,-10.9389,-15.627,178.77,1.77979,-144.954,384
1569932962,283.852,-10.9389,-15.627,178.77,1.77979,-144.954,384
1569932962,283.852,-10.9389,-15.627,178.77,1.77979,-144.954,388
1569932962,283.852,-10.9389,-15.627,178.77,1.77979,-144.954,388
1569932962,283.852,-10.9389,-15.627,178.77,1.77979,-144.954,388
1569932962,283.852,-10.9389,-15.627,178.77,1.77979,-144.954,388
1569932962,283.852,-10.9389,-15.627,178.77,1.77979,-144.954,388
1569932962,283.852,-10.9389,-15.627,178.77,1.77979,-144.954,388
1569932962,283.852,-10.9389,-15.627,178.77,1.77979,-144.954,388
1569932962,283.852,-10.9389,-15.627,178.77,1.77979,-144.954,388
1569932962,283.852,-10.9389,-15.627,178.77,1.77979,-144.954,388
1569932962,283.852,-10.9389,-15.627,178.77,1.77979,-144.954,388
1569932962,283.852,-10.9389,-15.627,178.77,1.77979,-144.954,388
1569932962,283.852,-10.9389,-15.627,178.77,1.77979,-144.954,388
1569932962,283.852,-10.9389,-15.627,178.77,1.77979,-144.954,388
1569932962,283.852,-10.9389,-15.627,178.77,1.77979,-144.954,388
1569932962,283.852,-10.9389,-15.627,178.77,1.77979,-144.954,388
1569932962,283.852,-10.9389,-15.627,178.77,1.77979,-144.954,388
1569932962,283.852,-10.9389,-15.627,178.77,1.77979,-144.954,388
1569932962,283.852,-10.9389,-15.627,178.77,1.77979,-144.954,388
1569932962,283.852,-10.9389,-15.627,178.77,1.77979,-144.954,388
1569932962,283.852,-10.9389,-15.627,178.77,1.77979,-144.954,388
1569932962,283.852,-10.9389,-15.627,178.77,1.77979,-144.954,388
1569932962,283.852,-10.9389,-15.627,178.77,1.77979,-144.954,388
1569932962,283.852,-10.9389,-15.627,178.77,1.77979,-144.954,388
1569932962,283.852,-10.9389,-15.627,178.77,1.77979,-144.954,384
1569932962,283.852,-10.9389,-15.627,178.77,1.77979,-144.954,384
1569932962,283.852,-10.9389,-15.627,178.77,1.77979,-144.954,384
1569932962,283.852,-10.9389,-15.627,178.77,1.77979,-144.954,384
1569932962,283.852,-10.9389,-15.627,178.77,1.77979,-144.954,384
1569932962,283.852,-10.9389,-15.627,178.77,1.77979,-144.954,380
1569932962,283.852,-10.9389,-15.627,178.77,1.77979,-144.954,380
1569932962,283.852,-10.9389,-15.627,178.77,1.77979,-144.954,380
1569932962,283.852,-10.9389,-15.627,178.77,1.77979,-144.954,380
1569932962,283.852,-10.9389,-15.627,178.77,1.77979,-144.954,380
1569932962,283.852,-10.9389,-15.627,178.77,1.77979,-144.954,380
1569932962,283.852,-10.9389,-15.627,178.77,1.77979,-144.954,380
1569932962,283.852,-10.9389,-15.627,178.77,1.77979,-144.954,380
1569932962,283.852,-10.9389,-15.627,178.77,1.77979,-144.954,380
1569932962,283.852,-10.9389,-15.627,178.77,1.77979,-144.954,384
1569932962,283.852,-10.9389,-15.627,178.77,1.77979,-144.954,384
1569932962,283.852,-10.9389,-15.627,178.77,1.77979,-144.954,384
1569932962,283.852,-10.9389,-15.627,178.77,1.77979,-144.954,384
1569932962,283.852,-10.9389,-15.627,178.77,1.77979,-144.954,384
1569932962,283.852,-10.9389,-15.627,178.77,1.77979,-144.954,384
1569932962,283.852,-10.9389,-15.627,178.77,1.77979,-144.954,384
1569932962,283.852,-10.9389,-15.627,178.77,1.77979,-144.954,384
1569932962,283.852,-10.9389,-15.627,178.77,1.77979,-144.954,384
1569932963,283.852,-10.9389,-15.627,178.77,1.77979,-144.954,388
1569932963,283.852,-10.9389,-15.627,178.77,1.77979,-144.954,388
1569932963,283.852,-10.9389,-15.627,178.77,1.77979,-144.954,388
1569932963,283.852,-10.9389,-15.627,178.77,1.77979,-144.954,388
1569932963,283.852,-10.9389,-15.627,178.77,1.77979,-144.954,388
1569932963,283.852,-10.9389,-15.627,178.77,1.77979,-144.954,388
1569932963,283.852,-10.9389,-15.627,178.77,1.77979,-144.954,388
1569932963,283.852,-10.9389,-15.627,178.77,1.77979,-144.954,388
1569932963,283.852,-10.9389,-15.627,178.77,1.77979,-144.954,388
1569932963,283.852,-10.9389,-15.627,178.77,1.77979,-144.954,388
1569932963,283.852,-10.9389,-15.627,178.77,1.77979,-144.954,388
1569932963,283.852,-10.9389,-15.627,178.77,1.77979,-144.954,388
1569932963,283.852,-10.9389,-15.627,178.77,1.77979,-144.954,388
1569932963,283.852,-10.9389,-15.627,178.77,1.77979,-144.954,388
1569932963,283.852,-10.9389,-15.627,178.77,1.77979,-144.954,388
1569932963,283.852,-10.9389,-15.627,178.77,1.77979,-144.954,388
1569932963,283.852,-10.9389,-15.627,178.77,1.77979,-144.954,388
1569932963,283.852,-10.9389,-15.627,178.77,1.77979,-144.954,388
1569932963,283.852,-10.9389,-15.627,178.77,1.77979,-144.954,388
1569932963,283.852,-10.9389,-15.627,178.77,1.77979,-144.954,388
1569932963,283.852,-10.9389,-15.627,178.77,1.77979,-144.954,384
1569932963,283.852,-10.9389,-15.627,178.77,1.77979,-144.954,384
1569932963,283.852,-10.9389,-15.627,178.77,1.77979,-144.954,384
1569932963,283.852,-10.9389,-15.627,178.77,1.77979,-144.954,384
1569932963,283.852,-10.9389,-15.627,178.792,1.77979,-144.954,384
1569932963,283.852,-10.9389,-15.627,178.77,1.77979,-144.954,384
1569932963,283.852,-10.9389,-15.627,178.77,1.77979,-144.954,384
1569932963,283.852,-10.9389,-15.627,178.77,1.77979,-144.954,384
1569932963,283.852,-10.9389,-15.627,178.77,1.77979,-144.954,384
1569932963,283.852,-10.9389,-15.627,178.77,1.77979,-144.954,384
1569932963,283.852,-10.9389,-15.627,178.77,1.77979,-144.954,384
1569932963,283.852,-10.9389,-15.627,178.77,1.77979,-144.954,384
1569932963,283.852,-10.9389,-15.627,178.77,1.80176,-144.954,384
1569932963,283.852,-10.9389,-15.627,178.77,1.80176,-144.954,384
1569932963,283.852,-10.9389,-15.627,178.77,1.80176,-144.954,384
1569932963,283.852,-10.9389,-15.627,178.77,1.80176,-144.954,384
1569932963,283.852,-10.9389,-15.627,178.77,1.80176,-144.954,384
1569932963,283.852,-10.9389,-15.627,178.77,1.80176,-144.954,384
1569932963,283.852,-10.9389,-15.627,178.77,1.77979,-144.954,384
1569932963,283.852,-10.9389,-15.627,178.77,1.77979,-144.954,384
1569932963,283.852,-10.9389,-15.627,178.77,1.77979,-144.954,384
1569932963,283.852,-10.9389,-15.627,178.77,1.77979,-144.954,384
1569932963,283.852,-10.9389,-15.627,178.77,1.77979,-144.954,384
1569932963,283.852,-10.9389,-15.627,178.77,1.77979,-144.954,380
1569932963,283.852,-10.9389,-15.627,178.77,1.77979,-144.954,380
1569932963,283.852,-10.9389,-15.627,178.77,1.77979,-144.954,380
1569932963,283.852,-10.9389,-15.627,178.77,1.77979,-144.954,380
1569932963,283.852,-10.9389,-15.627,178.77,1.77979,-144.954,380
1569932963,283.852,-10.9389,-15.627,178.77,1.77979,-144.954,380
1569932963,283.852,-10.9389,-15.627,178.77,1.77979,-144.954,380
1569932963,283.852,-10.9389,-15.627,178.77,1.77979,-144.954,380
1569932963,283.852,-10.9389,-15.627,178.77,1.77979,-144.954,380
1569932963,283.852,-10.9389,-15.627,178.77,1.77979,-144.954,380
1569932963,283.852,-10.9389,-15.627,178.77,1.77979,-144.954,380
1569932963,283.852,-10.9389,-15.627,178.77,1.77979,-144.954,380
1569932963,283.852,-10.9389,-15.627,178.77,1.77979,-144.954,380
1569932963,283.852,-10.9389,-15.627,178.77,1.77979,-144.954,380
1569932963,283.852,-10.9389,-15.627,178.77,1.77979,-144.954,380
1569932963,283.852,-10.9389,-15.627,178.77,1.77979,-144.954,380
1569932963,283.964,-10.9389,-15.627,178.77,1.77979,-144.954,380
1569932963,283.964,-10.9389,-15.627,178.77,1.77979,-144.954,380
1569932963,283.964,-10.9389,-15.627,178.77,1.77979,-144.954,376
1569932963,283.964,-10.9389,-15.627,178.77,1.77979,-144.954,376
1569932963,283.964,-10.9389,-15.627,178.77,1.77979,-144.954,376
1569932963,283.852,-10.9389,-15.627,178.77,1.77979,-144.954,376
1569932963,283.852,-10.9389,-15.627,178.77,1.77979,-144.954,376
1569932963,283.852,-10.9389,-15.627,178.77,1.77979,-144.954,376
1569932963,283.852,-10.9389,-15.627,178.792,1.77979,-144.954,376
1569932963,283.852,-10.9389,-15.627,178.792,1.77979,-144.954,376
1569932963,283.852,-10.9389,-15.627,178.792,1.77979,-144.954,376
1569932963,283.852,-10.9389,-15.627,178.792,1.77979,-144.954,376
1569932963,283.852,-10.9389,-15.627,178.792,1.77979,-144.954,376
1569932963,283.852,-10.8272,-15.627,178.792,1.77979,-144.954,376
1569932963,283.852,-10.8272,-15.627,178.792,1.77979,-144.954,376
1569932963,283.852,-10.8272,-15.627,178.792,1.77979,-144.954,376
1569932963,283.852,-10.8272,-15.627,178.792,1.77979,-144.954,376
1569932963,283.852,-10.8272,-15.627,178.792,1.77979,-144.954,376
1569932963,283.852,-10.8272,-15.627,178.792,1.77979,-144.954,376
1569932963,283.852,-10.8272,-15.627,178.792,1.77979,-144.954,376
1569932963,283.852,-10.8272,-15.627,178.792,1.77979,-144.954,376
1569932963,283.852,-10.8272,-15.627,178.792,1.77979,-144.954,376
1569932963,283.964,-10.8272,-15.627,178.792,1.77979,-144.954,376
1569932963,283.964,-10.8272,-15.627,178.792,1.77979,-144.954,376
1569932963,283.964,-10.9389,-15.627,178.792,1.77979,-144.954,376
1569932963,283.964,-10.9389,-15.627,178.792,1.77979,-144.954,376
1569932963,283.964,-10.9389,-15.627,178.792,1.77979,-144.954,376
1569932963,283.964,-10.9389,-15.627,178.792,1.77979,-144.954,376
1569932963,283.964,-10.9389,-15.627,178.792,1.77979,-144.954,376
1569932963,283.964,-10.9389,-15.627,178.792,1.77979,-144.954,376
1569932963,283.964,-10.9389,-15.627,178.792,1.77979,-144.954,376
1569932963,283.964,-10.9389,-15.627,178.792,1.77979,-144.954,376
1569932963,283.964,-10.9389,-15.627,178.792,1.77979,-144.954,376
1569932963,283.964,-10.9389,-15.627,178.77,1.77979,-144.954,376
1569932963,283.964,-10.9389,-15.627,178.77,1.77979,-144.954,376
1569932963,283.964,-10.9389,-15.627,178.77,1.77979,-144.954,376
1569932963,283.964,-10.9389,-15.627,178.77,1.77979,-144.954,376
1569932963,283.852,-10.9389,-15.627,178.77,1.77979,-144.954,376
1569932963,283.852,-10.9389,-15.627,178.77,1.77979,-144.954,376
1569932963,283.852,-10.9389,-15.627,178.77,1.77979,-144.954,376
1569932963,283.852,-10.9389,-15.627,178.77,1.77979,-144.954,376
1569932964,283.852,-10.9389,-15.627,178.77,1.77979,-144.954,376
1569932964,283.852,-10.9389,-15.627,178.77,1.77979,-144.954,376
1569932964,283.852,-10.9389,-15.627,178.77,1.77979,-144.954,376
1569932964,283.852,-10.9389,-15.627,178.77,1.77979,-144.954,376
1569932964,283.852,-10.9389,-15.627,178.77,1.77979,-144.954,376
1569932964,283.852,-10.9389,-15.627,178.77,1.77979,-144.954,376
1569932964,283.852,-10.9389,-15.627,178.77,1.77979,-144.954,380
1569932964,283.852,-10.9389,-15.627,178.77,1.77979,-144.954,380
1569932964,283.852,-10.9389,-15.627,178.77,1.77979,-144.954,380
1569932964,283.852,-10.9389,-15.627,178.77,1.77979,-144.954,380
1569932964,283.852,-10.9389,-15.627,178.77,1.77979,-144.954,380
1569932964,283.852,-10.9389,-15.627,178.77,1.77979,-144.954,380
1569932964,283.852,-10.9389,-15.627,178.77,1.77979,-144.954,380
1569932964,283.852,-10.9389,-15.627,178.77,1.77979,-144.954,380
1569932964,283.852,-10.9389,-15.627,178.77,1.77979,-144.954,380
1569932964,283.852,-10.9389,-15.627,178.77,1.77979,-144.954,380
1569932964,283.852,-10.9389,-15.627,178.77,1.77979,-144.954,380
1569932964,283.852,-10.9389,-15.627,178.77,1.77979,-144.954,380
1569932964,283.852,-10.9389,-15.627,178.77,1.77979,-144.954,384
1569932964,283.852,-10.9389,-15.627,178.77,1.77979,-144.954,384
1569932964,283.852,-10.9389,-15.627,178.77,1.77979,-144.954,384
1569932964,283.964,-10.9389,-15.627,178.77,1.77979,-144.954,384
1569932964,283.964,-10.9389,-15.627,178.77,1.77979,-144.954,384
1569932964,283.964,-10.9389,-15.627,178.77,1.77979,-144.954,384
1569932964,283.964,-10.9389,-15.627,178.77,1.77979,-144.954,384
1569932964,283.964,-10.9389,-15.627,178.77,1.77979,-144.954,384
1569932964,283.964,-10.9389,-15.627,178.77,1.77979,-144.954,384
1569932964,283.964,-10.9389,-15.627,178.77,1.77979,-144.954,384
1569932964,283.964,-10.9389,-15.627,178.77,1.77979,-144.954,384
1569932964,283.964,-10.9389,-15.627,178.77,1.77979,-144.954,384
1569932964,283.964,-10.9389,-15.627,178.77,1.77979,-144.954,384
1569932964,283.852,-10.9389,-15.627,178.77,1.77979,-144.954,384
1569932964,283.964,-10.9389,-15.627,178.77,1.77979,-144.954,384
1569932964,283.852,-10.9389,-15.627,178.77,1.77979,-144.954,384
1569932964,283.852,-10.9389,-15.627,178.77,1.77979,-144.954,384
1569932964,283.852,-10.9389,-15.627,178.77,1.77979,-144.954,384
1569932964,283.852,-10.9389,-15.627,178.77,1.77979,-144.954,384
1569932964,283.852,-10.9389,-15.627,178.77,1.77979,-144.954,384
1569932964,283.852,-10.9389,-15.627,178.77,1.77979,-144.954,384
1569932964,283.852,-10.9389,-15.627,178.77,1.77979,-144.954,384
1569932964,283.852,-10.9389,-15.627,178.77,1.77979,-144.954,384
1569932964,283.852,-10.9389,-15.627,178.77,1.77979,-144.954,384
1569932964,283.852,-10.9389,-15.627,178.77,1.77979,-144.954,384
1569932964,283.852,-10.9389,-15.627,178.77,1.77979,-144.954,384
1569932964,283.852,-10.9389,-15.627,178.77,1.77979,-144.954,384
1569932964,283.852,-10.9389,-15.627,178.77,1.77979,-144.954,384
1569932964,283.852,-10.9389,-15.627,178.77,1.77979,-144.954,384
1569932964,283.852,-10.9389,-15.627,178.77,1.77979,-144.954,384
1569932964,283.852,-10.9389,-15.627,178.77,1.75781,-144.954,384
1569932964,283.852,-10.9389,-15.627,178.77,1.75781,-144.954,384
1569932964,283.852,-10.9389,-15.627,178.77,1.75781,-144.954,384
1569932964,283.852,-10.9389,-15.627,178.77,1.75781,-144.954,384
1569932964,283.852,-10.9389,-15.627,178.77,1.75781,-144.954,384
1569932964,283.964,-10.9389,-15.627,178.77,1.75781,-144.954,384
1569932964,283.964,-10.9389,-15.627,178.77,1.75781,-144.954,380
1569932964,283.964,-10.9389,-15.627,178.77,1.75781,-144.954,380
1569932964,283.964,-10.9389,-15.627,178.77,1.75781,-144.954,380
1569932964,283.964,-10.9389,-15.627,178.77,1.75781,-144.954,380
1569932964,283.964,-10.9389,-15.627,178.77,1.75781,-144.954,380
1569932964,283.964,-10.9389,-15.627,178.77,1.75781,-144.954,380
1569932964,283.964,-10.9389,-15.627,178.77,1.77979,-144.954,380
1569932964,283.964,-10.9389,-15.627,178.77,1.77979,-144.954,380
1569932964,283.964,-10.9389,-15.627,178.77,1.77979,-144.954,380
1569932964,283.964,-10.9389,-15.627,178.77,1.77979,-144.954,380
1569932964,283.964,-10.9389,-15.627,178.77,1.77979,-144.954,380
1569932964,283.964,-10.9389,-15.627,178.77,1.77979,-144.954,380
1569932964,283.964,-10.9389,-15.627,178.77,1.77979,-144.954,380
1569932964,283.964,-10.9389,-15.627,178.77,1.77979,-144.954,376
1569932964,283.964,-10.9389,-15.627,178.77,1.77979,-144.954,376
1569932964,283.964,-10.9389,-15.627,178.77,1.77979,-144.954,376
1569932964,283.964,-10.9389,-15.627,178.77,1.77979,-144.954,376
1569932968,322.25,-52.6852,-14.3991,178.572,2.19727,-144.976,356
1569932968,322.25,-52.6852,-14.3991,178.572,2.19727,-144.976,356
1569932968,322.25,-52.6852,-14.3991,178.572,2.19727,-144.976,360
1569932968,322.25,-52.6852,-14.3991,178.572,2.19727,-144.976,360
1569932968,322.25,-52.6852,-14.3991,178.572,2.19727,-144.976,360
1569932968,322.25,-52.6852,-14.3991,178.572,2.19727,-144.976,360
1569932968,322.25,-52.6852,-14.3991,178.572,2.19727,-144.976,360
1569932968,322.25,-52.6852,-14.3991,178.572,2.19727,-144.976,360
1569932968,322.25,-52.6852,-14.3991,178.572,2.19727,-144.976,360
1569932968,322.25,-52.6852,-14.3991,178.572,2.21924,-144.976,360
1569932968,322.25,-52.6852,-14.3991,178.572,2.21924,-144.976,360
1569932968,322.25,-52.6852,-14.3991,178.572,2.21924,-144.976,360
1569932968,322.25,-52.6852,-14.3991,178.572,2.21924,-144.976,360
1569932968,322.25,-52.6852,-14.3991,178.572,2.21924,-144.976,360
1569932968,322.25,-52.6852,-14.3991,178.572,2.21924,-144.976,360
1569932968,322.25,-52.6852,-14.3991,178.572,2.21924,-144.976,360
1569932968,322.25,-52.6852,-14.3991,178.572,2.21924,-144.976,360
1569932968,322.25,-52.6852,-14.3991,178.572,2.21924,-144.976,360
1569932968,322.25,-52.6852,-14.3991,178.572,2.24121,-144.976,364
1569932968,322.25,-52.6852,-14.3991,178.572,2.24121,-144.976,364
1569932968,322.25,-52.6852,-14.3991,178.572,2.24121,-144.976,364
1569932968,322.25,-52.6852,-14.3991,178.572,2.24121,-144.976,364
1569932968,322.25,-52.6852,-14.3991,178.572,2.24121,-144.976,364
1569932968,322.25,-52.6852,-14.3991,178.572,2.24121,-144.976,364
1569932968,322.25,-52.6852,-14.3991,178.572,2.24121,-144.976,364
1569932968,322.25,-52.6852,-14.3991,178.572,2.24121,-144.976,364
1569932968,322.25,-52.6852,-14.3991,178.572,2.21924,-144.976,364
1569932968,322.25,-52.6852,-14.3991,178.572,2.21924,-144.976,364
1569932968,322.25,-52.6852,-14.3991,178.572,2.21924,-144.976,364
1569932968,322.25,-52.6852,-14.3991,178.572,2.21924,-144.976,364
1569932968,322.25,-52.6852,-14.3991,178.572,2.21924,-144.976,364
1569932968,322.25,-52.6852,-14.3991,178.572,2.21924,-144.976,364
1569932968,322.25,-52.6852,-14.3991,178.572,2.21924,-144.976,364
1569932968,322.25,-52.6852,-14.3991,178.572,2.21924,-144.976,364
1569932968,322.25,-52.6852,-14.3991,178.572,2.21924,-144.976,368
1569932968,322.25,-52.6852,-14.3991,178.572,2.21924,-144.976,368
1569932968,322.25,-52.6852,-14.3991,178.572,2.21924,-144.976,368
1569932968,322.25,-52.6852,-14.3991,178.572,2.21924,-144.976,368
1569932968,322.25,-52.6852,-14.3991,178.572,2.21924,-144.976,368
1569932968,322.25,-52.6852,-14.3991,178.572,2.21924,-144.976,368
1569932968,322.25,-52.6852,-14.3991,178.572,2.21924,-144.976,368
1569932968,322.25,-52.6852,-14.3991,178.572,2.21924,-144.976,368
1569932968,322.25,-52.6852,-14.3991,178.572,2.21924,-144.976,368
1569932968,322.25,-52.6852,-14.3991,178.572,2.21924,-144.976,368
1569932968,322.25,-52.6852,-14.3991,178.572,2.21924,-144.976,368
1569932968,322.25,-52.6852,-14.3991,178.572,2.21924,-144.976,368
1569932968,322.25,-52.6852,-14.3991,178.572,2.21924,-144.976,368
1569932968,322.25,-52.6852,-14.3991,178.572,2.21924,-144.976,368
1569932969,322.25,-52.6852,-14.3991,178.572,2.21924,-144.976,368
1569932969,322.25,-52.6852,-14.3991,178.572,2.21924,-144.976,368
1569932969,322.25,-52.6852,-14.3991,178.572,2.21924,-144.976,368
1569932969,322.25,-52.6852,-14.3991,178.572,2.21924,-144.976,368
1569932969,322.25,-52.6852,-14.3991,178.572,2.21924,-144.976,368
1569932969,322.25,-52.6852,-14.3991,178.572,2.21924,-144.976,368
1569932969,322.25,-52.6852,-14.3991,178.572,2.21924,-144.976,368
1569932969,322.25,-52.6852,-14.3991,178.572,2.21924,-144.976,368
1569932969,322.25,-52.6852,-14.3991,178.572,2.21924,-144.976,364
1569932969,322.25,-52.6852,-14.3991,178.572,2.21924,-144.976,364
1569932969,322.25,-52.6852,-14.3991,178.572,2.21924,-144.976,364
1569932969,322.25,-52.6852,-14.3991,178.572,2.21924,-144.976,364
1569932969,322.25,-52.6852,-14.3991,178.572,2.21924,-144.976,364
1569932969,322.25,-52.6852,-14.3991,178.572,2.21924,-144.976,364
1569932969,322.25,-52.6852,-14.3991,178.572,2.21924,-144.976,364
1569932969,322.25,-52.6852,-14.3991,178.572,2.21924,-144.976,364
1569932969,322.25,-52.6852,-14.3991,178.572,2.21924,-144.976,364
1569932969,322.25,-52.6852,-14.3991,178.572,2.21924,-144.976,364
1569932969,322.25,-52.6852,-14.3991,178.572,2.21924,-144.976,364
1569932969,322.25,-52.6852,-14.3991,178.572,2.21924,-144.976,364
1569932969,322.138,-52.6852,-14.3991,178.572,2.21924,-144.976,364
1569932969,322.138,-52.6852,-14.3991,178.572,2.21924,-144.976,364
1569932969,322.138,-52.6852,-14.3991,178.572,2.21924,-144.976,364
1569932969,322.138,-52.6852,-14.3991,178.572,2.21924,-144.976,364
1569932969,322.138,-52.6852,-14.3991,178.572,2.21924,-144.976,364
1569932969,322.138,-52.6852,-14.3991,178.572,2.21924,-144.976,368
1569932969,322.138,-52.6852,-14.3991,178.572,2.21924,-144.976,368
1569932969,322.138,-52.6852,-14.3991,178.572,2.21924,-144.976,368
1569932969,322.138,-52.6852,-14.3991,178.572,2.21924,-144.976,368
1569932969,322.138,-52.6852,-14.3991,178.572,2.19727,-144.976,368
1569932969,322.138,-52.6852,-14.3991,178.572,2.19727,-144.976,368
1569932969,322.138,-52.6852,-14.3991,178.572,2.19727,-144.976,368
1569932969,322.138,-52.6852,-14.3991,178.572,2.19727,-144.976,368
1569932969,322.138,-52.6852,-14.3991,178.572,2.19727,-144.976,368
1569932969,322.138,-52.6852,-14.3991,178.572,2.19727,-144.976,368
1569932969,322.138,-52.6852,-14.5107,178.572,2.19727,-144.976,368
1569932969,322.138,-52.6852,-14.5107,178.572,2.19727,-144.976,368
1569932969,322.138,-52.6852,-14.5107,178.572,2.19727,-144.976,368
1569932969,322.138,-52.6852,-14.5107,178.572,2.19727,-144.976,372
1569932969,322.138,-52.6852,-14.5107,178.572,2.19727,-144.976,372
1569932969,322.138,-52.6852,-14.5107,178.572,2.19727,-144.976,372
1569932969,322.138,-52.6852,-14.5107,178.572,2.19727,-144.976,368
1569932969,322.138,-52.6852,-14.3991,178.572,2.19727,-144.976,368
1569932969,322.138,-52.6852,-14.3991,178.572,2.19727,-144.976,368
1569932969,322.138,-52.6852,-14.3991,178.572,2.19727,-144.976,368
1569932969,322.138,-52.6852,-14.3991,178.572,2.19727,-144.976,368
1569932969,322.138,-52.6852,-14.3991,178.572,2.19727,-144.976,368
1569932969,322.138,-52.6852,-14.3991,178.572,2.19727,-144.954,368
1569932969,322.138,-52.6852,-14.3991,178.572,2.19727,-144.954,368
1569932969,322.138,-52.6852,-14.5107,178.572,2.19727,-144.954,368
1569932969,322.138,-52.6852,-14.5107,178.572,2.19727,-144.954,368
1569932969,322.138,-52.6852,-14.5107,178.572,2.19727,-144.954,368
1569932969,322.138,-52.6852,-14.5107,178.572,2.19727,-144.954,368
1569932969,322.138,-52.6852,-14.5107,178.572,2.19727,-144.976,368
1569932969,322.138,-52.6852,-14.5107,178.572,2.19727,-144.976,364
1569932969,322.25,-52.6852,-14.5107,178.572,2.19727,-144.976,364
1569932969,322.25,-52.6852,-14.5107,178.572,2.19727,-144.976,364
1569932969,322.25,-52.6852,-14.5107,178.572,2.19727,-144.976,364
1569932969,322.25,-52.6852,-14.5107,178.572,2.19727,-144.976,364
1569932969,322.138,-52.6852,-14.5107,178.572,2.19727,-144.976,364
1569932969,322.138,-52.6852,-14.5107,178.572,2.19727,-144.976,364
1569932969,322.138,-52.6852,-14.5107,178.572,2.19727,-144.976,364
1569932969,322.138,-52.6852,-14.5107,178.572,2.19727,-144.976,364
1569932969,322.138,-52.6852,-14.3991,178.572,2.19727,-144.976,364
1569932969,322.138,-52.6852,-14.3991,178.572,2.19727,-144.976,364
1569932969,322.138,-52.6852,-14.3991,178.572,2.19727,-144.976,364
1569932969,322.138,-52.6852,-14.3991,178.572,2.19727,-144.976,364
1569932969,322.138,-52.6852,-14.3991,178.572,2.19727,-144.976,364
1569932969,322.138,-52.6852,-14.3991,178.572,2.19727,-144.976,368
1569932969,322.138,-52.6852,-14.3991,178.572,2.19727,-144.976,368
1569932969,322.138,-52.6852,-14.3991,178.572,2.19727,-144.976,368
1569932969,322.138,-52.6852,-14.3991,178.572,2.19727,-144.976,368
1569932969,322.138,-52.6852,-14.3991,178.572,2.19727,-144.976,368
1569932969,322.138,-52.6852,-14.3991,178.572,2.19727,-144.976,368
1569932969,322.138,-52.6852,-14.3991,178.572,2.21924,-144.976,368
1569932969,322.138,-52.6852,-14.3991,178.572,2.21924,-144.976,368
1569932969,322.138,-52.6852,-14.3991,178.572,2.21924,-144.976,368
1569932969,322.138,-52.6852,-14.3991,178.572,2.21924,-144.976,368
1569932969,322.138,-52.6852,-14.3991,178.572,2.21924,-144.976,368
1569932969,322.138,-52.6852,-14.3991,178.572,2.21924,-144.976,368
1569932969,322.25,-52.6852,-14.3991,178.572,2.21924,-144.976,368
1569932969,322.25,-52.6852,-14.3991,178.572,2.21924,-144.976,368
1569932969,322.25,-52.6852,-14.3991,178.572,2.21924,-144.976,368
1569932969,322.25,-52.6852,-14.3991,178.572,2.21924,-144.976,368
1569932969,322.25,-52.6852,-14.3991,178.572,2.21924,-144.976,368
1569932969,322.25,-52.6852,-14.3991,178.572,2.21924,-144.976,368
1569932969,322.25,-52.6852,-14.3991,178.572,2.21924,-144.976,368
1569932969,322.25,-52.6852,-14.3991,178.572,2.21924,-144.976,368
1569932969,322.25,-52.6852,-14.3991,178.572,2.21924,-144.976,364
1569932969,322.25,-52.6852,-14.3991,178.572,2.21924,-144.976,364
1569932969,322.25,-52.6852,-14.3991,178.572,2.21924,-144.976,364
1569932969,322.25,-52.6852,-14.3991,178.572,2.21924,-144.976,364
1569932969,322.25,-52.6852,-14.3991,178.572,2.21924,-144.976,364
1569932969,322.25,-52.6852,-14.3991,178.572,2.21924,-144.976,364
1569932969,322.25,-52.6852,-14.3991,178.572,2.21924,-144.976,364
1569932969,322.25,-52.6852,-14.3991,178.572,2.21924,-144.976,364
1569932969,322.25,-52.6852,-14.3991,178.572,2.21924,-144.976,364
1569932969,322.25,-52.6852,-14.3991,178.572,2.21924,-144.976,364
1569932969,322.25,-52.6852,-14.3991,178.572,2.24121,-144.976,364
1569932969,322.25,-52.6852,-14.3991,178.572,2.24121,-144.976,364
1569932970,322.25,-52.6852,-14.3991,178.572,2.24121,-144.976,364
1569932970,322.25,-52.6852,-14.3991,178.572,2.24121,-144.976,364
1569932970,322.25,-52.6852,-14.3991,178.572,2.24121,-144.976,368
1569932970,322.25,-52.6852,-14.3991,178.572,2.24121,-144.976,368
1569932970,322.25,-52.6852,-14.3991,178.572,2.24121,-144.976,368
1569932970,322.25,-52.6852,-14.2875,178.572,2.24121,-144.976,368
1569932970,322.25,-52.6852,-14.2875,178.572,2.24121,-144.976,368
1569932970,322.25,-52.6852,-14.2875,178.572,2.24121,-144.976,372
1569932970,322.25,-52.6852,-14.2875,178.572,2.24121,-144.976,372
1569932970,322.25,-52.6852,-14.2875,178.572,2.24121,-144.976,372
1569932970,322.25,-52.6852,-14.3991,178.572,2.24121,-144.976,372
1569932970,322.25,-52.6852,-14.3991,178.572,2.24121,-144.976,372
1569932970,322.25,-52.6852,-14.3991,178.572,2.24121,-144.976,372
1569932970,322.25,-52.6852,-14.3991,178.572,2.24121,-144.976,372
1569932970,322.25,-52.6852,-14.3991,178.572,2.24121,-144.976,372
1569932970,322.25,-52.6852,-14.3991,178.572,2.24121,-144.976,372
1569932970,322.25,-52.6852,-14.3991,178.572,2.24121,-144.976,372
1569932970,322.25,-52.6852,-14.3991,178.572,2.24121,-144.976,372
1569932970,322.25,-52.6852,-14.3991,178.572,2.21924,-144.976,368
1569932970,322.25,-52.6852,-14.3991,178.572,2.21924,-144.976,368
1569932970,322.25,-52.6852,-14.3991,178.572,2.21924,-144.976,368
1569932970,322.25,-52.6852,-14.3991,178.572,2.21924,-144.976,368
1569932970,322.25,-52.6852,-14.3991,178.572,2.21924,-144.976,368
1569932970,322.25,-52.6852,-14.3991,178.572,2.21924,-144.976,368
1569932970,322.25,-52.6852,-14.3991,178.572,2.21924,-144.976,368
1569932970,322.25,-52.6852,-14.3991,178.572,2.21924,-144.976,368
1569932970,322.25,-52.6852,-14.3991,178.572,2.21924,-144.976,368
1569932970,322.25,-52.6852,-14.3991,178.572,2.21924,-144.954,368
1569932970,322.25,-52.6852,-14.3991,178.572,2.21924,-144.954,368
1569932970,322.25,-52.6852,-14.3991,178.572,2.21924,-144.954,368
1569932970,322.25,-52.6852,-14.3991,178.572,2.21924,-144.954,368
1569932970,322.25,-52.6852,-14.3991,178.572,2.21924,-144.954,368
1569932970,322.25,-52.6852,-14.3991,178.572,2.21924,-144.976,368
1569932970,322.25,-52.6852,-14.3991,178.572,2.21924,-144.976,368
1569932970,322.25,-52.6852,-14.3991,178.572,2.21924,-144.976,368
1569932970,322.25,-52.6852,-14.3991,178.572,2.21924,-144.976,368
1569932970,322.25,-52.6852,-14.3991,178.55,2.21924,-144.976,368
1569932970,322.25,-52.6852,-14.3991,178.55,2.21924,-144.976,368
1569932970,322.25,-52.6852,-14.3991,178.55,2.21924,-144.976,368
1569932970,322.25,-52.6852,-14.3991,178.55,2.21924,-144.976,364
1569932970,322.25,-52.6852,-14.3991,178.572,2.21924,-144.976,364
1569932970,322.25,-52.6852,-14.3991,178.572,2.21924,-144.976,364
1569932970,322.25,-52.6852,-14.3991,178.572,2.21924,-144.976,364
1569932970,322.25,-52.6852,-14.3991,178.572,2.21924,-144.976,364
1569932970,322.25,-52.6852,-14.3991,178.572,2.21924,-144.976,364
1569932970,322.25,-52.6852,-14.3991,178.572,2.21924,-144.976,360
1569932970,322.25,-52.6852,-14.3991,178.572,2.21924,-144.976,360
1569932970,322.25,-52.6852,-14.3991,178.572,2.21924,-144.976,360
1569932970,322.25,-52.6852,-14.3991,178.572,2.21924,-144.954,360
1569932970,322.25,-52.6852,-14.3991,178.572,2.21924,-144.954,360
1569932970,322.25,-52.6852,-14.3991,178.572,2.21924,-144.954,360
1569932970,322.25,-52.6852,-14.3991,178.572,2.21924,-144.954,360
1569932970,322.25,-52.6852,-14.3991,178.572,2.21924,-144.954,360
1569932970,322.25,-52.6852,-14.3991,178.572,2.21924,-144.954,360
1569932970,322.25,-52.6852,-14.3991,178.572,2.21924,-144.954,360
1569932970,322.25,-52.6852,-14.3991,178.594,2.21924,-144.954,360
1569932970,322.25,-52.6852,-14.3991,178.594,2.21924,-144.954,360
1569932970,322.25,-52.6852,-14.3991,178.594,2.21924,-144.954,360
1569932970,322.25,-52.6852,-14.3991,178.594,2.21924,-144.954,360
1569932970,322.25,-52.6852,-14.3991,178.594,2.21924,-144.954,360
1569932970,322.25,-52.6852,-14.3991,178.594,2.21924,-144.954,360
1569932970,322.25,-52.6852,-14.3991,178.594,2.21924,-144.954,360
1569932970,322.25,-52.6852,-14.3991,178.594,2.19727,-144.954,360
1569932970,322.25,-52.6852,-14.3991,178.594,2.19727,-144.954,360
1569932970,322.25,-52.6852,-14.5107,178.594,2.19727,-144.954,360
1569932970,322.25,-52.6852,-14.5107,178.594,2.19727,-144.954,360
1569932970,322.25,-52.6852,-14.5107,178.594,2.19727,-144.954,360
1569932970,322.25,-52.6852,-14.5107,178.594,2.19727,-144.954,360
1569932970,322.25,-52.6852,-14.5107,178.594,2.19727,-144.954,360
1569932970,322.25,-52.6852,-14.5107,178.616,2.19727,-144.954,360
1569932970,322.25,-52.5735,-14.5107,178.616,2.19727,-144.954,356
1569932970,322.25,-52.5735,-14.5107,178.616,2.19727,-144.976,356
1569932970,322.25,-52.5735,-14.5107,178.616,2.19727,-144.976,356
1569932970,322.25,-52.5735,-14.5107,178.616,2.19727,-144.976,356
1569932970,322.25,-52.5735,-14.5107,178.616,2.19727,-144.976,356
1569932970,322.25,-52.5735,-14.3991,178.616,2.19727,-144.976,356
1569932970,322.25,-52.5735,-14.3991,178.616,2.19727,-144.976,356
1569932970,322.25,-52.5735,-14.3991,178.616,2.19727,-144.976,356
1569932970,322.25,-52.5735,-14.3991,178.616,2.19727,-144.976,356
1569932970,322.25,-52.5735,-14.3991,178.616,2.19727,-144.976,356
1569932970,322.25,-52.5735,-14.3991,178.616,2.21924,-144.976,356
1569932970,322.25,-52.5735,-14.3991,178.616,2.21924,-144.976,356
1569932970,322.25,-52.5735,-14.3991,178.616,2.21924,-144.976,356
1569932970,322.25,-52.5735,-14.3991,178.616,2.21924,-144.976,356
1569932970,322.25,-52.5735,-14.3991,178.616,2.21924,-144.976,356
1569932970,322.25,-52.5735,-14.3991,178.616,2.21924,-144.976,360
1569932970,322.25,-52.5735,-14.3991,178.616,2.21924,-144.976,360
1569932970,322.25,-52.5735,-14.3991,178.616,2.21924,-144.976,360
1569932970,322.25,-52.5735,-14.3991,178.616,2.21924,-144.976,360
1569932970,322.25,-52.5735,-14.3991,178.616,2.21924,-144.976,360
1569932970,322.25,-52.5735,-14.3991,178.616,2.21924,-144.976,360
1569932970,322.25,-52.5735,-14.3991,178.616,2.21924,-144.976,360
1569932970,322.25,-52.5735,-14.3991,178.616,2.21924,-144.976,360
1569932970,322.25,-52.5735,-14.3991,178.616,2.21924,-144.976,360
1569932970,322.25,-52.6852,-14.3991,178.594,2.21924,-144.976,360
1569932970,322.25,-52.6852,-14.3991,178.594,2.21924,-144.976,360
1569932970,322.25,-52.6852,-14.3991,178.594,2.21924,-144.976,360
1569932970,322.25,-52.6852,-14.3991,178.594,2.21924,-144.976,360
1569932970,322.25,-52.6852,-14.3991,178.594,2.21924,-144.976,360
1569932970,322.25,-52.6852,-14.3991,178.594,2.21924,-144.976,360
1569932971,322.25,-52.6852,-14.3991,178.594,2.21924,-144.976,360
1569932971,322.25,-52.6852,-14.3991,178.594,2.21924,-144.976,360
1569932971,322.25,-52.6852,-14.3991,178.594,2.21924,-144.976,360
1569932971,322.25,-52.6852,-14.3991,178.594,2.21924,-144.976,360
1569932971,322.25,-52.6852,-14.3991,178.594,2.21924,-144.976,360
1569932971,322.25,-52.6852,-14.3991,178.594,2.21924,-144.976,360
1569932971,322.25,-52.6852,-14.3991,178.572,2.21924,-144.976,360
1569932971,322.25,-52.6852,-14.3991,178.572,2.21924,-144.976,356
1569932971,322.25,-52.6852,-14.3991,178.572,2.21924,-144.976,356
1569932971,322.25,-52.6852,-14.3991,178.572,2.21924,-144.976,356
1569932971,322.25,-52.6852,-14.3991,178.572,2.21924,-144.976,356
1569932971,322.25,-52.6852,-14.3991,178.572,2.21924,-144.976,356
1569932971,322.25,-52.6852,-14.3991,178.572,2.21924,-144.976,356
1569932971,322.25,-52.6852,-14.3991,178.572,2.21924,-144.976,356
1569932971,322.25,-52.6852,-14.3991,178.572,2.21924,-144.976,356
1569932971,322.25,-52.6852,-14.3991,178.572,2.21924,-144.976,356
1569932971,322.25,-52.6852,-14.3991,178.572,2.21924,-144.976,356
1569932971,322.25,-52.6852,-14.3991,178.572,2.21924,-144.976,356
1569932971,322.25,-52.6852,-14.3991,178.572,2.21924,-144.976,356
1569932971,322.25,-52.6852,-14.3991,178.572,2.21924,-144.976,356
1569932971,322.25,-52.6852,-14.3991,178.572,2.21924,-144.976,356
1569932971,322.25,-52.6852,-14.3991,178.572,2.21924,-144.976,356
1569932971,322.25,-52.6852,-14.3991,178.572,2.21924,-144.976,356
1569932971,322.25,-52.6852,-14.3991,178.572,2.21924,-144.954,356
1569932971,322.25,-52.6852,-14.3991,178.572,2.21924,-144.954,356
1569932971,322.25,-52.6852,-14.3991,178.572,2.21924,-144.954,356
1569932971,322.25,-52.6852,-14.3991,178.572,2.21924,-144.954,356
1569932971,322.25,-52.6852,-14.3991,178.572,2.21924,-144.954,356
1569932971,322.25,-52.6852,-14.3991,178.594,2.21924,-144.954,356
1569932971,322.25,-52.6852,-14.3991,178.572,2.21924,-144.954,356
1569932971,322.25,-52.6852,-14.3991,178.572,2.21924,-144.954,356
1569932971,322.25,-52.6852,-14.3991,178.572,2.21924,-144.954,356
1569932971,322.25,-52.6852,-14.3991,178.572,2.21924,-144.954,356
1569932971,322.25,-52.6852,-14.3991,178.572,2.21924,-144.954,356
1569932971,322.25,-52.6852,-14.3991,178.572,2.21924,-144.954,356
1569932971,322.25,-52.6852,-14.3991,178.572,2.21924,-144.954,356
1569932971,322.25,-52.6852,-14.3991,178.572,2.21924,-144.954,356
1569932971,322.25,-52.6852,-14.3991,178.572,2.21924,-144.954,356
1569932971,322.25,-52.6852,-14.3991,178.572,2.21924,-144.954,356
1569932971,322.25,-52.6852,-14.3991,178.572,2.21924,-144.954,356
1569932971,322.25,-52.6852,-14.3991,178.572,2.21924,-144.954,360
1569932971,322.25,-52.6852,-14.3991,178.572,2.21924,-144.954,360
1569932971,322.25,-52.6852,-14.3991,178.572,2.21924,-144.954,360
1569932971,322.25,-52.6852,-14.3991,178.572,2.24121,-144.954,360
1569932971,322.25,-52.6852,-14.3991,178.572,2.24121,-144.954,360
1569932971,322.25,-52.6852,-14.3991,178.572,2.24121,-144.954,360
1569932971,322.25,-52.6852,-14.3991,178.572,2.24121,-144.954,364
1569932971,322.25,-52.6852,-14.3991,178.572,2.24121,-144.976,364
1569932971,322.25,-52.6852,-14.3991,178.572,2.24121,-144.976,364
1569932971,322.25,-52.6852,-14.3991,178.572,2.21924,-144.976,364
1569932971,322.25,-52.7968,-14.3991,178.572,2.21924,-144.976,364
1569932971,322.25,-52.7968,-14.3991,178.572,2.21924,-144.976,364
1569932971,322.25,-52.7968,-14.3991,178.572,2.21924,-144.976,364
1569932971,322.25,-52.6852,-14.3991,178.572,2.21924,-144.976,364
1569932971,322.25,-52.6852,-14.3991,178.572,2.21924,-144.976,364
1569932971,322.25,-52.6852,-14.3991,178.572,2.21924,-144.976,364
1569932971,322.25,-52.6852,-14.3991,178.572,2.21924,-144.976,364
1569932971,322.25,-52.6852,-14.3991,178.572,2.21924,-144.976,364
1569932971,322.25,-52.6852,-14.3991,178.572,2.21924,-144.976,364
1569932971,322.25,-52.6852,-14.3991,178.572,2.21924,-144.976,364
1569932971,322.25,-52.6852,-14.3991,178.572,2.21924,-144.976,364
1569932971,322.25,-52.6852,-14.3991,178.572,2.21924,-144.976,368
1569932971,322.25,-52.6852,-14.3991,178.55,2.21924,-144.976,368
1569932971,322.25,-52.7968,-14.3991,178.55,2.21924,-144.976,368
1569932971,322.25,-52.7968,-14.3991,178.55,2.21924,-144.976,368
1569932971,322.25,-52.7968,-14.3991,178.55,2.21924,-144.976,368
1569932971,322.25,-52.7968,-14.3991,178.55,2.21924,-144.976,368
1569932971,322.25,-52.7968,-14.3991,178.55,2.21924,-144.976,368
1569932971,322.25,-52.7968,-14.3991,178.55,2.21924,-144.976,368
1569932971,322.25,-52.7968,-14.3991,178.55,2.24121,-144.976,368
1569932971,322.25,-52.7968,-14.3991,178.55,2.24121,-144.976,368
1569932971,322.25,-52.7968,-14.3991,178.55,2.24121,-144.976,368
1569932971,322.25,-52.7968,-14.3991,178.55,2.24121,-144.976,368
1569932971,322.25,-52.7968,-14.3991,178.55,2.24121,-144.976,368
1569932971,322.25,-52.7968,-14.3991,178.55,2.24121,-144.976,368
1569932971,322.25,-52.7968,-14.3991,178.55,2.21924,-144.976,368
1569932971,322.25,-52.7968,-14.3991,178.55,2.21924,-144.976,368
1569932971,322.25,-52.7968,-14.3991,178.572,2.21924,-144.976,368
1569932971,322.25,-52.7968,-14.3991,178.572,2.21924,-144.976,368
1569932971,322.25,-52.7968,-14.3991,178.572,2.21924,-144.976,364
1569932971,322.25,-52.6852,-14.3991,178.572,2.21924,-144.976,364
1569932971,322.25,-52.6852,-14.3991,178.572,2.21924,-144.976,364
1569932971,322.25,-52.6852,-14.3991,178.572,2.21924,-144.976,364
1569932971,322.25,-52.6852,-14.3991,178.572,2.21924,-144.976,364
1569932971,322.25,-52.6852,-14.3991,178.572,2.21924,-144.976,364
1569932971,322.25,-52.6852,-14.3991,178.572,2.21924,-144.976,364
1569932971,322.25,-52.6852,-14.3991,178.572,2.21924,-144.976,364
1569932971,322.25,-52.6852,-14.3991,178.572,2.21924,-144.976,364
