time,x,y,z,ax,ay,az,q
1567848568,322.585,-96.2174,-17.078,179.692,1.3623,-155.281,248
1567848568,322.585,-96.2174,-17.078,179.692,1.3623,-155.281,248
1567848568,322.585,-96.2174,-17.078,179.714,1.38428,-155.281,248
1567848568,322.585,-96.2174,-17.078,179.714,1.38428,-155.281,248
1567848568,322.585,-96.2174,-17.078,179.714,1.38428,-155.281,248
1567848568,322.585,-96.2174,-17.078,179.714,1.38428,-155.281,248
1567848568,322.585,-96.2174,-17.078,179.714,1.38428,-155.281,248
1567848568,322.585,-96.2174,-17.078,179.714,1.38428,-155.281,248
1567848568,322.585,-96.2174,-17.078,179.714,1.38428,-155.281,248
1567848568,322.585,-96.2174,-17.078,179.714,1.38428,-155.281,248
1567848568,322.585,-96.2174,-17.078,179.714,1.38428,-155.281,248
1567848568,322.585,-96.2174,-17.078,179.714,1.38428,-155.281,248
1567848568,322.585,-96.2174,-17.078,179.714,1.38428,-155.281,248
1567848568,322.585,-96.2174,-17.078,179.714,1.38428,-155.281,252
1567848568,322.585,-96.2174,-17.078,179.714,1.38428,-155.281,252
1567848568,322.585,-96.2174,-17.078,179.714,1.38428,-155.281,252
1567848568,322.585,-96.2174,-17.078,179.714,1.38428,-155.281,252
1567848568,322.585,-96.2174,-17.078,179.714,1.38428,-155.281,252
1567848568,322.585,-96.2174,-17.078,179.714,1.38428,-155.281,252
1567848568,322.585,-96.2174,-17.078,179.714,1.38428,-155.281,252
1567848569,322.585,-96.2174,-17.078,179.714,1.3623,-155.281,252
1567848569,322.585,-96.2174,-17.078,179.714,1.3623,-155.281,252
1567848569,322.585,-96.2174,-17.078,179.714,1.3623,-155.281,252
1567848569,322.585,-96.2174,-17.078,179.714,1.3623,-155.281,252
1567848569,322.585,-96.2174,-17.078,179.714,1.3623,-155.281,252
1567848569,322.585,-96.2174,-17.078,179.714,1.3623,-155.281,252
1567848569,322.585,-96.2174,-17.078,179.692,1.3623,-155.281,252
1567848569,322.585,-96.2174,-17.078,179.692,1.3623,-155.281,252
1567848569,322.585,-96.2174,-17.078,179.692,1.3623,-155.281,252
1567848569,322.585,-96.329,-17.078,179.692,1.3623,-155.281,252
1567848569,322.585,-96.329,-17.078,179.692,1.3623,-155.281,252
1567848569,322.585,-96.329,-17.078,179.692,1.3623,-155.281,252
1567848569,322.585,-96.329,-17.078,179.692,1.3623,-155.281,252
1567848569,322.585,-96.329,-17.078,179.692,1.3623,-155.281,252
1567848569,322.585,-96.329,-17.078,179.692,1.3623,-155.281,252
1567848569,322.585,-96.329,-17.078,179.692,1.3623,-155.281,252
1567848569,322.585,-96.329,-17.078,179.692,1.3623,-155.281,252
1567848569,322.585,-96.329,-17.078,179.692,1.3623,-155.281,252
1567848569,322.585,-96.2174,-17.078,179.692,1.3623,-155.281,252
1567848569,322.585,-96.2174,-17.078,179.692,1.3623,-155.281,252
1567848569,322.585,-96.2174,-17.078,179.692,1.3623,-155.281,252
1567848569,322.585,-96.2174,-17.078,179.692,1.3623,-155.281,252
1567848569,322.585,-96.329,-17.078,179.692,1.3623,-155.303,252
1567848569,322.585,-96.329,-17.078,179.692,1.3623,-155.303,252
1567848569,322.585,-96.329,-17.078,179.692,1.3623,-155.303,252
1567848569,322.585,-96.329,-17.078,179.692,1.3623,-155.303,252
1567848569,322.585,-96.329,-17.1896,179.692,1.3623,-155.303,252
1567848569,322.585,-96.329,-17.1896,179.692,1.3623,-155.303,252
1567848569,322.585,-96.329,-17.078,179.692,1.3623,-155.303,252
1567848569,322.585,-96.329,-17.078,179.692,1.3623,-155.303,248
1567848569,322.585,-96.329,-17.078,179.692,1.3623,-155.303,248
1567848569,322.585,-96.329,-17.078,179.692,1.3623,-155.303,248
1567848569,322.585,-96.329,-17.078,179.692,1.3623,-155.303,248
1567848569,322.585,-96.329,-17.078,179.692,1.3623,-155.303,248
1567848569,322.585,-96.329,-17.078,179.692,1.3623,-155.303,248
1567848569,322.585,-96.329,-17.078,179.692,1.3623,-155.303,248
1567848569,322.585,-96.2174,-17.078,179.692,1.38428,-155.303,248
1567848569,322.585,-96.2174,-17.078,179.692,1.38428,-155.303,248
1567848569,322.585,-96.2174,-17.078,179.714,1.38428,-155.303,248
1567848569,322.585,-96.2174,-17.078,179.714,1.38428,-155.303,248
1567848569,322.585,-96.2174,-17.1896,179.714,1.38428,-155.303,248
1567848569,322.585,-96.2174,-17.1896,179.714,1.3623,-155.303,248
1567848569,322.585,-96.2174,-17.1896,179.714,1.3623,-155.303,248
1567848569,322.585,-96.2174,-17.1896,179.714,1.3623,-155.303,248
1567848569,322.585,-96.2174,-17.1896,179.714,1.3623,-155.303,248
1567848569,322.585,-96.2174,-17.1896,179.714,1.3623,-155.303,248
1567848569,322.585,-96.2174,-17.1896,179.714,1.3623,-155.303,248
1567848569,322.585,-96.2174,-17.1896,179.714,1.3623,-155.303,248
1567848569,322.585,-96.2174,-17.1896,179.714,1.3623,-155.303,248
1567848569,322.585,-96.2174,-17.1896,179.714,1.3623,-155.303,248
1567848569,322.585,-96.2174,-17.1896,179.714,1.3623,-155.303,248
1567848569,322.585,-96.2174,-17.1896,179.714,1.3623,-155.303,248
1567848569,322.585,-96.2174,-17.1896,179.714,1.3623,-155.303,248
1567848569,322.585,-96.2174,-17.1896,179.692,1.3623,-155.303,248
1567848569,322.585,-96.329,-17.1896,179.692,1.3623,-155.303,248
1567848569,322.585,-96.329,-17.1896,179.692,1.3623,-155.303,248
1567848569,322.585,-96.329,-17.1896,179.692,1.3623,-155.303,248
1567848569,322.585,-96.329,-17.1896,179.692,1.3623,-155.303,248
1567848569,322.585,-96.329,-17.078,179.692,1.3623,-155.303,244
1567848569,322.585,-96.329,-17.078,179.692,1.3623,-155.303,244
1567848569,322.585,-96.329,-17.078,179.692,1.3623,-155.303,244
1567848569,322.585,-96.329,-17.078,179.692,1.3623,-155.303,244
1567848569,322.585,-96.329,-17.078,179.692,1.3623,-155.281,244
1567848569,322.585,-96.329,-17.078,179.692,1.3623,-155.281,244
1567848569,322.585,-96.329,-17.078,179.692,1.3623,-155.281,244
1567848569,322.585,-96.329,-17.078,179.692,1.38428,-155.281,240
1567848569,322.585,-96.329,-17.078,179.692,1.3623,-155.281,240
1567848569,322.585,-96.329,-17.078,179.692,1.3623,-155.281,240
1567848569,322.585,-96.329,-17.078,179.692,1.3623,-155.281,240
1567848569,322.585,-96.329,-17.078,179.692,1.3623,-155.303,240
1567848569,322.585,-96.329,-17.078,179.692,1.3623,-155.303,240
1567848569,322.585,-96.329,-17.078,179.692,1.3623,-155.303,240
1567848569,322.585,-96.329,-17.078,179.692,1.3623,-155.303,240
1567848569,322.585,-96.329,-17.078,179.692,1.3623,-155.303,240
1567848569,322.585,-96.329,-17.1896,179.692,1.3623,-155.303,240
1567848569,322.585,-96.329,-17.1896,179.692,1.3623,-155.303,240
1567848569,322.585,-96.329,-17.1896,179.692,1.3623,-155.303,240
1567848569,322.585,-96.329,-17.1896,179.692,1.3623,-155.303,240
1567848569,322.585,-96.329,-17.1896,179.692,1.3623,-155.303,240
1567848569,322.585,-96.2174,-17.1896,179.692,1.3623,-155.281,240
1567848569,322.585,-96.2174,-17.1896,179.714,1.3623,-155.281,240
1567848569,322.585,-96.2174,-17.1896,179.714,1.3623,-155.281,240
1567848569,322.585,-96.2174,-17.1896,179.714,1.3623,-155.281,240
1567848569,322.585,-96.2174,-17.1896,179.714,1.3623,-155.281,240
1567848569,322.585,-96.2174,-17.078,179.714,1.3623,-155.281,240
1567848569,322.585,-96.2174,-17.078,179.714,1.3623,-155.281,244
1567848569,322.585,-96.2174,-17.078,179.714,1.3623,-155.281,244
1567848569,322.585,-96.2174,-17.078,179.714,1.3623,-155.281,244
1567848569,322.585,-96.2174,-17.078,179.714,1.3623,-155.281,244
1567848569,322.585,-96.2174,-17.078,179.714,1.3623,-155.281,244
1567848569,322.585,-96.2174,-17.078,179.714,1.3623,-155.281,244
1567848569,322.585,-96.2174,-17.078,179.714,1.3623,-155.281,244
1567848569,322.585,-96.2174,-17.078,179.714,1.3623,-155.281,244
1567848569,322.585,-96.2174,-17.078,179.714,1.3623,-155.281,244
1567848569,322.585,-96.2174,-17.1896,179.714,1.3623,-155.281,244
1567848569,322.585,-96.2174,-17.1896,179.714,1.3623,-155.281,244
1567848569,322.585,-96.2174,-17.1896,179.736,1.3623,-155.281,248
1567848569,322.585,-96.2174,-17.1896,179.736,1.3623,-155.281,248
1567848569,322.585,-96.2174,-17.1896,179.736,1.3623,-155.281,248
1567848569,322.585,-96.2174,-17.1896,179.736,1.3623,-155.281,248
1567848570,322.585,-96.2174,-17.1896,179.736,1.3623,-155.281,248
1567848570,322.585,-96.2174,-17.1896,179.736,1.34033,-155.281,252
1567848570,322.585,-96.2174,-17.1896,179.714,1.34033,-155.281,252
1567848570,322.585,-96.2174,-17.1896,179.714,1.34033,-155.281,252
1567848570,322.585,-96.2174,-17.1896,179.714,1.34033,-155.281,252
1567848570,322.585,-96.2174,-17.1896,179.714,1.34033,-155.281,256
1567848570,322.585,-96.2174,-17.1896,179.714,1.34033,-155.281,256
1567848570,322.585,-96.2174,-17.1896,179.714,1.34033,-155.281,256
1567848570,322.585,-96.2174,-17.1896,179.714,1.34033,-155.281,256
1567848570,322.585,-96.2174,-17.1896,179.714,1.3623,-155.281,256
1567848570,322.585,-96.2174,-17.1896,179.714,1.3623,-155.281,256
1567848570,322.585,-96.2174,-17.1896,179.714,1.3623,-155.281,256
1567848570,322.585,-96.2174,-17.1896,179.714,1.3623,-155.281,256
1567848570,322.585,-96.2174,-17.078,179.714,1.3623,-155.281,256
1567848570,322.585,-96.2174,-17.078,179.714,1.3623,-155.281,256
1567848570,322.585,-96.2174,-17.078,179.714,1.3623,-155.281,256
1567848570,322.585,-96.2174,-17.078,179.714,1.3623,-155.281,256
1567848570,322.585,-96.2174,-17.078,179.714,1.3623,-155.281,256
1567848570,322.585,-96.2174,-17.078,179.714,1.3623,-155.281,256
1567848570,322.585,-96.2174,-17.1896,179.714,1.3623,-155.281,256
1567848570,322.585,-96.2174,-17.1896,179.714,1.3623,-155.281,252
1567848570,322.585,-96.329,-17.1896,179.714,1.3623,-155.281,252
1567848570,322.585,-96.329,-17.1896,179.714,1.3623,-155.281,252
1567848570,322.585,-96.329,-17.1896,179.692,1.3623,-155.281,252
1567848570,322.585,-96.329,-17.1896,179.692,1.34033,-155.281,252
1567848570,322.585,-96.329,-17.1896,179.692,1.34033,-155.281,252
1567848570,322.585,-96.329,-17.1896,179.692,1.34033,-155.281,252
1567848570,322.585,-96.329,-17.1896,179.692,1.34033,-155.281,248
1567848570,322.585,-96.329,-17.1896,179.692,1.34033,-155.281,248
1567848570,322.697,-96.329,-17.1896,179.714,1.34033,-155.281,248
1567848570,322.697,-96.329,-17.1896,179.714,1.34033,-155.281,248
1567848570,322.697,-96.329,-17.1896,179.714,1.34033,-155.281,244
1567848570,322.697,-96.329,-17.1896,179.714,1.34033,-155.281,244
1567848570,322.697,-96.329,-17.1896,179.714,1.34033,-155.281,244
1567848570,322.697,-96.329,-17.1896,179.714,1.34033,-155.281,244
1567848570,322.697,-96.329,-17.1896,179.714,1.34033,-155.281,244
1567848570,322.697,-96.2174,-17.1896,179.714,1.34033,-155.281,244
1567848570,322.697,-96.2174,-17.1896,179.714,1.34033,-155.281,244
1567848570,322.697,-96.329,-17.1896,179.714,1.3623,-155.281,244
1567848570,322.697,-96.329,-17.1896,179.714,1.3623,-155.281,244
1567848570,322.697,-96.329,-17.1896,179.714,1.3623,-155.281,244
1567848570,322.697,-96.329,-17.078,179.714,1.3623,-155.281,244
1567848570,322.697,-96.329,-17.078,179.714,1.3623,-155.281,240
1567848570,322.697,-96.329,-17.078,179.714,1.3623,-155.259,240
1567848570,322.697,-96.329,-17.078,179.714,1.3623,-155.259,240
1567848570,322.697,-96.329,-17.078,179.714,1.38428,-155.259,240
1567848570,322.585,-96.329,-17.078,179.692,1.38428,-155.259,240
1567848570,322.585,-96.329,-17.078,179.692,1.38428,-155.259,240
1567848570,322.585,-96.329,-17.078,179.714,1.38428,-155.259,240
1567848570,322.585,-96.329,-17.078,179.714,1.38428,-155.281,240
1567848570,322.585,-96.329,-17.078,179.714,1.38428,-155.281,240
1567848570,322.585,-96.329,-17.078,179.714,1.38428,-155.281,240
1567848570,322.585,-96.329,-17.078,179.714,1.38428,-155.281,240
1567848570,322.585,-96.329,-17.078,179.714,1.38428,-155.281,240
1567848570,322.585,-96.329,-17.078,179.714,1.38428,-155.281,240
1567848570,322.585,-96.329,-17.078,179.714,1.38428,-155.281,240
1567848570,322.697,-96.2174,-17.078,179.714,1.38428,-155.281,240
1567848570,322.697,-96.2174,-17.078,179.714,1.38428,-155.281,244
1567848570,322.697,-96.2174,-17.078,179.714,1.38428,-155.281,244
1567848570,322.697,-96.2174,-17.078,179.714,1.38428,-155.281,244
1567848570,322.697,-96.2174,-17.078,179.714,1.38428,-155.281,244
1567848570,322.697,-96.2174,-17.078,179.714,1.38428,-155.281,244
1567848570,322.697,-96.329,-17.078,179.714,1.38428,-155.281,244
1567848570,322.585,-96.329,-17.078,179.714,1.38428,-155.281,244
1567848570,322.585,-96.329,-17.078,179.714,1.38428,-155.281,244
1567848570,322.585,-96.329,-17.078,179.714,1.38428,-155.281,244
1567848570,322.585,-96.329,-17.078,179.714,1.38428,-155.281,244
1567848570,322.585,-96.329,-17.078,179.714,1.38428,-155.281,244
1567848570,322.585,-96.329,-17.078,179.692,1.38428,-155.281,244
1567848570,322.585,-96.329,-17.078,179.692,1.38428,-155.281,244
1567848570,322.585,-96.329,-17.078,179.692,1.38428,-155.281,244
1567848570,322.585,-96.329,-17.078,179.692,1.38428,-155.281,240
1567848570,322.585,-96.329,-17.078,179.692,1.38428,-155.281,240
1567848570,322.585,-96.329,-17.078,179.692,1.38428,-155.281,240
1567848570,322.585,-96.329,-17.078,179.692,1.38428,-155.281,240
1567848570,322.585,-96.329,-17.078,179.692,1.3623,-155.281,240
1567848570,322.585,-96.329,-17.078,179.692,1.3623,-155.303,240
1567848570,322.585,-96.329,-17.078,179.692,1.3623,-155.303,240
1567848570,322.585,-96.329,-17.078,179.692,1.3623,-155.303,240
1567848570,322.585,-96.329,-17.078,179.692,1.3623,-155.303,240
1567848570,322.585,-96.329,-17.078,179.692,1.3623,-155.303,240
1567848570,322.585,-96.329,-17.078,179.692,1.3623,-155.303,240
1567848570,322.585,-96.329,-17.078,179.692,1.3623,-155.303,240
1567848570,322.585,-96.329,-17.078,179.692,1.3623,-155.303,240
1567848570,322.585,-96.329,-17.078,179.692,1.3623,-155.303,240
1567848570,322.585,-96.329,-17.078,179.692,1.3623,-155.303,240
1567848570,322.585,-96.329,-17.078,179.692,1.3623,-155.303,240
1567848570,322.585,-96.329,-17.078,179.692,1.3623,-155.303,240
1567848570,322.585,-96.329,-17.078,179.692,1.3623,-155.281,240
1567848570,322.585,-96.329,-17.078,179.692,1.3623,-155.281,240
1567848570,322.585,-96.329,-17.078,179.692,1.3623,-155.281,240
1567848570,322.585,-96.329,-17.078,179.692,1.3623,-155.281,240
1567848570,322.585,-96.329,-17.078,179.692,1.3623,-155.281,240
1567848570,322.585,-96.329,-17.078,179.692,1.3623,-155.281,240
1567848570,322.585,-96.329,-17.078,179.692,1.3623,-155.281,244
1567848570,322.585,-96.329,-17.078,179.692,1.3623,-155.281,244
1567848570,322.585,-96.329,-17.078,179.692,1.3623,-155.281,244
1567848570,322.585,-96.329,-17.078,179.692,1.3623,-155.281,244
1567848570,322.585,-96.329,-17.078,179.692,1.38428,-155.281,244
1567848570,322.585,-96.329,-17.078,179.692,1.38428,-155.281,244
1567848571,322.585,-96.329,-17.078,179.692,1.38428,-155.281,244
1567848571,322.585,-96.329,-17.078,179.692,1.38428,-155.281,244
1567848571,322.585,-96.329,-17.078,179.692,1.38428,-155.281,248
1567848571,322.585,-96.329,-17.078,179.692,1.38428,-155.281,248
1567848571,322.585,-96.329,-17.078,179.692,1.38428,-155.281,248
1567848571,322.585,-96.329,-17.078,179.692,1.38428,-155.281,248
1567848571,322.697,-96.329,-17.078,179.692,1.38428,-155.281,248
1567848571,322.697,-96.329,-17.078,179.692,1.38428,-155.281,248
1567848571,322.697,-96.329,-17.078,179.692,1.38428,-155.281,248
1567848571,322.697,-96.329,-17.078,179.714,1.38428,-155.281,248
1567848571,322.585,-96.329,-17.078,179.714,1.38428,-155.281,248
1567848571,322.585,-96.329,-17.078,179.714,1.38428,-155.281,248
1567848571,322.585,-96.329,-17.078,179.714,1.38428,-155.281,248
1567848571,322.585,-96.329,-17.078,179.714,1.3623,-155.281,248
1567848571,322.585,-96.329,-17.078,179.714,1.3623,-155.281,248
1567848571,322.585,-96.329,-17.078,179.714,1.3623,-155.281,248
1567848571,322.697,-96.329,-17.078,179.714,1.3623,-155.281,248
1567848571,322.697,-96.329,-17.078,179.714,1.3623,-155.281,248
1567848571,322.697,-96.329,-17.078,179.714,1.3623,-155.281,248
1567848571,322.697,-96.329,-17.078,179.714,1.3623,-155.281,248
1567848571,322.697,-96.329,-17.078,179.714,1.3623,-155.281,248
1567848571,322.697,-96.2174,-17.078,179.714,1.3623,-155.281,248
1567848571,322.697,-96.329,-17.1896,179.714,1.3623,-155.281,248
1567848571,322.697,-96.329,-17.1896,179.714,1.3623,-155.281,244
1567848571,322.697,-96.329,-17.1896,179.714,1.3623,-155.281,244
1567848571,322.697,-96.329,-17.1896,179.714,1.3623,-155.281,244
1567848571,322.697,-96.329,-17.1896,179.714,1.3623,-155.281,244
1567848571,322.697,-96.329,-17.1896,179.714,1.3623,-155.281,244
1567848571,322.697,-96.329,-17.078,179.714,1.3623,-155.281,244
1567848571,322.697,-96.329,-17.078,179.714,1.3623,-155.281,244
1567848571,322.697,-96.329,-17.078,179.714,1.3623,-155.281,244
1567848571,322.697,-96.329,-17.078,179.692,1.3623,-155.281,244
1567848571,322.697,-96.329,-17.078,179.692,1.38428,-155.281,244
1567848571,322.697,-96.329,-17.078,179.692,1.38428,-155.281,244
1567848571,322.697,-96.329,-17.078,179.692,1.38428,-155.281,244
1567848571,322.697,-96.329,-17.078,179.714,1.38428,-155.281,244
1567848571,322.697,-96.329,-17.078,179.714,1.38428,-155.281,248
1567848571,322.697,-96.329,-17.078,179.714,1.38428,-155.281,248
1567848571,322.697,-96.329,-17.078,179.714,1.38428,-155.281,248
1567848571,322.697,-96.329,-17.078,179.714,1.38428,-155.281,248
1567848571,322.697,-96.329,-17.078,179.714,1.38428,-155.259,248
1567848571,322.697,-96.329,-17.078,179.714,1.38428,-155.259,248
1567848571,322.697,-96.329,-17.078,179.714,1.38428,-155.259,244
1567848571,322.697,-96.329,-17.078,179.714,1.38428,-155.259,244
1567848571,322.697,-96.329,-17.078,179.714,1.38428,-155.259,244
1567848571,322.697,-96.329,-17.078,179.714,1.38428,-155.281,244
1567848571,322.697,-96.329,-17.078,179.714,1.3623,-155.281,244
1567848571,322.697,-96.329,-17.078,179.714,1.3623,-155.281,244
1567848571,322.697,-96.329,-17.078,179.714,1.3623,-155.281,244
1567848571,322.585,-96.329,-17.078,179.714,1.3623,-155.281,244
1567848571,322.585,-96.329,-17.078,179.714,1.3623,-155.281,244
1567848571,322.585,-96.329,-17.078,179.714,1.3623,-155.281,244
1567848571,322.585,-96.329,-17.078,179.714,1.3623,-155.281,244
1567848571,322.585,-96.329,-17.078,179.714,1.3623,-155.281,244
1567848571,322.585,-96.329,-17.078,179.714,1.38428,-155.281,244
1567848571,322.585,-96.329,-17.078,179.714,1.38428,-155.281,244
1567848571,322.585,-96.329,-17.078,179.714,1.38428,-155.281,240
1567848571,322.585,-96.329,-17.078,179.714,1.38428,-155.281,240
1567848571,322.585,-96.329,-17.078,179.714,1.38428,-155.281,240
1567848571,322.585,-96.329,-17.078,179.714,1.38428,-155.281,240
1567848571,322.585,-96.329,-17.078,179.714,1.38428,-155.281,240
1567848571,322.585,-96.329,-17.078,179.714,1.38428,-155.281,244
1567848571,322.585,-96.329,-17.078,179.714,1.38428,-155.281,244
1567848571,322.585,-96.2174,-17.078,179.714,1.38428,-155.281,244
1567848571,322.585,-96.2174,-17.078,179.714,1.38428,-155.281,244
1567848571,322.585,-96.2174,-17.078,179.714,1.38428,-155.281,244
1567848571,322.585,-96.2174,-17.078,179.714,1.38428,-155.281,244
1567848571,322.585,-96.2174,-17.078,179.714,1.38428,-155.281,244
1567848571,322.697,-96.2174,-17.078,179.714,1.38428,-155.281,244
1567848571,322.697,-96.2174,-17.078,179.714,1.38428,-155.281,244
1567848571,322.697,-96.2174,-17.078,179.736,1.38428,-155.281,244
1567848571,322.697,-96.2174,-17.078,179.736,1.38428,-155.281,244
1567848571,322.697,-96.2174,-17.078,179.736,1.38428,-155.281,244
1567848571,322.697,-96.2174,-17.078,179.736,1.38428,-155.281,244
1567848571,322.697,-96.2174,-17.078,179.736,1.38428,-155.281,244
1567848571,322.697,-96.2174,-17.078,179.736,1.38428,-155.281,244
1567848571,322.697,-96.2174,-17.078,179.736,1.38428,-155.281,240
1567848571,322.697,-96.2174,-17.078,179.736,1.38428,-155.281,240
1567848571,322.697,-96.2174,-17.078,179.736,1.38428,-155.281,240
1567848571,322.697,-96.2174,-17.078,179.736,1.38428,-155.281,240
1567848571,322.697,-96.2174,-17.078,179.736,1.38428,-155.281,240
1567848571,322.697,-96.2174,-17.078,179.736,1.38428,-155.281,240
1567848571,322.697,-96.2174,-17.078,179.736,1.38428,-155.281,240
1567848571,322.697,-96.2174,-17.078,179.736,1.38428,-155.281,240
1567848571,322.697,-96.2174,-17.078,179.736,1.38428,-155.281,240
1567848571,322.697,-96.2174,-17.078,179.736,1.38428,-155.281,240
1567848571,322.697,-96.2174,-17.078,179.736,1.38428,-155.281,236
1567848571,322.697,-96.2174,-17.078,179.736,1.38428,-155.281,236
1567848571,322.697,-96.2174,-17.078,179.714,1.38428,-155.303,236
1567848571,322.697,-96.2174,-17.078,179.714,1.3623,-155.303,236
1567848571,322.697,-96.2174,-17.078,179.714,1.3623,-155.303,236
1567848571,322.697,-96.2174,-17.078,179.714,1.3623,-155.303,236
1567848571,322.697,-96.2174,-17.078,179.714,1.3623,-155.303,236
1567848571,322.697,-96.2174,-17.078,179.714,1.3623,-155.303,236
1567848571,322.697,-96.2174,-17.078,179.714,1.3623,-155.303,236
1567848571,322.697,-96.329,-17.078,179.714,1.3623,-155.303,236
1567848571,322.697,-96.329,-17.078,179.714,1.3623,-155.281,236
1567848571,322.697,-96.329,-17.078,179.714,1.38428,-155.281,236
1567848571,322.697,-96.329,-17.078,179.714,1.38428,-155.281,236
1567848571,322.697,-96.329,-17.078,179.714,1.38428,-155.281,236
1567848572,322.697,-96.329,-17.078,179.714,1.38428,-155.281,236
1567848572,322.697,-96.329,-17.078,179.714,1.38428,-155.281,236
1567848572,322.697,-96.329,-17.078,179.714,1.38428,-155.281,236
1567848572,322.697,-96.329,-17.078,179.714,1.38428,-155.281,240
1567848572,322.697,-96.329,-17.078,179.714,1.38428,-155.281,240
1567848572,322.697,-96.329,-17.078,179.714,1.38428,-155.281,240
1567848572,322.697,-96.329,-17.078,179.714,1.38428,-155.281,240
1567848572,322.585,-96.2174,-17.078,179.714,1.38428,-155.281,240
1567848572,322.585,-96.2174,-17.078,179.714,1.38428,-155.281,240
1567848572,322.585,-96.2174,-17.078,179.714,1.38428,-155.281,240
1567848572,322.585,-96.2174,-17.078,179.714,1.38428,-155.281,240
1567848572,322.585,-96.2174,-17.078,179.714,1.40625,-155.281,240
1567848572,322.585,-96.2174,-17.078,179.714,1.40625,-155.281,244
1567848572,322.585,-96.2174,-17.078,179.714,1.40625,-155.281,244
1567848572,322.585,-96.2174,-17.078,179.714,1.40625,-155.281,244
1567848572,322.585,-96.2174,-17.078,179.714,1.40625,-155.281,244
1567848572,322.585,-96.329,-17.078,179.714,1.40625,-155.281,244
1567848572,322.585,-96.329,-17.078,179.714,1.40625,-155.281,244
1567848572,322.585,-96.329,-17.078,179.692,1.40625,-155.281,244
1567848572,322.585,-96.329,-17.078,179.692,1.40625,-155.281,244
1567848572,322.585,-96.329,-17.078,179.692,1.40625,-155.281,244
1567848572,322.585,-96.329,-17.078,179.692,1.38428,-155.281,244
1567848572,322.585,-96.329,-17.078,179.692,1.38428,-155.281,244
1567848572,322.585,-96.329,-17.078,179.692,1.38428,-155.281,244
1567848572,322.585,-96.329,-17.078,179.692,1.38428,-155.281,244
1567848572,322.585,-96.329,-17.078,179.692,1.38428,-155.281,244
1567848572,322.585,-96.329,-17.078,179.692,1.38428,-155.281,244
1567848572,322.585,-96.329,-17.078,179.692,1.38428,-155.281,244
1567848572,322.585,-96.329,-17.078,179.692,1.38428,-155.281,244
1567848572,322.585,-96.329,-17.078,179.692,1.38428,-155.281,244
1567848572,322.585,-96.329,-17.078,179.692,1.38428,-155.281,244
1567848572,322.585,-96.329,-17.078,179.692,1.38428,-155.281,244
1567848572,322.585,-96.329,-17.078,179.692,1.38428,-155.281,244
1567848572,322.585,-96.329,-17.078,179.692,1.38428,-155.281,240
1567848572,322.585,-96.329,-17.078,179.692,1.38428,-155.281,240
1567848572,322.585,-96.329,-17.078,179.692,1.38428,-155.281,240
1567848572,322.585,-96.329,-17.078,179.692,1.38428,-155.281,240
1567848572,322.585,-96.329,-17.078,179.692,1.38428,-155.281,240
1567848572,322.585,-96.329,-17.078,179.692,1.38428,-155.281,240
1567848572,322.585,-96.329,-17.078,179.692,1.38428,-155.281,240
1567848572,322.585,-96.329,-17.078,179.692,1.38428,-155.281,240
1567848572,322.585,-96.329,-17.078,179.692,1.38428,-155.281,240
1567848572,322.585,-96.329,-17.078,179.692,1.38428,-155.281,240
1567848572,322.585,-96.329,-17.078,179.692,1.38428,-155.281,240
1567848572,322.585,-96.329,-17.078,179.692,1.38428,-155.281,240
1567848572,322.585,-96.329,-17.078,179.692,1.38428,-155.281,240
1567848572,322.697,-96.329,-17.078,179.692,1.38428,-155.281,240
1567848572,322.697,-96.329,-17.078,179.692,1.38428,-155.281,240
1567848572,322.585,-96.329,-17.078,179.692,1.38428,-155.281,240
1567848572,322.585,-96.329,-17.078,179.692,1.38428,-155.281,240
1567848572,322.585,-96.329,-17.078,179.692,1.38428,-155.281,240
1567848572,322.585,-96.329,-17.078,179.692,1.38428,-155.281,240
1567848572,322.585,-96.329,-17.078,179.692,1.38428,-155.281,240
1567848572,322.585,-96.329,-17.078,179.692,1.38428,-155.281,240
1567848572,322.585,-96.329,-17.078,179.692,1.38428,-155.281,240
1567848572,322.585,-96.329,-17.078,179.692,1.38428,-155.281,240
1567848572,322.585,-96.329,-17.078,179.692,1.38428,-155.281,240
1567848572,322.585,-96.329,-17.078,179.692,1.38428,-155.281,240
1567848572,322.585,-96.329,-17.078,179.692,1.38428,-155.281,240
1567848572,322.585,-96.329,-17.078,179.692,1.38428,-155.259,240
1567848572,322.585,-96.329,-17.078,179.692,1.38428,-155.259,240
1567848572,322.585,-96.329,-17.078,179.714,1.38428,-155.259,240
1567848572,322.585,-96.2174,-17.078,179.714,1.38428,-155.259,244
1567848572,322.585,-96.2174,-17.078,179.714,1.38428,-155.259,244
1567848572,322.585,-96.2174,-17.078,179.714,1.38428,-155.259,244
1567848572,322.585,-96.2174,-17.078,179.714,1.38428,-155.259,244
1567848572,322.585,-96.2174,-17.078,179.714,1.38428,-155.259,244
1567848572,322.585,-96.2174,-17.078,179.714,1.38428,-155.259,244
1567848572,322.585,-96.2174,-17.078,179.714,1.38428,-155.259,244
1567848572,322.585,-96.2174,-17.078,179.714,1.38428,-155.259,244
1567848572,322.585,-96.2174,-17.078,179.714,1.38428,-155.259,248
1567848572,322.585,-96.2174,-17.078,179.714,1.38428,-155.281,248
1567848572,322.585,-96.2174,-17.078,179.714,1.38428,-155.281,248
1567848572,322.585,-96.2174,-17.078,179.714,1.38428,-155.281,248
1567848572,322.585,-96.2174,-17.078,179.714,1.38428,-155.281,248
1567848572,322.585,-96.2174,-17.078,179.714,1.38428,-155.281,248
1567848572,322.585,-96.2174,-17.078,179.714,1.3623,-155.281,248
1567848572,322.585,-96.2174,-17.078,179.714,1.3623,-155.281,248
1567848572,322.585,-96.2174,-17.078,179.714,1.3623,-155.281,248
1567848572,322.585,-96.2174,-17.078,179.714,1.3623,-155.281,248
1567848572,322.585,-96.2174,-17.078,179.714,1.3623,-155.281,248
1567848572,322.585,-96.2174,-17.078,179.714,1.3623,-155.281,248
1567848572,322.585,-96.2174,-17.078,179.714,1.3623,-155.281,248
1567848572,322.585,-96.2174,-17.078,179.714,1.38428,-155.281,248
1567848572,322.585,-96.2174,-17.078,179.714,1.38428,-155.281,248
1567848572,322.585,-96.2174,-17.078,179.714,1.38428,-155.281,248
1567848572,322.585,-96.2174,-17.078,179.714,1.38428,-155.281,248
1567848572,322.585,-96.2174,-17.078,179.714,1.38428,-155.281,248
1567848572,322.585,-96.2174,-17.078,179.714,1.38428,-155.281,248
1567848572,322.585,-96.2174,-17.078,179.714,1.38428,-155.281,248
1567848572,322.585,-96.2174,-17.078,179.714,1.38428,-155.281,248
1567848572,322.585,-96.2174,-17.078,179.714,1.38428,-155.281,248
1567848572,322.585,-96.2174,-17.078,179.714,1.38428,-155.281,248
1567848572,322.585,-96.2174,-17.078,179.714,1.38428,-155.281,248
1567848572,322.585,-96.2174,-17.078,179.714,1.38428,-155.281,248
1567848572,322.585,-96.2174,-17.078,179.692,1.40625,-155.281,252
1567848572,322.585,-96.2174,-17.078,179.692,1.40625,-155.281,252
1567848572,322.585,-96.2174,-17.078,179.692,1.40625,-155.281,252
1567848572,322.585,-96.2174,-16.9664,179.692,1.40625,-155.281,252
1567848572,322.585,-96.2174,-16.9664,179.714,1.40625,-155.281,252
1567848573,322.585,-96.2174,-16.9664,179.714,1.40625,-155.281,252
1567848573,322.585,-96.2174,-16.9664,179.714,1.40625,-155.281,252
1567848573,322.585,-96.2174,-16.9664,179.714,1.40625,-155.281,252
1567848573,322.585,-96.2174,-16.9664,179.714,1.40625,-155.281,252
1567848573,322.585,-96.2174,-16.9664,179.714,1.40625,-155.281,252
1567848573,322.585,-96.2174,-16.9664,179.714,1.40625,-155.281,252
1567848573,322.585,-96.2174,-16.9664,179.714,1.40625,-155.281,252
1567848573,322.585,-96.2174,-17.078,179.714,1.40625,-155.281,252
1567848573,322.585,-96.2174,-17.078,179.714,1.40625,-155.281,252
1567848573,322.585,-96.2174,-17.078,179.714,1.38428,-155.281,252
1567848573,322.585,-96.329,-17.078,179.714,1.38428,-155.281,252
1567848573,322.585,-96.329,-17.078,179.714,1.38428,-155.281,252
1567848573,322.585,-96.329,-17.078,179.714,1.38428,-155.281,252
1567848573,322.585,-96.329,-17.078,179.714,1.38428,-155.281,252
1567848573,322.585,-96.329,-17.078,179.714,1.38428,-155.281,248
1567848573,322.585,-96.329,-17.078,179.692,1.38428,-155.281,248
1567848573,322.585,-96.329,-17.078,179.692,1.38428,-155.281,248
1567848573,322.585,-96.329,-17.078,179.692,1.38428,-155.281,248
1567848573,322.585,-96.329,-17.078,179.692,1.38428,-155.281,248
1567848573,322.585,-96.329,-17.078,179.692,1.38428,-155.281,248
1567848573,322.585,-96.329,-17.078,179.692,1.38428,-155.281,248
1567848573,322.585,-96.329,-17.078,179.692,1.38428,-155.281,248
1567848573,322.585,-96.329,-17.078,179.692,1.38428,-155.281,248
1567848573,322.585,-96.2174,-17.078,179.692,1.3623,-155.281,248
1567848573,322.585,-96.2174,-17.078,179.692,1.3623,-155.281,248
1567848573,322.585,-96.2174,-17.078,179.692,1.3623,-155.281,248
1567848573,322.585,-96.2174,-17.078,179.692,1.3623,-155.281,248
1567848573,322.585,-96.2174,-17.078,179.692,1.3623,-155.281,248
1567848573,322.585,-96.2174,-17.078,179.692,1.3623,-155.281,248
1567848573,322.585,-96.2174,-17.078,179.692,1.3623,-155.281,248
1567848573,322.585,-96.2174,-17.078,179.692,1.3623,-155.281,248
1567848573,322.585,-96.2174,-17.078,179.692,1.3623,-155.281,248
1567848573,322.585,-96.2174,-17.078,179.692,1.3623,-155.281,248
1567848573,322.585,-96.2174,-17.078,179.692,1.3623,-155.281,252
1567848573,322.585,-96.2174,-17.078,179.692,1.3623,-155.281,252
1567848573,322.585,-96.2174,-17.078,179.714,1.3623,-155.281,252
1567848573,322.585,-96.2174,-17.078,179.714,1.3623,-155.281,252
1567848573,322.585,-96.2174,-17.078,179.714,1.3623,-155.281,252
1567848573,322.585,-96.2174,-17.078,179.714,1.3623,-155.281,252
1567848573,322.585,-96.2174,-17.078,179.714,1.3623,-155.281,252
1567848573,322.585,-96.2174,-17.078,179.714,1.3623,-155.281,252
1567848573,322.585,-96.2174,-17.078,179.714,1.3623,-155.281,252
1567848573,322.585,-96.2174,-17.078,179.714,1.3623,-155.281,252
1567848573,322.585,-96.2174,-17.078,179.714,1.3623,-155.281,252
1567848573,322.585,-96.2174,-17.078,179.714,1.3623,-155.281,252
1567848573,322.585,-96.2174,-17.078,179.714,1.3623,-155.281,252
1567848573,322.585,-96.2174,-17.078,179.714,1.3623,-155.281,252
1567848573,322.585,-96.2174,-17.078,179.692,1.3623,-155.281,252
1567848573,322.585,-96.2174,-17.078,179.692,1.3623,-155.281,252
1567848573,322.585,-96.2174,-17.078,179.692,1.3623,-155.281,252
1567848573,322.585,-96.329,-17.078,179.692,1.3623,-155.281,248
1567848573,322.585,-96.329,-17.078,179.692,1.3623,-155.281,248
1567848573,322.585,-96.329,-17.078,179.692,1.3623,-155.281,248
1567848573,322.585,-96.329,-17.078,179.692,1.3623,-155.281,248
1567848573,322.585,-96.329,-17.078,179.692,1.3623,-155.281,248
1567848573,322.585,-96.329,-17.078,179.692,1.3623,-155.281,248
1567848573,322.585,-96.2174,-17.078,179.692,1.3623,-155.281,248
1567848573,322.585,-96.2174,-17.078,179.692,1.3623,-155.281,248
1567848573,322.585,-96.2174,-17.078,179.692,1.3623,-155.281,248
1567848573,322.585,-96.2174,-17.078,179.692,1.3623,-155.281,244
1567848573,322.585,-96.2174,-17.078,179.692,1.3623,-155.281,244
1567848573,322.585,-96.2174,-17.078,179.714,1.3623,-155.281,244
1567848573,322.585,-96.2174,-17.078,179.714,1.3623,-155.281,244
1567848573,322.585,-96.2174,-17.078,179.714,1.3623,-155.281,244
1567848573,322.585,-96.2174,-17.078,179.714,1.3623,-155.281,244
1567848573,322.585,-96.2174,-17.078,179.714,1.3623,-155.281,244
1567848573,322.585,-96.2174,-17.078,179.714,1.3623,-155.281,244
1567848573,322.585,-96.2174,-17.078,179.714,1.3623,-155.281,244
1567848573,322.585,-96.2174,-17.078,179.714,1.3623,-155.281,244
1567848573,322.585,-96.2174,-17.078,179.714,1.3623,-155.281,244
1567848573,322.585,-96.2174,-17.078,179.714,1.3623,-155.281,244
1567848573,322.585,-96.2174,-17.078,179.714,1.3623,-155.281,244
1567848573,322.585,-96.2174,-17.078,179.714,1.3623,-155.281,244
1567848573,322.585,-96.2174,-17.078,179.714,1.38428,-155.281,244
1567848573,322.585,-96.2174,-17.078,179.714,1.38428,-155.281,244
1567848573,322.585,-96.2174,-17.078,179.714,1.38428,-155.281,244
1567848573,322.585,-96.2174,-17.078,179.714,1.38428,-155.281,244
1567848573,322.585,-96.2174,-17.078,179.692,1.38428,-155.281,244
1567848573,322.585,-96.2174,-17.078,179.692,1.38428,-155.281,244
1567848573,322.585,-96.2174,-17.078,179.692,1.38428,-155.281,244
1567848582,338.212,-112.514,-17.3013,179.78,1.16455,-155.061,244
1567848582,338.212,-112.514,-17.3013,179.78,1.16455,-155.061,248
1567848582,338.212,-112.514,-17.3013,179.78,1.16455,-155.061,248
1567848582,338.212,-112.514,-17.3013,179.78,1.16455,-155.061,248
1567848582,338.1,-112.514,-17.3013,179.78,1.16455,-155.061,248
1567848582,338.1,-112.514,-17.3013,179.78,1.16455,-155.061,248
1567848582,338.1,-112.514,-17.3013,179.78,1.16455,-155.061,248
1567848582,338.1,-112.514,-17.3013,179.78,1.16455,-155.061,252
1567848582,338.1,-112.514,-17.3013,179.78,1.16455,-155.061,252
1567848582,338.1,-112.514,-17.3013,179.78,1.16455,-155.061,252
1567848582,338.1,-112.514,-17.3013,179.78,1.16455,-155.061,252
1567848582,338.1,-112.514,-17.3013,179.78,1.16455,-155.061,256
1567848582,338.1,-112.514,-17.3013,179.78,1.16455,-155.061,256
1567848582,338.1,-112.514,-17.3013,179.78,1.16455,-155.061,256
1567848582,338.1,-112.514,-17.3013,179.78,1.16455,-155.061,256
1567848582,338.1,-112.514,-17.3013,179.78,1.16455,-155.061,256
1567848582,338.1,-112.514,-17.3013,179.78,1.16455,-155.061,256
1567848582,338.1,-112.514,-17.3013,179.78,1.16455,-155.039,256
1567848582,338.1,-112.514,-17.3013,179.78,1.16455,-155.039,256
1567848582,338.1,-112.514,-17.3013,179.78,1.16455,-155.039,256
1567848582,338.1,-112.514,-17.3013,179.78,1.16455,-155.039,256
1567848582,338.1,-112.514,-17.3013,179.78,1.16455,-155.039,256
1567848582,338.1,-112.514,-17.3013,179.78,1.16455,-155.039,256
1567848582,338.1,-112.514,-17.3013,179.78,1.16455,-155.039,256
1567848582,338.1,-112.514,-17.3013,179.802,1.16455,-155.039,256
1567848582,338.1,-112.514,-17.3013,179.802,1.16455,-155.039,252
1567848582,338.1,-112.514,-17.3013,179.802,1.16455,-155.039,252
1567848582,338.212,-112.514,-17.3013,179.802,1.16455,-155.039,252
1567848582,338.212,-112.514,-17.3013,179.802,1.16455,-155.039,252
1567848582,338.212,-112.514,-17.3013,179.802,1.16455,-155.039,252
1567848582,338.212,-112.514,-17.3013,179.802,1.16455,-155.039,252
1567848582,338.212,-112.514,-17.3013,179.802,1.16455,-155.039,252
1567848582,338.212,-112.514,-17.3013,179.802,1.16455,-155.039,252
1567848582,338.212,-112.514,-17.3013,179.802,1.16455,-155.039,252
1567848582,338.212,-112.514,-17.3013,179.802,1.16455,-155.039,252
1567848582,338.212,-112.514,-17.3013,179.802,1.16455,-155.039,252
1567848582,338.212,-112.514,-17.3013,179.802,1.16455,-155.039,252
1567848582,338.212,-112.514,-17.3013,179.802,1.16455,-155.039,252
1567848582,338.212,-112.514,-17.3013,179.802,1.16455,-155.039,252
1567848582,338.212,-112.514,-17.3013,179.802,1.16455,-155.039,252
1567848583,338.212,-112.514,-17.3013,179.802,1.16455,-155.039,252
1567848583,338.212,-112.514,-17.3013,179.802,1.16455,-155.039,252
1567848583,338.212,-112.514,-17.3013,179.802,1.16455,-155.039,248
1567848583,338.212,-112.514,-17.3013,179.824,1.16455,-155.039,248
1567848583,338.212,-112.514,-17.3013,179.824,1.16455,-155.039,248
1567848583,338.212,-112.514,-17.3013,179.824,1.16455,-155.039,248
1567848583,338.212,-112.514,-17.3013,179.824,1.16455,-155.039,248
1567848583,338.212,-112.514,-17.3013,179.824,1.16455,-155.039,244
1567848583,338.212,-112.514,-17.3013,179.824,1.16455,-155.039,244
1567848583,338.212,-112.514,-17.3013,179.824,1.16455,-155.039,244
1567848583,338.212,-112.514,-17.3013,179.824,1.16455,-155.039,244
1567848583,338.212,-112.514,-17.3013,179.824,1.16455,-155.039,244
1567848583,338.212,-112.514,-17.3013,179.802,1.16455,-155.039,244
1567848583,338.212,-112.514,-17.3013,179.802,1.16455,-155.039,244
1567848583,338.212,-112.514,-17.3013,179.802,1.16455,-155.039,244
1567848583,338.212,-112.514,-17.3013,179.802,1.14258,-155.039,244
1567848583,338.212,-112.514,-17.3013,179.802,1.16455,-155.039,244
1567848583,338.212,-112.514,-17.3013,179.802,1.16455,-155.039,244
1567848583,338.212,-112.514,-17.3013,179.802,1.16455,-155.039,244
1567848583,338.212,-112.514,-17.3013,179.802,1.16455,-155.039,244
1567848583,338.212,-112.514,-17.3013,179.802,1.16455,-155.039,244
1567848583,338.212,-112.514,-17.3013,179.802,1.16455,-155.039,244
1567848583,338.212,-112.514,-17.3013,179.802,1.16455,-155.039,244
1567848583,338.212,-112.514,-17.3013,179.802,1.16455,-155.039,244
1567848583,338.212,-112.514,-17.3013,179.802,1.16455,-155.039,248
1567848583,338.212,-112.514,-17.3013,179.802,1.16455,-155.039,248
1567848583,338.212,-112.514,-17.3013,179.78,1.16455,-155.039,248
1567848583,338.212,-112.514,-17.3013,179.78,1.16455,-155.039,248
1567848583,338.212,-112.514,-17.3013,179.78,1.16455,-155.039,248
1567848583,338.212,-112.514,-17.3013,179.78,1.16455,-155.039,248
1567848583,338.212,-112.626,-17.3013,179.78,1.16455,-155.039,248
1567848583,338.212,-112.626,-17.3013,179.78,1.16455,-155.039,248
1567848583,338.212,-112.626,-17.3013,179.78,1.16455,-155.039,248
1567848583,338.212,-112.626,-17.3013,179.78,1.16455,-155.039,248
1567848583,338.212,-112.626,-17.3013,179.78,1.16455,-155.039,248
1567848583,338.212,-112.626,-17.3013,179.78,1.16455,-155.039,248
1567848583,338.212,-112.626,-17.3013,179.78,1.16455,-155.039,248
1567848583,338.212,-112.626,-17.3013,179.78,1.16455,-155.039,248
1567848583,338.212,-112.626,-17.3013,179.78,1.16455,-155.039,248
1567848583,338.212,-112.626,-17.3013,179.78,1.16455,-155.039,248
1567848583,338.212,-112.514,-17.3013,179.78,1.16455,-155.039,244
1567848583,338.212,-112.514,-17.3013,179.78,1.16455,-155.039,244
1567848583,338.212,-112.514,-17.3013,179.78,1.16455,-155.039,244
1567848583,338.212,-112.514,-17.3013,179.78,1.16455,-155.039,244
1567848583,338.212,-112.514,-17.3013,179.78,1.16455,-155.039,244
1567848583,338.212,-112.514,-17.3013,179.78,1.16455,-155.039,244
1567848583,338.212,-112.514,-17.3013,179.802,1.16455,-155.039,244
1567848583,338.212,-112.514,-17.3013,179.802,1.16455,-155.039,244
1567848583,338.212,-112.514,-17.3013,179.802,1.16455,-155.039,244
1567848583,338.212,-112.514,-17.3013,179.802,1.16455,-155.039,244
1567848583,338.212,-112.514,-17.3013,179.802,1.16455,-155.039,244
1567848583,338.212,-112.514,-17.3013,179.802,1.16455,-155.039,244
1567848583,338.212,-112.514,-17.3013,179.802,1.16455,-155.039,244
1567848583,338.212,-112.514,-17.3013,179.802,1.16455,-155.039,244
1567848583,338.212,-112.514,-17.3013,179.802,1.16455,-155.039,244
1567848583,338.212,-112.514,-17.3013,179.802,1.16455,-155.039,244
1567848583,338.212,-112.514,-17.3013,179.802,1.16455,-155.039,244
1567848583,338.212,-112.514,-17.3013,179.802,1.16455,-155.039,244
1567848583,338.212,-112.514,-17.3013,179.802,1.14258,-155.039,244
1567848583,338.212,-112.514,-17.3013,179.802,1.14258,-155.039,244
1567848583,338.212,-112.514,-17.3013,179.802,1.14258,-155.039,244
1567848583,338.212,-112.514,-17.3013,179.802,1.14258,-155.039,244
1567848583,338.212,-112.514,-17.3013,179.802,1.14258,-155.039,248
1567848583,338.212,-112.514,-17.3013,179.802,1.14258,-155.039,248
1567848583,338.212,-112.514,-17.3013,179.802,1.14258,-155.039,248
1567848583,338.212,-112.514,-17.3013,179.802,1.14258,-155.039,248
1567848583,338.1,-112.514,-17.3013,179.802,1.14258,-155.039,248
1567848583,338.1,-112.514,-17.3013,179.802,1.14258,-155.039,248
1567848583,338.1,-112.514,-17.3013,179.802,1.14258,-155.039,248
1567848583,338.1,-112.514,-17.3013,179.802,1.14258,-155.039,248
1567848583,338.1,-112.514,-17.3013,179.802,1.14258,-155.039,252
1567848583,338.1,-112.514,-17.3013,179.802,1.14258,-155.039,252
1567848583,338.1,-112.514,-17.3013,179.802,1.14258,-155.039,252
1567848583,338.1,-112.514,-17.3013,179.802,1.14258,-155.039,252
1567848583,338.212,-112.514,-17.3013,179.802,1.14258,-155.039,252
1567848583,338.212,-112.514,-17.3013,179.802,1.14258,-155.039,252
1567848583,338.212,-112.514,-17.3013,179.802,1.14258,-155.039,252
1567848583,338.212,-112.514,-17.3013,179.802,1.14258,-155.039,252
1567848583,338.212,-112.514,-17.3013,179.802,1.14258,-155.039,252
1567848583,338.212,-112.514,-17.3013,179.802,1.14258,-155.039,252
1567848583,338.212,-112.514,-17.3013,179.802,1.14258,-155.039,252
1567848583,338.212,-112.514,-17.3013,179.802,1.14258,-155.039,252
1567848583,338.212,-112.514,-17.3013,179.802,1.14258,-155.039,252
1567848583,338.212,-112.514,-17.3013,179.802,1.14258,-155.039,252
1567848583,338.212,-112.514,-17.3013,179.802,1.14258,-155.039,252
1567848583,338.212,-112.514,-17.3013,179.802,1.14258,-155.039,252
1567848583,338.212,-112.514,-17.3013,179.802,1.14258,-155.039,252
1567848583,338.212,-112.514,-17.3013,179.802,1.14258,-155.039,252
1567848583,338.212,-112.514,-17.3013,179.802,1.16455,-155.039,248
1567848583,338.212,-112.514,-17.3013,179.802,1.16455,-155.039,248
1567848583,338.212,-112.514,-17.3013,179.802,1.16455,-155.039,248
1567848583,338.212,-112.514,-17.3013,179.802,1.16455,-155.039,248
1567848583,338.212,-112.514,-17.3013,179.802,1.16455,-155.039,248
1567848583,338.212,-112.514,-17.3013,179.802,1.16455,-155.039,248
1567848583,338.212,-112.514,-17.3013,179.802,1.16455,-155.039,248
1567848583,338.212,-112.514,-17.3013,179.802,1.16455,-155.039,248
1567848583,338.1,-112.514,-17.3013,179.802,1.16455,-155.061,248
1567848583,338.1,-112.514,-17.3013,179.802,1.16455,-155.061,248
1567848583,338.1,-112.514,-17.3013,179.802,1.16455,-155.061,252
1567848583,338.1,-112.514,-17.3013,179.802,1.16455,-155.061,252
1567848584,338.1,-112.514,-17.3013,179.78,1.16455,-155.061,252
1567848584,338.1,-112.514,-17.3013,179.78,1.16455,-155.061,252
1567848584,338.1,-112.514,-17.3013,179.78,1.16455,-155.061,252
1567848584,338.1,-112.514,-17.3013,179.78,1.16455,-155.061,252
1567848584,338.1,-112.514,-17.3013,179.78,1.16455,-155.061,252
1567848584,338.1,-112.514,-17.3013,179.78,1.16455,-155.061,252
1567848584,338.1,-112.514,-17.3013,179.78,1.16455,-155.061,252
1567848584,338.1,-112.514,-17.3013,179.78,1.16455,-155.061,256
1567848584,338.1,-112.514,-17.3013,179.78,1.16455,-155.061,256
1567848584,338.1,-112.514,-17.3013,179.78,1.16455,-155.061,256
1567848584,338.1,-112.626,-17.3013,179.758,1.16455,-155.061,256
1567848584,338.1,-112.626,-17.3013,179.758,1.16455,-155.061,256
1567848584,338.1,-112.626,-17.3013,179.758,1.16455,-155.061,256
1567848584,338.1,-112.626,-17.3013,179.758,1.16455,-155.061,256
1567848584,338.1,-112.626,-17.3013,179.758,1.16455,-155.061,256
1567848584,338.1,-112.626,-17.3013,179.758,1.16455,-155.061,256
1567848584,338.1,-112.626,-17.3013,179.758,1.16455,-155.061,256
1567848584,338.1,-112.626,-17.3013,179.758,1.16455,-155.061,256
1567848584,338.1,-112.626,-17.3013,179.758,1.16455,-155.061,256
1567848584,338.1,-112.626,-17.3013,179.758,1.16455,-155.061,256
1567848584,338.1,-112.626,-17.3013,179.758,1.16455,-155.061,256
1567848584,338.1,-112.626,-17.3013,179.758,1.16455,-155.061,256
1567848584,338.1,-112.626,-17.3013,179.78,1.16455,-155.061,256
1567848584,338.1,-112.626,-17.3013,179.78,1.16455,-155.061,252
1567848584,338.1,-112.514,-17.3013,179.78,1.16455,-155.061,252
1567848584,338.212,-112.514,-17.3013,179.78,1.16455,-155.061,252
1567848584,338.212,-112.514,-17.3013,179.78,1.16455,-155.061,252
1567848584,338.212,-112.514,-17.3013,179.78,1.16455,-155.061,252
1567848584,338.212,-112.514,-17.3013,179.78,1.16455,-155.061,252
1567848584,338.1,-112.514,-17.3013,179.78,1.16455,-155.061,252
1567848584,338.1,-112.514,-17.3013,179.78,1.16455,-155.061,252
1567848584,338.1,-112.514,-17.3013,179.78,1.16455,-155.061,252
1567848584,338.1,-112.514,-17.3013,179.78,1.16455,-155.061,252
1567848584,338.1,-112.514,-17.3013,179.78,1.16455,-155.061,252
1567848584,338.1,-112.514,-17.3013,179.78,1.16455,-155.061,252
1567848584,338.1,-112.514,-17.3013,179.78,1.16455,-155.061,252
1567848584,338.1,-112.514,-17.3013,179.78,1.16455,-155.061,252
1567848584,338.212,-112.514,-17.3013,179.78,1.16455,-155.061,252
1567848584,338.212,-112.514,-17.3013,179.78,1.16455,-155.061,252
1567848584,338.212,-112.514,-17.3013,179.78,1.16455,-155.061,252
1567848584,338.212,-112.514,-17.3013,179.78,1.16455,-155.061,252
1567848584,338.212,-112.514,-17.3013,179.78,1.16455,-155.061,252
1567848584,338.212,-112.514,-17.3013,179.78,1.16455,-155.061,252
1567848584,338.212,-112.514,-17.3013,179.78,1.16455,-155.061,252
1567848584,338.212,-112.514,-17.3013,179.78,1.16455,-155.061,252
1567848584,338.212,-112.514,-17.3013,179.802,1.16455,-155.061,252
1567848584,338.212,-112.514,-17.3013,179.802,1.16455,-155.061,252
1567848584,338.212,-112.514,-17.3013,179.802,1.16455,-155.061,252
1567848584,338.212,-112.514,-17.3013,179.802,1.16455,-155.061,252
1567848584,338.212,-112.514,-17.3013,179.802,1.16455,-155.061,252
1567848584,338.1,-112.514,-17.3013,179.802,1.16455,-155.061,252
1567848584,338.1,-112.514,-17.3013,179.802,1.16455,-155.061,252
1567848584,338.1,-112.514,-17.3013,179.802,1.16455,-155.061,252
1567848584,338.1,-112.514,-17.3013,179.802,1.16455,-155.061,252
1567848584,338.1,-112.514,-17.3013,179.802,1.16455,-155.061,252
1567848584,338.1,-112.514,-17.3013,179.802,1.16455,-155.061,252
1567848584,338.1,-112.514,-17.3013,179.802,1.16455,-155.061,252
1567848584,338.1,-112.514,-17.3013,179.802,1.14258,-155.061,256
1567848584,338.1,-112.402,-17.3013,179.802,1.14258,-155.061,256
1567848584,338.1,-112.402,-17.3013,179.802,1.14258,-155.061,256
1567848584,338.1,-112.402,-17.3013,179.802,1.14258,-155.061,256
1567848584,338.1,-112.402,-17.3013,179.802,1.14258,-155.061,256
1567848584,338.1,-112.402,-17.3013,179.802,1.14258,-155.061,256
1567848584,338.1,-112.402,-17.3013,179.802,1.14258,-155.061,256
1567848584,338.1,-112.402,-17.3013,179.802,1.14258,-155.061,256
1567848584,338.1,-112.402,-17.3013,179.802,1.14258,-155.061,260
1567848584,338.1,-112.402,-17.3013,179.802,1.14258,-155.061,260
1567848584,338.1,-112.402,-17.3013,179.802,1.14258,-155.061,260
1567848584,338.1,-112.402,-17.3013,179.802,1.14258,-155.061,260
1567848584,338.1,-112.402,-17.3013,179.802,1.14258,-155.039,260
1567848584,338.1,-112.402,-17.3013,179.802,1.14258,-155.039,264
1567848584,338.1,-112.514,-17.3013,179.802,1.14258,-155.039,264
1567848584,338.1,-112.514,-17.3013,179.802,1.16455,-155.039,264
1567848584,338.1,-112.514,-17.3013,179.802,1.16455,-155.039,264
1567848584,338.1,-112.514,-17.3013,179.802,1.16455,-155.039,264
1567848584,338.1,-112.514,-17.3013,179.802,1.16455,-155.039,264
1567848584,338.1,-112.514,-17.3013,179.78,1.16455,-155.039,264
1567848584,338.1,-112.514,-17.3013,179.78,1.16455,-155.039,264
1567848584,338.1,-112.514,-17.3013,179.78,1.16455,-155.039,264
1567848584,338.1,-112.514,-17.3013,179.78,1.16455,-155.039,264
1567848584,338.1,-112.514,-17.3013,179.78,1.16455,-155.039,264
1567848584,338.1,-112.514,-17.3013,179.78,1.16455,-155.039,264
1567848584,338.212,-112.514,-17.3013,179.78,1.16455,-155.039,264
1567848584,338.212,-112.514,-17.3013,179.78,1.16455,-155.039,264
1567848584,338.212,-112.514,-17.3013,179.78,1.16455,-155.039,264
1567848584,338.212,-112.514,-17.3013,179.78,1.16455,-155.039,264
1567848584,338.212,-112.514,-17.3013,179.78,1.16455,-155.039,264
1567848584,338.212,-112.514,-17.3013,179.78,1.16455,-155.039,264
1567848584,338.212,-112.514,-17.3013,179.78,1.16455,-155.039,264
1567848584,338.212,-112.514,-17.3013,179.802,1.16455,-155.039,264
1567848584,338.212,-112.514,-17.3013,179.802,1.16455,-155.039,264
1567848584,338.212,-112.514,-17.3013,179.802,1.18652,-155.039,260
1567848584,338.212,-112.514,-17.1896,179.802,1.18652,-155.039,260
1567848584,338.212,-112.514,-17.1896,179.802,1.18652,-155.039,260
1567848584,338.212,-112.514,-17.1896,179.802,1.18652,-155.039,260
1567848584,338.212,-112.514,-17.1896,179.802,1.18652,-155.039,260
1567848584,338.212,-112.514,-17.1896,179.802,1.18652,-155.039,260
1567848584,338.212,-112.514,-17.1896,179.802,1.18652,-155.039,260
1567848584,338.212,-112.514,-17.1896,179.802,1.18652,-155.039,256
1567848584,338.212,-112.514,-17.1896,179.802,1.18652,-155.039,256
1567848585,338.212,-112.514,-17.1896,179.802,1.18652,-155.039,256
1567848585,338.212,-112.514,-17.1896,179.802,1.18652,-155.039,256
1567848585,338.212,-112.514,-17.1896,179.802,1.18652,-155.039,252
1567848585,338.212,-112.514,-17.1896,179.824,1.18652,-155.039,252
1567848585,338.212,-112.514,-17.1896,179.824,1.18652,-155.039,252
1567848585,338.212,-112.514,-17.1896,179.824,1.18652,-155.039,248
1567848585,338.212,-112.514,-17.1896,179.824,1.18652,-155.039,248
1567848585,338.212,-112.514,-17.1896,179.824,1.18652,-155.039,248
1567848585,338.212,-112.514,-17.1896,179.824,1.18652,-155.039,248
1567848585,338.212,-112.514,-17.1896,179.824,1.18652,-155.039,248
1567848585,338.212,-112.514,-17.1896,179.824,1.18652,-155.039,248
1567848585,338.212,-112.514,-17.1896,179.824,1.18652,-155.039,244
1567848585,338.212,-112.514,-17.1896,179.824,1.18652,-155.039,244
1567848585,338.212,-112.514,-17.1896,179.824,1.18652,-155.039,244
1567848585,338.212,-112.514,-17.1896,179.824,1.18652,-155.039,244
1567848585,338.212,-112.514,-17.1896,179.824,1.18652,-155.039,244
1567848585,338.212,-112.514,-17.1896,179.824,1.18652,-155.039,244
1567848585,338.212,-112.514,-17.1896,179.802,1.18652,-155.039,244
1567848585,338.212,-112.514,-17.1896,179.802,1.18652,-155.039,244
1567848585,338.212,-112.514,-17.1896,179.802,1.18652,-155.039,244
1567848585,338.212,-112.514,-17.1896,179.802,1.18652,-155.039,244
1567848585,338.212,-112.514,-17.1896,179.802,1.18652,-155.039,244
1567848585,338.212,-112.514,-17.1896,179.802,1.18652,-155.039,244
1567848585,338.212,-112.514,-17.1896,179.802,1.18652,-155.039,244
1567848585,338.212,-112.514,-17.1896,179.802,1.18652,-155.039,244
1567848585,338.212,-112.514,-17.1896,179.802,1.18652,-155.039,244
1567848585,338.212,-112.514,-17.1896,179.802,1.18652,-155.039,244
1567848585,338.212,-112.514,-17.1896,179.802,1.18652,-155.039,244
1567848585,338.212,-112.514,-17.1896,179.802,1.18652,-155.039,244
1567848585,338.212,-112.514,-17.1896,179.802,1.2085,-155.039,244
1567848585,338.212,-112.514,-17.1896,179.802,1.2085,-155.039,244
1567848585,338.212,-112.514,-17.1896,179.802,1.18652,-155.039,248
1567848585,338.212,-112.514,-17.1896,179.802,1.18652,-155.039,248
1567848585,338.212,-112.514,-17.1896,179.802,1.18652,-155.039,248
1567848585,338.212,-112.514,-17.1896,179.802,1.18652,-155.039,248
1567848585,338.212,-112.514,-17.1896,179.802,1.18652,-155.039,248
1567848585,338.1,-112.514,-17.1896,179.802,1.18652,-155.039,248
1567848585,338.1,-112.514,-17.1896,179.802,1.18652,-155.039,252
1567848585,338.1,-112.514,-17.1896,179.802,1.18652,-155.039,252
1567848585,338.1,-112.514,-17.1896,179.802,1.18652,-155.039,252
1567848585,338.1,-112.514,-17.1896,179.802,1.18652,-155.039,252
1567848585,338.1,-112.514,-17.1896,179.802,1.18652,-155.039,256
1567848585,338.1,-112.514,-17.1896,179.802,1.18652,-155.039,256
1567848585,338.1,-112.514,-17.1896,179.78,1.18652,-155.039,256
1567848585,338.1,-112.514,-17.1896,179.78,1.18652,-155.039,256
1567848585,338.1,-112.514,-17.1896,179.78,1.18652,-155.039,256
1567848585,338.1,-112.514,-17.1896,179.78,1.18652,-155.039,256
1567848585,338.1,-112.514,-17.1896,179.78,1.18652,-155.039,256
1567848585,338.1,-112.514,-17.1896,179.78,1.18652,-155.039,256
1567848585,338.1,-112.514,-17.1896,179.78,1.18652,-155.039,256
1567848585,338.1,-112.514,-17.1896,179.78,1.18652,-155.039,256
1567848585,338.1,-112.514,-17.1896,179.802,1.18652,-155.039,256
1567848585,338.1,-112.514,-17.1896,179.802,1.18652,-155.039,256
1567848585,338.1,-112.514,-17.1896,179.802,1.18652,-155.039,252
1567848585,338.1,-112.514,-17.1896,179.802,1.18652,-155.039,252
1567848585,338.1,-112.514,-17.1896,179.802,1.18652,-155.039,252
1567848585,338.1,-112.514,-17.1896,179.802,1.18652,-155.039,252
1567848585,338.1,-112.514,-17.1896,179.802,1.18652,-155.039,252
1567848585,338.1,-112.514,-17.1896,179.802,1.18652,-155.039,252
1567848585,338.1,-112.514,-17.1896,179.802,1.18652,-155.039,252
1567848585,338.1,-112.514,-17.1896,179.802,1.18652,-155.039,252
1567848585,338.1,-112.514,-17.1896,179.802,1.18652,-155.017,252
1567848585,338.212,-112.514,-17.1896,179.802,1.18652,-155.017,252
1567848585,338.212,-112.514,-17.1896,179.802,1.18652,-155.017,252
1567848585,338.212,-112.514,-17.1896,179.802,1.18652,-155.017,252
1567848585,338.212,-112.514,-17.1896,179.802,1.18652,-155.017,252
1567848585,338.212,-112.514,-17.1896,179.802,1.18652,-155.017,252
1567848585,338.212,-112.514,-17.1896,179.78,1.18652,-155.017,252
1567848585,338.212,-112.514,-17.1896,179.78,1.18652,-155.017,252
1567848585,338.212,-112.514,-17.1896,179.78,1.18652,-155.017,252
1567848585,338.212,-112.626,-17.1896,179.78,1.18652,-155.017,248
1567848585,338.212,-112.626,-17.1896,179.78,1.18652,-155.017,248
1567848585,338.212,-112.626,-17.3013,179.78,1.18652,-155.017,248
1567848585,338.212,-112.626,-17.3013,179.78,1.18652,-155.017,248
1567848585,338.212,-112.626,-17.3013,179.78,1.18652,-155.017,248
1567848585,338.212,-112.626,-17.3013,179.78,1.16455,-155.017,248
1567848585,338.212,-112.626,-17.3013,179.78,1.16455,-155.017,248
1567848585,338.212,-112.626,-17.3013,179.78,1.16455,-155.039,244
1567848585,338.212,-112.626,-17.3013,179.78,1.16455,-155.039,244
1567848585,338.212,-112.626,-17.3013,179.78,1.16455,-155.039,244
1567848585,338.212,-112.626,-17.3013,179.78,1.16455,-155.039,244
1567848585,338.212,-112.626,-17.3013,179.78,1.16455,-155.039,244
1567848585,338.212,-112.626,-17.3013,179.78,1.14258,-155.039,244
1567848585,338.212,-112.626,-17.3013,179.78,1.14258,-155.039,244
1567848585,338.212,-112.626,-17.3013,179.78,1.14258,-155.039,244
1567848585,338.212,-112.626,-17.3013,179.78,1.14258,-155.039,244
1567848585,338.212,-112.626,-17.4129,179.78,1.14258,-155.039,244
1567848585,338.212,-112.626,-17.4129,179.78,1.14258,-155.039,244
1567848585,338.212,-112.626,-17.4129,179.78,1.14258,-155.039,244
1567848585,338.212,-112.626,-17.4129,179.78,1.14258,-155.039,244
1567848585,338.212,-112.626,-17.4129,179.78,1.14258,-155.039,248
1567848585,338.212,-112.626,-17.4129,179.802,1.14258,-155.039,248
1567848585,338.212,-112.626,-17.4129,179.802,1.14258,-155.039,248
1567848585,338.212,-112.626,-17.3013,179.802,1.14258,-155.039,248
1567848585,338.212,-112.514,-17.3013,179.802,1.14258,-155.039,248
1567848585,338.212,-112.514,-17.3013,179.802,1.16455,-155.039,248
1567848585,338.212,-112.514,-17.3013,179.802,1.16455,-155.039,248
1567848585,338.212,-112.514,-17.3013,179.802,1.16455,-155.039,248
1567848585,338.212,-112.514,-17.3013,179.802,1.16455,-155.039,248
1567848585,338.212,-112.514,-17.3013,179.802,1.16455,-155.039,248
1567848586,338.212,-112.514,-17.3013,179.802,1.16455,-155.039,248
1567848586,338.212,-112.514,-17.3013,179.802,1.16455,-155.039,248
1567848586,338.212,-112.514,-17.3013,179.802,1.16455,-155.039,248
1567848586,338.212,-112.514,-17.3013,179.802,1.16455,-155.039,248
1567848586,338.212,-112.514,-17.3013,179.802,1.16455,-155.039,248
1567848586,338.212,-112.514,-17.3013,179.78,1.16455,-155.039,248
1567848586,338.212,-112.514,-17.3013,179.78,1.16455,-155.039,248
1567848586,338.212,-112.626,-17.3013,179.78,1.16455,-155.039,248
1567848586,338.212,-112.626,-17.3013,179.78,1.16455,-155.039,248
1567848586,338.212,-112.626,-17.3013,179.78,1.16455,-155.039,248
1567848586,338.212,-112.626,-17.3013,179.78,1.16455,-155.039,248
1567848586,338.212,-112.626,-17.3013,179.78,1.16455,-155.039,248
1567848586,338.212,-112.626,-17.3013,179.78,1.16455,-155.039,248
1567848586,338.212,-112.626,-17.3013,179.78,1.16455,-155.039,248
1567848586,338.212,-112.626,-17.3013,179.78,1.18652,-155.039,252
1567848586,338.212,-112.626,-17.3013,179.78,1.18652,-155.039,252
1567848586,338.212,-112.626,-17.3013,179.78,1.18652,-155.039,252
1567848586,338.212,-112.626,-17.3013,179.78,1.18652,-155.039,252
1567848586,338.212,-112.626,-17.3013,179.78,1.18652,-155.039,252
1567848586,338.212,-112.626,-17.3013,179.78,1.18652,-155.039,252
1567848586,338.212,-112.626,-17.3013,179.78,1.18652,-155.039,248
1567848586,338.212,-112.626,-17.3013,179.78,1.18652,-155.039,248
1567848586,338.212,-112.626,-17.3013,179.78,1.18652,-155.039,248
1567848586,338.212,-112.626,-17.3013,179.78,1.18652,-155.039,248
1567848586,338.212,-112.626,-17.3013,179.78,1.18652,-155.039,248
1567848586,338.212,-112.514,-17.3013,179.78,1.18652,-155.039,248
1567848586,338.212,-112.514,-17.3013,179.78,1.18652,-155.039,248
1567848586,338.212,-112.514,-17.3013,179.78,1.18652,-155.039,248
1567848586,338.212,-112.514,-17.3013,179.78,1.18652,-155.039,248
1567848586,338.212,-112.514,-17.3013,179.78,1.18652,-155.039,248
1567848586,338.212,-112.514,-17.3013,179.78,1.18652,-155.039,248
1567848586,338.212,-112.514,-17.3013,179.78,1.18652,-155.039,248
1567848586,338.212,-112.514,-17.3013,179.802,1.18652,-155.039,248
1567848586,338.1,-112.514,-17.3013,179.802,1.18652,-155.039,248
1567848586,338.1,-112.514,-17.3013,179.802,1.18652,-155.039,248
1567848586,338.1,-112.514,-17.3013,179.802,1.18652,-155.039,248
1567848586,338.1,-112.514,-17.3013,179.802,1.16455,-155.039,252
1567848586,338.1,-112.514,-17.3013,179.802,1.16455,-155.039,252
1567848586,338.1,-112.514,-17.3013,179.802,1.16455,-155.039,252
1567848586,338.1,-112.514,-17.3013,179.802,1.16455,-155.039,252
1567848586,338.1,-112.514,-17.3013,179.802,1.16455,-155.039,256
1567848586,338.1,-112.514,-17.3013,179.802,1.16455,-155.039,256
1567848586,338.1,-112.514,-17.3013,179.802,1.16455,-155.039,256
1567848586,338.1,-112.514,-17.3013,179.802,1.16455,-155.039,256
1567848586,338.1,-112.514,-17.3013,179.802,1.16455,-155.039,256
1567848586,338.1,-112.514,-17.3013,179.802,1.16455,-155.039,256
1567848586,338.1,-112.514,-17.3013,179.802,1.16455,-155.039,256
1567848586,338.1,-112.514,-17.3013,179.802,1.16455,-155.039,256
1567848586,338.1,-112.514,-17.3013,179.802,1.16455,-155.039,256
1567848586,338.1,-112.514,-17.3013,179.802,1.16455,-155.039,256
1567848586,338.1,-112.514,-17.3013,179.802,1.16455,-155.039,256
1567848586,338.212,-112.514,-17.3013,179.802,1.16455,-155.039,256
1567848586,338.212,-112.514,-17.3013,179.802,1.16455,-155.039,256
1567848586,338.212,-112.514,-17.3013,179.802,1.16455,-155.039,256
1567848586,338.212,-112.514,-17.3013,179.802,1.16455,-155.039,256
1567848586,338.212,-112.514,-17.3013,179.802,1.16455,-155.039,256
1567848586,338.212,-112.514,-17.3013,179.802,1.16455,-155.039,256
1567848586,338.212,-112.514,-17.3013,179.802,1.16455,-155.039,252
1567848586,338.212,-112.514,-17.3013,179.802,1.16455,-155.039,252
1567848586,338.212,-112.514,-17.3013,179.802,1.16455,-155.039,252
1567848586,338.212,-112.514,-17.3013,179.802,1.18652,-155.039,252
1567848586,338.212,-112.514,-17.3013,179.802,1.18652,-155.039,252
1567848586,338.212,-112.514,-17.3013,179.78,1.18652,-155.039,252
1567848586,338.212,-112.514,-17.3013,179.78,1.18652,-155.039,252
1567848586,338.212,-112.514,-17.3013,179.78,1.18652,-155.039,248
1567848586,338.212,-112.514,-17.3013,179.78,1.18652,-155.039,248
1567848586,338.212,-112.514,-17.1896,179.78,1.18652,-155.039,248
1567848586,338.212,-112.514,-17.1896,179.78,1.18652,-155.039,248
1567848586,338.212,-112.514,-17.1896,179.78,1.18652,-155.039,248
1567848586,338.212,-112.514,-17.1896,179.78,1.18652,-155.039,248
1567848586,338.212,-112.514,-17.1896,179.78,1.18652,-155.039,248
1567848586,338.212,-112.514,-17.1896,179.78,1.18652,-155.039,248
1567848586,338.212,-112.514,-17.1896,179.78,1.18652,-155.039,248
1567848586,338.212,-112.514,-17.1896,179.78,1.18652,-155.039,248
1567848586,338.212,-112.626,-17.1896,179.78,1.18652,-155.061,248
1567848586,338.212,-112.626,-17.1896,179.78,1.18652,-155.061,248
1567848586,338.212,-112.626,-17.1896,179.78,1.18652,-155.061,248
1567848586,338.212,-112.626,-17.1896,179.78,1.18652,-155.061,248
1567848586,338.212,-112.514,-17.1896,179.78,1.18652,-155.061,248
1567848586,338.212,-112.514,-17.1896,179.78,1.18652,-155.061,248
1567848586,338.212,-112.514,-17.1896,179.78,1.18652,-155.061,248
1567848586,338.212,-112.514,-17.1896,179.78,1.18652,-155.061,248
1567848586,338.212,-112.514,-17.1896,179.78,1.18652,-155.061,248
1567848586,338.212,-112.514,-17.1896,179.78,1.18652,-155.061,248
1567848586,338.212,-112.514,-17.1896,179.802,1.18652,-155.061,248
1567848586,338.212,-112.514,-17.1896,179.802,1.18652,-155.061,248
1567848586,338.212,-112.514,-17.1896,179.802,1.18652,-155.061,248
1567848586,338.212,-112.514,-17.1896,179.802,1.18652,-155.061,248
1567848586,338.212,-112.514,-17.1896,179.802,1.18652,-155.061,248
1567848586,338.212,-112.514,-17.1896,179.802,1.18652,-155.061,252
1567848586,338.212,-112.514,-17.1896,179.802,1.18652,-155.061,252
1567848586,338.212,-112.514,-17.1896,179.802,1.18652,-155.061,252
1567848586,338.212,-112.514,-17.1896,179.802,1.18652,-155.039,252
1567848586,338.212,-112.514,-17.1896,179.802,1.18652,-155.039,252
1567848586,338.212,-112.514,-17.1896,179.802,1.18652,-155.039,252
1567848586,338.212,-112.514,-17.1896,179.802,1.18652,-155.039,252
1567848586,338.212,-112.514,-17.1896,179.802,1.18652,-155.039,252
1567848586,338.212,-112.514,-17.1896,179.802,1.18652,-155.039,252
1567848586,338.212,-112.514,-17.1896,179.802,1.18652,-155.039,252
1567848586,338.212,-112.514,-17.1896,179.802,1.18652,-155.039,252
1567848587,338.212,-112.514,-17.1896,179.802,1.18652,-155.039,252
1567848587,338.212,-112.514,-17.1896,179.802,1.18652,-155.039,248
1567848587,338.212,-112.514,-17.1896,179.802,1.18652,-155.039,248
1567848587,338.212,-112.514,-17.1896,179.802,1.18652,-155.039,248
1567848587,338.212,-112.514,-17.1896,179.802,1.18652,-155.039,248
1567848587,338.212,-112.514,-17.1896,179.802,1.18652,-155.061,248
1567848587,338.212,-112.514,-17.1896,179.802,1.18652,-155.061,248
1567848587,338.212,-112.514,-17.1896,179.802,1.18652,-155.061,248
1567848587,338.212,-112.514,-17.1896,179.802,1.18652,-155.061,248
1567848587,338.212,-112.514,-17.3013,179.802,1.18652,-155.061,248
1567848587,338.212,-112.514,-17.3013,179.802,1.18652,-155.061,248
1567848587,338.212,-112.514,-17.3013,179.802,1.18652,-155.061,248
1567848587,338.212,-112.514,-17.3013,179.802,1.18652,-155.061,244
1567848587,338.212,-112.514,-17.3013,179.802,1.18652,-155.061,244
1567848587,338.212,-112.514,-17.3013,179.802,1.18652,-155.061,244
1567848587,338.212,-112.514,-17.3013,179.802,1.18652,-155.061,244
1567848587,338.212,-112.514,-17.3013,179.802,1.18652,-155.061,248
1567848587,338.212,-112.514,-17.3013,179.802,1.18652,-155.061,248
1567848587,338.1,-112.514,-17.3013,179.802,1.18652,-155.061,248
1567848587,338.1,-112.514,-17.3013,179.802,1.18652,-155.061,248
1567848587,338.1,-112.514,-17.3013,179.802,1.16455,-155.061,248
1567848587,338.1,-112.514,-17.3013,179.802,1.16455,-155.061,248
1567848587,338.1,-112.514,-17.3013,179.802,1.16455,-155.061,248
1567848587,338.1,-112.514,-17.3013,179.802,1.16455,-155.061,248
1567848587,338.212,-112.514,-17.3013,179.802,1.16455,-155.061,248
1567848587,338.212,-112.514,-17.3013,179.802,1.16455,-155.061,248
1567848587,338.212,-112.514,-17.3013,179.802,1.16455,-155.061,248
1567848587,338.212,-112.514,-17.3013,179.802,1.16455,-155.061,248
1567848587,338.212,-112.514,-17.3013,179.802,1.16455,-155.061,248
1567848587,338.212,-112.514,-17.3013,179.802,1.16455,-155.061,248
1567848587,338.212,-112.514,-17.3013,179.802,1.16455,-155.061,248
1567848587,338.212,-112.514,-17.3013,179.802,1.16455,-155.061,248
1567848587,338.212,-112.514,-17.3013,179.802,1.16455,-155.061,248
1567848587,338.212,-112.514,-17.3013,179.802,1.16455,-155.061,248
1567848587,338.212,-112.514,-17.3013,179.824,1.16455,-155.061,248
1567848587,338.212,-112.514,-17.3013,179.824,1.16455,-155.061,248
1567848587,338.212,-112.514,-17.3013,179.824,1.16455,-155.061,248
1567848587,338.212,-112.514,-17.3013,179.824,1.16455,-155.061,248
1567848587,338.212,-112.514,-17.3013,179.824,1.16455,-155.061,248
1567848587,338.212,-112.514,-17.3013,179.824,1.16455,-155.061,248
1567848587,338.212,-112.514,-17.3013,179.824,1.16455,-155.061,248
1567848587,338.212,-112.514,-17.3013,179.824,1.16455,-155.061,248
1567848587,338.212,-112.514,-17.3013,179.824,1.16455,-155.061,248
1567848587,338.212,-112.514,-17.3013,179.824,1.16455,-155.061,248
1567848587,338.212,-112.514,-17.3013,179.824,1.16455,-155.061,248
1567848587,338.212,-112.514,-17.3013,179.824,1.16455,-155.061,248
1567848587,338.212,-112.514,-17.3013,179.824,1.16455,-155.061,248
1567848587,338.212,-112.514,-17.3013,179.824,1.18652,-155.061,248
1567848587,338.212,-112.514,-17.3013,179.824,1.18652,-155.061,248
1567848587,338.212,-112.514,-17.3013,179.824,1.16455,-155.061,248
1567848587,338.212,-112.514,-17.3013,179.824,1.16455,-155.061,244
1567848587,338.212,-112.514,-17.3013,179.824,1.16455,-155.061,244
1567848587,338.212,-112.514,-17.3013,179.824,1.16455,-155.061,244
1567848587,338.212,-112.514,-17.3013,179.824,1.16455,-155.061,244
1567848587,338.212,-112.514,-17.3013,179.824,1.16455,-155.061,244
1567848587,338.212,-112.514,-17.3013,179.802,1.16455,-155.061,244
1567848587,338.212,-112.514,-17.3013,179.802,1.16455,-155.039,244
1567848587,338.212,-112.514,-17.3013,179.802,1.16455,-155.039,244
1567848587,338.212,-112.514,-17.3013,179.802,1.16455,-155.039,244
1567848587,338.212,-112.514,-17.3013,179.802,1.16455,-155.039,244
1567848671,361.541,-136.959,-17.4129,179.736,1.01074,-154.907,260
1567848671,361.541,-136.959,-17.4129,179.736,1.01074,-154.907,260
1567848671,361.541,-136.959,-17.4129,179.736,1.01074,-154.907,260
1567848671,361.541,-136.959,-17.4129,179.736,1.01074,-154.907,256
1567848671,361.541,-136.959,-17.4129,179.736,1.01074,-154.907,256
1567848671,361.541,-136.959,-17.4129,179.736,1.01074,-154.907,256
1567848671,361.541,-136.959,-17.4129,179.736,1.01074,-154.907,256
1567848671,361.541,-136.959,-17.3013,179.736,1.01074,-154.907,256
1567848671,361.541,-136.959,-17.3013,179.736,1.03271,-154.907,252
1567848671,361.541,-136.959,-17.3013,179.736,1.03271,-154.907,252
1567848671,361.541,-136.959,-17.3013,179.736,1.03271,-154.907,252
1567848671,361.541,-136.959,-17.4129,179.736,1.01074,-154.907,252
1567848671,361.541,-136.959,-17.4129,179.736,1.01074,-154.929,252
1567848671,361.541,-136.959,-17.4129,179.736,1.01074,-154.929,252
1567848671,361.541,-136.959,-17.4129,179.736,1.01074,-154.929,252
1567848671,361.541,-136.959,-17.4129,179.736,1.01074,-154.929,252
1567848671,361.541,-136.959,-17.4129,179.736,1.01074,-154.929,252
1567848671,361.541,-136.959,-17.4129,179.736,1.01074,-154.929,252
1567848671,361.541,-136.959,-17.4129,179.736,1.01074,-154.929,252
1567848671,361.541,-136.959,-17.4129,179.736,1.01074,-154.929,252
1567848671,361.541,-136.959,-17.4129,179.736,0.98877,-154.929,252
1567848671,361.541,-136.959,-17.4129,179.736,0.98877,-154.929,252
1567848671,361.541,-136.959,-17.4129,179.714,0.98877,-154.929,252
1567848671,361.541,-136.959,-17.4129,179.714,0.98877,-154.929,252
1567848672,361.541,-136.959,-17.4129,179.714,0.98877,-154.929,252
1567848672,361.541,-136.959,-17.4129,179.714,0.98877,-154.929,252
1567848672,361.541,-136.959,-17.4129,179.714,0.98877,-154.929,252
1567848672,361.541,-136.959,-17.4129,179.714,0.98877,-154.929,252
1567848672,361.541,-136.959,-17.4129,179.714,0.98877,-154.929,252
1567848672,361.541,-136.959,-17.4129,179.714,0.98877,-154.929,252
1567848672,361.541,-136.959,-17.4129,179.714,0.98877,-154.929,252
1567848672,361.541,-136.959,-17.4129,179.714,0.98877,-154.929,252
1567848672,361.541,-136.959,-17.4129,179.736,0.98877,-154.929,252
1567848672,361.541,-136.959,-17.4129,179.736,0.98877,-154.929,252
1567848672,361.541,-136.959,-17.4129,179.736,0.98877,-154.929,252
1567848672,361.541,-136.959,-17.4129,179.736,0.98877,-154.929,252
1567848672,361.541,-136.959,-17.4129,179.736,0.98877,-154.929,252
1567848672,361.541,-136.959,-17.4129,179.736,0.98877,-154.929,252
1567848672,361.541,-136.959,-17.4129,179.736,0.98877,-154.929,252
1567848672,361.541,-136.959,-17.4129,179.736,0.98877,-154.929,252
1567848672,361.541,-136.959,-17.4129,179.736,0.98877,-154.929,252
1567848672,361.541,-136.959,-17.4129,179.736,0.98877,-154.929,252
1567848672,361.541,-136.959,-17.4129,179.736,0.98877,-154.929,252
1567848672,361.541,-136.959,-17.4129,179.736,0.98877,-154.929,252
1567848672,361.541,-136.959,-17.5245,179.736,0.98877,-154.929,252
1567848672,361.541,-136.959,-17.5245,179.736,0.98877,-154.929,252
1567848672,361.541,-136.959,-17.5245,179.736,0.98877,-154.929,252
1567848672,361.541,-136.959,-17.5245,179.736,0.98877,-154.929,252
1567848672,361.541,-136.959,-17.5245,179.736,0.966797,-154.929,252
1567848672,361.541,-136.959,-17.5245,179.736,0.966797,-154.929,256
1567848672,361.541,-136.959,-17.5245,179.736,0.966797,-154.929,256
1567848672,361.541,-136.959,-17.5245,179.736,0.966797,-154.929,256
1567848672,361.541,-136.959,-17.5245,179.736,0.966797,-154.929,256
1567848672,361.541,-136.959,-17.5245,179.736,0.966797,-154.929,256
1567848672,361.541,-136.959,-17.5245,179.736,0.966797,-154.929,256
1567848672,361.541,-136.959,-17.5245,179.736,0.966797,-154.929,256
1567848672,361.541,-136.959,-17.5245,179.736,0.966797,-154.929,256
1567848672,361.541,-136.959,-17.5245,179.736,0.966797,-154.929,256
1567848672,361.541,-136.959,-17.5245,179.736,0.966797,-154.929,256
1567848672,361.541,-136.959,-17.5245,179.736,0.966797,-154.929,260
1567848672,361.541,-136.959,-17.5245,179.736,0.966797,-154.929,260
1567848672,361.541,-136.959,-17.5245,179.758,0.966797,-154.929,260
1567848672,361.541,-136.959,-17.5245,179.758,0.966797,-154.929,260
1567848672,361.541,-136.959,-17.5245,179.758,0.966797,-154.929,260
1567848672,361.541,-136.959,-17.5245,179.758,0.966797,-154.929,260
1567848672,361.541,-136.959,-17.5245,179.758,0.966797,-154.929,260
1567848672,361.541,-136.959,-17.5245,179.758,0.966797,-154.929,260
1567848672,361.541,-136.959,-17.5245,179.758,0.966797,-154.929,260
1567848672,361.541,-136.959,-17.5245,179.758,0.966797,-154.929,260
1567848672,361.541,-136.959,-17.5245,179.758,0.944824,-154.929,264
1567848672,361.541,-136.959,-17.6361,179.758,0.944824,-154.929,264
1567848672,361.541,-136.959,-17.6361,179.758,0.944824,-154.929,264
1567848672,361.541,-136.959,-17.6361,179.758,0.944824,-154.929,264
1567848672,361.541,-136.959,-17.6361,179.758,0.944824,-154.929,264
1567848672,361.541,-136.959,-17.6361,179.758,0.944824,-154.929,264
1567848672,361.541,-136.847,-17.5245,179.758,0.944824,-154.929,264
1567848672,361.541,-136.847,-17.5245,179.78,0.944824,-154.929,264
1567848672,361.541,-136.847,-17.5245,179.78,0.944824,-154.907,264
1567848672,361.541,-136.847,-17.5245,179.78,0.944824,-154.907,264
1567848672,361.541,-136.847,-17.5245,179.78,0.944824,-154.907,264
1567848672,361.541,-136.847,-17.5245,179.78,0.966797,-154.907,264
1567848672,361.541,-136.847,-17.5245,179.78,0.966797,-154.907,264
1567848672,361.541,-136.847,-17.5245,179.78,0.966797,-154.907,264
1567848672,361.541,-136.847,-17.5245,179.78,0.966797,-154.929,264
1567848672,361.541,-136.847,-17.5245,179.78,0.966797,-154.929,264
1567848672,361.541,-136.847,-17.5245,179.78,0.966797,-154.929,264
1567848672,361.541,-136.847,-17.5245,179.78,0.966797,-154.929,264
1567848672,361.541,-136.847,-17.5245,179.758,0.966797,-154.929,264
1567848672,361.541,-136.847,-17.5245,179.758,0.966797,-154.929,264
1567848672,361.541,-136.847,-17.5245,179.758,0.966797,-154.929,264
1567848672,361.541,-136.959,-17.5245,179.758,0.966797,-154.929,264
1567848672,361.541,-136.959,-17.5245,179.758,0.966797,-154.929,264
1567848672,361.541,-136.847,-17.5245,179.758,0.966797,-154.929,264
1567848672,361.541,-136.847,-17.5245,179.758,0.966797,-154.929,268
1567848672,361.541,-136.847,-17.5245,179.758,0.966797,-154.929,268
1567848672,361.541,-136.847,-17.5245,179.758,0.966797,-154.907,268
1567848672,361.541,-136.847,-17.5245,179.78,0.966797,-154.907,268
1567848672,361.541,-136.847,-17.4129,179.78,0.966797,-154.907,268
1567848672,361.541,-136.847,-17.4129,179.78,0.966797,-154.907,268
1567848672,361.541,-136.847,-17.4129,179.78,0.98877,-154.907,268
1567848672,361.541,-136.847,-17.4129,179.78,0.98877,-154.907,268
1567848672,361.541,-136.847,-17.4129,179.78,0.98877,-154.907,268
1567848672,361.541,-136.847,-17.4129,179.78,0.98877,-154.907,268
1567848672,361.541,-136.847,-17.4129,179.78,0.98877,-154.907,268
1567848672,361.541,-136.847,-17.4129,179.78,0.98877,-154.907,268
1567848672,361.541,-136.847,-17.5245,179.758,0.98877,-154.907,268
1567848672,361.541,-136.847,-17.5245,179.758,0.98877,-154.907,268
1567848672,361.541,-136.847,-17.5245,179.758,0.98877,-154.907,268
1567848672,361.541,-136.847,-17.5245,179.758,0.98877,-154.907,268
1567848672,361.541,-136.847,-17.5245,179.758,0.98877,-154.907,268
1567848672,361.541,-136.847,-17.5245,179.758,0.98877,-154.907,264
1567848672,361.541,-136.847,-17.5245,179.758,0.98877,-154.907,264
1567848672,361.541,-136.847,-17.5245,179.758,0.966797,-154.929,264
1567848672,361.541,-136.847,-17.5245,179.758,0.966797,-154.929,264
1567848672,361.541,-136.847,-17.5245,179.758,0.966797,-154.907,264
1567848672,361.541,-136.847,-17.5245,179.758,0.966797,-154.907,264
1567848672,361.541,-136.847,-17.5245,179.758,0.966797,-154.907,264
1567848672,361.429,-136.847,-17.5245,179.758,0.966797,-154.907,264
1567848672,361.429,-136.847,-17.5245,179.758,0.966797,-154.907,268
1567848672,361.429,-136.959,-17.5245,179.736,0.966797,-154.907,268
1567848672,361.429,-136.959,-17.5245,179.736,0.966797,-154.907,268
1567848672,361.429,-136.959,-17.5245,179.736,0.966797,-154.907,264
1567848672,361.429,-136.959,-17.5245,179.736,0.966797,-154.907,264
1567848672,361.429,-136.959,-17.5245,179.736,0.966797,-154.907,264
1567848673,361.541,-136.959,-17.5245,179.736,0.966797,-154.929,264
1567848673,361.541,-136.959,-17.5245,179.736,0.966797,-154.929,264
1567848673,361.541,-136.959,-17.5245,179.736,0.966797,-154.929,264
1567848673,361.541,-136.959,-17.5245,179.736,0.966797,-154.929,264
1567848673,361.541,-136.959,-17.5245,179.736,0.966797,-154.929,264
1567848673,361.541,-136.847,-17.5245,179.736,0.966797,-154.929,260
1567848673,361.541,-136.847,-17.5245,179.736,0.966797,-154.929,260
1567848673,361.541,-136.847,-17.5245,179.736,0.966797,-154.929,260
1567848673,361.541,-136.847,-17.5245,179.736,0.966797,-154.929,260
1567848673,361.541,-136.959,-17.5245,179.736,0.966797,-154.929,260
1567848673,361.541,-136.959,-17.5245,179.736,0.966797,-154.907,260
1567848673,361.541,-136.959,-17.5245,179.736,0.966797,-154.907,260
1567848673,361.541,-136.959,-17.5245,179.736,0.966797,-154.907,260
1567848673,361.541,-136.847,-17.5245,179.736,0.966797,-154.907,260
1567848673,361.541,-136.847,-17.5245,179.736,0.966797,-154.907,260
1567848673,361.541,-136.847,-17.5245,179.758,0.966797,-154.907,264
1567848673,361.541,-136.847,-17.5245,179.758,0.966797,-154.907,264
1567848673,361.541,-136.847,-17.5245,179.758,0.966797,-154.929,264
1567848673,361.541,-136.847,-17.5245,179.758,0.966797,-154.929,268
1567848673,361.541,-136.847,-17.5245,179.758,0.944824,-154.929,268
1567848673,361.541,-136.847,-17.5245,179.758,0.944824,-154.929,268
1567848673,361.541,-136.847,-17.5245,179.758,0.944824,-154.929,268
1567848673,361.541,-136.847,-17.5245,179.758,0.944824,-154.929,268
1567848673,361.541,-136.847,-17.6361,179.758,0.944824,-154.929,268
1567848673,361.541,-136.847,-17.6361,179.758,0.944824,-154.929,268
1567848673,361.541,-136.847,-17.6361,179.758,0.944824,-154.929,268
1567848673,361.541,-136.847,-17.6361,179.78,0.944824,-154.929,268
1567848673,361.541,-136.847,-17.6361,179.758,0.966797,-154.929,264
1567848673,361.541,-136.847,-17.6361,179.758,0.966797,-154.929,264
1567848673,361.541,-136.847,-17.6361,179.758,0.966797,-154.929,264
1567848673,361.541,-136.847,-17.5245,179.758,0.966797,-154.929,264
1567848673,361.541,-136.847,-17.5245,179.758,0.966797,-154.929,260
1567848673,361.541,-136.847,-17.5245,179.758,0.966797,-154.929,260
1567848673,361.541,-136.847,-17.5245,179.758,0.966797,-154.929,260
1567848673,361.541,-136.847,-17.5245,179.758,0.98877,-154.929,256
1567848673,361.541,-136.847,-17.5245,179.758,0.98877,-154.929,256
1567848673,361.541,-136.847,-17.5245,179.758,0.98877,-154.929,256
1567848673,361.541,-136.847,-17.5245,179.758,0.98877,-154.907,256
1567848673,361.541,-136.847,-17.5245,179.758,0.98877,-154.907,256
1567848673,361.541,-136.847,-17.5245,179.758,1.01074,-154.907,256
1567848673,361.541,-136.847,-17.5245,179.758,1.01074,-154.907,256
1567848673,361.541,-136.847,-17.5245,179.758,1.01074,-154.907,256
1567848673,361.541,-136.847,-17.5245,179.758,1.01074,-154.907,252
1567848673,361.541,-136.847,-17.5245,179.758,1.01074,-154.907,252
1567848673,361.541,-136.847,-17.4129,179.78,1.01074,-154.907,252
1567848673,361.541,-136.847,-17.4129,179.78,1.01074,-154.907,252
1567848673,361.541,-136.847,-17.4129,179.78,1.01074,-154.907,252
1567848673,361.541,-136.959,-17.4129,179.758,1.01074,-154.907,252
1567848673,361.541,-136.959,-17.5245,179.758,1.01074,-154.907,252
1567848673,361.541,-136.959,-17.5245,179.758,1.01074,-154.929,252
1567848673,361.541,-136.959,-17.5245,179.758,1.01074,-154.929,252
1567848673,361.541,-136.959,-17.5245,179.758,1.01074,-154.929,252
1567848673,361.541,-136.959,-17.5245,179.758,1.01074,-154.929,248
1567848673,361.541,-136.959,-17.5245,179.758,1.01074,-154.929,248
1567848673,361.541,-136.959,-17.5245,179.758,1.01074,-154.929,252
1567848673,361.541,-136.959,-17.5245,179.758,1.01074,-154.929,252
1567848673,361.541,-136.959,-17.5245,179.758,1.01074,-154.929,252
1567848673,361.541,-136.959,-17.5245,179.758,0.98877,-154.929,252
1567848673,361.541,-136.959,-17.5245,179.758,0.98877,-154.929,252
1567848673,361.541,-136.959,-17.5245,179.758,0.98877,-154.929,252
1567848673,361.541,-136.959,-17.5245,179.758,0.98877,-154.929,252
1567848673,361.541,-136.847,-17.5245,179.758,0.98877,-154.929,252
1567848673,361.541,-136.847,-17.5245,179.758,0.98877,-154.929,252
1567848673,361.541,-136.847,-17.5245,179.758,0.98877,-154.929,252
1567848673,361.541,-136.847,-17.5245,179.758,0.98877,-154.929,252
1567848673,361.541,-136.847,-17.5245,179.758,0.98877,-154.929,256
1567848673,361.541,-136.847,-17.5245,179.758,0.98877,-154.929,256
1567848673,361.541,-136.847,-17.5245,179.758,0.98877,-154.929,256
1567848673,361.541,-136.847,-17.5245,179.758,0.98877,-154.929,256
1567848673,361.541,-136.847,-17.5245,179.758,0.98877,-154.929,260
1567848673,361.541,-136.847,-17.5245,179.758,0.98877,-154.929,260
1567848673,361.541,-136.847,-17.4129,179.758,0.98877,-154.929,260
1567848673,361.541,-136.847,-17.4129,179.758,0.98877,-154.929,260
1567848673,361.541,-136.847,-17.4129,179.758,0.98877,-154.929,260
1567848673,361.541,-136.847,-17.4129,179.758,0.98877,-154.929,260
1567848673,361.541,-136.847,-17.4129,179.758,0.98877,-154.929,264
1567848673,361.541,-136.847,-17.4129,179.758,0.98877,-154.929,264
1567848673,361.541,-136.847,-17.4129,179.78,0.98877,-154.929,260
1567848673,361.541,-136.847,-17.4129,179.78,0.98877,-154.929,260
1567848673,361.541,-136.847,-17.4129,179.78,0.98877,-154.929,260
1567848673,361.541,-136.847,-17.4129,179.78,0.98877,-154.929,260
1567848673,361.652,-136.847,-17.4129,179.78,0.98877,-154.929,260
1567848673,361.652,-136.847,-17.4129,179.78,0.98877,-154.929,260
1567848673,361.652,-136.847,-17.4129,179.78,0.98877,-154.929,260
1567848673,361.652,-136.847,-17.5245,179.78,0.98877,-154.929,256
1567848673,361.652,-136.847,-17.5245,179.78,0.98877,-154.929,256
1567848673,361.652,-136.847,-17.5245,179.758,0.98877,-154.929,256
1567848673,361.652,-136.847,-17.5245,179.758,0.98877,-154.929,256
1567848673,361.652,-136.959,-17.5245,179.758,0.98877,-154.929,256
1567848673,361.541,-136.959,-17.5245,179.758,0.98877,-154.929,256
1567848673,361.541,-136.959,-17.5245,179.758,0.98877,-154.929,256
1567848673,361.541,-136.959,-17.5245,179.758,0.98877,-154.929,256
1567848673,361.541,-136.959,-17.5245,179.758,0.98877,-154.929,256
1567848673,361.541,-136.959,-17.5245,179.758,0.98877,-154.929,256
1567848673,361.541,-136.959,-17.5245,179.758,0.98877,-154.929,256
1567848673,361.541,-136.959,-17.5245,179.758,0.98877,-154.929,256
1567848673,361.541,-136.959,-17.5245,179.758,0.98877,-154.929,256
1567848673,361.541,-136.847,-17.5245,179.758,0.98877,-154.929,256
1567848673,361.541,-136.847,-17.5245,179.758,0.98877,-154.929,256
1567848674,361.541,-136.847,-17.5245,179.758,0.98877,-154.929,256
1567848674,361.541,-136.847,-17.5245,179.758,0.98877,-154.929,256
1567848674,361.541,-136.847,-17.5245,179.758,0.98877,-154.929,256
1567848674,361.541,-136.847,-17.5245,179.758,0.98877,-154.929,256
1567848674,361.541,-136.847,-17.5245,179.758,0.98877,-154.929,256
1567848674,361.541,-136.847,-17.5245,179.758,0.98877,-154.929,256
1567848674,361.541,-136.847,-17.5245,179.758,0.98877,-154.929,256
1567848674,361.541,-136.847,-17.5245,179.758,0.98877,-154.929,256
1567848674,361.541,-136.847,-17.5245,179.78,0.98877,-154.929,260
1567848674,361.541,-136.847,-17.5245,179.78,0.98877,-154.929,260
1567848674,361.541,-136.847,-17.5245,179.78,0.98877,-154.929,260
1567848674,361.541,-136.847,-17.5245,179.78,0.98877,-154.929,260
1567848674,361.541,-136.847,-17.5245,179.78,0.98877,-154.929,260
1567848674,361.541,-136.847,-17.5245,179.78,0.98877,-154.929,260
1567848674,361.541,-136.847,-17.5245,179.758,0.98877,-154.929,260
1567848674,361.541,-136.847,-17.5245,179.78,0.98877,-154.929,260
1567848674,361.541,-136.847,-17.5245,179.78,0.98877,-154.929,260
1567848674,361.541,-136.847,-17.5245,179.758,0.98877,-154.929,260
1567848674,361.541,-136.847,-17.5245,179.758,0.98877,-154.929,260
1567848674,361.541,-136.847,-17.5245,179.78,0.98877,-154.929,256
1567848674,361.541,-136.847,-17.5245,179.78,0.98877,-154.929,256
1567848674,361.541,-136.847,-17.5245,179.78,0.98877,-154.929,256
1567848674,361.541,-136.847,-17.5245,179.78,0.98877,-154.929,256
1567848674,361.541,-136.847,-17.5245,179.78,0.98877,-154.929,256
1567848674,361.541,-136.847,-17.5245,179.78,0.98877,-154.929,256
1567848674,361.541,-136.847,-17.5245,179.78,0.98877,-154.929,256
1567848674,361.541,-136.847,-17.5245,179.78,0.98877,-154.929,256
1567848674,361.541,-136.847,-17.5245,179.78,0.98877,-154.929,256
1567848674,361.541,-136.847,-17.5245,179.78,0.98877,-154.929,256
1567848674,361.541,-136.847,-17.5245,179.78,0.98877,-154.929,256
1567848674,361.541,-136.847,-17.5245,179.78,0.98877,-154.929,256
1567848674,361.541,-136.847,-17.5245,179.78,0.98877,-154.929,260
1567848674,361.541,-136.847,-17.5245,179.78,0.98877,-154.929,260
1567848674,361.541,-136.847,-17.5245,179.78,0.98877,-154.929,260
1567848674,361.541,-136.847,-17.5245,179.78,0.98877,-154.929,260
1567848674,361.541,-136.847,-17.5245,179.78,0.98877,-154.929,260
1567848674,361.541,-136.847,-17.5245,179.78,0.98877,-154.929,260
1567848674,361.541,-136.847,-17.5245,179.78,0.98877,-154.929,260
1567848674,361.541,-136.847,-17.5245,179.78,0.98877,-154.929,260
1567848674,361.541,-136.847,-17.5245,179.78,0.98877,-154.929,260
1567848674,361.541,-136.847,-17.5245,179.78,0.98877,-154.929,260
1567848674,361.541,-136.847,-17.5245,179.78,0.98877,-154.929,260
1567848674,361.541,-136.847,-17.5245,179.78,0.98877,-154.929,260
1567848674,361.541,-136.847,-17.5245,179.78,0.98877,-154.929,260
1567848674,361.541,-136.847,-17.5245,179.78,0.98877,-154.929,260
1567848674,361.541,-136.847,-17.5245,179.78,0.98877,-154.929,260
1567848674,361.541,-136.847,-17.5245,179.78,0.98877,-154.929,260
1567848674,361.541,-136.847,-17.5245,179.78,1.01074,-154.929,260
1567848674,361.541,-136.847,-17.4129,179.78,1.01074,-154.929,260
1567848674,361.541,-136.847,-17.4129,179.78,1.01074,-154.929,260
1567848674,361.541,-136.847,-17.4129,179.78,1.01074,-154.929,260
1567848674,361.541,-136.847,-17.4129,179.78,1.01074,-154.929,260
1567848674,361.541,-136.847,-17.4129,179.78,1.01074,-154.929,260
1567848674,361.541,-136.847,-17.4129,179.78,1.01074,-154.929,260
1567848674,361.541,-136.847,-17.4129,179.78,1.01074,-154.929,260
1567848674,361.541,-136.847,-17.4129,179.78,1.01074,-154.929,264
1567848674,361.541,-136.847,-17.4129,179.78,1.01074,-154.929,264
1567848674,361.541,-136.847,-17.4129,179.78,1.01074,-154.929,264
1567848674,361.429,-136.847,-17.5245,179.758,0.98877,-154.929,264
1567848674,361.429,-136.847,-17.5245,179.758,0.98877,-154.929,264
1567848674,361.429,-136.847,-17.5245,179.758,0.98877,-154.929,264
1567848674,361.429,-136.847,-17.5245,179.758,0.98877,-154.929,264
1567848674,361.429,-136.847,-17.5245,179.758,0.98877,-154.929,264
1567848674,361.429,-136.847,-17.5245,179.78,0.966797,-154.929,264
1567848674,361.541,-136.847,-17.5245,179.78,0.966797,-154.929,264
1567848674,361.541,-136.847,-17.5245,179.78,0.966797,-154.929,264
1567848674,361.541,-136.847,-17.5245,179.78,0.966797,-154.951,264
1567848674,361.541,-136.847,-17.5245,179.78,0.966797,-154.951,264
1567848674,361.541,-136.847,-17.5245,179.758,0.966797,-154.951,264
1567848674,361.541,-136.847,-17.5245,179.758,0.966797,-154.951,264
1567848674,361.541,-136.847,-17.5245,179.758,0.966797,-154.951,264
1567848674,361.541,-136.847,-17.5245,179.758,0.966797,-154.951,264
1567848674,361.541,-136.847,-17.5245,179.758,0.966797,-154.951,264
1567848674,361.541,-136.847,-17.5245,179.758,0.966797,-154.951,264
1567848674,361.541,-136.847,-17.5245,179.758,0.966797,-154.951,264
1567848674,361.541,-136.847,-17.5245,179.758,0.966797,-154.951,268
1567848674,361.541,-136.847,-17.5245,179.758,0.966797,-154.951,268
1567848674,361.541,-136.847,-17.5245,179.758,0.966797,-154.951,268
1567848674,361.541,-136.847,-17.5245,179.758,0.966797,-154.951,268
1567848674,361.541,-136.847,-17.5245,179.758,0.966797,-154.951,268
1567848674,361.541,-136.847,-17.5245,179.758,0.966797,-154.951,268
1567848674,361.541,-136.847,-17.5245,179.758,0.966797,-154.951,268
1567848674,361.541,-136.847,-17.5245,179.758,0.966797,-154.951,268
1567848674,361.541,-136.959,-17.6361,179.758,0.966797,-154.951,268
1567848674,361.541,-136.959,-17.6361,179.758,0.966797,-154.951,264
1567848674,361.541,-136.959,-17.6361,179.758,0.966797,-154.951,264
1567848674,361.541,-136.959,-17.6361,179.758,0.966797,-154.951,264
1567848674,361.541,-136.959,-17.6361,179.758,0.966797,-154.951,264
1567848674,361.541,-136.959,-17.6361,179.758,0.966797,-154.951,260
1567848674,361.541,-136.959,-17.6361,179.758,0.966797,-154.951,260
1567848674,361.541,-136.959,-17.6361,179.758,0.966797,-154.929,260
1567848674,361.541,-136.959,-17.5245,179.758,0.966797,-154.929,260
1567848674,361.541,-136.847,-17.5245,179.758,0.966797,-154.929,260
1567848674,361.541,-136.847,-17.5245,179.758,0.966797,-154.929,260
1567848674,361.541,-136.847,-17.5245,179.758,0.966797,-154.929,260
1567848674,361.541,-136.847,-17.5245,179.758,0.966797,-154.929,264
1567848674,361.541,-136.959,-17.5245,179.758,0.966797,-154.929,264
1567848674,361.541,-136.959,-17.5245,179.758,0.966797,-154.929,264
1567848674,361.541,-136.959,-17.5245,179.758,0.966797,-154.929,264
1567848674,361.541,-136.959,-17.5245,179.758,0.966797,-154.929,264
1567848675,361.541,-136.959,-17.5245,179.736,0.966797,-154.929,268
1567848675,361.541,-136.959,-17.5245,179.736,0.966797,-154.929,268
1567848675,361.541,-136.959,-17.5245,179.736,0.966797,-154.929,268
1567848675,361.541,-136.959,-17.5245,179.758,0.966797,-154.929,268
1567848675,361.541,-136.847,-17.5245,179.758,0.966797,-154.929,268
1567848675,361.541,-136.847,-17.5245,179.758,0.966797,-154.929,268
1567848675,361.541,-136.847,-17.5245,179.758,0.966797,-154.929,268
1567848675,361.541,-136.847,-17.5245,179.758,0.966797,-154.929,268
1567848675,361.541,-136.847,-17.5245,179.758,0.966797,-154.929,268
1567848675,361.541,-136.847,-17.5245,179.758,0.966797,-154.929,268
1567848675,361.541,-136.847,-17.5245,179.758,0.98877,-154.929,268
1567848675,361.541,-136.847,-17.5245,179.758,0.98877,-154.929,264
1567848675,361.541,-136.847,-17.5245,179.758,0.98877,-154.929,264
1567848675,361.541,-136.847,-17.5245,179.758,0.98877,-154.929,264
1567848675,361.541,-136.847,-17.5245,179.758,0.98877,-154.951,264
1567848675,361.541,-136.847,-17.5245,179.758,0.98877,-154.951,260
1567848675,361.541,-136.847,-17.5245,179.758,0.98877,-154.951,260
1567848675,361.541,-136.847,-17.5245,179.758,0.98877,-154.951,260
1567848675,361.541,-136.847,-17.5245,179.758,0.98877,-154.951,260
1567848675,361.541,-136.847,-17.5245,179.758,0.98877,-154.951,260
1567848675,361.541,-136.847,-17.5245,179.758,0.98877,-154.951,260
1567848675,361.541,-136.959,-17.5245,179.758,0.98877,-154.951,260
1567848675,361.541,-136.959,-17.5245,179.736,0.98877,-154.951,256
1567848675,361.541,-136.959,-17.5245,179.736,0.98877,-154.951,256
1567848675,361.541,-136.959,-17.5245,179.736,0.966797,-154.951,256
1567848675,361.541,-136.959,-17.5245,179.736,0.966797,-154.951,256
1567848675,361.541,-136.959,-17.5245,179.736,0.966797,-154.951,256
1567848675,361.541,-136.959,-17.5245,179.736,0.966797,-154.951,256
1567848675,361.541,-136.959,-17.5245,179.736,0.966797,-154.951,256
1567848675,361.541,-136.959,-17.5245,179.736,0.966797,-154.951,256
1567848675,361.541,-136.959,-17.5245,179.736,0.966797,-154.951,256
1567848675,361.541,-136.959,-17.5245,179.736,0.966797,-154.951,256
1567848675,361.541,-136.959,-17.5245,179.736,0.966797,-154.951,252
1567848675,361.541,-136.959,-17.5245,179.736,0.98877,-154.951,252
1567848675,361.541,-136.959,-17.5245,179.736,0.98877,-154.951,252
1567848675,361.541,-136.959,-17.5245,179.736,0.98877,-154.951,252
1567848675,361.541,-137.071,-17.5245,179.736,0.98877,-154.951,252
1567848675,361.541,-137.071,-17.5245,179.736,0.98877,-154.951,252
1567848675,361.541,-137.071,-17.5245,179.736,0.98877,-154.951,252
1567848675,361.541,-137.071,-17.5245,179.736,1.01074,-154.951,252
1567848675,361.541,-137.071,-17.5245,179.736,1.01074,-154.951,252
1567848675,361.541,-137.071,-17.4129,179.714,1.01074,-154.951,252
1567848675,361.541,-137.071,-17.4129,179.714,1.01074,-154.951,252
1567848675,361.541,-137.071,-17.4129,179.714,1.01074,-154.951,252
1567848675,361.541,-137.071,-17.4129,179.714,1.01074,-154.951,252
1567848675,361.541,-137.071,-17.4129,179.714,1.01074,-154.951,252
1567848675,361.541,-137.071,-17.4129,179.714,1.03271,-154.951,256
1567848675,361.541,-137.071,-17.4129,179.714,1.03271,-154.951,256
1567848675,361.541,-137.071,-17.4129,179.714,1.03271,-154.929,256
1567848675,361.541,-137.071,-17.4129,179.714,1.03271,-154.929,256
1567848675,361.541,-137.071,-17.3013,179.714,1.03271,-154.929,256
1567848675,361.541,-137.071,-17.3013,179.714,1.03271,-154.929,256
1567848675,361.541,-137.071,-17.3013,179.714,1.03271,-154.929,256
1567848675,361.541,-137.071,-17.3013,179.714,1.03271,-154.929,256
1567848675,361.541,-137.071,-17.3013,179.714,1.03271,-154.929,256
1567848675,361.541,-137.071,-17.3013,179.714,1.03271,-154.929,256
1567848675,361.541,-137.071,-17.3013,179.714,1.03271,-154.929,256
1567848675,361.541,-137.071,-17.3013,179.714,1.03271,-154.929,256
1567848675,361.541,-137.071,-17.3013,179.714,1.03271,-154.929,256
1567848675,361.541,-137.071,-17.3013,179.714,1.03271,-154.929,256
1567848675,361.541,-137.071,-17.3013,179.714,1.03271,-154.929,256
1567848675,361.541,-137.071,-17.3013,179.714,1.03271,-154.929,260
1567848675,361.541,-137.071,-17.3013,179.714,1.03271,-154.929,260
1567848675,361.652,-137.071,-17.3013,179.714,1.05469,-154.929,260
1567848675,361.652,-136.959,-17.3013,179.736,1.05469,-154.929,260
1567848675,361.652,-136.959,-17.3013,179.736,1.03271,-154.929,260
1567848675,361.652,-136.959,-17.3013,179.736,1.03271,-154.929,260
1567848675,361.652,-136.959,-17.3013,179.736,1.03271,-154.929,260
1567848675,361.652,-136.959,-17.3013,179.736,1.03271,-154.929,260
1567848675,361.652,-136.959,-17.3013,179.758,1.03271,-154.929,260
1567848675,361.652,-136.959,-17.3013,179.758,1.03271,-154.951,260
1567848675,361.652,-136.959,-17.3013,179.758,1.03271,-154.951,260
1567848675,361.652,-136.959,-17.3013,179.758,1.03271,-154.951,260
1567848675,361.652,-136.959,-17.3013,179.758,1.03271,-154.951,260
1567848675,361.652,-136.959,-17.4129,179.758,1.03271,-154.929,260
1567848675,361.652,-136.959,-17.4129,179.758,1.03271,-154.929,260
1567848675,361.652,-136.959,-17.4129,179.758,1.03271,-154.929,256
1567848675,361.652,-136.959,-17.4129,179.758,1.01074,-154.929,256
1567848675,361.652,-136.959,-17.4129,179.758,1.01074,-154.929,256
1567848675,361.652,-136.959,-17.4129,179.758,1.01074,-154.929,256
1567848675,361.652,-136.959,-17.4129,179.758,1.01074,-154.929,256
1567848675,361.652,-136.959,-17.4129,179.758,1.01074,-154.929,256
1567848675,361.652,-136.959,-17.4129,179.758,1.01074,-154.929,256
1567848675,361.541,-136.959,-17.4129,179.736,1.01074,-154.929,256
1567848675,361.541,-136.959,-17.4129,179.736,1.01074,-154.929,256
1567848675,361.541,-136.959,-17.4129,179.736,0.98877,-154.907,256
1567848675,361.541,-136.959,-17.4129,179.736,0.98877,-154.907,256
1567848675,361.541,-136.959,-17.4129,179.736,0.98877,-154.907,256
1567848675,361.541,-136.959,-17.4129,179.736,0.98877,-154.929,256
1567848675,361.541,-136.959,-17.5245,179.736,0.98877,-154.929,256
1567848675,361.541,-136.959,-17.5245,179.736,0.98877,-154.929,256
1567848675,361.541,-136.959,-17.5245,179.736,0.98877,-154.929,256
1567848675,361.541,-136.959,-17.5245,179.736,0.98877,-154.929,256
1567848675,361.541,-136.959,-17.5245,179.736,0.98877,-154.929,256
1567848675,361.541,-136.959,-17.5245,179.736,0.98877,-154.929,256
1567848675,361.652,-136.959,-17.5245,179.736,0.98877,-154.929,252
1567848675,361.652,-136.959,-17.5245,179.736,0.98877,-154.929,252
1567848675,361.652,-136.959,-17.5245,179.736,0.98877,-154.929,252
1567848675,361.652,-136.959,-17.5245,179.736,0.98877,-154.929,252
1567848675,361.652,-136.959,-17.5245,179.758,0.98877,-154.929,252
1567848676,361.541,-136.959,-17.5245,179.758,0.98877,-154.951,252
1567848676,361.541,-136.959,-17.5245,179.758,0.98877,-154.951,252
1567848676,361.541,-136.959,-17.5245,179.758,0.98877,-154.951,256
1567848676,361.541,-136.959,-17.5245,179.758,0.98877,-154.951,256
1567848676,361.541,-136.959,-17.5245,179.758,1.01074,-154.951,256
1567848676,361.541,-136.959,-17.5245,179.758,1.01074,-154.951,256
1567848676,361.541,-136.959,-17.5245,179.758,1.01074,-154.951,256
1567848676,361.541,-136.847,-17.4129,179.758,1.01074,-154.951,256
1567848676,361.541,-136.847,-17.4129,179.758,1.01074,-154.929,256
1567848676,361.541,-136.847,-17.4129,179.758,1.01074,-154.929,256
1567848676,361.541,-136.847,-17.4129,179.758,1.01074,-154.929,256
1567848676,361.541,-136.847,-17.4129,179.758,1.01074,-154.929,256
1567848676,361.541,-136.847,-17.4129,179.78,1.01074,-154.929,256
1567848676,361.541,-136.847,-17.4129,179.78,1.01074,-154.929,256
1567848676,361.541,-136.847,-17.4129,179.78,1.01074,-154.929,256
1567848676,361.541,-136.847,-17.4129,179.78,1.01074,-154.929,256
1567848676,361.541,-136.847,-17.4129,179.78,1.01074,-154.929,256
1567848676,361.541,-136.847,-17.4129,179.78,0.98877,-154.929,256
1567848676,361.541,-136.847,-17.4129,179.78,0.98877,-154.929,256
1567848676,361.541,-136.847,-17.4129,179.78,0.98877,-154.929,256
1567848676,361.541,-136.736,-17.4129,179.78,0.98877,-154.929,256
1567848676,361.541,-136.847,-17.4129,179.78,1.01074,-154.929,260
1567848676,361.541,-136.847,-17.4129,179.78,1.01074,-154.929,260
1567848676,361.541,-136.847,-17.4129,179.78,1.01074,-154.929,260
1567848676,361.541,-136.847,-17.4129,179.78,1.01074,-154.929,260
1567848676,361.541,-136.847,-17.4129,179.758,0.98877,-154.929,264
1567848676,361.541,-136.847,-17.4129,179.758,0.98877,-154.929,264
1567848676,361.541,-136.847,-17.4129,179.758,0.98877,-154.929,268
1567848676,361.541,-136.847,-17.4129,179.758,0.98877,-154.929,268
1567848676,361.541,-136.847,-17.4129,179.758,0.98877,-154.929,268
1567848676,361.541,-136.847,-17.4129,179.758,0.98877,-154.929,268
1567848676,361.541,-136.847,-17.4129,179.758,0.98877,-154.929,272
1567848676,361.541,-136.847,-17.4129,179.758,0.98877,-154.929,272
1567848676,361.541,-136.847,-17.4129,179.758,0.98877,-154.929,272
1567848676,361.541,-136.847,-17.4129,179.758,0.98877,-154.929,272
1567848676,361.541,-136.847,-17.4129,179.758,0.98877,-154.929,272
1567848676,361.541,-136.847,-17.4129,179.758,0.98877,-154.929,272
1567848676,361.541,-136.847,-17.4129,179.758,0.966797,-154.929,272
1567848676,361.541,-136.847,-17.4129,179.758,0.966797,-154.907,272
1567848676,361.541,-136.847,-17.4129,179.758,0.966797,-154.907,272
1567848676,361.541,-136.847,-17.5245,179.758,0.966797,-154.907,272
1567848676,361.541,-136.959,-17.5245,179.758,0.966797,-154.907,268
1567848676,361.541,-136.959,-17.5245,179.758,0.98877,-154.907,268
1567848676,361.541,-136.959,-17.4129,179.758,0.98877,-154.907,268
1567848676,361.541,-136.959,-17.4129,179.758,0.98877,-154.907,268
1567848676,361.541,-136.959,-17.4129,179.758,0.98877,-154.907,264
1567848676,361.541,-136.959,-17.4129,179.758,0.98877,-154.907,264
1567848676,361.541,-136.959,-17.4129,179.758,0.98877,-154.907,264
1567848676,361.541,-136.959,-17.4129,179.758,0.98877,-154.929,264
1567848676,361.541,-136.959,-17.4129,179.758,0.98877,-154.929,264
1567848676,361.541,-136.959,-17.4129,179.758,0.98877,-154.929,260
1567848676,361.541,-136.959,-17.4129,179.758,0.98877,-154.929,260
1567848676,361.541,-136.959,-17.4129,179.736,0.98877,-154.929,260
1567848676,361.541,-136.959,-17.4129,179.736,0.98877,-154.929,260
1567848676,361.541,-136.959,-17.4129,179.758,0.98877,-154.929,260
1567848676,361.541,-136.847,-17.4129,179.758,0.98877,-154.929,260
1567848676,361.541,-136.847,-17.4129,179.758,0.98877,-154.929,260
1567848676,361.541,-136.959,-17.4129,179.758,0.98877,-154.929,260
1567848676,361.541,-136.959,-17.4129,179.758,1.01074,-154.929,260
1567848676,361.541,-136.959,-17.4129,179.758,1.01074,-154.929,260
1567848676,361.541,-136.847,-17.4129,179.758,0.98877,-154.929,260
1567848676,361.541,-136.847,-17.4129,179.758,0.98877,-154.929,260
1567848676,361.541,-136.847,-17.4129,179.758,0.98877,-154.929,260
1567848676,361.541,-136.847,-17.4129,179.758,0.98877,-154.929,260
1567848676,361.541,-136.847,-17.4129,179.758,0.98877,-154.929,260
1567848676,361.541,-136.847,-17.4129,179.758,0.98877,-154.929,260
1567848676,361.541,-136.847,-17.4129,179.758,0.98877,-154.929,260
1567848676,361.541,-136.847,-17.4129,179.758,0.98877,-154.929,260
1567848676,361.541,-136.847,-17.4129,179.758,0.98877,-154.929,260
1567848676,361.541,-136.959,-17.4129,179.758,0.98877,-154.929,260
1567848676,361.541,-136.959,-17.4129,179.758,0.98877,-154.929,260
1567848676,361.541,-136.959,-17.4129,179.758,0.98877,-154.929,260
1567848676,361.541,-136.959,-17.5245,179.758,0.98877,-154.929,260
1567848676,361.541,-136.959,-17.5245,179.758,0.98877,-154.929,260
1567848676,361.541,-136.959,-17.5245,179.758,0.98877,-154.929,260
1567848676,361.541,-136.959,-17.5245,179.758,0.98877,-154.929,256
1567848676,361.541,-136.959,-17.5245,179.758,0.98877,-154.929,256
1567849776,400.943,-177.254,-16.5199,179.89,1.93359,-154.797,304
1567849776,400.943,-177.143,-16.6315,179.912,1.93359,-154.797,308
1567849776,400.943,-177.143,-16.6315,179.912,1.91162,-154.797,308
1567849776,400.943,-177.143,-16.6315,179.912,1.91162,-154.797,308
1567849776,400.943,-177.143,-16.6315,179.912,1.91162,-154.797,304
1567849776,400.943,-177.143,-16.6315,179.912,1.91162,-154.797,304
1567849776,400.943,-177.143,-16.6315,179.912,1.91162,-154.797,304
1567849776,400.943,-177.143,-16.6315,179.912,1.91162,-154.797,304
1567849776,401.055,-177.143,-16.6315,179.912,1.91162,-154.797,300
1567849776,401.055,-177.143,-16.6315,179.912,1.91162,-154.797,300
1567849776,401.055,-177.143,-16.6315,179.912,1.91162,-154.797,296
1567849776,401.055,-177.254,-16.5199,179.912,1.93359,-154.797,296
1567849776,401.055,-177.254,-16.5199,179.912,1.93359,-154.797,296
1567849776,401.055,-177.143,-16.5199,179.912,1.95557,-154.797,292
1567849776,401.055,-177.143,-16.5199,179.934,1.95557,-154.797,292
1567849776,401.055,-177.143,-16.4083,179.934,1.95557,-154.797,292
1567849776,401.055,-177.143,-16.4083,179.934,1.95557,-154.775,292
1567849776,401.055,-177.143,-16.4083,179.934,1.97754,-154.775,292
1567849776,401.055,-177.143,-16.4083,179.934,1.97754,-154.775,292
1567849776,401.055,-177.143,-16.4083,179.934,1.97754,-154.775,292
1567849776,401.055,-177.254,-16.4083,179.912,1.97754,-154.775,292
1567849776,401.055,-177.254,-16.2967,179.912,1.97754,-154.775,292
1567849776,400.943,-177.254,-16.4083,179.912,1.97754,-154.775,292
1567849776,400.943,-177.254,-16.4083,179.912,1.97754,-154.775,292
1567849776,401.055,-177.254,-16.2967,179.912,1.97754,-154.753,292
1567849776,401.055,-177.254,-16.2967,179.912,1.97754,-154.753,292
1567849776,401.055,-177.254,-16.2967,179.912,1.97754,-154.753,292
1567849776,401.055,-177.254,-16.2967,179.912,1.97754,-154.753,292
1567849776,401.055,-177.254,-16.2967,179.912,1.97754,-154.753,292
1567849776,401.055,-177.254,-16.2967,179.912,1.97754,-154.753,292
1567849776,401.055,-177.254,-16.2967,179.912,1.97754,-154.753,292
1567849776,401.055,-177.254,-16.2967,179.912,1.97754,-154.753,296
1567849776,401.055,-177.254,-16.2967,179.912,1.97754,-154.753,296
1567849776,401.055,-177.254,-16.2967,179.912,1.97754,-154.753,296
1567849776,401.055,-177.254,-16.2967,179.912,1.97754,-154.753,296
1567849776,401.055,-177.254,-16.2967,179.912,1.97754,-154.753,300
1567849776,401.055,-177.254,-16.2967,179.912,1.97754,-154.753,300
1567849776,401.055,-177.254,-16.2967,179.912,1.97754,-154.753,300
1567849776,401.055,-177.254,-16.2967,179.912,1.97754,-154.753,304
1567849776,401.055,-177.254,-16.2967,179.912,1.97754,-154.753,304
1567849776,401.055,-177.254,-16.4083,179.912,1.95557,-154.775,308
1567849776,401.055,-177.254,-16.4083,179.912,1.95557,-154.775,308
1567849776,401.055,-177.254,-16.4083,179.912,1.95557,-154.775,312
1567849776,400.943,-177.254,-16.4083,179.89,1.95557,-154.775,312
1567849776,400.943,-177.254,-16.4083,179.89,1.95557,-154.775,316
1567849776,400.943,-177.254,-16.4083,179.89,1.95557,-154.775,316
1567849776,400.943,-177.254,-16.4083,179.89,1.95557,-154.797,316
1567849776,400.943,-177.254,-16.4083,179.89,1.95557,-154.797,316
1567849776,400.943,-177.254,-16.4083,179.89,1.95557,-154.797,320
1567849776,400.943,-177.254,-16.4083,179.89,1.95557,-154.797,320
1567849776,400.943,-177.254,-16.4083,179.868,1.95557,-154.797,320
1567849776,400.943,-177.366,-16.4083,179.868,1.95557,-154.797,320
1567849776,400.943,-177.366,-16.4083,179.868,1.95557,-154.797,316
1567849776,400.943,-177.366,-16.4083,179.868,1.95557,-154.797,316
1567849776,400.943,-177.366,-16.4083,179.868,1.95557,-154.797,316
1567849776,400.943,-177.366,-16.4083,179.868,1.95557,-154.797,316
1567849776,401.055,-177.366,-16.4083,179.868,1.95557,-154.797,316
1567849776,401.055,-177.366,-16.4083,179.868,1.95557,-154.797,316
1567849776,401.055,-177.366,-16.4083,179.868,1.95557,-154.797,316
1567849776,401.055,-177.366,-16.4083,179.89,1.95557,-154.797,316
1567849776,401.055,-177.254,-16.2967,179.89,1.97754,-154.775,316
1567849776,401.055,-177.254,-16.2967,179.89,1.97754,-154.775,316
1567849776,401.055,-177.254,-16.2967,179.89,1.97754,-154.775,316
1567849776,401.055,-177.254,-16.2967,179.89,1.97754,-154.775,320
1567849776,401.055,-177.254,-16.2967,179.912,1.97754,-154.775,320
1567849776,401.055,-177.254,-16.2967,179.912,1.97754,-154.775,320
1567849776,401.055,-177.254,-16.2967,179.912,1.97754,-154.775,320
1567849776,401.055,-177.254,-16.2967,179.912,1.97754,-154.775,320
1567849777,401.055,-177.143,-16.2967,179.912,1.97754,-154.775,320
1567849777,401.055,-177.143,-16.2967,179.912,1.97754,-154.775,320
1567849777,401.055,-177.143,-16.2967,179.912,1.97754,-154.775,320
1567849777,401.055,-177.143,-16.2967,179.912,1.97754,-154.775,320
1567849777,401.055,-177.143,-16.2967,179.912,1.97754,-154.775,320
1567849777,401.055,-177.254,-16.2967,179.912,1.97754,-154.775,316
1567849777,401.055,-177.254,-16.2967,179.912,1.97754,-154.775,316
1567849777,401.055,-177.254,-16.2967,179.912,1.97754,-154.775,316
1567849777,401.055,-177.254,-16.2967,179.912,1.99951,-154.775,312
1567849777,401.055,-177.254,-16.2967,179.912,1.99951,-154.775,312
1567849777,401.055,-177.254,-16.2967,179.912,1.99951,-154.775,308
1567849777,401.055,-177.254,-16.2967,179.912,1.99951,-154.775,308
1567849777,401.055,-177.254,-16.2967,179.89,1.99951,-154.775,308
1567849777,400.943,-177.254,-16.2967,179.89,1.99951,-154.775,308
1567849777,400.943,-177.254,-16.2967,179.89,1.99951,-154.775,308
1567849777,400.943,-177.254,-16.2967,179.89,1.99951,-154.775,308
1567849777,400.943,-177.254,-16.2967,179.89,1.99951,-154.775,308
1567849777,400.943,-177.254,-16.2967,179.89,1.99951,-154.775,308
1567849777,400.943,-177.254,-16.2967,179.89,1.99951,-154.775,308
1567849777,400.943,-177.254,-16.2967,179.89,1.99951,-154.775,308
1567849777,400.943,-177.254,-16.2967,179.89,1.97754,-154.775,308
1567849777,400.943,-177.254,-16.2967,179.89,1.97754,-154.775,308
1567849777,400.943,-177.254,-16.2967,179.89,1.97754,-154.775,308
1567849777,400.943,-177.254,-16.2967,179.912,1.97754,-154.775,308
1567849777,400.943,-177.254,-16.2967,179.912,1.97754,-154.775,308
1567849777,400.943,-177.254,-16.2967,179.912,1.99951,-154.775,308
1567849777,400.943,-177.254,-16.2967,179.912,1.99951,-154.775,308
1567849777,401.055,-177.254,-16.2967,179.912,1.99951,-154.775,308
1567849777,401.055,-177.254,-16.2967,179.912,1.99951,-154.775,308
1567849777,401.055,-177.254,-16.2967,179.89,1.99951,-154.753,308
1567849777,401.055,-177.254,-16.2967,179.89,1.99951,-154.753,304
1567849777,401.055,-177.254,-16.2967,179.89,1.99951,-154.753,304
1567849777,401.055,-177.254,-16.2967,179.89,1.99951,-154.753,304
1567849777,401.055,-177.254,-16.2967,179.89,2.02148,-154.753,304
1567849777,401.055,-177.254,-16.2967,179.89,1.99951,-154.753,304
1567849777,401.055,-177.254,-16.2967,179.89,1.99951,-154.753,304
1567849777,401.055,-177.254,-16.2967,179.89,1.99951,-154.753,304
1567849777,401.055,-177.254,-16.2967,179.89,1.99951,-154.753,300
1567849777,401.055,-177.254,-16.2967,179.912,1.99951,-154.753,300
1567849777,401.055,-177.254,-16.2967,179.912,1.97754,-154.753,300
1567849777,401.055,-177.254,-16.2967,179.912,1.97754,-154.753,300
1567849777,400.943,-177.254,-16.2967,179.912,1.97754,-154.753,300
1567849777,400.943,-177.254,-16.2967,179.89,1.97754,-154.753,300
1567849777,401.055,-177.254,-16.2967,179.89,1.97754,-154.753,300
1567849777,401.055,-177.254,-16.2967,179.89,1.97754,-154.753,300
1567849777,401.055,-177.254,-16.2967,179.912,1.97754,-154.753,300
1567849777,401.055,-177.254,-16.2967,179.912,1.97754,-154.753,300
1567849777,401.055,-177.254,-16.2967,179.912,1.97754,-154.753,300
1567849777,401.055,-177.254,-16.2967,179.912,1.97754,-154.753,300
1567849777,401.055,-177.254,-16.2967,179.912,1.97754,-154.753,300
1567849777,401.055,-177.254,-16.2967,179.89,1.97754,-154.753,300
1567849777,401.055,-177.366,-16.2967,179.89,1.97754,-154.753,300
1567849777,401.055,-177.366,-16.2967,179.89,1.97754,-154.753,300
1567849777,401.055,-177.366,-16.2967,179.89,1.97754,-154.753,300
1567849777,401.055,-177.366,-16.2967,179.89,1.97754,-154.753,300
1567849777,401.055,-177.366,-16.2967,179.89,1.97754,-154.775,300
1567849777,401.055,-177.366,-16.2967,179.89,1.97754,-154.753,300
1567849777,401.055,-177.366,-16.2967,179.89,1.97754,-154.753,300
1567849777,401.055,-177.366,-16.2967,179.89,1.97754,-154.753,300
1567849777,401.055,-177.366,-16.2967,179.89,1.97754,-154.753,300
1567849777,401.055,-177.366,-16.2967,179.89,1.97754,-154.753,300
1567849777,401.055,-177.366,-16.2967,179.89,1.97754,-154.753,296
1567849777,401.055,-177.366,-16.2967,179.89,1.97754,-154.753,296
1567849777,401.166,-177.366,-16.2967,179.89,1.99951,-154.753,296
1567849777,401.166,-177.366,-16.2967,179.89,1.99951,-154.753,296
1567849777,401.166,-177.366,-16.2967,179.912,1.99951,-154.753,296
1567849777,401.166,-177.366,-16.2967,179.912,1.99951,-154.753,296
1567849777,401.166,-177.254,-16.2967,179.912,1.99951,-154.753,296
1567849777,401.166,-177.254,-16.2967,179.912,1.99951,-154.753,296
1567849777,401.166,-177.254,-16.2967,179.912,1.99951,-154.753,296
1567849777,401.166,-177.254,-16.2967,179.912,1.99951,-154.753,300
1567849777,401.166,-177.254,-16.2967,179.912,1.99951,-154.753,300
1567849777,401.166,-177.254,-16.2967,179.912,1.99951,-154.753,300
1567849777,401.166,-177.254,-16.2967,179.934,1.97754,-154.775,300
1567849777,401.166,-177.254,-16.2967,179.934,1.97754,-154.775,300
1567849777,401.166,-177.254,-16.2967,179.934,1.97754,-154.775,304
1567849777,401.166,-177.254,-16.2967,179.934,1.97754,-154.775,304
1567849777,401.055,-177.254,-16.2967,179.934,1.97754,-154.775,304
1567849777,401.055,-177.254,-16.4083,179.934,1.97754,-154.775,304
1567849777,401.055,-177.254,-16.4083,179.934,1.97754,-154.775,304
1567849777,401.055,-177.143,-16.4083,179.934,1.97754,-154.797,304
1567849777,401.055,-177.254,-16.4083,179.934,1.97754,-154.797,304
1567849777,401.055,-177.254,-16.4083,179.934,1.97754,-154.797,304
1567849777,401.055,-177.254,-16.4083,179.934,1.97754,-154.797,304
1567849777,401.055,-177.254,-16.4083,179.934,1.97754,-154.775,308
1567849777,401.055,-177.254,-16.2967,179.934,1.97754,-154.775,308
1567849777,401.055,-177.254,-16.2967,179.934,1.97754,-154.775,308
1567849777,401.055,-177.254,-16.2967,179.934,1.97754,-154.775,308
1567849777,401.055,-177.254,-16.2967,179.934,1.97754,-154.775,308
1567849777,401.055,-177.254,-16.2967,179.934,1.97754,-154.775,308
1567849777,401.055,-177.254,-16.2967,179.934,1.97754,-154.775,304
1567849777,401.055,-177.254,-16.2967,179.912,1.97754,-154.775,304
1567849777,401.055,-177.254,-16.2967,179.912,1.99951,-154.775,304
1567849777,401.166,-177.254,-16.2967,179.912,1.99951,-154.775,300
1567849777,401.166,-177.254,-16.2967,179.912,1.99951,-154.775,300
1567849777,401.166,-177.254,-16.2967,179.912,1.99951,-154.775,300
1567849777,401.166,-177.254,-16.2967,179.912,1.99951,-154.775,296
1567849777,401.166,-177.254,-16.2967,179.912,1.99951,-154.775,296
1567849777,401.166,-177.254,-16.2967,179.912,1.99951,-154.775,296
1567849777,401.166,-177.254,-16.2967,179.912,1.99951,-154.775,296
1567849778,401.166,-177.254,-16.2967,179.912,1.99951,-154.797,296
1567849778,401.166,-177.254,-16.2967,179.912,1.99951,-154.797,296
1567849778,401.055,-177.254,-16.2967,179.912,1.99951,-154.797,296
1567849778,401.055,-177.143,-16.2967,179.912,1.99951,-154.797,296
1567849778,401.055,-177.143,-16.2967,179.912,1.97754,-154.797,296
1567849778,401.055,-177.143,-16.2967,179.912,1.97754,-154.797,296
1567849778,401.055,-177.143,-16.2967,179.912,1.97754,-154.797,296
1567849778,401.055,-177.143,-16.2967,179.912,1.97754,-154.797,296
1567849778,401.055,-177.143,-16.2967,179.912,1.97754,-154.797,296
1567849778,401.055,-177.143,-16.2967,179.912,1.97754,-154.775,296
1567849778,400.943,-177.143,-16.2967,179.912,1.97754,-154.775,296
1567849778,400.943,-177.143,-16.2967,179.912,1.97754,-154.775,296
1567849778,400.943,-177.254,-16.2967,179.912,1.95557,-154.775,292
1567849778,400.943,-177.254,-16.2967,179.912,1.95557,-154.775,292
1567849778,400.943,-177.254,-16.4083,179.912,1.95557,-154.775,292
1567849778,400.943,-177.254,-16.4083,179.912,1.95557,-154.775,292
1567849778,400.943,-177.143,-16.4083,179.912,1.95557,-154.775,292
1567849778,400.943,-177.143,-16.4083,179.912,1.95557,-154.775,292
1567849778,400.943,-177.143,-16.4083,179.89,1.95557,-154.775,292
1567849778,400.943,-177.254,-16.4083,179.89,1.95557,-154.775,292
1567849778,400.943,-177.254,-16.4083,179.89,1.95557,-154.775,292
1567849778,400.943,-177.254,-16.4083,179.89,1.95557,-154.775,292
1567849778,400.943,-177.254,-16.4083,179.89,1.95557,-154.775,292
1567849778,401.055,-177.254,-16.4083,179.912,1.95557,-154.775,292
1567849778,401.055,-177.254,-16.4083,179.89,1.95557,-154.775,292
1567849778,401.055,-177.254,-16.4083,179.89,1.95557,-154.775,296
1567849778,401.055,-177.254,-16.2967,179.89,1.95557,-154.775,296
1567849778,401.055,-177.254,-16.2967,179.912,1.97754,-154.775,296
1567849778,401.055,-177.254,-16.2967,179.912,1.97754,-154.775,296
1567849778,401.055,-177.254,-16.2967,179.912,1.97754,-154.775,296
1567849778,401.055,-177.143,-16.2967,179.912,1.97754,-154.775,300
1567849778,401.055,-177.143,-16.2967,179.912,1.97754,-154.775,300
1567849778,401.055,-177.254,-16.2967,179.912,1.97754,-154.775,300
1567849778,401.055,-177.254,-16.2967,179.912,1.97754,-154.775,300
1567849778,401.055,-177.254,-16.2967,179.912,1.97754,-154.775,304
1567849778,401.055,-177.143,-16.2967,179.912,1.97754,-154.775,304
1567849778,401.055,-177.143,-16.2967,179.912,1.97754,-154.775,304
1567849778,401.055,-177.143,-16.2967,179.912,1.97754,-154.797,304
1567849778,401.055,-177.143,-16.2967,179.912,1.97754,-154.797,304
1567849778,401.166,-177.143,-16.2967,179.934,1.97754,-154.797,304
1567849778,401.166,-177.143,-16.4083,179.934,1.97754,-154.797,304
1567849778,401.166,-177.143,-16.4083,179.934,1.97754,-154.797,304
1567849778,401.166,-177.143,-16.4083,179.934,1.95557,-154.797,304
1567849778,401.166,-177.143,-16.4083,179.934,1.95557,-154.797,304
1567849778,401.166,-177.143,-16.4083,179.934,1.95557,-154.797,304
1567849778,401.055,-177.254,-16.4083,179.934,1.95557,-154.819,304
1567849778,401.055,-177.254,-16.4083,179.912,1.95557,-154.819,304
1567849778,401.055,-177.254,-16.4083,179.912,1.95557,-154.819,304
1567849778,401.055,-177.254,-16.4083,179.912,1.95557,-154.819,304
1567849778,401.055,-177.254,-16.4083,179.912,1.95557,-154.819,304
1567849778,401.055,-177.254,-16.4083,179.89,1.95557,-154.819,304
1567849778,401.055,-177.254,-16.4083,179.89,1.95557,-154.819,304
1567849778,401.055,-177.254,-16.4083,179.89,1.97754,-154.819,304
1567849778,401.055,-177.254,-16.2967,179.89,1.97754,-154.819,308
1567849778,400.943,-177.254,-16.2967,179.89,1.97754,-154.819,308
1567849778,400.943,-177.254,-16.2967,179.89,1.97754,-154.819,308
1567849778,400.943,-177.254,-16.2967,179.89,1.99951,-154.819,308
1567849778,400.943,-177.254,-16.2967,179.89,1.99951,-154.819,308
1567849778,400.943,-177.254,-16.2967,179.912,1.99951,-154.819,308
1567849778,400.943,-177.254,-16.2967,179.912,1.99951,-154.819,308
1567849778,401.055,-177.254,-16.2967,179.912,1.99951,-154.797,308
1567849778,401.055,-177.254,-16.2967,179.912,1.99951,-154.797,308
1567849778,401.055,-177.254,-16.2967,179.912,1.99951,-154.797,308
1567849778,401.055,-177.254,-16.2967,179.912,1.99951,-154.797,304
1567849778,401.055,-177.254,-16.2967,179.912,1.99951,-154.797,304
1567849778,401.055,-177.254,-16.2967,179.912,1.99951,-154.797,304
1567849778,401.055,-177.366,-16.2967,179.912,1.99951,-154.797,304
1567849778,401.055,-177.366,-16.2967,179.912,1.99951,-154.797,300
1567849778,401.055,-177.366,-16.2967,179.89,2.02148,-154.797,300
1567849778,401.055,-177.366,-16.2967,179.89,2.02148,-154.797,300
1567849778,401.055,-177.366,-16.2967,179.89,2.02148,-154.797,300
1567849778,400.943,-177.366,-16.2967,179.89,2.02148,-154.797,300
1567849778,400.943,-177.366,-16.2967,179.89,2.02148,-154.797,300
1567849778,400.943,-177.366,-16.1851,179.89,2.02148,-154.797,300
1567849778,401.055,-177.366,-16.1851,179.89,2.02148,-154.797,296
1567849778,401.055,-177.366,-16.1851,179.89,2.02148,-154.775,296
1567849778,401.055,-177.366,-16.1851,179.89,2.02148,-154.775,296
1567849778,401.055,-177.366,-16.1851,179.89,2.02148,-154.775,296
1567849778,401.055,-177.366,-16.1851,179.89,2.02148,-154.775,296
1567849778,401.055,-177.366,-16.1851,179.89,2.02148,-154.775,296
1567849778,401.055,-177.366,-16.1851,179.89,2.02148,-154.775,296
1567849778,401.055,-177.366,-16.1851,179.89,2.02148,-154.775,296
1567849778,401.055,-177.366,-16.1851,179.89,2.04346,-154.775,296
1567849778,401.055,-177.366,-16.1851,179.89,2.04346,-154.775,296
1567849778,401.055,-177.478,-16.1851,179.89,2.02148,-154.775,296
1567849778,401.055,-177.478,-16.1851,179.868,2.02148,-154.775,296
1567849778,401.055,-177.478,-16.1851,179.868,2.02148,-154.775,296
1567849778,401.055,-177.366,-16.1851,179.868,2.02148,-154.775,292
1567849778,401.055,-177.366,-16.1851,179.868,2.02148,-154.775,296
1567849778,401.055,-177.366,-16.1851,179.89,2.02148,-154.775,296
1567849778,401.055,-177.366,-16.1851,179.89,1.99951,-154.775,296
1567849778,401.055,-177.366,-16.1851,179.89,1.99951,-154.775,296
1567849778,401.055,-177.366,-16.1851,179.89,1.99951,-154.775,296
1567849778,401.055,-177.254,-16.1851,179.912,1.99951,-154.775,296
1567849778,401.055,-177.254,-16.1851,179.912,1.99951,-154.775,296
1567849778,401.055,-177.254,-16.1851,179.912,1.99951,-154.775,296
1567849778,401.055,-177.254,-16.1851,179.912,1.99951,-154.775,300
1567849778,401.055,-177.254,-16.1851,179.934,1.99951,-154.775,300
1567849778,401.055,-177.254,-16.1851,179.934,1.99951,-154.775,300
1567849778,401.055,-177.254,-16.1851,179.934,1.99951,-154.775,300
1567849779,401.055,-177.254,-16.1851,179.934,1.99951,-154.775,300
1567849779,401.055,-177.254,-16.1851,179.934,1.99951,-154.775,300
1567849779,401.055,-177.254,-16.1851,179.934,1.99951,-154.775,296
1567849779,401.055,-177.143,-16.1851,179.934,1.99951,-154.775,296
1567849779,401.055,-177.143,-16.1851,179.934,1.99951,-154.775,296
1567849779,401.055,-177.143,-16.1851,179.956,1.99951,-154.775,296
1567849779,401.055,-177.143,-16.1851,179.956,1.99951,-154.775,296
1567849779,401.055,-177.143,-16.1851,179.956,1.99951,-154.775,296
1567849779,401.055,-177.143,-16.1851,179.956,1.99951,-154.775,296
1567849779,401.055,-177.143,-16.2967,179.956,1.99951,-154.775,296
1567849779,401.055,-177.143,-16.2967,179.956,1.99951,-154.775,296
1567849779,401.055,-177.143,-16.2967,179.956,1.99951,-154.775,296
1567849779,401.055,-177.143,-16.2967,179.956,1.99951,-154.775,296
1567849779,401.055,-177.143,-16.2967,179.956,1.99951,-154.775,296
1567849779,400.943,-177.143,-16.2967,179.956,1.99951,-154.775,296
1567849779,400.943,-177.143,-16.2967,179.956,1.99951,-154.775,296
1567849779,400.943,-177.143,-16.2967,179.934,1.99951,-154.775,296
1567849779,400.943,-177.143,-16.2967,179.934,1.99951,-154.775,296
1567849779,400.943,-177.143,-16.2967,179.934,1.99951,-154.797,296
1567849779,400.943,-177.254,-16.2967,179.934,1.99951,-154.797,296
1567849779,400.943,-177.254,-16.2967,179.934,1.99951,-154.797,300
1567849779,400.943,-177.254,-16.2967,179.934,1.99951,-154.797,300
1567849779,400.943,-177.254,-16.2967,179.912,1.97754,-154.797,300
1567849779,401.055,-177.254,-16.4083,179.912,1.97754,-154.797,304
1567849779,401.055,-177.254,-16.4083,179.934,1.97754,-154.797,304
1567849779,401.055,-177.254,-16.4083,179.934,1.97754,-154.797,304
1567849779,401.055,-177.254,-16.4083,179.934,1.97754,-154.797,308
1567849779,401.055,-177.254,-16.4083,179.934,1.97754,-154.797,308
1567849779,401.055,-177.143,-16.4083,179.934,1.97754,-154.797,308
1567849779,401.166,-177.143,-16.4083,179.934,1.97754,-154.797,312
1567849779,401.166,-177.143,-16.4083,179.934,1.97754,-154.797,312
1567849779,401.166,-177.143,-16.4083,179.934,1.97754,-154.797,312
1567849779,401.166,-177.143,-16.4083,179.956,1.97754,-154.797,316
1567849779,401.166,-177.143,-16.4083,179.956,1.97754,-154.797,316
1567849779,401.166,-177.143,-16.4083,179.956,1.97754,-154.797,316
1567849779,401.166,-177.143,-16.4083,179.956,1.97754,-154.797,316
1567849779,401.166,-177.143,-16.4083,179.956,1.97754,-154.797,316
1567849779,401.166,-177.143,-16.2967,179.956,1.97754,-154.797,316
1567849779,401.166,-177.143,-16.2967,179.956,1.97754,-154.797,316
1567849779,401.166,-177.143,-16.2967,179.956,1.97754,-154.797,316
1567849779,401.055,-177.143,-16.2967,179.934,1.97754,-154.797,316
1567849779,401.055,-177.143,-16.2967,179.934,1.97754,-154.775,316
1567849779,401.055,-177.143,-16.2967,179.934,1.97754,-154.775,316
