time,x,y,z,ax,ay,az,q
1569674644,400.72,-51.9038,-12.948,179.319,2.76855,-145.085,564
1569674644,400.72,-51.9038,-12.8364,179.319,2.76855,-145.085,564
1569674644,400.72,-51.9038,-12.8364,179.319,2.76855,-145.085,564
1569674644,400.72,-51.9038,-12.8364,179.319,2.76855,-145.085,564
1569674644,400.608,-51.9038,-12.8364,179.319,2.76855,-145.085,564
1569674644,400.608,-51.9038,-12.8364,179.319,2.76855,-145.063,564
1569674644,400.608,-51.9038,-12.948,179.319,2.76855,-145.063,564
1569674644,400.608,-51.9038,-12.948,179.319,2.76855,-145.063,564
1569674644,400.608,-51.9038,-12.948,179.319,2.76855,-145.063,564
1569674644,400.608,-51.9038,-12.948,179.319,2.76855,-145.063,564
1569674644,400.608,-51.9038,-12.948,179.319,2.74658,-145.063,564
1569674644,400.608,-51.9038,-12.948,179.319,2.74658,-145.063,564
1569674644,400.608,-51.9038,-12.948,179.319,2.74658,-145.063,564
1569674644,400.608,-51.9038,-12.948,179.319,2.74658,-145.063,564
1569674644,400.608,-51.9038,-12.948,179.319,2.74658,-145.063,564
1569674644,400.608,-51.9038,-12.948,179.319,2.74658,-145.063,564
1569674644,400.608,-51.9038,-12.948,179.319,2.74658,-145.063,564
1569674644,400.608,-51.9038,-12.948,179.319,2.74658,-145.063,564
1569674644,400.608,-51.9038,-12.948,179.319,2.74658,-145.063,560
1569674644,400.608,-51.9038,-12.948,179.319,2.74658,-145.063,560
1569674644,400.608,-51.9038,-12.948,179.319,2.74658,-145.063,560
1569674644,400.608,-51.9038,-12.948,179.319,2.74658,-145.063,560
1569674644,400.608,-51.9038,-12.948,179.319,2.74658,-145.063,560
1569674644,400.608,-51.9038,-12.948,179.319,2.74658,-145.063,560
1569674644,400.608,-51.9038,-12.948,179.319,2.74658,-145.063,560
1569674644,400.608,-51.9038,-12.948,179.319,2.74658,-145.063,560
1569674644,400.608,-51.9038,-12.948,179.319,2.74658,-145.063,560
1569674644,400.608,-51.9038,-12.948,179.319,2.74658,-145.063,560
1569674644,400.608,-51.9038,-12.948,179.319,2.74658,-145.085,560
1569674644,400.608,-51.9038,-12.948,179.319,2.74658,-145.085,560
1569674644,400.608,-51.9038,-12.948,179.319,2.74658,-145.085,560
1569674644,400.608,-51.9038,-12.948,179.319,2.74658,-145.085,560
1569674644,400.608,-51.9038,-12.948,179.319,2.74658,-145.085,560
1569674644,400.608,-51.9038,-12.948,179.319,2.74658,-145.085,560
1569674644,400.608,-51.9038,-12.948,179.319,2.74658,-145.085,560
1569674644,400.608,-51.9038,-12.948,179.297,2.74658,-145.085,564
1569674644,400.608,-51.9038,-12.948,179.297,2.74658,-145.085,564
1569674644,400.608,-51.9038,-12.948,179.297,2.74658,-145.085,564
1569674644,400.608,-51.9038,-12.948,179.297,2.72461,-145.085,564
1569674644,400.608,-51.9038,-12.948,179.297,2.72461,-145.085,568
1569674644,400.608,-51.9038,-12.948,179.275,2.72461,-145.085,568
1569674644,400.608,-52.0154,-12.948,179.275,2.72461,-145.085,568
1569674644,400.608,-52.0154,-12.948,179.275,2.72461,-145.085,572
1569674644,400.608,-52.0154,-12.948,179.275,2.72461,-145.085,572
1569674644,400.608,-52.0154,-12.948,179.275,2.72461,-145.085,572
1569674644,400.608,-52.0154,-12.948,179.275,2.72461,-145.085,572
1569674644,400.608,-52.0154,-12.948,179.275,2.72461,-145.085,572
1569674644,400.608,-52.0154,-12.948,179.275,2.72461,-145.085,572
1569674644,400.608,-52.0154,-12.948,179.275,2.72461,-145.085,572
1569674644,400.608,-51.9038,-12.948,179.275,2.72461,-145.085,576
1569674644,400.608,-51.9038,-12.948,179.275,2.72461,-145.085,576
1569674644,400.608,-51.9038,-12.948,179.275,2.72461,-145.085,576
1569674644,400.608,-51.9038,-12.948,179.275,2.74658,-145.085,576
1569674644,400.608,-51.9038,-12.948,179.275,2.74658,-145.085,576
1569674644,400.608,-51.9038,-12.948,179.275,2.74658,-145.085,580
1569674644,400.608,-51.9038,-12.948,179.275,2.74658,-145.085,580
1569674644,400.608,-51.9038,-12.948,179.275,2.74658,-145.085,580
1569674644,400.608,-51.9038,-12.948,179.275,2.74658,-145.085,584
1569674644,400.608,-51.9038,-12.948,179.275,2.74658,-145.085,584
1569674645,400.608,-51.9038,-12.948,179.275,2.74658,-145.085,584
1569674645,400.608,-51.9038,-12.948,179.297,2.74658,-145.085,588
1569674645,400.608,-51.9038,-12.948,179.275,2.74658,-145.085,588
1569674645,400.608,-51.9038,-12.948,179.275,2.76855,-145.085,588
1569674645,400.608,-52.0154,-12.8364,179.275,2.76855,-145.085,588
1569674645,400.496,-52.0154,-12.8364,179.275,2.76855,-145.085,592
1569674645,400.496,-52.0154,-12.948,179.275,2.76855,-145.085,592
1569674645,400.496,-52.0154,-12.948,179.275,2.76855,-145.085,596
1569674645,400.496,-52.0154,-12.948,179.275,2.74658,-145.085,596
1569674645,400.496,-52.0154,-12.948,179.275,2.74658,-145.085,596
1569674645,400.496,-52.0154,-12.948,179.275,2.74658,-145.085,596
1569674645,400.496,-52.0154,-12.948,179.275,2.74658,-145.085,600
1569674645,400.496,-52.0154,-12.948,179.253,2.72461,-145.085,600
1569674645,400.496,-52.0154,-13.0597,179.253,2.72461,-145.085,600
1569674645,400.496,-52.0154,-13.0597,179.253,2.72461,-145.085,600
1569674645,400.496,-52.0154,-13.0597,179.253,2.72461,-145.085,600
1569674645,400.496,-52.0154,-13.0597,179.253,2.72461,-145.085,600
1569674645,400.496,-52.0154,-13.0597,179.253,2.72461,-145.085,600
1569674645,400.496,-52.0154,-13.0597,179.253,2.72461,-145.085,600
1569674645,400.496,-52.0154,-12.948,179.253,2.72461,-145.085,600
1569674645,400.385,-52.0154,-12.948,179.253,2.72461,-145.085,600
1569674645,400.385,-52.0154,-12.948,179.275,2.72461,-145.085,600
1569674645,400.385,-51.9038,-12.948,179.275,2.72461,-145.063,600
1569674645,400.385,-51.9038,-12.948,179.275,2.72461,-145.063,600
1569674645,400.385,-51.9038,-12.948,179.275,2.72461,-145.063,600
1569674645,400.496,-51.9038,-12.948,179.275,2.72461,-145.063,596
1569674645,400.496,-51.9038,-12.948,179.275,2.72461,-145.063,596
1569674645,400.496,-51.9038,-12.948,179.275,2.72461,-145.063,596
1569674645,400.496,-51.9038,-13.0597,179.275,2.72461,-145.063,596
1569674645,400.496,-51.9038,-13.0597,179.275,2.72461,-145.063,596
1569674645,400.496,-51.9038,-13.0597,179.275,2.72461,-145.063,592
1569674645,400.496,-51.9038,-13.0597,179.275,2.72461,-145.063,592
1569674645,400.496,-51.9038,-13.0597,179.275,2.70264,-145.085,592
1569674645,400.496,-51.9038,-13.0597,179.275,2.70264,-145.085,588
1569674645,400.496,-51.9038,-13.0597,179.275,2.70264,-145.085,588
1569674645,400.496,-51.9038,-13.0597,179.275,2.70264,-145.085,588
1569674645,400.496,-51.9038,-13.0597,179.275,2.70264,-145.085,588
1569674645,400.496,-51.9038,-13.0597,179.275,2.70264,-145.085,584
1569674645,400.496,-51.9038,-13.0597,179.275,2.72461,-145.085,584
1569674645,400.496,-51.9038,-13.0597,179.275,2.72461,-145.085,584
1569674645,400.496,-51.9038,-13.0597,179.275,2.72461,-145.085,584
1569674645,400.496,-51.9038,-13.0597,179.275,2.72461,-145.085,580
1569674645,400.496,-51.9038,-13.0597,179.275,2.72461,-145.085,580
1569674645,400.496,-51.9038,-13.0597,179.275,2.72461,-145.085,580
1569674645,400.496,-51.9038,-13.0597,179.275,2.72461,-145.085,580
1569674645,400.496,-51.9038,-13.0597,179.275,2.72461,-145.085,580
1569674645,400.608,-51.9038,-13.0597,179.275,2.72461,-145.085,580
1569674645,400.608,-51.9038,-13.0597,179.275,2.72461,-145.085,576
1569674645,400.608,-51.9038,-13.0597,179.275,2.72461,-145.085,576
1569674645,400.608,-51.9038,-13.0597,179.275,2.72461,-145.085,576
1569674645,400.608,-51.9038,-13.0597,179.275,2.72461,-145.085,576
1569674645,400.608,-51.9038,-13.0597,179.275,2.74658,-145.085,576
1569674645,400.608,-51.9038,-13.0597,179.275,2.74658,-145.085,576
1569674645,400.608,-52.0154,-13.0597,179.275,2.74658,-145.085,576
1569674645,400.608,-52.0154,-12.948,179.275,2.74658,-145.085,576
1569674645,400.608,-52.0154,-12.948,179.275,2.74658,-145.085,576
1569674645,400.608,-52.0154,-12.948,179.275,2.74658,-145.085,576
1569674645,400.608,-52.0154,-12.948,179.275,2.74658,-145.085,572
1569674645,400.608,-52.0154,-12.948,179.275,2.74658,-145.085,572
1569674645,400.608,-52.0154,-12.948,179.253,2.74658,-145.085,572
1569674645,400.608,-52.0154,-12.948,179.253,2.74658,-145.085,572
1569674645,400.608,-52.0154,-12.948,179.253,2.74658,-145.085,568
1569674645,400.608,-52.0154,-12.948,179.253,2.74658,-145.085,568
1569674645,400.608,-52.0154,-12.948,179.253,2.74658,-145.085,568
1569674645,400.608,-52.0154,-12.948,179.253,2.74658,-145.085,568
1569674645,400.608,-52.0154,-12.948,179.253,2.74658,-145.085,564
1569674645,400.608,-52.0154,-12.948,179.275,2.74658,-145.085,564
1569674645,400.608,-52.0154,-12.948,179.275,2.74658,-145.085,564
1569674645,400.608,-52.0154,-12.948,179.275,2.74658,-145.085,564
1569674645,400.608,-52.0154,-12.948,179.275,2.74658,-145.085,560
1569674645,400.608,-52.0154,-12.948,179.275,2.74658,-145.085,560
1569674645,400.608,-52.0154,-12.948,179.275,2.74658,-145.085,560
1569674645,400.608,-52.0154,-13.0597,179.275,2.74658,-145.085,560
1569674645,400.608,-52.0154,-13.0597,179.275,2.74658,-145.085,556
1569674645,400.608,-52.0154,-13.0597,179.275,2.74658,-145.085,556
1569674645,400.608,-52.0154,-13.0597,179.275,2.74658,-145.085,556
1569674645,400.608,-52.0154,-13.0597,179.297,2.72461,-145.085,556
1569674645,400.608,-52.0154,-13.0597,179.297,2.72461,-145.085,552
1569674645,400.608,-52.0154,-13.0597,179.297,2.72461,-145.085,552
1569674645,400.608,-52.0154,-13.0597,179.297,2.72461,-145.085,552
1569674645,400.608,-52.0154,-13.0597,179.297,2.72461,-145.085,552
1569674645,400.608,-52.0154,-13.0597,179.297,2.72461,-145.085,552
1569674645,400.608,-52.0154,-13.0597,179.297,2.72461,-145.085,552
1569674645,400.72,-52.0154,-13.0597,179.297,2.72461,-145.085,552
1569674645,400.72,-52.0154,-13.0597,179.275,2.72461,-145.085,552
1569674645,400.72,-52.0154,-13.0597,179.275,2.72461,-145.085,552
1569674645,400.72,-52.0154,-13.0597,179.275,2.72461,-145.085,552
1569674645,400.72,-52.0154,-13.0597,179.275,2.72461,-145.085,552
1569674645,400.72,-52.0154,-13.0597,179.275,2.72461,-145.085,552
1569674645,400.72,-52.0154,-13.0597,179.275,2.72461,-145.085,552
1569674645,400.72,-52.0154,-13.0597,179.275,2.72461,-145.085,552
1569674645,400.72,-52.0154,-13.0597,179.275,2.72461,-145.085,552
1569674645,400.72,-52.0154,-13.0597,179.275,2.72461,-145.085,556
1569674645,400.72,-52.0154,-13.0597,179.275,2.72461,-145.085,556
1569674645,400.72,-52.0154,-13.0597,179.275,2.72461,-145.085,556
1569674645,400.608,-52.0154,-13.0597,179.275,2.72461,-145.085,556
1569674645,400.608,-52.0154,-13.0597,179.275,2.72461,-145.085,560
1569674645,400.608,-52.0154,-13.0597,179.275,2.72461,-145.107,560
1569674645,400.608,-52.0154,-13.0597,179.275,2.72461,-145.107,560
1569674646,400.608,-52.0154,-13.0597,179.275,2.72461,-145.107,560
1569674646,400.608,-52.0154,-13.0597,179.275,2.72461,-145.107,564
1569674646,400.608,-52.0154,-13.0597,179.253,2.72461,-145.107,564
1569674646,400.608,-52.0154,-13.0597,179.253,2.72461,-145.107,564
1569674646,400.608,-52.0154,-13.0597,179.253,2.72461,-145.107,564
1569674646,400.608,-52.0154,-13.0597,179.253,2.72461,-145.085,568
1569674646,400.608,-52.0154,-13.0597,179.253,2.72461,-145.085,568
1569674646,400.608,-52.0154,-13.0597,179.275,2.72461,-145.085,568
1569674646,400.608,-52.0154,-13.0597,179.275,2.72461,-145.085,568
1569674646,400.608,-52.0154,-13.0597,179.275,2.72461,-145.085,572
1569674646,400.608,-52.0154,-13.0597,179.275,2.72461,-145.085,572
1569674646,400.608,-52.0154,-13.0597,179.275,2.72461,-145.085,572
1569674646,400.608,-52.0154,-13.0597,179.275,2.72461,-145.085,576
1569674646,400.608,-52.0154,-13.0597,179.275,2.70264,-145.085,576
1569674646,400.608,-52.0154,-13.0597,179.275,2.70264,-145.085,576
1569674646,400.608,-52.0154,-13.1713,179.275,2.70264,-145.085,580
1569674646,400.608,-52.0154,-13.1713,179.275,2.70264,-145.085,580
1569674646,400.608,-52.0154,-13.1713,179.275,2.70264,-145.085,580
1569674646,400.608,-52.0154,-13.1713,179.275,2.70264,-145.063,580
1569674646,400.608,-52.0154,-13.1713,179.275,2.70264,-145.063,580
1569674646,400.608,-52.0154,-13.1713,179.275,2.70264,-145.063,580
1569674646,400.608,-52.0154,-13.1713,179.275,2.70264,-145.063,580
1569674646,400.608,-52.0154,-13.1713,179.275,2.70264,-145.063,580
1569674646,400.608,-52.0154,-13.1713,179.275,2.70264,-145.063,580
1569674646,400.608,-52.0154,-13.1713,179.275,2.70264,-145.063,580
1569674646,400.608,-52.0154,-13.1713,179.275,2.70264,-145.063,580
1569674646,400.608,-52.0154,-13.0597,179.297,2.70264,-145.063,580
1569674646,400.608,-52.0154,-13.0597,179.297,2.70264,-145.063,576
1569674646,400.608,-52.0154,-13.1713,179.297,2.70264,-145.063,576
1569674646,400.608,-52.0154,-13.1713,179.297,2.70264,-145.063,576
1569674646,400.608,-52.0154,-13.1713,179.297,2.70264,-145.063,576
1569674646,400.608,-51.9038,-13.1713,179.297,2.70264,-145.063,576
1569674646,400.608,-51.9038,-13.1713,179.297,2.70264,-145.063,576
1569674646,400.608,-51.9038,-13.1713,179.297,2.70264,-145.063,576
1569674646,400.608,-51.9038,-13.1713,179.297,2.70264,-145.063,576
1569674646,400.608,-51.9038,-13.1713,179.297,2.70264,-145.063,576
1569674646,400.608,-51.9038,-13.1713,179.297,2.70264,-145.063,576
1569674646,400.608,-51.9038,-13.1713,179.297,2.70264,-145.063,576
1569674646,400.608,-51.9038,-13.1713,179.297,2.68066,-145.063,580
1569674646,400.608,-51.9038,-13.1713,179.297,2.68066,-145.063,580
1569674646,400.608,-51.9038,-13.1713,179.297,2.68066,-145.063,580
1569674646,400.608,-51.9038,-13.1713,179.297,2.68066,-145.063,580
1569674646,400.608,-51.9038,-13.1713,179.319,2.70264,-145.042,580
1569674646,400.608,-51.9038,-13.1713,179.319,2.70264,-145.042,584
1569674646,400.608,-51.9038,-13.0597,179.319,2.70264,-145.042,584
1569674646,400.608,-51.7922,-13.0597,179.319,2.70264,-145.042,584
1569674646,400.608,-51.7922,-13.0597,179.341,2.70264,-145.042,584
1569674646,400.608,-51.7922,-13.0597,179.341,2.70264,-145.042,584
1569674646,400.608,-51.7922,-13.0597,179.341,2.70264,-145.042,584
1569674646,400.608,-51.7922,-13.0597,179.341,2.72461,-145.042,584
1569674646,400.72,-51.7922,-13.0597,179.341,2.72461,-145.042,584
1569674646,400.72,-51.7922,-13.0597,179.341,2.72461,-145.042,584
1569674646,400.72,-51.7922,-13.0597,179.341,2.72461,-145.042,580
1569674646,400.72,-51.7922,-13.0597,179.341,2.72461,-145.063,580
1569674646,400.72,-51.7922,-13.0597,179.341,2.70264,-145.063,580
1569674646,400.608,-51.7922,-13.0597,179.341,2.70264,-145.063,580
1569674646,400.608,-51.7922,-13.0597,179.341,2.70264,-145.063,576
1569674646,400.608,-51.7922,-13.0597,179.319,2.70264,-145.063,576
1569674646,400.608,-51.7922,-13.0597,179.319,2.70264,-145.063,576
1569674646,400.608,-51.9038,-13.0597,179.319,2.70264,-145.063,576
1569674646,400.608,-51.9038,-13.0597,179.319,2.70264,-145.063,572
1569674646,400.608,-51.9038,-13.0597,179.319,2.70264,-145.063,572
1569674646,400.608,-51.9038,-13.0597,179.319,2.70264,-145.063,572
1569674646,400.608,-51.9038,-13.0597,179.319,2.72461,-145.063,572
1569674646,400.608,-51.9038,-13.0597,179.319,2.72461,-145.063,572
1569674646,400.608,-51.9038,-13.0597,179.319,2.72461,-145.063,572
1569674646,400.608,-51.9038,-12.948,179.319,2.72461,-145.063,572
1569674646,400.608,-51.9038,-12.948,179.319,2.74658,-145.063,568
1569674646,400.608,-51.9038,-12.948,179.319,2.74658,-145.063,568
1569674646,400.608,-51.9038,-12.948,179.319,2.74658,-145.063,568
1569674646,400.608,-51.9038,-12.948,179.297,2.74658,-145.063,568
1569674646,400.608,-51.9038,-12.948,179.297,2.74658,-145.063,568
1569674646,400.608,-51.9038,-12.948,179.297,2.74658,-145.063,568
1569674646,400.608,-51.9038,-12.948,179.297,2.74658,-145.063,568
1569674646,400.608,-52.0154,-12.948,179.297,2.74658,-145.085,564
1569674646,400.608,-52.0154,-12.948,179.275,2.74658,-145.085,564
1569674646,400.608,-52.0154,-12.948,179.275,2.74658,-145.085,564
1569674646,400.608,-52.0154,-12.948,179.275,2.74658,-145.085,564
1569674646,400.608,-52.0154,-12.948,179.275,2.74658,-145.085,564
1569674646,400.608,-52.0154,-12.948,179.275,2.74658,-145.085,560
1569674646,400.608,-52.0154,-12.948,179.275,2.74658,-145.085,560
1569674646,400.608,-52.0154,-12.948,179.275,2.74658,-145.085,560
1569674646,400.608,-52.0154,-12.948,179.275,2.74658,-145.085,560
1569674646,400.608,-52.0154,-12.948,179.275,2.74658,-145.085,560
1569674646,400.72,-52.0154,-12.948,179.275,2.74658,-145.085,560
1569674646,400.72,-52.0154,-12.948,179.275,2.74658,-145.085,560
1569674646,400.72,-52.0154,-12.948,179.275,2.74658,-145.085,560
1569674646,400.608,-52.0154,-12.948,179.275,2.74658,-145.085,560
1569674646,400.608,-52.0154,-12.948,179.275,2.74658,-145.085,560
1569674646,400.608,-52.0154,-12.948,179.275,2.74658,-145.085,560
1569674646,400.608,-52.0154,-13.0597,179.275,2.74658,-145.085,560
1569674646,400.608,-52.0154,-13.0597,179.297,2.74658,-145.085,564
1569674646,400.608,-52.0154,-13.0597,179.297,2.74658,-145.085,564
1569674646,400.608,-52.0154,-13.0597,179.297,2.74658,-145.085,564
1569674646,400.608,-52.0154,-13.0597,179.275,2.72461,-145.085,564
1569674646,400.608,-52.0154,-12.948,179.275,2.74658,-145.085,564
1569674646,400.608,-52.0154,-12.948,179.275,2.74658,-145.085,564
1569674646,400.608,-52.0154,-12.948,179.275,2.74658,-145.085,564
1569674646,400.608,-52.0154,-12.948,179.275,2.74658,-145.085,568
1569674646,400.608,-52.0154,-12.948,179.275,2.74658,-145.085,568
1569674647,400.608,-52.0154,-12.948,179.275,2.72461,-145.085,568
1569674647,400.608,-52.0154,-12.948,179.275,2.72461,-145.085,568
1569674647,400.608,-52.0154,-12.948,179.275,2.72461,-145.085,568
1569674647,400.608,-52.0154,-13.0597,179.275,2.72461,-145.085,572
1569674647,400.608,-52.0154,-13.0597,179.275,2.72461,-145.085,572
1569674647,400.608,-52.0154,-13.0597,179.275,2.72461,-145.085,572
1569674647,400.608,-52.0154,-13.0597,179.275,2.70264,-145.085,572
1569674647,400.608,-52.0154,-13.0597,179.275,2.70264,-145.063,572
1569674647,400.608,-52.0154,-13.0597,179.275,2.70264,-145.063,572
1569674647,400.608,-52.0154,-13.0597,179.275,2.70264,-145.063,576
1569674647,400.608,-52.0154,-13.0597,179.275,2.70264,-145.063,576
1569674647,400.608,-52.0154,-13.0597,179.275,2.70264,-145.063,576
1569674647,400.608,-52.0154,-13.0597,179.275,2.70264,-145.063,576
1569674647,400.608,-51.9038,-13.0597,179.297,2.70264,-145.063,580
1569674647,400.608,-51.9038,-13.0597,179.297,2.70264,-145.063,580
1569674647,400.608,-51.9038,-13.0597,179.297,2.70264,-145.063,580
1569674647,400.608,-51.9038,-13.0597,179.297,2.70264,-145.063,580
1569674647,400.608,-51.9038,-13.0597,179.297,2.70264,-145.063,580
1569674647,400.608,-51.9038,-13.0597,179.297,2.70264,-145.063,580
1569674647,400.608,-51.9038,-13.0597,179.297,2.70264,-145.063,580
1569674647,400.608,-51.9038,-13.0597,179.297,2.70264,-145.063,580
1569674647,400.608,-52.0154,-13.0597,179.297,2.70264,-145.063,580
1569674647,400.608,-52.0154,-13.0597,179.297,2.72461,-145.063,580
1569674647,400.608,-52.0154,-13.0597,179.275,2.72461,-145.063,580
1569674647,400.608,-52.0154,-13.0597,179.275,2.72461,-145.063,576
1569674647,400.608,-52.0154,-13.0597,179.275,2.72461,-145.063,576
1569674647,400.608,-52.0154,-13.0597,179.275,2.72461,-145.063,576
1569674647,400.608,-52.0154,-13.0597,179.275,2.72461,-145.063,572
1569674647,400.608,-52.0154,-13.0597,179.275,2.72461,-145.063,572
1569674647,400.608,-52.0154,-13.0597,179.275,2.72461,-145.063,572
1569674647,400.608,-52.0154,-13.0597,179.253,2.72461,-145.063,568
1569674647,400.608,-52.0154,-13.0597,179.253,2.72461,-145.085,568
1569674647,400.608,-52.0154,-13.0597,179.253,2.72461,-145.085,568
1569674647,400.72,-52.0154,-13.0597,179.275,2.74658,-145.085,568
1569674647,400.72,-52.0154,-12.948,179.275,2.74658,-145.085,568
1569674647,400.72,-52.0154,-12.948,179.275,2.74658,-145.085,568
1569674647,400.72,-52.0154,-12.948,179.275,2.74658,-145.085,564
1569674647,400.72,-52.0154,-12.948,179.275,2.74658,-145.085,564
1569674647,400.72,-52.0154,-13.0597,179.275,2.74658,-145.085,564
1569674647,400.72,-52.0154,-13.0597,179.275,2.72461,-145.085,564
1569674647,400.72,-52.0154,-13.0597,179.297,2.72461,-145.085,564
1569674647,400.72,-52.0154,-13.0597,179.297,2.72461,-145.085,564
1569674647,400.72,-52.0154,-13.0597,179.297,2.72461,-145.085,564
1569674647,400.72,-52.0154,-13.0597,179.297,2.72461,-145.085,564
1569674647,400.72,-51.9038,-13.0597,179.297,2.72461,-145.085,564
1569674647,400.72,-51.9038,-13.0597,179.297,2.70264,-145.085,560
1569674647,400.72,-51.9038,-13.0597,179.297,2.70264,-145.085,560
1569674647,400.72,-51.9038,-13.0597,179.297,2.70264,-145.085,560
1569674647,400.72,-51.9038,-13.0597,179.297,2.70264,-145.085,560
1569674647,400.72,-51.9038,-13.0597,179.319,2.70264,-145.085,560
1569674647,400.72,-51.9038,-13.0597,179.319,2.70264,-145.085,560
1569674647,400.608,-51.9038,-13.0597,179.319,2.70264,-145.085,560
1569674647,400.608,-51.9038,-13.0597,179.319,2.70264,-145.085,560
1569674647,400.608,-51.9038,-13.0597,179.319,2.70264,-145.085,560
1569674647,400.608,-51.9038,-13.0597,179.319,2.70264,-145.085,560
1569674647,400.608,-51.9038,-13.0597,179.319,2.70264,-145.085,560
1569674647,400.608,-51.9038,-13.0597,179.319,2.70264,-145.063,560
1569674647,400.608,-51.9038,-13.0597,179.319,2.70264,-145.063,560
1569674647,400.608,-51.9038,-13.0597,179.297,2.72461,-145.085,560
1569674647,400.608,-51.9038,-13.0597,179.297,2.72461,-145.085,560
1569674647,400.608,-51.9038,-13.0597,179.297,2.72461,-145.085,560
1569674647,400.608,-51.9038,-13.0597,179.297,2.72461,-145.085,560
1569674647,400.608,-51.9038,-13.0597,179.297,2.72461,-145.085,560
1569674647,400.608,-51.9038,-13.0597,179.297,2.72461,-145.085,560
1569674647,400.608,-51.9038,-13.0597,179.297,2.72461,-145.085,560
1569674647,400.608,-51.9038,-13.0597,179.297,2.72461,-145.085,560
1569674647,400.608,-51.9038,-13.0597,179.297,2.72461,-145.085,560
1569674647,400.608,-51.9038,-13.0597,179.297,2.72461,-145.085,560
1569674647,400.608,-51.9038,-13.0597,179.297,2.72461,-145.085,560
1569674647,400.608,-51.9038,-13.0597,179.297,2.72461,-145.085,560
1569674647,400.608,-51.9038,-13.0597,179.297,2.72461,-145.085,560
1569674647,400.608,-51.9038,-13.0597,179.297,2.72461,-145.085,560
1569674647,400.608,-51.9038,-13.0597,179.297,2.72461,-145.085,560
1569674647,400.608,-51.9038,-13.0597,179.297,2.72461,-145.085,560
1569674647,400.608,-51.9038,-13.0597,179.297,2.72461,-145.085,560
1569674647,400.608,-51.9038,-13.0597,179.297,2.72461,-145.085,560
1569674647,400.608,-51.9038,-13.0597,179.297,2.72461,-145.085,560
1569674647,400.608,-51.9038,-13.0597,179.297,2.72461,-145.085,564
1569674647,400.608,-51.9038,-12.948,179.297,2.72461,-145.063,564
1569674647,400.608,-51.9038,-12.948,179.297,2.72461,-145.063,564
1569674647,400.608,-51.9038,-12.948,179.297,2.72461,-145.063,568
1569674647,400.608,-51.9038,-12.948,179.297,2.74658,-145.063,568
1569674647,400.608,-51.9038,-12.948,179.297,2.74658,-145.063,568
1569674647,400.608,-51.9038,-12.948,179.297,2.74658,-145.063,568
1569674647,400.608,-51.9038,-12.948,179.297,2.74658,-145.063,568
1569674647,400.608,-52.0154,-12.948,179.275,2.74658,-145.063,568
1569674647,400.608,-52.0154,-12.948,179.275,2.74658,-145.063,568
1569674647,400.608,-52.0154,-12.948,179.275,2.74658,-145.063,568
1569674647,400.608,-52.0154,-12.948,179.275,2.74658,-145.042,568
1569674647,400.608,-52.0154,-12.948,179.275,2.74658,-145.042,568
1569674647,400.608,-52.0154,-12.948,179.275,2.74658,-145.042,568
1569674647,400.608,-52.0154,-12.948,179.275,2.74658,-145.042,564
1569674647,400.608,-52.0154,-12.948,179.275,2.74658,-145.042,564
1569674647,400.608,-52.0154,-12.948,179.275,2.74658,-145.042,564
1569674647,400.608,-52.0154,-12.948,179.275,2.74658,-145.063,564
1569674647,400.608,-52.0154,-12.948,179.275,2.74658,-145.063,564
1569674647,400.608,-52.0154,-12.948,179.275,2.74658,-145.063,564
1569674647,400.608,-52.0154,-12.948,179.275,2.72461,-145.063,564
1569674647,400.608,-52.0154,-12.948,179.275,2.72461,-145.063,564
1569674647,400.496,-52.0154,-12.948,179.275,2.72461,-145.063,564
1569674648,400.496,-52.0154,-12.948,179.275,2.72461,-145.063,564
1569674648,400.496,-52.0154,-12.948,179.275,2.72461,-145.063,564
1569674648,400.496,-52.0154,-12.948,179.275,2.72461,-145.063,564
1569674648,400.496,-52.0154,-12.948,179.275,2.72461,-145.063,564
1569674648,400.496,-52.0154,-12.948,179.275,2.72461,-145.063,564
1569674648,400.496,-52.0154,-13.0597,179.275,2.72461,-145.063,564
1569674648,400.496,-52.0154,-13.0597,179.275,2.72461,-145.063,564
1569674648,400.496,-52.0154,-13.0597,179.275,2.72461,-145.063,564
1569674648,400.496,-52.0154,-13.0597,179.275,2.70264,-145.085,564
1569674648,400.496,-52.0154,-13.0597,179.253,2.70264,-145.085,564
1569674648,400.496,-52.0154,-13.0597,179.253,2.70264,-145.085,564
1569674648,400.496,-52.0154,-13.0597,179.253,2.70264,-145.085,564
1569674648,400.496,-52.0154,-13.0597,179.253,2.70264,-145.085,564
1569674648,400.608,-52.0154,-13.0597,179.275,2.70264,-145.085,564
1569674648,400.608,-52.0154,-13.0597,179.275,2.70264,-145.085,564
1569674648,400.608,-52.0154,-13.0597,179.275,2.70264,-145.085,568
1569674648,400.608,-52.0154,-13.0597,179.275,2.70264,-145.085,568
1569674648,400.608,-52.0154,-13.0597,179.275,2.70264,-145.085,568
1569674648,400.608,-52.0154,-13.0597,179.275,2.70264,-145.085,568
1569674648,400.608,-52.0154,-13.0597,179.275,2.70264,-145.085,568
1569674648,400.608,-52.0154,-13.0597,179.275,2.70264,-145.085,568
1569674648,400.608,-52.0154,-13.0597,179.275,2.70264,-145.085,568
1569674648,400.608,-52.0154,-13.0597,179.275,2.70264,-145.085,568
1569674648,400.608,-52.0154,-13.0597,179.275,2.70264,-145.085,568
1569674648,400.608,-52.0154,-13.0597,179.275,2.70264,-145.085,568
1569674648,400.608,-52.0154,-13.0597,179.275,2.70264,-145.085,568
1569674648,400.608,-52.0154,-13.0597,179.275,2.70264,-145.085,568
1569674648,400.608,-52.0154,-13.0597,179.275,2.70264,-145.085,568
1569674648,400.608,-52.0154,-13.0597,179.275,2.70264,-145.085,568
1569674648,400.608,-52.0154,-13.0597,179.275,2.70264,-145.085,568
1569674648,400.608,-52.0154,-13.0597,179.253,2.70264,-145.085,568
1569674648,400.496,-52.0154,-13.0597,179.253,2.70264,-145.085,568
1569674648,400.496,-52.0154,-13.0597,179.275,2.70264,-145.085,572
1569674648,400.496,-52.0154,-13.0597,179.275,2.72461,-145.085,572
1569674648,400.496,-52.0154,-13.0597,179.275,2.72461,-145.085,572
1569674648,400.496,-52.0154,-13.0597,179.275,2.72461,-145.085,576
1569674648,400.496,-52.0154,-13.0597,179.275,2.72461,-145.085,576
1569674648,400.496,-52.0154,-13.0597,179.275,2.72461,-145.085,576
1569674648,400.496,-51.9038,-13.0597,179.297,2.72461,-145.085,580
1569674648,400.496,-51.9038,-13.0597,179.297,2.72461,-145.085,580
1569674648,400.496,-51.9038,-13.0597,179.297,2.72461,-145.085,580
1569674648,400.496,-51.9038,-13.0597,179.297,2.72461,-145.085,584
1569674648,400.496,-51.9038,-13.0597,179.297,2.72461,-145.085,584
1569674648,400.496,-51.9038,-13.0597,179.297,2.72461,-145.085,584
1569674648,400.496,-51.9038,-13.0597,179.297,2.72461,-145.085,584
1569674648,400.496,-51.9038,-13.0597,179.297,2.72461,-145.085,588
1569674648,400.608,-51.9038,-13.0597,179.297,2.70264,-145.085,588
1569674648,400.608,-51.9038,-13.1713,179.297,2.70264,-145.085,588
1569674648,400.608,-51.9038,-13.1713,179.297,2.70264,-145.085,588
1569674648,400.608,-51.9038,-13.1713,179.297,2.70264,-145.085,588
1569674648,400.608,-51.9038,-13.1713,179.297,2.70264,-145.085,588
1569674648,400.608,-51.9038,-13.1713,179.297,2.70264,-145.085,588
1569674648,400.608,-51.9038,-13.1713,179.297,2.68066,-145.085,588
1569674648,400.608,-51.9038,-13.1713,179.297,2.68066,-145.085,588
1569674648,400.608,-51.9038,-13.1713,179.297,2.68066,-145.085,588
1569674648,400.608,-51.9038,-13.1713,179.297,2.68066,-145.085,588
1569674648,400.608,-51.9038,-13.1713,179.297,2.68066,-145.085,588
1569674648,400.608,-51.9038,-13.1713,179.297,2.68066,-145.085,584
1569674648,400.608,-51.9038,-13.1713,179.297,2.68066,-145.085,584
1569674648,400.608,-51.9038,-13.1713,179.297,2.68066,-145.085,584
1569674648,400.608,-51.9038,-13.1713,179.297,2.68066,-145.085,584
1569674648,400.608,-51.9038,-13.1713,179.297,2.68066,-145.085,584
1569674648,400.608,-51.9038,-13.1713,179.319,2.68066,-145.085,584
1569674648,400.608,-51.9038,-13.1713,179.319,2.68066,-145.085,584
1569674648,400.608,-51.9038,-13.1713,179.297,2.68066,-145.085,584
1569674648,400.608,-51.9038,-13.1713,179.297,2.68066,-145.085,584
1569674648,400.608,-51.9038,-13.1713,179.297,2.68066,-145.085,584
1569674648,400.608,-51.9038,-13.1713,179.297,2.70264,-145.085,584
1569674648,400.608,-51.9038,-13.1713,179.297,2.70264,-145.085,584
1569674648,400.608,-51.9038,-13.0597,179.297,2.70264,-145.085,584
1569674648,400.608,-51.9038,-13.0597,179.297,2.70264,-145.085,584
1569674648,400.608,-51.9038,-13.0597,179.297,2.70264,-145.085,584
1569674648,400.608,-51.9038,-13.0597,179.297,2.72461,-145.085,584
1569674648,400.608,-51.9038,-13.0597,179.297,2.72461,-145.085,588
1569674648,400.496,-51.9038,-13.0597,179.297,2.72461,-145.085,588
1569674648,400.496,-51.9038,-13.0597,179.297,2.72461,-145.085,588
1569674648,400.496,-51.9038,-13.0597,179.297,2.72461,-145.085,588
1569674648,400.496,-51.9038,-13.0597,179.297,2.72461,-145.085,588
1569674648,400.496,-51.9038,-13.0597,179.297,2.72461,-145.085,588
1569674648,400.496,-51.9038,-13.0597,179.297,2.72461,-145.085,588
1569674648,400.496,-51.9038,-13.0597,179.297,2.72461,-145.085,588
1569674648,400.496,-51.9038,-13.0597,179.297,2.70264,-145.085,588
1569674648,400.496,-51.9038,-13.0597,179.297,2.70264,-145.085,588
1569674648,400.496,-51.9038,-13.1713,179.297,2.70264,-145.085,588
1569674648,400.496,-51.9038,-13.1713,179.297,2.70264,-145.085,588
1569674648,400.496,-51.9038,-13.1713,179.297,2.70264,-145.085,588
1569674648,400.496,-51.9038,-13.1713,179.297,2.68066,-145.085,588
1569674648,400.496,-51.9038,-13.1713,179.297,2.68066,-145.085,588
1569674648,400.496,-51.9038,-13.1713,179.297,2.70264,-145.085,588
1569674648,400.496,-51.9038,-13.1713,179.297,2.70264,-145.085,588
1569674648,400.496,-51.9038,-13.1713,179.297,2.70264,-145.085,584
1569674648,400.496,-51.9038,-13.1713,179.297,2.70264,-145.085,584
1569674648,400.496,-51.9038,-13.1713,179.297,2.70264,-145.085,584
1569674648,400.496,-51.9038,-13.0597,179.297,2.70264,-145.107,584
1569674648,400.496,-51.9038,-13.0597,179.275,2.70264,-145.107,580
1569674648,400.496,-51.9038,-13.0597,179.297,2.70264,-145.107,580
1569674648,400.496,-51.9038,-13.0597,179.297,2.70264,-145.107,580
1569674648,400.496,-51.9038,-13.1713,179.297,2.70264,-145.107,576
1569674648,400.496,-51.9038,-13.1713,179.297,2.70264,-145.107,576
1569674648,400.496,-51.9038,-13.1713,179.297,2.70264,-145.107,576
1569674649,400.496,-51.9038,-13.1713,179.297,2.70264,-145.107,576
1569674649,400.496,-51.9038,-13.1713,179.297,2.70264,-145.107,576
1569674649,400.496,-51.9038,-13.1713,179.297,2.70264,-145.107,576
1569674649,400.496,-51.9038,-13.1713,179.297,2.70264,-145.107,576
1569674649,400.496,-51.9038,-13.1713,179.297,2.70264,-145.085,576
1569674649,400.496,-51.9038,-13.1713,179.297,2.68066,-145.085,576
1569674649,400.496,-51.9038,-13.1713,179.297,2.68066,-145.085,576
1569674649,400.496,-51.9038,-13.1713,179.297,2.68066,-145.085,580
1569674649,400.496,-51.9038,-13.1713,179.297,2.68066,-145.085,580
1569674649,400.496,-51.9038,-13.1713,179.297,2.70264,-145.085,580
1569674649,400.496,-51.9038,-13.1713,179.297,2.70264,-145.085,580
1569674649,400.496,-51.9038,-13.1713,179.275,2.70264,-145.085,580
1569674649,400.496,-51.9038,-13.1713,179.275,2.70264,-145.085,580
1569674649,400.496,-51.9038,-13.0597,179.275,2.70264,-145.085,580
1569674649,400.496,-51.9038,-13.0597,179.275,2.70264,-145.085,580
1569674649,400.496,-52.0154,-13.0597,179.275,2.70264,-145.085,576
1569674649,400.608,-52.0154,-13.0597,179.275,2.70264,-145.085,576
1569674649,400.608,-52.0154,-13.0597,179.275,2.70264,-145.085,576
1569674649,400.608,-52.0154,-13.0597,179.275,2.70264,-145.085,572
1569674649,400.608,-52.0154,-13.0597,179.297,2.70264,-145.085,572
1569674649,400.608,-52.0154,-13.0597,179.297,2.70264,-145.085,572
1569674649,400.608,-51.9038,-13.0597,179.297,2.70264,-145.085,568
1569674649,400.608,-51.9038,-13.0597,179.297,2.70264,-145.085,568
1569674649,400.608,-51.9038,-13.0597,179.297,2.70264,-145.085,568
1569674649,400.608,-51.9038,-13.0597,179.297,2.70264,-145.085,568
1569674649,400.608,-51.9038,-13.0597,179.297,2.70264,-145.085,564
1569674649,400.608,-51.9038,-13.0597,179.297,2.70264,-145.085,564
1569674649,400.608,-51.9038,-13.0597,179.297,2.70264,-145.085,564
1569674649,400.608,-51.9038,-13.0597,179.297,2.70264,-145.085,568
1569674649,400.608,-51.9038,-13.0597,179.297,2.70264,-145.085,568
1569674649,400.608,-51.9038,-13.0597,179.297,2.70264,-145.085,568
1569674649,400.608,-51.9038,-13.0597,179.297,2.70264,-145.085,568
1569674649,400.608,-51.9038,-13.0597,179.297,2.70264,-145.085,568
1569674649,400.608,-51.9038,-13.0597,179.297,2.70264,-145.085,568
1569674649,400.608,-51.9038,-13.0597,179.297,2.70264,-145.085,568
1569674649,400.608,-51.9038,-13.0597,179.297,2.70264,-145.085,568
1569674649,400.608,-51.9038,-13.0597,179.297,2.70264,-145.085,568
1569674649,400.608,-51.9038,-13.0597,179.297,2.70264,-145.085,568
1569674649,400.608,-51.9038,-13.1713,179.297,2.70264,-145.085,568
1569674649,400.608,-51.9038,-13.1713,179.297,2.70264,-145.085,568
1569674649,400.608,-51.9038,-13.1713,179.297,2.70264,-145.085,568
1569674649,400.608,-51.9038,-13.1713,179.319,2.70264,-145.063,568
1569674654,385.428,-35.8304,-13.2829,179.165,2.90039,-145.371,532
1569674654,385.428,-35.8304,-13.2829,179.165,2.90039,-145.371,532
1569674654,385.428,-35.8304,-13.2829,179.165,2.90039,-145.371,532
1569674654,385.428,-35.8304,-13.2829,179.165,2.90039,-145.371,532
1569674654,385.428,-35.8304,-13.2829,179.165,2.90039,-145.371,532
1569674654,385.428,-35.8304,-13.2829,179.143,2.90039,-145.371,532
1569674654,385.428,-35.8304,-13.2829,179.143,2.90039,-145.371,532
1569674654,385.428,-35.8304,-13.1713,179.143,2.92236,-145.371,532
1569674654,385.428,-35.8304,-13.1713,179.143,2.92236,-145.371,536
1569674654,385.428,-35.8304,-13.1713,179.165,2.92236,-145.371,536
1569674654,385.428,-35.8304,-13.1713,179.165,2.92236,-145.371,536
1569674654,385.428,-35.8304,-13.1713,179.165,2.92236,-145.371,536
1569674654,385.316,-35.8304,-13.1713,179.165,2.92236,-145.371,540
1569674654,385.316,-35.8304,-13.1713,179.165,2.92236,-145.371,540
1569674654,385.316,-35.8304,-13.1713,179.165,2.92236,-145.371,544
1569674654,385.316,-35.7188,-13.1713,179.165,2.92236,-145.371,544
1569674654,385.316,-35.7188,-13.1713,179.165,2.92236,-145.371,544
1569674654,385.316,-35.7188,-13.1713,179.165,2.92236,-145.371,548
1569674654,385.316,-35.7188,-13.1713,179.165,2.92236,-145.371,548
1569674654,385.316,-35.7188,-13.1713,179.165,2.92236,-145.371,552
1569674654,385.316,-35.7188,-13.1713,179.165,2.92236,-145.371,552
1569674654,385.316,-35.7188,-13.1713,179.165,2.92236,-145.371,552
1569674654,385.316,-35.7188,-13.1713,179.165,2.92236,-145.371,552
1569674654,385.316,-35.7188,-13.1713,179.165,2.92236,-145.371,552
1569674654,385.316,-35.7188,-13.1713,179.165,2.92236,-145.393,556
1569674654,385.316,-35.7188,-13.1713,179.165,2.92236,-145.393,556
1569674654,385.316,-35.7188,-13.1713,179.165,2.92236,-145.393,556
1569674654,385.316,-35.7188,-13.1713,179.165,2.92236,-145.393,556
1569674654,385.316,-35.7188,-13.1713,179.165,2.92236,-145.393,556
1569674654,385.316,-35.7188,-13.1713,179.187,2.92236,-145.393,556
1569674654,385.316,-35.7188,-13.1713,179.165,2.90039,-145.393,556
1569674654,385.316,-35.7188,-13.1713,179.165,2.90039,-145.393,560
1569674654,385.316,-35.7188,-13.1713,179.165,2.90039,-145.393,560
1569674654,385.316,-35.7188,-13.1713,179.165,2.90039,-145.393,560
1569674654,385.316,-35.7188,-13.1713,179.165,2.92236,-145.393,560
1569674654,385.316,-35.7188,-13.1713,179.165,2.92236,-145.393,560
1569674654,385.316,-35.7188,-13.1713,179.165,2.92236,-145.393,560
1569674654,385.316,-35.7188,-13.1713,179.165,2.92236,-145.393,560
1569674654,385.316,-35.7188,-13.1713,179.165,2.92236,-145.393,560
1569674654,385.316,-35.7188,-13.1713,179.165,2.92236,-145.393,560
1569674654,385.316,-35.7188,-13.1713,179.165,2.92236,-145.393,560
1569674654,385.316,-35.7188,-13.1713,179.165,2.92236,-145.393,560
1569674654,385.316,-35.7188,-13.1713,179.165,2.92236,-145.393,560
1569674654,385.316,-35.8304,-13.1713,179.165,2.92236,-145.371,560
1569674654,385.316,-35.8304,-13.1713,179.165,2.92236,-145.371,560
1569674654,385.316,-35.8304,-13.1713,179.165,2.92236,-145.371,560
1569674654,385.316,-35.8304,-13.1713,179.165,2.92236,-145.371,560
1569674654,385.316,-35.8304,-13.1713,179.165,2.92236,-145.371,556
1569674654,385.316,-35.8304,-13.1713,179.165,2.92236,-145.371,556
1569674654,385.316,-35.8304,-13.1713,179.165,2.92236,-145.371,556
1569674654,385.316,-35.8304,-13.1713,179.165,2.92236,-145.371,556
1569674654,385.316,-35.8304,-13.1713,179.165,2.92236,-145.371,556
1569674654,385.316,-35.8304,-13.1713,179.143,2.92236,-145.371,556
1569674654,385.316,-35.8304,-13.1713,179.143,2.92236,-145.371,552
1569674654,385.316,-35.8304,-13.1713,179.143,2.94434,-145.371,552
1569674654,385.316,-35.8304,-13.1713,179.143,2.94434,-145.371,552
1569674654,385.316,-35.8304,-13.1713,179.143,2.94434,-145.371,552
1569674654,385.316,-35.8304,-13.1713,179.165,2.94434,-145.371,552
1569674654,385.316,-35.8304,-13.1713,179.165,2.94434,-145.371,552
1569674654,385.316,-35.8304,-13.1713,179.165,2.92236,-145.371,548
1569674654,385.316,-35.8304,-13.1713,179.165,2.92236,-145.371,548
1569674654,385.316,-35.8304,-13.1713,179.165,2.92236,-145.371,548
1569674654,385.316,-35.8304,-13.1713,179.165,2.92236,-145.371,548
1569674654,385.316,-35.8304,-13.1713,179.165,2.92236,-145.371,548
1569674654,385.316,-35.8304,-13.1713,179.165,2.92236,-145.349,548
1569674654,385.316,-35.8304,-13.1713,179.165,2.92236,-145.349,548
1569674654,385.316,-35.8304,-13.1713,179.165,2.92236,-145.371,548
1569674654,385.316,-35.7188,-13.1713,179.165,2.92236,-145.371,548
1569674654,385.316,-35.7188,-13.1713,179.165,2.92236,-145.371,548
1569674654,385.316,-35.7188,-13.1713,179.165,2.92236,-145.371,548
1569674654,385.316,-35.7188,-13.1713,179.165,2.92236,-145.371,548
1569674654,385.316,-35.7188,-13.1713,179.165,2.92236,-145.371,552
1569674654,385.316,-35.7188,-13.1713,179.165,2.92236,-145.371,552
1569674654,385.316,-35.7188,-13.1713,179.165,2.92236,-145.371,552
1569674654,385.316,-35.7188,-13.1713,179.187,2.92236,-145.371,552
1569674655,385.316,-35.7188,-13.1713,179.187,2.92236,-145.371,552
1569674655,385.316,-35.7188,-13.1713,179.187,2.92236,-145.371,556
1569674655,385.316,-35.7188,-13.1713,179.187,2.92236,-145.371,556
1569674655,385.316,-35.7188,-13.1713,179.187,2.92236,-145.371,556
1569674655,385.316,-35.7188,-13.1713,179.187,2.92236,-145.371,556
1569674655,385.316,-35.7188,-13.1713,179.187,2.92236,-145.371,556
1569674655,385.316,-35.7188,-13.1713,179.187,2.92236,-145.371,556
1569674655,385.316,-35.7188,-13.1713,179.187,2.92236,-145.371,552
1569674655,385.316,-35.7188,-13.1713,179.187,2.92236,-145.371,552
1569674655,385.428,-35.7188,-13.1713,179.187,2.92236,-145.371,552
1569674655,385.428,-35.7188,-13.1713,179.187,2.92236,-145.371,552
1569674655,385.428,-35.7188,-13.1713,179.187,2.92236,-145.371,548
1569674655,385.428,-35.7188,-13.0597,179.187,2.92236,-145.371,548
1569674655,385.316,-35.7188,-13.0597,179.187,2.94434,-145.371,548
1569674655,385.316,-35.7188,-13.0597,179.187,2.94434,-145.371,544
1569674655,385.316,-35.7188,-13.0597,179.187,2.94434,-145.371,544
1569674655,385.316,-35.7188,-13.0597,179.187,2.94434,-145.371,544
1569674655,385.316,-35.7188,-13.0597,179.187,2.94434,-145.371,544
1569674655,385.316,-35.7188,-13.0597,179.187,2.94434,-145.371,544
1569674655,385.316,-35.7188,-13.0597,179.187,2.94434,-145.371,544
1569674655,385.316,-35.7188,-13.0597,179.187,2.94434,-145.371,544
1569674655,385.316,-35.7188,-13.0597,179.187,2.94434,-145.371,544
1569674655,385.316,-35.7188,-13.0597,179.187,2.94434,-145.371,544
1569674655,385.316,-35.7188,-13.0597,179.187,2.94434,-145.371,544
1569674655,385.428,-35.7188,-13.0597,179.187,2.94434,-145.371,544
1569674655,385.428,-35.7188,-13.0597,179.187,2.94434,-145.371,544
1569674655,385.428,-35.8304,-13.0597,179.187,2.94434,-145.371,544
1569674655,385.428,-35.8304,-13.0597,179.187,2.94434,-145.371,544
1569674655,385.428,-35.8304,-13.0597,179.187,2.94434,-145.349,544
1569674655,385.428,-35.8304,-13.0597,179.165,2.94434,-145.349,544
1569674655,385.428,-35.8304,-13.0597,179.165,2.94434,-145.349,544
1569674655,385.428,-35.8304,-13.0597,179.165,2.94434,-145.349,544
1569674655,385.428,-35.8304,-13.0597,179.165,2.94434,-145.349,544
1569674655,385.316,-35.8304,-13.0597,179.165,2.96631,-145.349,544
1569674655,385.316,-35.8304,-13.0597,179.165,2.96631,-145.349,544
1569674655,385.316,-35.8304,-13.0597,179.165,2.96631,-145.349,540
1569674655,385.316,-35.8304,-13.0597,179.165,2.96631,-145.371,540
1569674655,385.316,-35.8304,-13.0597,179.165,2.96631,-145.371,540
1569674655,385.316,-35.8304,-13.0597,179.165,2.96631,-145.371,540
1569674655,385.316,-35.8304,-13.0597,179.165,2.96631,-145.371,540
1569674655,385.316,-35.8304,-13.0597,179.143,2.96631,-145.371,540
1569674655,385.428,-35.8304,-13.0597,179.143,2.96631,-145.371,540
1569674655,385.428,-35.8304,-13.0597,179.143,2.96631,-145.371,536
1569674655,385.428,-35.8304,-13.0597,179.143,2.96631,-145.371,536
1569674655,385.428,-35.8304,-13.0597,179.143,2.96631,-145.371,536
1569674655,385.428,-35.8304,-13.0597,179.143,2.96631,-145.371,536
1569674655,385.428,-35.8304,-13.0597,179.143,2.94434,-145.371,536
1569674655,385.428,-35.8304,-13.0597,179.143,2.94434,-145.371,536
1569674655,385.428,-35.8304,-13.1713,179.165,2.94434,-145.371,536
1569674655,385.428,-35.8304,-13.1713,179.165,2.94434,-145.371,532
1569674655,385.428,-35.8304,-13.1713,179.165,2.94434,-145.371,532
1569674655,385.428,-35.8304,-13.1713,179.165,2.94434,-145.371,532
1569674655,385.428,-35.8304,-13.1713,179.165,2.94434,-145.371,532
1569674655,385.428,-35.8304,-13.1713,179.165,2.94434,-145.371,532
1569674655,385.428,-35.8304,-13.1713,179.165,2.92236,-145.371,532
1569674655,385.428,-35.8304,-13.1713,179.165,2.92236,-145.393,532
1569674655,385.428,-35.8304,-13.1713,179.165,2.92236,-145.393,536
1569674655,385.428,-35.8304,-13.1713,179.165,2.92236,-145.393,536
1569674655,385.428,-35.8304,-13.1713,179.165,2.94434,-145.393,536
1569674655,385.428,-35.8304,-13.1713,179.165,2.94434,-145.393,536
1569674655,385.428,-35.8304,-13.1713,179.165,2.94434,-145.393,536
1569674655,385.428,-35.8304,-13.1713,179.165,2.94434,-145.393,536
1569674655,385.428,-35.8304,-13.1713,179.165,2.94434,-145.393,536
1569674655,385.428,-35.8304,-13.1713,179.165,2.94434,-145.393,536
1569674655,385.428,-35.7188,-13.1713,179.165,2.94434,-145.393,536
1569674655,385.428,-35.7188,-13.1713,179.165,2.94434,-145.393,536
1569674655,385.428,-35.7188,-13.1713,179.165,2.94434,-145.393,536
1569674655,385.428,-35.7188,-13.1713,179.165,2.94434,-145.393,536
1569674655,385.428,-35.7188,-13.1713,179.165,2.94434,-145.393,536
1569674655,385.428,-35.7188,-13.1713,179.165,2.94434,-145.393,536
1569674655,385.428,-35.7188,-13.1713,179.165,2.94434,-145.393,536
1569674655,385.428,-35.7188,-13.1713,179.165,2.94434,-145.393,536
1569674655,385.428,-35.7188,-13.1713,179.165,2.92236,-145.371,536
1569674655,385.428,-35.7188,-13.1713,179.187,2.92236,-145.371,536
1569674655,385.428,-35.7188,-13.1713,179.187,2.92236,-145.371,536
1569674655,385.428,-35.7188,-13.1713,179.187,2.92236,-145.371,536
1569674655,385.428,-35.7188,-13.1713,179.187,2.92236,-145.371,532
1569674655,385.428,-35.7188,-13.1713,179.187,2.92236,-145.371,532
1569674655,385.428,-35.7188,-13.1713,179.187,2.92236,-145.371,532
1569674655,385.428,-35.7188,-13.1713,179.187,2.92236,-145.371,528
1569674655,385.428,-35.7188,-13.1713,179.187,2.92236,-145.371,528
1569674655,385.428,-35.7188,-13.1713,179.187,2.92236,-145.371,524
1569674655,385.428,-35.7188,-13.1713,179.187,2.92236,-145.371,524
1569674655,385.428,-35.7188,-13.1713,179.165,2.94434,-145.371,520
1569674655,385.428,-35.8304,-13.1713,179.165,2.94434,-145.371,520
1569674655,385.428,-35.8304,-13.1713,179.165,2.94434,-145.393,520
1569674655,385.428,-35.8304,-13.1713,179.165,2.94434,-145.393,516
1569674655,385.428,-35.8304,-13.1713,179.165,2.94434,-145.393,516
1569674655,385.428,-35.8304,-13.1713,179.165,2.94434,-145.393,516
1569674655,385.428,-35.8304,-13.1713,179.165,2.94434,-145.393,516
1569674655,385.428,-35.8304,-13.1713,179.165,2.94434,-145.393,516
1569674655,385.428,-35.8304,-13.1713,179.165,2.94434,-145.393,512
1569674655,385.428,-35.8304,-13.1713,179.143,2.94434,-145.393,512
1569674655,385.428,-35.8304,-13.1713,179.143,2.94434,-145.393,512
1569674655,385.428,-35.8304,-13.1713,179.143,2.94434,-145.393,512
1569674655,385.428,-35.8304,-13.1713,179.143,2.94434,-145.393,512
1569674655,385.428,-35.8304,-13.0597,179.143,2.94434,-145.393,512
1569674655,385.428,-35.8304,-13.0597,179.143,2.94434,-145.393,512
1569674655,385.428,-35.8304,-13.0597,179.143,2.94434,-145.393,512
1569674655,385.428,-35.8304,-13.0597,179.143,2.94434,-145.393,512
1569674656,385.428,-35.942,-13.0597,179.143,2.94434,-145.393,512
1569674656,385.428,-35.942,-13.0597,179.143,2.94434,-145.393,512
1569674656,385.428,-35.942,-13.1713,179.121,2.94434,-145.393,512
1569674656,385.428,-35.942,-13.1713,179.121,2.94434,-145.371,512
1569674656,385.428,-35.942,-13.1713,179.121,2.94434,-145.371,512
1569674656,385.428,-35.942,-13.1713,179.121,2.92236,-145.371,512
1569674656,385.428,-35.8304,-13.1713,179.143,2.92236,-145.371,512
1569674656,385.428,-35.8304,-13.1713,179.143,2.92236,-145.371,512
1569674656,385.428,-35.8304,-13.1713,179.143,2.92236,-145.371,512
1569674656,385.428,-35.8304,-13.1713,179.143,2.92236,-145.371,512
1569674656,385.428,-35.8304,-13.1713,179.143,2.92236,-145.371,512
1569674656,385.428,-35.8304,-13.1713,179.143,2.92236,-145.371,512
1569674656,385.428,-35.8304,-13.1713,179.143,2.92236,-145.371,512
1569674656,385.428,-35.8304,-13.1713,179.143,2.92236,-145.371,512
1569674656,385.428,-35.8304,-13.1713,179.143,2.92236,-145.371,512
1569674656,385.428,-35.8304,-13.1713,179.143,2.92236,-145.371,512
1569674656,385.428,-35.8304,-13.1713,179.143,2.92236,-145.371,512
1569674656,385.428,-35.8304,-13.1713,179.143,2.92236,-145.371,512
1569674656,385.428,-35.8304,-13.1713,179.143,2.92236,-145.371,512
1569674656,385.428,-35.8304,-13.1713,179.143,2.92236,-145.371,512
1569674656,385.428,-35.8304,-13.1713,179.143,2.92236,-145.371,512
1569674656,385.428,-35.8304,-13.1713,179.143,2.92236,-145.371,512
1569674656,385.428,-35.8304,-13.1713,179.143,2.92236,-145.371,512
1569674656,385.428,-35.8304,-13.1713,179.143,2.92236,-145.371,512
1569674656,385.428,-35.8304,-13.1713,179.143,2.92236,-145.371,512
1569674656,385.428,-35.8304,-13.1713,179.143,2.92236,-145.371,512
1569674656,385.428,-35.8304,-13.1713,179.143,2.92236,-145.371,512
1569674656,385.428,-35.8304,-13.1713,179.165,2.92236,-145.371,512
1569674656,385.428,-35.8304,-13.1713,179.165,2.94434,-145.371,512
1569674656,385.428,-35.8304,-13.1713,179.165,2.94434,-145.371,516
1569674656,385.428,-35.8304,-13.1713,179.165,2.94434,-145.393,516
1569674656,385.428,-35.8304,-13.1713,179.165,2.94434,-145.393,516
1569674656,385.316,-35.8304,-13.1713,179.165,2.94434,-145.393,520
1569674656,385.316,-35.8304,-13.1713,179.165,2.94434,-145.393,520
1569674656,385.316,-35.8304,-13.1713,179.165,2.94434,-145.393,524
1569674656,385.316,-35.8304,-13.1713,179.165,2.94434,-145.393,524
1569674656,385.316,-35.8304,-13.1713,179.165,2.92236,-145.393,524
1569674656,385.316,-35.8304,-13.1713,179.165,2.92236,-145.371,528
1569674656,385.316,-35.8304,-13.1713,179.165,2.94434,-145.371,528
1569674656,385.316,-35.8304,-13.1713,179.165,2.94434,-145.371,532
1569674656,385.316,-35.8304,-13.1713,179.165,2.94434,-145.371,532
1569674656,385.316,-35.8304,-13.1713,179.165,2.94434,-145.371,536
1569674656,385.316,-35.8304,-13.1713,179.165,2.94434,-145.371,536
1569674656,385.316,-35.8304,-13.0597,179.165,2.94434,-145.371,536
1569674656,385.316,-35.8304,-13.0597,179.165,2.94434,-145.371,540
1569674656,385.316,-35.8304,-13.0597,179.165,2.94434,-145.393,540
1569674656,385.316,-35.8304,-13.0597,179.165,2.94434,-145.393,540
1569674656,385.316,-35.8304,-13.0597,179.165,2.94434,-145.393,544
1569674656,385.316,-35.8304,-13.0597,179.165,2.94434,-145.393,544
1569674656,385.316,-35.8304,-13.0597,179.165,2.94434,-145.393,544
1569674656,385.316,-35.8304,-13.0597,179.165,2.94434,-145.393,544
1569674656,385.316,-35.8304,-13.0597,179.165,2.94434,-145.371,544
1569674656,385.316,-35.8304,-13.0597,179.165,2.94434,-145.371,544
1569674656,385.316,-35.8304,-13.0597,179.165,2.94434,-145.371,544
1569674656,385.316,-35.8304,-13.0597,179.165,2.94434,-145.371,544
1569674656,385.316,-35.8304,-13.0597,179.165,2.94434,-145.371,544
1569674656,385.428,-35.8304,-13.0597,179.165,2.96631,-145.371,544
1569674656,385.428,-35.8304,-13.0597,179.165,2.96631,-145.371,544
1569674656,385.428,-35.8304,-13.0597,179.165,2.96631,-145.371,544
1569674656,385.428,-35.8304,-13.0597,179.165,2.96631,-145.371,548
1569674656,385.428,-35.8304,-13.0597,179.165,2.96631,-145.371,548
1569674656,385.428,-35.8304,-13.0597,179.165,2.96631,-145.371,548
1569674656,385.428,-35.8304,-13.0597,179.165,2.96631,-145.371,548
1569674656,385.316,-35.8304,-13.0597,179.165,2.96631,-145.371,548
1569674656,385.316,-35.8304,-13.0597,179.165,2.96631,-145.371,548
1569674656,385.316,-35.8304,-13.0597,179.187,2.94434,-145.371,548
1569674656,385.316,-35.8304,-13.0597,179.187,2.94434,-145.371,548
1569674656,385.316,-35.7188,-13.0597,179.187,2.94434,-145.371,552
1569674656,385.316,-35.7188,-13.0597,179.187,2.94434,-145.371,552
1569674656,385.316,-35.7188,-13.0597,179.187,2.94434,-145.371,552
1569674656,385.316,-35.7188,-13.0597,179.187,2.94434,-145.371,552
1569674656,385.316,-35.7188,-13.0597,179.187,2.94434,-145.371,552
1569674656,385.316,-35.7188,-13.0597,179.187,2.94434,-145.371,552
1569674656,385.316,-35.7188,-13.0597,179.187,2.94434,-145.371,552
1569674656,385.316,-35.7188,-13.0597,179.187,2.94434,-145.371,552
1569674656,385.316,-35.7188,-13.0597,179.187,2.94434,-145.371,556
1569674656,385.316,-35.7188,-13.0597,179.187,2.94434,-145.371,556
1569674656,385.316,-35.7188,-13.0597,179.187,2.94434,-145.371,556
1569674656,385.316,-35.7188,-13.0597,179.187,2.94434,-145.371,556
1569674656,385.316,-35.7188,-13.1713,179.187,2.94434,-145.371,560
1569674656,385.316,-35.7188,-13.1713,179.187,2.92236,-145.371,560
1569674656,385.316,-35.7188,-13.1713,179.187,2.92236,-145.371,560
1569674656,385.316,-35.7188,-13.1713,179.187,2.92236,-145.371,560
1569674656,385.316,-35.7188,-13.1713,179.187,2.92236,-145.393,560
1569674656,385.316,-35.7188,-13.1713,179.165,2.92236,-145.393,560
1569674656,385.316,-35.7188,-13.1713,179.165,2.92236,-145.393,560
1569674656,385.316,-35.7188,-13.1713,179.165,2.92236,-145.393,564
1569674656,385.316,-35.7188,-13.1713,179.165,2.92236,-145.393,564
1569674656,385.316,-35.7188,-13.1713,179.165,2.92236,-145.371,564
1569674656,385.204,-35.8304,-13.1713,179.165,2.92236,-145.371,564
1569674656,385.204,-35.8304,-13.0597,179.165,2.92236,-145.371,564
1569674656,385.204,-35.8304,-13.0597,179.165,2.92236,-145.371,568
1569674656,385.204,-35.8304,-13.0597,179.165,2.92236,-145.371,568
1569674656,385.316,-35.8304,-13.0597,179.165,2.92236,-145.371,568
1569674656,385.316,-35.8304,-13.0597,179.165,2.92236,-145.371,568
1569674656,385.316,-35.8304,-13.0597,179.165,2.94434,-145.371,568
1569674656,385.316,-35.8304,-13.0597,179.165,2.94434,-145.371,568
1569674656,385.316,-35.8304,-13.0597,179.165,2.94434,-145.371,568
1569674656,385.316,-35.8304,-13.0597,179.165,2.94434,-145.371,568
1569674656,385.316,-35.8304,-13.0597,179.165,2.94434,-145.371,568
1569674657,385.316,-35.8304,-13.0597,179.165,2.94434,-145.393,568
1569674657,385.316,-35.8304,-13.0597,179.165,2.92236,-145.393,568
1569674657,385.316,-35.8304,-13.0597,179.165,2.92236,-145.393,568
1569674657,385.316,-35.8304,-13.0597,179.165,2.92236,-145.393,568
1569674657,385.316,-35.8304,-13.0597,179.165,2.92236,-145.393,568
1569674657,385.316,-35.8304,-13.1713,179.165,2.92236,-145.393,568
1569674657,385.316,-35.8304,-13.1713,179.165,2.92236,-145.393,564
1569674657,385.316,-35.8304,-13.1713,179.165,2.92236,-145.393,564
1569674657,385.316,-35.8304,-13.1713,179.165,2.92236,-145.393,564
1569674657,385.316,-35.8304,-13.1713,179.165,2.92236,-145.393,564
1569674657,385.316,-35.8304,-13.1713,179.165,2.92236,-145.393,564
1569674657,385.316,-35.8304,-13.1713,179.165,2.92236,-145.393,564
1569674657,385.316,-35.8304,-13.1713,179.165,2.92236,-145.393,560
1569674657,385.316,-35.8304,-13.1713,179.165,2.90039,-145.393,560
1569674657,385.316,-35.8304,-13.1713,179.165,2.90039,-145.371,560
1569674657,385.316,-35.8304,-13.1713,179.165,2.90039,-145.371,560
1569674657,385.316,-35.8304,-13.1713,179.165,2.90039,-145.371,560
1569674657,385.316,-35.8304,-13.1713,179.165,2.90039,-145.371,564
1569674657,385.316,-35.8304,-13.1713,179.165,2.90039,-145.371,564
1569674657,385.316,-35.8304,-13.1713,179.165,2.90039,-145.371,564
1569674657,385.316,-35.8304,-13.1713,179.165,2.87842,-145.371,564
1569674657,385.316,-35.8304,-13.1713,179.143,2.87842,-145.371,564
1569674657,385.316,-35.8304,-13.1713,179.143,2.87842,-145.371,564
1569674657,385.316,-35.8304,-13.1713,179.143,2.87842,-145.371,564
1569674657,385.316,-35.8304,-13.1713,179.143,2.87842,-145.371,564
1569674657,385.316,-35.8304,-13.1713,179.143,2.90039,-145.371,564
1569674657,385.316,-35.8304,-13.1713,179.143,2.90039,-145.371,564
1569674657,385.316,-35.8304,-13.1713,179.143,2.90039,-145.371,564
1569674657,385.316,-35.8304,-13.1713,179.143,2.90039,-145.371,564
1569674657,385.316,-35.8304,-13.1713,179.143,2.90039,-145.371,564
1569674657,385.316,-35.8304,-13.1713,179.143,2.90039,-145.371,560
1569674657,385.316,-35.8304,-13.1713,179.165,2.90039,-145.371,560
1569674657,385.316,-35.8304,-13.1713,179.165,2.90039,-145.371,560
1569674657,385.316,-35.7188,-13.1713,179.165,2.90039,-145.371,560
1569674657,385.428,-35.7188,-13.1713,179.165,2.90039,-145.371,556
1569674657,385.428,-35.7188,-13.1713,179.165,2.90039,-145.371,556
1569674657,385.428,-35.7188,-13.1713,179.187,2.90039,-145.371,552
1569674657,385.428,-35.7188,-13.1713,179.187,2.90039,-145.371,552
1569674657,385.428,-35.7188,-13.1713,179.187,2.90039,-145.371,552
1569674657,385.428,-35.7188,-13.1713,179.187,2.90039,-145.371,548
1569674657,385.428,-35.7188,-13.1713,179.187,2.90039,-145.371,548
1569674657,385.428,-35.7188,-13.1713,179.187,2.90039,-145.371,544
1569674657,385.428,-35.7188,-13.1713,179.165,2.90039,-145.393,544
1569674657,385.428,-35.7188,-13.1713,179.165,2.90039,-145.393,544
1569674657,385.428,-35.8304,-13.1713,179.165,2.90039,-145.393,540
1569674657,385.428,-35.8304,-13.1713,179.165,2.90039,-145.393,540
1569674657,385.428,-35.8304,-13.1713,179.165,2.90039,-145.393,540
1569674657,385.428,-35.8304,-13.1713,179.165,2.90039,-145.393,540
1569674657,385.428,-35.8304,-13.1713,179.165,2.92236,-145.393,540
1569674657,385.428,-35.8304,-13.1713,179.165,2.92236,-145.393,540
1569674657,385.428,-35.8304,-13.1713,179.165,2.92236,-145.393,540
1569674657,385.428,-35.8304,-13.1713,179.165,2.92236,-145.393,540
1569674657,385.316,-35.8304,-13.1713,179.165,2.92236,-145.393,540
1569674657,385.316,-35.7188,-13.1713,179.165,2.92236,-145.393,540
1569674657,385.316,-35.7188,-13.1713,179.187,2.90039,-145.371,540
1569674657,385.316,-35.7188,-13.1713,179.187,2.90039,-145.371,540
1569674657,385.428,-35.7188,-13.1713,179.187,2.90039,-145.371,536
1569674657,385.428,-35.7188,-13.1713,179.187,2.90039,-145.371,536
1569674657,385.428,-35.7188,-13.1713,179.187,2.90039,-145.371,536
1569674657,385.428,-35.7188,-13.1713,179.187,2.90039,-145.371,536
1569674657,385.428,-35.7188,-13.1713,179.187,2.92236,-145.371,536
1569674657,385.428,-35.7188,-13.1713,179.209,2.92236,-145.371,536
1569674657,385.428,-35.7188,-13.1713,179.209,2.92236,-145.371,536
1569674657,385.428,-35.7188,-13.1713,179.209,2.92236,-145.371,536
1569674657,385.428,-35.7188,-13.1713,179.209,2.92236,-145.371,536
1569674657,385.428,-35.7188,-13.1713,179.209,2.92236,-145.371,536
1569674657,385.428,-35.7188,-13.1713,179.187,2.92236,-145.371,536
1569674657,385.316,-35.7188,-13.1713,179.187,2.92236,-145.371,536
1569674657,385.316,-35.7188,-13.1713,179.187,2.92236,-145.371,536
1569674657,385.316,-35.7188,-13.1713,179.187,2.92236,-145.371,536
1569674657,385.316,-35.7188,-13.1713,179.187,2.92236,-145.371,536
1569674657,385.316,-35.7188,-13.1713,179.187,2.92236,-145.371,536
1569674657,385.316,-35.7188,-13.1713,179.187,2.92236,-145.371,536
1569674657,385.316,-35.7188,-13.1713,179.165,2.92236,-145.371,540
1569674657,385.316,-35.7188,-13.1713,179.165,2.92236,-145.371,540
1569674657,385.316,-35.7188,-13.1713,179.165,2.92236,-145.371,540
1569674657,385.316,-35.7188,-13.1713,179.165,2.92236,-145.371,540
1569674657,385.316,-35.7188,-13.1713,179.165,2.92236,-145.371,540
1569674657,385.316,-35.8304,-13.1713,179.165,2.92236,-145.371,540
1569674657,385.316,-35.8304,-13.1713,179.165,2.92236,-145.371,540
1569674657,385.316,-35.8304,-13.1713,179.165,2.92236,-145.371,540
1569674657,385.316,-35.8304,-13.1713,179.165,2.92236,-145.371,536
1569674657,385.316,-35.8304,-13.1713,179.165,2.92236,-145.371,536
1569674657,385.316,-35.8304,-13.1713,179.165,2.92236,-145.371,536
1569674657,385.316,-35.8304,-13.1713,179.165,2.92236,-145.371,536
1569674657,385.316,-35.8304,-13.1713,179.165,2.92236,-145.371,536
1569674657,385.316,-35.8304,-13.1713,179.165,2.92236,-145.371,536
1569674657,385.316,-35.8304,-13.0597,179.165,2.94434,-145.371,536
1569674657,385.316,-35.7188,-13.0597,179.165,2.94434,-145.371,536
1569674657,385.316,-35.7188,-13.0597,179.165,2.94434,-145.371,536
1569674657,385.316,-35.7188,-13.0597,179.165,2.94434,-145.371,536
1569674657,385.316,-35.7188,-13.0597,179.165,2.94434,-145.371,536
1569674657,385.316,-35.7188,-13.0597,179.165,2.94434,-145.371,536
1569674657,385.316,-35.7188,-13.0597,179.165,2.94434,-145.371,536
1569674657,385.316,-35.7188,-13.0597,179.165,2.94434,-145.371,536
1569674657,385.316,-35.7188,-13.0597,179.165,2.94434,-145.371,536
1569674657,385.316,-35.7188,-13.0597,179.165,2.94434,-145.371,536
1569674657,385.316,-35.7188,-13.0597,179.165,2.92236,-145.371,536
1569674657,385.316,-35.7188,-13.0597,179.165,2.92236,-145.371,536
1569674657,385.316,-35.7188,-13.0597,179.165,2.92236,-145.393,536
1569674658,385.316,-35.7188,-13.0597,179.187,2.92236,-145.393,536
1569674658,385.316,-35.7188,-13.0597,179.187,2.92236,-145.393,536
1569674658,385.428,-35.7188,-13.0597,179.187,2.92236,-145.393,536
1569674658,385.428,-35.7188,-13.0597,179.187,2.92236,-145.393,536
1569674658,385.428,-35.7188,-13.0597,179.187,2.92236,-145.393,540
1569674658,385.428,-35.7188,-13.0597,179.187,2.92236,-145.393,540
1569674658,385.316,-35.7188,-13.0597,179.187,2.94434,-145.393,540
1569674658,385.316,-35.7188,-13.0597,179.187,2.94434,-145.393,540
1569674658,385.316,-35.7188,-13.0597,179.187,2.94434,-145.393,544
1569674658,385.316,-35.7188,-13.0597,179.187,2.94434,-145.393,544
1569674658,385.316,-35.7188,-13.0597,179.187,2.94434,-145.393,544
1569674658,385.316,-35.7188,-13.0597,179.187,2.94434,-145.371,544
1569674658,385.316,-35.7188,-13.0597,179.187,2.94434,-145.371,544
1569674658,385.316,-35.7188,-13.0597,179.187,2.94434,-145.371,548
1569674658,385.316,-35.7188,-13.0597,179.187,2.94434,-145.371,548
1569674658,385.316,-35.8304,-13.0597,179.165,2.94434,-145.371,548
1569674658,385.316,-35.8304,-13.0597,179.165,2.94434,-145.371,548
1569674658,385.316,-35.8304,-13.0597,179.165,2.94434,-145.371,548
1569674658,385.316,-35.8304,-13.0597,179.187,2.92236,-145.371,548
1569674658,385.316,-35.8304,-13.0597,179.165,2.92236,-145.371,548
1569674658,385.316,-35.8304,-13.0597,179.165,2.92236,-145.371,544
1569674658,385.316,-35.8304,-13.1713,179.187,2.92236,-145.371,544
1569674658,385.316,-35.8304,-13.1713,179.187,2.92236,-145.371,544
1569674658,385.428,-35.7188,-13.1713,179.187,2.92236,-145.371,544
1569674658,385.428,-35.7188,-13.1713,179.187,2.92236,-145.371,544
1569674658,385.428,-35.7188,-13.1713,179.187,2.92236,-145.371,544
1569674658,385.428,-35.7188,-13.1713,179.187,2.92236,-145.371,540
1569674658,385.316,-35.7188,-13.1713,179.187,2.92236,-145.371,540
1569674658,385.316,-35.7188,-13.1713,179.187,2.92236,-145.371,540
1569674658,385.316,-35.7188,-13.1713,179.187,2.92236,-145.371,540
1569674658,385.316,-35.7188,-13.1713,179.187,2.92236,-145.371,536
1569674658,385.316,-35.7188,-13.1713,179.187,2.92236,-145.371,536
1569674658,385.316,-35.7188,-13.1713,179.187,2.92236,-145.371,536
1569674658,385.316,-35.7188,-13.1713,179.187,2.92236,-145.393,536
1569674658,385.316,-35.7188,-13.1713,179.187,2.92236,-145.393,536
1569674658,385.316,-35.7188,-13.1713,179.187,2.92236,-145.393,536
1569674658,385.316,-35.7188,-13.1713,179.187,2.92236,-145.393,536
1569674658,385.316,-35.7188,-13.1713,179.187,2.92236,-145.393,536
1569674658,385.316,-35.7188,-13.1713,179.187,2.92236,-145.393,536
1569674658,385.316,-35.7188,-13.1713,179.187,2.92236,-145.393,536
1569674658,385.316,-35.7188,-13.1713,179.187,2.92236,-145.393,536
1569674658,385.428,-35.7188,-13.1713,179.187,2.92236,-145.393,536
1569674658,385.428,-35.7188,-13.1713,179.187,2.92236,-145.393,540
1569674658,385.428,-35.7188,-13.1713,179.187,2.94434,-145.393,540
1569674658,385.428,-35.7188,-13.1713,179.209,2.94434,-145.393,540
1569674658,385.428,-35.7188,-13.1713,179.209,2.94434,-145.393,540
1569674658,385.428,-35.7188,-13.1713,179.187,2.94434,-145.393,544
1569674658,385.428,-35.7188,-13.0597,179.187,2.94434,-145.393,544
1569674658,385.428,-35.7188,-13.0597,179.187,2.94434,-145.393,544
1569674658,385.428,-35.7188,-13.0597,179.187,2.94434,-145.393,544
1569674658,385.428,-35.7188,-13.0597,179.187,2.94434,-145.393,544
1569674658,385.428,-35.7188,-13.0597,179.187,2.94434,-145.371,548
1569674658,385.428,-35.7188,-13.0597,179.187,2.94434,-145.371,548
1569674658,385.428,-35.7188,-13.0597,179.187,2.94434,-145.371,548
1569674658,385.316,-35.7188,-13.0597,179.187,2.94434,-145.371,548
1569674658,385.316,-35.7188,-13.0597,179.187,2.94434,-145.371,548
1569674658,385.316,-35.7188,-13.0597,179.187,2.94434,-145.371,548
1569674658,385.316,-35.7188,-13.0597,179.187,2.94434,-145.371,548
1569674658,385.316,-35.7188,-13.0597,179.165,2.94434,-145.371,548
1569674658,385.316,-35.7188,-13.0597,179.165,2.94434,-145.393,548
1569674658,385.316,-35.7188,-13.0597,179.165,2.94434,-145.393,548
1569674658,385.316,-35.7188,-13.0597,179.165,2.94434,-145.393,548
1569674658,385.316,-35.7188,-13.0597,179.187,2.94434,-145.393,548
1569674658,385.316,-35.7188,-13.0597,179.187,2.94434,-145.393,548
1569674658,385.316,-35.7188,-13.0597,179.187,2.94434,-145.371,548
1569674658,385.316,-35.7188,-13.1713,179.165,2.94434,-145.371,548
1569674658,385.316,-35.7188,-13.1713,179.165,2.94434,-145.371,548
1569674658,385.316,-35.8304,-13.1713,179.165,2.92236,-145.371,552
1569674658,385.316,-35.8304,-13.1713,179.165,2.92236,-145.371,552
1569674658,385.316,-35.8304,-13.1713,179.165,2.92236,-145.371,552
1569674658,385.316,-35.8304,-13.1713,179.165,2.92236,-145.371,552
1569674658,385.316,-35.8304,-13.1713,179.165,2.92236,-145.371,548
1569674658,385.316,-35.8304,-13.1713,179.143,2.92236,-145.371,548
1569674658,385.316,-35.8304,-13.1713,179.143,2.90039,-145.371,548
1569674658,385.316,-35.8304,-13.2829,179.143,2.90039,-145.371,548
1569674658,385.316,-35.8304,-13.2829,179.143,2.90039,-145.371,548
1569674658,385.316,-35.8304,-13.2829,179.143,2.90039,-145.371,548
1569674658,385.316,-35.8304,-13.2829,179.165,2.90039,-145.371,548
1569674658,385.428,-35.8304,-13.2829,179.165,2.90039,-145.371,548
1569674658,385.428,-35.8304,-13.2829,179.165,2.90039,-145.371,548
1569674658,385.428,-35.8304,-13.2829,179.165,2.90039,-145.371,548
1569674658,385.428,-35.8304,-13.2829,179.165,2.90039,-145.371,548
1569674658,385.428,-35.8304,-13.2829,179.165,2.90039,-145.371,548
1569674658,385.428,-35.7188,-13.1713,179.165,2.90039,-145.371,548
1569674658,385.428,-35.7188,-13.1713,179.165,2.90039,-145.371,548
1569674658,385.428,-35.7188,-13.1713,179.165,2.92236,-145.371,548
1569674658,385.428,-35.7188,-13.1713,179.165,2.92236,-145.371,548
1569674658,385.428,-35.7188,-13.1713,179.165,2.92236,-145.371,548
1569674658,385.428,-35.8304,-13.1713,179.165,2.92236,-145.371,548
1569674658,385.428,-35.8304,-13.1713,179.165,2.92236,-145.371,548
1569674658,385.428,-35.8304,-13.1713,179.165,2.92236,-145.371,548
1569674658,385.428,-35.8304,-13.1713,179.165,2.92236,-145.371,548
1569674658,385.428,-35.8304,-13.1713,179.165,2.92236,-145.371,548
1569674658,385.428,-35.8304,-13.1713,179.165,2.92236,-145.371,548
1569674658,385.428,-35.8304,-13.1713,179.165,2.92236,-145.371,548
1569674658,385.428,-35.8304,-13.1713,179.165,2.92236,-145.371,544
1569674658,385.428,-35.8304,-13.1713,179.165,2.92236,-145.371,544
1569674658,385.428,-35.8304,-13.1713,179.165,2.92236,-145.371,544
1569674658,385.428,-35.8304,-13.1713,179.165,2.92236,-145.371,544
1569674658,385.428,-35.8304,-13.1713,179.165,2.92236,-145.371,544
1569674659,385.428,-35.8304,-13.1713,179.165,2.92236,-145.371,544
1569674659,385.428,-35.8304,-13.1713,179.165,2.92236,-145.371,544
1569674659,385.428,-35.8304,-13.1713,179.165,2.92236,-145.371,544
1569674659,385.428,-35.8304,-13.1713,179.165,2.92236,-145.371,540
1569674659,385.428,-35.8304,-13.1713,179.165,2.92236,-145.371,540
1569674659,385.428,-35.8304,-13.1713,179.165,2.92236,-145.371,540
1569674659,385.428,-35.8304,-13.1713,179.187,2.94434,-145.371,540
1569674659,385.428,-35.8304,-13.1713,179.187,2.94434,-145.371,540
1569674659,385.428,-35.7188,-13.1713,179.187,2.94434,-145.371,540
1569674659,385.428,-35.7188,-13.1713,179.187,2.94434,-145.371,540
1569674659,385.428,-35.7188,-13.0597,179.187,2.94434,-145.371,540
1569674659,385.428,-35.7188,-13.0597,179.187,2.94434,-145.371,540
1569674659,385.428,-35.7188,-13.0597,179.187,2.94434,-145.371,540
1569674659,385.428,-35.7188,-13.0597,179.187,2.94434,-145.371,540
1569674659,385.428,-35.7188,-13.0597,179.187,2.94434,-145.371,540
1569674659,385.428,-35.7188,-13.0597,179.187,2.94434,-145.371,540
1569674659,385.428,-35.8304,-13.0597,179.187,2.94434,-145.371,540
1569674659,385.428,-35.8304,-13.0597,179.187,2.94434,-145.371,540
1569674659,385.428,-35.8304,-13.0597,179.187,2.94434,-145.371,540
1569674659,385.428,-35.8304,-13.0597,179.187,2.94434,-145.371,540
1569674659,385.428,-35.8304,-13.0597,179.187,2.94434,-145.371,540
1569674659,385.428,-35.8304,-13.0597,179.187,2.94434,-145.371,540
1569674659,385.428,-35.8304,-13.0597,179.187,2.94434,-145.371,540
1569674659,385.428,-35.7188,-13.1713,179.187,2.92236,-145.371,540
1569674659,385.428,-35.7188,-13.1713,179.187,2.92236,-145.371,540
1569674663,362.322,-11.6086,-13.841,179.011,2.63672,-145.217,500
1569674663,362.322,-11.6086,-13.841,179.011,2.63672,-145.217,500
1569674663,362.322,-11.6086,-13.841,179.011,2.63672,-145.217,500
1569674664,362.322,-11.6086,-13.841,179.011,2.63672,-145.217,500
1569674664,362.322,-11.6086,-13.841,179.011,2.63672,-145.217,500
1569674664,362.322,-11.6086,-13.841,179.011,2.63672,-145.217,500
1569674664,362.322,-11.6086,-13.841,179.011,2.63672,-145.217,500
1569674664,362.322,-11.6086,-13.841,179.011,2.63672,-145.217,500
1569674664,362.322,-11.6086,-13.841,179.011,2.63672,-145.217,500
1569674664,362.322,-11.6086,-13.841,179.011,2.63672,-145.217,500
1569674664,362.322,-11.6086,-13.841,179.011,2.63672,-145.217,500
1569674664,362.322,-11.6086,-13.841,179.011,2.63672,-145.239,500
1569674664,362.322,-11.6086,-13.841,179.011,2.63672,-145.239,500
1569674664,362.322,-11.6086,-13.841,178.989,2.63672,-145.239,500
1569674664,362.322,-11.6086,-13.841,178.989,2.63672,-145.239,500
1569674664,362.322,-11.7202,-13.841,178.989,2.63672,-145.239,500
1569674664,362.322,-11.7202,-13.841,178.989,2.63672,-145.239,496
1569674664,362.322,-11.7202,-13.841,178.989,2.63672,-145.239,496
1569674664,362.322,-11.7202,-13.841,178.989,2.63672,-145.239,496
1569674664,362.322,-11.7202,-13.841,178.989,2.63672,-145.239,496
1569674664,362.322,-11.7202,-13.841,178.989,2.63672,-145.239,496
1569674664,362.322,-11.7202,-13.841,178.989,2.63672,-145.239,496
1569674664,362.322,-11.7202,-13.841,178.989,2.63672,-145.239,496
1569674664,362.322,-11.7202,-13.841,178.989,2.63672,-145.239,492
1569674664,362.322,-11.7202,-13.841,178.989,2.63672,-145.239,492
1569674664,362.322,-11.7202,-13.841,178.989,2.63672,-145.239,492
1569674664,362.322,-11.7202,-13.841,178.989,2.63672,-145.239,492
1569674664,362.322,-11.7202,-13.841,178.989,2.63672,-145.239,492
1569674664,362.322,-11.7202,-13.841,178.989,2.63672,-145.239,492
1569674664,362.322,-11.7202,-13.841,178.989,2.63672,-145.239,492
1569674664,362.322,-11.7202,-13.841,178.989,2.63672,-145.239,492
1569674664,362.322,-11.7202,-13.841,178.989,2.63672,-145.239,492
1569674664,362.322,-11.7202,-13.841,178.989,2.63672,-145.239,492
1569674664,362.322,-11.7202,-13.841,178.989,2.63672,-145.239,492
1569674664,362.322,-11.7202,-13.841,178.989,2.63672,-145.239,492
1569674664,362.322,-11.7202,-13.841,178.989,2.63672,-145.239,492
1569674664,362.322,-11.7202,-13.841,179.011,2.63672,-145.239,492
1569674664,362.322,-11.7202,-13.841,179.011,2.63672,-145.239,492
1569674664,362.322,-11.7202,-13.841,179.011,2.63672,-145.239,492
1569674664,362.322,-11.7202,-13.841,179.011,2.61475,-145.239,492
1569674664,362.322,-11.7202,-13.841,179.011,2.61475,-145.239,492
1569674664,362.322,-11.7202,-13.841,179.011,2.61475,-145.239,492
1569674664,362.322,-11.7202,-13.841,179.011,2.61475,-145.239,496
1569674664,362.322,-11.7202,-13.841,179.011,2.61475,-145.239,496
1569674664,362.322,-11.6086,-13.841,179.011,2.63672,-145.239,496
1569674664,362.322,-11.6086,-13.841,179.011,2.63672,-145.239,496
1569674664,362.322,-11.6086,-13.841,179.011,2.63672,-145.239,496
1569674664,362.322,-11.6086,-13.841,179.011,2.63672,-145.239,500
1569674664,362.322,-11.6086,-13.841,179.011,2.63672,-145.239,500
1569674664,362.322,-11.6086,-13.841,179.033,2.63672,-145.239,500
1569674664,362.322,-11.6086,-13.841,179.033,2.63672,-145.239,500
1569674664,362.322,-11.6086,-13.841,179.033,2.63672,-145.239,500
1569674664,362.322,-11.6086,-13.841,179.033,2.63672,-145.239,504
1569674664,362.322,-11.6086,-13.841,179.033,2.63672,-145.239,504
1569674664,362.322,-11.6086,-13.841,179.033,2.63672,-145.239,504
1569674664,362.322,-11.6086,-13.841,179.033,2.63672,-145.239,504
1569674664,362.322,-11.6086,-13.841,179.033,2.63672,-145.239,504
1569674664,362.322,-11.6086,-13.841,179.033,2.63672,-145.239,504
1569674664,362.322,-11.6086,-13.841,179.033,2.63672,-145.239,504
1569674664,362.322,-11.6086,-13.841,179.033,2.63672,-145.239,504
1569674664,362.322,-11.6086,-13.841,179.033,2.63672,-145.239,500
1569674664,362.322,-11.6086,-13.7294,179.033,2.63672,-145.239,500
1569674664,362.322,-11.6086,-13.7294,179.033,2.63672,-145.239,500
1569674664,362.322,-11.6086,-13.7294,179.033,2.63672,-145.239,500
1569674664,362.322,-11.6086,-13.7294,179.033,2.63672,-145.239,500
1569674664,362.322,-11.6086,-13.7294,179.033,2.63672,-145.239,500
1569674664,362.322,-11.6086,-13.7294,179.011,2.63672,-145.239,500
1569674664,362.322,-11.6086,-13.7294,179.011,2.63672,-145.239,500
1569674664,362.322,-11.6086,-13.7294,179.011,2.63672,-145.239,500
1569674664,362.322,-11.6086,-13.7294,179.011,2.63672,-145.239,500
1569674664,362.322,-11.6086,-13.7294,179.011,2.63672,-145.239,500
1569674664,362.322,-11.6086,-13.841,179.011,2.63672,-145.239,500
1569674664,362.322,-11.6086,-13.841,179.033,2.63672,-145.239,500
1569674664,362.322,-11.6086,-13.841,179.033,2.63672,-145.239,504
1569674664,362.322,-11.6086,-13.841,179.033,2.63672,-145.239,504
1569674664,362.322,-11.6086,-13.841,179.033,2.63672,-145.239,504
1569674664,362.322,-11.6086,-13.841,179.033,2.63672,-145.217,504
1569674664,362.322,-11.6086,-13.841,179.033,2.63672,-145.217,504
1569674664,362.322,-11.6086,-13.841,179.033,2.63672,-145.217,504
1569674664,362.322,-11.6086,-13.841,179.033,2.63672,-145.217,504
1569674664,362.322,-11.6086,-13.841,179.033,2.63672,-145.217,504
1569674664,362.322,-11.6086,-13.841,179.011,2.63672,-145.217,504
1569674664,362.322,-11.6086,-13.841,179.011,2.63672,-145.217,504
1569674664,362.322,-11.6086,-13.841,179.011,2.63672,-145.217,504
1569674664,362.322,-11.6086,-13.841,179.011,2.63672,-145.217,504
1569674664,362.322,-11.6086,-13.841,179.011,2.63672,-145.217,504
1569674664,362.322,-11.6086,-13.841,179.011,2.63672,-145.217,504
1569674664,362.322,-11.6086,-13.841,179.011,2.63672,-145.217,504
1569674664,362.434,-11.6086,-13.841,179.011,2.63672,-145.217,500
1569674664,362.434,-11.6086,-13.841,179.011,2.63672,-145.217,500
1569674664,362.434,-11.7202,-13.841,179.011,2.63672,-145.217,500
1569674664,362.434,-11.7202,-13.841,179.011,2.63672,-145.217,500
1569674664,362.434,-11.7202,-13.841,179.011,2.63672,-145.217,496
1569674664,362.434,-11.7202,-13.841,179.011,2.63672,-145.217,496
1569674664,362.434,-11.7202,-13.841,179.011,2.63672,-145.217,496
1569674664,362.434,-11.7202,-13.841,179.011,2.63672,-145.217,492
1569674664,362.434,-11.7202,-13.841,179.011,2.63672,-145.217,492
1569674664,362.434,-11.7202,-13.841,179.011,2.63672,-145.217,492
1569674664,362.434,-11.7202,-13.841,179.011,2.63672,-145.217,492
1569674664,362.434,-11.7202,-13.841,179.011,2.63672,-145.217,492
1569674664,362.434,-11.7202,-13.841,178.989,2.63672,-145.217,488
1569674664,362.434,-11.7202,-13.841,178.989,2.63672,-145.217,488
1569674664,362.434,-11.7202,-13.7294,178.989,2.63672,-145.217,488
1569674665,362.434,-11.7202,-13.7294,179.011,2.63672,-145.217,488
1569674665,362.434,-11.7202,-13.7294,179.011,2.65869,-145.217,488
1569674665,362.434,-11.7202,-13.7294,179.011,2.65869,-145.217,488
1569674665,362.434,-11.7202,-13.7294,179.011,2.65869,-145.217,488
1569674665,362.434,-11.7202,-13.7294,179.011,2.65869,-145.217,488
1569674665,362.434,-11.7202,-13.7294,179.011,2.65869,-145.217,488
1569674665,362.434,-11.7202,-13.7294,179.011,2.63672,-145.217,488
1569674665,362.434,-11.7202,-13.841,179.011,2.63672,-145.217,492
1569674665,362.434,-11.7202,-13.841,179.011,2.63672,-145.217,492
1569674665,362.434,-11.6086,-13.841,179.011,2.63672,-145.217,492
1569674665,362.434,-11.6086,-13.841,179.011,2.63672,-145.217,492
1569674665,362.322,-11.6086,-13.841,179.011,2.63672,-145.217,492
1569674665,362.322,-11.6086,-13.841,179.011,2.63672,-145.239,492
1569674665,362.322,-11.6086,-13.841,179.011,2.65869,-145.239,492
1569674665,362.322,-11.6086,-13.841,179.011,2.65869,-145.239,492
1569674665,362.322,-11.6086,-13.841,179.011,2.65869,-145.239,492
1569674665,362.322,-11.6086,-13.841,179.011,2.65869,-145.239,492
1569674665,362.322,-11.6086,-13.841,179.011,2.65869,-145.239,492
1569674665,362.322,-11.6086,-13.841,179.011,2.65869,-145.239,492
1569674665,362.322,-11.6086,-13.841,179.011,2.63672,-145.239,492
1569674665,362.322,-11.6086,-13.841,179.011,2.63672,-145.239,492
1569674665,362.322,-11.6086,-13.841,179.011,2.63672,-145.239,492
1569674665,362.322,-11.6086,-13.841,179.011,2.63672,-145.239,492
1569674665,362.322,-11.6086,-13.841,179.011,2.63672,-145.239,492
1569674665,362.322,-11.6086,-13.841,179.011,2.63672,-145.239,492
1569674665,362.322,-11.6086,-13.841,179.011,2.63672,-145.239,488
1569674665,362.322,-11.6086,-13.841,179.011,2.63672,-145.239,488
1569674665,362.322,-11.6086,-13.841,179.011,2.63672,-145.239,488
1569674665,362.322,-11.6086,-13.841,179.011,2.63672,-145.239,488
1569674665,362.322,-11.6086,-13.841,179.011,2.63672,-145.239,488
1569674665,362.322,-11.6086,-13.841,179.011,2.63672,-145.239,484
1569674665,362.434,-11.6086,-13.841,179.011,2.63672,-145.239,484
1569674665,362.434,-11.6086,-13.841,179.033,2.63672,-145.239,484
1569674665,362.434,-11.6086,-13.841,179.033,2.63672,-145.239,484
1569674665,362.322,-11.6086,-13.841,179.033,2.63672,-145.239,484
1569674665,362.322,-11.6086,-13.841,179.033,2.63672,-145.239,480
1569674665,362.322,-11.6086,-13.841,179.033,2.63672,-145.239,480
1569674665,362.322,-11.6086,-13.841,179.011,2.63672,-145.217,480
1569674665,362.322,-11.6086,-13.841,179.011,2.63672,-145.217,480
1569674665,362.322,-11.6086,-13.841,179.011,2.63672,-145.217,480
1569674665,362.322,-11.6086,-13.841,179.011,2.63672,-145.217,480
1569674665,362.322,-11.6086,-13.841,179.011,2.63672,-145.217,480
1569674665,362.322,-11.6086,-13.841,179.011,2.63672,-145.217,480
1569674665,362.322,-11.6086,-13.841,179.011,2.63672,-145.217,480
1569674665,362.322,-11.6086,-13.841,179.011,2.63672,-145.217,480
1569674665,362.322,-11.6086,-13.841,179.011,2.63672,-145.217,480
1569674665,362.322,-11.6086,-13.841,179.033,2.63672,-145.217,480
1569674665,362.322,-11.6086,-13.841,179.033,2.63672,-145.217,480
1569674665,362.322,-11.6086,-13.841,179.033,2.63672,-145.217,484
1569674665,362.322,-11.6086,-13.841,179.033,2.63672,-145.217,484
1569674665,362.322,-11.6086,-13.841,179.033,2.63672,-145.217,484
1569674665,362.322,-11.6086,-13.841,179.033,2.63672,-145.217,484
1569674665,362.322,-11.6086,-13.841,179.033,2.63672,-145.217,484
1569674665,362.322,-11.6086,-13.841,179.033,2.63672,-145.217,484
1569674665,362.322,-11.6086,-13.841,179.033,2.63672,-145.239,484
1569674665,362.322,-11.6086,-13.841,179.033,2.65869,-145.239,484
1569674665,362.322,-11.6086,-13.841,179.033,2.65869,-145.239,484
1569674665,362.322,-11.6086,-13.7294,179.033,2.65869,-145.239,484
1569674665,362.322,-11.6086,-13.7294,179.011,2.65869,-145.239,484
1569674665,362.322,-11.6086,-13.7294,179.011,2.65869,-145.239,484
1569674665,362.322,-11.6086,-13.7294,179.011,2.65869,-145.239,484
1569674665,362.322,-11.6086,-13.7294,179.011,2.68066,-145.239,484
1569674665,362.322,-11.6086,-13.7294,179.011,2.68066,-145.239,484
1569674665,362.322,-11.6086,-13.7294,179.011,2.68066,-145.239,484
1569674665,362.322,-11.6086,-13.7294,179.011,2.68066,-145.239,484
1569674665,362.322,-11.6086,-13.7294,179.011,2.68066,-145.239,484
1569674665,362.322,-11.6086,-13.7294,179.011,2.68066,-145.239,484
1569674665,362.322,-11.6086,-13.7294,179.011,2.68066,-145.239,488
1569674665,362.322,-11.6086,-13.7294,179.011,2.68066,-145.239,488
1569674665,362.322,-11.6086,-13.7294,179.011,2.68066,-145.239,488
1569674665,362.322,-11.6086,-13.7294,179.011,2.68066,-145.239,488
1569674665,362.322,-11.6086,-13.7294,179.011,2.68066,-145.239,488
1569674665,362.322,-11.6086,-13.7294,179.011,2.65869,-145.239,488
1569674665,362.322,-11.6086,-13.7294,179.011,2.65869,-145.239,492
1569674665,362.322,-11.6086,-13.7294,179.011,2.65869,-145.239,492
1569674665,362.322,-11.6086,-13.7294,179.011,2.65869,-145.239,492
1569674665,362.322,-11.6086,-13.7294,179.011,2.65869,-145.239,492
1569674665,362.322,-11.6086,-13.7294,179.011,2.65869,-145.239,492
1569674665,362.322,-11.6086,-13.7294,179.011,2.65869,-145.239,492
1569674665,362.322,-11.6086,-13.7294,179.011,2.65869,-145.239,492
1569674665,362.322,-11.6086,-13.7294,179.011,2.65869,-145.239,492
1569674665,362.322,-11.6086,-13.7294,179.011,2.65869,-145.239,492
1569674665,362.322,-11.6086,-13.7294,179.011,2.65869,-145.239,492
1569674665,362.322,-11.6086,-13.7294,179.011,2.65869,-145.239,496
1569674665,362.322,-11.6086,-13.7294,179.011,2.65869,-145.239,496
1569674665,362.322,-11.6086,-13.7294,179.011,2.65869,-145.239,496
1569674665,362.322,-11.6086,-13.7294,179.011,2.65869,-145.239,496
1569674665,362.322,-11.6086,-13.7294,179.011,2.65869,-145.239,496
1569674665,362.322,-11.6086,-13.7294,179.011,2.65869,-145.239,496
1569674665,362.322,-11.6086,-13.7294,179.011,2.65869,-145.217,496
1569674665,362.322,-11.6086,-13.7294,179.011,2.65869,-145.217,496
1569674665,362.322,-11.6086,-13.7294,179.011,2.65869,-145.217,496
1569674665,362.322,-11.6086,-13.7294,179.011,2.65869,-145.217,496
1569674665,362.322,-11.6086,-13.7294,179.011,2.65869,-145.217,496
1569674665,362.322,-11.6086,-13.841,179.011,2.63672,-145.217,496
1569674665,362.322,-11.6086,-13.841,179.011,2.63672,-145.217,496
1569674665,362.322,-11.6086,-13.841,179.011,2.63672,-145.217,496
1569674665,362.322,-11.6086,-13.841,179.011,2.63672,-145.217,496
1569674665,362.322,-11.6086,-13.841,179.011,2.63672,-145.217,496
1569674665,362.322,-11.6086,-13.841,179.011,2.63672,-145.217,496
1569674666,362.322,-11.7202,-13.841,178.989,2.63672,-145.217,496
1569674666,362.322,-11.7202,-13.841,178.989,2.63672,-145.217,496
1569674666,362.322,-11.7202,-13.841,178.989,2.63672,-145.239,496
1569674666,362.322,-11.7202,-13.841,178.989,2.63672,-145.239,496
1569674666,362.322,-11.7202,-13.841,178.989,2.63672,-145.239,496
1569674666,362.322,-11.7202,-13.841,178.989,2.63672,-145.239,496
1569674666,362.322,-11.7202,-13.841,178.989,2.63672,-145.239,496
1569674666,362.322,-11.7202,-13.841,178.989,2.63672,-145.239,500
1569674666,362.322,-11.7202,-13.841,178.989,2.63672,-145.239,500
1569674666,362.322,-11.7202,-13.841,178.989,2.63672,-145.239,500
1569674666,362.322,-11.7202,-13.841,178.989,2.63672,-145.239,500
1569674666,362.322,-11.7202,-13.841,178.989,2.63672,-145.239,500
1569674666,362.322,-11.7202,-13.7294,178.967,2.65869,-145.239,500
1569674666,362.322,-11.7202,-13.7294,178.989,2.65869,-145.239,500
1569674666,362.322,-11.7202,-13.7294,178.989,2.65869,-145.239,500
1569674666,362.322,-11.7202,-13.7294,178.989,2.65869,-145.239,500
1569674666,362.322,-11.7202,-13.7294,178.989,2.65869,-145.239,500
1569674666,362.322,-11.7202,-13.7294,178.989,2.65869,-145.239,500
1569674666,362.322,-11.7202,-13.7294,178.989,2.65869,-145.239,500
1569674666,362.322,-11.7202,-13.7294,178.989,2.65869,-145.239,500
1569674666,362.322,-11.7202,-13.7294,178.989,2.65869,-145.239,500
1569674666,362.322,-11.7202,-13.7294,178.989,2.65869,-145.239,500
1569674666,362.322,-11.7202,-13.7294,178.989,2.65869,-145.239,500
1569674666,362.322,-11.7202,-13.7294,178.989,2.65869,-145.239,500
1569674666,362.322,-11.7202,-13.7294,178.989,2.65869,-145.239,500
1569674666,362.322,-11.7202,-13.7294,178.989,2.65869,-145.239,500
1569674666,362.322,-11.7202,-13.7294,178.989,2.65869,-145.239,500
1569674666,362.322,-11.7202,-13.7294,178.989,2.65869,-145.239,500
1569674666,362.322,-11.7202,-13.7294,178.989,2.65869,-145.239,496
1569674666,362.322,-11.7202,-13.7294,178.989,2.65869,-145.239,496
1569674666,362.322,-11.7202,-13.7294,178.989,2.63672,-145.261,496
1569674666,362.322,-11.7202,-13.7294,178.989,2.63672,-145.261,496
1569674666,362.322,-11.7202,-13.841,178.989,2.63672,-145.261,496
1569674666,362.322,-11.7202,-13.841,178.989,2.63672,-145.261,496
1569674666,362.322,-11.7202,-13.841,178.989,2.63672,-145.261,496
1569674666,362.322,-11.7202,-13.841,178.989,2.63672,-145.261,496
1569674666,362.322,-11.7202,-13.841,178.989,2.63672,-145.261,496
1569674666,362.322,-11.7202,-13.841,178.989,2.63672,-145.261,496
1569674666,362.322,-11.7202,-13.841,178.989,2.63672,-145.261,496
1569674666,362.322,-11.7202,-13.841,178.989,2.63672,-145.261,492
1569674666,362.322,-11.7202,-13.841,178.989,2.63672,-145.261,492
1569674666,362.322,-11.7202,-13.841,179.011,2.63672,-145.261,492
1569674666,362.322,-11.7202,-13.841,179.011,2.63672,-145.261,492
1569674666,362.322,-11.7202,-13.841,179.011,2.63672,-145.261,492
1569674666,362.322,-11.7202,-13.841,179.011,2.63672,-145.261,492
1569674666,362.322,-11.7202,-13.841,179.011,2.63672,-145.261,488
1569674666,362.322,-11.7202,-13.841,179.011,2.63672,-145.261,488
1569674666,362.322,-11.6086,-13.841,179.011,2.63672,-145.261,488
1569674666,362.322,-11.6086,-13.841,179.011,2.63672,-145.261,488
1569674666,362.322,-11.6086,-13.841,179.011,2.63672,-145.261,488
1569674666,362.322,-11.6086,-13.841,179.011,2.63672,-145.239,488
1569674666,362.322,-11.6086,-13.841,179.011,2.63672,-145.239,488
1569674666,362.21,-11.6086,-13.841,179.011,2.63672,-145.239,488
1569674666,362.21,-11.6086,-13.841,179.011,2.63672,-145.239,488
1569674666,362.21,-11.6086,-13.841,179.011,2.63672,-145.239,488
1569674666,362.21,-11.6086,-13.841,179.011,2.63672,-145.239,488
1569674666,362.21,-11.6086,-13.841,179.011,2.63672,-145.239,492
1569674666,362.21,-11.6086,-13.841,179.011,2.63672,-145.239,492
1569674666,362.21,-11.6086,-13.841,179.011,2.63672,-145.239,492
1569674666,362.21,-11.6086,-13.841,179.011,2.63672,-145.239,492
1569674666,362.21,-11.6086,-13.841,179.011,2.63672,-145.239,492
1569674666,362.21,-11.6086,-13.841,179.011,2.63672,-145.239,496
1569674666,362.322,-11.6086,-13.841,179.011,2.65869,-145.239,496
1569674666,362.322,-11.6086,-13.841,179.011,2.65869,-145.239,496
1569674666,362.322,-11.6086,-13.841,179.011,2.65869,-145.239,496
1569674666,362.322,-11.6086,-13.841,179.011,2.65869,-145.239,496
1569674666,362.322,-11.6086,-13.841,179.011,2.65869,-145.239,500
1569674666,362.322,-11.6086,-13.841,179.011,2.65869,-145.239,500
1569674666,362.322,-11.6086,-13.841,179.011,2.65869,-145.239,500
1569674666,362.322,-11.6086,-13.841,179.011,2.63672,-145.239,500
1569674666,362.322,-11.6086,-13.841,179.011,2.63672,-145.239,500
1569674666,362.322,-11.6086,-13.841,179.011,2.63672,-145.239,500
1569674666,362.322,-11.6086,-13.841,179.011,2.63672,-145.239,496
1569674666,362.322,-11.6086,-13.841,179.011,2.63672,-145.239,496
1569674666,362.322,-11.6086,-13.841,179.011,2.63672,-145.239,496
1569674666,362.322,-11.6086,-13.841,179.011,2.63672,-145.239,496
1569674666,362.322,-11.6086,-13.841,179.011,2.63672,-145.239,496
1569674666,362.322,-11.6086,-13.841,179.011,2.63672,-145.239,496
1569674666,362.322,-11.6086,-13.841,179.011,2.63672,-145.239,496
1569674666,362.322,-11.6086,-13.7294,179.011,2.63672,-145.239,496
1569674666,362.322,-11.6086,-13.7294,179.011,2.65869,-145.239,496
1569674666,362.322,-11.6086,-13.7294,179.011,2.65869,-145.239,496
1569674666,362.322,-11.6086,-13.7294,179.011,2.65869,-145.239,496
1569674666,362.322,-11.6086,-13.7294,179.011,2.65869,-145.239,496
1569674666,362.322,-11.6086,-13.7294,179.011,2.65869,-145.239,496
1569674666,362.322,-11.6086,-13.7294,179.011,2.65869,-145.239,496
1569674666,362.322,-11.6086,-13.7294,179.011,2.65869,-145.239,496
1569674666,362.322,-11.7202,-13.7294,179.011,2.68066,-145.239,496
1569674666,362.322,-11.7202,-13.7294,179.011,2.68066,-145.239,496
1569674666,362.322,-11.7202,-13.7294,179.011,2.68066,-145.239,496
1569674666,362.322,-11.7202,-13.7294,179.011,2.68066,-145.239,496
1569674666,362.322,-11.7202,-13.7294,179.011,2.68066,-145.239,496
1569674666,362.322,-11.7202,-13.7294,178.989,2.68066,-145.239,500
1569674666,362.322,-11.7202,-13.7294,178.989,2.65869,-145.239,500
1569674666,362.322,-11.7202,-13.7294,178.989,2.65869,-145.239,500
1569674666,362.322,-11.7202,-13.7294,178.989,2.65869,-145.239,500
1569674666,362.322,-11.7202,-13.7294,178.989,2.65869,-145.239,500
1569674666,362.322,-11.6086,-13.7294,178.989,2.65869,-145.239,500
1569674666,362.322,-11.6086,-13.7294,179.011,2.65869,-145.239,500
1569674667,362.322,-11.6086,-13.7294,179.011,2.65869,-145.239,500
1569674667,362.322,-11.6086,-13.7294,179.011,2.65869,-145.239,500
1569674667,362.322,-11.6086,-13.7294,179.011,2.65869,-145.239,500
1569674667,362.322,-11.6086,-13.7294,179.011,2.65869,-145.239,500
1569674667,362.322,-11.6086,-13.7294,179.011,2.65869,-145.239,500
1569674667,362.322,-11.6086,-13.7294,179.011,2.65869,-145.239,500
1569674667,362.322,-11.6086,-13.7294,179.011,2.65869,-145.239,500
1569674667,362.322,-11.6086,-13.7294,179.011,2.65869,-145.239,500
1569674667,362.322,-11.7202,-13.7294,178.989,2.65869,-145.239,500
1569674667,362.322,-11.7202,-13.7294,178.989,2.65869,-145.239,496
1569674667,362.322,-11.7202,-13.7294,178.989,2.65869,-145.239,496
1569674667,362.322,-11.7202,-13.7294,178.989,2.68066,-145.239,496
1569674667,362.322,-11.7202,-13.7294,178.989,2.68066,-145.239,496
1569674667,362.322,-11.7202,-13.7294,178.989,2.68066,-145.239,496
1569674667,362.322,-11.7202,-13.7294,178.989,2.68066,-145.239,496
1569674667,362.322,-11.7202,-13.7294,178.989,2.68066,-145.239,496
1569674667,362.322,-11.7202,-13.7294,178.989,2.68066,-145.239,496
1569674667,362.322,-11.7202,-13.7294,178.989,2.68066,-145.239,496
1569674667,362.322,-11.7202,-13.7294,178.989,2.68066,-145.217,496
1569674667,362.322,-11.7202,-13.7294,178.989,2.68066,-145.217,496
1569674667,362.322,-11.7202,-13.7294,178.989,2.68066,-145.217,496
1569674667,362.322,-11.7202,-13.7294,178.989,2.68066,-145.217,496
1569674667,362.322,-11.7202,-13.7294,178.989,2.65869,-145.239,496
1569674667,362.322,-11.7202,-13.7294,179.011,2.65869,-145.239,496
1569674667,362.322,-11.7202,-13.7294,179.011,2.65869,-145.239,496
1569674667,362.322,-11.7202,-13.7294,179.011,2.65869,-145.239,496
1569674667,362.322,-11.7202,-13.7294,179.011,2.65869,-145.239,496
1569674667,362.322,-11.6086,-13.7294,179.011,2.65869,-145.239,496
1569674667,362.322,-11.6086,-13.7294,179.011,2.65869,-145.239,496
1569674667,362.322,-11.6086,-13.7294,179.011,2.65869,-145.239,496
1569674667,362.322,-11.6086,-13.7294,179.011,2.65869,-145.239,496
1569674667,362.322,-11.6086,-13.7294,179.011,2.65869,-145.239,496
1569674667,362.322,-11.6086,-13.7294,179.011,2.65869,-145.239,496
1569674667,362.322,-11.6086,-13.7294,179.011,2.65869,-145.239,496
1569674667,362.322,-11.6086,-13.7294,179.011,2.65869,-145.239,496
1569674667,362.322,-11.7202,-13.7294,179.011,2.65869,-145.239,496
1569674667,362.322,-11.7202,-13.7294,178.989,2.65869,-145.239,496
1569674667,362.322,-11.7202,-13.7294,178.989,2.65869,-145.239,496
1569674667,362.322,-11.7202,-13.7294,178.989,2.65869,-145.239,496
1569674667,362.322,-11.7202,-13.7294,178.989,2.65869,-145.239,496
1569674667,362.322,-11.7202,-13.7294,178.989,2.65869,-145.239,496
1569674667,362.322,-11.7202,-13.7294,178.989,2.65869,-145.239,496
1569674667,362.322,-11.7202,-13.7294,178.989,2.65869,-145.239,496
1569674667,362.322,-11.7202,-13.7294,178.989,2.65869,-145.239,492
1569674667,362.322,-11.7202,-13.7294,178.989,2.65869,-145.239,492
1569674667,362.322,-11.7202,-13.7294,178.989,2.65869,-145.239,492
1569674667,362.322,-11.7202,-13.7294,178.989,2.65869,-145.239,492
1569674667,362.322,-11.7202,-13.7294,178.989,2.65869,-145.239,492
1569674667,362.322,-11.7202,-13.7294,178.989,2.65869,-145.239,492
1569674667,362.322,-11.7202,-13.7294,178.989,2.63672,-145.239,492
1569674667,362.322,-11.7202,-13.841,178.989,2.63672,-145.239,492
1569674667,362.322,-11.7202,-13.841,179.011,2.63672,-145.239,492
1569674667,362.322,-11.7202,-13.841,179.011,2.63672,-145.239,492
1569674667,362.322,-11.7202,-13.841,179.011,2.63672,-145.239,492
1569674667,362.322,-11.7202,-13.841,178.989,2.63672,-145.239,492
1569674667,362.322,-11.7202,-13.841,178.989,2.63672,-145.239,492
1569674667,362.322,-11.7202,-13.841,178.989,2.63672,-145.239,492
1569674667,362.322,-11.7202,-13.841,178.989,2.63672,-145.239,492
1569674667,362.322,-11.7202,-13.841,178.989,2.63672,-145.239,492
1569674667,362.322,-11.7202,-13.841,178.989,2.63672,-145.239,492
1569674667,362.322,-11.7202,-13.841,178.989,2.63672,-145.239,492
1569674667,362.322,-11.7202,-13.841,178.989,2.63672,-145.239,492
1569674667,362.322,-11.7202,-13.841,178.989,2.63672,-145.239,492
1569674667,362.322,-11.7202,-13.841,178.989,2.65869,-145.239,492
1569674667,362.322,-11.7202,-13.7294,178.989,2.65869,-145.239,492
1569674667,362.322,-11.7202,-13.7294,178.989,2.65869,-145.239,492
1569674667,362.322,-11.7202,-13.7294,178.989,2.65869,-145.239,492
1569674667,362.322,-11.7202,-13.7294,178.989,2.65869,-145.239,492
1569674667,362.322,-11.7202,-13.7294,178.989,2.65869,-145.239,492
1569674667,362.322,-11.7202,-13.7294,178.989,2.65869,-145.239,492
1569674667,362.322,-11.7202,-13.7294,178.989,2.65869,-145.217,492
1569674667,362.322,-11.7202,-13.7294,178.989,2.65869,-145.217,492
1569674667,362.322,-11.7202,-13.7294,178.989,2.65869,-145.217,492
1569674667,362.322,-11.7202,-13.7294,178.989,2.65869,-145.217,492
1569674667,362.322,-11.7202,-13.7294,178.989,2.65869,-145.217,492
1569674667,362.322,-11.7202,-13.7294,178.989,2.65869,-145.217,492
1569674667,362.322,-11.7202,-13.7294,178.989,2.65869,-145.217,492
1569674667,362.322,-11.7202,-13.7294,178.989,2.65869,-145.217,492
1569674667,362.322,-11.7202,-13.7294,179.011,2.65869,-145.217,492
1569674667,362.322,-11.6086,-13.7294,179.011,2.65869,-145.217,492
1569674667,362.322,-11.6086,-13.7294,179.011,2.65869,-145.217,492
1569674667,362.322,-11.6086,-13.7294,179.011,2.65869,-145.217,492
1569674667,362.322,-11.6086,-13.7294,179.011,2.65869,-145.217,492
1569674667,362.322,-11.6086,-13.7294,179.011,2.65869,-145.217,492
1569674667,362.322,-11.6086,-13.7294,179.011,2.65869,-145.217,496
1569674667,362.322,-11.6086,-13.7294,179.011,2.65869,-145.217,496
1569674667,362.322,-11.6086,-13.7294,179.011,2.65869,-145.217,496
1569674667,362.322,-11.6086,-13.7294,179.011,2.65869,-145.217,496
1569674667,362.322,-11.6086,-13.7294,179.011,2.65869,-145.217,496
1569674667,362.322,-11.6086,-13.7294,179.011,2.65869,-145.217,496
1569674667,362.322,-11.6086,-13.7294,179.011,2.65869,-145.217,496
1569674667,362.322,-11.6086,-13.7294,179.011,2.65869,-145.217,496
1569674667,362.322,-11.6086,-13.7294,179.011,2.65869,-145.217,496
1569674667,362.322,-11.6086,-13.7294,179.011,2.65869,-145.217,496
1569674667,362.322,-11.6086,-13.7294,179.011,2.65869,-145.217,496
1569674667,362.322,-11.6086,-13.7294,179.011,2.65869,-145.217,496
1569674667,362.322,-11.6086,-13.7294,179.011,2.65869,-145.217,496
1569674667,362.322,-11.6086,-13.7294,179.011,2.65869,-145.217,496
1569674667,362.322,-11.6086,-13.7294,179.011,2.65869,-145.239,496
1569674667,362.322,-11.6086,-13.7294,179.011,2.65869,-145.239,496
1569674668,362.322,-11.6086,-13.7294,179.011,2.65869,-145.239,500
1569674668,362.322,-11.6086,-13.7294,179.011,2.65869,-145.239,500
1569674668,362.322,-11.6086,-13.7294,179.011,2.65869,-145.239,500
1569674668,362.322,-11.6086,-13.7294,179.011,2.65869,-145.239,500
1569674668,362.322,-11.6086,-13.7294,179.011,2.65869,-145.239,500
1569674668,362.322,-11.6086,-13.7294,179.011,2.65869,-145.239,500
1569674668,362.322,-11.6086,-13.7294,179.011,2.65869,-145.239,500
1569674668,362.322,-11.6086,-13.7294,179.011,2.65869,-145.261,500
1569674668,362.322,-11.6086,-13.7294,179.011,2.65869,-145.261,504
1569674668,362.322,-11.6086,-13.7294,179.011,2.65869,-145.261,504
1569674668,362.322,-11.6086,-13.7294,179.011,2.65869,-145.261,504
1569674668,362.322,-11.6086,-13.7294,179.011,2.65869,-145.239,504
1569674668,362.322,-11.6086,-13.7294,179.011,2.65869,-145.239,504
1569674668,362.322,-11.6086,-13.7294,179.011,2.65869,-145.239,504
1569674668,362.322,-11.7202,-13.7294,179.011,2.65869,-145.239,504
1569674668,362.322,-11.7202,-13.7294,179.011,2.65869,-145.239,500
1569674668,362.322,-11.7202,-13.7294,179.011,2.65869,-145.239,500
1569674668,362.322,-11.7202,-13.7294,179.011,2.65869,-145.239,500
1569674668,362.322,-11.7202,-13.7294,179.011,2.65869,-145.239,500
1569674668,362.322,-11.7202,-13.7294,179.011,2.65869,-145.239,500
1569674668,362.322,-11.7202,-13.7294,179.011,2.65869,-145.239,500
1569674668,362.322,-11.7202,-13.7294,179.011,2.65869,-145.239,496
1569674668,362.322,-11.7202,-13.7294,179.011,2.65869,-145.239,496
1569674668,362.322,-11.7202,-13.7294,179.011,2.65869,-145.239,496
1569674668,362.322,-11.7202,-13.7294,179.011,2.65869,-145.239,496
1569674668,362.322,-11.7202,-13.7294,179.011,2.65869,-145.239,496
1569674668,362.322,-11.7202,-13.7294,179.011,2.65869,-145.239,496
1569674668,362.322,-11.7202,-13.7294,179.011,2.65869,-145.239,496
1569674668,362.322,-11.7202,-13.7294,179.011,2.65869,-145.239,496
1569674668,362.322,-11.7202,-13.7294,179.011,2.65869,-145.239,496
1569674668,362.322,-11.7202,-13.7294,179.011,2.65869,-145.261,496
1569674668,362.322,-11.7202,-13.7294,179.011,2.65869,-145.261,500
1569674668,362.322,-11.7202,-13.7294,179.011,2.65869,-145.261,500
1569674668,362.322,-11.7202,-13.7294,178.989,2.65869,-145.261,500
1569674668,362.322,-11.7202,-13.7294,178.989,2.65869,-145.261,500
1569674668,362.322,-11.7202,-13.7294,178.989,2.65869,-145.261,504
1569674668,362.322,-11.7202,-13.7294,178.989,2.65869,-145.261,504
1569674668,362.322,-11.7202,-13.7294,178.989,2.65869,-145.261,504
1569674668,362.322,-11.7202,-13.7294,178.989,2.68066,-145.261,504
1569674668,362.322,-11.7202,-13.7294,178.989,2.68066,-145.261,508
1569674668,362.322,-11.7202,-13.7294,178.989,2.68066,-145.261,508
1569674668,362.322,-11.7202,-13.7294,178.989,2.68066,-145.239,508
1569674668,362.322,-11.7202,-13.7294,178.989,2.68066,-145.239,508
1569674668,362.322,-11.7202,-13.7294,178.989,2.68066,-145.239,508
1569674668,362.322,-11.7202,-13.7294,178.989,2.68066,-145.261,508
1569674668,362.322,-11.7202,-13.7294,179.011,2.68066,-145.261,508
1569674668,362.322,-11.7202,-13.7294,179.011,2.68066,-145.261,508
1569674668,362.322,-11.7202,-13.7294,179.011,2.68066,-145.261,508
1569674668,362.322,-11.6086,-13.7294,179.011,2.68066,-145.261,508
1569674668,362.322,-11.6086,-13.7294,179.011,2.68066,-145.261,508
1569674668,362.322,-11.6086,-13.7294,179.011,2.68066,-145.261,508
1569674668,362.322,-11.6086,-13.7294,179.011,2.68066,-145.261,508
1569674668,362.322,-11.6086,-13.7294,179.011,2.68066,-145.261,508
1569674668,362.322,-11.6086,-13.7294,179.011,2.68066,-145.261,508
1569674668,362.322,-11.6086,-13.7294,179.011,2.68066,-145.261,508
1569674668,362.322,-11.6086,-13.7294,179.011,2.68066,-145.239,508
1569674668,362.322,-11.6086,-13.7294,179.011,2.68066,-145.239,508
1569674668,362.322,-11.6086,-13.7294,179.011,2.68066,-145.239,508
1569674668,362.322,-11.6086,-13.7294,179.011,2.68066,-145.239,508
1569674668,362.322,-11.6086,-13.7294,179.033,2.68066,-145.239,508
1569674668,362.322,-11.6086,-13.7294,179.033,2.68066,-145.239,512
1569674668,362.322,-11.6086,-13.7294,179.033,2.68066,-145.239,512
1569674668,362.322,-11.6086,-13.7294,179.033,2.68066,-145.239,512
1569674668,362.322,-11.6086,-13.7294,179.033,2.68066,-145.239,512
1569674668,362.322,-11.6086,-13.7294,179.033,2.68066,-145.239,512
1569674668,362.322,-11.6086,-13.7294,179.033,2.65869,-145.239,512
1569674668,362.322,-11.6086,-13.7294,179.033,2.65869,-145.239,512
1569674668,362.322,-11.6086,-13.7294,179.033,2.65869,-145.239,512
1569674668,362.322,-11.6086,-13.7294,179.011,2.65869,-145.239,512
1569674668,362.322,-11.6086,-13.7294,179.011,2.65869,-145.239,512
1569674668,362.322,-11.6086,-13.7294,179.011,2.65869,-145.239,512
1569674668,362.322,-11.6086,-13.7294,179.011,2.65869,-145.239,512
1569674668,362.322,-11.6086,-13.7294,179.011,2.65869,-145.239,508
1569674668,362.322,-11.6086,-13.7294,179.011,2.65869,-145.239,508
1569674668,362.322,-11.6086,-13.7294,179.011,2.65869,-145.239,508
1569674668,362.322,-11.6086,-13.7294,179.011,2.65869,-145.239,508
1569674668,362.322,-11.6086,-13.7294,179.011,2.65869,-145.239,508
1569674668,362.322,-11.6086,-13.7294,179.011,2.65869,-145.239,508
1569674668,362.322,-11.6086,-13.7294,179.011,2.65869,-145.239,504
1569674668,362.322,-11.6086,-13.841,179.011,2.63672,-145.239,504
1569674668,362.322,-11.6086,-13.841,179.011,2.63672,-145.261,504
1569674668,362.322,-11.6086,-13.841,179.011,2.63672,-145.261,504
1569674668,362.322,-11.6086,-13.841,179.011,2.63672,-145.261,504
1569674668,362.322,-11.7202,-13.841,179.011,2.63672,-145.261,504
1569674668,362.322,-11.7202,-13.841,179.011,2.63672,-145.261,504
1569674668,362.322,-11.7202,-13.841,179.011,2.63672,-145.261,504
1569674668,362.322,-11.7202,-13.841,179.011,2.63672,-145.261,504
1569674668,362.322,-11.7202,-13.841,179.011,2.63672,-145.261,504
1569674668,362.322,-11.7202,-13.841,179.011,2.63672,-145.261,504
1569674668,362.322,-11.7202,-13.841,179.011,2.63672,-145.261,504
1569674668,362.322,-11.7202,-13.841,179.011,2.63672,-145.239,504
1569674668,362.322,-11.7202,-13.841,179.011,2.63672,-145.239,504
1569674668,362.322,-11.7202,-13.841,179.011,2.63672,-145.239,504
1569674668,362.322,-11.7202,-13.841,179.011,2.63672,-145.239,504
1569674668,362.322,-11.7202,-13.841,179.011,2.63672,-145.239,504
1569674668,362.322,-11.7202,-13.841,179.011,2.63672,-145.239,504
1569674668,362.322,-11.7202,-13.841,179.011,2.63672,-145.239,504
1569674668,362.322,-11.7202,-13.841,179.011,2.63672,-145.239,504
1569674674,323.924,28.6866,-14.8456,178.748,2.17529,-145.283,428
1569674674,323.924,28.6866,-14.8456,178.748,2.19727,-145.283,428
1569674674,323.924,28.6866,-14.8456,178.748,2.19727,-145.283,428
1569674674,323.924,28.6866,-14.734,178.748,2.19727,-145.283,428
1569674674,323.924,28.6866,-14.734,178.748,2.19727,-145.283,428
1569674674,323.924,28.6866,-14.734,178.77,2.19727,-145.283,428
1569674674,324.036,28.6866,-14.734,178.77,2.19727,-145.283,428
1569674674,324.036,28.6866,-14.734,178.77,2.19727,-145.283,428
1569674674,324.036,28.6866,-14.734,178.77,2.19727,-145.283,428
1569674674,324.036,28.6866,-14.734,178.77,2.19727,-145.283,424
1569674674,324.036,28.6866,-14.734,178.77,2.19727,-145.283,424
1569674674,324.036,28.6866,-14.8456,178.77,2.19727,-145.283,424
1569674674,324.036,28.6866,-14.8456,178.77,2.19727,-145.283,424
1569674674,324.036,28.6866,-14.8456,178.77,2.19727,-145.283,424
1569674674,324.036,28.6866,-14.8456,178.77,2.19727,-145.283,424
1569674674,324.036,28.6866,-14.8456,178.77,2.19727,-145.283,424
1569674674,324.036,28.6866,-14.8456,178.77,2.19727,-145.283,420
1569674674,324.036,28.6866,-14.8456,178.77,2.19727,-145.283,420
1569674674,324.036,28.6866,-14.8456,178.77,2.17529,-145.283,420
1569674674,324.036,28.6866,-14.8456,178.77,2.17529,-145.283,420
1569674674,324.036,28.6866,-14.8456,178.77,2.17529,-145.283,420
1569674674,324.036,28.6866,-14.8456,178.77,2.17529,-145.283,420
1569674674,324.036,28.6866,-14.8456,178.77,2.17529,-145.283,420
1569674674,324.036,28.6866,-14.8456,178.77,2.17529,-145.283,420
1569674674,324.036,28.6866,-14.8456,178.77,2.17529,-145.283,424
1569674674,324.036,28.6866,-14.8456,178.77,2.17529,-145.283,424
1569674674,323.924,28.6866,-14.8456,178.77,2.17529,-145.283,424
1569674674,324.036,28.6866,-14.8456,178.77,2.17529,-145.283,424
1569674674,324.036,28.6866,-14.8456,178.77,2.17529,-145.283,424
1569674674,324.036,28.6866,-14.8456,178.77,2.17529,-145.283,424
1569674674,324.036,28.6866,-14.8456,178.748,2.17529,-145.283,424
1569674674,324.036,28.6866,-14.8456,178.748,2.17529,-145.283,424
1569674674,324.036,28.6866,-14.8456,178.748,2.17529,-145.283,424
1569674674,324.036,28.6866,-14.8456,178.748,2.17529,-145.283,424
1569674674,324.036,28.6866,-14.8456,178.748,2.17529,-145.283,424
1569674674,324.036,28.6866,-14.8456,178.748,2.17529,-145.283,428
1569674674,324.036,28.6866,-14.8456,178.748,2.17529,-145.283,428
1569674674,324.036,28.6866,-14.8456,178.77,2.17529,-145.283,428
1569674674,324.036,28.6866,-14.8456,178.77,2.17529,-145.283,428
1569674674,324.036,28.6866,-14.8456,178.77,2.17529,-145.283,428
1569674674,324.036,28.6866,-14.8456,178.77,2.17529,-145.283,428
1569674674,324.036,28.6866,-14.8456,178.77,2.17529,-145.283,428
1569674674,324.036,28.6866,-14.8456,178.77,2.17529,-145.283,428
1569674674,324.036,28.6866,-14.8456,178.77,2.17529,-145.283,428
1569674674,324.036,28.6866,-14.8456,178.77,2.17529,-145.283,428
1569674674,324.036,28.6866,-14.8456,178.77,2.17529,-145.283,428
1569674674,324.036,28.6866,-14.8456,178.77,2.17529,-145.283,428
1569674674,324.036,28.6866,-14.8456,178.77,2.17529,-145.283,428
1569674674,324.036,28.6866,-14.8456,178.77,2.17529,-145.283,428
1569674674,324.036,28.6866,-14.8456,178.77,2.17529,-145.305,428
1569674674,324.036,28.6866,-14.8456,178.77,2.17529,-145.305,428
1569674674,324.036,28.6866,-14.8456,178.77,2.17529,-145.305,428
1569674674,324.036,28.6866,-14.8456,178.77,2.17529,-145.305,428
1569674674,324.036,28.6866,-14.8456,178.77,2.17529,-145.305,428
1569674674,324.036,28.6866,-14.8456,178.77,2.17529,-145.305,424
1569674674,324.036,28.7982,-14.8456,178.77,2.17529,-145.305,424
1569674674,324.036,28.7982,-14.8456,178.77,2.17529,-145.305,424
1569674674,324.036,28.7982,-14.8456,178.77,2.17529,-145.305,424
1569674674,324.036,28.7982,-14.8456,178.77,2.17529,-145.305,424
1569674674,324.036,28.7982,-14.8456,178.77,2.17529,-145.305,424
1569674674,324.036,28.7982,-14.8456,178.77,2.17529,-145.305,424
1569674674,324.036,28.7982,-14.8456,178.77,2.17529,-145.305,424
1569674674,324.036,28.6866,-14.8456,178.77,2.17529,-145.305,424
1569674674,324.036,28.6866,-14.8456,178.77,2.17529,-145.283,424
1569674674,324.036,28.6866,-14.8456,178.77,2.17529,-145.283,424
1569674674,324.036,28.6866,-14.8456,178.77,2.17529,-145.283,424
1569674674,324.036,28.6866,-14.8456,178.77,2.17529,-145.283,424
1569674674,324.036,28.6866,-14.8456,178.77,2.17529,-145.283,424
1569674674,324.036,28.6866,-14.8456,178.77,2.17529,-145.283,424
1569674674,324.036,28.6866,-14.8456,178.77,2.17529,-145.283,424
1569674674,324.036,28.6866,-14.8456,178.77,2.17529,-145.283,424
1569674674,324.036,28.6866,-14.8456,178.77,2.17529,-145.283,424
1569674674,324.036,28.6866,-14.8456,178.77,2.17529,-145.283,424
1569674674,324.036,28.6866,-14.8456,178.77,2.17529,-145.283,424
1569674674,323.924,28.6866,-14.8456,178.77,2.17529,-145.283,424
1569674674,323.924,28.6866,-14.8456,178.77,2.17529,-145.283,424
1569674674,323.924,28.6866,-14.8456,178.77,2.17529,-145.283,424
1569674674,323.924,28.6866,-14.8456,178.748,2.17529,-145.283,424
1569674674,323.924,28.6866,-14.8456,178.748,2.17529,-145.283,424
1569674674,323.924,28.6866,-14.8456,178.748,2.17529,-145.283,424
1569674674,323.924,28.6866,-14.8456,178.748,2.17529,-145.283,424
1569674674,323.924,28.6866,-14.8456,178.748,2.17529,-145.283,424
1569674675,323.924,28.6866,-14.8456,178.748,2.17529,-145.283,424
1569674675,323.924,28.6866,-14.8456,178.748,2.17529,-145.283,424
1569674675,323.924,28.6866,-14.8456,178.748,2.17529,-145.283,424
1569674675,323.924,28.6866,-14.8456,178.748,2.17529,-145.283,424
1569674675,323.924,28.6866,-14.8456,178.748,2.17529,-145.283,424
1569674675,323.924,28.6866,-14.8456,178.748,2.17529,-145.283,424
1569674675,323.924,28.6866,-14.8456,178.77,2.17529,-145.283,424
1569674675,323.924,28.6866,-14.8456,178.77,2.17529,-145.283,424
1569674675,323.924,28.6866,-14.8456,178.77,2.17529,-145.283,424
1569674675,323.924,28.6866,-14.8456,178.77,2.17529,-145.283,424
1569674675,323.924,28.6866,-14.8456,178.77,2.17529,-145.283,424
1569674675,323.924,28.6866,-14.8456,178.77,2.17529,-145.283,424
1569674675,323.924,28.6866,-14.8456,178.77,2.17529,-145.283,424
1569674675,323.924,28.6866,-14.8456,178.77,2.17529,-145.283,424
1569674675,323.924,28.6866,-14.8456,178.77,2.17529,-145.283,424
1569674675,323.924,28.6866,-14.8456,178.77,2.17529,-145.283,424
1569674675,323.924,28.6866,-14.8456,178.77,2.17529,-145.283,424
1569674675,323.924,28.6866,-14.8456,178.77,2.19727,-145.283,424
1569674675,323.924,28.6866,-14.8456,178.77,2.19727,-145.283,424
1569674675,323.924,28.6866,-14.8456,178.77,2.19727,-145.283,424
1569674675,323.924,28.6866,-14.8456,178.77,2.19727,-145.283,424
1569674675,323.924,28.7982,-14.8456,178.77,2.19727,-145.283,424
1569674675,323.924,28.6866,-14.8456,178.77,2.19727,-145.283,424
1569674675,323.924,28.6866,-14.8456,178.77,2.19727,-145.283,424
1569674675,323.924,28.6866,-14.8456,178.77,2.19727,-145.283,424
1569674675,323.924,28.6866,-14.8456,178.77,2.19727,-145.283,424
1569674675,323.924,28.6866,-14.8456,178.77,2.19727,-145.283,424
1569674675,323.924,28.6866,-14.8456,178.77,2.19727,-145.283,424
1569674675,323.924,28.6866,-14.8456,178.77,2.19727,-145.283,424
1569674675,323.924,28.6866,-14.8456,178.77,2.19727,-145.283,424
1569674675,323.924,28.6866,-14.8456,178.77,2.19727,-145.283,424
1569674675,323.924,28.6866,-14.8456,178.77,2.19727,-145.283,424
1569674675,323.924,28.6866,-14.8456,178.77,2.19727,-145.283,424
1569674675,323.924,28.7982,-14.8456,178.77,2.19727,-145.283,424
1569674675,323.924,28.7982,-14.8456,178.77,2.19727,-145.305,424
1569674675,323.924,28.7982,-14.8456,178.77,2.19727,-145.305,424
1569674675,323.924,28.7982,-14.8456,178.77,2.19727,-145.305,424
1569674675,323.924,28.7982,-14.8456,178.77,2.19727,-145.305,424
1569674675,323.924,28.7982,-14.8456,178.77,2.19727,-145.305,424
1569674675,323.924,28.7982,-14.734,178.77,2.19727,-145.305,424
1569674675,323.924,28.7982,-14.734,178.77,2.19727,-145.305,424
1569674675,323.924,28.7982,-14.734,178.77,2.19727,-145.305,424
1569674675,323.924,28.6866,-14.734,178.77,2.19727,-145.283,424
1569674675,323.924,28.6866,-14.734,178.77,2.19727,-145.283,424
1569674675,323.924,28.6866,-14.734,178.77,2.19727,-145.283,424
1569674675,323.924,28.6866,-14.734,178.77,2.19727,-145.283,424
1569674675,323.924,28.6866,-14.734,178.77,2.19727,-145.283,424
1569674675,323.924,28.6866,-14.734,178.77,2.19727,-145.283,424
1569674675,323.924,28.6866,-14.734,178.77,2.19727,-145.283,424
1569674675,323.924,28.6866,-14.734,178.77,2.19727,-145.283,424
1569674675,323.924,28.6866,-14.734,178.748,2.19727,-145.283,424
1569674675,323.924,28.6866,-14.734,178.748,2.19727,-145.283,424
1569674675,323.924,28.6866,-14.734,178.748,2.19727,-145.283,424
1569674675,323.924,28.6866,-14.734,178.748,2.19727,-145.283,424
1569674675,323.924,28.6866,-14.734,178.748,2.19727,-145.283,424
1569674675,323.924,28.6866,-14.734,178.748,2.19727,-145.283,424
1569674675,323.924,28.6866,-14.734,178.748,2.19727,-145.283,424
1569674675,323.924,28.6866,-14.734,178.748,2.19727,-145.283,424
1569674675,323.924,28.6866,-14.8456,178.77,2.19727,-145.283,424
1569674675,323.924,28.6866,-14.8456,178.77,2.19727,-145.283,424
1569674675,323.924,28.6866,-14.8456,178.77,2.19727,-145.283,424
1569674675,323.924,28.6866,-14.8456,178.77,2.19727,-145.283,424
1569674675,323.924,28.6866,-14.8456,178.77,2.19727,-145.283,424
1569674675,323.924,28.6866,-14.8456,178.77,2.19727,-145.283,424
1569674675,323.924,28.7982,-14.8456,178.77,2.19727,-145.283,424
1569674675,323.924,28.7982,-14.8456,178.77,2.19727,-145.283,424
1569674675,323.924,28.7982,-14.8456,178.77,2.19727,-145.283,424
1569674675,323.924,28.7982,-14.8456,178.77,2.19727,-145.283,424
1569674675,323.924,28.7982,-14.8456,178.77,2.19727,-145.283,424
1569674675,323.924,28.7982,-14.8456,178.77,2.19727,-145.283,424
1569674675,323.924,28.7982,-14.8456,178.77,2.19727,-145.283,424
1569674675,323.924,28.7982,-14.8456,178.77,2.19727,-145.283,424
1569674675,323.924,28.7982,-14.734,178.77,2.19727,-145.283,424
1569674675,324.036,28.7982,-14.734,178.77,2.19727,-145.305,424
1569674675,324.036,28.7982,-14.734,178.77,2.19727,-145.283,424
1569674675,324.036,28.7982,-14.734,178.77,2.19727,-145.283,424
1569674675,324.036,28.7982,-14.734,178.77,2.19727,-145.283,424
1569674675,324.036,28.7982,-14.734,178.77,2.19727,-145.283,424
1569674675,324.036,28.7982,-14.734,178.77,2.19727,-145.283,424
1569674675,324.036,28.7982,-14.734,178.77,2.19727,-145.283,420
1569674675,324.036,28.7982,-14.8456,178.77,2.19727,-145.283,420
1569674675,324.036,28.7982,-14.8456,178.77,2.19727,-145.283,420
1569674675,324.036,28.7982,-14.8456,178.77,2.19727,-145.283,420
1569674675,324.036,28.7982,-14.8456,178.77,2.19727,-145.283,420
1569674675,324.036,28.7982,-14.8456,178.77,2.19727,-145.283,420
1569674675,324.036,28.6866,-14.8456,178.77,2.19727,-145.283,420
1569674675,324.036,28.6866,-14.8456,178.77,2.19727,-145.283,420
1569674675,324.036,28.6866,-14.8456,178.77,2.19727,-145.283,420
1569674675,324.036,28.6866,-14.8456,178.77,2.19727,-145.283,420
1569674675,324.036,28.6866,-14.8456,178.77,2.17529,-145.305,420
1569674675,324.036,28.6866,-14.8456,178.77,2.17529,-145.305,416
1569674675,324.036,28.6866,-14.8456,178.77,2.17529,-145.305,416
1569674675,324.036,28.6866,-14.8456,178.77,2.17529,-145.305,416
1569674675,324.036,28.6866,-14.8456,178.748,2.17529,-145.305,416
1569674675,324.036,28.6866,-14.8456,178.748,2.17529,-145.305,416
1569674675,324.036,28.6866,-14.8456,178.748,2.17529,-145.305,416
1569674675,324.036,28.6866,-14.8456,178.748,2.17529,-145.305,416
1569674675,324.036,28.6866,-14.8456,178.748,2.17529,-145.305,420
1569674675,324.036,28.6866,-14.8456,178.748,2.17529,-145.305,420
1569674675,324.036,28.6866,-14.8456,178.748,2.17529,-145.305,420
1569674676,324.036,28.6866,-14.8456,178.748,2.17529,-145.305,420
1569674676,324.036,28.6866,-14.8456,178.748,2.17529,-145.305,420
1569674676,324.036,28.6866,-14.8456,178.748,2.17529,-145.305,420
1569674676,324.036,28.6866,-14.8456,178.748,2.17529,-145.305,420
1569674676,324.036,28.6866,-14.8456,178.748,2.17529,-145.305,420
1569674676,324.036,28.6866,-14.8456,178.748,2.17529,-145.305,420
1569674676,324.036,28.6866,-14.8456,178.748,2.19727,-145.305,420
1569674676,324.036,28.6866,-14.8456,178.748,2.19727,-145.305,420
1569674676,324.036,28.6866,-14.8456,178.748,2.19727,-145.305,420
1569674676,324.036,28.6866,-14.8456,178.748,2.19727,-145.305,420
1569674676,323.924,28.6866,-14.734,178.748,2.19727,-145.305,420
1569674676,323.924,28.6866,-14.734,178.748,2.19727,-145.305,420
1569674676,323.924,28.6866,-14.734,178.748,2.19727,-145.305,420
1569674676,323.924,28.6866,-14.734,178.748,2.19727,-145.305,420
1569674676,323.924,28.6866,-14.734,178.748,2.19727,-145.305,420
1569674676,323.924,28.6866,-14.734,178.748,2.19727,-145.305,420
1569674676,324.036,28.6866,-14.734,178.748,2.19727,-145.305,420
1569674676,324.036,28.6866,-14.734,178.748,2.19727,-145.305,420
1569674676,324.036,28.6866,-14.8456,178.748,2.19727,-145.305,420
1569674676,324.036,28.6866,-14.8456,178.748,2.19727,-145.305,420
1569674676,324.036,28.6866,-14.8456,178.748,2.19727,-145.305,420
1569674676,323.924,28.6866,-14.8456,178.748,2.19727,-145.305,420
1569674676,323.924,28.6866,-14.8456,178.748,2.19727,-145.305,420
1569674676,323.924,28.6866,-14.8456,178.748,2.19727,-145.305,420
1569674676,323.924,28.6866,-14.8456,178.748,2.19727,-145.305,420
1569674676,323.924,28.6866,-14.8456,178.748,2.19727,-145.305,420
1569674676,323.924,28.6866,-14.8456,178.748,2.19727,-145.305,420
1569674676,323.924,28.6866,-14.8456,178.748,2.19727,-145.305,420
1569674676,323.924,28.6866,-14.8456,178.748,2.19727,-145.305,420
1569674676,323.924,28.6866,-14.8456,178.748,2.19727,-145.305,420
1569674676,323.924,28.6866,-14.8456,178.77,2.19727,-145.305,420
1569674676,323.924,28.6866,-14.8456,178.77,2.19727,-145.305,420
1569674676,323.924,28.6866,-14.8456,178.77,2.19727,-145.305,420
1569674676,323.924,28.6866,-14.8456,178.77,2.17529,-145.305,420
1569674676,323.924,28.7982,-14.8456,178.77,2.17529,-145.305,420
1569674676,323.924,28.7982,-14.8456,178.77,2.17529,-145.305,424
1569674676,323.924,28.7982,-14.8456,178.77,2.17529,-145.305,424
1569674676,323.924,28.7982,-14.8456,178.77,2.17529,-145.305,424
1569674676,323.924,28.7982,-14.8456,178.77,2.17529,-145.305,424
1569674676,323.924,28.7982,-14.8456,178.77,2.17529,-145.305,424
1569674676,323.924,28.7982,-14.8456,178.77,2.17529,-145.305,424
1569674676,323.924,28.7982,-14.8456,178.77,2.17529,-145.305,424
1569674676,323.924,28.7982,-14.8456,178.792,2.17529,-145.305,424
1569674676,323.924,28.7982,-14.8456,178.792,2.17529,-145.305,424
1569674676,323.924,28.7982,-14.8456,178.792,2.17529,-145.305,424
1569674676,323.924,28.7982,-14.8456,178.792,2.17529,-145.305,424
1569674676,323.924,28.7982,-14.8456,178.792,2.17529,-145.283,424
1569674676,323.924,28.7982,-14.8456,178.792,2.17529,-145.283,424
1569674676,323.924,28.7982,-14.8456,178.792,2.17529,-145.283,424
1569674676,323.924,28.7982,-14.8456,178.77,2.19727,-145.283,424
1569674676,323.924,28.7982,-14.8456,178.77,2.19727,-145.283,424
1569674676,323.924,28.7982,-14.8456,178.77,2.19727,-145.283,428
1569674676,323.924,28.7982,-14.8456,178.77,2.19727,-145.283,428
1569674676,323.924,28.7982,-14.8456,178.77,2.19727,-145.283,428
1569674676,323.924,28.7982,-14.8456,178.77,2.19727,-145.283,428
1569674676,323.924,28.7982,-14.8456,178.77,2.19727,-145.283,428
1569674676,323.924,28.7982,-14.734,178.77,2.19727,-145.283,428
1569674676,323.924,28.7982,-14.734,178.77,2.19727,-145.283,428
1569674676,323.924,28.7982,-14.734,178.77,2.19727,-145.283,428
1569674676,323.924,28.7982,-14.8456,178.77,2.19727,-145.283,428
1569674676,323.924,28.7982,-14.8456,178.77,2.19727,-145.283,428
1569674676,323.924,28.7982,-14.8456,178.77,2.19727,-145.283,428
1569674676,323.924,28.7982,-14.8456,178.77,2.19727,-145.283,428
1569674676,323.924,28.6866,-14.8456,178.77,2.19727,-145.283,428
1569674676,323.924,28.6866,-14.8456,178.77,2.19727,-145.283,428
1569674676,323.924,28.6866,-14.8456,178.77,2.19727,-145.283,428
1569674676,323.924,28.6866,-14.8456,178.748,2.19727,-145.283,428
1569674676,323.924,28.6866,-14.8456,178.748,2.19727,-145.283,428
1569674676,323.924,28.6866,-14.8456,178.748,2.19727,-145.283,428
1569674676,323.924,28.6866,-14.8456,178.748,2.19727,-145.283,428
1569674676,323.924,28.6866,-14.8456,178.748,2.19727,-145.283,424
1569674676,323.924,28.6866,-14.8456,178.748,2.19727,-145.283,424
1569674676,323.924,28.6866,-14.8456,178.748,2.19727,-145.283,424
1569674676,323.924,28.6866,-14.8456,178.748,2.17529,-145.283,424
1569674676,323.924,28.6866,-14.8456,178.748,2.17529,-145.283,424
1569674676,323.924,28.6866,-14.8456,178.748,2.17529,-145.283,424
1569674676,323.924,28.6866,-14.8456,178.748,2.17529,-145.283,424
1569674676,323.924,28.6866,-14.8456,178.726,2.17529,-145.283,424
1569674676,323.924,28.6866,-14.8456,178.726,2.17529,-145.283,424
1569674676,323.924,28.6866,-14.8456,178.726,2.17529,-145.283,424
1569674676,324.036,28.6866,-14.8456,178.726,2.17529,-145.283,424
1569674676,324.036,28.6866,-14.8456,178.726,2.17529,-145.283,424
1569674676,324.036,28.6866,-14.8456,178.726,2.17529,-145.283,424
1569674676,324.036,28.6866,-14.8456,178.748,2.19727,-145.283,424
1569674676,324.036,28.6866,-14.8456,178.748,2.19727,-145.283,424
1569674676,324.036,28.6866,-14.8456,178.748,2.19727,-145.283,424
1569674676,324.036,28.6866,-14.8456,178.748,2.19727,-145.283,420
1569674676,324.036,28.6866,-14.8456,178.748,2.19727,-145.283,420
1569674676,324.036,28.6866,-14.8456,178.748,2.19727,-145.283,420
1569674676,324.036,28.6866,-14.8456,178.748,2.19727,-145.283,420
1569674676,324.036,28.6866,-14.8456,178.748,2.19727,-145.283,420
1569674676,324.036,28.6866,-14.8456,178.748,2.17529,-145.283,420
1569674676,324.036,28.6866,-14.8456,178.726,2.17529,-145.283,420
1569674676,324.036,28.6866,-14.8456,178.726,2.17529,-145.283,420
1569674676,324.036,28.6866,-14.8456,178.748,2.17529,-145.283,420
1569674676,324.036,28.6866,-14.8456,178.748,2.17529,-145.283,420
1569674676,324.036,28.6866,-14.8456,178.748,2.17529,-145.283,420
1569674676,324.036,28.6866,-14.8456,178.748,2.17529,-145.283,420
1569674676,324.036,28.6866,-14.8456,178.748,2.17529,-145.283,420
1569674676,324.036,28.6866,-14.8456,178.748,2.17529,-145.283,420
1569674677,324.036,28.6866,-14.8456,178.748,2.17529,-145.283,420
1569674677,324.036,28.6866,-14.8456,178.748,2.17529,-145.283,420
1569674677,324.036,28.6866,-14.8456,178.748,2.17529,-145.283,420
1569674677,324.036,28.6866,-14.8456,178.748,2.17529,-145.283,420
1569674677,324.036,28.6866,-14.8456,178.77,2.17529,-145.283,420
1569674677,324.036,28.6866,-14.8456,178.77,2.17529,-145.283,420
1569674677,324.036,28.6866,-14.8456,178.77,2.17529,-145.283,420
1569674677,324.036,28.6866,-14.8456,178.77,2.17529,-145.283,420
1569674677,324.036,28.6866,-14.8456,178.77,2.17529,-145.283,420
1569674677,324.036,28.6866,-14.8456,178.77,2.17529,-145.283,420
1569674677,323.924,28.6866,-14.8456,178.77,2.17529,-145.283,420
1569674677,323.924,28.6866,-14.8456,178.77,2.17529,-145.283,420
1569674677,323.924,28.6866,-14.8456,178.77,2.17529,-145.283,420
1569674677,323.924,28.6866,-14.8456,178.77,2.17529,-145.283,420
1569674677,323.924,28.6866,-14.8456,178.77,2.17529,-145.283,420
1569674677,323.924,28.6866,-14.8456,178.77,2.17529,-145.283,420
1569674677,323.924,28.6866,-14.8456,178.77,2.17529,-145.283,420
1569674677,323.924,28.6866,-14.8456,178.77,2.17529,-145.283,420
1569674677,323.924,28.6866,-14.8456,178.77,2.17529,-145.283,420
1569674677,323.924,28.6866,-14.8456,178.77,2.17529,-145.283,420
1569674677,323.924,28.6866,-14.8456,178.77,2.17529,-145.283,420
1569674677,323.924,28.6866,-14.8456,178.77,2.17529,-145.283,420
1569674677,323.924,28.6866,-14.8456,178.77,2.17529,-145.305,420
