time,x,y,z,ax,ay,az,q
1569658656,289.099,156.27,-17.3013,178.726,1.18652,-144.734,272
1569658656,289.099,156.27,-17.3013,178.726,1.18652,-144.734,272
1569658656,289.099,156.27,-17.3013,178.726,1.18652,-144.734,272
1569658656,289.099,156.27,-17.1896,178.726,1.18652,-144.734,272
1569658657,289.099,156.27,-17.1896,178.726,1.18652,-144.734,276
1569658657,289.099,156.27,-17.1896,178.726,1.18652,-144.734,276
1569658657,289.099,156.27,-17.1896,178.726,1.18652,-144.756,276
1569658657,289.099,156.27,-17.1896,178.726,1.18652,-144.756,276
1569658657,289.099,156.27,-17.1896,178.726,1.18652,-144.756,280
1569658657,289.099,156.27,-17.1896,178.726,1.18652,-144.756,280
1569658657,289.099,156.27,-17.1896,178.726,1.18652,-144.756,280
1569658657,289.099,156.27,-17.1896,178.726,1.18652,-144.756,280
1569658657,289.099,156.27,-17.1896,178.704,1.18652,-144.756,284
1569658657,289.099,156.27,-17.1896,178.704,1.18652,-144.756,284
1569658657,289.099,156.27,-17.1896,178.704,1.18652,-144.756,284
1569658657,289.099,156.27,-17.1896,178.704,1.18652,-144.756,284
1569658657,289.099,156.27,-17.1896,178.704,1.18652,-144.756,284
1569658657,289.099,156.27,-17.1896,178.704,1.18652,-144.756,284
1569658657,289.21,156.27,-17.1896,178.704,1.18652,-144.756,288
1569658657,289.21,156.27,-17.1896,178.704,1.18652,-144.756,288
1569658657,289.21,156.27,-17.1896,178.704,1.18652,-144.756,288
1569658657,289.21,156.27,-17.1896,178.704,1.18652,-144.756,288
1569658657,289.21,156.27,-17.1896,178.704,1.18652,-144.756,288
1569658657,289.21,156.27,-17.1896,178.704,1.18652,-144.756,288
1569658657,289.099,156.27,-17.1896,178.704,1.18652,-144.756,288
1569658657,289.099,156.27,-17.1896,178.704,1.18652,-144.756,288
1569658657,289.099,156.27,-17.1896,178.704,1.18652,-144.756,288
1569658657,289.099,156.27,-17.1896,178.704,1.18652,-144.756,288
1569658657,289.099,156.27,-17.1896,178.704,1.18652,-144.756,288
1569658657,289.099,156.27,-17.1896,178.704,1.18652,-144.756,288
1569658657,289.099,156.27,-17.1896,178.704,1.18652,-144.756,288
1569658657,289.099,156.27,-17.1896,178.704,1.18652,-144.756,288
1569658657,289.099,156.27,-17.1896,178.704,1.18652,-144.756,288
1569658657,289.099,156.27,-17.1896,178.704,1.18652,-144.756,288
1569658657,289.099,156.27,-17.1896,178.704,1.18652,-144.756,288
1569658657,289.099,156.27,-17.1896,178.704,1.18652,-144.756,288
1569658657,289.099,156.27,-17.1896,178.704,1.18652,-144.756,288
1569658657,289.21,156.27,-17.1896,178.704,1.18652,-144.756,288
1569658657,289.21,156.27,-17.1896,178.704,1.18652,-144.756,288
1569658657,289.21,156.27,-17.1896,178.704,1.2085,-144.756,288
1569658657,289.21,156.27,-17.1896,178.704,1.2085,-144.756,284
1569658657,289.21,156.27,-17.1896,178.704,1.2085,-144.756,284
1569658657,289.21,156.27,-17.1896,178.704,1.2085,-144.756,284
1569658657,289.21,156.27,-17.1896,178.704,1.2085,-144.756,284
1569658657,289.21,156.27,-17.1896,178.704,1.2085,-144.756,284
1569658657,289.21,156.27,-17.1896,178.704,1.2085,-144.756,280
1569658657,289.21,156.27,-17.1896,178.704,1.18652,-144.756,280
1569658657,289.21,156.27,-17.1896,178.704,1.18652,-144.756,280
1569658657,289.21,156.27,-17.1896,178.704,1.18652,-144.756,280
1569658657,289.21,156.27,-17.1896,178.704,1.18652,-144.756,280
1569658657,289.21,156.27,-17.1896,178.704,1.18652,-144.756,276
1569658657,289.21,156.27,-17.1896,178.704,1.18652,-144.756,276
1569658657,289.21,156.27,-17.1896,178.704,1.18652,-144.756,276
1569658657,289.21,156.27,-17.1896,178.704,1.18652,-144.756,276
1569658657,289.21,156.27,-17.1896,178.704,1.18652,-144.756,272
1569658657,289.21,156.27,-17.1896,178.704,1.18652,-144.756,272
1569658657,289.21,156.27,-17.1896,178.704,1.18652,-144.756,272
1569658657,289.21,156.27,-17.1896,178.704,1.18652,-144.756,272
1569658657,289.21,156.27,-17.1896,178.704,1.18652,-144.756,272
1569658657,289.21,156.27,-17.1896,178.704,1.18652,-144.756,268
1569658657,289.21,156.27,-17.1896,178.704,1.18652,-144.756,268
1569658657,289.21,156.27,-17.1896,178.704,1.18652,-144.756,268
1569658657,289.21,156.27,-17.3013,178.704,1.18652,-144.756,268
1569658657,289.21,156.27,-17.3013,178.704,1.18652,-144.734,268
1569658657,289.21,156.27,-17.3013,178.704,1.18652,-144.756,268
1569658657,289.21,156.27,-17.3013,178.704,1.18652,-144.756,268
1569658657,289.21,156.27,-17.3013,178.704,1.18652,-144.756,264
1569658657,289.21,156.27,-17.3013,178.704,1.18652,-144.756,264
1569658657,289.21,156.27,-17.3013,178.704,1.18652,-144.756,264
1569658657,289.21,156.27,-17.3013,178.704,1.18652,-144.756,264
1569658657,289.21,156.27,-17.3013,178.704,1.18652,-144.756,264
1569658657,289.21,156.27,-17.3013,178.704,1.18652,-144.756,264
1569658657,289.21,156.27,-17.1896,178.704,1.18652,-144.756,264
1569658657,289.21,156.27,-17.1896,178.704,1.18652,-144.756,264
1569658657,289.21,156.27,-17.1896,178.704,1.18652,-144.756,264
1569658657,289.21,156.27,-17.1896,178.704,1.18652,-144.756,268
1569658657,289.21,156.27,-17.1896,178.704,1.18652,-144.756,268
1569658657,289.21,156.27,-17.1896,178.704,1.18652,-144.756,268
1569658657,289.099,156.27,-17.1896,178.704,1.18652,-144.756,268
1569658657,289.099,156.27,-17.1896,178.704,1.18652,-144.756,268
1569658657,289.099,156.27,-17.1896,178.704,1.18652,-144.756,268
1569658657,289.099,156.27,-17.1896,178.704,1.18652,-144.756,268
1569658657,289.099,156.27,-17.1896,178.704,1.18652,-144.756,272
1569658657,289.099,156.27,-17.1896,178.704,1.18652,-144.756,272
1569658657,289.099,156.27,-17.1896,178.704,1.18652,-144.756,272
1569658657,289.099,156.27,-17.1896,178.704,1.18652,-144.756,272
1569658657,289.099,156.27,-17.1896,178.704,1.18652,-144.756,272
1569658657,289.099,156.27,-17.1896,178.704,1.18652,-144.756,272
1569658657,289.21,156.27,-17.1896,178.704,1.18652,-144.756,272
1569658657,289.21,156.27,-17.1896,178.704,1.18652,-144.756,272
1569658657,289.21,156.27,-17.1896,178.682,1.18652,-144.756,276
1569658657,289.21,156.27,-17.1896,178.682,1.18652,-144.756,276
1569658657,289.21,156.27,-17.1896,178.682,1.18652,-144.756,276
1569658657,289.21,156.27,-17.1896,178.682,1.18652,-144.756,276
1569658657,289.21,156.27,-17.1896,178.682,1.18652,-144.756,276
1569658657,289.21,156.27,-17.1896,178.682,1.18652,-144.756,272
1569658657,289.21,156.27,-17.1896,178.682,1.18652,-144.756,272
1569658657,289.21,156.27,-17.1896,178.682,1.18652,-144.756,272
1569658657,289.21,156.27,-17.1896,178.682,1.18652,-144.756,272
1569658657,289.21,156.27,-17.1896,178.682,1.2085,-144.756,272
1569658657,289.21,156.27,-17.1896,178.682,1.18652,-144.756,272
1569658657,289.21,156.27,-17.1896,178.682,1.18652,-144.756,272
1569658657,289.21,156.27,-17.1896,178.682,1.18652,-144.756,272
1569658657,289.21,156.27,-17.1896,178.682,1.2085,-144.756,272
1569658658,289.21,156.27,-17.1896,178.682,1.2085,-144.756,272
1569658658,289.21,156.27,-17.1896,178.682,1.2085,-144.756,276
1569658658,289.21,156.27,-17.1896,178.682,1.2085,-144.756,276
1569658658,289.21,156.27,-17.1896,178.682,1.18652,-144.756,276
1569658658,289.21,156.27,-17.1896,178.682,1.18652,-144.756,276
1569658658,289.21,156.27,-17.1896,178.682,1.2085,-144.756,276
1569658658,289.21,156.27,-17.1896,178.682,1.2085,-144.756,276
1569658658,289.21,156.27,-17.1896,178.682,1.18652,-144.756,276
1569658658,289.21,156.27,-17.1896,178.682,1.18652,-144.756,276
1569658658,289.21,156.27,-17.1896,178.682,1.18652,-144.756,276
1569658658,289.21,156.27,-17.1896,178.682,1.18652,-144.756,276
1569658658,289.21,156.27,-17.1896,178.682,1.18652,-144.756,280
1569658658,289.21,156.27,-17.1896,178.682,1.18652,-144.756,280
1569658658,289.21,156.27,-17.1896,178.682,1.18652,-144.756,280
1569658658,289.21,156.27,-17.1896,178.682,1.18652,-144.756,280
1569658658,289.21,156.27,-17.1896,178.682,1.18652,-144.756,280
1569658658,289.21,156.27,-17.1896,178.682,1.18652,-144.756,280
1569658658,289.21,156.27,-17.1896,178.682,1.18652,-144.756,280
1569658658,289.21,156.27,-17.1896,178.682,1.18652,-144.756,280
1569658658,289.21,156.27,-17.1896,178.682,1.18652,-144.756,280
1569658658,289.21,156.27,-17.1896,178.682,1.18652,-144.756,280
1569658658,289.21,156.27,-17.1896,178.682,1.18652,-144.756,280
1569658658,289.21,156.27,-17.1896,178.682,1.18652,-144.756,280
1569658658,289.21,156.27,-17.1896,178.682,1.18652,-144.756,280
1569658658,289.21,156.27,-17.1896,178.682,1.18652,-144.756,276
1569658658,289.21,156.27,-17.1896,178.682,1.18652,-144.756,276
1569658658,289.21,156.27,-17.1896,178.682,1.18652,-144.756,276
1569658658,289.21,156.27,-17.1896,178.682,1.18652,-144.756,276
1569658658,289.21,156.27,-17.1896,178.682,1.18652,-144.756,276
1569658658,289.21,156.27,-17.1896,178.682,1.18652,-144.756,272
1569658658,289.21,156.27,-17.1896,178.682,1.18652,-144.756,272
1569658658,289.21,156.27,-17.1896,178.682,1.18652,-144.756,272
1569658658,289.21,156.27,-17.1896,178.682,1.18652,-144.756,272
1569658658,289.21,156.27,-17.1896,178.682,1.18652,-144.756,272
1569658658,289.21,156.27,-17.1896,178.682,1.18652,-144.756,268
1569658658,289.21,156.27,-17.1896,178.682,1.18652,-144.756,268
1569658658,289.21,156.27,-17.1896,178.682,1.18652,-144.756,268
1569658658,289.21,156.27,-17.1896,178.682,1.18652,-144.756,268
1569658658,289.21,156.27,-17.1896,178.682,1.18652,-144.756,268
1569658658,289.21,156.27,-17.1896,178.682,1.18652,-144.756,268
1569658658,289.21,156.27,-17.1896,178.682,1.18652,-144.756,268
1569658658,289.21,156.27,-17.1896,178.682,1.18652,-144.756,268
1569658658,289.21,156.27,-17.1896,178.682,1.18652,-144.756,268
1569658658,289.21,156.27,-17.1896,178.682,1.18652,-144.756,268
1569658658,289.21,156.27,-17.1896,178.682,1.18652,-144.734,268
1569658658,289.21,156.27,-17.1896,178.704,1.18652,-144.734,268
1569658658,289.21,156.27,-17.1896,178.704,1.18652,-144.734,268
1569658658,289.21,156.27,-17.1896,178.704,1.18652,-144.734,268
1569658658,289.21,156.27,-17.1896,178.704,1.18652,-144.734,268
1569658658,289.21,156.27,-17.1896,178.704,1.18652,-144.734,268
1569658658,289.21,156.27,-17.1896,178.704,1.18652,-144.734,268
1569658658,289.21,156.27,-17.1896,178.704,1.18652,-144.734,268
1569658658,289.21,156.27,-17.1896,178.704,1.18652,-144.734,268
1569658658,289.21,156.27,-17.1896,178.704,1.18652,-144.734,268
1569658658,289.21,156.27,-17.1896,178.704,1.18652,-144.734,268
1569658658,289.21,156.27,-17.1896,178.704,1.18652,-144.734,264
1569658658,289.21,156.27,-17.1896,178.704,1.18652,-144.734,264
1569658658,289.21,156.27,-17.1896,178.704,1.18652,-144.734,264
1569658658,289.21,156.27,-17.1896,178.704,1.18652,-144.756,264
1569658658,289.21,156.27,-17.1896,178.704,1.18652,-144.756,264
1569658658,289.21,156.27,-17.1896,178.704,1.18652,-144.756,264
1569658658,289.21,156.27,-17.1896,178.704,1.18652,-144.756,264
1569658658,289.21,156.27,-17.1896,178.704,1.18652,-144.756,264
1569658658,289.21,156.27,-17.1896,178.704,1.18652,-144.756,264
1569658658,289.21,156.27,-17.1896,178.704,1.18652,-144.756,264
1569658658,289.21,156.27,-17.1896,178.704,1.18652,-144.756,264
1569658658,289.21,156.27,-17.1896,178.704,1.18652,-144.756,264
1569658658,289.21,156.27,-17.1896,178.704,1.18652,-144.756,264
1569658658,289.21,156.27,-17.1896,178.704,1.18652,-144.756,264
1569658658,289.21,156.27,-17.3013,178.682,1.18652,-144.756,264
1569658658,289.21,156.27,-17.3013,178.682,1.18652,-144.756,264
1569658658,289.21,156.27,-17.3013,178.682,1.18652,-144.756,264
1569658658,289.21,156.27,-17.3013,178.682,1.18652,-144.756,264
1569658658,289.21,156.27,-17.3013,178.682,1.18652,-144.756,268
1569658658,289.21,156.27,-17.3013,178.682,1.16455,-144.756,268
1569658658,289.21,156.27,-17.3013,178.682,1.16455,-144.756,268
1569658658,289.21,156.27,-17.3013,178.682,1.16455,-144.756,268
1569658658,289.21,156.27,-17.3013,178.682,1.16455,-144.756,268
1569658658,289.21,156.27,-17.3013,178.682,1.16455,-144.756,268
1569658658,289.21,156.27,-17.3013,178.682,1.16455,-144.756,268
1569658658,289.21,156.27,-17.3013,178.682,1.16455,-144.756,268
1569658658,289.21,156.27,-17.3013,178.682,1.16455,-144.756,268
1569658658,289.21,156.27,-17.3013,178.682,1.16455,-144.756,268
1569658658,289.21,156.27,-17.3013,178.682,1.16455,-144.756,268
1569658658,289.21,156.27,-17.3013,178.682,1.16455,-144.756,268
1569658658,289.21,156.27,-17.3013,178.682,1.16455,-144.756,272
1569658658,289.21,156.27,-17.3013,178.682,1.16455,-144.756,272
1569658658,289.21,156.27,-17.3013,178.682,1.16455,-144.756,272
1569658658,289.21,156.27,-17.3013,178.682,1.16455,-144.756,272
1569658658,289.21,156.27,-17.3013,178.682,1.16455,-144.756,272
1569658658,289.21,156.27,-17.3013,178.682,1.16455,-144.756,272
1569658658,289.099,156.27,-17.3013,178.682,1.16455,-144.756,272
1569658658,289.099,156.27,-17.3013,178.704,1.16455,-144.756,272
1569658658,289.099,156.27,-17.3013,178.704,1.16455,-144.756,272
1569658658,289.099,156.27,-17.3013,178.704,1.16455,-144.756,272
1569658658,289.099,156.27,-17.3013,178.704,1.16455,-144.756,272
1569658658,289.099,156.27,-17.3013,178.704,1.16455,-144.756,272
1569658658,289.099,156.27,-17.3013,178.704,1.16455,-144.756,272
1569658658,289.099,156.27,-17.3013,178.704,1.16455,-144.756,272
1569658658,289.099,156.27,-17.3013,178.704,1.16455,-144.756,272
1569658659,289.099,156.27,-17.3013,178.704,1.16455,-144.756,272
1569658659,289.21,156.27,-17.3013,178.704,1.16455,-144.756,272
1569658659,289.21,156.27,-17.3013,178.704,1.16455,-144.756,272
1569658659,289.21,156.27,-17.3013,178.704,1.16455,-144.756,272
1569658659,289.21,156.27,-17.3013,178.704,1.16455,-144.756,272
1569658659,289.21,156.27,-17.3013,178.704,1.16455,-144.756,272
1569658659,289.21,156.27,-17.3013,178.704,1.16455,-144.756,272
1569658659,289.21,156.27,-17.3013,178.704,1.14258,-144.756,272
1569658659,289.21,156.27,-17.3013,178.704,1.14258,-144.756,272
1569658659,289.21,156.27,-17.3013,178.704,1.14258,-144.756,272
1569658659,289.21,156.27,-17.3013,178.704,1.14258,-144.756,272
1569658659,289.21,156.27,-17.3013,178.704,1.14258,-144.756,272
1569658659,289.21,156.27,-17.3013,178.704,1.14258,-144.756,268
1569658659,289.21,156.27,-17.3013,178.704,1.16455,-144.756,268
1569658659,289.21,156.27,-17.3013,178.704,1.16455,-144.756,268
1569658659,289.21,156.27,-17.3013,178.704,1.16455,-144.756,268
1569658659,289.21,156.27,-17.3013,178.704,1.16455,-144.756,268
1569658659,289.21,156.27,-17.3013,178.704,1.16455,-144.756,268
1569658659,289.21,156.27,-17.3013,178.704,1.16455,-144.756,268
1569658659,289.21,156.27,-17.3013,178.704,1.16455,-144.756,268
1569658659,289.21,156.27,-17.3013,178.704,1.16455,-144.756,268
1569658659,289.21,156.27,-17.3013,178.704,1.16455,-144.756,268
1569658659,289.21,156.27,-17.3013,178.704,1.16455,-144.756,268
1569658659,289.21,156.27,-17.3013,178.704,1.16455,-144.756,268
1569658659,289.21,156.27,-17.3013,178.704,1.16455,-144.756,264
1569658659,289.21,156.27,-17.3013,178.704,1.16455,-144.756,264
1569658659,289.21,156.27,-17.3013,178.704,1.16455,-144.756,264
1569658659,289.21,156.27,-17.3013,178.704,1.16455,-144.756,264
1569658659,289.21,156.27,-17.3013,178.704,1.16455,-144.756,264
1569658659,289.21,156.27,-17.3013,178.704,1.16455,-144.756,264
1569658659,289.21,156.27,-17.3013,178.704,1.16455,-144.756,264
1569658659,289.21,156.27,-17.3013,178.704,1.16455,-144.756,264
1569658659,289.21,156.27,-17.3013,178.704,1.16455,-144.756,264
1569658659,289.21,156.27,-17.3013,178.704,1.16455,-144.756,264
1569658659,289.21,156.27,-17.3013,178.704,1.16455,-144.756,264
1569658659,289.21,156.27,-17.3013,178.704,1.16455,-144.756,264
1569658659,289.21,156.27,-17.3013,178.704,1.16455,-144.756,264
1569658659,289.21,156.27,-17.3013,178.682,1.16455,-144.756,268
1569658659,289.21,156.27,-17.3013,178.682,1.16455,-144.756,268
1569658659,289.21,156.27,-17.3013,178.682,1.16455,-144.756,268
1569658659,289.21,156.27,-17.3013,178.682,1.16455,-144.756,268
1569658659,289.21,156.27,-17.3013,178.682,1.16455,-144.756,268
1569658659,289.21,156.27,-17.3013,178.682,1.16455,-144.756,268
1569658659,289.21,156.27,-17.3013,178.682,1.16455,-144.756,268
1569658659,289.21,156.27,-17.3013,178.682,1.16455,-144.756,268
1569658659,289.21,156.27,-17.3013,178.682,1.18652,-144.756,268
1569658659,289.21,156.27,-17.3013,178.682,1.18652,-144.756,268
1569658659,289.21,156.27,-17.3013,178.682,1.18652,-144.756,268
1569658659,289.21,156.27,-17.3013,178.682,1.18652,-144.756,268
1569658659,289.21,156.27,-17.3013,178.682,1.18652,-144.756,268
1569658659,289.21,156.27,-17.3013,178.682,1.18652,-144.756,272
1569658659,289.21,156.27,-17.3013,178.682,1.18652,-144.756,272
1569658659,289.21,156.27,-17.3013,178.682,1.18652,-144.756,272
1569658659,289.21,156.27,-17.3013,178.682,1.16455,-144.756,272
1569658659,289.21,156.27,-17.3013,178.682,1.16455,-144.756,272
1569658659,289.099,156.27,-17.3013,178.682,1.16455,-144.756,272
1569658659,289.099,156.27,-17.3013,178.704,1.16455,-144.756,272
1569658659,289.099,156.27,-17.3013,178.704,1.16455,-144.756,272
1569658659,289.099,156.27,-17.3013,178.704,1.16455,-144.756,272
1569658659,289.099,156.27,-17.3013,178.704,1.16455,-144.756,272
1569658659,289.099,156.27,-17.3013,178.704,1.16455,-144.756,272
1569658659,289.099,156.27,-17.3013,178.704,1.16455,-144.756,272
1569658659,289.099,156.27,-17.3013,178.704,1.16455,-144.756,276
1569658659,289.099,156.27,-17.3013,178.704,1.16455,-144.756,276
1569658659,289.099,156.27,-17.3013,178.704,1.16455,-144.756,276
1569658659,289.099,156.27,-17.3013,178.704,1.16455,-144.756,276
1569658659,289.099,156.27,-17.3013,178.704,1.16455,-144.756,276
1569658659,289.099,156.27,-17.3013,178.704,1.16455,-144.756,276
1569658659,289.099,156.27,-17.3013,178.704,1.16455,-144.756,276
1569658659,289.099,156.27,-17.3013,178.704,1.16455,-144.756,276
1569658659,289.099,156.27,-17.3013,178.704,1.16455,-144.756,276
1569658659,289.099,156.27,-17.3013,178.704,1.16455,-144.756,276
1569658659,289.099,156.27,-17.3013,178.726,1.16455,-144.756,276
1569658659,289.099,156.27,-17.3013,178.726,1.16455,-144.756,276
1569658659,289.099,156.27,-17.3013,178.726,1.16455,-144.756,276
1569658659,289.099,156.27,-17.3013,178.726,1.16455,-144.756,276
1569658659,289.099,156.27,-17.3013,178.704,1.16455,-144.756,276
1569658659,289.099,156.27,-17.3013,178.704,1.16455,-144.756,276
1569658659,289.099,156.27,-17.3013,178.704,1.16455,-144.756,276
1569658659,289.099,156.27,-17.3013,178.704,1.16455,-144.756,280
1569658659,289.099,156.27,-17.3013,178.704,1.16455,-144.756,280
1569658659,289.099,156.27,-17.3013,178.704,1.16455,-144.756,280
1569658659,289.099,156.27,-17.3013,178.704,1.18652,-144.756,280
1569658659,289.099,156.27,-17.3013,178.704,1.16455,-144.756,280
1569658659,289.099,156.27,-17.3013,178.704,1.16455,-144.756,280
1569658659,289.099,156.27,-17.3013,178.704,1.16455,-144.756,280
1569658659,289.099,156.27,-17.3013,178.704,1.16455,-144.756,280
1569658659,289.099,156.27,-17.3013,178.704,1.18652,-144.756,276
1569658659,289.099,156.27,-17.3013,178.704,1.18652,-144.756,276
1569658659,289.099,156.27,-17.3013,178.704,1.18652,-144.756,276
1569658659,289.099,156.27,-17.3013,178.704,1.18652,-144.756,276
1569658659,289.099,156.27,-17.3013,178.704,1.16455,-144.756,276
1569658659,289.099,156.27,-17.3013,178.704,1.16455,-144.756,276
1569658659,289.099,156.27,-17.3013,178.704,1.16455,-144.756,276
1569658659,289.099,156.27,-17.3013,178.704,1.16455,-144.756,276
1569658659,289.099,156.27,-17.3013,178.704,1.16455,-144.756,276
1569658659,289.099,156.27,-17.3013,178.704,1.16455,-144.756,276
1569658659,289.099,156.27,-17.3013,178.704,1.16455,-144.756,276
1569658659,289.099,156.27,-17.3013,178.704,1.16455,-144.756,276
1569658659,289.099,156.27,-17.3013,178.704,1.16455,-144.756,276
1569658660,289.099,156.27,-17.3013,178.704,1.16455,-144.756,276
1569658660,289.099,156.27,-17.3013,178.704,1.16455,-144.756,272
1569658660,289.099,156.27,-17.3013,178.704,1.16455,-144.756,276
1569658660,289.099,156.27,-17.3013,178.704,1.16455,-144.756,276
1569658660,289.099,156.27,-17.3013,178.704,1.16455,-144.756,276
1569658660,289.099,156.27,-17.3013,178.704,1.16455,-144.756,276
1569658660,289.099,156.27,-17.3013,178.704,1.16455,-144.756,276
1569658660,289.099,156.27,-17.3013,178.704,1.16455,-144.756,276
1569658660,289.099,156.27,-17.3013,178.704,1.16455,-144.756,276
1569658660,289.099,156.27,-17.3013,178.704,1.16455,-144.756,276
1569658660,289.099,156.27,-17.3013,178.704,1.16455,-144.756,276
1569658660,289.099,156.27,-17.3013,178.704,1.16455,-144.756,276
1569658660,289.099,156.27,-17.3013,178.704,1.16455,-144.756,276
1569658660,289.099,156.27,-17.3013,178.704,1.16455,-144.756,276
1569658660,289.099,156.27,-17.3013,178.704,1.16455,-144.756,276
1569658660,289.099,156.27,-17.3013,178.704,1.16455,-144.756,276
1569658660,289.099,156.27,-17.3013,178.704,1.16455,-144.756,276
1569658660,289.099,156.27,-17.3013,178.704,1.16455,-144.756,276
1569658660,289.099,156.27,-17.3013,178.704,1.16455,-144.756,276
1569658660,289.099,156.27,-17.3013,178.704,1.16455,-144.756,276
1569658660,289.099,156.27,-17.3013,178.704,1.16455,-144.756,276
1569658660,289.099,156.27,-17.3013,178.704,1.16455,-144.756,276
1569658660,289.21,156.27,-17.3013,178.704,1.16455,-144.756,276
1569658660,289.21,156.27,-17.3013,178.704,1.16455,-144.734,272
1569658660,289.21,156.27,-17.3013,178.704,1.16455,-144.734,272
1569658660,289.21,156.27,-17.3013,178.704,1.16455,-144.734,272
1569658660,289.21,156.27,-17.3013,178.704,1.16455,-144.734,272
1569658660,289.21,156.27,-17.3013,178.704,1.16455,-144.734,272
1569658660,289.21,156.27,-17.3013,178.704,1.14258,-144.734,272
1569658660,289.21,156.27,-17.3013,178.704,1.14258,-144.734,272
1569658660,289.21,156.27,-17.3013,178.704,1.14258,-144.734,272
1569658660,289.21,156.27,-17.3013,178.704,1.14258,-144.734,272
1569658660,289.21,156.27,-17.3013,178.704,1.14258,-144.734,272
1569658660,289.21,156.27,-17.3013,178.704,1.14258,-144.734,272
1569658660,289.21,156.27,-17.3013,178.704,1.14258,-144.734,272
1569658660,289.21,156.27,-17.3013,178.704,1.14258,-144.734,272
1569658660,289.21,156.27,-17.3013,178.704,1.14258,-144.734,276
1569658660,289.21,156.27,-17.3013,178.704,1.14258,-144.734,276
1569658660,289.21,156.27,-17.3013,178.704,1.14258,-144.734,276
1569658660,289.21,156.27,-17.3013,178.704,1.14258,-144.734,276
1569658660,289.21,156.27,-17.3013,178.704,1.14258,-144.734,276
1569658660,289.21,156.27,-17.3013,178.704,1.14258,-144.734,276
1569658660,289.21,156.27,-17.3013,178.704,1.14258,-144.734,276
1569658660,289.21,156.27,-17.3013,178.704,1.14258,-144.734,276
1569658660,289.21,156.27,-17.3013,178.704,1.16455,-144.734,276
1569658660,289.21,156.27,-17.3013,178.704,1.16455,-144.734,276
1569658660,289.21,156.27,-17.3013,178.704,1.16455,-144.734,276
1569658660,289.21,156.27,-17.3013,178.704,1.16455,-144.734,276
1569658660,289.099,156.27,-17.3013,178.704,1.16455,-144.734,276
1569658660,289.099,156.27,-17.3013,178.704,1.16455,-144.734,276
1569658660,289.099,156.27,-17.3013,178.704,1.16455,-144.734,276
1569658660,289.099,156.27,-17.3013,178.704,1.16455,-144.734,276
1569658660,289.099,156.27,-17.3013,178.704,1.16455,-144.734,276
1569658660,289.099,156.27,-17.3013,178.704,1.16455,-144.734,276
1569658660,289.099,156.27,-17.3013,178.704,1.16455,-144.734,276
1569658660,289.099,156.27,-17.3013,178.704,1.16455,-144.734,276
1569658660,289.099,156.27,-17.3013,178.704,1.16455,-144.734,276
1569658660,289.099,156.27,-17.3013,178.704,1.16455,-144.734,276
1569658660,289.099,156.27,-17.3013,178.704,1.16455,-144.734,276
1569658660,289.099,156.27,-17.3013,178.704,1.16455,-144.734,276
1569658660,289.099,156.27,-17.3013,178.704,1.16455,-144.734,276
1569658660,289.099,156.27,-17.3013,178.704,1.16455,-144.734,276
1569658660,289.099,156.27,-17.3013,178.704,1.16455,-144.734,276
1569658660,289.099,156.27,-17.3013,178.704,1.16455,-144.756,276
1569658660,289.099,156.27,-17.3013,178.704,1.16455,-144.756,276
1569658660,289.099,156.27,-17.3013,178.704,1.16455,-144.756,276
1569658660,289.099,156.27,-17.3013,178.704,1.16455,-144.756,276
1569658660,289.099,156.27,-17.3013,178.704,1.16455,-144.756,276
1569658660,289.099,156.27,-17.3013,178.704,1.16455,-144.756,276
1569658660,289.099,156.27,-17.3013,178.704,1.16455,-144.756,276
1569658660,289.099,156.27,-17.3013,178.682,1.16455,-144.756,280
1569658660,289.099,156.27,-17.3013,178.682,1.16455,-144.756,280
1569658660,289.099,156.27,-17.3013,178.682,1.16455,-144.756,280
1569658660,289.099,156.27,-17.3013,178.682,1.16455,-144.756,280
1569658660,289.099,156.27,-17.3013,178.682,1.16455,-144.756,280
1569658660,289.099,156.27,-17.3013,178.682,1.16455,-144.756,280
1569658660,289.099,156.27,-17.3013,178.682,1.16455,-144.756,280
1569658660,289.099,156.27,-17.3013,178.682,1.16455,-144.756,280
1569658660,289.21,156.27,-17.3013,178.682,1.16455,-144.756,280
1569658660,289.21,156.27,-17.3013,178.682,1.16455,-144.756,276
1569658660,289.21,156.27,-17.3013,178.682,1.16455,-144.756,276
1569658660,289.21,156.27,-17.3013,178.682,1.16455,-144.756,276
1569658660,289.21,156.27,-17.3013,178.682,1.16455,-144.756,276
1569658660,289.21,156.27,-17.3013,178.682,1.16455,-144.756,276
1569658660,289.21,156.27,-17.3013,178.682,1.16455,-144.756,276
1569658660,289.21,156.27,-17.3013,178.682,1.16455,-144.756,276
1569658660,289.21,156.27,-17.3013,178.682,1.16455,-144.756,276
1569658660,289.21,156.27,-17.3013,178.682,1.16455,-144.756,276
1569658660,289.21,156.27,-17.3013,178.682,1.18652,-144.756,276
1569658660,289.21,156.27,-17.3013,178.682,1.16455,-144.756,276
1569658660,289.21,156.27,-17.3013,178.682,1.16455,-144.756,276
1569658660,289.21,156.27,-17.3013,178.682,1.16455,-144.756,276
1569658660,289.21,156.27,-17.3013,178.682,1.16455,-144.756,276
1569658660,289.21,156.27,-17.3013,178.682,1.16455,-144.756,276
1569658660,289.21,156.27,-17.3013,178.682,1.16455,-144.756,276
1569658660,289.21,156.27,-17.3013,178.682,1.16455,-144.756,272
1569658660,289.21,156.27,-17.3013,178.682,1.16455,-144.756,272
1569658660,289.21,156.27,-17.3013,178.682,1.16455,-144.756,272
1569658660,289.21,156.27,-17.3013,178.682,1.16455,-144.756,272
1569658660,289.21,156.27,-17.3013,178.704,1.16455,-144.756,272
1569658661,289.21,156.27,-17.3013,178.704,1.16455,-144.756,272
1569658661,289.21,156.27,-17.3013,178.704,1.16455,-144.756,272
1569658661,289.21,156.27,-17.3013,178.704,1.16455,-144.756,272
1569658661,289.21,156.27,-17.3013,178.704,1.16455,-144.756,272
1569658661,289.21,156.27,-17.3013,178.704,1.16455,-144.756,272
1569658661,289.21,156.27,-17.3013,178.704,1.16455,-144.756,268
1569658661,289.21,156.27,-17.3013,178.704,1.16455,-144.756,268
1569658661,289.21,156.27,-17.3013,178.704,1.16455,-144.756,268
1569658661,289.21,156.27,-17.3013,178.704,1.16455,-144.756,268
1569658661,289.099,156.27,-17.3013,178.704,1.16455,-144.756,268
1569658661,289.099,156.27,-17.3013,178.704,1.16455,-144.756,268
1569658661,289.099,156.27,-17.3013,178.704,1.16455,-144.756,268
1569658661,289.099,156.27,-17.3013,178.704,1.16455,-144.756,268
1569658661,289.099,156.27,-17.3013,178.704,1.16455,-144.756,268
1569658661,289.099,156.27,-17.3013,178.704,1.16455,-144.756,268
1569658661,289.21,156.27,-17.3013,178.704,1.16455,-144.756,268
1569658661,289.21,156.27,-17.3013,178.704,1.16455,-144.756,268
1569658661,289.21,156.27,-17.3013,178.704,1.16455,-144.756,268
1569658661,289.21,156.27,-17.3013,178.704,1.16455,-144.756,268
1569658661,289.21,156.27,-17.3013,178.704,1.16455,-144.756,268
1569658661,289.21,156.27,-17.3013,178.704,1.16455,-144.756,268
1569658661,289.21,156.27,-17.3013,178.704,1.16455,-144.756,268
1569658661,289.21,156.27,-17.3013,178.704,1.16455,-144.756,268
1569658661,289.21,156.27,-17.3013,178.704,1.16455,-144.756,268
1569658661,289.21,156.27,-17.3013,178.704,1.16455,-144.756,268
1569658661,289.21,156.27,-17.3013,178.704,1.16455,-144.756,264
1569658661,289.21,156.27,-17.3013,178.704,1.16455,-144.756,264
1569658661,289.21,156.27,-17.3013,178.704,1.16455,-144.756,264
1569658661,289.21,156.27,-17.3013,178.704,1.16455,-144.756,268
1569658661,289.21,156.27,-17.3013,178.704,1.16455,-144.756,268
1569658661,289.21,156.27,-17.3013,178.704,1.16455,-144.756,268
1569658661,289.21,156.27,-17.3013,178.704,1.16455,-144.756,268
1569658661,289.21,156.27,-17.3013,178.704,1.16455,-144.756,268
1569658661,289.21,156.27,-17.3013,178.704,1.16455,-144.756,268
1569658661,289.21,156.27,-17.3013,178.704,1.16455,-144.756,268
1569658661,289.21,156.27,-17.3013,178.704,1.16455,-144.756,268
1569658661,289.21,156.27,-17.3013,178.704,1.16455,-144.756,268
1569658661,289.21,156.27,-17.3013,178.704,1.16455,-144.756,268
1569658661,289.21,156.27,-17.3013,178.704,1.18652,-144.756,268
1569658661,289.21,156.27,-17.3013,178.704,1.18652,-144.756,268
1569658661,289.21,156.27,-17.3013,178.704,1.18652,-144.756,268
1569658661,289.21,156.27,-17.3013,178.704,1.16455,-144.756,268
1569658661,289.21,156.27,-17.3013,178.704,1.16455,-144.756,268
1569658661,289.21,156.27,-17.3013,178.704,1.16455,-144.756,268
1569658661,289.21,156.27,-17.3013,178.704,1.16455,-144.756,268
1569658661,289.21,156.27,-17.3013,178.704,1.16455,-144.756,268
1569658661,289.21,156.27,-17.3013,178.704,1.16455,-144.756,268
1569658661,289.21,156.27,-17.3013,178.704,1.16455,-144.756,268
1569658661,289.21,156.27,-17.3013,178.682,1.16455,-144.756,268
1569658661,289.21,156.27,-17.3013,178.682,1.16455,-144.756,268
1569658661,289.21,156.27,-17.3013,178.682,1.16455,-144.756,268
1569658661,289.21,156.27,-17.3013,178.682,1.16455,-144.756,268
1569658661,289.21,156.27,-17.3013,178.682,1.16455,-144.756,268
1569658661,289.21,156.27,-17.3013,178.682,1.16455,-144.756,268
1569658661,289.21,156.27,-17.3013,178.682,1.16455,-144.756,268
1569658661,289.21,156.27,-17.3013,178.682,1.16455,-144.756,272
1569658661,289.21,156.27,-17.3013,178.682,1.16455,-144.756,272
1569658661,289.21,156.27,-17.3013,178.682,1.16455,-144.756,272
1569658661,289.21,156.27,-17.3013,178.682,1.16455,-144.756,272
1569658661,289.21,156.27,-17.3013,178.682,1.16455,-144.756,272
1569658661,289.21,156.27,-17.3013,178.682,1.16455,-144.756,272
1569658661,289.21,156.27,-17.3013,178.682,1.16455,-144.756,272
1569658661,289.21,156.27,-17.3013,178.682,1.16455,-144.756,272
1569658661,289.21,156.27,-17.3013,178.682,1.16455,-144.756,272
1569658661,289.21,156.27,-17.3013,178.682,1.16455,-144.756,272
1569658661,289.21,156.27,-17.3013,178.682,1.16455,-144.756,276
1569658661,289.21,156.27,-17.3013,178.682,1.16455,-144.756,276
1569658661,289.21,156.27,-17.3013,178.682,1.16455,-144.756,276
1569658661,289.21,156.27,-17.3013,178.682,1.16455,-144.756,276
1569658661,289.21,156.27,-17.3013,178.682,1.18652,-144.756,276
1569658661,289.21,156.27,-17.3013,178.682,1.18652,-144.756,276
1569658661,289.21,156.27,-17.1896,178.682,1.18652,-144.756,276
1569658661,289.21,156.27,-17.1896,178.682,1.18652,-144.756,276
1569658661,289.21,156.27,-17.1896,178.682,1.18652,-144.756,276
1569658661,289.21,156.27,-17.1896,178.682,1.18652,-144.756,276
1569658661,289.21,156.27,-17.1896,178.704,1.18652,-144.756,276
1569658661,289.21,156.27,-17.1896,178.704,1.18652,-144.756,276
1569658661,289.21,156.27,-17.1896,178.704,1.18652,-144.756,276
1569658661,289.21,156.27,-17.1896,178.704,1.18652,-144.756,276
1569658661,289.21,156.27,-17.1896,178.704,1.18652,-144.756,276
1569658661,289.21,156.27,-17.1896,178.704,1.18652,-144.756,276
1569658661,289.21,156.27,-17.1896,178.704,1.18652,-144.756,276
1569658661,289.21,156.27,-17.1896,178.704,1.18652,-144.756,276
1569658661,289.21,156.27,-17.1896,178.704,1.18652,-144.756,276
1569658661,289.21,156.27,-17.1896,178.704,1.18652,-144.756,276
1569658661,289.21,156.27,-17.1896,178.704,1.18652,-144.756,276
1569658661,289.21,156.27,-17.1896,178.704,1.18652,-144.756,276
1569658661,289.21,156.27,-17.1896,178.704,1.18652,-144.756,276
1569658661,289.21,156.27,-17.1896,178.704,1.18652,-144.756,276
1569658661,289.21,156.27,-17.1896,178.704,1.16455,-144.756,276
1569658661,289.21,156.27,-17.1896,178.704,1.16455,-144.756,276
1569658661,289.21,156.27,-17.1896,178.704,1.16455,-144.756,276
1569658661,289.21,156.27,-17.1896,178.704,1.16455,-144.756,276
1569658661,289.21,156.27,-17.1896,178.704,1.18652,-144.756,276
1569658661,289.21,156.27,-17.1896,178.704,1.18652,-144.756,276
1569658661,289.21,156.27,-17.1896,178.704,1.18652,-144.756,276
1569658666,304.391,139.75,-17.3013,178.792,0.966797,-144.404,300
1569658666,304.391,139.75,-17.3013,178.792,0.966797,-144.404,300
1569658666,304.391,139.75,-17.3013,178.792,0.966797,-144.404,300
1569658666,304.391,139.75,-17.3013,178.792,0.966797,-144.382,300
1569658666,304.391,139.75,-17.3013,178.792,0.966797,-144.382,300
1569658666,304.391,139.75,-17.3013,178.792,0.966797,-144.382,300
1569658666,304.391,139.75,-17.4129,178.792,0.966797,-144.382,300
1569658666,304.391,139.75,-17.4129,178.792,0.966797,-144.382,300
1569658666,304.391,139.75,-17.4129,178.792,0.966797,-144.404,300
1569658666,304.391,139.75,-17.4129,178.792,0.966797,-144.404,300
1569658666,304.391,139.75,-17.4129,178.792,0.944824,-144.404,300
1569658666,304.391,139.75,-17.4129,178.792,0.944824,-144.404,304
1569658666,304.391,139.75,-17.4129,178.792,0.944824,-144.404,304
1569658666,304.391,139.75,-17.4129,178.792,0.944824,-144.404,304
1569658666,304.391,139.75,-17.4129,178.792,0.944824,-144.404,304
1569658666,304.391,139.75,-17.4129,178.792,0.944824,-144.404,304
1569658666,304.391,139.75,-17.4129,178.792,0.944824,-144.404,304
1569658666,304.391,139.75,-17.4129,178.792,0.944824,-144.404,308
1569658666,304.391,139.75,-17.4129,178.792,0.966797,-144.404,308
1569658666,304.391,139.75,-17.4129,178.792,0.966797,-144.404,308
1569658666,304.391,139.75,-17.3013,178.792,0.966797,-144.404,308
1569658666,304.391,139.75,-17.3013,178.813,0.966797,-144.404,308
1569658666,304.391,139.75,-17.3013,178.813,0.966797,-144.404,308
1569658666,304.391,139.75,-17.3013,178.813,0.966797,-144.404,308
1569658666,304.391,139.75,-17.3013,178.813,0.966797,-144.404,308
1569658667,304.391,139.75,-17.3013,178.813,0.966797,-144.404,308
1569658667,304.391,139.75,-17.3013,178.813,0.966797,-144.404,308
1569658667,304.391,139.75,-17.3013,178.813,0.966797,-144.404,308
1569658667,304.391,139.75,-17.3013,178.813,0.966797,-144.404,308
1569658667,304.391,139.75,-17.3013,178.813,0.966797,-144.404,308
1569658667,304.391,139.75,-17.3013,178.813,0.966797,-144.404,308
1569658667,304.391,139.75,-17.3013,178.813,0.966797,-144.404,308
1569658667,304.391,139.75,-17.3013,178.792,0.966797,-144.404,308
1569658667,304.391,139.75,-17.3013,178.792,0.966797,-144.404,308
1569658667,304.391,139.75,-17.3013,178.792,0.966797,-144.404,308
1569658667,304.391,139.75,-17.4129,178.792,0.966797,-144.404,308
1569658667,304.391,139.75,-17.4129,178.792,0.966797,-144.404,304
1569658667,304.391,139.75,-17.4129,178.792,0.966797,-144.404,304
1569658667,304.391,139.75,-17.4129,178.792,0.966797,-144.404,304
1569658667,304.391,139.75,-17.4129,178.792,0.966797,-144.404,308
1569658667,304.391,139.75,-17.4129,178.792,0.966797,-144.404,308
1569658667,304.391,139.75,-17.4129,178.792,0.966797,-144.404,308
1569658667,304.391,139.75,-17.4129,178.792,0.966797,-144.404,308
1569658667,304.391,139.75,-17.4129,178.792,0.966797,-144.404,308
1569658667,304.391,139.75,-17.4129,178.792,0.966797,-144.404,308
1569658667,304.391,139.75,-17.4129,178.792,0.966797,-144.404,308
1569658667,304.391,139.75,-17.4129,178.792,0.966797,-144.404,308
1569658667,304.391,139.75,-17.4129,178.792,0.966797,-144.404,308
1569658667,304.391,139.75,-17.4129,178.792,0.966797,-144.382,308
1569658667,304.391,139.75,-17.4129,178.792,0.966797,-144.382,308
1569658667,304.391,139.75,-17.4129,178.792,0.966797,-144.382,308
1569658667,304.391,139.75,-17.4129,178.792,0.966797,-144.382,308
1569658667,304.391,139.75,-17.4129,178.792,0.966797,-144.382,308
1569658667,304.391,139.75,-17.4129,178.792,0.966797,-144.382,308
1569658667,304.391,139.75,-17.4129,178.792,0.966797,-144.382,308
1569658667,304.391,139.75,-17.4129,178.792,0.966797,-144.382,304
1569658667,304.391,139.75,-17.4129,178.77,0.966797,-144.382,304
1569658667,304.391,139.75,-17.4129,178.77,0.966797,-144.382,304
1569658667,304.391,139.75,-17.4129,178.77,0.966797,-144.382,304
1569658667,304.391,139.75,-17.4129,178.77,0.966797,-144.382,304
1569658667,304.391,139.638,-17.4129,178.77,0.966797,-144.382,304
1569658667,304.391,139.638,-17.4129,178.77,0.966797,-144.382,304
1569658667,304.391,139.638,-17.4129,178.77,0.966797,-144.404,304
1569658667,304.391,139.638,-17.4129,178.77,0.966797,-144.404,304
1569658667,304.391,139.638,-17.4129,178.77,0.966797,-144.404,304
1569658667,304.391,139.638,-17.4129,178.77,0.966797,-144.404,300
1569658667,304.391,139.638,-17.4129,178.77,0.966797,-144.404,300
1569658667,304.391,139.638,-17.4129,178.77,0.966797,-144.404,300
1569658667,304.391,139.638,-17.3013,178.77,0.966797,-144.404,300
1569658667,304.391,139.638,-17.3013,178.77,0.966797,-144.404,300
1569658667,304.391,139.638,-17.3013,178.77,0.966797,-144.404,300
1569658667,304.391,139.638,-17.3013,178.77,0.966797,-144.404,300
1569658667,304.391,139.638,-17.3013,178.77,0.966797,-144.404,300
1569658667,304.391,139.638,-17.3013,178.77,0.966797,-144.404,300
1569658667,304.391,139.638,-17.3013,178.77,0.966797,-144.382,300
1569658667,304.391,139.75,-17.3013,178.77,0.966797,-144.382,300
1569658667,304.391,139.75,-17.3013,178.77,0.966797,-144.404,300
1569658667,304.391,139.75,-17.3013,178.77,0.98877,-144.404,300
1569658667,304.391,139.75,-17.3013,178.77,0.98877,-144.404,300
1569658667,304.391,139.75,-17.3013,178.77,0.98877,-144.404,300
1569658667,304.391,139.75,-17.3013,178.77,0.98877,-144.404,300
1569658667,304.391,139.75,-17.3013,178.77,0.98877,-144.404,300
1569658667,304.391,139.75,-17.3013,178.77,0.98877,-144.404,300
1569658667,304.391,139.75,-17.3013,178.77,0.98877,-144.382,300
1569658667,304.391,139.75,-17.3013,178.77,0.98877,-144.382,300
1569658667,304.391,139.75,-17.3013,178.77,0.98877,-144.382,300
1569658667,304.391,139.75,-17.3013,178.77,0.98877,-144.382,300
1569658667,304.391,139.75,-17.3013,178.77,0.98877,-144.382,300
1569658667,304.391,139.75,-17.3013,178.77,0.98877,-144.382,300
1569658667,304.391,139.75,-17.3013,178.77,0.98877,-144.382,300
1569658667,304.391,139.75,-17.3013,178.77,0.98877,-144.382,300
1569658667,304.391,139.75,-17.3013,178.77,0.98877,-144.404,300
1569658667,304.391,139.75,-17.3013,178.77,0.98877,-144.404,300
1569658667,304.391,139.75,-17.3013,178.77,0.98877,-144.404,300
1569658667,304.391,139.75,-17.3013,178.77,0.98877,-144.404,300
1569658667,304.391,139.75,-17.3013,178.77,0.98877,-144.404,300
1569658667,304.391,139.75,-17.3013,178.77,0.98877,-144.404,300
1569658667,304.391,139.75,-17.3013,178.77,0.98877,-144.404,300
1569658667,304.391,139.75,-17.3013,178.77,0.98877,-144.404,300
1569658667,304.391,139.75,-17.3013,178.77,0.98877,-144.404,300
1569658667,304.391,139.75,-17.3013,178.77,0.98877,-144.404,300
1569658667,304.391,139.638,-17.3013,178.77,0.98877,-144.404,300
1569658667,304.391,139.638,-17.3013,178.77,0.98877,-144.404,300
1569658667,304.391,139.638,-17.3013,178.77,0.98877,-144.404,300
1569658667,304.391,139.75,-17.3013,178.77,0.98877,-144.404,300
1569658667,304.391,139.75,-17.3013,178.77,0.98877,-144.404,300
1569658667,304.391,139.75,-17.3013,178.77,0.98877,-144.404,300
1569658667,304.391,139.75,-17.3013,178.77,0.98877,-144.404,304
1569658667,304.391,139.75,-17.3013,178.77,0.98877,-144.404,304
1569658667,304.391,139.75,-17.3013,178.77,0.98877,-144.404,304
1569658667,304.391,139.75,-17.3013,178.77,0.98877,-144.404,304
1569658667,304.391,139.75,-17.3013,178.77,0.98877,-144.404,304
1569658667,304.391,139.75,-17.3013,178.77,0.98877,-144.404,308
1569658667,304.391,139.75,-17.3013,178.77,0.98877,-144.404,308
1569658667,304.391,139.75,-17.3013,178.77,0.98877,-144.404,308
1569658667,304.391,139.75,-17.3013,178.77,0.98877,-144.404,308
1569658667,304.391,139.75,-17.3013,178.77,0.98877,-144.404,308
1569658667,304.391,139.75,-17.3013,178.77,0.98877,-144.404,308
1569658667,304.391,139.75,-17.3013,178.77,0.98877,-144.404,308
1569658667,304.391,139.75,-17.3013,178.77,0.98877,-144.404,308
1569658667,304.391,139.75,-17.3013,178.77,0.98877,-144.404,308
1569658667,304.391,139.75,-17.3013,178.77,0.98877,-144.404,308
1569658667,304.391,139.75,-17.3013,178.77,0.98877,-144.404,308
1569658667,304.391,139.75,-17.3013,178.77,0.98877,-144.404,308
1569658667,304.391,139.75,-17.3013,178.77,0.98877,-144.404,308
1569658668,304.391,139.75,-17.3013,178.77,0.98877,-144.404,308
1569658668,304.391,139.75,-17.3013,178.77,0.98877,-144.404,308
1569658668,304.391,139.75,-17.3013,178.77,0.98877,-144.426,308
1569658668,304.391,139.75,-17.3013,178.77,0.98877,-144.426,308
1569658668,304.391,139.75,-17.3013,178.77,1.01074,-144.426,308
1569658668,304.391,139.75,-17.3013,178.77,1.01074,-144.426,308
1569658668,304.391,139.75,-17.3013,178.77,1.01074,-144.426,308
1569658668,304.391,139.75,-17.3013,178.77,1.01074,-144.426,308
1569658668,304.391,139.75,-17.3013,178.77,1.01074,-144.426,308
1569658668,304.391,139.75,-17.3013,178.77,1.01074,-144.404,308
1569658668,304.391,139.75,-17.3013,178.77,0.98877,-144.404,308
1569658668,304.391,139.75,-17.3013,178.77,0.98877,-144.404,308
1569658668,304.391,139.75,-17.3013,178.77,0.98877,-144.404,308
1569658668,304.391,139.75,-17.3013,178.77,0.98877,-144.404,304
1569658668,304.391,139.75,-17.3013,178.77,0.98877,-144.426,304
1569658668,304.391,139.75,-17.3013,178.77,0.98877,-144.426,304
1569658668,304.391,139.75,-17.3013,178.77,0.98877,-144.426,304
1569658668,304.391,139.75,-17.3013,178.77,0.98877,-144.426,304
1569658668,304.391,139.75,-17.3013,178.77,0.98877,-144.426,304
1569658668,304.391,139.75,-17.3013,178.77,0.98877,-144.426,300
1569658668,304.391,139.75,-17.3013,178.77,0.98877,-144.426,300
1569658668,304.391,139.75,-17.3013,178.77,0.98877,-144.426,300
1569658668,304.391,139.75,-17.3013,178.77,0.98877,-144.426,300
1569658668,304.391,139.75,-17.3013,178.77,0.98877,-144.426,300
1569658668,304.391,139.75,-17.3013,178.77,0.98877,-144.426,300
1569658668,304.391,139.75,-17.3013,178.77,0.98877,-144.426,300
1569658668,304.391,139.75,-17.3013,178.77,0.98877,-144.426,300
1569658668,304.391,139.75,-17.3013,178.77,0.98877,-144.426,300
1569658668,304.391,139.75,-17.3013,178.77,0.98877,-144.426,300
1569658668,304.391,139.75,-17.3013,178.77,0.98877,-144.426,300
1569658668,304.391,139.75,-17.3013,178.77,0.98877,-144.426,300
1569658668,304.391,139.75,-17.3013,178.77,0.98877,-144.426,300
1569658668,304.391,139.638,-17.3013,178.77,0.98877,-144.426,300
1569658668,304.391,139.638,-17.3013,178.77,0.98877,-144.404,300
1569658668,304.391,139.638,-17.3013,178.77,0.98877,-144.404,300
1569658668,304.391,139.75,-17.3013,178.77,0.98877,-144.404,300
1569658668,304.391,139.75,-17.3013,178.77,0.98877,-144.404,300
1569658668,304.391,139.75,-17.3013,178.77,0.98877,-144.404,300
1569658668,304.391,139.75,-17.3013,178.77,0.98877,-144.404,300
1569658668,304.391,139.75,-17.3013,178.77,0.98877,-144.404,300
1569658668,304.391,139.75,-17.3013,178.77,0.98877,-144.404,300
1569658668,304.391,139.75,-17.3013,178.77,0.98877,-144.404,300
1569658668,304.391,139.75,-17.3013,178.77,0.98877,-144.404,300
1569658668,304.391,139.75,-17.3013,178.77,0.98877,-144.404,300
1569658668,304.391,139.75,-17.3013,178.77,0.98877,-144.404,300
1569658668,304.391,139.75,-17.3013,178.77,0.966797,-144.404,300
1569658668,304.391,139.75,-17.3013,178.77,0.966797,-144.404,300
1569658668,304.391,139.75,-17.3013,178.77,0.966797,-144.404,300
1569658668,304.391,139.75,-17.3013,178.77,0.966797,-144.404,300
1569658668,304.391,139.75,-17.3013,178.77,0.966797,-144.404,300
1569658668,304.391,139.75,-17.3013,178.77,0.966797,-144.404,300
1569658668,304.391,139.75,-17.4129,178.77,0.966797,-144.404,300
1569658668,304.391,139.75,-17.4129,178.77,0.966797,-144.404,300
1569658668,304.391,139.75,-17.4129,178.77,0.966797,-144.404,300
1569658668,304.391,139.75,-17.4129,178.77,0.966797,-144.404,300
1569658668,304.391,139.75,-17.3013,178.77,0.966797,-144.404,300
1569658668,304.391,139.75,-17.3013,178.77,0.966797,-144.404,300
1569658668,304.391,139.75,-17.3013,178.77,0.966797,-144.404,300
1569658668,304.391,139.75,-17.3013,178.77,0.966797,-144.404,300
1569658668,304.391,139.75,-17.3013,178.77,0.966797,-144.404,300
1569658668,304.391,139.75,-17.3013,178.77,0.966797,-144.404,304
1569658668,304.391,139.75,-17.3013,178.792,0.966797,-144.404,304
1569658668,304.391,139.75,-17.3013,178.792,0.966797,-144.404,304
1569658668,304.391,139.75,-17.3013,178.792,0.966797,-144.404,304
1569658668,304.391,139.75,-17.3013,178.792,0.966797,-144.404,304
1569658668,304.391,139.75,-17.3013,178.792,0.966797,-144.404,304
1569658668,304.391,139.75,-17.3013,178.792,0.966797,-144.404,304
1569658668,304.391,139.75,-17.3013,178.792,0.966797,-144.404,304
1569658668,304.391,139.75,-17.3013,178.792,0.966797,-144.404,304
1569658668,304.391,139.75,-17.3013,178.792,0.966797,-144.404,304
1569658668,304.391,139.75,-17.3013,178.792,0.966797,-144.404,304
1569658668,304.391,139.75,-17.3013,178.792,0.966797,-144.404,300
1569658668,304.391,139.75,-17.3013,178.792,0.966797,-144.404,300
1569658668,304.391,139.75,-17.3013,178.792,0.966797,-144.404,300
1569658668,304.391,139.75,-17.3013,178.792,0.966797,-144.404,300
1569658668,304.391,139.75,-17.3013,178.792,0.966797,-144.404,300
1569658668,304.391,139.75,-17.3013,178.792,0.966797,-144.404,300
1569658668,304.391,139.75,-17.3013,178.792,0.966797,-144.404,300
1569658668,304.391,139.75,-17.3013,178.792,0.966797,-144.404,300
1569658668,304.391,139.75,-17.3013,178.792,0.966797,-144.404,300
1569658668,304.391,139.75,-17.3013,178.792,0.966797,-144.404,300
1569658668,304.391,139.75,-17.3013,178.792,0.966797,-144.404,300
1569658668,304.391,139.75,-17.3013,178.792,0.966797,-144.404,300
1569658668,304.391,139.75,-17.3013,178.792,0.98877,-144.404,300
1569658668,304.391,139.75,-17.3013,178.792,0.98877,-144.404,300
1569658668,304.391,139.75,-17.3013,178.792,0.98877,-144.404,300
1569658668,304.391,139.75,-17.3013,178.792,0.98877,-144.404,300
1569658668,304.391,139.75,-17.3013,178.792,0.98877,-144.404,300
1569658668,304.391,139.75,-17.3013,178.792,0.98877,-144.404,296
1569658668,304.391,139.75,-17.3013,178.792,0.98877,-144.404,296
1569658668,304.391,139.75,-17.3013,178.792,0.98877,-144.404,296
1569658668,304.391,139.75,-17.3013,178.792,0.98877,-144.404,296
1569658668,304.391,139.75,-17.3013,178.792,0.98877,-144.404,296
1569658668,304.391,139.75,-17.3013,178.792,0.966797,-144.404,296
1569658668,304.391,139.75,-17.3013,178.792,0.966797,-144.404,296
1569658668,304.391,139.75,-17.3013,178.792,0.966797,-144.404,296
1569658668,304.391,139.75,-17.3013,178.792,0.966797,-144.404,296
1569658668,304.391,139.75,-17.3013,178.792,0.966797,-144.404,296
1569658668,304.391,139.75,-17.4129,178.792,0.966797,-144.404,296
1569658668,304.391,139.75,-17.4129,178.792,0.966797,-144.404,296
1569658669,304.391,139.75,-17.4129,178.792,0.966797,-144.404,296
1569658669,304.391,139.75,-17.4129,178.792,0.966797,-144.404,296
1569658669,304.391,139.75,-17.4129,178.792,0.966797,-144.404,296
1569658669,304.391,139.75,-17.4129,178.792,0.966797,-144.404,296
1569658669,304.391,139.75,-17.4129,178.792,0.966797,-144.404,296
1569658669,304.391,139.75,-17.4129,178.792,0.966797,-144.404,296
1569658669,304.391,139.75,-17.4129,178.792,0.966797,-144.404,296
1569658669,304.391,139.75,-17.4129,178.792,0.966797,-144.404,296
1569658669,304.391,139.75,-17.4129,178.792,0.966797,-144.404,296
1569658669,304.391,139.75,-17.4129,178.792,0.966797,-144.404,296
1569658669,304.391,139.75,-17.4129,178.792,0.966797,-144.404,296
1569658669,304.391,139.75,-17.4129,178.792,0.966797,-144.404,296
1569658669,304.391,139.75,-17.4129,178.792,0.966797,-144.404,296
1569658669,304.391,139.75,-17.4129,178.792,0.966797,-144.404,296
1569658669,304.391,139.75,-17.4129,178.792,0.966797,-144.404,296
1569658669,304.391,139.75,-17.4129,178.792,0.966797,-144.404,296
1569658669,304.391,139.75,-17.4129,178.792,0.966797,-144.404,296
1569658669,304.391,139.75,-17.4129,178.792,0.966797,-144.404,296
1569658669,304.391,139.75,-17.4129,178.792,0.966797,-144.404,296
1569658669,304.391,139.75,-17.4129,178.792,0.966797,-144.404,296
1569658669,304.391,139.75,-17.4129,178.792,0.966797,-144.404,296
1569658669,304.391,139.75,-17.4129,178.792,0.966797,-144.404,296
1569658669,304.391,139.75,-17.4129,178.792,0.966797,-144.404,296
1569658669,304.391,139.75,-17.4129,178.792,0.966797,-144.404,296
1569658669,304.391,139.75,-17.4129,178.792,0.966797,-144.404,296
1569658669,304.391,139.75,-17.3013,178.792,0.966797,-144.404,300
1569658669,304.391,139.75,-17.3013,178.77,0.966797,-144.404,300
1569658669,304.391,139.75,-17.3013,178.77,0.966797,-144.404,300
1569658669,304.391,139.75,-17.3013,178.77,0.966797,-144.404,300
1569658669,304.391,139.75,-17.3013,178.77,0.966797,-144.404,300
1569658669,304.391,139.75,-17.3013,178.77,0.98877,-144.404,300
1569658669,304.391,139.75,-17.3013,178.77,0.98877,-144.404,300
1569658669,304.391,139.75,-17.3013,178.77,0.98877,-144.404,304
1569658669,304.391,139.75,-17.3013,178.77,0.98877,-144.404,304
1569658669,304.391,139.75,-17.3013,178.77,0.98877,-144.404,304
1569658669,304.391,139.75,-17.3013,178.77,0.98877,-144.404,304
1569658669,304.391,139.75,-17.3013,178.77,0.98877,-144.404,304
1569658669,304.391,139.75,-17.3013,178.77,0.98877,-144.404,304
1569658669,304.391,139.75,-17.3013,178.77,0.98877,-144.404,304
1569658669,304.391,139.75,-17.3013,178.77,0.98877,-144.404,304
1569658669,304.391,139.75,-17.3013,178.77,0.98877,-144.404,304
1569658669,304.391,139.75,-17.3013,178.77,0.98877,-144.404,304
1569658669,304.391,139.75,-17.3013,178.77,0.98877,-144.404,304
1569658669,304.391,139.75,-17.3013,178.77,0.98877,-144.404,304
1569658669,304.391,139.75,-17.3013,178.77,0.98877,-144.404,304
1569658669,304.391,139.75,-17.3013,178.77,0.98877,-144.404,304
1569658669,304.502,139.75,-17.3013,178.77,0.98877,-144.404,300
1569658669,304.502,139.75,-17.3013,178.77,0.98877,-144.404,300
1569658669,304.502,139.75,-17.3013,178.77,0.98877,-144.404,300
1569658669,304.502,139.75,-17.3013,178.77,0.98877,-144.404,300
1569658669,304.502,139.75,-17.3013,178.77,0.98877,-144.404,300
1569658669,304.502,139.75,-17.3013,178.77,0.98877,-144.404,300
1569658669,304.502,139.75,-17.3013,178.77,0.98877,-144.404,300
1569658669,304.502,139.75,-17.3013,178.77,0.966797,-144.404,300
1569658669,304.502,139.75,-17.3013,178.77,0.966797,-144.404,300
1569658669,304.502,139.75,-17.3013,178.77,0.966797,-144.404,300
1569658669,304.502,139.75,-17.3013,178.77,0.966797,-144.404,300
1569658669,304.502,139.75,-17.3013,178.77,0.966797,-144.404,300
1569658669,304.502,139.75,-17.4129,178.77,0.966797,-144.404,300
1569658669,304.502,139.75,-17.4129,178.77,0.966797,-144.404,300
1569658669,304.502,139.75,-17.4129,178.77,0.966797,-144.404,300
1569658669,304.502,139.75,-17.4129,178.77,0.966797,-144.404,300
1569658669,304.502,139.75,-17.4129,178.77,0.966797,-144.404,300
1569658669,304.391,139.75,-17.3013,178.792,0.966797,-144.404,300
1569658669,304.391,139.75,-17.3013,178.792,0.966797,-144.404,304
1569658669,304.391,139.75,-17.3013,178.792,0.98877,-144.404,304
1569658669,304.391,139.75,-17.3013,178.792,0.98877,-144.404,304
1569658669,304.391,139.75,-17.3013,178.792,0.98877,-144.404,304
1569658669,304.391,139.75,-17.3013,178.77,0.98877,-144.404,304
1569658669,304.391,139.75,-17.3013,178.77,0.98877,-144.404,304
1569658669,304.391,139.75,-17.3013,178.77,0.98877,-144.404,304
1569658669,304.391,139.75,-17.3013,178.77,0.98877,-144.404,304
1569658669,304.391,139.75,-17.3013,178.77,0.98877,-144.404,308
1569658669,304.391,139.75,-17.3013,178.77,0.98877,-144.404,308
1569658669,304.391,139.75,-17.3013,178.77,0.98877,-144.404,308
1569658669,304.391,139.75,-17.3013,178.77,0.98877,-144.404,308
1569658669,304.391,139.75,-17.3013,178.77,0.98877,-144.404,308
1569658669,304.391,139.75,-17.3013,178.77,0.98877,-144.404,308
1569658669,304.391,139.75,-17.3013,178.77,0.98877,-144.404,308
1569658669,304.391,139.75,-17.3013,178.77,0.98877,-144.404,308
1569658669,304.391,139.75,-17.3013,178.77,0.98877,-144.404,308
1569658669,304.391,139.75,-17.3013,178.77,0.98877,-144.404,308
1569658669,304.391,139.75,-17.3013,178.77,0.98877,-144.404,308
1569658669,304.391,139.75,-17.3013,178.77,0.966797,-144.404,308
1569658669,304.391,139.638,-17.3013,178.748,0.966797,-144.404,308
1569658669,304.502,139.638,-17.3013,178.748,0.98877,-144.382,308
1569658669,304.502,139.638,-17.3013,178.748,0.98877,-144.382,308
1569658669,304.502,139.638,-17.3013,178.748,0.98877,-144.382,308
1569658669,304.502,139.638,-17.3013,178.748,0.98877,-144.382,308
1569658669,304.502,139.638,-17.3013,178.748,0.98877,-144.382,304
1569658669,304.502,139.638,-17.3013,178.748,0.98877,-144.382,304
1569658669,304.502,139.638,-17.3013,178.748,0.98877,-144.382,304
1569658669,304.502,139.638,-17.3013,178.748,0.98877,-144.382,304
1569658669,304.502,139.75,-17.3013,178.748,0.98877,-144.382,300
1569658669,304.502,139.75,-17.3013,178.748,0.98877,-144.382,300
1569658669,304.502,139.75,-17.3013,178.748,0.98877,-144.382,300
1569658669,304.502,139.75,-17.3013,178.77,0.98877,-144.382,300
1569658669,304.502,139.75,-17.3013,178.77,0.98877,-144.382,296
1569658669,304.502,139.75,-17.3013,178.748,0.98877,-144.382,296
1569658669,304.502,139.75,-17.3013,178.748,0.98877,-144.382,296
1569658670,304.502,139.75,-17.3013,178.748,0.98877,-144.382,296
1569658670,304.502,139.75,-17.3013,178.748,0.98877,-144.382,296
1569658670,304.502,139.75,-17.3013,178.748,0.98877,-144.404,296
1569658670,304.502,139.75,-17.3013,178.748,0.98877,-144.404,292
1569658670,304.502,139.75,-17.3013,178.748,0.98877,-144.404,292
1569658670,304.502,139.75,-17.3013,178.748,0.98877,-144.404,292
1569658670,304.502,139.638,-17.3013,178.748,0.98877,-144.404,292
1569658670,304.502,139.638,-17.3013,178.748,0.98877,-144.404,292
1569658670,304.502,139.638,-17.3013,178.748,0.98877,-144.404,292
1569658670,304.502,139.638,-17.3013,178.748,0.98877,-144.404,292
1569658670,304.502,139.75,-17.3013,178.748,0.98877,-144.404,288
1569658670,304.502,139.75,-17.3013,178.748,0.98877,-144.404,288
1569658670,304.502,139.75,-17.3013,178.748,0.98877,-144.404,288
1569658670,304.502,139.75,-17.3013,178.748,0.98877,-144.404,288
1569658670,304.502,139.75,-17.3013,178.748,0.98877,-144.404,288
1569658670,304.502,139.75,-17.3013,178.748,0.98877,-144.404,288
1569658670,304.502,139.75,-17.3013,178.748,0.98877,-144.404,288
1569658670,304.502,139.75,-17.3013,178.748,0.966797,-144.404,288
1569658670,304.502,139.75,-17.3013,178.77,0.966797,-144.404,288
1569658670,304.502,139.75,-17.3013,178.77,0.966797,-144.404,288
1569658670,304.502,139.75,-17.3013,178.77,0.966797,-144.404,288
1569658670,304.502,139.75,-17.3013,178.77,0.966797,-144.404,288
1569658670,304.502,139.75,-17.3013,178.77,0.966797,-144.404,288
1569658670,304.502,139.75,-17.3013,178.77,0.966797,-144.404,288
1569658670,304.502,139.75,-17.3013,178.77,0.966797,-144.404,288
1569658670,304.391,139.75,-17.3013,178.77,0.966797,-144.404,288
1569658670,304.391,139.75,-17.3013,178.77,0.966797,-144.404,288
1569658670,304.391,139.75,-17.3013,178.77,0.966797,-144.404,292
1569658670,304.391,139.75,-17.3013,178.77,0.966797,-144.404,292
1569658670,304.391,139.75,-17.3013,178.77,0.966797,-144.404,292
1569658670,304.391,139.75,-17.3013,178.77,0.966797,-144.404,292
1569658670,304.391,139.75,-17.3013,178.77,0.966797,-144.404,292
1569658670,304.391,139.75,-17.3013,178.77,0.966797,-144.404,292
1569658670,304.391,139.75,-17.3013,178.77,0.966797,-144.404,292
1569658670,304.391,139.75,-17.3013,178.77,0.966797,-144.404,292
1569658670,304.391,139.75,-17.3013,178.77,0.98877,-144.404,292
1569658670,304.391,139.75,-17.3013,178.77,0.98877,-144.404,292
1569658670,304.391,139.75,-17.3013,178.77,0.98877,-144.404,292
1569658670,304.391,139.75,-17.3013,178.77,0.98877,-144.404,292
1569658670,304.391,139.75,-17.3013,178.77,0.98877,-144.404,292
1569658670,304.391,139.75,-17.3013,178.77,0.98877,-144.404,292
1569658670,304.502,139.75,-17.3013,178.77,0.98877,-144.404,292
1569658670,304.502,139.75,-17.3013,178.77,0.98877,-144.404,292
1569658670,304.502,139.75,-17.3013,178.77,0.98877,-144.404,292
1569658670,304.502,139.75,-17.3013,178.77,0.98877,-144.404,288
1569658670,304.502,139.75,-17.3013,178.77,0.98877,-144.404,288
1569658670,304.502,139.75,-17.3013,178.77,0.98877,-144.404,288
1569658670,304.502,139.75,-17.3013,178.77,0.966797,-144.404,288
1569658670,304.502,139.75,-17.3013,178.77,0.966797,-144.404,288
1569658670,304.502,139.75,-17.3013,178.77,0.98877,-144.404,288
1569658670,304.502,139.75,-17.3013,178.77,0.98877,-144.404,288
1569658670,304.502,139.75,-17.3013,178.77,0.98877,-144.404,288
1569658670,304.391,139.75,-17.3013,178.77,0.98877,-144.404,288
1569658670,304.391,139.75,-17.3013,178.77,0.98877,-144.404,288
1569658670,304.391,139.75,-17.3013,178.77,0.98877,-144.404,288
1569658670,304.391,139.75,-17.3013,178.77,0.98877,-144.404,288
1569658670,304.391,139.75,-17.3013,178.77,0.98877,-144.404,288
1569658670,304.391,139.75,-17.3013,178.77,0.98877,-144.404,288
1569658670,304.391,139.75,-17.3013,178.77,0.98877,-144.404,288
1569658670,304.391,139.75,-17.3013,178.77,0.98877,-144.404,288
1569658670,304.391,139.75,-17.3013,178.77,0.98877,-144.404,288
1569658670,304.391,139.75,-17.3013,178.77,0.98877,-144.404,288
1569658670,304.391,139.75,-17.3013,178.77,0.98877,-144.404,292
1569658670,304.391,139.75,-17.3013,178.77,0.98877,-144.404,292
1569658670,304.391,139.75,-17.3013,178.77,0.98877,-144.404,292
1569658670,304.391,139.75,-17.3013,178.77,0.98877,-144.404,292
1569658670,304.391,139.75,-17.3013,178.77,0.98877,-144.404,292
1569658670,304.391,139.75,-17.3013,178.77,0.98877,-144.404,292
1569658670,304.391,139.75,-17.3013,178.77,0.98877,-144.404,292
1569658670,304.391,139.75,-17.3013,178.77,1.01074,-144.404,292
1569658670,304.391,139.75,-17.3013,178.77,1.01074,-144.404,292
1569658670,304.391,139.75,-17.3013,178.77,1.01074,-144.404,292
1569658670,304.391,139.75,-17.3013,178.77,1.01074,-144.404,292
1569658670,304.391,139.75,-17.3013,178.77,1.01074,-144.404,292
1569658670,304.391,139.75,-17.3013,178.77,1.01074,-144.404,292
1569658670,304.391,139.75,-17.3013,178.77,1.01074,-144.404,292
1569658670,304.391,139.75,-17.3013,178.77,1.01074,-144.404,292
1569658670,304.391,139.75,-17.3013,178.77,1.01074,-144.404,292
1569658670,304.391,139.75,-17.3013,178.77,1.01074,-144.404,292
1569658670,304.391,139.75,-17.3013,178.77,0.98877,-144.404,292
1569658670,304.391,139.75,-17.3013,178.77,0.98877,-144.404,292
1569658670,304.391,139.75,-17.3013,178.77,0.98877,-144.404,296
1569658670,304.391,139.75,-17.3013,178.77,0.98877,-144.404,296
1569658670,304.391,139.75,-17.3013,178.77,0.98877,-144.404,296
1569658670,304.391,139.75,-17.3013,178.77,0.98877,-144.404,296
1569658670,304.391,139.75,-17.3013,178.77,0.98877,-144.404,296
1569658670,304.391,139.75,-17.3013,178.77,0.98877,-144.404,296
1569658670,304.391,139.75,-17.3013,178.77,0.98877,-144.404,296
1569658670,304.391,139.75,-17.3013,178.77,0.98877,-144.404,296
1569658670,304.391,139.75,-17.3013,178.77,0.98877,-144.404,296
1569658670,304.391,139.75,-17.3013,178.77,0.98877,-144.404,296
1569658670,304.391,139.75,-17.3013,178.77,0.98877,-144.404,296
1569658670,304.391,139.75,-17.3013,178.77,0.98877,-144.404,296
1569658670,304.391,139.75,-17.3013,178.77,0.98877,-144.404,296
1569658670,304.391,139.75,-17.3013,178.77,0.98877,-144.404,296
1569658670,304.391,139.75,-17.3013,178.77,0.98877,-144.404,296
1569658670,304.391,139.75,-17.3013,178.77,0.98877,-144.404,296
1569658670,304.391,139.75,-17.3013,178.792,0.98877,-144.404,296
1569658670,304.391,139.75,-17.3013,178.792,0.98877,-144.404,296
1569658670,304.391,139.75,-17.3013,178.792,0.98877,-144.404,296
1569658671,304.391,139.75,-17.3013,178.792,0.98877,-144.404,296
1569658671,304.391,139.75,-17.3013,178.77,0.98877,-144.404,296
1569658671,304.391,139.75,-17.3013,178.77,0.98877,-144.404,296
1569658671,304.391,139.75,-17.3013,178.77,0.98877,-144.404,296
1569658671,304.391,139.75,-17.3013,178.77,0.98877,-144.404,296
1569658671,304.502,139.75,-17.3013,178.77,0.98877,-144.404,296
1569658671,304.502,139.75,-17.3013,178.77,0.98877,-144.404,296
1569658671,304.502,139.75,-17.3013,178.77,0.98877,-144.404,296
1569658671,304.502,139.75,-17.3013,178.77,0.98877,-144.404,296
1569658671,304.502,139.75,-17.3013,178.77,0.98877,-144.404,296
1569658671,304.502,139.75,-17.3013,178.792,0.98877,-144.404,296
1569658671,304.502,139.75,-17.3013,178.792,0.98877,-144.404,296
1569658671,304.502,139.75,-17.3013,178.792,0.98877,-144.404,296
1569658671,304.502,139.75,-17.3013,178.792,0.98877,-144.404,296
1569658671,304.502,139.861,-17.3013,178.792,0.98877,-144.404,296
1569658671,304.391,139.861,-17.3013,178.792,0.98877,-144.404,296
1569658671,304.391,139.861,-17.3013,178.792,0.98877,-144.404,296
1569658671,304.391,139.861,-17.3013,178.792,0.98877,-144.404,296
1569658671,304.391,139.861,-17.3013,178.792,0.98877,-144.404,300
1569658671,304.391,139.861,-17.3013,178.792,0.98877,-144.404,300
1569658671,304.391,139.861,-17.3013,178.792,0.98877,-144.404,300
1569658671,304.391,139.861,-17.3013,178.792,0.966797,-144.404,300
1569658671,304.391,139.861,-17.3013,178.792,0.966797,-144.404,300
1569658671,304.391,139.861,-17.3013,178.792,0.966797,-144.404,300
1569658671,304.391,139.861,-17.3013,178.792,0.966797,-144.404,300
1569658671,304.391,139.861,-17.3013,178.792,0.966797,-144.404,304
1569658671,304.391,139.75,-17.3013,178.792,0.966797,-144.404,304
1569658671,304.391,139.75,-17.3013,178.792,0.966797,-144.404,304
1569658671,304.391,139.75,-17.3013,178.792,0.966797,-144.404,304
1569658671,304.391,139.75,-17.3013,178.792,0.966797,-144.404,304
1569658671,304.391,139.75,-17.3013,178.792,0.966797,-144.404,304
1569658671,304.391,139.75,-17.3013,178.792,0.966797,-144.404,304
1569658671,304.502,139.75,-17.3013,178.77,0.966797,-144.404,308
1569658671,304.502,139.75,-17.3013,178.77,0.966797,-144.404,308
1569658671,304.502,139.75,-17.3013,178.77,0.966797,-144.404,308
1569658671,304.502,139.75,-17.3013,178.77,0.98877,-144.404,308
1569658671,304.502,139.75,-17.3013,178.77,0.98877,-144.404,308
1569658671,304.502,139.75,-17.3013,178.77,0.98877,-144.404,308
1569658671,304.502,139.75,-17.3013,178.77,0.98877,-144.404,308
1569658671,304.391,139.75,-17.3013,178.77,0.98877,-144.404,308
1569658671,304.391,139.75,-17.3013,178.77,0.98877,-144.404,308
1569658671,304.391,139.75,-17.3013,178.77,0.98877,-144.404,308
1569658671,304.391,139.75,-17.3013,178.77,0.98877,-144.404,308
1569658671,304.391,139.75,-17.3013,178.77,0.98877,-144.404,308
1569658671,304.391,139.75,-17.3013,178.77,0.98877,-144.404,308
1569658671,304.391,139.75,-17.3013,178.77,0.98877,-144.404,308
1569658671,304.391,139.75,-17.3013,178.77,0.98877,-144.404,308
1569658671,304.391,139.75,-17.3013,178.77,0.98877,-144.404,308
1569658671,304.391,139.75,-17.3013,178.77,0.98877,-144.404,308
1569658671,304.391,139.75,-17.3013,178.77,0.98877,-144.404,308
1569658671,304.391,139.75,-17.3013,178.77,0.98877,-144.404,308
1569658671,304.391,139.75,-17.3013,178.77,0.98877,-144.404,308
1569658671,304.391,139.75,-17.3013,178.77,0.98877,-144.404,308
1569658671,304.391,139.75,-17.3013,178.77,0.98877,-144.404,308
1569658671,304.391,139.75,-17.3013,178.77,0.98877,-144.404,308
1569658671,304.391,139.75,-17.3013,178.77,0.98877,-144.404,308
1569658671,304.391,139.75,-17.3013,178.77,0.98877,-144.404,304
1569658671,304.391,139.75,-17.3013,178.77,0.98877,-144.404,304
1569658671,304.391,139.75,-17.3013,178.77,0.98877,-144.404,304
1569658671,304.391,139.75,-17.3013,178.77,0.98877,-144.404,304
1569658671,304.391,139.75,-17.3013,178.77,0.98877,-144.404,304
1569658671,304.391,139.75,-17.3013,178.77,0.98877,-144.404,304
1569658671,304.391,139.75,-17.3013,178.792,0.98877,-144.404,304
1569658671,304.391,139.75,-17.3013,178.792,0.98877,-144.404,304
1569658671,304.391,139.75,-17.3013,178.792,0.98877,-144.404,304
1569658671,304.391,139.75,-17.3013,178.792,0.98877,-144.404,300
1569658671,304.391,139.75,-17.3013,178.792,0.98877,-144.404,300
1569658671,304.391,139.75,-17.3013,178.792,0.98877,-144.404,300
1569658671,304.391,139.75,-17.3013,178.792,0.98877,-144.404,300
1569658671,304.391,139.75,-17.3013,178.792,0.98877,-144.404,300
1569658671,304.391,139.75,-17.3013,178.792,0.98877,-144.404,300
1569658671,304.391,139.75,-17.3013,178.792,0.98877,-144.404,300
1569658671,304.391,139.75,-17.3013,178.792,0.98877,-144.404,300
1569658671,304.391,139.75,-17.3013,178.792,0.98877,-144.404,300
1569658671,304.391,139.75,-17.3013,178.792,0.98877,-144.404,300
1569658676,327.496,115.081,-16.9664,178.813,1.16455,-144.668,348
1569658676,327.496,115.081,-16.9664,178.813,1.16455,-144.668,348
1569658676,327.496,115.081,-16.9664,178.813,1.16455,-144.668,348
1569658676,327.496,115.081,-16.9664,178.813,1.16455,-144.668,348
1569658676,327.496,115.193,-16.9664,178.813,1.16455,-144.668,348
1569658676,327.496,115.193,-16.9664,178.813,1.16455,-144.668,344
1569658676,327.496,115.193,-16.9664,178.813,1.16455,-144.668,344
1569658676,327.496,115.193,-16.9664,178.813,1.16455,-144.668,344
1569658676,327.608,115.193,-16.9664,178.813,1.16455,-144.668,344
1569658676,327.608,115.193,-16.9664,178.813,1.16455,-144.668,344
1569658676,327.608,115.193,-16.9664,178.813,1.16455,-144.646,344
1569658676,327.608,115.193,-16.9664,178.813,1.16455,-144.646,344
1569658676,327.608,115.193,-16.9664,178.813,1.16455,-144.646,344
1569658676,327.608,115.193,-16.9664,178.813,1.16455,-144.668,344
1569658676,327.608,115.193,-16.9664,178.813,1.16455,-144.668,344
1569658676,327.608,115.193,-16.9664,178.813,1.16455,-144.668,344
1569658676,327.608,115.193,-16.9664,178.813,1.16455,-144.668,344
1569658676,327.608,115.193,-16.9664,178.813,1.14258,-144.668,344
1569658676,327.608,115.193,-16.9664,178.813,1.14258,-144.668,344
1569658676,327.608,115.193,-16.9664,178.813,1.14258,-144.668,344
1569658676,327.608,115.193,-16.9664,178.813,1.14258,-144.668,344
1569658676,327.608,115.193,-16.9664,178.813,1.14258,-144.668,344
1569658676,327.608,115.193,-16.9664,178.813,1.14258,-144.668,344
1569658676,327.608,115.193,-16.9664,178.813,1.14258,-144.668,344
1569658676,327.496,115.193,-16.9664,178.813,1.14258,-144.668,344
1569658676,327.496,115.193,-16.9664,178.813,1.16455,-144.668,344
1569658676,327.496,115.193,-16.9664,178.813,1.16455,-144.668,344
1569658676,327.608,115.193,-16.9664,178.813,1.16455,-144.668,344
1569658676,327.608,115.081,-16.9664,178.813,1.16455,-144.668,344
1569658676,327.608,115.081,-16.9664,178.813,1.16455,-144.668,344
1569658676,327.608,115.081,-16.9664,178.813,1.16455,-144.668,344
1569658676,327.496,115.081,-16.9664,178.792,1.16455,-144.668,344
1569658676,327.496,115.081,-16.9664,178.792,1.14258,-144.668,344
1569658676,327.496,115.081,-16.9664,178.792,1.14258,-144.668,344
1569658676,327.496,115.081,-16.9664,178.792,1.14258,-144.668,344
1569658676,327.496,115.081,-16.9664,178.792,1.14258,-144.668,344
1569658676,327.496,115.081,-16.9664,178.792,1.14258,-144.668,344
1569658676,327.496,115.081,-16.9664,178.792,1.14258,-144.668,344
1569658676,327.496,115.081,-16.9664,178.792,1.14258,-144.668,344
1569658676,327.496,115.193,-16.9664,178.813,1.14258,-144.668,344
1569658676,327.496,115.193,-16.9664,178.813,1.14258,-144.668,344
1569658676,327.496,115.193,-16.9664,178.813,1.14258,-144.668,344
1569658676,327.496,115.193,-17.078,178.813,1.14258,-144.668,344
1569658676,327.496,115.193,-17.078,178.813,1.14258,-144.668,344
1569658676,327.496,115.193,-17.078,178.813,1.14258,-144.668,344
1569658676,327.496,115.193,-17.078,178.813,1.14258,-144.668,344
1569658676,327.496,115.193,-17.078,178.813,1.14258,-144.668,344
1569658676,327.496,115.193,-17.078,178.813,1.14258,-144.668,344
1569658676,327.496,115.193,-17.078,178.813,1.14258,-144.668,344
1569658676,327.496,115.193,-17.078,178.813,1.14258,-144.668,344
1569658676,327.496,115.193,-17.078,178.835,1.14258,-144.668,348
1569658676,327.496,115.193,-17.078,178.835,1.14258,-144.668,348
1569658676,327.496,115.193,-17.078,178.835,1.14258,-144.668,348
1569658676,327.496,115.193,-17.078,178.835,1.14258,-144.668,348
1569658676,327.496,115.193,-17.078,178.835,1.14258,-144.668,348
1569658676,327.496,115.193,-17.078,178.835,1.14258,-144.668,348
1569658676,327.496,115.193,-17.078,178.835,1.14258,-144.668,348
1569658676,327.496,115.193,-17.078,178.835,1.14258,-144.668,348
1569658676,327.496,115.193,-17.078,178.835,1.14258,-144.668,348
1569658676,327.496,115.193,-17.078,178.835,1.14258,-144.668,348
1569658676,327.496,115.193,-17.078,178.835,1.14258,-144.668,348
1569658676,327.496,115.193,-17.078,178.835,1.14258,-144.668,348
1569658676,327.496,115.193,-17.078,178.835,1.14258,-144.668,348
1569658676,327.496,115.193,-17.078,178.835,1.14258,-144.668,348
1569658676,327.496,115.193,-17.078,178.835,1.14258,-144.668,348
1569658676,327.496,115.193,-17.078,178.835,1.14258,-144.668,348
1569658676,327.496,115.193,-17.078,178.835,1.14258,-144.668,348
1569658676,327.496,115.193,-16.9664,178.835,1.14258,-144.668,348
1569658676,327.496,115.193,-16.9664,178.835,1.14258,-144.668,348
1569658676,327.496,115.193,-16.9664,178.835,1.14258,-144.668,348
1569658676,327.496,115.193,-16.9664,178.835,1.14258,-144.668,344
1569658676,327.496,115.193,-16.9664,178.835,1.14258,-144.668,344
1569658676,327.496,115.193,-16.9664,178.835,1.14258,-144.668,344
1569658676,327.496,115.193,-16.9664,178.835,1.14258,-144.668,344
1569658676,327.496,115.193,-16.9664,178.835,1.14258,-144.668,344
1569658676,327.496,115.193,-16.9664,178.835,1.14258,-144.668,344
1569658676,327.496,115.193,-16.9664,178.835,1.14258,-144.668,340
1569658677,327.496,115.193,-17.078,178.835,1.14258,-144.668,340
1569658677,327.496,115.193,-17.078,178.835,1.14258,-144.668,340
1569658677,327.496,115.193,-17.078,178.835,1.14258,-144.668,340
1569658677,327.496,115.193,-17.078,178.835,1.14258,-144.668,340
1569658677,327.496,115.193,-17.078,178.835,1.14258,-144.668,340
1569658677,327.496,115.193,-17.078,178.835,1.14258,-144.668,340
1569658677,327.496,115.193,-17.078,178.835,1.14258,-144.668,336
1569658677,327.496,115.193,-17.078,178.835,1.14258,-144.668,336
1569658677,327.496,115.193,-17.078,178.835,1.14258,-144.668,336
1569658677,327.496,115.193,-17.078,178.835,1.14258,-144.668,336
1569658677,327.496,115.193,-17.078,178.835,1.14258,-144.668,336
1569658677,327.496,115.193,-17.078,178.835,1.14258,-144.668,336
1569658677,327.496,115.193,-17.078,178.835,1.14258,-144.668,336
1569658677,327.496,115.193,-17.078,178.835,1.14258,-144.668,336
1569658677,327.496,115.193,-17.078,178.835,1.14258,-144.668,336
1569658677,327.496,115.193,-17.078,178.835,1.14258,-144.668,336
1569658677,327.496,115.193,-17.078,178.835,1.14258,-144.668,332
1569658677,327.496,115.193,-17.078,178.835,1.14258,-144.668,332
1569658677,327.496,115.193,-17.078,178.835,1.14258,-144.668,332
1569658677,327.496,115.193,-17.078,178.835,1.14258,-144.668,332
1569658677,327.496,115.193,-17.078,178.835,1.14258,-144.668,332
1569658677,327.496,115.193,-17.078,178.835,1.14258,-144.668,332
1569658677,327.496,115.193,-16.9664,178.835,1.14258,-144.668,332
1569658677,327.496,115.193,-16.9664,178.835,1.14258,-144.668,332
1569658677,327.496,115.193,-16.9664,178.835,1.14258,-144.668,332
1569658677,327.496,115.193,-16.9664,178.835,1.14258,-144.668,332
1569658677,327.496,115.193,-16.9664,178.835,1.14258,-144.668,332
1569658677,327.496,115.193,-16.9664,178.835,1.14258,-144.668,332
1569658677,327.496,115.193,-16.9664,178.835,1.14258,-144.668,332
1569658677,327.496,115.193,-16.9664,178.835,1.14258,-144.668,332
1569658677,327.496,115.193,-16.9664,178.813,1.14258,-144.668,332
1569658677,327.496,115.193,-16.9664,178.813,1.14258,-144.668,332
1569658677,327.496,115.193,-16.9664,178.813,1.14258,-144.668,332
1569658677,327.496,115.193,-17.078,178.813,1.14258,-144.668,332
1569658677,327.496,115.193,-17.078,178.813,1.14258,-144.668,332
1569658677,327.496,115.193,-17.078,178.813,1.14258,-144.668,332
1569658677,327.496,115.193,-17.078,178.813,1.14258,-144.668,336
1569658677,327.496,115.193,-17.078,178.813,1.14258,-144.668,336
1569658677,327.496,115.193,-17.078,178.813,1.14258,-144.668,336
1569658677,327.496,115.193,-17.078,178.813,1.14258,-144.668,336
1569658677,327.496,115.193,-17.078,178.813,1.12061,-144.668,336
1569658677,327.496,115.081,-17.078,178.813,1.12061,-144.668,336
1569658677,327.496,115.081,-17.078,178.813,1.12061,-144.668,340
1569658677,327.496,115.081,-17.078,178.792,1.12061,-144.668,340
1569658677,327.496,115.081,-17.078,178.792,1.12061,-144.668,340
1569658677,327.496,115.081,-17.078,178.792,1.12061,-144.668,340
1569658677,327.496,115.081,-17.078,178.792,1.12061,-144.668,340
1569658677,327.496,115.081,-17.078,178.792,1.12061,-144.668,340
1569658677,327.496,115.081,-17.078,178.792,1.12061,-144.668,340
1569658677,327.496,115.081,-17.078,178.792,1.12061,-144.668,340
1569658677,327.496,115.081,-17.078,178.792,1.12061,-144.668,340
1569658677,327.496,115.081,-17.078,178.813,1.12061,-144.668,340
1569658677,327.496,115.081,-17.078,178.813,1.12061,-144.668,340
1569658677,327.496,115.193,-17.078,178.813,1.12061,-144.668,340
1569658677,327.496,115.193,-17.078,178.813,1.12061,-144.668,340
1569658677,327.496,115.193,-17.078,178.813,1.12061,-144.668,340
1569658677,327.496,115.193,-17.078,178.813,1.12061,-144.668,340
1569658677,327.496,115.193,-17.078,178.813,1.12061,-144.668,340
1569658677,327.496,115.193,-17.078,178.813,1.12061,-144.668,340
1569658677,327.496,115.193,-17.078,178.813,1.12061,-144.668,340
1569658677,327.496,115.193,-17.078,178.813,1.12061,-144.668,340
1569658677,327.496,115.193,-17.078,178.813,1.12061,-144.668,340
1569658677,327.496,115.193,-17.078,178.813,1.12061,-144.668,340
1569658677,327.496,115.193,-17.078,178.813,1.12061,-144.668,340
1569658677,327.496,115.193,-17.078,178.813,1.12061,-144.668,340
1569658677,327.496,115.193,-17.078,178.835,1.14258,-144.668,340
1569658677,327.496,115.193,-17.078,178.835,1.14258,-144.668,340
1569658677,327.496,115.193,-17.078,178.835,1.14258,-144.668,340
1569658677,327.496,115.193,-17.078,178.835,1.14258,-144.668,340
1569658677,327.496,115.193,-17.078,178.835,1.14258,-144.668,344
1569658677,327.496,115.193,-17.078,178.835,1.14258,-144.668,344
1569658677,327.496,115.193,-17.078,178.835,1.12061,-144.668,344
1569658677,327.496,115.193,-17.078,178.835,1.12061,-144.668,344
1569658677,327.496,115.193,-17.078,178.835,1.12061,-144.668,344
1569658677,327.496,115.193,-17.078,178.835,1.12061,-144.668,344
1569658677,327.496,115.193,-17.078,178.835,1.14258,-144.668,348
1569658677,327.496,115.193,-17.078,178.835,1.14258,-144.668,348
1569658677,327.496,115.193,-17.078,178.835,1.14258,-144.668,348
1569658677,327.496,115.193,-17.078,178.835,1.14258,-144.668,348
1569658677,327.496,115.193,-17.078,178.835,1.14258,-144.668,348
1569658677,327.496,115.193,-17.078,178.835,1.14258,-144.668,348
1569658677,327.496,115.193,-17.078,178.835,1.14258,-144.668,348
1569658677,327.496,115.193,-17.078,178.835,1.14258,-144.668,348
1569658677,327.496,115.193,-17.078,178.835,1.14258,-144.668,348
1569658677,327.496,115.193,-17.078,178.835,1.12061,-144.668,348
1569658677,327.496,115.193,-17.078,178.835,1.12061,-144.668,348
1569658677,327.496,115.193,-17.078,178.813,1.12061,-144.668,348
1569658677,327.496,115.193,-17.078,178.813,1.12061,-144.668,348
1569658677,327.496,115.193,-17.078,178.813,1.12061,-144.668,348
1569658677,327.496,115.193,-17.078,178.813,1.12061,-144.668,348
1569658677,327.496,115.193,-17.078,178.813,1.12061,-144.668,348
1569658677,327.496,115.193,-17.078,178.813,1.12061,-144.668,348
1569658677,327.496,115.193,-17.078,178.813,1.12061,-144.668,348
1569658677,327.496,115.193,-17.078,178.813,1.14258,-144.668,348
1569658677,327.496,115.193,-17.078,178.813,1.14258,-144.668,348
1569658677,327.496,115.193,-17.078,178.813,1.14258,-144.668,348
1569658677,327.496,115.193,-17.078,178.813,1.14258,-144.668,348
1569658677,327.496,115.193,-17.078,178.813,1.14258,-144.668,348
1569658677,327.496,115.193,-17.078,178.813,1.14258,-144.668,348
1569658677,327.496,115.193,-17.078,178.813,1.14258,-144.668,348
1569658678,327.496,115.081,-17.078,178.813,1.14258,-144.668,348
1569658678,327.496,115.081,-17.078,178.813,1.14258,-144.668,348
1569658678,327.496,115.081,-16.9664,178.813,1.14258,-144.668,348
1569658678,327.496,115.081,-16.9664,178.813,1.14258,-144.668,348
1569658678,327.496,115.193,-16.9664,178.813,1.14258,-144.668,348
1569658678,327.496,115.193,-16.9664,178.813,1.14258,-144.668,348
1569658678,327.496,115.193,-16.9664,178.813,1.14258,-144.668,348
1569658678,327.496,115.193,-16.9664,178.813,1.14258,-144.668,348
1569658678,327.496,115.193,-16.9664,178.835,1.14258,-144.668,344
1569658678,327.496,115.193,-16.9664,178.835,1.14258,-144.668,344
1569658678,327.496,115.193,-16.9664,178.835,1.14258,-144.668,344
1569658678,327.496,115.193,-16.9664,178.835,1.14258,-144.668,344
1569658678,327.496,115.193,-16.9664,178.835,1.14258,-144.668,344
1569658678,327.496,115.193,-16.9664,178.835,1.14258,-144.668,340
1569658678,327.496,115.193,-17.078,178.835,1.14258,-144.668,340
1569658678,327.496,115.193,-17.078,178.835,1.14258,-144.69,340
1569658678,327.608,115.193,-17.078,178.813,1.14258,-144.69,340
1569658678,327.608,115.193,-17.078,178.813,1.14258,-144.69,340
1569658678,327.608,115.193,-17.078,178.813,1.14258,-144.69,340
1569658678,327.608,115.193,-17.078,178.813,1.14258,-144.69,340
1569658678,327.608,115.193,-17.078,178.813,1.14258,-144.69,340
1569658678,327.608,115.193,-17.078,178.813,1.14258,-144.69,340
1569658678,327.608,115.193,-17.078,178.813,1.14258,-144.668,340
1569658678,327.608,115.193,-17.078,178.813,1.14258,-144.668,340
1569658678,327.608,115.081,-17.078,178.813,1.14258,-144.668,340
1569658678,327.608,115.081,-17.078,178.813,1.14258,-144.668,340
1569658678,327.608,115.081,-17.078,178.813,1.14258,-144.668,340
1569658678,327.608,115.081,-17.078,178.813,1.14258,-144.668,340
1569658678,327.608,115.081,-17.078,178.813,1.14258,-144.668,340
1569658678,327.608,115.081,-17.078,178.813,1.14258,-144.69,340
1569658678,327.608,115.081,-17.078,178.813,1.14258,-144.69,340
1569658678,327.608,115.081,-17.078,178.813,1.14258,-144.69,344
1569658678,327.608,115.081,-17.078,178.813,1.14258,-144.69,344
1569658678,327.608,115.081,-16.9664,178.813,1.14258,-144.69,344
1569658678,327.608,115.081,-16.9664,178.813,1.14258,-144.69,344
1569658678,327.608,115.081,-16.9664,178.813,1.14258,-144.69,344
1569658678,327.608,115.081,-16.9664,178.813,1.14258,-144.69,344
1569658678,327.608,115.081,-16.9664,178.813,1.14258,-144.69,344
1569658678,327.608,115.081,-16.9664,178.813,1.14258,-144.69,344
1569658678,327.608,115.081,-16.9664,178.792,1.14258,-144.69,344
1569658678,327.608,115.081,-16.9664,178.792,1.14258,-144.69,344
1569658678,327.608,115.081,-16.9664,178.792,1.14258,-144.69,344
1569658678,327.608,115.081,-16.9664,178.792,1.16455,-144.69,344
1569658678,327.608,115.081,-16.9664,178.792,1.16455,-144.69,340
1569658678,327.608,115.081,-16.9664,178.792,1.16455,-144.69,340
1569658678,327.608,115.081,-16.9664,178.792,1.16455,-144.69,340
1569658678,327.608,115.081,-16.9664,178.792,1.16455,-144.69,340
1569658678,327.608,115.081,-16.9664,178.813,1.16455,-144.69,340
1569658678,327.608,115.081,-16.9664,178.813,1.16455,-144.69,340
1569658678,327.608,115.081,-16.9664,178.813,1.16455,-144.69,340
1569658678,327.608,115.081,-16.9664,178.813,1.16455,-144.69,340
1569658678,327.608,115.193,-16.9664,178.813,1.16455,-144.69,340
1569658678,327.608,115.193,-16.9664,178.813,1.14258,-144.69,340
1569658678,327.608,115.081,-17.078,178.813,1.14258,-144.69,340
1569658678,327.608,115.081,-17.078,178.813,1.14258,-144.668,340
1569658678,327.608,115.081,-17.078,178.813,1.14258,-144.668,340
1569658678,327.608,115.081,-17.078,178.813,1.14258,-144.668,340
1569658678,327.608,115.081,-17.078,178.813,1.14258,-144.668,340
1569658678,327.608,115.081,-17.078,178.813,1.14258,-144.668,340
1569658678,327.608,115.081,-17.078,178.813,1.14258,-144.668,340
1569658678,327.496,115.081,-17.078,178.813,1.12061,-144.668,340
1569658678,327.496,115.081,-17.078,178.813,1.12061,-144.668,344
1569658678,327.496,115.081,-17.078,178.813,1.12061,-144.668,344
1569658678,327.496,115.081,-17.078,178.813,1.12061,-144.668,344
1569658678,327.496,115.081,-17.078,178.813,1.12061,-144.668,344
1569658678,327.496,115.081,-17.078,178.813,1.12061,-144.668,344
1569658678,327.496,115.081,-17.078,178.813,1.12061,-144.668,344
1569658678,327.496,115.081,-17.078,178.813,1.12061,-144.668,344
1569658678,327.496,115.193,-17.078,178.813,1.12061,-144.668,344
1569658678,327.496,115.193,-17.078,178.813,1.12061,-144.668,344
1569658678,327.496,115.193,-17.078,178.813,1.12061,-144.668,344
1569658678,327.496,115.193,-17.078,178.813,1.12061,-144.668,344
1569658678,327.496,115.081,-17.078,178.813,1.12061,-144.668,344
1569658678,327.496,115.081,-17.078,178.813,1.12061,-144.668,344
1569658678,327.496,115.081,-17.078,178.813,1.12061,-144.668,344
1569658678,327.496,115.081,-17.078,178.813,1.12061,-144.668,344
1569658678,327.496,115.081,-17.078,178.813,1.12061,-144.668,344
1569658678,327.496,115.081,-17.078,178.813,1.12061,-144.668,344
1569658678,327.496,115.081,-17.078,178.813,1.12061,-144.668,344
1569658678,327.496,115.081,-17.078,178.813,1.12061,-144.668,344
1569658678,327.496,115.081,-17.078,178.813,1.12061,-144.668,344
1569658678,327.496,115.081,-17.078,178.813,1.12061,-144.69,344
1569658678,327.496,115.081,-17.078,178.813,1.12061,-144.69,344
1569658678,327.496,115.081,-17.078,178.813,1.12061,-144.69,344
1569658678,327.496,115.081,-17.078,178.813,1.12061,-144.69,344
1569658678,327.496,115.081,-17.078,178.813,1.12061,-144.69,344
1569658678,327.496,115.081,-17.078,178.813,1.12061,-144.69,344
1569658678,327.496,115.081,-17.078,178.813,1.12061,-144.69,344
1569658678,327.496,115.081,-17.078,178.813,1.12061,-144.69,340
1569658678,327.496,115.081,-17.078,178.813,1.12061,-144.69,340
1569658678,327.496,115.081,-17.078,178.813,1.12061,-144.69,340
1569658678,327.496,115.081,-17.078,178.813,1.12061,-144.69,340
1569658678,327.496,115.081,-17.078,178.813,1.12061,-144.69,340
1569658678,327.496,115.081,-17.078,178.813,1.12061,-144.69,340
1569658678,327.496,115.081,-17.078,178.813,1.12061,-144.69,340
1569658678,327.496,115.081,-17.078,178.813,1.12061,-144.69,340
1569658678,327.496,115.081,-17.078,178.813,1.12061,-144.69,340
1569658678,327.496,115.081,-17.078,178.813,1.12061,-144.69,340
1569658678,327.496,115.081,-17.078,178.813,1.12061,-144.69,340
1569658678,327.496,115.081,-17.078,178.813,1.12061,-144.69,344
1569658679,327.496,115.081,-17.078,178.813,1.12061,-144.69,344
1569658679,327.496,115.081,-17.078,178.813,1.12061,-144.69,344
1569658679,327.496,115.081,-17.078,178.813,1.12061,-144.69,344
1569658679,327.496,115.081,-17.078,178.813,1.12061,-144.69,344
1569658679,327.496,115.081,-17.078,178.813,1.12061,-144.69,344
1569658679,327.496,115.081,-17.078,178.813,1.12061,-144.69,344
1569658679,327.496,115.081,-17.078,178.813,1.12061,-144.69,344
1569658679,327.496,115.081,-16.9664,178.813,1.14258,-144.69,344
1569658679,327.496,115.081,-16.9664,178.813,1.14258,-144.69,344
1569658679,327.496,115.081,-16.9664,178.813,1.14258,-144.69,348
1569658679,327.496,115.081,-16.9664,178.813,1.14258,-144.69,348
1569658679,327.496,115.081,-16.9664,178.813,1.14258,-144.69,348
1569658679,327.496,115.081,-16.9664,178.813,1.14258,-144.69,348
1569658679,327.496,115.081,-16.9664,178.813,1.14258,-144.69,348
1569658679,327.496,115.081,-16.9664,178.813,1.14258,-144.69,348
1569658679,327.496,115.193,-16.9664,178.813,1.14258,-144.69,348
1569658679,327.496,115.193,-16.9664,178.813,1.14258,-144.69,348
1569658679,327.496,115.193,-17.078,178.813,1.14258,-144.69,344
1569658679,327.496,115.193,-17.078,178.813,1.14258,-144.69,344
1569658679,327.496,115.193,-17.078,178.813,1.12061,-144.69,344
1569658679,327.496,115.193,-17.078,178.813,1.12061,-144.69,344
1569658679,327.496,115.193,-17.078,178.813,1.12061,-144.69,344
1569658679,327.496,115.193,-17.078,178.813,1.12061,-144.69,344
1569658679,327.608,115.193,-17.078,178.813,1.12061,-144.69,340
1569658679,327.608,115.193,-17.078,178.813,1.12061,-144.69,340
1569658679,327.608,115.193,-17.078,178.813,1.12061,-144.69,340
1569658679,327.608,115.193,-17.078,178.813,1.12061,-144.69,340
1569658679,327.608,115.193,-17.078,178.813,1.12061,-144.69,336
1569658679,327.608,115.193,-17.078,178.835,1.12061,-144.69,336
1569658679,327.608,115.193,-17.078,178.835,1.12061,-144.69,336
1569658679,327.608,115.193,-17.078,178.835,1.12061,-144.69,336
1569658679,327.608,115.193,-17.078,178.835,1.12061,-144.69,336
1569658679,327.496,115.193,-17.078,178.835,1.12061,-144.69,336
1569658679,327.496,115.193,-17.078,178.835,1.12061,-144.69,336
1569658679,327.496,115.193,-17.078,178.813,1.12061,-144.69,336
1569658679,327.496,115.193,-17.078,178.813,1.12061,-144.69,336
1569658679,327.496,115.193,-17.078,178.813,1.12061,-144.69,336
1569658679,327.496,115.193,-17.078,178.813,1.12061,-144.69,336
1569658679,327.496,115.193,-17.078,178.813,1.12061,-144.69,336
1569658679,327.496,115.193,-17.078,178.813,1.12061,-144.69,336
1569658679,327.496,115.193,-17.078,178.813,1.12061,-144.69,336
1569658679,327.496,115.193,-17.078,178.813,1.12061,-144.69,336
1569658679,327.496,115.193,-17.078,178.813,1.12061,-144.69,336
1569658679,327.496,115.193,-17.078,178.813,1.12061,-144.69,336
1569658679,327.496,115.193,-17.078,178.813,1.12061,-144.69,336
1569658679,327.496,115.193,-17.078,178.813,1.12061,-144.69,340
1569658679,327.496,115.193,-17.078,178.813,1.14258,-144.69,340
1569658679,327.496,115.081,-17.078,178.813,1.14258,-144.69,340
1569658679,327.496,115.081,-17.078,178.813,1.14258,-144.69,340
1569658679,327.496,115.081,-16.9664,178.813,1.14258,-144.69,340
1569658679,327.496,115.081,-16.9664,178.813,1.14258,-144.69,340
1569658679,327.496,115.081,-16.9664,178.813,1.14258,-144.69,340
1569658679,327.496,115.193,-16.9664,178.813,1.14258,-144.69,340
1569658679,327.496,115.193,-16.9664,178.813,1.14258,-144.69,340
1569658679,327.496,115.193,-16.9664,178.813,1.14258,-144.69,340
1569658679,327.496,115.193,-16.9664,178.813,1.14258,-144.69,340
1569658679,327.496,115.193,-16.9664,178.813,1.14258,-144.69,340
1569658679,327.496,115.193,-16.9664,178.813,1.14258,-144.69,340
1569658679,327.496,115.193,-17.078,178.813,1.14258,-144.668,340
1569658679,327.496,115.193,-17.078,178.813,1.14258,-144.668,340
1569658679,327.496,115.193,-17.078,178.813,1.14258,-144.668,340
1569658679,327.496,115.193,-17.078,178.813,1.14258,-144.668,340
1569658679,327.496,115.193,-17.078,178.813,1.12061,-144.668,340
1569658679,327.496,115.193,-17.078,178.813,1.12061,-144.69,340
1569658679,327.496,115.193,-17.078,178.813,1.12061,-144.69,340
1569658679,327.496,115.193,-17.078,178.813,1.12061,-144.69,340
1569658679,327.496,115.193,-17.078,178.813,1.12061,-144.69,340
1569658679,327.496,115.193,-17.078,178.813,1.12061,-144.69,340
1569658679,327.496,115.193,-17.078,178.813,1.12061,-144.69,340
1569658679,327.496,115.193,-17.078,178.813,1.12061,-144.69,340
1569658679,327.496,115.193,-17.078,178.813,1.12061,-144.69,340
1569658679,327.496,115.193,-17.078,178.813,1.12061,-144.69,340
1569658679,327.496,115.193,-17.078,178.813,1.12061,-144.69,344
1569658679,327.496,115.193,-17.078,178.813,1.12061,-144.69,344
1569658679,327.496,115.193,-17.078,178.813,1.12061,-144.69,344
1569658679,327.496,115.193,-17.078,178.813,1.12061,-144.668,344
1569658679,327.496,115.193,-17.078,178.813,1.12061,-144.668,344
1569658679,327.496,115.193,-17.078,178.813,1.12061,-144.668,344
1569658679,327.496,115.193,-17.078,178.813,1.12061,-144.668,344
1569658679,327.496,115.193,-17.078,178.813,1.12061,-144.668,344
1569658679,327.496,115.193,-17.078,178.813,1.12061,-144.668,344
1569658679,327.496,115.193,-17.078,178.813,1.12061,-144.668,344
1569658679,327.496,115.193,-17.078,178.813,1.12061,-144.668,344
1569658679,327.496,115.193,-17.078,178.813,1.12061,-144.668,344
1569658679,327.496,115.193,-17.078,178.813,1.12061,-144.668,344
1569658679,327.496,115.193,-17.078,178.813,1.12061,-144.668,344
1569658679,327.496,115.081,-17.078,178.813,1.12061,-144.668,344
1569658679,327.496,115.081,-17.078,178.813,1.12061,-144.668,344
1569658679,327.496,115.081,-17.078,178.813,1.12061,-144.668,344
1569658679,327.496,115.081,-17.078,178.813,1.12061,-144.668,344
1569658679,327.496,115.081,-17.078,178.813,1.12061,-144.668,344
1569658679,327.496,115.081,-17.078,178.792,1.12061,-144.668,344
1569658679,327.496,115.081,-17.078,178.792,1.12061,-144.668,344
1569658679,327.496,115.081,-17.078,178.792,1.12061,-144.668,344
1569658679,327.496,115.081,-17.078,178.792,1.12061,-144.668,344
1569658679,327.496,115.081,-17.078,178.792,1.12061,-144.668,344
1569658679,327.496,115.081,-17.078,178.792,1.12061,-144.668,348
1569658679,327.496,115.081,-17.078,178.792,1.12061,-144.668,348
1569658679,327.496,115.081,-17.078,178.792,1.12061,-144.668,348
1569658679,327.496,115.081,-17.078,178.792,1.12061,-144.668,348
1569658680,327.496,115.081,-17.078,178.792,1.12061,-144.668,348
1569658680,327.496,115.081,-17.078,178.792,1.12061,-144.668,348
1569658680,327.496,114.97,-17.078,178.77,1.12061,-144.69,348
1569658680,327.496,114.97,-17.078,178.77,1.12061,-144.69,348
1569658680,327.496,114.97,-17.078,178.77,1.12061,-144.69,348
1569658680,327.496,115.081,-17.078,178.77,1.12061,-144.69,352
1569658680,327.496,115.081,-17.078,178.792,1.12061,-144.69,352
1569658680,327.496,115.081,-17.078,178.792,1.12061,-144.668,352
1569658680,327.496,115.081,-17.078,178.792,1.12061,-144.668,352
1569658680,327.496,115.081,-17.078,178.792,1.12061,-144.668,352
1569658680,327.496,115.081,-17.078,178.792,1.12061,-144.668,352
1569658680,327.608,115.081,-17.078,178.792,1.12061,-144.668,352
1569658680,327.608,115.081,-17.078,178.792,1.12061,-144.668,352
1569658680,327.608,115.081,-17.078,178.792,1.12061,-144.668,352
1569658680,327.608,115.081,-17.078,178.792,1.12061,-144.668,352
1569658680,327.608,115.081,-17.078,178.792,1.12061,-144.668,352
1569658680,327.608,115.081,-17.078,178.792,1.12061,-144.668,352
1569658680,327.608,115.081,-17.078,178.792,1.12061,-144.668,352
1569658680,327.608,115.081,-17.078,178.792,1.12061,-144.668,352
1569658680,327.608,115.081,-17.078,178.792,1.14258,-144.668,352
1569658680,327.608,115.081,-17.078,178.792,1.14258,-144.668,352
1569658680,327.608,115.081,-17.078,178.792,1.14258,-144.668,352
1569658680,327.496,115.081,-17.078,178.792,1.14258,-144.668,352
1569658680,327.496,115.081,-16.9664,178.792,1.14258,-144.668,352
1569658680,327.496,115.081,-16.9664,178.792,1.14258,-144.668,352
1569658680,327.496,115.081,-16.9664,178.792,1.14258,-144.668,352
1569658680,327.496,115.081,-16.9664,178.792,1.14258,-144.69,352
1569658680,327.496,115.081,-16.9664,178.792,1.14258,-144.69,352
1569658680,327.496,115.081,-16.9664,178.792,1.16455,-144.69,352
1569658680,327.496,115.081,-16.9664,178.792,1.16455,-144.69,352
1569658680,327.496,115.081,-16.9664,178.792,1.16455,-144.69,352
1569658680,327.496,115.081,-16.9664,178.792,1.16455,-144.69,352
1569658680,327.496,115.081,-16.9664,178.792,1.16455,-144.69,352
1569658680,327.496,115.081,-16.9664,178.792,1.16455,-144.69,352
1569658680,327.496,115.081,-16.9664,178.792,1.16455,-144.69,352
1569658680,327.496,115.081,-16.9664,178.792,1.16455,-144.69,352
1569658680,327.496,115.081,-16.9664,178.792,1.16455,-144.69,352
1569658680,327.496,115.081,-16.9664,178.792,1.16455,-144.69,352
1569658680,327.496,115.081,-16.9664,178.792,1.16455,-144.69,352
1569658680,327.496,115.081,-16.9664,178.792,1.16455,-144.69,352
1569658680,327.496,115.081,-16.9664,178.792,1.16455,-144.69,352
1569658680,327.496,115.081,-16.9664,178.792,1.16455,-144.69,352
1569658680,327.496,115.081,-16.9664,178.792,1.16455,-144.69,352
1569658680,327.496,115.081,-16.9664,178.792,1.16455,-144.69,352
1569658680,327.496,115.081,-16.9664,178.792,1.16455,-144.69,352
1569658680,327.496,115.081,-16.9664,178.792,1.16455,-144.69,352
1569658680,327.496,115.081,-16.9664,178.792,1.16455,-144.69,352
1569658680,327.496,115.081,-16.9664,178.792,1.16455,-144.69,352
1569658680,327.496,115.081,-16.9664,178.792,1.16455,-144.668,352
1569658680,327.496,115.081,-16.9664,178.792,1.14258,-144.668,352
1569658680,327.496,115.081,-16.9664,178.792,1.14258,-144.668,352
1569658680,327.496,115.081,-16.9664,178.792,1.14258,-144.668,348
1569658680,327.496,115.081,-16.9664,178.792,1.14258,-144.668,348
1569658680,327.496,115.081,-16.9664,178.792,1.14258,-144.668,348
1569658680,327.608,115.081,-16.9664,178.813,1.14258,-144.668,348
1569658680,327.608,115.193,-16.9664,178.813,1.14258,-144.668,348
1569658680,327.608,115.193,-16.9664,178.813,1.14258,-144.668,348
1569658680,327.608,115.193,-16.9664,178.813,1.14258,-144.668,348
1569658680,327.608,115.193,-16.9664,178.813,1.14258,-144.668,344
1569658680,327.608,115.193,-16.9664,178.813,1.14258,-144.668,344
1569658680,327.608,115.193,-16.9664,178.813,1.14258,-144.668,344
1569658680,327.608,115.193,-16.9664,178.813,1.14258,-144.668,344
1569658680,327.608,115.193,-17.078,178.813,1.14258,-144.668,340
1569658680,327.608,115.193,-17.078,178.813,1.12061,-144.668,340
1569658680,327.608,115.193,-17.078,178.813,1.12061,-144.668,340
1569658680,327.608,115.193,-17.078,178.813,1.12061,-144.668,336
1569658680,327.608,115.193,-17.078,178.813,1.12061,-144.668,336
1569658680,327.608,115.193,-17.078,178.813,1.12061,-144.668,336
1569658680,327.608,115.193,-17.078,178.813,1.12061,-144.668,336
1569658680,327.608,115.193,-17.078,178.813,1.12061,-144.668,336
1569658680,327.608,115.193,-17.078,178.813,1.12061,-144.668,336
1569658680,327.608,115.193,-17.078,178.813,1.12061,-144.668,336
1569658680,327.608,115.081,-17.078,178.813,1.12061,-144.668,336
1569658680,327.608,115.081,-17.078,178.813,1.12061,-144.668,336
1569658680,327.608,115.081,-17.078,178.813,1.12061,-144.668,336
1569658680,327.608,115.081,-17.078,178.813,1.12061,-144.668,336
1569658680,327.496,115.081,-17.078,178.813,1.12061,-144.668,336
1569658680,327.496,115.081,-17.078,178.813,1.12061,-144.668,336
1569658680,327.496,115.081,-17.078,178.813,1.12061,-144.668,336
1569658680,327.496,115.081,-17.078,178.813,1.12061,-144.668,336
1569658680,327.496,115.081,-17.078,178.813,1.12061,-144.668,340
1569658680,327.496,115.081,-17.078,178.813,1.12061,-144.668,340
1569658680,327.496,115.081,-17.078,178.813,1.12061,-144.668,340
1569658680,327.496,115.081,-17.078,178.813,1.12061,-144.668,340
1569658680,327.496,115.081,-17.078,178.813,1.12061,-144.668,340
1569658680,327.496,115.081,-17.078,178.813,1.12061,-144.668,340
1569658680,327.496,115.081,-17.078,178.813,1.12061,-144.668,340
1569658680,327.496,115.081,-17.078,178.813,1.12061,-144.668,340
1569658680,327.496,115.081,-17.078,178.813,1.12061,-144.668,340
1569658680,327.608,115.081,-17.078,178.813,1.12061,-144.668,340
1569658680,327.608,115.081,-17.078,178.813,1.12061,-144.668,340
1569658680,327.608,115.081,-17.078,178.813,1.12061,-144.668,340
1569658680,327.608,115.081,-17.078,178.813,1.14258,-144.69,340
1569658680,327.608,115.081,-17.078,178.813,1.14258,-144.69,340
1569658680,327.608,115.081,-17.078,178.813,1.14258,-144.69,340
1569658680,327.608,115.081,-17.078,178.813,1.14258,-144.69,340
1569658680,327.608,115.081,-17.078,178.813,1.14258,-144.69,340
1569658680,327.608,115.081,-17.078,178.813,1.12061,-144.69,340
1569658680,327.608,115.193,-17.078,178.813,1.12061,-144.69,340
1569658680,327.608,115.193,-17.078,178.813,1.12061,-144.69,340
1569658681,327.608,115.193,-17.078,178.792,1.12061,-144.69,340
1569658681,327.608,115.193,-17.078,178.792,1.12061,-144.69,340
1569658681,327.608,115.193,-17.078,178.792,1.12061,-144.69,340
1569658681,327.608,115.193,-17.078,178.792,1.12061,-144.69,340
1569658681,327.608,115.193,-17.078,178.792,1.14258,-144.69,340
1569658681,327.608,115.193,-17.078,178.792,1.14258,-144.69,340
1569658681,327.608,115.081,-17.078,178.792,1.14258,-144.69,340
1569658681,327.608,115.081,-17.078,178.792,1.14258,-144.69,340
1569658681,327.608,115.081,-17.078,178.792,1.14258,-144.69,340
1569658681,327.608,115.081,-17.078,178.792,1.14258,-144.69,340
1569658681,327.608,115.081,-17.078,178.792,1.14258,-144.69,340
1569658681,327.608,115.081,-17.078,178.792,1.14258,-144.69,340
1569658681,327.608,115.081,-17.078,178.792,1.14258,-144.69,340
1569658681,327.608,115.081,-17.078,178.792,1.14258,-144.69,340
1569658681,327.608,115.081,-17.078,178.792,1.14258,-144.69,340
1569658681,327.608,115.081,-17.078,178.792,1.14258,-144.69,340
1569658681,327.608,115.081,-17.078,178.792,1.14258,-144.69,340
1569658681,327.608,115.081,-16.9664,178.792,1.14258,-144.69,340
1569658681,327.608,115.081,-16.9664,178.792,1.14258,-144.69,340
1569658681,327.608,115.081,-16.9664,178.792,1.14258,-144.69,340
1569658681,327.608,115.081,-16.9664,178.792,1.14258,-144.69,340
1569658681,327.608,115.081,-16.9664,178.792,1.16455,-144.69,340
1569658681,327.608,115.081,-16.9664,178.792,1.16455,-144.668,344
1569658686,365.894,74.228,-16.2967,178.923,1.58203,-144.734,420
1569658686,365.894,74.3396,-16.2967,178.923,1.58203,-144.734,424
1569658686,365.894,74.3396,-16.2967,178.923,1.56006,-144.734,424
1569658686,365.894,74.3396,-16.2967,178.923,1.56006,-144.734,424
1569658686,365.894,74.3396,-16.2967,178.901,1.56006,-144.734,424
1569658686,365.894,74.3396,-16.2967,178.901,1.56006,-144.734,424
1569658686,365.894,74.3396,-16.2967,178.901,1.56006,-144.734,424
1569658686,366.006,74.3396,-16.2967,178.901,1.56006,-144.734,420
1569658686,366.006,74.3396,-16.2967,178.901,1.56006,-144.734,420
1569658686,366.006,74.3396,-16.2967,178.901,1.56006,-144.756,420
1569658686,366.006,74.3396,-16.2967,178.901,1.56006,-144.756,420
1569658686,366.006,74.228,-16.2967,178.901,1.56006,-144.756,420
1569658686,366.006,74.228,-16.2967,178.901,1.56006,-144.756,416
1569658686,366.006,74.228,-16.2967,178.901,1.56006,-144.756,416
1569658686,366.006,74.228,-16.2967,178.901,1.56006,-144.756,416
1569658686,366.006,74.228,-16.2967,178.901,1.56006,-144.756,416
1569658686,366.006,74.228,-16.2967,178.901,1.56006,-144.756,416
1569658686,366.006,74.228,-16.2967,178.901,1.56006,-144.756,416
1569658686,366.006,74.228,-16.2967,178.901,1.56006,-144.756,416
1569658686,366.006,74.228,-16.2967,178.901,1.56006,-144.756,416
1569658686,366.006,74.228,-16.2967,178.901,1.56006,-144.756,416
1569658686,366.006,74.228,-16.2967,178.901,1.58203,-144.756,416
1569658686,366.006,74.228,-16.2967,178.901,1.58203,-144.756,412
1569658686,366.006,74.3396,-16.2967,178.901,1.58203,-144.756,412
1569658686,366.006,74.3396,-16.2967,178.901,1.58203,-144.756,412
1569658686,366.006,74.228,-16.2967,178.901,1.58203,-144.756,412
1569658686,366.006,74.228,-16.2967,178.901,1.58203,-144.756,412
1569658686,366.006,74.228,-16.2967,178.901,1.58203,-144.756,412
1569658686,366.006,74.228,-16.2967,178.901,1.58203,-144.756,412
1569658686,366.006,74.228,-16.2967,178.901,1.58203,-144.756,412
1569658686,366.006,74.228,-16.2967,178.901,1.58203,-144.734,412
1569658686,366.006,74.228,-16.2967,178.901,1.58203,-144.734,412
1569658686,366.006,74.228,-16.2967,178.901,1.58203,-144.734,412
1569658686,366.006,74.228,-16.2967,178.901,1.58203,-144.734,412
1569658686,366.006,74.228,-16.2967,178.901,1.58203,-144.734,412
1569658686,366.006,74.228,-16.2967,178.901,1.604,-144.734,412
1569658686,366.006,74.228,-16.2967,178.901,1.604,-144.734,412
1569658686,366.006,74.228,-16.2967,178.901,1.604,-144.734,412
1569658686,366.006,74.228,-16.2967,178.901,1.604,-144.734,412
1569658686,366.006,74.228,-16.2967,178.901,1.604,-144.734,412
1569658686,366.006,74.228,-16.2967,178.901,1.604,-144.712,416
1569658686,366.006,74.228,-16.2967,178.901,1.604,-144.712,416
1569658686,366.006,74.228,-16.2967,178.901,1.604,-144.712,416
1569658686,366.006,74.228,-16.2967,178.901,1.604,-144.712,416
1569658686,366.006,74.228,-16.2967,178.901,1.604,-144.712,416
1569658686,366.006,74.228,-16.2967,178.901,1.604,-144.712,416
1569658686,366.006,74.228,-16.2967,178.901,1.604,-144.712,416
1569658686,366.006,74.228,-16.2967,178.901,1.58203,-144.712,416
1569658686,365.894,74.228,-16.2967,178.879,1.58203,-144.712,416
1569658686,365.894,74.228,-16.2967,178.879,1.58203,-144.712,416
1569658686,365.894,74.228,-16.2967,178.879,1.58203,-144.712,416
1569658686,366.006,74.228,-16.2967,178.879,1.58203,-144.712,420
1569658686,366.006,74.228,-16.2967,178.879,1.58203,-144.712,420
1569658686,366.006,74.228,-16.2967,178.879,1.58203,-144.712,420
1569658686,366.006,74.228,-16.2967,178.879,1.58203,-144.712,420
1569658686,366.006,74.228,-16.2967,178.879,1.56006,-144.734,420
1569658686,366.006,74.228,-16.2967,178.879,1.56006,-144.734,420
1569658686,366.006,74.228,-16.2967,178.879,1.56006,-144.734,420
1569658686,366.006,74.228,-16.2967,178.879,1.56006,-144.734,420
1569658686,366.006,74.1164,-16.2967,178.879,1.56006,-144.734,420
1569658686,366.006,74.1164,-16.2967,178.879,1.56006,-144.734,420
1569658686,366.006,74.1164,-16.4083,178.879,1.56006,-144.734,420
1569658686,366.006,74.1164,-16.4083,178.879,1.56006,-144.734,420
1569658686,366.006,74.228,-16.4083,178.879,1.56006,-144.734,420
1569658686,366.006,74.228,-16.4083,178.879,1.56006,-144.734,416
1569658686,366.006,74.228,-16.4083,178.879,1.56006,-144.734,416
1569658686,366.006,74.228,-16.4083,178.879,1.56006,-144.734,416
1569658686,366.006,74.228,-16.4083,178.879,1.53809,-144.734,412
1569658686,366.006,74.228,-16.4083,178.879,1.53809,-144.734,412
1569658686,366.006,74.228,-16.4083,178.879,1.53809,-144.734,412
1569658686,366.006,74.228,-16.4083,178.879,1.53809,-144.734,408
1569658686,366.006,74.228,-16.4083,178.879,1.53809,-144.734,408
1569658686,366.006,74.228,-16.4083,178.901,1.53809,-144.734,408
1569658686,366.006,74.228,-16.4083,178.901,1.53809,-144.734,408
1569658687,366.006,74.228,-16.4083,178.901,1.53809,-144.734,404
1569658687,366.006,74.228,-16.4083,178.901,1.56006,-144.734,404
1569658687,366.006,74.228,-16.4083,178.901,1.56006,-144.712,404
1569658687,366.006,74.228,-16.4083,178.901,1.56006,-144.712,404
1569658687,366.006,74.228,-16.4083,178.901,1.56006,-144.734,404
1569658687,366.006,74.228,-16.4083,178.901,1.56006,-144.734,404
1569658687,366.006,74.228,-16.2967,178.901,1.56006,-144.734,404
1569658687,366.006,74.228,-16.2967,178.901,1.56006,-144.734,404
1569658687,366.006,74.228,-16.2967,178.901,1.58203,-144.734,404
1569658687,366.006,74.228,-16.2967,178.901,1.58203,-144.734,404
1569658687,366.006,74.228,-16.2967,178.901,1.58203,-144.734,404
1569658687,366.006,74.228,-16.2967,178.901,1.58203,-144.734,404
1569658687,366.006,74.228,-16.2967,178.901,1.58203,-144.734,404
1569658687,366.006,74.228,-16.2967,178.901,1.58203,-144.734,404
1569658687,366.006,74.228,-16.2967,178.901,1.58203,-144.734,404
1569658687,366.006,74.228,-16.2967,178.901,1.58203,-144.734,404
1569658687,366.006,74.228,-16.2967,178.901,1.58203,-144.734,408
1569658687,366.006,74.228,-16.2967,178.901,1.58203,-144.734,408
1569658687,366.006,74.228,-16.2967,178.901,1.58203,-144.734,408
1569658687,366.006,74.228,-16.2967,178.901,1.58203,-144.734,408
1569658687,366.006,74.228,-16.2967,178.901,1.58203,-144.734,408
1569658687,366.006,74.228,-16.2967,178.901,1.58203,-144.734,408
1569658687,366.006,74.228,-16.2967,178.901,1.58203,-144.734,408
1569658687,365.894,74.228,-16.2967,178.901,1.58203,-144.734,412
1569658687,365.894,74.228,-16.2967,178.901,1.58203,-144.734,412
1569658687,365.894,74.228,-16.2967,178.901,1.58203,-144.734,412
1569658687,365.894,74.228,-16.2967,178.901,1.58203,-144.734,412
1569658687,366.006,74.228,-16.2967,178.901,1.58203,-144.734,412
1569658687,366.006,74.228,-16.2967,178.901,1.58203,-144.734,412
1569658687,366.006,74.228,-16.2967,178.901,1.58203,-144.734,416
1569658687,366.006,74.228,-16.2967,178.901,1.58203,-144.734,416
1569658687,366.006,74.228,-16.2967,178.901,1.58203,-144.734,416
1569658687,366.006,74.228,-16.2967,178.901,1.58203,-144.734,416
1569658687,366.006,74.228,-16.2967,178.901,1.58203,-144.734,416
1569658687,366.006,74.228,-16.2967,178.901,1.58203,-144.734,416
1569658687,366.006,74.228,-16.2967,178.901,1.58203,-144.734,416
1569658687,366.006,74.228,-16.2967,178.901,1.58203,-144.734,416
1569658687,366.006,74.228,-16.2967,178.901,1.58203,-144.734,420
1569658687,366.006,74.228,-16.2967,178.901,1.58203,-144.734,420
1569658687,366.006,74.228,-16.2967,178.901,1.56006,-144.734,420
1569658687,366.006,74.228,-16.2967,178.901,1.56006,-144.734,420
1569658687,366.006,74.228,-16.2967,178.901,1.56006,-144.734,420
1569658687,366.006,74.228,-16.2967,178.901,1.56006,-144.734,420
1569658687,366.006,74.228,-16.2967,178.901,1.56006,-144.734,420
1569658687,366.006,74.228,-16.2967,178.901,1.58203,-144.734,424
1569658687,366.006,74.228,-16.2967,178.901,1.58203,-144.734,424
1569658687,366.006,74.228,-16.2967,178.901,1.58203,-144.734,424
1569658687,366.006,74.228,-16.2967,178.901,1.58203,-144.734,424
1569658687,366.006,74.228,-16.2967,178.901,1.58203,-144.734,424
1569658687,366.006,74.228,-16.2967,178.901,1.58203,-144.734,424
1569658687,366.006,74.228,-16.2967,178.901,1.58203,-144.734,424
1569658687,366.006,74.228,-16.2967,178.901,1.58203,-144.734,424
1569658687,366.006,74.228,-16.2967,178.901,1.58203,-144.734,424
1569658687,366.006,74.228,-16.2967,178.901,1.58203,-144.734,424
1569658687,366.006,74.228,-16.2967,178.901,1.58203,-144.734,424
1569658687,366.006,74.228,-16.2967,178.901,1.58203,-144.734,424
1569658687,366.006,74.228,-16.2967,178.901,1.58203,-144.734,424
1569658687,366.006,74.228,-16.2967,178.879,1.58203,-144.734,420
1569658687,366.006,74.228,-16.2967,178.879,1.58203,-144.734,420
1569658687,366.006,74.228,-16.2967,178.879,1.58203,-144.734,420
1569658687,366.006,74.228,-16.2967,178.879,1.56006,-144.734,420
1569658687,366.006,74.228,-16.2967,178.879,1.56006,-144.712,420
1569658687,366.006,74.228,-16.2967,178.879,1.56006,-144.712,420
1569658687,366.006,74.228,-16.2967,178.879,1.56006,-144.712,420
1569658687,366.006,74.228,-16.2967,178.879,1.56006,-144.712,420
1569658687,366.006,74.228,-16.2967,178.901,1.56006,-144.712,416
1569658687,366.006,74.228,-16.2967,178.901,1.56006,-144.712,416
1569658687,366.006,74.228,-16.2967,178.901,1.56006,-144.712,416
1569658687,366.006,74.228,-16.2967,178.901,1.56006,-144.712,416
1569658687,366.006,74.228,-16.2967,178.901,1.56006,-144.712,416
1569658687,366.006,74.228,-16.2967,178.901,1.56006,-144.712,416
1569658687,366.006,74.228,-16.2967,178.901,1.56006,-144.712,412
1569658687,366.006,74.228,-16.2967,178.901,1.56006,-144.712,412
1569658687,366.006,74.228,-16.2967,178.901,1.56006,-144.712,412
1569658687,366.006,74.228,-16.2967,178.901,1.56006,-144.712,412
1569658687,366.006,74.228,-16.2967,178.901,1.56006,-144.734,412
1569658687,366.006,74.228,-16.4083,178.901,1.56006,-144.734,412
1569658687,366.006,74.228,-16.4083,178.901,1.56006,-144.734,412
1569658687,366.006,74.228,-16.4083,178.901,1.56006,-144.734,412
1569658687,366.006,74.228,-16.4083,178.901,1.56006,-144.734,412
1569658687,366.006,74.228,-16.4083,178.901,1.56006,-144.734,412
1569658687,366.006,74.228,-16.4083,178.901,1.56006,-144.734,416
1569658687,366.006,74.228,-16.4083,178.901,1.56006,-144.734,416
1569658687,366.006,74.228,-16.4083,178.901,1.56006,-144.734,416
1569658687,366.006,74.228,-16.4083,178.901,1.56006,-144.734,416
1569658687,366.006,74.228,-16.4083,178.901,1.56006,-144.734,416
1569658687,366.006,74.228,-16.4083,178.901,1.56006,-144.734,416
1569658687,366.006,74.228,-16.4083,178.901,1.56006,-144.734,416
1569658687,366.006,74.228,-16.4083,178.901,1.56006,-144.734,416
1569658687,366.006,74.228,-16.4083,178.901,1.56006,-144.734,416
1569658687,366.006,74.228,-16.4083,178.901,1.56006,-144.734,416
1569658687,366.006,74.228,-16.4083,178.901,1.56006,-144.734,416
1569658687,366.006,74.228,-16.4083,178.901,1.56006,-144.734,416
1569658687,366.006,74.228,-16.4083,178.901,1.56006,-144.734,416
1569658687,366.006,74.228,-16.4083,178.901,1.56006,-144.734,416
1569658687,366.006,74.228,-16.4083,178.901,1.56006,-144.734,416
1569658687,366.006,74.228,-16.4083,178.901,1.56006,-144.734,416
1569658687,366.006,74.228,-16.4083,178.901,1.56006,-144.734,416
1569658687,366.006,74.228,-16.4083,178.901,1.56006,-144.734,416
1569658687,366.006,74.228,-16.2967,178.901,1.56006,-144.734,416
1569658688,366.006,74.228,-16.2967,178.901,1.56006,-144.734,416
1569658688,366.006,74.228,-16.2967,178.901,1.56006,-144.734,416
1569658688,366.006,74.228,-16.2967,178.901,1.56006,-144.756,416
1569658688,366.006,74.228,-16.2967,178.901,1.56006,-144.756,416
1569658688,366.006,74.228,-16.2967,178.901,1.56006,-144.756,416
1569658688,366.006,74.228,-16.2967,178.901,1.56006,-144.756,416
1569658688,366.006,74.228,-16.2967,178.901,1.56006,-144.756,416
1569658688,366.006,74.228,-16.2967,178.901,1.58203,-144.756,416
1569658688,366.006,74.228,-16.2967,178.901,1.58203,-144.756,416
1569658688,366.006,74.228,-16.2967,178.901,1.58203,-144.756,416
1569658688,366.006,74.228,-16.2967,178.901,1.58203,-144.756,416
1569658688,366.006,74.228,-16.2967,178.901,1.58203,-144.756,420
1569658688,366.006,74.3396,-16.2967,178.901,1.58203,-144.756,420
1569658688,366.006,74.3396,-16.2967,178.901,1.58203,-144.756,420
1569658688,366.006,74.3396,-16.2967,178.901,1.58203,-144.756,420
1569658688,366.006,74.3396,-16.2967,178.901,1.56006,-144.756,420
1569658688,366.006,74.3396,-16.2967,178.901,1.56006,-144.756,424
1569658688,366.006,74.3396,-16.2967,178.901,1.56006,-144.756,424
1569658688,366.006,74.228,-16.2967,178.901,1.56006,-144.756,424
1569658688,366.006,74.228,-16.4083,178.901,1.56006,-144.756,424
1569658688,366.006,74.228,-16.4083,178.901,1.56006,-144.756,428
1569658688,366.006,74.228,-16.4083,178.901,1.56006,-144.756,428
1569658688,366.006,74.228,-16.4083,178.901,1.56006,-144.756,428
1569658688,366.006,74.228,-16.4083,178.901,1.56006,-144.756,428
1569658688,366.006,74.228,-16.4083,178.901,1.56006,-144.756,428
1569658688,366.006,74.228,-16.2967,178.901,1.56006,-144.756,432
1569658688,366.006,74.228,-16.2967,178.901,1.56006,-144.734,432
1569658688,366.006,74.228,-16.2967,178.901,1.56006,-144.734,432
1569658688,366.006,74.228,-16.2967,178.901,1.58203,-144.734,432
1569658688,366.006,74.228,-16.2967,178.901,1.58203,-144.734,432
1569658688,366.006,74.228,-16.2967,178.901,1.58203,-144.734,432
1569658688,366.006,74.228,-16.2967,178.901,1.58203,-144.734,432
1569658688,366.006,74.228,-16.2967,178.901,1.58203,-144.734,432
1569658688,366.006,74.228,-16.2967,178.901,1.58203,-144.734,432
1569658688,366.006,74.228,-16.2967,178.901,1.56006,-144.734,432
1569658688,366.006,74.228,-16.2967,178.901,1.56006,-144.734,432
1569658688,366.006,74.228,-16.2967,178.901,1.56006,-144.734,432
1569658688,366.006,74.228,-16.2967,178.901,1.56006,-144.734,428
1569658688,366.006,74.228,-16.4083,178.901,1.56006,-144.734,428
1569658688,366.006,74.228,-16.4083,178.901,1.56006,-144.734,428
1569658688,366.006,74.228,-16.4083,178.901,1.56006,-144.734,428
1569658688,366.006,74.228,-16.4083,178.901,1.56006,-144.734,428
1569658688,366.006,74.228,-16.4083,178.901,1.56006,-144.734,428
1569658688,366.006,74.228,-16.4083,178.901,1.56006,-144.734,424
1569658688,366.006,74.228,-16.4083,178.901,1.56006,-144.734,424
1569658688,366.006,74.228,-16.4083,178.901,1.56006,-144.734,424
1569658688,366.006,74.228,-16.4083,178.901,1.56006,-144.734,420
1569658688,366.006,74.228,-16.4083,178.901,1.56006,-144.712,420
1569658688,366.006,74.228,-16.4083,178.901,1.56006,-144.712,420
1569658688,366.006,74.228,-16.4083,178.901,1.56006,-144.712,420
1569658688,366.117,74.228,-16.4083,178.901,1.56006,-144.712,416
1569658688,366.117,74.228,-16.4083,178.901,1.56006,-144.712,416
1569658688,366.117,74.228,-16.4083,178.901,1.56006,-144.712,416
1569658688,366.006,74.228,-16.4083,178.923,1.56006,-144.712,416
1569658688,366.006,74.228,-16.4083,178.923,1.56006,-144.712,416
1569658688,366.006,74.228,-16.4083,178.923,1.56006,-144.712,416
1569658688,366.006,74.228,-16.4083,178.923,1.56006,-144.712,416
1569658688,366.006,74.228,-16.4083,178.923,1.56006,-144.712,416
1569658688,366.006,74.228,-16.4083,178.923,1.56006,-144.712,416
1569658688,366.006,74.228,-16.4083,178.923,1.56006,-144.712,416
1569658688,366.006,74.228,-16.4083,178.923,1.56006,-144.712,416
1569658688,366.006,74.228,-16.4083,178.923,1.56006,-144.712,416
1569658688,366.006,74.228,-16.4083,178.923,1.56006,-144.734,420
1569658688,366.006,74.228,-16.4083,178.923,1.56006,-144.734,420
1569658688,366.006,74.228,-16.4083,178.923,1.56006,-144.734,420
1569658688,366.006,74.228,-16.2967,178.923,1.56006,-144.734,424
1569658688,365.894,74.228,-16.2967,178.923,1.56006,-144.734,424
1569658688,365.894,74.228,-16.2967,178.923,1.56006,-144.734,424
1569658688,365.894,74.228,-16.2967,178.923,1.56006,-144.712,424
1569658688,365.894,74.228,-16.2967,178.923,1.56006,-144.712,428
1569658688,365.894,74.228,-16.2967,178.923,1.56006,-144.712,428
1569658688,365.894,74.228,-16.2967,178.923,1.56006,-144.712,428
1569658688,365.894,74.228,-16.4083,178.923,1.56006,-144.712,428
1569658688,366.006,74.3396,-16.4083,178.923,1.56006,-144.712,428
1569658688,366.006,74.3396,-16.4083,178.923,1.56006,-144.712,428
1569658688,366.006,74.228,-16.4083,178.923,1.56006,-144.712,424
1569658688,366.006,74.228,-16.4083,178.923,1.56006,-144.712,424
1569658688,366.006,74.228,-16.4083,178.901,1.56006,-144.712,424
1569658688,366.006,74.228,-16.4083,178.901,1.56006,-144.712,424
1569658688,366.006,74.228,-16.4083,178.901,1.56006,-144.712,424
1569658688,366.006,74.228,-16.4083,178.901,1.56006,-144.712,424
1569658688,366.006,74.228,-16.4083,178.901,1.56006,-144.712,424
1569658688,366.006,74.228,-16.4083,178.901,1.56006,-144.712,420
1569658688,366.006,74.228,-16.4083,178.879,1.56006,-144.712,420
1569658688,366.006,74.228,-16.4083,178.879,1.56006,-144.712,420
1569658688,366.006,74.228,-16.4083,178.879,1.56006,-144.712,420
1569658688,366.006,74.228,-16.4083,178.879,1.56006,-144.712,416
1569658688,366.006,74.228,-16.4083,178.879,1.56006,-144.712,416
1569658688,366.006,74.228,-16.4083,178.879,1.56006,-144.712,416
1569658688,366.006,74.228,-16.4083,178.879,1.56006,-144.712,416
1569658688,366.006,74.228,-16.4083,178.879,1.56006,-144.712,416
1569658688,366.006,74.228,-16.4083,178.879,1.56006,-144.712,412
1569658688,366.006,74.228,-16.4083,178.879,1.56006,-144.712,412
1569658688,366.006,74.228,-16.4083,178.879,1.56006,-144.712,412
1569658688,366.006,74.228,-16.2967,178.901,1.56006,-144.712,412
1569658688,366.006,74.228,-16.2967,178.901,1.56006,-144.712,412
1569658688,366.006,74.228,-16.2967,178.901,1.56006,-144.734,412
1569658688,366.006,74.228,-16.2967,178.901,1.58203,-144.734,408
1569658688,366.006,74.228,-16.2967,178.901,1.58203,-144.734,408
1569658688,366.006,74.228,-16.2967,178.901,1.58203,-144.734,408
1569658689,366.006,74.228,-16.2967,178.901,1.58203,-144.734,408
1569658689,366.006,74.228,-16.2967,178.901,1.58203,-144.734,408
1569658689,366.006,74.228,-16.2967,178.901,1.56006,-144.734,408
1569658689,366.006,74.228,-16.2967,178.901,1.56006,-144.734,408
1569658689,366.006,74.228,-16.2967,178.901,1.56006,-144.734,412
1569658689,366.006,74.228,-16.2967,178.901,1.58203,-144.734,412
1569658689,366.006,74.228,-16.2967,178.901,1.58203,-144.712,412
1569658689,366.006,74.228,-16.2967,178.901,1.58203,-144.712,412
1569658689,366.006,74.228,-16.2967,178.901,1.58203,-144.712,412
1569658689,366.006,74.228,-16.2967,178.901,1.58203,-144.712,416
1569658689,366.006,74.228,-16.2967,178.901,1.58203,-144.712,416
1569658689,366.006,74.228,-16.2967,178.901,1.58203,-144.712,416
1569658689,366.006,74.228,-16.2967,178.901,1.58203,-144.712,416
1569658689,366.006,74.228,-16.2967,178.901,1.58203,-144.712,420
1569658689,366.006,74.228,-16.2967,178.901,1.58203,-144.712,420
1569658689,366.006,74.228,-16.2967,178.901,1.58203,-144.712,420
1569658689,366.006,74.228,-16.2967,178.901,1.58203,-144.712,420
1569658689,366.006,74.228,-16.2967,178.901,1.604,-144.712,420
1569658689,366.006,74.228,-16.2967,178.879,1.604,-144.712,420
1569658689,366.006,74.228,-16.2967,178.879,1.604,-144.712,420
1569658689,366.006,74.228,-16.2967,178.879,1.604,-144.712,420
1569658689,366.006,74.228,-16.2967,178.879,1.604,-144.712,420
1569658689,366.006,74.228,-16.2967,178.879,1.604,-144.712,420
1569658689,366.006,74.228,-16.2967,178.879,1.604,-144.712,420
1569658689,366.006,74.228,-16.2967,178.879,1.604,-144.712,420
1569658689,366.006,74.228,-16.2967,178.879,1.604,-144.712,420
1569658689,366.006,74.228,-16.2967,178.879,1.604,-144.712,420
1569658689,366.006,74.228,-16.2967,178.879,1.604,-144.712,416
1569658689,366.006,74.228,-16.2967,178.879,1.604,-144.712,416
1569658689,366.006,74.228,-16.2967,178.879,1.604,-144.712,416
1569658689,366.006,74.228,-16.2967,178.879,1.604,-144.712,416
1569658689,366.006,74.228,-16.2967,178.879,1.604,-144.712,416
1569658689,366.006,74.228,-16.2967,178.879,1.604,-144.712,416
1569658689,366.006,74.228,-16.2967,178.879,1.604,-144.712,416
1569658689,366.006,74.228,-16.2967,178.879,1.604,-144.712,416
1569658689,366.006,74.228,-16.2967,178.879,1.604,-144.712,416
1569658689,366.006,74.228,-16.2967,178.901,1.604,-144.712,416
1569658689,366.006,74.228,-16.2967,178.901,1.604,-144.712,420
1569658689,366.006,74.228,-16.2967,178.901,1.604,-144.712,420
1569658689,366.006,74.228,-16.2967,178.901,1.604,-144.712,420
1569658689,366.006,74.228,-16.2967,178.901,1.58203,-144.712,420
1569658689,366.006,74.228,-16.2967,178.901,1.58203,-144.712,416
1569658689,366.006,74.228,-16.2967,178.901,1.58203,-144.712,416
1569658689,366.006,74.228,-16.2967,178.901,1.58203,-144.712,416
1569658689,366.006,74.228,-16.2967,178.901,1.58203,-144.712,416
1569658689,366.006,74.228,-16.2967,178.901,1.58203,-144.712,416
1569658689,366.006,74.228,-16.2967,178.901,1.58203,-144.712,416
1569658689,366.006,74.228,-16.2967,178.901,1.58203,-144.734,412
1569658689,366.006,74.228,-16.2967,178.901,1.58203,-144.734,412
1569658689,366.117,74.228,-16.2967,178.901,1.58203,-144.734,412
1569658689,366.117,74.228,-16.2967,178.901,1.58203,-144.734,412
1569658689,366.117,74.228,-16.2967,178.901,1.58203,-144.712,412
1569658689,366.006,74.228,-16.2967,178.901,1.58203,-144.734,412
1569658689,366.006,74.228,-16.2967,178.901,1.58203,-144.734,412
1569658689,366.006,74.228,-16.2967,178.901,1.58203,-144.734,412
1569658689,366.006,74.228,-16.2967,178.901,1.58203,-144.734,412
1569658689,366.006,74.228,-16.2967,178.901,1.58203,-144.734,412
1569658689,366.006,74.228,-16.2967,178.901,1.56006,-144.734,412
1569658689,366.006,74.228,-16.2967,178.923,1.56006,-144.734,412
1569658689,366.006,74.228,-16.2967,178.923,1.56006,-144.734,412
1569658689,366.006,74.228,-16.4083,178.923,1.56006,-144.734,412
1569658689,366.006,74.228,-16.4083,178.923,1.56006,-144.734,412
1569658689,366.006,74.228,-16.4083,178.923,1.56006,-144.734,412
1569658689,366.006,74.228,-16.4083,178.923,1.56006,-144.734,412
1569658689,366.006,74.228,-16.4083,178.923,1.56006,-144.734,412
1569658689,366.006,74.228,-16.4083,178.923,1.56006,-144.734,412
1569658689,366.006,74.228,-16.4083,178.923,1.56006,-144.734,412
1569658689,366.006,74.228,-16.4083,178.923,1.56006,-144.734,416
1569658689,366.006,74.228,-16.4083,178.901,1.56006,-144.734,416
1569658689,366.006,74.228,-16.4083,178.901,1.56006,-144.734,416
1569658689,366.006,74.228,-16.4083,178.901,1.56006,-144.734,416
1569658689,366.006,74.228,-16.4083,178.901,1.56006,-144.734,416
1569658689,366.006,74.228,-16.4083,178.901,1.56006,-144.734,416
1569658689,366.006,74.228,-16.4083,178.901,1.56006,-144.734,420
1569658689,366.006,74.228,-16.4083,178.901,1.56006,-144.734,420
1569658689,366.006,74.228,-16.4083,178.901,1.56006,-144.734,420
1569658689,366.006,74.228,-16.4083,178.901,1.56006,-144.734,420
1569658689,366.006,74.228,-16.4083,178.901,1.56006,-144.734,424
1569658689,366.006,74.228,-16.4083,178.901,1.56006,-144.734,424
