time,x,y,z,ax,ay,az,q
1569674231,404.18,72.4421,-13.3945,178.638,2.39502,-145.261,560
1569674231,404.18,72.4421,-13.3945,178.638,2.39502,-145.261,560
1569674231,404.18,72.4421,-13.3945,178.638,2.39502,-145.261,556
1569674231,404.18,72.4421,-13.3945,178.638,2.39502,-145.261,556
1569674231,404.18,72.4421,-13.3945,178.638,2.39502,-145.261,556
1569674231,404.18,72.4421,-13.3945,178.638,2.39502,-145.261,556
1569674231,404.18,72.4421,-13.3945,178.616,2.37305,-145.261,552
1569674231,404.18,72.4421,-13.3945,178.616,2.37305,-145.261,552
1569674231,404.18,72.4421,-13.3945,178.616,2.37305,-145.261,552
1569674231,404.18,72.4421,-13.3945,178.616,2.37305,-145.261,552
1569674231,404.18,72.4421,-13.3945,178.616,2.37305,-145.261,548
1569674231,404.18,72.4421,-13.3945,178.616,2.37305,-145.261,548
1569674231,404.18,72.4421,-13.3945,178.616,2.37305,-145.261,548
1569674231,404.18,72.4421,-13.3945,178.638,2.37305,-145.261,548
1569674231,404.18,72.4421,-13.3945,178.638,2.39502,-145.261,544
1569674231,404.18,72.4421,-13.3945,178.638,2.39502,-145.261,544
1569674231,404.18,72.4421,-13.3945,178.638,2.37305,-145.261,544
1569674231,404.18,72.4421,-13.3945,178.638,2.37305,-145.261,544
1569674231,404.18,72.4421,-13.3945,178.616,2.37305,-145.261,544
1569674231,404.18,72.4421,-13.3945,178.616,2.37305,-145.261,544
1569674231,404.18,72.4421,-13.3945,178.616,2.37305,-145.261,544
1569674231,404.18,72.4421,-13.3945,178.616,2.37305,-145.261,544
1569674231,404.18,72.4421,-13.3945,178.616,2.37305,-145.261,544
1569674231,404.18,72.4421,-13.3945,178.616,2.37305,-145.261,544
1569674231,404.18,72.4421,-13.5062,178.616,2.35107,-145.261,544
1569674231,404.18,72.4421,-13.5062,178.616,2.35107,-145.261,544
1569674231,404.18,72.4421,-13.5062,178.616,2.35107,-145.261,548
1569674231,404.18,72.4421,-13.5062,178.616,2.35107,-145.283,548
1569674231,404.18,72.4421,-13.5062,178.616,2.35107,-145.283,548
1569674231,404.18,72.4421,-13.5062,178.616,2.35107,-145.283,552
1569674231,404.18,72.4421,-13.5062,178.616,2.35107,-145.283,552
1569674231,404.18,72.4421,-13.5062,178.594,2.35107,-145.283,552
1569674231,404.068,72.3305,-13.5062,178.594,2.35107,-145.283,556
1569674231,404.068,72.3305,-13.5062,178.594,2.35107,-145.283,556
1569674231,404.068,72.3305,-13.5062,178.594,2.35107,-145.283,560
1569674231,404.068,72.3305,-13.5062,178.594,2.35107,-145.283,560
1569674231,404.068,72.3305,-13.5062,178.594,2.35107,-145.283,560
1569674231,404.068,72.3305,-13.5062,178.594,2.35107,-145.283,564
1569674231,404.068,72.3305,-13.5062,178.594,2.35107,-145.283,564
1569674231,404.068,72.3305,-13.5062,178.594,2.35107,-145.283,564
1569674231,404.068,72.3305,-13.5062,178.594,2.35107,-145.305,568
1569674231,404.068,72.3305,-13.5062,178.594,2.35107,-145.305,568
1569674231,404.068,72.3305,-13.5062,178.616,2.35107,-145.305,568
1569674231,404.068,72.3305,-13.5062,178.616,2.35107,-145.305,568
1569674231,404.068,72.4421,-13.5062,178.616,2.35107,-145.305,572
1569674231,404.068,72.4421,-13.3945,178.616,2.35107,-145.305,572
1569674231,404.068,72.4421,-13.3945,178.616,2.35107,-145.305,572
1569674231,404.068,72.4421,-13.3945,178.616,2.37305,-145.305,576
1569674231,404.068,72.4421,-13.3945,178.616,2.37305,-145.305,576
1569674231,404.068,72.4421,-13.3945,178.616,2.37305,-145.305,576
1569674231,404.18,72.4421,-13.5062,178.638,2.35107,-145.305,576
1569674231,404.18,72.4421,-13.5062,178.638,2.35107,-145.283,576
1569674231,404.18,72.4421,-13.5062,178.638,2.35107,-145.283,576
1569674231,404.18,72.4421,-13.5062,178.638,2.35107,-145.283,580
1569674231,404.18,72.4421,-13.5062,178.638,2.35107,-145.283,580
1569674231,404.18,72.4421,-13.5062,178.638,2.35107,-145.283,580
1569674231,404.18,72.4421,-13.5062,178.638,2.35107,-145.283,580
1569674231,404.18,72.4421,-13.5062,178.638,2.35107,-145.283,580
1569674231,404.18,72.4421,-13.5062,178.638,2.35107,-145.283,580
1569674231,404.18,72.4421,-13.5062,178.638,2.35107,-145.283,580
1569674231,404.18,72.4421,-13.5062,178.638,2.35107,-145.283,580
1569674231,404.18,72.4421,-13.5062,178.638,2.35107,-145.283,580
1569674231,404.18,72.5537,-13.5062,178.638,2.35107,-145.283,576
1569674231,404.18,72.5537,-13.5062,178.638,2.35107,-145.283,576
1569674232,404.18,72.5537,-13.5062,178.638,2.35107,-145.283,576
1569674232,404.18,72.5537,-13.5062,178.638,2.35107,-145.283,576
1569674232,404.18,72.5537,-13.5062,178.66,2.35107,-145.283,576
1569674232,404.18,72.5537,-13.5062,178.66,2.35107,-145.283,572
1569674232,404.18,72.5537,-13.5062,178.66,2.35107,-145.283,572
1569674232,404.18,72.5537,-13.5062,178.66,2.35107,-145.283,572
1569674232,404.18,72.5537,-13.5062,178.66,2.35107,-145.283,572
1569674232,404.18,72.5537,-13.5062,178.66,2.35107,-145.283,572
1569674232,404.18,72.5537,-13.5062,178.66,2.3291,-145.283,572
1569674232,404.18,72.5537,-13.5062,178.66,2.3291,-145.283,572
1569674232,404.18,72.5537,-13.5062,178.66,2.3291,-145.283,572
1569674232,404.18,72.5537,-13.5062,178.638,2.3291,-145.283,572
1569674232,404.18,72.5537,-13.5062,178.638,2.3291,-145.283,572
1569674232,404.18,72.5537,-13.5062,178.638,2.3291,-145.283,568
1569674232,404.18,72.4421,-13.5062,178.638,2.3291,-145.283,568
1569674232,404.18,72.4421,-13.5062,178.638,2.35107,-145.283,568
1569674232,404.18,72.4421,-13.5062,178.616,2.35107,-145.283,568
1569674232,404.18,72.4421,-13.5062,178.616,2.35107,-145.283,568
1569674232,404.18,72.4421,-13.5062,178.616,2.35107,-145.283,568
1569674232,404.18,72.4421,-13.5062,178.616,2.35107,-145.283,568
1569674232,404.18,72.4421,-13.5062,178.616,2.35107,-145.283,564
1569674232,404.18,72.4421,-13.5062,178.616,2.35107,-145.283,564
1569674232,404.18,72.4421,-13.5062,178.616,2.35107,-145.283,564
1569674232,404.18,72.5537,-13.5062,178.638,2.35107,-145.283,564
1569674232,404.18,72.5537,-13.5062,178.638,2.35107,-145.283,564
1569674232,404.18,72.5537,-13.5062,178.638,2.35107,-145.283,564
1569674232,404.18,72.5537,-13.5062,178.638,2.35107,-145.261,564
1569674232,404.18,72.5537,-13.5062,178.638,2.35107,-145.261,564
1569674232,404.18,72.5537,-13.5062,178.638,2.35107,-145.261,564
1569674232,404.18,72.5537,-13.5062,178.638,2.35107,-145.261,564
1569674232,404.18,72.5537,-13.5062,178.638,2.35107,-145.261,564
1569674232,404.18,72.5537,-13.5062,178.638,2.35107,-145.261,564
1569674232,404.18,72.5537,-13.5062,178.638,2.35107,-145.261,568
1569674232,404.18,72.5537,-13.5062,178.638,2.35107,-145.261,568
1569674232,404.18,72.5537,-13.5062,178.638,2.35107,-145.261,568
1569674232,404.18,72.5537,-13.5062,178.638,2.35107,-145.261,568
1569674232,404.18,72.4421,-13.5062,178.638,2.35107,-145.261,568
1569674232,404.18,72.4421,-13.5062,178.638,2.35107,-145.261,568
1569674232,404.18,72.4421,-13.5062,178.638,2.35107,-145.261,568
1569674232,404.18,72.4421,-13.5062,178.638,2.35107,-145.261,568
1569674232,404.18,72.4421,-13.5062,178.638,2.35107,-145.261,568
1569674232,404.18,72.4421,-13.5062,178.638,2.35107,-145.261,568
1569674232,404.18,72.4421,-13.5062,178.638,2.35107,-145.261,568
1569674232,404.18,72.4421,-13.3945,178.638,2.35107,-145.283,564
1569674232,404.18,72.5537,-13.3945,178.638,2.37305,-145.283,564
1569674232,404.18,72.5537,-13.3945,178.638,2.37305,-145.283,564
1569674232,404.18,72.5537,-13.3945,178.638,2.37305,-145.283,564
1569674232,404.18,72.5537,-13.3945,178.638,2.37305,-145.283,564
1569674232,404.18,72.5537,-13.3945,178.616,2.37305,-145.283,564
1569674232,404.18,72.4421,-13.3945,178.616,2.37305,-145.283,564
1569674232,404.18,72.4421,-13.3945,178.616,2.37305,-145.283,564
1569674232,404.18,72.4421,-13.3945,178.616,2.37305,-145.283,564
1569674232,404.18,72.4421,-13.3945,178.616,2.37305,-145.283,564
1569674232,404.18,72.4421,-13.3945,178.616,2.37305,-145.283,564
1569674232,404.18,72.4421,-13.5062,178.616,2.37305,-145.283,564
1569674232,404.18,72.4421,-13.5062,178.616,2.37305,-145.283,564
1569674232,404.18,72.4421,-13.5062,178.616,2.37305,-145.261,564
1569674232,404.18,72.4421,-13.5062,178.616,2.35107,-145.261,564
1569674232,404.18,72.4421,-13.5062,178.616,2.35107,-145.261,564
1569674232,404.18,72.4421,-13.5062,178.616,2.35107,-145.261,564
1569674232,404.18,72.4421,-13.5062,178.616,2.37305,-145.261,564
1569674232,404.18,72.3305,-13.5062,178.616,2.37305,-145.261,564
1569674232,404.18,72.4421,-13.3945,178.616,2.37305,-145.261,564
1569674232,404.18,72.4421,-13.3945,178.616,2.37305,-145.261,564
1569674232,404.18,72.4421,-13.3945,178.616,2.37305,-145.261,564
1569674232,404.18,72.4421,-13.3945,178.616,2.37305,-145.261,564
1569674232,404.18,72.4421,-13.3945,178.616,2.37305,-145.261,564
1569674232,404.18,72.4421,-13.3945,178.616,2.37305,-145.261,564
1569674232,404.18,72.4421,-13.3945,178.616,2.37305,-145.261,564
1569674232,404.18,72.4421,-13.3945,178.616,2.37305,-145.261,564
1569674232,404.18,72.4421,-13.3945,178.616,2.37305,-145.261,564
1569674232,404.18,72.4421,-13.3945,178.616,2.37305,-145.261,564
1569674232,404.18,72.4421,-13.3945,178.638,2.37305,-145.261,564
1569674232,404.18,72.4421,-13.3945,178.638,2.37305,-145.261,564
1569674232,404.18,72.4421,-13.5062,178.638,2.37305,-145.261,564
1569674232,404.18,72.4421,-13.5062,178.638,2.37305,-145.261,564
1569674232,404.18,72.4421,-13.5062,178.638,2.37305,-145.261,564
1569674232,404.18,72.4421,-13.5062,178.638,2.35107,-145.261,564
1569674232,404.18,72.4421,-13.5062,178.638,2.35107,-145.261,564
1569674232,404.18,72.4421,-13.5062,178.638,2.35107,-145.261,564
1569674232,404.18,72.4421,-13.5062,178.638,2.35107,-145.239,564
1569674232,404.18,72.4421,-13.5062,178.638,2.35107,-145.239,564
1569674232,404.18,72.4421,-13.5062,178.638,2.35107,-145.239,564
1569674232,404.18,72.4421,-13.5062,178.638,2.35107,-145.239,564
1569674232,404.18,72.4421,-13.5062,178.638,2.35107,-145.239,564
1569674232,404.18,72.4421,-13.5062,178.638,2.35107,-145.261,564
1569674232,404.068,72.4421,-13.5062,178.638,2.35107,-145.261,564
1569674232,404.068,72.4421,-13.5062,178.638,2.35107,-145.261,564
1569674232,404.068,72.5537,-13.5062,178.638,2.35107,-145.261,568
1569674232,404.068,72.4421,-13.5062,178.638,2.35107,-145.261,568
1569674232,404.068,72.4421,-13.5062,178.638,2.35107,-145.261,568
1569674232,404.068,72.4421,-13.5062,178.638,2.35107,-145.261,572
1569674232,404.068,72.4421,-13.5062,178.638,2.37305,-145.283,572
1569674232,404.18,72.4421,-13.5062,178.638,2.37305,-145.283,572
1569674232,404.18,72.4421,-13.5062,178.638,2.37305,-145.283,572
1569674232,404.18,72.4421,-13.5062,178.638,2.37305,-145.283,576
1569674232,404.18,72.4421,-13.5062,178.638,2.37305,-145.283,576
1569674232,404.18,72.4421,-13.5062,178.638,2.37305,-145.283,576
1569674232,404.18,72.4421,-13.5062,178.638,2.37305,-145.283,576
1569674232,404.18,72.4421,-13.5062,178.638,2.37305,-145.283,580
1569674233,404.18,72.4421,-13.5062,178.638,2.37305,-145.283,580
1569674233,404.18,72.4421,-13.5062,178.638,2.37305,-145.283,580
1569674233,404.18,72.4421,-13.5062,178.638,2.37305,-145.283,580
1569674233,404.18,72.4421,-13.5062,178.638,2.37305,-145.305,584
1569674233,404.18,72.4421,-13.5062,178.638,2.37305,-145.305,584
1569674233,404.18,72.4421,-13.5062,178.638,2.37305,-145.305,584
1569674233,404.18,72.4421,-13.5062,178.638,2.35107,-145.305,588
1569674233,404.18,72.4421,-13.5062,178.638,2.35107,-145.305,588
1569674233,404.18,72.4421,-13.5062,178.638,2.35107,-145.305,588
1569674233,404.18,72.4421,-13.5062,178.638,2.35107,-145.305,588
1569674233,404.18,72.4421,-13.5062,178.638,2.35107,-145.305,588
1569674233,404.18,72.4421,-13.5062,178.638,2.35107,-145.305,588
1569674233,404.18,72.4421,-13.5062,178.638,2.35107,-145.305,584
1569674233,404.18,72.4421,-13.5062,178.638,2.3291,-145.305,584
1569674233,404.18,72.4421,-13.5062,178.638,2.3291,-145.305,584
1569674233,404.18,72.4421,-13.5062,178.616,2.3291,-145.283,580
1569674233,404.292,72.4421,-13.6178,178.616,2.3291,-145.283,580
1569674233,404.292,72.4421,-13.6178,178.616,2.3291,-145.283,580
1569674233,404.292,72.4421,-13.6178,178.616,2.3291,-145.283,576
1569674233,404.292,72.4421,-13.6178,178.616,2.3291,-145.283,576
1569674233,404.292,72.4421,-13.5062,178.616,2.35107,-145.283,572
1569674233,404.292,72.4421,-13.5062,178.616,2.35107,-145.283,572
1569674233,404.292,72.4421,-13.5062,178.616,2.35107,-145.283,572
1569674233,404.292,72.4421,-13.5062,178.616,2.35107,-145.283,568
1569674233,404.292,72.4421,-13.5062,178.616,2.35107,-145.283,568
1569674233,404.292,72.4421,-13.5062,178.616,2.35107,-145.283,568
1569674233,404.292,72.4421,-13.5062,178.616,2.37305,-145.283,564
1569674233,404.18,72.4421,-13.5062,178.616,2.37305,-145.283,564
1569674233,404.18,72.4421,-13.3945,178.616,2.37305,-145.283,564
1569674233,404.18,72.4421,-13.3945,178.616,2.37305,-145.283,564
1569674233,404.18,72.4421,-13.3945,178.616,2.37305,-145.283,560
1569674233,404.18,72.4421,-13.3945,178.616,2.37305,-145.283,560
1569674233,404.18,72.3305,-13.3945,178.616,2.37305,-145.283,560
1569674233,404.18,72.3305,-13.3945,178.616,2.37305,-145.283,560
1569674233,404.18,72.3305,-13.3945,178.616,2.37305,-145.283,560
1569674233,404.18,72.3305,-13.3945,178.616,2.37305,-145.283,560
1569674233,404.18,72.3305,-13.3945,178.616,2.37305,-145.283,556
1569674233,404.18,72.3305,-13.3945,178.616,2.39502,-145.283,556
1569674233,404.18,72.3305,-13.3945,178.616,2.37305,-145.261,556
1569674233,404.18,72.3305,-13.3945,178.616,2.37305,-145.261,556
1569674233,404.18,72.4421,-13.3945,178.616,2.37305,-145.283,556
1569674233,404.18,72.4421,-13.3945,178.616,2.37305,-145.283,560
1569674233,404.18,72.4421,-13.3945,178.616,2.37305,-145.283,560
1569674233,404.18,72.4421,-13.3945,178.616,2.37305,-145.283,560
1569674233,404.18,72.4421,-13.5062,178.616,2.35107,-145.261,560
1569674233,404.18,72.4421,-13.5062,178.638,2.35107,-145.261,560
1569674233,404.18,72.4421,-13.5062,178.638,2.35107,-145.261,560
1569674233,404.18,72.4421,-13.5062,178.638,2.35107,-145.261,560
1569674233,404.18,72.4421,-13.5062,178.638,2.3291,-145.261,560
1569674233,404.18,72.4421,-13.5062,178.638,2.3291,-145.261,560
1569674233,404.18,72.5537,-13.5062,178.638,2.3291,-145.261,564
1569674233,404.068,72.5537,-13.5062,178.638,2.3291,-145.261,564
1569674233,404.068,72.5537,-13.5062,178.638,2.3291,-145.261,564
1569674233,404.068,72.5537,-13.5062,178.638,2.3291,-145.261,564
1569674233,404.068,72.5537,-13.5062,178.638,2.3291,-145.261,564
1569674233,404.068,72.5537,-13.5062,178.638,2.3291,-145.261,568
1569674233,404.068,72.4421,-13.5062,178.638,2.3291,-145.261,568
1569674233,404.068,72.4421,-13.5062,178.638,2.3291,-145.261,568
1569674233,404.068,72.4421,-13.5062,178.638,2.3291,-145.261,568
1569674233,404.068,72.4421,-13.6178,178.638,2.3291,-145.261,568
1569674233,404.068,72.4421,-13.6178,178.638,2.3291,-145.261,568
1569674233,404.068,72.4421,-13.6178,178.638,2.3291,-145.261,568
1569674233,404.068,72.4421,-13.6178,178.638,2.3291,-145.261,572
1569674233,404.068,72.4421,-13.6178,178.638,2.3291,-145.261,572
1569674233,404.068,72.4421,-13.6178,178.638,2.35107,-145.261,572
1569674233,404.068,72.4421,-13.6178,178.638,2.35107,-145.261,572
1569674233,404.068,72.4421,-13.5062,178.638,2.35107,-145.261,572
1569674233,404.068,72.4421,-13.5062,178.638,2.35107,-145.261,572
1569674233,404.068,72.4421,-13.5062,178.638,2.35107,-145.261,572
1569674233,404.068,72.4421,-13.5062,178.638,2.35107,-145.261,572
1569674233,404.068,72.4421,-13.5062,178.638,2.37305,-145.261,572
1569674233,404.068,72.4421,-13.5062,178.638,2.37305,-145.261,572
1569674233,404.068,72.4421,-13.5062,178.616,2.37305,-145.261,572
1569674233,404.068,72.4421,-13.5062,178.616,2.37305,-145.261,572
1569674233,404.068,72.4421,-13.5062,178.616,2.37305,-145.261,572
1569674233,404.068,72.4421,-13.5062,178.616,2.37305,-145.261,572
1569674233,404.068,72.4421,-13.5062,178.616,2.37305,-145.261,572
1569674233,404.068,72.4421,-13.5062,178.616,2.37305,-145.261,572
1569674233,404.068,72.4421,-13.5062,178.616,2.37305,-145.261,572
1569674233,404.068,72.4421,-13.5062,178.616,2.35107,-145.261,572
1569674233,404.068,72.4421,-13.5062,178.616,2.35107,-145.261,572
1569674233,404.18,72.4421,-13.5062,178.616,2.35107,-145.261,572
1569674233,404.18,72.4421,-13.5062,178.616,2.35107,-145.261,572
1569674233,404.18,72.4421,-13.5062,178.616,2.35107,-145.283,572
1569674233,404.18,72.4421,-13.5062,178.616,2.35107,-145.283,572
1569674233,404.18,72.4421,-13.5062,178.638,2.35107,-145.283,572
1569674233,404.18,72.4421,-13.5062,178.638,2.35107,-145.283,572
1569674233,404.18,72.4421,-13.5062,178.638,2.35107,-145.283,572
1569674233,404.18,72.4421,-13.5062,178.638,2.35107,-145.283,572
1569674233,404.18,72.4421,-13.5062,178.638,2.35107,-145.283,572
1569674233,404.18,72.4421,-13.5062,178.638,2.35107,-145.283,572
1569674233,404.18,72.4421,-13.5062,178.638,2.35107,-145.283,572
1569674233,404.18,72.4421,-13.5062,178.616,2.35107,-145.283,572
1569674233,404.18,72.4421,-13.5062,178.616,2.35107,-145.283,572
1569674233,404.18,72.4421,-13.5062,178.616,2.35107,-145.283,568
1569674233,404.18,72.4421,-13.5062,178.616,2.35107,-145.283,568
1569674233,404.18,72.4421,-13.5062,178.616,2.35107,-145.283,568
1569674233,404.18,72.4421,-13.5062,178.616,2.35107,-145.283,568
1569674233,404.18,72.4421,-13.5062,178.616,2.35107,-145.283,568
1569674233,404.18,72.4421,-13.5062,178.616,2.35107,-145.283,568
1569674234,404.18,72.4421,-13.5062,178.616,2.35107,-145.283,568
1569674234,404.18,72.4421,-13.5062,178.616,2.35107,-145.283,572
1569674234,404.18,72.4421,-13.5062,178.616,2.35107,-145.283,572
1569674234,404.18,72.4421,-13.5062,178.616,2.35107,-145.283,572
1569674234,404.18,72.4421,-13.5062,178.616,2.35107,-145.283,572
1569674234,404.18,72.3305,-13.5062,178.616,2.35107,-145.283,568
1569674234,404.18,72.3305,-13.5062,178.616,2.35107,-145.283,568
1569674234,404.18,72.4421,-13.5062,178.616,2.35107,-145.283,568
1569674234,404.18,72.4421,-13.5062,178.616,2.35107,-145.283,568
1569674234,404.18,72.4421,-13.5062,178.616,2.35107,-145.283,572
1569674234,404.18,72.4421,-13.6178,178.616,2.3291,-145.283,572
1569674234,404.18,72.4421,-13.6178,178.616,2.3291,-145.283,572
1569674234,404.18,72.4421,-13.6178,178.616,2.3291,-145.283,572
1569674234,404.18,72.4421,-13.6178,178.638,2.3291,-145.283,572
1569674234,404.18,72.4421,-13.6178,178.638,2.3291,-145.283,572
1569674234,404.068,72.4421,-13.6178,178.638,2.30713,-145.283,572
1569674234,404.068,72.4421,-13.6178,178.638,2.30713,-145.283,572
1569674234,404.068,72.4421,-13.6178,178.638,2.30713,-145.283,572
1569674234,404.068,72.4421,-13.7294,178.638,2.30713,-145.283,572
1569674234,404.068,72.4421,-13.7294,178.638,2.30713,-145.283,572
1569674234,404.068,72.4421,-13.6178,178.616,2.30713,-145.283,568
1569674234,404.068,72.4421,-13.6178,178.616,2.30713,-145.305,568
1569674234,404.068,72.4421,-13.6178,178.616,2.30713,-145.305,568
1569674234,404.068,72.4421,-13.6178,178.616,2.30713,-145.305,568
1569674234,404.068,72.3305,-13.6178,178.616,2.3291,-145.305,568
1569674234,404.18,72.3305,-13.6178,178.616,2.3291,-145.305,564
1569674234,404.18,72.4421,-13.5062,178.616,2.3291,-145.305,564
1569674234,404.18,72.4421,-13.5062,178.616,2.35107,-145.305,564
1569674234,404.18,72.4421,-13.5062,178.616,2.35107,-145.305,564
1569674234,404.18,72.4421,-13.5062,178.616,2.35107,-145.305,564
1569674234,404.18,72.4421,-13.5062,178.616,2.35107,-145.305,564
1569674234,404.18,72.4421,-13.3945,178.616,2.37305,-145.305,560
1569674234,404.18,72.4421,-13.3945,178.616,2.37305,-145.305,560
1569674234,404.18,72.4421,-13.3945,178.638,2.37305,-145.305,560
1569674234,404.18,72.4421,-13.3945,178.638,2.37305,-145.305,560
1569674234,404.18,72.4421,-13.3945,178.638,2.37305,-145.305,560
1569674234,404.18,72.4421,-13.3945,178.638,2.37305,-145.305,556
1569674234,404.18,72.4421,-13.3945,178.638,2.37305,-145.305,556
1569674234,404.18,72.4421,-13.3945,178.638,2.37305,-145.305,556
1569674234,404.18,72.4421,-13.3945,178.638,2.37305,-145.305,556
1569674234,404.18,72.5537,-13.3945,178.638,2.35107,-145.305,556
1569674234,404.18,72.5537,-13.3945,178.638,2.35107,-145.305,552
1569674234,404.18,72.5537,-13.3945,178.638,2.37305,-145.305,552
1569674234,404.18,72.5537,-13.3945,178.638,2.37305,-145.305,552
1569674234,404.18,72.5537,-13.3945,178.638,2.37305,-145.305,552
1569674234,404.18,72.5537,-13.3945,178.638,2.37305,-145.305,548
1569674234,404.18,72.5537,-13.3945,178.638,2.37305,-145.305,548
1569674234,404.18,72.5537,-13.3945,178.638,2.37305,-145.305,548
1569674234,404.18,72.5537,-13.3945,178.638,2.37305,-145.305,544
1569674234,404.18,72.5537,-13.3945,178.638,2.37305,-145.305,544
1569674234,404.18,72.4421,-13.3945,178.638,2.37305,-145.305,540
1569674234,404.18,72.4421,-13.3945,178.638,2.37305,-145.305,540
1569674234,404.18,72.4421,-13.3945,178.638,2.37305,-145.305,536
1569674234,404.18,72.4421,-13.3945,178.638,2.37305,-145.305,536
1569674234,404.18,72.4421,-13.3945,178.638,2.37305,-145.305,536
1569674234,404.18,72.4421,-13.3945,178.616,2.37305,-145.305,532
1569674234,404.18,72.4421,-13.3945,178.616,2.37305,-145.305,532
1569674234,404.18,72.4421,-13.3945,178.616,2.37305,-145.305,528
1569674234,404.18,72.4421,-13.3945,178.616,2.37305,-145.305,528
1569674234,404.18,72.4421,-13.3945,178.616,2.37305,-145.305,528
1569674234,404.292,72.4421,-13.3945,178.616,2.37305,-145.305,528
1569674234,404.292,72.4421,-13.3945,178.616,2.37305,-145.283,524
1569674234,404.292,72.4421,-13.3945,178.616,2.37305,-145.283,524
1569674234,404.292,72.4421,-13.3945,178.616,2.37305,-145.283,524
1569674234,404.292,72.4421,-13.3945,178.616,2.37305,-145.283,524
1569674234,404.292,72.4421,-13.3945,178.616,2.37305,-145.283,524
1569674234,404.292,72.4421,-13.3945,178.616,2.37305,-145.283,524
1569674234,404.292,72.4421,-13.3945,178.616,2.37305,-145.283,524
1569674234,404.292,72.4421,-13.3945,178.616,2.37305,-145.283,524
1569674234,404.292,72.4421,-13.3945,178.616,2.37305,-145.261,524
1569674234,404.292,72.4421,-13.3945,178.616,2.37305,-145.261,524
1569674234,404.292,72.4421,-13.5062,178.616,2.37305,-145.261,524
1569674234,404.292,72.4421,-13.5062,178.616,2.37305,-145.261,524
1569674234,404.292,72.4421,-13.5062,178.616,2.37305,-145.261,528
1569674234,404.292,72.4421,-13.5062,178.616,2.35107,-145.261,528
1569674234,404.18,72.4421,-13.5062,178.616,2.35107,-145.261,528
1569674234,404.18,72.4421,-13.5062,178.616,2.35107,-145.261,532
1569674234,404.18,72.4421,-13.5062,178.616,2.37305,-145.261,532
1569674234,404.18,72.4421,-13.5062,178.616,2.37305,-145.261,536
1569674234,404.18,72.4421,-13.5062,178.638,2.37305,-145.261,536
1569674234,404.18,72.4421,-13.5062,178.638,2.37305,-145.261,540
1569674234,404.18,72.4421,-13.5062,178.638,2.37305,-145.261,540
1569674234,404.292,72.4421,-13.5062,178.638,2.37305,-145.261,540
1569674234,404.292,72.4421,-13.5062,178.638,2.37305,-145.261,544
1569674234,404.292,72.4421,-13.5062,178.638,2.37305,-145.261,544
1569674234,404.292,72.4421,-13.5062,178.638,2.37305,-145.261,544
1569674234,404.292,72.4421,-13.5062,178.638,2.37305,-145.261,548
1569674234,404.292,72.4421,-13.5062,178.638,2.37305,-145.261,548
1569674234,404.292,72.4421,-13.5062,178.616,2.37305,-145.261,548
1569674234,404.292,72.4421,-13.5062,178.616,2.37305,-145.261,548
1569674234,404.292,72.4421,-13.5062,178.616,2.37305,-145.261,548
1569674234,404.292,72.4421,-13.5062,178.616,2.37305,-145.261,548
1569674234,404.292,72.4421,-13.5062,178.616,2.35107,-145.261,548
1569674234,404.292,72.4421,-13.5062,178.616,2.35107,-145.261,548
1569674234,404.292,72.4421,-13.5062,178.616,2.35107,-145.261,548
1569674234,404.292,72.4421,-13.5062,178.616,2.35107,-145.261,552
1569674234,404.292,72.4421,-13.5062,178.616,2.35107,-145.261,552
1569674234,404.292,72.4421,-13.5062,178.616,2.35107,-145.261,552
1569674234,404.292,72.4421,-13.5062,178.616,2.35107,-145.261,552
1569674234,404.292,72.4421,-13.5062,178.616,2.35107,-145.283,552
1569674235,404.292,72.4421,-13.5062,178.616,2.35107,-145.283,552
1569674235,404.292,72.4421,-13.5062,178.616,2.37305,-145.283,556
1569674235,404.292,72.4421,-13.5062,178.616,2.37305,-145.283,556
1569674235,404.292,72.4421,-13.5062,178.616,2.37305,-145.283,556
1569674235,404.292,72.4421,-13.5062,178.616,2.37305,-145.283,556
1569674235,404.292,72.4421,-13.3945,178.616,2.37305,-145.283,560
1569674235,404.292,72.4421,-13.3945,178.616,2.39502,-145.283,560
1569674235,404.292,72.4421,-13.3945,178.616,2.39502,-145.283,564
1569674235,404.292,72.4421,-13.3945,178.616,2.39502,-145.283,564
1569674235,404.292,72.4421,-13.3945,178.616,2.39502,-145.283,564
1569674235,404.292,72.4421,-13.3945,178.616,2.39502,-145.283,564
1569674235,404.292,72.4421,-13.3945,178.616,2.39502,-145.283,568
1569674235,404.292,72.4421,-13.2829,178.616,2.39502,-145.283,568
1569674235,404.292,72.5537,-13.2829,178.638,2.41699,-145.283,568
1569674235,404.292,72.5537,-13.2829,178.638,2.41699,-145.283,568
1569674235,404.292,72.5537,-13.2829,178.638,2.41699,-145.283,568
1569674235,404.292,72.5537,-13.2829,178.638,2.39502,-145.283,572
1569674235,404.292,72.5537,-13.2829,178.638,2.39502,-145.283,572
1569674235,404.18,72.5537,-13.3945,178.638,2.39502,-145.283,572
1569674235,404.18,72.5537,-13.3945,178.638,2.39502,-145.283,572
1569674235,404.18,72.5537,-13.3945,178.638,2.39502,-145.283,572
1569674235,404.18,72.5537,-13.3945,178.638,2.39502,-145.283,572
1569674235,404.18,72.5537,-13.3945,178.638,2.37305,-145.283,572
1569674235,404.18,72.5537,-13.3945,178.616,2.37305,-145.283,572
1569674235,404.18,72.5537,-13.3945,178.616,2.37305,-145.283,568
1569674235,404.18,72.4421,-13.5062,178.616,2.37305,-145.283,568
1569674235,404.18,72.4421,-13.5062,178.616,2.37305,-145.283,568
1569674235,404.18,72.4421,-13.5062,178.616,2.37305,-145.283,568
1569674235,404.18,72.4421,-13.5062,178.616,2.37305,-145.283,568
1569674235,404.18,72.4421,-13.5062,178.616,2.37305,-145.283,568
1569674235,404.18,72.4421,-13.5062,178.594,2.37305,-145.283,568
1569674235,404.18,72.4421,-13.5062,178.594,2.37305,-145.261,568
1569674235,404.18,72.4421,-13.5062,178.594,2.37305,-145.261,568
1569674235,404.18,72.4421,-13.5062,178.594,2.37305,-145.261,568
1569674235,404.18,72.4421,-13.5062,178.594,2.37305,-145.261,568
1569674235,404.18,72.4421,-13.5062,178.594,2.37305,-145.261,568
1569674235,404.18,72.4421,-13.5062,178.594,2.37305,-145.261,568
1569674235,404.18,72.4421,-13.5062,178.594,2.37305,-145.261,568
1569674235,404.18,72.4421,-13.5062,178.594,2.35107,-145.261,568
1569674235,404.18,72.4421,-13.5062,178.594,2.35107,-145.261,568
1569674235,404.18,72.4421,-13.5062,178.616,2.35107,-145.261,568
1569674235,404.18,72.4421,-13.5062,178.616,2.35107,-145.261,564
1569674235,404.18,72.4421,-13.5062,178.616,2.35107,-145.261,564
1569674235,404.18,72.4421,-13.5062,178.616,2.35107,-145.261,564
1569674235,404.18,72.4421,-13.5062,178.616,2.35107,-145.261,560
1569674235,404.18,72.4421,-13.5062,178.616,2.3291,-145.261,560
1569674235,404.18,72.4421,-13.5062,178.616,2.3291,-145.261,560
1569674235,404.18,72.4421,-13.5062,178.616,2.3291,-145.261,556
1569674235,404.18,72.4421,-13.5062,178.616,2.3291,-145.261,556
1569674235,404.18,72.4421,-13.5062,178.616,2.35107,-145.261,556
1569674235,404.292,72.4421,-13.5062,178.616,2.35107,-145.261,552
1569674235,404.292,72.4421,-13.5062,178.616,2.35107,-145.261,552
1569674235,404.292,72.4421,-13.5062,178.616,2.35107,-145.261,552
1569674235,404.292,72.4421,-13.5062,178.616,2.35107,-145.261,552
1569674235,404.292,72.4421,-13.5062,178.616,2.35107,-145.261,552
1569674235,404.292,72.5537,-13.5062,178.638,2.35107,-145.261,552
1569674235,404.292,72.5537,-13.5062,178.638,2.35107,-145.261,548
1569674235,404.18,72.5537,-13.5062,178.638,2.35107,-145.261,548
1569674235,404.18,72.5537,-13.5062,178.638,2.35107,-145.283,548
1569674235,404.18,72.5537,-13.5062,178.638,2.35107,-145.283,548
1569674235,404.18,72.5537,-13.5062,178.638,2.37305,-145.283,548
1569674235,404.18,72.5537,-13.5062,178.638,2.37305,-145.283,548
1569674235,404.18,72.5537,-13.3945,178.616,2.37305,-145.283,548
1569674235,404.18,72.4421,-13.3945,178.616,2.37305,-145.283,548
1569674235,404.18,72.4421,-13.3945,178.616,2.37305,-145.305,548
1569674235,404.18,72.4421,-13.3945,178.616,2.37305,-145.305,548
1569674235,404.18,72.4421,-13.3945,178.616,2.37305,-145.305,552
1569674235,404.18,72.4421,-13.3945,178.594,2.37305,-145.305,552
1569674235,404.18,72.4421,-13.3945,178.594,2.37305,-145.305,552
1569674235,404.18,72.3305,-13.3945,178.594,2.37305,-145.305,552
1569674235,404.18,72.3305,-13.3945,178.594,2.37305,-145.305,556
1569674235,404.18,72.3305,-13.3945,178.594,2.37305,-145.305,556
1569674235,404.18,72.3305,-13.3945,178.594,2.37305,-145.305,556
1569674235,404.18,72.3305,-13.3945,178.572,2.37305,-145.305,560
1569674235,404.18,72.3305,-13.3945,178.572,2.37305,-145.305,560
1569674235,404.18,72.3305,-13.3945,178.572,2.37305,-145.305,560
1569674235,404.18,72.3305,-13.3945,178.572,2.37305,-145.305,564
1569674235,404.18,72.3305,-13.3945,178.572,2.37305,-145.305,564
1569674235,404.18,72.3305,-13.3945,178.572,2.37305,-145.305,564
1569674235,404.18,72.3305,-13.3945,178.572,2.37305,-145.305,564
1569674235,404.18,72.3305,-13.3945,178.572,2.37305,-145.305,568
1569674235,404.18,72.3305,-13.3945,178.572,2.37305,-145.305,568
1569674235,404.18,72.3305,-13.3945,178.572,2.37305,-145.305,568
1569674235,404.18,72.3305,-13.3945,178.572,2.37305,-145.305,568
1569674235,404.18,72.3305,-13.3945,178.572,2.37305,-145.305,568
1569674235,404.18,72.3305,-13.3945,178.594,2.37305,-145.283,568
1569674235,404.18,72.3305,-13.3945,178.594,2.37305,-145.283,572
1569674235,404.068,72.3305,-13.5062,178.594,2.37305,-145.283,572
1569674235,404.068,72.3305,-13.5062,178.594,2.37305,-145.283,572
1569674235,404.068,72.3305,-13.5062,178.616,2.35107,-145.283,572
1569674235,404.068,72.4421,-13.5062,178.616,2.35107,-145.283,572
1569674235,404.068,72.4421,-13.5062,178.616,2.35107,-145.283,572
1569674235,404.068,72.4421,-13.5062,178.616,2.35107,-145.283,572
1569674235,404.068,72.4421,-13.5062,178.616,2.35107,-145.283,576
1569674235,404.068,72.4421,-13.5062,178.616,2.35107,-145.283,576
1569674235,404.068,72.4421,-13.5062,178.616,2.35107,-145.283,576
1569674235,404.068,72.4421,-13.5062,178.616,2.35107,-145.283,576
1569674235,404.068,72.4421,-13.5062,178.616,2.35107,-145.283,580
1569674235,404.068,72.4421,-13.5062,178.616,2.35107,-145.283,580
1569674235,404.068,72.4421,-13.5062,178.638,2.35107,-145.283,580
1569674236,404.068,72.4421,-13.5062,178.638,2.35107,-145.283,580
1569674236,404.068,72.4421,-13.5062,178.638,2.35107,-145.283,580
1569674236,404.068,72.5537,-13.5062,178.638,2.37305,-145.283,580
1569674236,404.18,72.5537,-13.5062,178.638,2.37305,-145.283,580
1569674236,404.18,72.5537,-13.5062,178.638,2.37305,-145.283,580
1569674236,404.18,72.5537,-13.5062,178.638,2.37305,-145.283,580
1569674236,404.18,72.5537,-13.5062,178.638,2.37305,-145.283,580
1569674236,404.18,72.5537,-13.5062,178.638,2.37305,-145.283,576
1569674236,404.18,72.5537,-13.5062,178.638,2.37305,-145.283,576
1569674236,404.18,72.5537,-13.5062,178.638,2.37305,-145.283,576
1569674236,404.18,72.5537,-13.5062,178.638,2.35107,-145.283,572
1569674236,404.18,72.5537,-13.5062,178.638,2.35107,-145.283,572
1569674236,404.18,72.4421,-13.5062,178.638,2.35107,-145.283,572
1569674236,404.18,72.4421,-13.5062,178.638,2.35107,-145.283,572
1569674236,404.18,72.4421,-13.5062,178.616,2.35107,-145.283,572
1569674236,404.18,72.4421,-13.5062,178.616,2.35107,-145.283,572
1569674236,404.18,72.4421,-13.5062,178.616,2.35107,-145.283,572
1569674236,404.18,72.4421,-13.5062,178.616,2.35107,-145.283,572
1569674236,404.18,72.4421,-13.5062,178.616,2.35107,-145.283,568
1569674236,404.18,72.4421,-13.5062,178.616,2.35107,-145.283,568
1569674236,404.18,72.4421,-13.5062,178.616,2.35107,-145.283,568
1569674236,404.18,72.4421,-13.5062,178.616,2.35107,-145.283,568
1569674236,404.18,72.4421,-13.5062,178.616,2.35107,-145.283,568
1569674236,404.18,72.4421,-13.5062,178.616,2.35107,-145.283,568
1569674236,404.18,72.4421,-13.5062,178.638,2.35107,-145.283,568
1569674236,404.18,72.4421,-13.5062,178.638,2.35107,-145.283,568
1569674236,404.18,72.4421,-13.5062,178.638,2.35107,-145.283,568
1569674236,404.18,72.5537,-13.5062,178.638,2.35107,-145.283,568
1569674236,404.18,72.5537,-13.5062,178.638,2.35107,-145.283,568
1569674236,404.18,72.5537,-13.5062,178.638,2.35107,-145.283,568
1569674236,404.18,72.5537,-13.5062,178.638,2.35107,-145.283,568
1569674236,404.18,72.5537,-13.5062,178.638,2.35107,-145.283,568
1569674236,404.18,72.4421,-13.3945,178.638,2.37305,-145.283,568
1569674236,404.18,72.4421,-13.3945,178.638,2.37305,-145.283,568
1569674236,404.18,72.4421,-13.3945,178.638,2.37305,-145.283,568
1569674236,404.18,72.4421,-13.3945,178.638,2.37305,-145.283,568
1569674240,389.111,88.6272,-13.5062,178.55,2.52686,-145.525,532
1569674240,389.111,88.6272,-13.5062,178.55,2.52686,-145.525,532
1569674240,389.111,88.6272,-13.3945,178.55,2.52686,-145.525,532
1569674240,389.111,88.6272,-13.3945,178.55,2.52686,-145.525,532
1569674240,389.111,88.6272,-13.3945,178.55,2.52686,-145.525,532
1569674240,389,88.6272,-13.3945,178.55,2.52686,-145.525,532
1569674240,389,88.6272,-13.3945,178.55,2.52686,-145.525,532
1569674240,389,88.6272,-13.3945,178.55,2.52686,-145.525,532
1569674240,389,88.6272,-13.3945,178.55,2.52686,-145.525,536
1569674240,389,88.6272,-13.3945,178.55,2.52686,-145.525,536
1569674240,389,88.6272,-13.3945,178.55,2.52686,-145.525,536
1569674240,389,88.6272,-13.3945,178.55,2.52686,-145.525,536
1569674240,389,88.6272,-13.3945,178.55,2.52686,-145.525,540
1569674240,389,88.6272,-13.3945,178.55,2.52686,-145.525,540
1569674240,389,88.7388,-13.3945,178.55,2.52686,-145.525,540
1569674240,389,88.7388,-13.3945,178.55,2.54883,-145.525,540
1569674240,389,88.7388,-13.3945,178.55,2.54883,-145.525,540
1569674240,389,88.7388,-13.3945,178.55,2.54883,-145.525,544
1569674240,389,88.7388,-13.3945,178.572,2.54883,-145.525,544
1569674240,389,88.7388,-13.3945,178.572,2.54883,-145.525,544
1569674240,389,88.7388,-13.3945,178.572,2.54883,-145.525,544
1569674240,389,88.8504,-13.3945,178.572,2.54883,-145.525,544
1569674240,389,88.8504,-13.3945,178.594,2.54883,-145.525,544
1569674240,389.111,88.8504,-13.3945,178.594,2.54883,-145.525,544
1569674240,389.111,88.8504,-13.3945,178.594,2.54883,-145.525,544
1569674240,389.111,88.8504,-13.3945,178.594,2.52686,-145.525,548
1569674240,389.111,88.8504,-13.3945,178.594,2.52686,-145.525,548
1569674240,389.111,88.8504,-13.3945,178.594,2.52686,-145.525,548
1569674240,389.111,88.8504,-13.3945,178.594,2.52686,-145.525,548
1569674240,389.111,88.8504,-13.3945,178.594,2.52686,-145.525,548
1569674240,389.111,88.8504,-13.3945,178.594,2.52686,-145.525,548
1569674240,389.111,88.8504,-13.3945,178.594,2.52686,-145.525,544
1569674240,389.111,88.8504,-13.3945,178.572,2.52686,-145.525,544
1569674240,389.111,88.8504,-13.3945,178.572,2.52686,-145.525,544
1569674240,389.111,88.7388,-13.3945,178.572,2.52686,-145.525,544
1569674240,389.111,88.7388,-13.3945,178.572,2.52686,-145.525,544
1569674240,389,88.7388,-13.3945,178.572,2.52686,-145.525,544
1569674240,389,88.7388,-13.3945,178.572,2.52686,-145.525,544
1569674240,389,88.7388,-13.3945,178.572,2.52686,-145.525,544
1569674240,389,88.7388,-13.3945,178.572,2.52686,-145.525,544
1569674241,389,88.7388,-13.3945,178.572,2.52686,-145.525,544
1569674241,389,88.7388,-13.3945,178.572,2.52686,-145.525,544
1569674241,389,88.8504,-13.3945,178.594,2.52686,-145.525,544
1569674241,389,88.8504,-13.3945,178.594,2.52686,-145.525,544
1569674241,389,88.8504,-13.5062,178.594,2.52686,-145.525,544
1569674241,389,88.8504,-13.5062,178.594,2.52686,-145.503,544
1569674241,389,88.8504,-13.5062,178.594,2.52686,-145.503,544
1569674241,389,88.8504,-13.5062,178.594,2.52686,-145.503,544
1569674241,389,88.8504,-13.5062,178.594,2.52686,-145.503,540
1569674241,389,88.8504,-13.5062,178.594,2.52686,-145.503,540
1569674241,389,88.8504,-13.5062,178.594,2.50488,-145.503,540
1569674241,389,88.8504,-13.5062,178.594,2.50488,-145.503,540
1569674241,389,88.8504,-13.5062,178.594,2.50488,-145.503,540
1569674241,389,88.8504,-13.5062,178.594,2.50488,-145.503,540
1569674241,389,88.8504,-13.5062,178.594,2.50488,-145.503,540
1569674241,389,88.8504,-13.5062,178.594,2.50488,-145.503,540
1569674241,389,88.8504,-13.5062,178.594,2.50488,-145.503,540
1569674241,389,88.8504,-13.5062,178.594,2.50488,-145.503,540
1569674241,389,88.8504,-13.5062,178.594,2.50488,-145.503,540
1569674241,389,88.8504,-13.5062,178.594,2.50488,-145.503,540
1569674241,389,88.8504,-13.5062,178.594,2.50488,-145.481,540
1569674241,389,88.8504,-13.5062,178.594,2.50488,-145.481,544
1569674241,389,88.8504,-13.5062,178.594,2.50488,-145.481,544
1569674241,389,88.8504,-13.5062,178.594,2.50488,-145.481,544
1569674241,389,88.8504,-13.5062,178.594,2.50488,-145.481,544
1569674241,389,88.8504,-13.5062,178.594,2.50488,-145.481,544
1569674241,389,88.8504,-13.5062,178.594,2.50488,-145.481,544
1569674241,389,88.8504,-13.5062,178.594,2.50488,-145.481,544
1569674241,389,88.8504,-13.5062,178.594,2.50488,-145.481,544
1569674241,389,88.8504,-13.5062,178.594,2.50488,-145.481,544
1569674241,389,88.8504,-13.5062,178.594,2.50488,-145.481,544
1569674241,389,88.8504,-13.5062,178.594,2.50488,-145.481,540
1569674241,389,88.8504,-13.5062,178.594,2.50488,-145.481,540
1569674241,389,88.8504,-13.5062,178.594,2.50488,-145.481,540
1569674241,389,88.7388,-13.5062,178.594,2.48291,-145.481,540
1569674241,389,88.7388,-13.5062,178.594,2.50488,-145.481,536
1569674241,389,88.7388,-13.5062,178.594,2.50488,-145.481,536
1569674241,389,88.7388,-13.5062,178.594,2.50488,-145.481,536
1569674241,389,88.7388,-13.5062,178.594,2.50488,-145.481,536
1569674241,389.111,88.7388,-13.5062,178.572,2.50488,-145.481,536
1569674241,389,88.7388,-13.5062,178.572,2.50488,-145.481,536
1569674241,389,88.7388,-13.5062,178.572,2.50488,-145.481,536
1569674241,389,88.7388,-13.5062,178.572,2.50488,-145.481,536
1569674241,389,88.7388,-13.5062,178.572,2.52686,-145.481,540
1569674241,389,88.7388,-13.5062,178.572,2.52686,-145.481,540
1569674241,389,88.7388,-13.5062,178.572,2.52686,-145.481,544
1569674241,389,88.7388,-13.5062,178.572,2.52686,-145.481,544
1569674241,389,88.7388,-13.3945,178.55,2.52686,-145.481,544
1569674241,389,88.7388,-13.3945,178.55,2.52686,-145.481,548
1569674241,389,88.7388,-13.3945,178.55,2.52686,-145.481,548
1569674241,389,88.7388,-13.3945,178.55,2.52686,-145.481,548
1569674241,389,88.7388,-13.3945,178.572,2.52686,-145.481,552
1569674241,389,88.7388,-13.5062,178.572,2.52686,-145.481,552
1569674241,389,88.7388,-13.5062,178.572,2.52686,-145.481,552
1569674241,389,88.7388,-13.5062,178.572,2.52686,-145.481,556
1569674241,389,88.7388,-13.5062,178.572,2.52686,-145.481,556
1569674241,389,88.7388,-13.5062,178.572,2.52686,-145.481,556
1569674241,389,88.7388,-13.5062,178.572,2.52686,-145.481,556
1569674241,389,88.7388,-13.5062,178.572,2.52686,-145.481,556
1569674241,389,88.7388,-13.5062,178.572,2.52686,-145.503,556
1569674241,389,88.7388,-13.5062,178.572,2.52686,-145.481,556
1569674241,389,88.8504,-13.5062,178.572,2.52686,-145.481,556
1569674241,389,88.8504,-13.5062,178.572,2.52686,-145.481,556
1569674241,389,88.8504,-13.5062,178.594,2.52686,-145.503,556
1569674241,389,88.8504,-13.5062,178.594,2.52686,-145.503,556
1569674241,389,88.8504,-13.5062,178.594,2.52686,-145.503,552
1569674241,389,88.8504,-13.5062,178.594,2.52686,-145.503,552
1569674241,389,88.8504,-13.5062,178.594,2.52686,-145.503,552
1569674241,389,88.8504,-13.5062,178.594,2.52686,-145.503,548
1569674241,389,88.8504,-13.5062,178.594,2.52686,-145.503,548
1569674241,389,88.8504,-13.5062,178.594,2.52686,-145.503,548
1569674241,389,88.8504,-13.5062,178.594,2.52686,-145.503,548
1569674241,389,88.8504,-13.3945,178.594,2.52686,-145.525,548
1569674241,389,88.8504,-13.3945,178.572,2.52686,-145.525,548
1569674241,389,88.8504,-13.3945,178.572,2.52686,-145.525,548
1569674241,389,88.7388,-13.3945,178.572,2.52686,-145.525,548
1569674241,389,88.7388,-13.3945,178.572,2.52686,-145.525,548
1569674241,389,88.7388,-13.3945,178.572,2.52686,-145.525,548
1569674241,389,88.7388,-13.3945,178.572,2.54883,-145.525,552
1569674241,389,88.7388,-13.2829,178.572,2.54883,-145.525,552
1569674241,389,88.7388,-13.2829,178.572,2.54883,-145.525,552
1569674241,389,88.7388,-13.2829,178.572,2.54883,-145.525,552
1569674241,389,88.7388,-13.2829,178.572,2.54883,-145.525,556
1569674241,389,88.7388,-13.2829,178.572,2.54883,-145.525,556
1569674241,389,88.7388,-13.2829,178.572,2.54883,-145.525,556
1569674241,389,88.7388,-13.2829,178.572,2.54883,-145.525,556
1569674241,389,88.7388,-13.2829,178.572,2.54883,-145.525,556
1569674241,389,88.7388,-13.2829,178.572,2.54883,-145.525,556
1569674241,389,88.7388,-13.2829,178.572,2.54883,-145.525,556
1569674241,389,88.7388,-13.2829,178.55,2.54883,-145.503,552
1569674241,389,88.7388,-13.2829,178.55,2.54883,-145.503,552
1569674241,389,88.7388,-13.2829,178.55,2.54883,-145.503,552
1569674241,389,88.7388,-13.2829,178.55,2.54883,-145.503,552
1569674241,389,88.7388,-13.2829,178.55,2.54883,-145.525,552
1569674241,389,88.7388,-13.2829,178.572,2.54883,-145.525,548
1569674241,389,88.7388,-13.2829,178.572,2.54883,-145.525,548
1569674241,389,88.7388,-13.2829,178.572,2.54883,-145.525,548
1569674241,389,88.7388,-13.2829,178.572,2.54883,-145.525,548
1569674241,389,88.7388,-13.2829,178.572,2.54883,-145.503,544
1569674241,389,88.7388,-13.2829,178.572,2.54883,-145.503,544
1569674242,389,88.7388,-13.2829,178.572,2.54883,-145.503,544
1569674242,389,88.7388,-13.3945,178.572,2.54883,-145.503,544
1569674242,389,88.7388,-13.3945,178.572,2.54883,-145.503,544
1569674242,389,88.7388,-13.3945,178.572,2.54883,-145.503,540
1569674242,389,88.7388,-13.3945,178.572,2.54883,-145.503,540
1569674242,389,88.7388,-13.3945,178.572,2.54883,-145.503,540
1569674242,389,88.7388,-13.3945,178.572,2.54883,-145.503,540
1569674242,389.111,88.7388,-13.3945,178.572,2.54883,-145.503,536
1569674242,389.111,88.7388,-13.3945,178.572,2.54883,-145.503,536
1569674242,389.111,88.8504,-13.3945,178.572,2.54883,-145.503,536
1569674242,389.111,88.8504,-13.3945,178.572,2.54883,-145.503,536
1569674242,389.111,88.8504,-13.3945,178.594,2.54883,-145.503,536
1569674242,389.111,88.8504,-13.3945,178.594,2.54883,-145.503,536
1569674242,389.111,88.8504,-13.3945,178.594,2.54883,-145.503,532
1569674242,389.111,88.8504,-13.3945,178.594,2.54883,-145.503,532
1569674242,389.111,88.8504,-13.3945,178.594,2.54883,-145.503,532
1569674242,389.111,88.8504,-13.3945,178.594,2.54883,-145.503,532
1569674242,389.111,88.8504,-13.3945,178.594,2.54883,-145.503,532
1569674242,389.111,88.8504,-13.3945,178.594,2.54883,-145.503,532
1569674242,389.111,88.8504,-13.3945,178.594,2.54883,-145.503,532
1569674242,389.111,88.8504,-13.3945,178.594,2.54883,-145.503,532
1569674242,389.111,88.8504,-13.3945,178.594,2.54883,-145.503,532
1569674242,389.111,88.8504,-13.3945,178.572,2.54883,-145.503,532
1569674242,389.111,88.8504,-13.3945,178.572,2.54883,-145.503,532
1569674242,389.111,88.8504,-13.3945,178.572,2.54883,-145.503,532
1569674242,389.111,88.8504,-13.3945,178.572,2.54883,-145.503,532
1569674242,389.111,88.8504,-13.3945,178.572,2.54883,-145.503,532
1569674242,389.111,88.8504,-13.3945,178.572,2.54883,-145.503,532
1569674242,389.111,88.8504,-13.3945,178.572,2.54883,-145.503,532
1569674242,389.111,88.8504,-13.3945,178.572,2.54883,-145.503,532
1569674242,389.111,88.8504,-13.3945,178.572,2.54883,-145.503,532
1569674242,389.111,88.8504,-13.3945,178.572,2.54883,-145.503,532
1569674242,389.111,88.8504,-13.3945,178.572,2.54883,-145.503,532
1569674242,389.111,88.8504,-13.3945,178.572,2.54883,-145.503,532
1569674242,389.111,88.8504,-13.3945,178.572,2.52686,-145.503,532
1569674242,389,88.8504,-13.3945,178.572,2.52686,-145.503,532
1569674242,389,88.8504,-13.3945,178.594,2.52686,-145.503,532
1569674242,389,88.8504,-13.3945,178.594,2.52686,-145.503,532
1569674242,389,88.8504,-13.3945,178.594,2.52686,-145.503,532
1569674242,389,88.8504,-13.3945,178.594,2.52686,-145.503,532
1569674242,389,88.8504,-13.3945,178.594,2.52686,-145.503,536
1569674242,389,88.8504,-13.3945,178.594,2.52686,-145.503,536
1569674242,389,88.8504,-13.3945,178.594,2.52686,-145.503,536
1569674242,389,88.8504,-13.3945,178.594,2.52686,-145.503,536
1569674242,389,88.8504,-13.3945,178.594,2.52686,-145.503,536
1569674242,389,88.8504,-13.3945,178.594,2.52686,-145.503,536
1569674242,389,88.8504,-13.3945,178.594,2.54883,-145.503,536
1569674242,389,88.8504,-13.3945,178.594,2.54883,-145.503,540
1569674242,389,88.8504,-13.3945,178.594,2.52686,-145.503,540
1569674242,389.111,88.8504,-13.5062,178.594,2.52686,-145.503,540
1569674242,389.111,88.8504,-13.5062,178.594,2.52686,-145.503,540
1569674242,389.111,88.8504,-13.5062,178.594,2.52686,-145.503,540
1569674242,389.111,88.8504,-13.5062,178.594,2.52686,-145.503,540
1569674242,389.111,88.8504,-13.5062,178.594,2.52686,-145.503,540
1569674242,389.111,88.8504,-13.5062,178.594,2.52686,-145.503,540
1569674242,389.111,88.8504,-13.5062,178.594,2.52686,-145.503,540
1569674242,389.111,88.8504,-13.5062,178.594,2.52686,-145.503,540
1569674242,389.111,88.8504,-13.5062,178.594,2.50488,-145.503,540
1569674242,389.111,88.8504,-13.5062,178.594,2.50488,-145.503,540
1569674242,389.111,88.8504,-13.5062,178.594,2.50488,-145.503,540
1569674242,389.111,88.8504,-13.5062,178.594,2.50488,-145.503,540
1569674242,389.111,88.8504,-13.5062,178.594,2.50488,-145.503,540
1569674242,389.111,88.8504,-13.5062,178.594,2.50488,-145.525,540
1569674242,389.111,88.8504,-13.5062,178.594,2.50488,-145.525,540
1569674242,389.111,88.8504,-13.5062,178.594,2.50488,-145.525,540
1569674242,389.111,88.7388,-13.5062,178.594,2.50488,-145.525,540
1569674242,389.111,88.7388,-13.5062,178.594,2.50488,-145.525,540
1569674242,389.111,88.7388,-13.5062,178.594,2.50488,-145.525,540
1569674242,389.111,88.7388,-13.5062,178.594,2.50488,-145.525,540
1569674242,389.111,88.7388,-13.5062,178.594,2.50488,-145.525,540
1569674242,389.111,88.7388,-13.5062,178.594,2.50488,-145.525,540
1569674242,389.111,88.7388,-13.5062,178.594,2.50488,-145.525,540
1569674242,389.111,88.7388,-13.5062,178.594,2.50488,-145.525,540
1569674242,389.111,88.7388,-13.5062,178.594,2.50488,-145.525,536
1569674242,389.111,88.7388,-13.5062,178.594,2.52686,-145.525,536
1569674242,389.111,88.7388,-13.5062,178.594,2.52686,-145.525,536
1569674242,389.111,88.7388,-13.5062,178.594,2.52686,-145.525,536
1569674242,389.111,88.7388,-13.5062,178.594,2.50488,-145.525,536
1569674242,389.111,88.7388,-13.5062,178.594,2.50488,-145.525,536
1569674242,389.111,88.7388,-13.5062,178.594,2.50488,-145.525,532
1569674242,389.111,88.7388,-13.5062,178.572,2.50488,-145.525,532
1569674242,389.111,88.7388,-13.5062,178.572,2.50488,-145.525,532
1569674242,389.111,88.7388,-13.5062,178.572,2.50488,-145.525,532
1569674242,389.111,88.7388,-13.5062,178.572,2.50488,-145.525,532
1569674242,389.111,88.7388,-13.5062,178.572,2.50488,-145.525,532
1569674242,389.111,88.7388,-13.5062,178.572,2.50488,-145.525,532
1569674242,389.111,88.7388,-13.5062,178.572,2.50488,-145.525,532
1569674242,389.111,88.7388,-13.5062,178.572,2.50488,-145.525,532
1569674242,389.111,88.7388,-13.5062,178.572,2.50488,-145.525,528
1569674242,389.111,88.7388,-13.5062,178.572,2.50488,-145.525,528
1569674242,389.111,88.7388,-13.5062,178.572,2.50488,-145.525,528
1569674242,389.111,88.7388,-13.5062,178.572,2.50488,-145.547,528
1569674242,389.111,88.7388,-13.5062,178.572,2.50488,-145.547,528
1569674242,389.111,88.7388,-13.5062,178.572,2.50488,-145.547,528
1569674242,389.111,88.7388,-13.5062,178.572,2.50488,-145.547,528
1569674242,389.111,88.7388,-13.5062,178.572,2.50488,-145.547,528
1569674242,389.111,88.7388,-13.5062,178.572,2.50488,-145.547,528
1569674242,389.111,88.7388,-13.5062,178.572,2.50488,-145.547,528
1569674242,389.111,88.7388,-13.5062,178.572,2.50488,-145.525,528
1569674242,389,88.7388,-13.5062,178.572,2.50488,-145.525,528
1569674243,389,88.7388,-13.5062,178.572,2.50488,-145.525,528
1569674243,389,88.7388,-13.5062,178.572,2.50488,-145.525,528
1569674243,389,88.8504,-13.5062,178.572,2.50488,-145.525,528
1569674243,389,88.8504,-13.5062,178.572,2.50488,-145.525,528
1569674243,389,88.8504,-13.5062,178.572,2.50488,-145.525,528
1569674243,389,88.8504,-13.5062,178.572,2.50488,-145.525,528
1569674243,389,88.8504,-13.5062,178.572,2.50488,-145.525,528
1569674243,389,88.8504,-13.5062,178.572,2.50488,-145.525,528
1569674243,389,88.8504,-13.5062,178.572,2.50488,-145.525,528
1569674243,389,88.8504,-13.5062,178.572,2.50488,-145.525,528
1569674243,389,88.8504,-13.5062,178.572,2.50488,-145.525,528
1569674243,389,88.8504,-13.5062,178.572,2.50488,-145.525,528
1569674243,389,88.8504,-13.5062,178.572,2.50488,-145.525,528
1569674243,389,88.8504,-13.5062,178.572,2.50488,-145.525,528
1569674243,389,88.7388,-13.5062,178.572,2.50488,-145.525,532
1569674243,389,88.7388,-13.5062,178.572,2.50488,-145.525,532
1569674243,389,88.7388,-13.5062,178.572,2.48291,-145.525,532
1569674243,389,88.7388,-13.5062,178.572,2.48291,-145.525,532
1569674243,389,88.7388,-13.5062,178.572,2.48291,-145.525,532
1569674243,389,88.7388,-13.5062,178.572,2.48291,-145.525,532
1569674243,389,88.7388,-13.5062,178.572,2.48291,-145.525,532
1569674243,389,88.7388,-13.5062,178.572,2.48291,-145.525,532
1569674243,389,88.7388,-13.5062,178.572,2.48291,-145.525,532
1569674243,389,88.7388,-13.5062,178.572,2.48291,-145.525,536
1569674243,389,88.7388,-13.5062,178.572,2.48291,-145.525,536
1569674243,389,88.7388,-13.5062,178.572,2.48291,-145.525,536
1569674243,389,88.7388,-13.5062,178.572,2.48291,-145.525,536
1569674243,389,88.7388,-13.5062,178.572,2.48291,-145.525,536
1569674243,389,88.7388,-13.5062,178.572,2.48291,-145.525,536
1569674243,389,88.7388,-13.5062,178.572,2.48291,-145.525,536
1569674243,389,88.7388,-13.5062,178.572,2.48291,-145.525,536
1569674243,389,88.7388,-13.5062,178.572,2.48291,-145.525,536
1569674243,389,88.7388,-13.5062,178.572,2.48291,-145.525,536
1569674243,389,88.7388,-13.5062,178.572,2.48291,-145.525,536
1569674243,389.111,88.7388,-13.5062,178.572,2.48291,-145.525,536
1569674243,389.111,88.7388,-13.5062,178.55,2.48291,-145.525,536
1569674243,389.111,88.7388,-13.5062,178.55,2.48291,-145.525,536
1569674243,389.111,88.7388,-13.5062,178.55,2.48291,-145.525,536
1569674243,389.111,88.7388,-13.5062,178.55,2.48291,-145.525,536
1569674243,389.111,88.7388,-13.5062,178.528,2.48291,-145.525,536
1569674243,389.111,88.6272,-13.5062,178.528,2.48291,-145.525,532
1569674243,389.111,88.6272,-13.5062,178.528,2.50488,-145.525,532
1569674243,389.111,88.6272,-13.5062,178.528,2.50488,-145.525,532
1569674243,389.111,88.6272,-13.5062,178.528,2.48291,-145.525,532
1569674243,389.111,88.6272,-13.5062,178.528,2.48291,-145.525,532
1569674243,389.111,88.6272,-13.5062,178.528,2.48291,-145.525,532
1569674243,389.111,88.6272,-13.5062,178.506,2.50488,-145.525,532
1569674243,389.111,88.6272,-13.5062,178.528,2.50488,-145.525,532
1569674243,389.111,88.6272,-13.5062,178.528,2.50488,-145.525,532
1569674243,389.111,88.6272,-13.5062,178.528,2.50488,-145.525,536
1569674243,389.111,88.6272,-13.5062,178.528,2.50488,-145.503,536
1569674243,389.111,88.6272,-13.5062,178.528,2.50488,-145.503,536
1569674243,389,88.6272,-13.5062,178.528,2.50488,-145.503,536
1569674243,389,88.6272,-13.5062,178.528,2.50488,-145.503,540
1569674243,389,88.6272,-13.5062,178.528,2.50488,-145.503,540
1569674243,389,88.6272,-13.5062,178.55,2.50488,-145.503,544
1569674243,389,88.6272,-13.5062,178.55,2.50488,-145.503,544
1569674243,389,88.6272,-13.5062,178.55,2.50488,-145.503,548
1569674243,389,88.6272,-13.5062,178.55,2.50488,-145.503,548
1569674243,389,88.6272,-13.5062,178.55,2.50488,-145.503,548
1569674243,389,88.6272,-13.5062,178.55,2.50488,-145.503,552
1569674243,389,88.6272,-13.5062,178.55,2.50488,-145.503,552
1569674243,389,88.6272,-13.5062,178.55,2.50488,-145.503,552
1569674243,389,88.6272,-13.5062,178.55,2.50488,-145.503,552
1569674243,389,88.6272,-13.5062,178.55,2.50488,-145.503,552
1569674243,389,88.6272,-13.5062,178.55,2.50488,-145.503,556
1569674243,389,88.6272,-13.5062,178.55,2.50488,-145.503,556
1569674243,389,88.7388,-13.5062,178.55,2.50488,-145.503,556
1569674243,389,88.7388,-13.5062,178.55,2.50488,-145.503,556
1569674243,389,88.7388,-13.5062,178.55,2.50488,-145.503,556
1569674243,389,88.7388,-13.5062,178.55,2.50488,-145.503,556
1569674243,389,88.7388,-13.5062,178.55,2.50488,-145.503,556
1569674243,389,88.7388,-13.5062,178.572,2.50488,-145.503,556
1569674243,389,88.7388,-13.5062,178.572,2.50488,-145.503,556
1569674243,389,88.7388,-13.5062,178.572,2.50488,-145.503,556
1569674243,389,88.7388,-13.5062,178.55,2.50488,-145.503,556
1569674243,389,88.7388,-13.5062,178.55,2.52686,-145.503,552
1569674243,389,88.7388,-13.5062,178.55,2.52686,-145.503,552
1569674243,389,88.7388,-13.3945,178.55,2.52686,-145.503,552
1569674243,389,88.7388,-13.3945,178.55,2.52686,-145.503,552
1569674243,389,88.7388,-13.3945,178.55,2.52686,-145.503,552
1569674243,389,88.7388,-13.3945,178.55,2.52686,-145.503,552
1569674243,389,88.7388,-13.3945,178.55,2.52686,-145.503,552
1569674243,389,88.7388,-13.3945,178.55,2.52686,-145.503,552
1569674243,389,88.7388,-13.3945,178.55,2.52686,-145.503,552
1569674243,389,88.7388,-13.3945,178.55,2.52686,-145.503,552
1569674243,389,88.7388,-13.3945,178.572,2.52686,-145.503,552
1569674243,388.888,88.7388,-13.3945,178.572,2.52686,-145.503,552
1569674243,388.888,88.7388,-13.3945,178.572,2.52686,-145.503,552
1569674243,388.888,88.7388,-13.3945,178.572,2.52686,-145.503,552
1569674243,388.888,88.7388,-13.3945,178.572,2.52686,-145.503,556
1569674243,388.888,88.7388,-13.3945,178.572,2.52686,-145.503,556
1569674243,388.888,88.7388,-13.3945,178.572,2.52686,-145.503,556
1569674243,388.888,88.7388,-13.3945,178.572,2.52686,-145.503,556
1569674243,388.888,88.7388,-13.3945,178.572,2.52686,-145.503,556
1569674243,388.888,88.7388,-13.3945,178.572,2.54883,-145.503,556
1569674243,388.888,88.7388,-13.3945,178.572,2.54883,-145.503,556
1569674243,388.888,88.7388,-13.3945,178.572,2.54883,-145.503,556
1569674243,388.888,88.7388,-13.3945,178.572,2.54883,-145.503,556
1569674243,388.888,88.7388,-13.3945,178.572,2.52686,-145.503,556
1569674243,388.888,88.7388,-13.3945,178.572,2.52686,-145.503,556
1569674244,388.888,88.7388,-13.3945,178.572,2.52686,-145.503,556
1569674244,388.888,88.7388,-13.3945,178.572,2.52686,-145.503,556
1569674244,388.888,88.7388,-13.3945,178.572,2.52686,-145.503,556
1569674244,388.888,88.7388,-13.3945,178.572,2.52686,-145.503,556
1569674244,388.888,88.7388,-13.3945,178.572,2.52686,-145.503,556
1569674244,388.888,88.7388,-13.3945,178.55,2.52686,-145.503,556
1569674244,388.888,88.7388,-13.3945,178.55,2.52686,-145.503,556
1569674244,388.888,88.7388,-13.3945,178.55,2.52686,-145.503,556
1569674244,389,88.7388,-13.3945,178.55,2.50488,-145.503,552
1569674244,389,88.7388,-13.5062,178.55,2.50488,-145.503,552
1569674244,389,88.7388,-13.5062,178.55,2.50488,-145.503,552
1569674244,389,88.7388,-13.5062,178.55,2.52686,-145.503,552
1569674244,389,88.7388,-13.5062,178.572,2.52686,-145.503,552
1569674244,389,88.7388,-13.5062,178.572,2.52686,-145.503,552
1569674244,389,88.7388,-13.5062,178.572,2.52686,-145.503,552
1569674244,389,88.7388,-13.5062,178.572,2.52686,-145.503,552
1569674244,389,88.7388,-13.5062,178.572,2.52686,-145.503,552
1569674244,389,88.7388,-13.3945,178.572,2.52686,-145.503,552
1569674244,389,88.7388,-13.3945,178.572,2.52686,-145.503,552
1569674244,389,88.7388,-13.3945,178.572,2.52686,-145.503,552
1569674244,389.111,88.7388,-13.3945,178.572,2.52686,-145.503,548
1569674244,389.111,88.8504,-13.3945,178.572,2.52686,-145.503,548
1569674244,389.111,88.8504,-13.3945,178.572,2.52686,-145.503,548
1569674244,389.111,88.8504,-13.3945,178.572,2.54883,-145.503,544
1569674244,389.111,88.8504,-13.3945,178.572,2.54883,-145.503,544
1569674244,389.111,88.8504,-13.3945,178.572,2.52686,-145.503,540
1569674244,389.111,88.8504,-13.3945,178.572,2.52686,-145.503,540
1569674244,389.111,88.8504,-13.3945,178.572,2.52686,-145.503,540
1569674244,389.111,88.8504,-13.3945,178.572,2.52686,-145.503,536
1569674244,389.111,88.8504,-13.3945,178.572,2.52686,-145.503,536
1569674244,389.111,88.8504,-13.3945,178.572,2.52686,-145.503,536
1569674244,389.111,88.8504,-13.3945,178.572,2.52686,-145.503,532
1569674244,389.111,88.8504,-13.3945,178.572,2.52686,-145.503,532
1569674244,389.111,88.8504,-13.3945,178.572,2.52686,-145.503,532
1569674244,389.111,88.8504,-13.3945,178.572,2.52686,-145.503,532
1569674244,389.111,88.8504,-13.3945,178.572,2.52686,-145.525,528
1569674244,389.111,88.8504,-13.3945,178.572,2.52686,-145.525,528
1569674244,389.111,88.8504,-13.5062,178.572,2.52686,-145.525,528
1569674244,389.111,88.8504,-13.5062,178.572,2.52686,-145.525,528
1569674244,389.111,88.8504,-13.5062,178.572,2.50488,-145.525,528
1569674244,389.111,88.8504,-13.5062,178.572,2.50488,-145.525,524
1569674244,389.111,88.8504,-13.5062,178.594,2.50488,-145.525,524
1569674244,389.111,88.8504,-13.5062,178.594,2.50488,-145.525,524
1569674244,389.111,88.8504,-13.5062,178.594,2.50488,-145.525,524
1569674244,389.111,88.8504,-13.5062,178.594,2.50488,-145.525,524
1569674244,389.111,88.8504,-13.5062,178.594,2.50488,-145.525,524
1569674244,389.111,88.8504,-13.5062,178.594,2.50488,-145.525,524
1569674244,389.111,88.8504,-13.5062,178.594,2.50488,-145.525,524
1569674244,389,88.8504,-13.5062,178.594,2.50488,-145.525,524
1569674244,389,88.8504,-13.5062,178.594,2.50488,-145.525,524
1569674244,389,88.8504,-13.5062,178.594,2.50488,-145.525,524
1569674244,389,88.8504,-13.5062,178.594,2.50488,-145.525,524
1569674244,389,88.8504,-13.5062,178.594,2.50488,-145.525,524
1569674244,389,88.8504,-13.5062,178.594,2.50488,-145.525,524
1569674244,389.111,88.8504,-13.5062,178.594,2.50488,-145.525,520
1569674244,389.111,88.8504,-13.5062,178.594,2.50488,-145.525,520
1569674244,389.111,88.8504,-13.5062,178.594,2.50488,-145.525,520
1569674244,389.111,88.8504,-13.5062,178.594,2.50488,-145.525,520
1569674244,389.111,88.8504,-13.5062,178.594,2.50488,-145.525,520
1569674244,389.111,88.8504,-13.5062,178.594,2.50488,-145.525,516
1569674244,389.111,88.962,-13.5062,178.594,2.50488,-145.525,516
1569674244,389.111,88.962,-13.5062,178.594,2.50488,-145.525,516
1569674244,389.111,88.962,-13.5062,178.594,2.50488,-145.525,512
1569674244,389.111,88.962,-13.5062,178.616,2.50488,-145.525,512
1569674244,389.111,88.962,-13.5062,178.616,2.50488,-145.525,512
1569674244,389.111,88.962,-13.5062,178.616,2.50488,-145.525,508
1569674244,389.111,88.962,-13.3945,178.616,2.52686,-145.525,508
1569674244,389.111,88.962,-13.3945,178.616,2.52686,-145.525,508
1569674244,389.111,88.962,-13.3945,178.616,2.52686,-145.525,508
1569674244,389.111,88.962,-13.3945,178.616,2.52686,-145.525,508
1569674244,389.111,88.962,-13.3945,178.616,2.52686,-145.525,504
1569674244,389.111,88.8504,-13.3945,178.616,2.52686,-145.525,504
1569674244,389,88.8504,-13.3945,178.616,2.52686,-145.525,504
1569674244,389,88.8504,-13.3945,178.616,2.52686,-145.525,504
1569674244,389,88.8504,-13.3945,178.616,2.52686,-145.525,504
1569674244,389,88.962,-13.3945,178.616,2.50488,-145.525,504
1569674244,389,88.962,-13.3945,178.616,2.50488,-145.525,504
1569674244,389,88.962,-13.3945,178.616,2.50488,-145.525,504
1569674244,389,88.962,-13.3945,178.616,2.50488,-145.525,504
1569674244,389,88.962,-13.3945,178.616,2.50488,-145.525,508
1569674244,389,88.962,-13.5062,178.616,2.50488,-145.525,508
1569674244,389,88.962,-13.5062,178.616,2.48291,-145.525,508
1569674244,389,88.962,-13.5062,178.616,2.48291,-145.525,508
1569674244,389,88.962,-13.5062,178.616,2.48291,-145.525,512
1569674244,389,88.962,-13.5062,178.616,2.48291,-145.525,512
1569674244,389,88.962,-13.5062,178.616,2.48291,-145.525,516
1569674244,389,88.962,-13.5062,178.616,2.48291,-145.525,516
1569674244,389,88.962,-13.5062,178.616,2.48291,-145.503,516
1569674244,389,88.962,-13.5062,178.616,2.48291,-145.503,520
1569674244,389,88.962,-13.5062,178.616,2.48291,-145.503,524
1569674244,389,88.962,-13.5062,178.616,2.48291,-145.503,528
1569674244,389,88.8504,-13.5062,178.616,2.50488,-145.503,528
1569674244,389,88.8504,-13.5062,178.616,2.50488,-145.503,532
1569674244,389,88.8504,-13.5062,178.616,2.48291,-145.503,536
1569674244,389,88.8504,-13.5062,178.616,2.48291,-145.503,536
1569674244,389,88.8504,-13.5062,178.594,2.48291,-145.503,540
1569674244,389,88.8504,-13.5062,178.594,2.48291,-145.503,544
1569674244,389,88.8504,-13.5062,178.594,2.48291,-145.503,544
1569674244,389,88.8504,-13.5062,178.594,2.48291,-145.503,544
1569674244,389,88.8504,-13.5062,178.594,2.48291,-145.503,548
1569674245,389,88.8504,-13.5062,178.594,2.48291,-145.503,548
1569674245,389,88.8504,-13.5062,178.594,2.48291,-145.503,548
1569674245,389,88.8504,-13.5062,178.594,2.48291,-145.503,548
1569674245,389,88.8504,-13.5062,178.594,2.48291,-145.503,548
1569674245,389,88.8504,-13.5062,178.594,2.48291,-145.503,548
1569674245,389,88.8504,-13.5062,178.594,2.48291,-145.503,544
1569674245,389,88.8504,-13.5062,178.594,2.48291,-145.503,544
1569674245,389,88.8504,-13.6178,178.594,2.48291,-145.503,544
1569674245,389,88.8504,-13.6178,178.594,2.48291,-145.503,544
1569674245,389,88.8504,-13.6178,178.594,2.48291,-145.503,544
1569674245,389,88.8504,-13.6178,178.572,2.48291,-145.503,540
1569674245,389,88.7388,-13.6178,178.572,2.48291,-145.503,540
1569674245,389,88.7388,-13.6178,178.572,2.46094,-145.503,540
1569674245,389,88.7388,-13.6178,178.572,2.46094,-145.503,540
1569674245,389.111,88.7388,-13.6178,178.572,2.46094,-145.503,540
1569674245,389.111,88.7388,-13.6178,178.55,2.46094,-145.503,536
1569674245,389.111,88.7388,-13.6178,178.55,2.48291,-145.503,536
1569674245,389.111,88.7388,-13.6178,178.55,2.48291,-145.503,536
1569674245,389.111,88.7388,-13.6178,178.55,2.48291,-145.503,536
1569674245,389.111,88.7388,-13.6178,178.55,2.48291,-145.503,536
1569674245,389.111,88.7388,-13.6178,178.55,2.48291,-145.503,536
1569674245,389.111,88.7388,-13.6178,178.55,2.48291,-145.503,536
1569674245,389.111,88.7388,-13.6178,178.55,2.48291,-145.503,536
1569674245,389.111,88.7388,-13.6178,178.55,2.48291,-145.503,536
1569674245,389.111,88.7388,-13.6178,178.55,2.48291,-145.503,536
1569674245,389.111,88.7388,-13.6178,178.572,2.48291,-145.503,536
1569674245,389,88.7388,-13.6178,178.572,2.48291,-145.503,536
1569674245,389,88.7388,-13.6178,178.572,2.46094,-145.503,536
1569674245,389,88.7388,-13.6178,178.572,2.46094,-145.503,536
1569674245,389,88.7388,-13.6178,178.572,2.46094,-145.503,536
1569674245,389,88.7388,-13.6178,178.572,2.46094,-145.503,532
1569674245,389,88.7388,-13.6178,178.572,2.46094,-145.503,532
1569674245,389,88.7388,-13.6178,178.572,2.46094,-145.503,532
1569674245,389,88.7388,-13.6178,178.572,2.46094,-145.503,532
1569674245,389,88.7388,-13.6178,178.572,2.46094,-145.503,532
1569674245,389,88.7388,-13.6178,178.572,2.46094,-145.503,532
1569674245,389,88.7388,-13.6178,178.572,2.46094,-145.503,532
1569674245,389,88.7388,-13.6178,178.572,2.46094,-145.503,532
1569674245,389,88.7388,-13.6178,178.572,2.46094,-145.503,532
1569674245,389,88.7388,-13.6178,178.572,2.46094,-145.503,532
1569674245,389,88.8504,-13.6178,178.594,2.46094,-145.503,532
1569674245,389,88.8504,-13.6178,178.594,2.46094,-145.503,536
1569674245,389,88.8504,-13.6178,178.594,2.46094,-145.503,536
1569674245,389,88.8504,-13.6178,178.594,2.46094,-145.503,536
1569674245,389,88.8504,-13.6178,178.594,2.46094,-145.503,536
1569674245,389,88.8504,-13.6178,178.594,2.46094,-145.503,536
1569674245,389,88.8504,-13.6178,178.594,2.46094,-145.503,536
1569674245,389,88.8504,-13.6178,178.594,2.48291,-145.503,536
1569674245,389,88.8504,-13.6178,178.594,2.48291,-145.503,536
1569674245,389,88.8504,-13.5062,178.594,2.48291,-145.503,536
1569674245,389.111,88.8504,-13.5062,178.594,2.48291,-145.503,536
1569674245,389.111,88.8504,-13.5062,178.572,2.50488,-145.503,536
1569674245,389.111,88.8504,-13.5062,178.572,2.50488,-145.503,536
1569674245,389.111,88.8504,-13.5062,178.572,2.50488,-145.503,532
1569674245,389.111,88.8504,-13.5062,178.572,2.50488,-145.503,532
1569674245,389.111,88.8504,-13.5062,178.572,2.50488,-145.503,532
1569674245,389.111,88.8504,-13.5062,178.572,2.52686,-145.503,532
1569674245,389,88.8504,-13.3945,178.594,2.52686,-145.503,532
1569674245,389,88.8504,-13.3945,178.594,2.52686,-145.503,532
1569674249,366.229,113.184,-13.841,178.528,2.37305,-145.371,480
1569674249,366.229,113.184,-13.841,178.528,2.37305,-145.371,480
1569674249,366.229,113.184,-13.841,178.528,2.37305,-145.371,480
1569674249,366.229,113.184,-13.841,178.528,2.37305,-145.371,480
1569674249,366.117,113.184,-13.841,178.528,2.37305,-145.349,480
1569674249,366.117,113.184,-13.841,178.528,2.37305,-145.349,484
1569674249,366.117,113.184,-13.841,178.528,2.37305,-145.349,484
1569674249,366.117,113.184,-13.841,178.528,2.37305,-145.371,484
1569674249,366.117,113.184,-13.841,178.528,2.37305,-145.371,484
1569674249,366.117,113.184,-13.841,178.528,2.37305,-145.371,484
1569674249,366.117,113.184,-13.841,178.528,2.37305,-145.371,484
1569674249,366.117,113.184,-13.841,178.528,2.37305,-145.371,484
1569674249,366.117,113.184,-13.841,178.528,2.37305,-145.371,488
1569674249,366.229,113.184,-13.841,178.528,2.37305,-145.371,488
1569674249,366.229,113.184,-13.841,178.528,2.37305,-145.371,488
1569674249,366.229,113.184,-13.841,178.528,2.37305,-145.371,488
1569674249,366.229,113.184,-13.841,178.528,2.37305,-145.371,492
1569674249,366.229,113.184,-13.841,178.528,2.37305,-145.371,492
1569674249,366.229,113.184,-13.841,178.528,2.37305,-145.371,492
1569674249,366.229,113.184,-13.841,178.506,2.37305,-145.371,492
1569674249,366.229,113.184,-13.841,178.506,2.37305,-145.371,496
1569674249,366.229,113.184,-13.841,178.528,2.37305,-145.371,496
1569674249,366.229,113.184,-13.841,178.528,2.37305,-145.371,496
1569674249,366.117,113.184,-13.841,178.528,2.37305,-145.349,496
1569674249,366.117,113.184,-13.841,178.528,2.37305,-145.349,496
1569674249,366.229,113.184,-13.841,178.528,2.37305,-145.349,500
1569674249,366.229,113.184,-13.841,178.506,2.37305,-145.349,500
1569674249,366.229,113.184,-13.841,178.506,2.37305,-145.371,500
1569674249,366.229,113.072,-13.841,178.506,2.37305,-145.371,500
1569674249,366.229,113.072,-13.841,178.506,2.37305,-145.371,500
1569674249,366.229,113.072,-13.841,178.506,2.37305,-145.371,500
1569674249,366.229,113.072,-13.841,178.506,2.37305,-145.371,500
1569674249,366.229,113.072,-13.841,178.506,2.37305,-145.371,500
1569674249,366.229,113.072,-13.841,178.506,2.37305,-145.371,500
1569674249,366.229,113.072,-13.841,178.506,2.37305,-145.371,500
1569674249,366.229,113.072,-13.841,178.484,2.37305,-145.371,500
1569674249,366.229,113.072,-13.841,178.484,2.37305,-145.371,500
1569674250,366.229,113.072,-13.841,178.484,2.37305,-145.349,500
1569674250,366.229,113.072,-13.9526,178.484,2.37305,-145.349,500
1569674250,366.229,113.072,-13.9526,178.484,2.35107,-145.349,500
1569674250,366.229,113.072,-13.9526,178.484,2.35107,-145.349,500
1569674250,366.229,113.072,-13.9526,178.484,2.35107,-145.349,500
1569674250,366.229,113.072,-13.9526,178.506,2.35107,-145.349,500
1569674250,366.229,113.072,-13.9526,178.506,2.35107,-145.349,500
1569674250,366.229,113.072,-13.9526,178.506,2.35107,-145.349,500
1569674250,366.229,113.072,-13.9526,178.506,2.35107,-145.349,500
1569674250,366.229,113.072,-13.9526,178.506,2.35107,-145.349,500
1569674250,366.229,113.072,-13.9526,178.506,2.35107,-145.349,500
1569674250,366.229,113.072,-13.9526,178.506,2.35107,-145.349,500
1569674250,366.229,113.072,-13.9526,178.506,2.35107,-145.349,500
1569674250,366.229,113.072,-13.9526,178.484,2.35107,-145.349,500
1569674250,366.229,113.072,-13.9526,178.484,2.35107,-145.349,500
1569674250,366.229,113.072,-13.9526,178.484,2.35107,-145.349,500
1569674250,366.229,113.072,-13.9526,178.484,2.35107,-145.349,500
1569674250,366.229,113.072,-13.9526,178.484,2.35107,-145.349,500
1569674250,366.229,113.072,-13.9526,178.484,2.35107,-145.349,504
1569674250,366.229,113.072,-13.9526,178.484,2.35107,-145.349,504
1569674250,366.229,113.072,-13.9526,178.484,2.3291,-145.349,504
1569674250,366.229,113.072,-13.9526,178.484,2.3291,-145.349,504
1569674250,366.229,113.072,-13.9526,178.484,2.3291,-145.349,504
1569674250,366.229,113.072,-13.9526,178.484,2.3291,-145.349,508
1569674250,366.229,113.072,-13.9526,178.484,2.3291,-145.349,508
1569674250,366.229,113.072,-13.9526,178.484,2.3291,-145.371,508
1569674250,366.229,113.072,-13.9526,178.484,2.3291,-145.371,508
1569674250,366.229,113.072,-13.9526,178.484,2.3291,-145.371,508
1569674250,366.229,113.072,-13.9526,178.484,2.3291,-145.371,508
1569674250,366.229,113.072,-13.9526,178.484,2.3291,-145.371,508
1569674250,366.229,113.072,-14.0643,178.484,2.3291,-145.371,508
1569674250,366.229,113.072,-14.0643,178.484,2.3291,-145.371,508
1569674250,366.229,113.072,-14.0643,178.484,2.3291,-145.371,508
1569674250,366.229,113.072,-14.0643,178.484,2.3291,-145.371,508
1569674250,366.229,113.072,-14.0643,178.484,2.3291,-145.371,508
1569674250,366.229,113.072,-14.0643,178.484,2.3291,-145.371,504
1569674250,366.229,113.072,-14.0643,178.484,2.3291,-145.371,504
1569674250,366.229,113.072,-14.0643,178.484,2.3291,-145.371,504
1569674250,366.229,113.072,-14.0643,178.484,2.3291,-145.371,504
1569674250,366.229,113.072,-14.0643,178.484,2.3291,-145.371,504
1569674250,366.229,113.072,-14.0643,178.484,2.3291,-145.371,500
1569674250,366.229,113.072,-14.0643,178.484,2.3291,-145.371,500
1569674250,366.229,113.072,-14.0643,178.484,2.3291,-145.371,500
1569674250,366.229,113.072,-14.0643,178.484,2.3291,-145.371,500
1569674250,366.229,113.072,-14.0643,178.506,2.3291,-145.371,500
1569674250,366.229,113.072,-14.0643,178.506,2.3291,-145.371,496
1569674250,366.229,113.072,-14.0643,178.506,2.3291,-145.371,496
1569674250,366.229,113.072,-14.0643,178.506,2.3291,-145.371,496
1569674250,366.229,113.072,-14.0643,178.506,2.3291,-145.371,496
1569674250,366.229,113.184,-14.0643,178.506,2.3291,-145.371,496
1569674250,366.229,113.184,-13.9526,178.506,2.3291,-145.371,496
1569674250,366.229,113.184,-13.9526,178.506,2.3291,-145.371,496
1569674250,366.229,113.184,-13.9526,178.506,2.3291,-145.371,492
1569674250,366.229,113.184,-13.9526,178.506,2.3291,-145.371,492
1569674250,366.229,113.184,-13.9526,178.506,2.35107,-145.371,492
1569674250,366.229,113.184,-13.9526,178.506,2.35107,-145.371,492
1569674250,366.229,113.184,-13.9526,178.506,2.35107,-145.371,492
1569674250,366.229,113.184,-13.9526,178.506,2.35107,-145.371,492
1569674250,366.229,113.184,-13.9526,178.506,2.35107,-145.371,492
1569674250,366.229,113.184,-13.9526,178.506,2.35107,-145.371,492
1569674250,366.229,113.184,-13.9526,178.506,2.35107,-145.371,488
1569674250,366.229,113.184,-13.9526,178.506,2.35107,-145.371,488
1569674250,366.229,113.184,-13.9526,178.506,2.35107,-145.371,488
1569674250,366.229,113.184,-13.9526,178.506,2.35107,-145.371,488
1569674250,366.229,113.184,-13.9526,178.506,2.35107,-145.371,488
1569674250,366.229,113.184,-13.9526,178.506,2.35107,-145.371,488
1569674250,366.229,113.184,-13.9526,178.506,2.35107,-145.371,488
1569674250,366.229,113.184,-13.9526,178.506,2.35107,-145.371,488
1569674250,366.229,113.184,-13.9526,178.506,2.35107,-145.371,488
1569674250,366.229,113.184,-13.9526,178.506,2.35107,-145.371,488
1569674250,366.229,113.184,-13.9526,178.506,2.35107,-145.371,492
1569674250,366.229,113.184,-13.9526,178.528,2.35107,-145.371,492
1569674250,366.229,113.184,-13.9526,178.528,2.35107,-145.371,492
1569674250,366.229,113.184,-13.9526,178.528,2.35107,-145.371,492
1569674250,366.229,113.184,-13.9526,178.528,2.35107,-145.371,492
1569674250,366.117,113.184,-13.9526,178.528,2.35107,-145.371,492
1569674250,366.117,113.184,-13.9526,178.528,2.35107,-145.371,492
1569674250,366.117,113.184,-13.9526,178.528,2.35107,-145.371,492
1569674250,366.117,113.184,-13.9526,178.528,2.35107,-145.371,492
1569674250,366.117,113.184,-13.9526,178.528,2.35107,-145.371,492
1569674250,366.117,113.184,-13.841,178.528,2.35107,-145.371,496
1569674250,366.117,113.184,-13.841,178.528,2.35107,-145.371,496
1569674250,366.117,113.184,-13.9526,178.528,2.35107,-145.371,496
1569674250,366.117,113.184,-13.9526,178.528,2.35107,-145.371,496
1569674250,366.117,113.184,-13.9526,178.528,2.35107,-145.371,496
1569674250,366.117,113.184,-13.9526,178.528,2.35107,-145.371,496
1569674250,366.117,113.184,-13.9526,178.528,2.35107,-145.371,500
1569674250,366.117,113.184,-13.9526,178.55,2.35107,-145.371,500
1569674250,366.117,113.184,-13.9526,178.55,2.35107,-145.393,500
1569674250,366.117,113.184,-13.9526,178.55,2.35107,-145.393,500
1569674250,366.117,113.184,-13.9526,178.55,2.35107,-145.393,500
1569674250,366.117,113.184,-13.9526,178.55,2.35107,-145.393,504
1569674250,366.117,113.184,-13.9526,178.55,2.35107,-145.393,504
1569674250,366.117,113.184,-13.9526,178.55,2.35107,-145.393,504
1569674250,366.117,113.184,-13.9526,178.528,2.35107,-145.393,504
1569674250,366.117,113.184,-13.9526,178.528,2.35107,-145.393,504
1569674250,366.117,113.184,-13.9526,178.528,2.35107,-145.393,504
1569674250,366.117,113.184,-13.9526,178.528,2.35107,-145.393,504
1569674250,366.117,113.184,-13.9526,178.528,2.35107,-145.393,504
1569674250,366.117,113.184,-13.9526,178.528,2.35107,-145.393,504
1569674251,366.117,113.184,-13.9526,178.528,2.35107,-145.393,504
1569674251,366.117,113.184,-13.9526,178.528,2.35107,-145.393,504
1569674251,366.117,113.184,-13.9526,178.528,2.35107,-145.393,504
1569674251,366.229,113.184,-13.9526,178.528,2.35107,-145.393,504
1569674251,366.229,113.184,-13.841,178.528,2.35107,-145.393,504
1569674251,366.229,113.184,-13.841,178.528,2.35107,-145.393,504
1569674251,366.229,113.184,-13.841,178.528,2.35107,-145.393,504
1569674251,366.229,113.184,-13.841,178.528,2.35107,-145.393,500
1569674251,366.229,113.184,-13.841,178.528,2.35107,-145.393,500
1569674251,366.229,113.184,-13.841,178.528,2.35107,-145.393,500
1569674251,366.229,113.184,-13.841,178.528,2.35107,-145.393,500
1569674251,366.229,113.184,-13.841,178.528,2.35107,-145.393,496
1569674251,366.229,113.184,-13.841,178.528,2.35107,-145.393,496
1569674251,366.229,113.184,-13.841,178.506,2.35107,-145.393,496
1569674251,366.229,113.184,-13.9526,178.506,2.35107,-145.393,496
1569674251,366.229,113.184,-13.9526,178.506,2.35107,-145.371,496
1569674251,366.229,113.184,-13.9526,178.506,2.35107,-145.371,496
1569674251,366.229,113.184,-13.9526,178.506,2.35107,-145.371,496
1569674251,366.229,113.184,-13.9526,178.506,2.35107,-145.371,496
1569674251,366.229,113.184,-13.9526,178.506,2.35107,-145.371,496
1569674251,366.229,113.184,-13.9526,178.506,2.35107,-145.371,496
1569674251,366.229,113.184,-13.9526,178.506,2.35107,-145.371,496
1569674251,366.229,113.184,-13.9526,178.506,2.35107,-145.371,500
1569674251,366.229,113.072,-13.9526,178.506,2.35107,-145.371,500
1569674251,366.229,113.072,-13.9526,178.506,2.35107,-145.371,500
1569674251,366.229,113.072,-13.9526,178.484,2.35107,-145.371,500
1569674251,366.229,113.072,-13.9526,178.484,2.35107,-145.371,500
1569674251,366.229,113.072,-13.9526,178.484,2.3291,-145.371,500
1569674251,366.229,113.072,-13.9526,178.484,2.3291,-145.371,500
1569674251,366.229,113.072,-13.9526,178.484,2.3291,-145.371,500
1569674251,366.229,113.072,-13.9526,178.484,2.3291,-145.371,504
1569674251,366.229,113.072,-13.9526,178.484,2.3291,-145.371,504
1569674251,366.229,113.072,-13.9526,178.484,2.3291,-145.371,504
1569674251,366.229,113.072,-13.9526,178.484,2.3291,-145.371,504
1569674251,366.229,113.072,-13.9526,178.462,2.3291,-145.371,504
1569674251,366.229,113.072,-13.9526,178.462,2.3291,-145.371,504
1569674251,366.229,113.072,-13.9526,178.462,2.3291,-145.371,504
1569674251,366.229,112.961,-13.9526,178.462,2.3291,-145.371,504
1569674251,366.229,112.961,-13.9526,178.462,2.3291,-145.371,504
1569674251,366.229,112.961,-13.9526,178.462,2.3291,-145.371,504
1569674251,366.229,112.961,-13.9526,178.462,2.35107,-145.371,504
1569674251,366.229,112.961,-13.9526,178.462,2.35107,-145.371,504
1569674251,366.229,112.961,-13.9526,178.462,2.35107,-145.371,504
1569674251,366.229,112.961,-13.9526,178.462,2.35107,-145.371,504
1569674251,366.229,112.961,-13.9526,178.462,2.35107,-145.371,504
1569674251,366.229,112.961,-13.9526,178.462,2.35107,-145.371,508
1569674251,366.229,112.961,-13.9526,178.462,2.35107,-145.371,508
1569674251,366.117,112.961,-13.9526,178.462,2.35107,-145.371,508
1569674251,366.117,112.961,-13.9526,178.462,2.35107,-145.371,508
1569674251,366.117,112.961,-13.9526,178.462,2.35107,-145.371,508
1569674251,366.117,112.961,-13.9526,178.462,2.35107,-145.371,508
1569674251,366.117,112.961,-13.9526,178.462,2.35107,-145.371,504
1569674251,366.229,112.961,-13.9526,178.462,2.35107,-145.371,504
1569674251,366.229,112.961,-13.9526,178.462,2.35107,-145.371,504
1569674251,366.229,113.072,-13.9526,178.462,2.35107,-145.371,504
1569674251,366.229,113.072,-13.9526,178.462,2.35107,-145.371,504
1569674251,366.229,113.072,-13.9526,178.462,2.35107,-145.371,504
1569674251,366.229,113.072,-13.9526,178.462,2.35107,-145.371,504
1569674251,366.229,113.072,-13.9526,178.462,2.35107,-145.371,504
1569674251,366.229,113.072,-13.9526,178.462,2.35107,-145.371,504
1569674251,366.229,113.072,-13.9526,178.462,2.35107,-145.371,504
1569674251,366.229,113.072,-13.9526,178.462,2.35107,-145.371,500
1569674251,366.229,113.072,-13.9526,178.462,2.35107,-145.371,500
1569674251,366.229,113.072,-13.9526,178.462,2.35107,-145.371,500
1569674251,366.229,113.072,-13.9526,178.462,2.35107,-145.371,500
1569674251,366.229,113.072,-13.9526,178.462,2.35107,-145.371,500
1569674251,366.229,113.072,-13.9526,178.462,2.3291,-145.371,500
1569674251,366.229,113.072,-13.9526,178.462,2.3291,-145.371,496
1569674251,366.229,113.072,-13.9526,178.462,2.3291,-145.371,496
1569674251,366.229,113.072,-13.9526,178.462,2.3291,-145.371,496
1569674251,366.229,113.072,-13.9526,178.484,2.3291,-145.371,496
1569674251,366.229,113.072,-13.9526,178.484,2.3291,-145.371,492
1569674251,366.229,113.072,-13.9526,178.484,2.3291,-145.371,492
1569674251,366.229,113.072,-13.9526,178.484,2.3291,-145.371,492
1569674251,366.229,113.184,-13.9526,178.484,2.3291,-145.371,492
1569674251,366.229,113.184,-13.9526,178.506,2.3291,-145.371,488
1569674251,366.229,113.184,-13.9526,178.506,2.3291,-145.371,488
1569674251,366.229,113.184,-13.9526,178.506,2.3291,-145.371,488
1569674251,366.229,113.184,-13.9526,178.506,2.3291,-145.371,488
1569674251,366.229,113.184,-13.9526,178.506,2.3291,-145.371,484
1569674251,366.229,113.184,-14.0643,178.506,2.3291,-145.371,484
1569674251,366.229,113.184,-14.0643,178.506,2.3291,-145.371,484
1569674251,366.229,113.184,-14.0643,178.506,2.3291,-145.371,484
1569674251,366.229,113.184,-14.0643,178.506,2.3291,-145.371,484
1569674251,366.229,113.184,-14.0643,178.506,2.3291,-145.371,484
1569674251,366.229,113.184,-14.0643,178.506,2.30713,-145.371,484
1569674251,366.229,113.184,-14.0643,178.506,2.30713,-145.371,484
1569674251,366.229,113.072,-14.0643,178.506,2.30713,-145.371,484
1569674251,366.229,113.072,-14.0643,178.506,2.30713,-145.371,484
1569674251,366.229,113.072,-14.0643,178.506,2.30713,-145.371,484
1569674251,366.117,113.184,-14.0643,178.506,2.30713,-145.371,488
1569674251,366.117,113.072,-14.0643,178.506,2.30713,-145.371,488
1569674251,366.117,113.072,-14.0643,178.506,2.30713,-145.371,488
1569674251,366.117,113.072,-14.0643,178.506,2.30713,-145.371,488
1569674251,366.117,113.072,-14.0643,178.506,2.30713,-145.371,488
1569674251,366.117,113.072,-14.0643,178.506,2.30713,-145.349,492
1569674251,366.117,113.072,-14.0643,178.506,2.30713,-145.349,492
1569674251,366.117,113.072,-14.0643,178.506,2.30713,-145.349,492
1569674251,366.117,113.072,-14.0643,178.506,2.30713,-145.349,492
1569674251,366.117,113.072,-14.0643,178.506,2.30713,-145.349,496
1569674252,366.117,113.072,-14.0643,178.506,2.30713,-145.349,496
1569674252,366.117,113.072,-14.0643,178.506,2.30713,-145.349,496
1569674252,366.117,113.072,-14.0643,178.506,2.3291,-145.349,496
1569674252,366.117,113.072,-14.0643,178.506,2.3291,-145.349,496
1569674252,366.117,113.072,-13.9526,178.484,2.3291,-145.349,496
1569674252,366.117,112.961,-13.9526,178.484,2.3291,-145.349,496
1569674252,366.117,112.961,-13.9526,178.484,2.3291,-145.349,496
1569674252,366.117,112.961,-13.9526,178.484,2.3291,-145.349,496
1569674252,366.117,112.961,-13.9526,178.484,2.3291,-145.349,496
1569674252,366.117,112.961,-13.9526,178.484,2.3291,-145.349,496
1569674252,366.117,112.961,-13.9526,178.484,2.3291,-145.349,496
1569674252,366.117,112.961,-14.0643,178.484,2.3291,-145.349,496
1569674252,366.117,112.961,-14.0643,178.462,2.3291,-145.349,496
1569674252,366.117,112.961,-14.0643,178.462,2.3291,-145.349,496
1569674252,366.117,112.961,-14.0643,178.462,2.3291,-145.349,496
1569674252,366.117,112.961,-14.0643,178.462,2.3291,-145.349,496
1569674252,366.117,112.961,-14.0643,178.462,2.3291,-145.349,496
1569674252,366.117,112.961,-13.9526,178.484,2.3291,-145.349,496
1569674252,366.117,112.961,-13.9526,178.484,2.3291,-145.349,496
1569674252,366.117,112.961,-13.9526,178.484,2.3291,-145.349,496
1569674252,366.117,112.961,-13.9526,178.484,2.35107,-145.349,500
1569674252,366.117,112.961,-13.9526,178.484,2.35107,-145.349,500
1569674252,366.117,112.961,-13.9526,178.484,2.35107,-145.349,500
1569674252,366.117,112.961,-13.9526,178.484,2.35107,-145.349,500
1569674252,366.117,112.961,-13.9526,178.484,2.35107,-145.349,500
1569674252,366.117,112.961,-13.9526,178.484,2.35107,-145.349,500
1569674252,366.117,112.961,-13.9526,178.484,2.35107,-145.349,500
1569674252,366.117,113.072,-13.9526,178.484,2.35107,-145.371,500
1569674252,366.117,113.072,-13.9526,178.484,2.35107,-145.371,500
1569674252,366.117,113.072,-13.9526,178.484,2.35107,-145.371,500
1569674252,366.117,113.072,-13.9526,178.484,2.35107,-145.371,500
1569674252,366.229,113.072,-13.9526,178.484,2.35107,-145.371,500
1569674252,366.229,113.072,-13.9526,178.484,2.37305,-145.371,500
1569674252,366.229,113.072,-13.841,178.484,2.37305,-145.371,500
1569674252,366.229,113.072,-13.841,178.484,2.37305,-145.371,500
1569674252,366.229,113.072,-13.841,178.484,2.37305,-145.371,500
1569674252,366.229,113.072,-13.841,178.484,2.37305,-145.371,500
1569674252,366.229,113.072,-13.841,178.484,2.37305,-145.393,500
1569674252,366.229,113.072,-13.841,178.484,2.37305,-145.393,504
1569674252,366.229,113.072,-13.841,178.484,2.37305,-145.393,504
1569674252,366.229,113.072,-13.841,178.484,2.37305,-145.393,504
1569674252,366.229,113.072,-13.841,178.484,2.37305,-145.393,504
1569674252,366.229,113.072,-13.841,178.484,2.37305,-145.393,504
1569674252,366.229,113.072,-13.841,178.484,2.37305,-145.393,504
1569674252,366.229,113.072,-13.841,178.484,2.37305,-145.393,504
1569674252,366.229,113.072,-13.841,178.484,2.37305,-145.393,504
1569674252,366.229,113.072,-13.841,178.484,2.37305,-145.393,504
1569674252,366.229,113.072,-13.841,178.484,2.39502,-145.393,504
1569674252,366.229,113.072,-13.841,178.484,2.39502,-145.393,504
1569674252,366.229,113.072,-13.841,178.484,2.39502,-145.393,504
1569674252,366.229,113.072,-13.7294,178.484,2.39502,-145.393,504
1569674252,366.229,113.072,-13.7294,178.484,2.39502,-145.393,504
1569674252,366.229,113.072,-13.841,178.484,2.39502,-145.393,504
1569674252,366.229,113.072,-13.841,178.484,2.39502,-145.393,504
1569674252,366.229,113.072,-13.841,178.484,2.39502,-145.393,504
1569674252,366.229,113.072,-13.841,178.484,2.39502,-145.393,504
1569674252,366.229,113.072,-13.841,178.484,2.37305,-145.393,504
1569674252,366.229,113.072,-13.841,178.484,2.37305,-145.393,504
1569674252,366.34,113.072,-13.841,178.484,2.37305,-145.393,504
1569674252,366.229,113.072,-13.841,178.484,2.37305,-145.393,500
1569674252,366.229,113.072,-13.841,178.484,2.37305,-145.393,500
1569674252,366.229,113.072,-13.841,178.484,2.35107,-145.371,500
1569674252,366.34,113.072,-13.841,178.484,2.35107,-145.371,500
1569674252,366.34,113.072,-13.841,178.484,2.35107,-145.371,500
1569674252,366.34,113.072,-13.841,178.484,2.37305,-145.371,500
1569674252,366.34,113.072,-13.841,178.484,2.37305,-145.371,496
1569674252,366.34,113.072,-13.841,178.484,2.37305,-145.371,496
1569674252,366.34,113.072,-13.841,178.484,2.37305,-145.371,496
1569674252,366.34,113.072,-13.841,178.484,2.37305,-145.371,496
1569674252,366.34,113.072,-13.841,178.484,2.37305,-145.371,496
1569674252,366.34,113.072,-13.841,178.484,2.39502,-145.371,496
1569674252,366.34,113.072,-13.841,178.484,2.39502,-145.371,496
1569674252,366.34,113.072,-13.841,178.484,2.39502,-145.371,492
1569674252,366.34,113.072,-13.841,178.484,2.39502,-145.371,492
1569674252,366.34,113.072,-13.841,178.484,2.37305,-145.371,492
1569674252,366.229,113.072,-13.841,178.484,2.37305,-145.371,492
1569674252,366.229,113.072,-13.841,178.484,2.37305,-145.371,492
1569674252,366.229,113.072,-13.841,178.506,2.37305,-145.371,492
1569674252,366.229,113.072,-13.841,178.506,2.37305,-145.371,492
1569674252,366.229,113.072,-13.9526,178.506,2.37305,-145.371,492
1569674252,366.229,113.072,-13.9526,178.484,2.37305,-145.371,492
1569674252,366.229,113.072,-13.9526,178.484,2.37305,-145.371,492
1569674252,366.229,113.072,-13.9526,178.484,2.37305,-145.371,492
1569674252,366.229,113.072,-13.9526,178.484,2.35107,-145.371,496
1569674252,366.229,113.072,-13.9526,178.484,2.35107,-145.371,496
1569674252,366.229,113.072,-13.9526,178.484,2.35107,-145.371,496
1569674252,366.229,113.072,-13.9526,178.484,2.35107,-145.371,496
1569674252,366.229,113.072,-13.9526,178.484,2.35107,-145.371,496
1569674252,366.229,113.072,-13.9526,178.484,2.35107,-145.371,496
1569674252,366.229,113.072,-13.9526,178.484,2.35107,-145.371,500
1569674252,366.229,113.072,-13.9526,178.484,2.35107,-145.371,500
1569674252,366.229,113.072,-13.9526,178.484,2.35107,-145.371,500
1569674252,366.229,113.072,-13.9526,178.484,2.35107,-145.371,500
1569674252,366.229,113.072,-13.9526,178.484,2.35107,-145.371,500
1569674252,366.229,113.072,-13.9526,178.484,2.35107,-145.371,500
1569674252,366.229,113.072,-13.9526,178.506,2.35107,-145.371,500
1569674252,366.229,113.072,-13.9526,178.506,2.35107,-145.371,500
1569674252,366.229,113.072,-13.9526,178.506,2.35107,-145.371,496
1569674252,366.229,113.072,-13.9526,178.506,2.35107,-145.371,496
1569674252,366.229,113.072,-13.9526,178.506,2.35107,-145.371,496
1569674253,366.229,113.072,-13.9526,178.484,2.35107,-145.371,496
1569674253,366.229,113.072,-13.9526,178.484,2.35107,-145.371,496
1569674253,366.229,113.072,-13.9526,178.484,2.35107,-145.371,496
1569674253,366.229,113.072,-13.9526,178.484,2.35107,-145.371,492
1569674253,366.229,113.072,-13.9526,178.484,2.35107,-145.371,492
1569674253,366.229,113.072,-13.9526,178.484,2.3291,-145.371,492
1569674253,366.229,113.072,-14.0643,178.484,2.3291,-145.371,496
1569674253,366.229,113.072,-14.0643,178.506,2.3291,-145.371,496
1569674253,366.229,113.072,-14.0643,178.506,2.3291,-145.371,496
1569674253,366.229,113.072,-14.0643,178.506,2.3291,-145.371,496
1569674253,366.229,113.072,-14.0643,178.506,2.3291,-145.371,496
1569674253,366.117,113.072,-14.0643,178.506,2.3291,-145.371,496
1569674253,366.117,113.072,-14.0643,178.506,2.30713,-145.371,496
1569674253,366.117,113.072,-14.0643,178.506,2.30713,-145.371,496
1569674253,366.117,113.072,-14.0643,178.506,2.30713,-145.371,500
1569674253,366.117,113.072,-14.0643,178.506,2.30713,-145.371,500
1569674253,366.117,113.072,-14.0643,178.506,2.30713,-145.371,500
1569674253,366.117,113.072,-14.0643,178.506,2.30713,-145.371,500
1569674253,366.117,113.072,-14.0643,178.506,2.30713,-145.371,500
1569674253,366.229,113.072,-14.0643,178.484,2.30713,-145.371,500
1569674253,366.229,113.072,-14.0643,178.484,2.3291,-145.371,500
1569674253,366.229,113.072,-14.0643,178.484,2.3291,-145.371,500
1569674253,366.229,113.072,-14.0643,178.484,2.3291,-145.371,496
1569674253,366.229,113.072,-14.0643,178.484,2.3291,-145.371,496
1569674253,366.229,113.072,-13.9526,178.484,2.3291,-145.371,496
1569674253,366.229,113.072,-13.9526,178.484,2.3291,-145.371,496
1569674253,366.229,113.072,-13.9526,178.484,2.3291,-145.371,496
1569674253,366.229,113.072,-13.9526,178.484,2.3291,-145.371,496
1569674253,366.229,113.072,-13.9526,178.484,2.3291,-145.371,496
1569674253,366.229,113.072,-13.9526,178.484,2.3291,-145.371,496
1569674253,366.229,113.072,-13.9526,178.484,2.3291,-145.371,496
1569674253,366.229,113.072,-13.9526,178.484,2.3291,-145.371,496
1569674253,366.229,113.072,-13.9526,178.484,2.3291,-145.371,496
1569674253,366.229,113.072,-13.9526,178.484,2.3291,-145.371,496
1569674253,366.229,113.072,-13.9526,178.484,2.3291,-145.371,500
1569674253,366.229,113.072,-13.9526,178.484,2.3291,-145.371,500
1569674253,366.229,113.072,-14.0643,178.484,2.3291,-145.371,500
1569674253,366.229,113.072,-14.0643,178.484,2.3291,-145.371,504
1569674253,366.117,113.072,-14.0643,178.484,2.3291,-145.371,504
1569674253,366.117,113.072,-14.0643,178.484,2.3291,-145.371,504
1569674253,366.117,113.072,-14.0643,178.484,2.3291,-145.371,504
1569674253,366.117,113.072,-14.0643,178.506,2.3291,-145.371,508
1569674253,366.117,113.184,-14.0643,178.506,2.3291,-145.371,508
1569674253,366.117,113.184,-13.9526,178.506,2.3291,-145.371,508
1569674253,366.117,113.184,-13.9526,178.506,2.3291,-145.371,508
1569674253,366.117,113.184,-13.9526,178.528,2.35107,-145.371,508
1569674253,366.117,113.184,-13.9526,178.528,2.35107,-145.371,504
1569674253,366.117,113.184,-13.9526,178.528,2.35107,-145.371,504
1569674253,366.117,113.184,-13.9526,178.528,2.35107,-145.371,504
1569674253,366.117,113.184,-13.9526,178.528,2.35107,-145.371,500
1569674253,366.117,113.184,-13.9526,178.528,2.35107,-145.371,500
1569674253,366.117,113.184,-13.9526,178.528,2.35107,-145.371,500
1569674253,366.117,113.184,-13.9526,178.528,2.3291,-145.371,500
1569674253,366.117,113.184,-13.9526,178.528,2.3291,-145.371,496
1569674253,366.117,113.184,-13.9526,178.528,2.3291,-145.371,496
1569674253,366.117,113.184,-13.9526,178.528,2.3291,-145.371,496
1569674253,366.117,113.184,-13.9526,178.528,2.3291,-145.371,496
1569674253,366.117,113.184,-13.9526,178.528,2.3291,-145.371,496
1569674253,366.117,113.184,-13.9526,178.528,2.3291,-145.371,496
1569674253,366.117,113.184,-13.9526,178.55,2.3291,-145.371,496
1569674253,366.117,113.184,-13.9526,178.55,2.3291,-145.371,496
1569674253,366.117,113.184,-13.9526,178.55,2.3291,-145.371,492
1569674253,366.117,113.184,-13.9526,178.55,2.3291,-145.371,492
1569674253,366.117,113.184,-13.9526,178.55,2.3291,-145.371,492
1569674253,366.117,113.295,-13.9526,178.55,2.3291,-145.371,492
1569674253,366.117,113.295,-13.9526,178.55,2.3291,-145.371,492
1569674253,366.117,113.295,-13.9526,178.55,2.3291,-145.371,492
1569674253,366.117,113.295,-13.9526,178.55,2.3291,-145.371,492
1569674253,366.117,113.295,-13.9526,178.55,2.3291,-145.371,488
1569674253,366.117,113.295,-13.9526,178.55,2.35107,-145.371,488
1569674253,366.117,113.295,-13.9526,178.55,2.35107,-145.371,488
1569674253,366.117,113.295,-13.9526,178.55,2.35107,-145.371,488
1569674253,366.117,113.295,-13.9526,178.55,2.35107,-145.371,488
1569674253,366.117,113.295,-13.9526,178.55,2.35107,-145.371,488
1569674253,366.117,113.295,-13.9526,178.55,2.35107,-145.371,488
1569674253,366.117,113.184,-13.9526,178.55,2.35107,-145.371,484
1569674253,366.117,113.184,-13.9526,178.55,2.35107,-145.371,484
1569674253,366.117,113.184,-13.9526,178.55,2.35107,-145.371,484
1569674253,366.229,113.184,-13.9526,178.55,2.35107,-145.371,484
1569674253,366.229,113.184,-13.9526,178.55,2.35107,-145.371,484
1569674253,366.229,113.184,-13.9526,178.55,2.35107,-145.371,484
1569674253,366.229,113.184,-13.9526,178.55,2.3291,-145.371,484
1569674253,366.229,113.184,-13.9526,178.55,2.3291,-145.371,484
1569674253,366.229,113.184,-13.9526,178.55,2.3291,-145.371,484
1569674253,366.229,113.184,-13.9526,178.55,2.3291,-145.371,484
1569674253,366.229,113.184,-13.9526,178.55,2.3291,-145.371,488
1569674253,366.117,113.184,-13.9526,178.55,2.3291,-145.371,488
1569674253,366.117,113.184,-13.9526,178.55,2.3291,-145.371,488
1569674253,366.117,113.184,-13.9526,178.55,2.3291,-145.371,488
1569674253,366.229,113.184,-13.9526,178.528,2.3291,-145.371,488
1569674253,366.229,113.184,-13.9526,178.528,2.3291,-145.371,488
1569674253,366.229,113.184,-13.9526,178.528,2.3291,-145.371,492
1569674253,366.229,113.184,-13.9526,178.528,2.3291,-145.371,492
1569674253,366.229,113.184,-13.9526,178.528,2.35107,-145.371,492
1569674253,366.229,113.184,-13.9526,178.528,2.35107,-145.371,492
1569674253,366.229,113.184,-13.9526,178.528,2.35107,-145.371,492
1569674253,366.229,113.184,-13.9526,178.528,2.35107,-145.371,496
1569674253,366.229,113.184,-13.9526,178.528,2.35107,-145.371,496
1569674253,366.229,113.184,-13.9526,178.528,2.35107,-145.371,496
1569674253,366.229,113.184,-13.9526,178.506,2.35107,-145.371,496
1569674254,366.229,113.184,-13.9526,178.506,2.35107,-145.371,496
1569674254,366.229,113.184,-13.9526,178.506,2.35107,-145.371,496
1569674254,366.229,113.184,-13.9526,178.506,2.35107,-145.371,496
1569674254,366.229,113.184,-13.9526,178.506,2.35107,-145.371,496
1569674254,366.229,113.184,-13.9526,178.506,2.35107,-145.371,496
1569674254,366.229,113.184,-13.9526,178.506,2.35107,-145.371,496
1569674254,366.229,113.184,-13.9526,178.506,2.35107,-145.349,496
1569674254,366.229,113.184,-13.9526,178.506,2.3291,-145.349,496
1569674254,366.229,113.184,-13.9526,178.506,2.3291,-145.349,496
1569674254,366.229,113.184,-13.9526,178.506,2.3291,-145.371,496
1569674254,366.229,113.184,-13.9526,178.506,2.3291,-145.371,496
1569674254,366.229,113.184,-13.9526,178.506,2.3291,-145.371,496
1569674254,366.229,113.184,-13.9526,178.506,2.3291,-145.371,496
1569674254,366.229,113.184,-13.9526,178.506,2.3291,-145.371,496
1569674254,366.229,113.184,-13.9526,178.506,2.3291,-145.371,496
1569674254,366.229,113.184,-13.9526,178.506,2.3291,-145.371,496
1569674254,366.229,113.184,-13.9526,178.506,2.3291,-145.371,496
1569674254,366.229,113.184,-13.9526,178.506,2.3291,-145.371,496
1569674254,366.229,113.184,-13.9526,178.506,2.3291,-145.371,500
1569674254,366.229,113.184,-13.9526,178.506,2.3291,-145.371,500
1569674254,366.229,113.184,-13.9526,178.506,2.3291,-145.371,500
1569674254,366.229,113.184,-13.9526,178.506,2.3291,-145.371,500
1569674254,366.229,113.184,-13.9526,178.506,2.35107,-145.371,500
1569674254,366.229,113.184,-13.9526,178.506,2.35107,-145.371,500
1569674254,366.229,113.184,-13.9526,178.506,2.35107,-145.371,500
1569674254,366.229,113.184,-13.9526,178.506,2.35107,-145.371,504
1569674254,366.229,113.184,-13.9526,178.506,2.35107,-145.371,504
1569674254,366.117,113.184,-13.9526,178.506,2.35107,-145.371,504
1569674254,366.117,113.184,-13.9526,178.506,2.35107,-145.371,504
1569674254,366.117,113.184,-13.9526,178.506,2.35107,-145.371,504
1569674254,366.117,113.072,-13.9526,178.506,2.35107,-145.371,508
1569674254,366.117,113.072,-13.9526,178.506,2.35107,-145.371,508
1569674254,366.117,113.072,-13.9526,178.506,2.3291,-145.371,508
1569674254,366.117,113.072,-13.9526,178.506,2.3291,-145.371,512
1569674254,366.117,113.072,-13.9526,178.506,2.3291,-145.371,512
1569674254,366.117,113.072,-13.9526,178.506,2.3291,-145.371,512
1569674254,366.117,113.072,-13.9526,178.506,2.3291,-145.371,516
1569674254,366.117,113.072,-13.9526,178.506,2.3291,-145.371,516
1569674254,366.117,113.072,-13.9526,178.506,2.3291,-145.371,516
1569674254,366.117,113.072,-13.9526,178.506,2.35107,-145.371,520
1569674254,366.117,113.072,-13.9526,178.506,2.35107,-145.371,520
1569674254,366.117,113.072,-13.9526,178.506,2.35107,-145.371,520
1569674254,366.117,113.184,-13.9526,178.506,2.35107,-145.393,520
1569674254,366.117,113.184,-13.9526,178.506,2.35107,-145.393,520
1569674254,366.117,113.184,-13.9526,178.506,2.35107,-145.393,520
1569674254,366.117,113.184,-13.9526,178.506,2.35107,-145.393,520
1569674254,366.117,113.184,-13.9526,178.506,2.35107,-145.393,520
1569674254,366.117,113.184,-13.9526,178.506,2.35107,-145.393,520
1569674254,366.117,113.184,-13.9526,178.506,2.35107,-145.393,520
1569674254,366.117,113.184,-13.9526,178.506,2.35107,-145.393,520
1569674254,366.117,113.184,-13.9526,178.506,2.35107,-145.371,520
1569674254,366.117,113.184,-13.9526,178.506,2.35107,-145.371,520
1569674254,366.117,113.184,-13.9526,178.528,2.35107,-145.371,520
1569674254,366.117,113.184,-13.9526,178.528,2.35107,-145.371,520
1569674254,366.117,113.184,-13.9526,178.528,2.35107,-145.371,520
1569674254,366.117,113.184,-13.9526,178.528,2.35107,-145.371,520
1569674254,366.117,113.184,-13.9526,178.528,2.35107,-145.371,520
1569674254,366.117,113.184,-13.9526,178.528,2.35107,-145.371,520
1569674254,366.117,113.184,-13.9526,178.528,2.35107,-145.371,520
1569674254,366.117,113.184,-13.9526,178.528,2.35107,-145.371,520
1569674254,366.117,113.184,-13.9526,178.528,2.35107,-145.371,516
1569674254,366.117,113.184,-13.9526,178.528,2.35107,-145.371,516
1569674254,366.117,113.184,-13.9526,178.528,2.35107,-145.371,516
1569674259,327.943,153.925,-14.734,178.462,1.88965,-145.437,448
1569674259,327.943,153.925,-14.734,178.44,1.88965,-145.437,448
1569674259,327.943,153.925,-14.734,178.44,1.88965,-145.437,448
1569674259,327.943,153.925,-14.734,178.44,1.88965,-145.437,448
1569674259,327.943,153.925,-14.734,178.44,1.88965,-145.437,448
1569674259,327.943,153.925,-14.734,178.44,1.88965,-145.437,448
1569674259,327.943,153.925,-14.734,178.44,1.88965,-145.437,448
1569674259,327.943,153.925,-14.734,178.44,1.88965,-145.437,448
1569674259,327.943,153.925,-14.734,178.44,1.88965,-145.437,448
1569674259,327.943,153.925,-14.734,178.44,1.88965,-145.437,448
1569674259,327.943,153.925,-14.734,178.44,1.88965,-145.437,448
1569674259,327.943,153.814,-14.8456,178.44,1.86768,-145.437,448
1569674259,327.943,153.814,-14.8456,178.418,1.86768,-145.437,448
1569674259,327.943,153.814,-14.8456,178.418,1.86768,-145.437,448
1569674259,327.943,153.814,-14.8456,178.418,1.86768,-145.437,448
1569674259,327.943,153.814,-14.8456,178.418,1.86768,-145.437,448
1569674259,327.943,153.814,-14.8456,178.418,1.86768,-145.437,448
1569674259,327.943,153.814,-14.8456,178.418,1.86768,-145.437,448
1569674259,327.943,153.814,-14.8456,178.418,1.8457,-145.437,448
1569674259,327.943,153.814,-14.8456,178.418,1.8457,-145.437,448
1569674259,327.943,153.814,-14.8456,178.418,1.8457,-145.437,444
1569674259,327.943,153.814,-14.8456,178.418,1.8457,-145.437,444
1569674259,327.943,153.814,-14.8456,178.418,1.8457,-145.437,444
1569674259,327.943,153.814,-14.8456,178.418,1.8457,-145.437,444
1569674259,327.943,153.814,-14.8456,178.418,1.8457,-145.437,444
1569674259,327.943,153.925,-14.8456,178.418,1.8457,-145.437,444
1569674259,327.943,153.925,-14.8456,178.44,1.8457,-145.437,444
1569674259,327.943,153.925,-14.8456,178.44,1.8457,-145.437,444
1569674259,327.943,153.925,-14.8456,178.44,1.8457,-145.437,440
1569674259,327.943,153.925,-14.8456,178.44,1.8457,-145.437,440
1569674259,327.943,153.925,-14.8456,178.44,1.8457,-145.437,440
1569674259,327.943,153.925,-14.8456,178.44,1.8457,-145.437,440
1569674259,327.943,153.925,-14.8456,178.44,1.8457,-145.437,440
1569674259,327.943,153.925,-14.8456,178.44,1.86768,-145.437,440
1569674259,327.943,153.925,-14.8456,178.44,1.86768,-145.459,436
1569674259,327.943,153.925,-14.8456,178.44,1.86768,-145.459,436
1569674259,327.943,153.925,-14.8456,178.462,1.86768,-145.459,436
1569674259,327.943,153.925,-14.8456,178.462,1.86768,-145.459,432
1569674259,327.943,153.925,-14.8456,178.462,1.86768,-145.459,432
1569674259,327.943,153.925,-14.8456,178.462,1.86768,-145.459,432
1569674259,327.943,153.925,-14.8456,178.462,1.88965,-145.459,428
1569674259,327.943,153.925,-14.8456,178.462,1.88965,-145.459,428
1569674259,327.943,153.925,-14.734,178.462,1.88965,-145.459,428
1569674259,328.054,153.925,-14.734,178.44,1.88965,-145.459,424
1569674259,328.054,153.925,-14.734,178.44,1.88965,-145.459,424
1569674259,328.054,153.925,-14.734,178.44,1.88965,-145.459,424
1569674259,328.054,153.925,-14.734,178.44,1.91162,-145.437,424
1569674259,328.054,153.925,-14.734,178.44,1.91162,-145.437,424
1569674260,328.054,153.925,-14.734,178.44,1.91162,-145.437,424
1569674260,328.054,153.925,-14.734,178.44,1.91162,-145.437,424
1569674260,328.054,153.925,-14.734,178.44,1.91162,-145.437,424
1569674260,327.943,153.925,-14.734,178.44,1.91162,-145.437,424
1569674260,327.943,153.925,-14.734,178.44,1.91162,-145.437,424
1569674260,327.943,153.814,-14.734,178.418,1.91162,-145.437,424
1569674260,327.943,153.814,-14.734,178.418,1.91162,-145.437,424
1569674260,327.943,153.814,-14.734,178.418,1.91162,-145.437,424
1569674260,327.943,153.814,-14.734,178.418,1.88965,-145.437,424
1569674260,327.943,153.814,-14.734,178.418,1.88965,-145.437,428
1569674260,327.943,153.814,-14.734,178.418,1.88965,-145.437,428
1569674260,327.943,153.814,-14.734,178.418,1.88965,-145.437,428
1569674260,327.943,153.814,-14.734,178.418,1.88965,-145.437,428
1569674260,327.943,153.814,-14.734,178.418,1.88965,-145.437,432
1569674260,327.943,153.814,-14.734,178.418,1.88965,-145.437,432
1569674260,327.943,153.814,-14.734,178.418,1.88965,-145.459,436
1569674260,327.943,153.814,-14.734,178.418,1.88965,-145.459,436
1569674260,327.943,153.814,-14.734,178.418,1.88965,-145.459,436
1569674260,327.943,153.814,-14.8456,178.418,1.86768,-145.459,440
1569674260,327.943,153.814,-14.8456,178.418,1.86768,-145.459,440
1569674260,327.943,153.814,-14.8456,178.418,1.86768,-145.459,440
1569674260,327.943,153.814,-14.8456,178.418,1.86768,-145.459,440
1569674260,327.943,153.814,-14.8456,178.418,1.86768,-145.459,444
1569674260,327.943,153.814,-14.8456,178.418,1.86768,-145.459,444
1569674260,327.943,153.814,-14.8456,178.418,1.86768,-145.459,444
1569674260,327.943,153.814,-14.8456,178.418,1.86768,-145.459,444
1569674260,327.943,153.814,-14.8456,178.418,1.86768,-145.459,444
1569674260,327.943,153.814,-14.8456,178.418,1.86768,-145.459,444
1569674260,327.943,153.925,-14.8456,178.418,1.8457,-145.459,444
1569674260,327.943,153.925,-14.8456,178.44,1.8457,-145.459,444
1569674260,327.943,153.925,-14.8456,178.44,1.8457,-145.437,444
1569674260,327.943,153.925,-14.8456,178.44,1.8457,-145.437,444
1569674260,327.943,153.925,-14.8456,178.44,1.8457,-145.437,444
1569674260,327.943,153.925,-14.8456,178.44,1.8457,-145.437,444
1569674260,327.943,153.925,-14.8456,178.44,1.8457,-145.437,440
1569674260,327.943,153.925,-14.8456,178.44,1.8457,-145.437,440
1569674260,327.943,153.925,-14.8456,178.44,1.8457,-145.437,440
1569674260,327.943,153.925,-14.8456,178.44,1.8457,-145.437,440
1569674260,327.943,153.925,-14.8456,178.44,1.86768,-145.437,440
1569674260,327.943,153.925,-14.8456,178.44,1.86768,-145.437,440
1569674260,327.943,153.925,-14.8456,178.44,1.86768,-145.437,440
1569674260,327.943,153.925,-14.8456,178.44,1.86768,-145.437,440
1569674260,327.943,153.925,-14.8456,178.44,1.86768,-145.437,440
1569674260,327.943,153.925,-14.734,178.44,1.86768,-145.459,440
1569674260,327.943,153.925,-14.734,178.44,1.86768,-145.459,440
1569674260,327.943,153.925,-14.734,178.44,1.86768,-145.459,440
1569674260,327.943,153.925,-14.734,178.44,1.86768,-145.459,440
1569674260,327.943,153.925,-14.734,178.44,1.86768,-145.459,440
1569674260,327.943,153.925,-14.734,178.44,1.86768,-145.437,440
1569674260,327.943,153.925,-14.734,178.44,1.86768,-145.437,440
1569674260,327.943,153.925,-14.8456,178.44,1.86768,-145.437,436
1569674260,327.943,153.925,-14.8456,178.44,1.86768,-145.437,436
1569674260,327.943,153.925,-14.8456,178.44,1.86768,-145.437,436
1569674260,327.943,153.925,-14.734,178.418,1.86768,-145.437,436
1569674260,327.943,153.925,-14.734,178.418,1.86768,-145.437,436
1569674260,327.943,153.925,-14.734,178.418,1.86768,-145.437,436
1569674260,327.943,153.814,-14.734,178.418,1.86768,-145.437,436
1569674260,327.943,153.814,-14.734,178.418,1.86768,-145.437,436
1569674260,327.943,153.814,-14.8456,178.418,1.86768,-145.437,436
1569674260,327.943,153.814,-14.8456,178.418,1.86768,-145.437,436
1569674260,327.943,153.814,-14.8456,178.418,1.86768,-145.437,436
1569674260,327.943,153.814,-14.8456,178.418,1.86768,-145.437,436
1569674260,327.943,153.814,-14.8456,178.418,1.86768,-145.437,436
1569674260,327.943,153.814,-14.8456,178.418,1.86768,-145.437,436
1569674260,327.943,153.814,-14.8456,178.418,1.86768,-145.437,436
1569674260,327.943,153.814,-14.8456,178.418,1.86768,-145.437,436
1569674260,327.943,153.814,-14.8456,178.418,1.86768,-145.437,436
1569674260,327.943,153.814,-14.8456,178.418,1.86768,-145.437,436
1569674260,327.943,153.814,-14.8456,178.418,1.86768,-145.437,436
1569674260,327.943,153.814,-14.8456,178.418,1.86768,-145.437,436
1569674260,327.943,153.814,-14.8456,178.418,1.86768,-145.437,436
1569674260,327.943,153.814,-14.8456,178.418,1.86768,-145.437,436
1569674260,327.943,153.814,-14.8456,178.418,1.86768,-145.437,436
1569674260,327.943,153.814,-14.8456,178.418,1.86768,-145.437,436
1569674260,327.943,153.814,-14.8456,178.418,1.86768,-145.437,432
1569674260,327.943,153.814,-14.8456,178.418,1.86768,-145.437,432
1569674260,327.943,153.814,-14.8456,178.418,1.86768,-145.437,432
1569674260,328.054,153.814,-14.8456,178.418,1.86768,-145.437,432
1569674260,328.054,153.814,-14.8456,178.418,1.86768,-145.415,432
1569674260,328.054,153.814,-14.8456,178.418,1.86768,-145.415,428
1569674260,328.054,153.814,-14.8456,178.418,1.86768,-145.415,428
1569674260,328.054,153.814,-14.8456,178.418,1.86768,-145.415,428
1569674260,328.054,153.814,-14.8456,178.418,1.86768,-145.415,428
1569674260,328.054,153.814,-14.8456,178.418,1.86768,-145.415,428
1569674260,327.943,153.814,-14.8456,178.418,1.86768,-145.415,428
1569674260,327.943,153.925,-14.8456,178.418,1.86768,-145.415,428
1569674260,327.943,153.925,-14.8456,178.418,1.86768,-145.415,428
1569674260,327.943,153.925,-14.8456,178.44,1.86768,-145.415,428
1569674260,327.943,153.925,-14.8456,178.44,1.88965,-145.415,428
1569674260,327.943,153.925,-14.8456,178.44,1.88965,-145.437,428
1569674260,327.943,153.925,-14.8456,178.44,1.88965,-145.437,428
1569674260,327.943,153.925,-14.8456,178.44,1.88965,-145.437,432
1569674260,327.943,153.925,-14.734,178.462,1.88965,-145.437,432
1569674260,327.943,153.925,-14.734,178.462,1.88965,-145.437,432
1569674260,327.943,153.925,-14.734,178.462,1.88965,-145.437,432
1569674260,327.943,153.925,-14.734,178.462,1.88965,-145.437,432
1569674260,327.943,153.925,-14.734,178.462,1.88965,-145.437,432
1569674260,327.943,153.925,-14.734,178.44,1.88965,-145.437,432
1569674260,327.943,153.925,-14.734,178.44,1.88965,-145.437,432
1569674260,327.943,153.925,-14.734,178.44,1.88965,-145.437,432
1569674261,327.943,153.925,-14.734,178.44,1.88965,-145.437,436
1569674261,327.943,153.925,-14.734,178.44,1.88965,-145.437,436
1569674261,327.943,153.925,-14.734,178.44,1.88965,-145.437,436
1569674261,327.943,153.925,-14.734,178.44,1.88965,-145.437,436
1569674261,327.943,153.925,-14.734,178.44,1.88965,-145.437,436
1569674261,327.943,153.925,-14.734,178.44,1.88965,-145.437,436
1569674261,327.943,153.925,-14.734,178.44,1.88965,-145.437,436
1569674261,327.943,153.925,-14.734,178.44,1.88965,-145.437,436
1569674261,327.943,153.925,-14.734,178.44,1.88965,-145.437,436
1569674261,327.943,153.925,-14.734,178.44,1.88965,-145.437,436
1569674261,327.943,153.925,-14.734,178.462,1.88965,-145.437,436
1569674261,327.943,153.925,-14.734,178.462,1.88965,-145.437,436
1569674261,327.943,153.925,-14.8456,178.462,1.88965,-145.437,436
1569674261,327.943,153.925,-14.8456,178.462,1.88965,-145.437,440
1569674261,327.943,153.925,-14.8456,178.462,1.88965,-145.437,436
1569674261,327.943,153.925,-14.8456,178.462,1.86768,-145.437,436
1569674261,327.943,153.925,-14.8456,178.462,1.86768,-145.437,436
1569674261,327.943,153.925,-14.8456,178.462,1.86768,-145.437,436
1569674261,327.943,153.925,-14.8456,178.462,1.86768,-145.437,436
1569674261,327.943,153.925,-14.8456,178.462,1.86768,-145.437,436
1569674261,327.943,153.925,-14.8456,178.462,1.86768,-145.437,436
1569674261,327.943,153.925,-14.8456,178.44,1.86768,-145.437,436
1569674261,327.943,153.925,-14.8456,178.44,1.86768,-145.437,436
1569674261,327.943,153.925,-14.8456,178.44,1.86768,-145.437,436
1569674261,327.943,153.925,-14.8456,178.44,1.86768,-145.437,436
1569674261,327.943,153.925,-14.8456,178.44,1.86768,-145.437,432
1569674261,327.943,153.925,-14.8456,178.44,1.86768,-145.437,432
1569674261,327.943,153.925,-14.8456,178.44,1.86768,-145.437,432
1569674261,327.943,153.925,-14.8456,178.44,1.86768,-145.437,432
1569674261,327.943,153.925,-14.8456,178.44,1.86768,-145.437,432
1569674261,327.943,153.925,-14.8456,178.44,1.86768,-145.437,432
1569674261,327.943,153.925,-14.8456,178.44,1.8457,-145.437,428
1569674261,327.943,153.925,-14.8456,178.44,1.8457,-145.437,428
1569674261,327.943,153.925,-14.8456,178.44,1.8457,-145.437,428
1569674261,327.943,153.925,-14.8456,178.44,1.86768,-145.437,428
1569674261,327.943,153.925,-14.8456,178.44,1.86768,-145.437,424
1569674261,327.943,153.925,-14.8456,178.44,1.86768,-145.437,424
1569674261,327.943,153.925,-14.8456,178.44,1.86768,-145.437,424
1569674261,327.943,153.925,-14.8456,178.44,1.86768,-145.437,420
1569674261,327.943,153.925,-14.8456,178.44,1.86768,-145.437,420
1569674261,327.943,153.925,-14.8456,178.44,1.86768,-145.437,420
1569674261,327.943,153.925,-14.8456,178.44,1.86768,-145.437,420
1569674261,327.943,153.925,-14.8456,178.44,1.86768,-145.437,420
1569674261,327.943,153.925,-14.8456,178.44,1.86768,-145.437,420
1569674261,327.943,153.925,-14.8456,178.44,1.86768,-145.437,420
1569674261,327.943,153.925,-14.8456,178.44,1.86768,-145.437,416
1569674261,328.054,153.925,-14.734,178.44,1.88965,-145.437,416
1569674261,328.054,153.925,-14.734,178.44,1.88965,-145.437,416
1569674261,328.054,153.925,-14.734,178.44,1.88965,-145.437,416
1569674261,328.054,153.925,-14.734,178.44,1.88965,-145.437,416
1569674261,328.054,153.925,-14.734,178.44,1.88965,-145.437,416
1569674261,328.054,153.925,-14.734,178.44,1.88965,-145.437,416
1569674261,328.054,153.925,-14.734,178.44,1.88965,-145.437,416
1569674261,328.054,153.925,-14.734,178.44,1.88965,-145.437,416
1569674261,328.054,153.925,-14.734,178.44,1.88965,-145.437,416
1569674261,328.054,153.925,-14.734,178.44,1.88965,-145.437,416
1569674261,328.054,153.925,-14.734,178.44,1.88965,-145.437,416
1569674261,328.054,153.925,-14.734,178.418,1.88965,-145.437,416
1569674261,328.054,153.925,-14.734,178.418,1.88965,-145.437,416
1569674261,328.054,153.925,-14.734,178.418,1.88965,-145.437,416
1569674261,328.054,153.925,-14.734,178.418,1.88965,-145.437,416
1569674261,328.054,153.925,-14.734,178.418,1.88965,-145.437,416
1569674261,328.054,153.925,-14.734,178.418,1.88965,-145.437,416
1569674261,328.054,153.925,-14.734,178.418,1.88965,-145.437,416
1569674261,328.054,153.925,-14.734,178.418,1.88965,-145.437,416
1569674261,328.054,153.925,-14.734,178.418,1.88965,-145.437,416
1569674261,328.054,153.925,-14.734,178.418,1.88965,-145.437,416
1569674261,328.054,153.925,-14.734,178.418,1.88965,-145.437,416
1569674261,328.054,153.925,-14.734,178.418,1.88965,-145.437,416
1569674261,328.054,153.925,-14.734,178.418,1.88965,-145.437,416
1569674261,328.054,153.925,-14.734,178.418,1.88965,-145.437,416
1569674261,328.054,153.925,-14.734,178.418,1.88965,-145.437,416
1569674261,328.054,153.925,-14.734,178.44,1.88965,-145.437,416
1569674261,328.054,153.925,-14.734,178.44,1.88965,-145.459,416
1569674261,328.054,153.925,-14.734,178.44,1.88965,-145.459,416
1569674261,328.054,153.925,-14.734,178.44,1.88965,-145.459,416
1569674261,328.054,153.925,-14.734,178.44,1.88965,-145.459,416
1569674261,328.054,153.925,-14.734,178.44,1.88965,-145.459,420
1569674261,328.054,153.925,-14.734,178.44,1.88965,-145.459,420
1569674261,328.054,153.925,-14.734,178.44,1.88965,-145.459,420
1569674261,328.054,153.925,-14.734,178.44,1.88965,-145.459,420
1569674261,328.054,153.925,-14.734,178.44,1.88965,-145.459,420
1569674261,328.054,153.925,-14.734,178.44,1.88965,-145.459,420
1569674261,328.054,153.925,-14.734,178.44,1.88965,-145.459,420
1569674261,328.054,153.925,-14.734,178.44,1.88965,-145.459,420
1569674261,328.054,153.925,-14.734,178.418,1.88965,-145.459,424
1569674261,328.054,153.925,-14.734,178.418,1.88965,-145.459,424
1569674261,328.054,153.925,-14.734,178.418,1.88965,-145.459,424
1569674261,328.054,153.925,-14.734,178.418,1.88965,-145.459,424
1569674261,328.054,153.925,-14.734,178.418,1.88965,-145.437,424
1569674261,328.054,153.925,-14.734,178.418,1.88965,-145.437,424
1569674261,328.054,153.925,-14.734,178.418,1.88965,-145.437,428
1569674261,328.054,153.925,-14.734,178.418,1.88965,-145.437,428
1569674261,328.054,153.925,-14.734,178.418,1.88965,-145.437,428
1569674261,328.054,153.925,-14.734,178.418,1.88965,-145.437,428
1569674261,328.054,153.925,-14.734,178.418,1.88965,-145.437,424
1569674261,328.054,153.925,-14.734,178.418,1.88965,-145.437,424
1569674261,328.054,153.925,-14.734,178.418,1.88965,-145.437,424
1569674261,328.054,153.925,-14.734,178.418,1.88965,-145.459,424
1569674261,328.054,153.925,-14.734,178.418,1.88965,-145.459,424
1569674262,328.054,153.925,-14.734,178.418,1.88965,-145.459,420
1569674262,328.054,153.925,-14.734,178.418,1.88965,-145.459,420
1569674262,328.054,153.925,-14.734,178.418,1.88965,-145.459,420
1569674262,328.054,153.925,-14.734,178.418,1.88965,-145.459,416
1569674262,328.054,153.925,-14.734,178.418,1.88965,-145.459,416
1569674262,328.054,153.925,-14.734,178.418,1.88965,-145.459,416
1569674262,328.054,153.925,-14.734,178.418,1.88965,-145.459,416
1569674262,328.054,153.925,-14.734,178.44,1.88965,-145.459,412
1569674262,328.054,153.925,-14.734,178.44,1.88965,-145.459,412
1569674262,328.054,153.925,-14.734,178.44,1.88965,-145.459,412
1569674262,328.054,153.925,-14.734,178.44,1.88965,-145.459,412
1569674262,328.054,153.925,-14.734,178.44,1.88965,-145.459,412
1569674262,328.054,153.925,-14.734,178.44,1.88965,-145.459,412
1569674262,328.054,153.925,-14.734,178.44,1.88965,-145.459,412
1569674262,328.054,153.925,-14.734,178.44,1.88965,-145.459,412
1569674262,328.054,154.037,-14.8456,178.44,1.88965,-145.459,412
1569674262,328.054,154.037,-14.8456,178.44,1.88965,-145.459,412
1569674262,328.054,154.037,-14.8456,178.44,1.88965,-145.459,412
1569674262,328.054,153.925,-14.8456,178.44,1.88965,-145.459,412
1569674262,328.054,153.925,-14.8456,178.44,1.88965,-145.459,412
1569674262,328.054,153.925,-14.8456,178.44,1.86768,-145.459,416
1569674262,328.054,153.925,-14.8456,178.44,1.88965,-145.459,416
1569674262,328.054,153.925,-14.8456,178.418,1.88965,-145.459,416
1569674262,328.054,153.925,-14.8456,178.418,1.88965,-145.459,420
1569674262,328.054,153.925,-14.8456,178.418,1.88965,-145.459,420
1569674262,328.054,153.925,-14.8456,178.418,1.88965,-145.459,420
1569674262,328.054,153.925,-14.8456,178.418,1.88965,-145.459,420
1569674262,328.054,153.925,-14.8456,178.418,1.88965,-145.459,424
1569674262,328.054,153.925,-14.734,178.418,1.88965,-145.459,424
1569674262,328.054,153.925,-14.734,178.418,1.88965,-145.459,424
1569674262,328.054,153.925,-14.734,178.418,1.88965,-145.459,424
1569674262,328.054,153.925,-14.734,178.418,1.88965,-145.459,428
1569674262,328.054,153.925,-14.8456,178.418,1.88965,-145.459,428
1569674262,328.054,153.925,-14.8456,178.418,1.88965,-145.459,428
1569674262,328.054,153.925,-14.8456,178.418,1.88965,-145.459,428
1569674262,328.054,153.925,-14.734,178.418,1.88965,-145.459,428
1569674262,328.054,153.925,-14.734,178.418,1.88965,-145.459,428
1569674262,328.054,153.925,-14.734,178.418,1.88965,-145.459,428
1569674262,328.054,153.925,-14.734,178.418,1.88965,-145.459,428
1569674262,328.054,153.925,-14.734,178.418,1.88965,-145.459,428
1569674262,328.054,153.925,-14.734,178.418,1.88965,-145.459,428
1569674262,328.054,153.925,-14.734,178.418,1.88965,-145.459,428
1569674262,328.054,153.925,-14.734,178.418,1.88965,-145.459,428
1569674262,328.054,153.925,-14.734,178.418,1.88965,-145.459,424
1569674262,328.054,153.925,-14.734,178.418,1.88965,-145.459,424
1569674262,328.054,153.925,-14.734,178.418,1.88965,-145.459,424
1569674262,328.054,153.925,-14.734,178.418,1.88965,-145.459,424
1569674262,328.054,153.925,-14.734,178.418,1.88965,-145.459,424
1569674262,328.054,153.925,-14.734,178.418,1.88965,-145.459,424
1569674262,328.054,153.925,-14.734,178.418,1.88965,-145.459,424
1569674262,328.054,153.925,-14.734,178.418,1.88965,-145.459,424
1569674262,328.054,153.925,-14.734,178.418,1.88965,-145.459,424
1569674262,328.054,153.925,-14.734,178.418,1.88965,-145.459,424
1569674262,328.054,153.925,-14.734,178.418,1.88965,-145.459,424
1569674262,328.054,153.925,-14.734,178.418,1.88965,-145.459,424
1569674262,328.054,153.925,-14.734,178.418,1.88965,-145.459,424
1569674262,327.943,153.925,-14.734,178.418,1.88965,-145.459,424
1569674262,327.943,153.925,-14.734,178.418,1.88965,-145.459,424
1569674262,327.943,153.925,-14.734,178.418,1.88965,-145.459,424
1569674262,327.943,153.925,-14.734,178.418,1.88965,-145.459,424
1569674262,327.943,153.925,-14.734,178.418,1.86768,-145.459,424
1569674262,327.943,153.925,-14.734,178.418,1.86768,-145.459,424
1569674262,327.943,153.925,-14.734,178.418,1.86768,-145.459,424
1569674262,327.943,153.925,-14.734,178.418,1.86768,-145.459,420
1569674262,327.943,153.925,-14.734,178.418,1.86768,-145.459,420
1569674262,327.943,153.925,-14.734,178.418,1.86768,-145.459,420
1569674262,327.943,153.925,-14.734,178.418,1.86768,-145.459,420
1569674262,327.943,153.925,-14.734,178.418,1.86768,-145.459,420
1569674262,327.943,153.925,-14.734,178.418,1.86768,-145.459,420
1569674262,327.943,153.814,-14.734,178.418,1.86768,-145.459,420
1569674262,327.943,153.814,-14.734,178.418,1.86768,-145.459,420
1569674262,327.943,153.925,-14.734,178.418,1.88965,-145.459,420
1569674262,327.943,153.925,-14.734,178.418,1.88965,-145.459,424
1569674262,327.943,153.925,-14.734,178.418,1.88965,-145.459,424
1569674262,327.943,153.925,-14.734,178.418,1.88965,-145.459,424
1569674262,327.943,153.925,-14.734,178.418,1.88965,-145.459,424
1569674262,327.943,153.925,-14.734,178.418,1.88965,-145.459,424
1569674262,327.943,153.925,-14.734,178.44,1.88965,-145.459,424
1569674262,327.943,153.925,-14.734,178.44,1.88965,-145.459,424
1569674262,327.943,153.925,-14.734,178.44,1.91162,-145.459,424
1569674262,327.943,153.925,-14.734,178.44,1.91162,-145.459,424
1569674262,327.943,153.925,-14.734,178.44,1.91162,-145.459,424
1569674262,327.943,153.925,-14.6224,178.44,1.91162,-145.459,424
1569674262,327.943,153.925,-14.6224,178.44,1.91162,-145.459,424
1569674262,327.943,153.925,-14.6224,178.44,1.91162,-145.459,424
1569674262,327.943,153.925,-14.6224,178.44,1.93359,-145.459,424
1569674262,327.943,153.925,-14.6224,178.44,1.93359,-145.459,424
1569674262,327.943,153.925,-14.6224,178.44,1.93359,-145.459,424
1569674262,327.943,153.925,-14.6224,178.44,1.93359,-145.459,424
1569674262,327.943,153.925,-14.6224,178.44,1.93359,-145.459,424
1569674262,327.943,153.925,-14.6224,178.44,1.93359,-145.459,424
1569674262,327.943,153.925,-14.6224,178.44,1.93359,-145.459,424
1569674262,327.943,153.925,-14.6224,178.44,1.93359,-145.459,424
1569674262,327.943,153.925,-14.6224,178.44,1.93359,-145.459,424
1569674262,327.943,153.925,-14.6224,178.44,1.93359,-145.459,428
1569674262,327.943,153.925,-14.6224,178.44,1.93359,-145.459,428
1569674262,327.943,153.925,-14.6224,178.44,1.93359,-145.459,428
1569674262,327.943,153.925,-14.6224,178.44,1.93359,-145.459,428
1569674262,327.943,153.925,-14.6224,178.44,1.93359,-145.459,428
1569674262,327.943,153.925,-14.6224,178.44,1.91162,-145.459,428
1569674263,327.943,153.925,-14.6224,178.44,1.91162,-145.459,424
1569674263,327.943,153.925,-14.6224,178.44,1.91162,-145.459,424
1569674263,327.943,153.925,-14.6224,178.44,1.91162,-145.459,424
1569674263,327.943,153.925,-14.6224,178.44,1.91162,-145.437,424
1569674263,327.943,153.925,-14.6224,178.44,1.91162,-145.437,424
1569674263,327.943,153.925,-14.6224,178.44,1.91162,-145.437,424
