time,x,y,z,ax,ay,az,q
1568024545,312.316,77.465,-17.4129,-1.86768,1.58203,-157.17,256
1568024545,312.316,77.465,-17.4129,-1.86768,1.58203,-157.17,256
1568024545,312.316,77.465,-17.4129,-1.86768,1.58203,-157.17,256
1568024545,312.316,77.465,-17.4129,-1.86768,1.56006,-157.17,256
1568024545,312.316,77.465,-17.4129,-1.86768,1.56006,-157.148,256
1568024545,312.316,77.465,-17.4129,-1.8457,1.56006,-157.148,256
1568024545,312.316,77.465,-17.4129,-1.8457,1.56006,-157.148,256
1568024545,312.316,77.465,-17.4129,-1.8457,1.56006,-157.148,256
1568024545,312.316,77.465,-17.4129,-1.8457,1.56006,-157.148,256
1568024545,312.316,77.465,-17.4129,-1.8457,1.56006,-157.148,256
1568024545,312.316,77.465,-17.4129,-1.8457,1.56006,-157.148,256
1568024545,312.316,77.465,-17.4129,-1.8457,1.56006,-157.148,256
1568024545,312.316,77.465,-17.4129,-1.8457,1.56006,-157.148,256
1568024545,312.316,77.465,-17.4129,-1.8457,1.56006,-157.148,256
1568024545,312.316,77.465,-17.4129,-1.8457,1.58203,-157.148,256
1568024545,312.316,77.465,-17.4129,-1.8457,1.58203,-157.148,256
1568024545,312.316,77.465,-17.4129,-1.8457,1.58203,-157.148,256
1568024545,312.316,77.465,-17.4129,-1.86768,1.58203,-157.148,256
1568024545,312.316,77.465,-17.4129,-1.86768,1.58203,-157.148,256
1568024545,312.316,77.465,-17.4129,-1.86768,1.58203,-157.17,256
1568024545,312.316,77.465,-17.4129,-1.86768,1.58203,-157.17,256
1568024545,312.316,77.465,-17.4129,-1.86768,1.58203,-157.17,256
1568024545,312.316,77.465,-17.4129,-1.86768,1.58203,-157.17,256
1568024545,312.316,77.465,-17.4129,-1.86768,1.58203,-157.17,256
1568024545,312.316,77.465,-17.4129,-1.86768,1.58203,-157.17,256
1568024545,312.316,77.465,-17.4129,-1.86768,1.56006,-157.17,256
1568024545,312.316,77.465,-17.4129,-1.86768,1.56006,-157.17,256
1568024545,312.316,77.465,-17.4129,-1.86768,1.56006,-157.17,256
1568024545,312.316,77.465,-17.4129,-1.86768,1.56006,-157.17,256
1568024545,312.316,77.465,-17.4129,-1.86768,1.56006,-157.17,256
1568024545,312.316,77.465,-17.4129,-1.86768,1.56006,-157.17,256
1568024545,312.316,77.465,-17.4129,-1.86768,1.56006,-157.17,256
1568024545,312.316,77.465,-17.4129,-1.8457,1.56006,-157.17,256
1568024545,312.316,77.465,-17.4129,-1.8457,1.56006,-157.17,256
1568024545,312.316,77.465,-17.4129,-1.8457,1.56006,-157.17,256
1568024545,312.316,77.465,-17.4129,-1.8457,1.56006,-157.17,256
1568024545,312.316,77.465,-17.4129,-1.8457,1.56006,-157.17,260
1568024545,312.316,77.465,-17.4129,-1.8457,1.56006,-157.17,260
1568024545,312.316,77.5767,-17.4129,-1.8457,1.56006,-157.17,260
1568024545,312.316,77.5767,-17.4129,-1.8457,1.56006,-157.17,260
1568024545,312.316,77.5767,-17.4129,-1.8457,1.56006,-157.17,260
1568024545,312.316,77.5767,-17.4129,-1.8457,1.56006,-157.17,260
1568024545,312.316,77.5767,-17.4129,-1.8457,1.56006,-157.17,260
1568024545,312.316,77.5767,-17.4129,-1.8457,1.56006,-157.17,260
1568024545,312.316,77.5767,-17.4129,-1.8457,1.56006,-157.17,260
1568024545,312.316,77.5767,-17.4129,-1.8457,1.56006,-157.17,260
1568024545,312.316,77.5767,-17.4129,-1.8457,1.56006,-157.17,260
1568024545,312.316,77.5767,-17.4129,-1.8457,1.56006,-157.17,260
1568024545,312.316,77.5767,-17.4129,-1.8457,1.56006,-157.17,260
1568024545,312.316,77.5767,-17.4129,-1.8457,1.56006,-157.17,260
1568024545,312.316,77.5767,-17.4129,-1.8457,1.56006,-157.17,260
1568024545,312.316,77.5767,-17.4129,-1.8457,1.56006,-157.17,260
1568024545,312.316,77.5767,-17.4129,-1.8457,1.56006,-157.17,260
1568024545,312.316,77.5767,-17.4129,-1.8457,1.56006,-157.17,260
1568024545,312.316,77.5767,-17.4129,-1.8457,1.56006,-157.17,260
1568024545,312.316,77.5767,-17.4129,-1.8457,1.58203,-157.17,260
1568024545,312.316,77.5767,-17.4129,-1.8457,1.58203,-157.17,260
1568024545,312.316,77.5767,-17.4129,-1.8457,1.58203,-157.17,260
1568024545,312.316,77.5767,-17.4129,-1.8457,1.58203,-157.17,260
1568024545,312.316,77.5767,-17.4129,-1.8457,1.58203,-157.17,260
1568024545,312.316,77.5767,-17.4129,-1.8457,1.58203,-157.17,260
1568024545,312.316,77.5767,-17.4129,-1.8457,1.58203,-157.17,260
1568024545,312.316,77.5767,-17.4129,-1.8457,1.58203,-157.17,264
1568024545,312.316,77.5767,-17.4129,-1.8457,1.58203,-157.17,264
1568024545,312.316,77.5767,-17.4129,-1.82373,1.56006,-157.17,264
1568024545,312.316,77.5767,-17.4129,-1.82373,1.56006,-157.17,264
1568024545,312.316,77.5767,-17.4129,-1.82373,1.56006,-157.17,264
1568024545,312.316,77.5767,-17.4129,-1.82373,1.56006,-157.17,264
1568024545,312.316,77.5767,-17.4129,-1.82373,1.56006,-157.17,264
1568024545,312.316,77.5767,-17.4129,-1.82373,1.56006,-157.17,260
1568024545,312.316,77.5767,-17.4129,-1.82373,1.56006,-157.17,260
1568024545,312.316,77.5767,-17.4129,-1.82373,1.56006,-157.17,260
1568024545,312.316,77.5767,-17.4129,-1.82373,1.56006,-157.17,260
1568024545,312.316,77.5767,-17.4129,-1.82373,1.56006,-157.17,260
1568024545,312.316,77.5767,-17.4129,-1.82373,1.56006,-157.17,260
1568024546,312.316,77.5767,-17.4129,-1.82373,1.56006,-157.17,260
1568024546,312.316,77.5767,-17.4129,-1.82373,1.56006,-157.17,260
1568024546,312.316,77.5767,-17.4129,-1.82373,1.56006,-157.148,260
1568024546,312.316,77.5767,-17.4129,-1.82373,1.56006,-157.148,260
1568024546,312.316,77.5767,-17.4129,-1.82373,1.56006,-157.148,260
1568024546,312.316,77.5767,-17.4129,-1.82373,1.56006,-157.148,260
1568024546,312.316,77.5767,-17.4129,-1.8457,1.56006,-157.148,260
1568024546,312.316,77.5767,-17.4129,-1.8457,1.56006,-157.148,260
1568024546,312.316,77.5767,-17.4129,-1.8457,1.56006,-157.148,260
1568024546,312.316,77.5767,-17.4129,-1.8457,1.56006,-157.148,260
1568024546,312.316,77.5767,-17.4129,-1.8457,1.56006,-157.148,260
1568024546,312.316,77.5767,-17.4129,-1.8457,1.56006,-157.148,260
1568024546,312.316,77.5767,-17.4129,-1.8457,1.56006,-157.148,256
1568024546,312.316,77.5767,-17.4129,-1.8457,1.56006,-157.17,256
1568024546,312.316,77.5767,-17.4129,-1.8457,1.56006,-157.17,256
1568024546,312.316,77.5767,-17.4129,-1.8457,1.56006,-157.17,256
1568024546,312.316,77.5767,-17.4129,-1.8457,1.56006,-157.17,256
1568024546,312.316,77.5767,-17.4129,-1.8457,1.56006,-157.17,256
1568024546,312.316,77.5767,-17.4129,-1.8457,1.56006,-157.17,256
1568024546,312.316,77.5767,-17.4129,-1.8457,1.56006,-157.148,256
1568024546,312.316,77.5767,-17.4129,-1.8457,1.56006,-157.148,256
1568024546,312.316,77.465,-17.4129,-1.8457,1.56006,-157.148,256
1568024546,312.316,77.465,-17.4129,-1.8457,1.56006,-157.148,256
1568024546,312.316,77.465,-17.4129,-1.86768,1.56006,-157.148,256
1568024546,312.316,77.465,-17.4129,-1.86768,1.56006,-157.148,256
1568024546,312.316,77.465,-17.4129,-1.86768,1.56006,-157.148,256
1568024546,312.316,77.465,-17.4129,-1.86768,1.56006,-157.17,256
1568024546,312.316,77.465,-17.4129,-1.86768,1.56006,-157.17,256
1568024546,312.316,77.465,-17.4129,-1.86768,1.56006,-157.17,256
1568024546,312.316,77.465,-17.4129,-1.86768,1.56006,-157.17,256
1568024546,312.316,77.465,-17.4129,-1.86768,1.56006,-157.17,256
1568024546,312.316,77.465,-17.4129,-1.86768,1.56006,-157.17,256
1568024546,312.316,77.465,-17.4129,-1.86768,1.56006,-157.17,256
1568024546,312.316,77.465,-17.4129,-1.86768,1.56006,-157.17,256
1568024546,312.316,77.465,-17.4129,-1.86768,1.56006,-157.17,256
1568024546,312.316,77.465,-17.4129,-1.86768,1.58203,-157.17,256
1568024546,312.316,77.465,-17.4129,-1.86768,1.58203,-157.17,256
1568024546,312.316,77.465,-17.4129,-1.86768,1.58203,-157.17,256
1568024546,312.316,77.465,-17.4129,-1.86768,1.58203,-157.17,256
1568024546,312.316,77.465,-17.4129,-1.86768,1.58203,-157.17,256
1568024546,312.316,77.465,-17.4129,-1.86768,1.58203,-157.17,256
1568024546,312.316,77.465,-17.4129,-1.86768,1.58203,-157.17,256
1568024546,312.316,77.465,-17.4129,-1.86768,1.58203,-157.17,256
1568024546,312.316,77.465,-17.4129,-1.86768,1.58203,-157.17,256
1568024546,312.316,77.465,-17.4129,-1.86768,1.58203,-157.17,256
1568024546,312.316,77.465,-17.4129,-1.86768,1.58203,-157.17,256
1568024546,312.316,77.465,-17.4129,-1.86768,1.58203,-157.17,256
1568024546,312.316,77.465,-17.4129,-1.86768,1.58203,-157.17,256
1568024546,312.316,77.465,-17.4129,-1.86768,1.58203,-157.17,256
1568024546,312.316,77.465,-17.4129,-1.8457,1.58203,-157.148,256
1568024546,312.316,77.465,-17.4129,-1.8457,1.58203,-157.148,256
1568024546,312.316,77.465,-17.4129,-1.8457,1.58203,-157.148,256
1568024546,312.316,77.465,-17.4129,-1.8457,1.58203,-157.148,256
1568024546,312.316,77.465,-17.4129,-1.8457,1.58203,-157.148,256
1568024546,312.316,77.465,-17.4129,-1.8457,1.58203,-157.148,256
1568024546,312.316,77.465,-17.4129,-1.8457,1.58203,-157.148,256
1568024546,312.316,77.465,-17.4129,-1.8457,1.58203,-157.148,256
1568024546,312.316,77.465,-17.4129,-1.8457,1.58203,-157.148,256
1568024546,312.316,77.465,-17.4129,-1.8457,1.58203,-157.148,256
1568024546,312.316,77.465,-17.4129,-1.8457,1.58203,-157.148,256
1568024546,312.316,77.465,-17.4129,-1.86768,1.58203,-157.148,256
1568024546,312.316,77.465,-17.4129,-1.86768,1.58203,-157.148,256
1568024546,312.316,77.465,-17.4129,-1.86768,1.58203,-157.148,256
1568024546,312.316,77.465,-17.4129,-1.86768,1.58203,-157.148,256
1568024546,312.316,77.465,-17.4129,-1.86768,1.58203,-157.148,256
1568024546,312.316,77.465,-17.4129,-1.86768,1.58203,-157.148,256
1568024546,312.316,77.465,-17.4129,-1.86768,1.58203,-157.148,256
1568024546,312.316,77.465,-17.4129,-1.86768,1.58203,-157.17,256
1568024546,312.316,77.465,-17.4129,-1.86768,1.58203,-157.17,256
1568024546,312.316,77.465,-17.4129,-1.86768,1.58203,-157.17,256
1568024546,312.316,77.465,-17.4129,-1.86768,1.58203,-157.17,256
1568024546,312.316,77.465,-17.4129,-1.86768,1.58203,-157.17,256
1568024546,312.316,77.465,-17.4129,-1.86768,1.58203,-157.17,256
1568024546,312.316,77.465,-17.4129,-1.86768,1.58203,-157.17,256
1568024546,312.316,77.465,-17.4129,-1.86768,1.58203,-157.17,256
1568024546,312.316,77.465,-17.4129,-1.86768,1.56006,-157.17,256
1568024546,312.316,77.465,-17.4129,-1.86768,1.56006,-157.17,256
1568024546,312.316,77.465,-17.4129,-1.86768,1.56006,-157.17,256
1568024546,312.316,77.465,-17.4129,-1.86768,1.56006,-157.17,252
1568024546,312.316,77.465,-17.4129,-1.86768,1.56006,-157.17,252
1568024546,312.316,77.465,-17.4129,-1.86768,1.56006,-157.17,252
1568024546,312.316,77.465,-17.4129,-1.86768,1.56006,-157.17,252
1568024546,312.316,77.465,-17.4129,-1.86768,1.56006,-157.17,252
1568024546,312.316,77.465,-17.4129,-1.86768,1.56006,-157.17,252
1568024546,312.316,77.465,-17.4129,-1.86768,1.56006,-157.17,252
1568024546,312.316,77.465,-17.4129,-1.86768,1.56006,-157.17,252
1568024546,312.316,77.465,-17.4129,-1.86768,1.56006,-157.17,252
1568024546,312.316,77.465,-17.4129,-1.86768,1.56006,-157.17,252
1568024546,312.316,77.465,-17.4129,-1.86768,1.56006,-157.17,252
1568024546,312.316,77.465,-17.4129,-1.86768,1.56006,-157.17,252
1568024546,312.316,77.465,-17.4129,-1.86768,1.56006,-157.17,252
1568024546,312.316,77.465,-17.4129,-1.86768,1.56006,-157.17,252
1568024546,312.316,77.465,-17.4129,-1.86768,1.56006,-157.17,252
1568024546,312.316,77.465,-17.4129,-1.86768,1.56006,-157.17,252
1568024546,312.316,77.465,-17.4129,-1.86768,1.56006,-157.17,252
1568024546,312.316,77.465,-17.4129,-1.86768,1.56006,-157.17,252
1568024546,312.316,77.465,-17.4129,-1.86768,1.56006,-157.17,252
1568024546,312.316,77.465,-17.4129,-1.86768,1.56006,-157.17,252
1568024546,312.316,77.465,-17.4129,-1.86768,1.56006,-157.17,252
1568024546,312.316,77.465,-17.4129,-1.86768,1.53809,-157.17,252
1568024547,312.316,77.465,-17.4129,-1.86768,1.53809,-157.17,252
1568024547,312.316,77.465,-17.4129,-1.86768,1.53809,-157.17,252
1568024547,312.316,77.465,-17.4129,-1.86768,1.53809,-157.17,256
1568024547,312.316,77.465,-17.4129,-1.86768,1.53809,-157.17,256
1568024547,312.316,77.465,-17.4129,-1.86768,1.53809,-157.17,256
1568024547,312.316,77.465,-17.4129,-1.86768,1.53809,-157.17,256
1568024547,312.316,77.465,-17.4129,-1.86768,1.56006,-157.17,252
1568024547,312.316,77.465,-17.4129,-1.86768,1.56006,-157.17,252
1568024547,312.316,77.465,-17.4129,-1.86768,1.56006,-157.17,252
1568024547,312.316,77.465,-17.4129,-1.86768,1.56006,-157.17,252
1568024547,312.316,77.465,-17.4129,-1.86768,1.56006,-157.17,252
1568024547,312.316,77.465,-17.4129,-1.86768,1.56006,-157.17,252
1568024547,312.316,77.465,-17.4129,-1.86768,1.56006,-157.17,252
1568024547,312.316,77.465,-17.4129,-1.86768,1.56006,-157.17,252
1568024547,312.316,77.465,-17.4129,-1.86768,1.56006,-157.17,252
1568024547,312.316,77.465,-17.4129,-1.86768,1.56006,-157.17,252
1568024547,312.316,77.465,-17.4129,-1.86768,1.56006,-157.17,252
1568024547,312.316,77.465,-17.4129,-1.86768,1.56006,-157.17,252
1568024547,312.316,77.465,-17.4129,-1.86768,1.56006,-157.17,252
1568024547,312.316,77.465,-17.4129,-1.86768,1.56006,-157.17,252
1568024547,312.316,77.465,-17.4129,-1.86768,1.56006,-157.17,252
1568024547,312.316,77.465,-17.4129,-1.86768,1.56006,-157.17,256
1568024547,312.316,77.465,-17.4129,-1.86768,1.56006,-157.17,256
1568024547,312.316,77.465,-17.4129,-1.86768,1.56006,-157.17,256
1568024547,312.316,77.465,-17.4129,-1.86768,1.56006,-157.17,256
1568024547,312.316,77.465,-17.4129,-1.86768,1.56006,-157.17,256
1568024547,312.316,77.465,-17.4129,-1.86768,1.56006,-157.17,256
1568024547,312.316,77.465,-17.4129,-1.86768,1.56006,-157.17,256
1568024547,312.316,77.465,-17.4129,-1.86768,1.56006,-157.17,256
1568024547,312.316,77.465,-17.4129,-1.86768,1.56006,-157.17,256
1568024547,312.316,77.465,-17.4129,-1.86768,1.56006,-157.17,256
1568024547,312.316,77.465,-17.4129,-1.86768,1.56006,-157.17,256
1568024547,312.316,77.465,-17.4129,-1.86768,1.56006,-157.17,256
1568024547,312.316,77.465,-17.4129,-1.86768,1.56006,-157.17,256
1568024547,312.316,77.465,-17.4129,-1.86768,1.56006,-157.17,256
1568024547,312.316,77.465,-17.4129,-1.86768,1.56006,-157.17,256
1568024547,312.316,77.465,-17.4129,-1.86768,1.53809,-157.17,256
1568024547,312.316,77.465,-17.4129,-1.86768,1.53809,-157.17,256
1568024547,312.316,77.465,-17.4129,-1.86768,1.53809,-157.17,256
1568024547,312.316,77.465,-17.4129,-1.86768,1.53809,-157.17,256
1568024547,312.316,77.465,-17.4129,-1.86768,1.53809,-157.17,256
1568024547,312.316,77.465,-17.4129,-1.86768,1.53809,-157.17,256
1568024547,312.316,77.465,-17.4129,-1.86768,1.53809,-157.17,256
1568024547,312.316,77.465,-17.4129,-1.86768,1.53809,-157.17,256
1568024547,312.316,77.465,-17.4129,-1.86768,1.53809,-157.17,260
1568024547,312.316,77.465,-17.4129,-1.86768,1.53809,-157.17,260
1568024547,312.316,77.465,-17.4129,-1.86768,1.53809,-157.17,260
1568024547,312.316,77.465,-17.4129,-1.86768,1.53809,-157.17,260
1568024547,312.316,77.465,-17.4129,-1.86768,1.53809,-157.148,260
1568024547,312.316,77.465,-17.4129,-1.86768,1.53809,-157.148,260
1568024547,312.316,77.465,-17.4129,-1.86768,1.56006,-157.148,260
1568024547,312.316,77.465,-17.4129,-1.86768,1.56006,-157.148,256
1568024547,312.316,77.465,-17.4129,-1.86768,1.56006,-157.148,256
1568024547,312.316,77.465,-17.4129,-1.86768,1.56006,-157.148,256
1568024547,312.316,77.5767,-17.4129,-1.8457,1.56006,-157.148,256
1568024547,312.316,77.5767,-17.3013,-1.8457,1.56006,-157.148,256
1568024547,312.316,77.5767,-17.3013,-1.8457,1.56006,-157.148,256
1568024547,312.316,77.5767,-17.3013,-1.8457,1.53809,-157.148,256
1568024547,312.316,77.5767,-17.3013,-1.8457,1.53809,-157.148,256
1568024547,312.316,77.5767,-17.3013,-1.8457,1.53809,-157.148,252
1568024547,312.316,77.5767,-17.3013,-1.8457,1.53809,-157.148,252
1568024547,312.316,77.5767,-17.3013,-1.8457,1.53809,-157.148,252
1568024547,312.316,77.5767,-17.3013,-1.8457,1.53809,-157.148,252
1568024547,312.316,77.5767,-17.3013,-1.8457,1.53809,-157.148,252
1568024547,312.316,77.5767,-17.3013,-1.8457,1.53809,-157.148,252
1568024547,312.316,77.5767,-17.3013,-1.8457,1.53809,-157.148,252
1568024547,312.316,77.5767,-17.3013,-1.8457,1.53809,-157.148,252
1568024547,312.316,77.5767,-17.3013,-1.8457,1.53809,-157.148,252
1568024547,312.316,77.5767,-17.3013,-1.8457,1.53809,-157.148,252
1568024547,312.316,77.5767,-17.3013,-1.8457,1.53809,-157.148,252
1568024547,312.316,77.5767,-17.3013,-1.8457,1.53809,-157.148,252
1568024547,312.316,77.5767,-17.3013,-1.8457,1.53809,-157.148,252
1568024547,312.316,77.5767,-17.3013,-1.8457,1.53809,-157.148,252
1568024547,312.316,77.5767,-17.3013,-1.8457,1.53809,-157.148,252
1568024547,312.316,77.5767,-17.3013,-1.8457,1.53809,-157.148,252
1568024547,312.316,77.5767,-17.3013,-1.8457,1.53809,-157.148,252
1568024547,312.316,77.5767,-17.3013,-1.8457,1.53809,-157.148,252
1568024547,312.316,77.5767,-17.3013,-1.8457,1.53809,-157.148,252
1568024547,312.316,77.5767,-17.3013,-1.8457,1.53809,-157.148,252
1568024547,312.316,77.465,-17.3013,-1.8457,1.53809,-157.148,252
1568024547,312.316,77.465,-17.3013,-1.8457,1.53809,-157.148,256
1568024547,312.316,77.465,-17.3013,-1.8457,1.53809,-157.148,256
1568024547,312.316,77.465,-17.3013,-1.8457,1.53809,-157.148,256
1568024547,312.316,77.465,-17.3013,-1.8457,1.53809,-157.148,256
1568024547,312.316,77.465,-17.3013,-1.8457,1.53809,-157.148,256
1568024547,312.316,77.465,-17.3013,-1.8457,1.53809,-157.148,256
1568024547,312.316,77.465,-17.3013,-1.8457,1.53809,-157.148,256
1568024547,312.316,77.465,-17.3013,-1.8457,1.53809,-157.148,256
1568024547,312.316,77.465,-17.3013,-1.8457,1.53809,-157.148,256
1568024547,312.316,77.465,-17.3013,-1.8457,1.53809,-157.148,256
1568024547,312.316,77.465,-17.3013,-1.8457,1.53809,-157.148,256
1568024547,312.316,77.465,-17.3013,-1.8457,1.53809,-157.148,260
1568024547,312.316,77.465,-17.3013,-1.8457,1.53809,-157.148,260
1568024547,312.316,77.465,-17.3013,-1.8457,1.53809,-157.17,260
1568024547,312.316,77.465,-17.3013,-1.8457,1.53809,-157.17,260
1568024547,312.316,77.465,-17.4129,-1.8457,1.53809,-157.17,260
1568024547,312.316,77.465,-17.4129,-1.8457,1.56006,-157.17,260
1568024547,312.316,77.465,-17.4129,-1.8457,1.56006,-157.17,260
1568024547,312.316,77.465,-17.4129,-1.8457,1.56006,-157.17,264
1568024547,312.316,77.465,-17.4129,-1.8457,1.56006,-157.17,264
1568024548,312.316,77.465,-17.4129,-1.8457,1.56006,-157.17,264
1568024548,312.316,77.465,-17.4129,-1.8457,1.56006,-157.17,264
1568024548,312.316,77.465,-17.4129,-1.8457,1.56006,-157.17,264
1568024548,312.316,77.465,-17.4129,-1.8457,1.56006,-157.148,264
1568024548,312.316,77.465,-17.4129,-1.8457,1.56006,-157.148,264
1568024548,312.316,77.465,-17.4129,-1.8457,1.58203,-157.148,264
1568024548,312.316,77.465,-17.4129,-1.8457,1.58203,-157.148,264
1568024548,312.316,77.465,-17.4129,-1.8457,1.58203,-157.148,264
1568024548,312.316,77.465,-17.4129,-1.8457,1.58203,-157.148,264
1568024548,312.316,77.465,-17.4129,-1.8457,1.58203,-157.148,264
1568024548,312.316,77.465,-17.4129,-1.8457,1.58203,-157.148,264
1568024548,312.316,77.465,-17.4129,-1.8457,1.58203,-157.148,264
1568024548,312.316,77.465,-17.4129,-1.8457,1.58203,-157.148,264
1568024548,312.316,77.465,-17.4129,-1.8457,1.58203,-157.148,264
1568024548,312.316,77.465,-17.4129,-1.8457,1.58203,-157.148,264
1568024548,312.316,77.465,-17.4129,-1.8457,1.58203,-157.148,264
1568024548,312.316,77.465,-17.4129,-1.8457,1.58203,-157.148,264
1568024548,312.316,77.465,-17.4129,-1.8457,1.58203,-157.148,264
1568024548,312.316,77.465,-17.4129,-1.8457,1.58203,-157.148,264
1568024548,312.316,77.465,-17.4129,-1.8457,1.58203,-157.148,264
1568024548,312.316,77.465,-17.4129,-1.8457,1.56006,-157.148,260
1568024548,312.316,77.465,-17.4129,-1.8457,1.56006,-157.148,260
1568024548,312.316,77.465,-17.4129,-1.8457,1.56006,-157.148,260
1568024548,312.316,77.465,-17.4129,-1.8457,1.56006,-157.148,260
1568024548,312.316,77.465,-17.4129,-1.8457,1.56006,-157.148,260
1568024548,312.316,77.465,-17.4129,-1.8457,1.56006,-157.148,260
1568024548,312.316,77.465,-17.4129,-1.8457,1.56006,-157.148,260
1568024548,312.316,77.5767,-17.4129,-1.8457,1.56006,-157.148,260
1568024548,312.316,77.5767,-17.4129,-1.8457,1.56006,-157.148,260
1568024548,312.316,77.5767,-17.4129,-1.8457,1.56006,-157.148,260
1568024548,312.316,77.5767,-17.4129,-1.8457,1.56006,-157.148,260
1568024548,312.316,77.5767,-17.4129,-1.8457,1.56006,-157.148,260
1568024548,312.316,77.5767,-17.4129,-1.82373,1.56006,-157.148,260
1568024548,312.316,77.5767,-17.4129,-1.82373,1.56006,-157.148,260
1568024548,312.316,77.5767,-17.4129,-1.82373,1.56006,-157.148,260
1568024548,312.316,77.5767,-17.4129,-1.82373,1.56006,-157.148,260
1568024548,312.316,77.5767,-17.4129,-1.82373,1.56006,-157.148,260
1568024548,312.316,77.5767,-17.4129,-1.8457,1.56006,-157.148,260
1568024548,312.316,77.5767,-17.4129,-1.8457,1.56006,-157.148,260
1568024548,312.316,77.5767,-17.4129,-1.8457,1.56006,-157.148,260
1568024548,312.316,77.5767,-17.4129,-1.8457,1.56006,-157.148,260
1568024548,312.316,77.5767,-17.4129,-1.8457,1.56006,-157.148,260
1568024548,312.316,77.5767,-17.4129,-1.8457,1.56006,-157.148,260
1568024548,312.316,77.465,-17.4129,-1.8457,1.56006,-157.148,260
1568024548,312.316,77.465,-17.4129,-1.8457,1.56006,-157.148,260
1568024548,312.316,77.465,-17.4129,-1.8457,1.56006,-157.148,260
1568024548,312.316,77.465,-17.4129,-1.8457,1.56006,-157.148,260
1568024548,312.316,77.465,-17.4129,-1.8457,1.56006,-157.148,260
1568024548,312.316,77.465,-17.4129,-1.8457,1.56006,-157.148,260
1568024548,312.316,77.465,-17.4129,-1.8457,1.56006,-157.148,260
1568024548,312.316,77.465,-17.4129,-1.8457,1.56006,-157.148,260
1568024548,312.316,77.465,-17.4129,-1.8457,1.56006,-157.148,260
1568024548,312.316,77.465,-17.4129,-1.8457,1.56006,-157.148,260
1568024548,312.316,77.465,-17.4129,-1.8457,1.56006,-157.148,260
1568024548,312.316,77.465,-17.4129,-1.8457,1.56006,-157.148,260
1568024548,312.316,77.465,-17.4129,-1.8457,1.56006,-157.148,260
1568024548,312.316,77.465,-17.4129,-1.8457,1.56006,-157.148,260
1568024548,312.316,77.465,-17.4129,-1.8457,1.56006,-157.148,260
1568024548,312.316,77.465,-17.4129,-1.8457,1.56006,-157.148,260
1568024548,312.316,77.465,-17.4129,-1.8457,1.56006,-157.148,260
1568024548,312.316,77.465,-17.4129,-1.8457,1.56006,-157.148,260
1568024548,312.316,77.465,-17.4129,-1.8457,1.56006,-157.148,260
1568024548,312.316,77.465,-17.4129,-1.8457,1.56006,-157.148,260
1568024548,312.316,77.465,-17.4129,-1.8457,1.56006,-157.148,260
1568024548,312.316,77.465,-17.4129,-1.8457,1.56006,-157.148,260
1568024548,312.316,77.465,-17.4129,-1.8457,1.56006,-157.148,260
1568024548,312.316,77.465,-17.4129,-1.8457,1.56006,-157.148,260
1568024548,312.316,77.465,-17.4129,-1.86768,1.56006,-157.148,256
1568024548,312.316,77.465,-17.4129,-1.86768,1.56006,-157.148,256
1568024548,312.316,77.465,-17.4129,-1.86768,1.56006,-157.148,256
1568024548,312.316,77.465,-17.4129,-1.86768,1.56006,-157.148,256
1568024548,312.316,77.465,-17.4129,-1.86768,1.56006,-157.148,256
1568024548,312.316,77.465,-17.4129,-1.86768,1.56006,-157.148,256
1568024548,312.316,77.465,-17.4129,-1.86768,1.56006,-157.148,256
1568024548,312.316,77.465,-17.4129,-1.86768,1.56006,-157.148,252
1568024548,312.316,77.465,-17.4129,-1.86768,1.56006,-157.148,252
1568024548,312.316,77.465,-17.4129,-1.86768,1.56006,-157.148,252
1568024548,312.316,77.465,-17.4129,-1.86768,1.56006,-157.148,252
1568024548,312.316,77.465,-17.4129,-1.86768,1.56006,-157.148,252
1568024548,312.316,77.465,-17.4129,-1.86768,1.56006,-157.148,248
1568024548,312.316,77.465,-17.4129,-1.86768,1.56006,-157.148,248
1568024548,312.316,77.465,-17.4129,-1.86768,1.56006,-157.148,248
1568024548,312.316,77.465,-17.4129,-1.86768,1.56006,-157.17,248
1568024548,312.427,77.465,-17.4129,-1.86768,1.56006,-157.17,248
1568024548,312.427,77.465,-17.4129,-1.86768,1.56006,-157.17,248
1568024548,312.427,77.465,-17.4129,-1.86768,1.53809,-157.17,244
1568024548,312.316,77.465,-17.4129,-1.86768,1.53809,-157.17,244
1568024548,312.316,77.465,-17.4129,-1.86768,1.53809,-157.17,244
1568024548,312.316,77.465,-17.4129,-1.86768,1.53809,-157.17,244
1568024548,312.316,77.465,-17.4129,-1.86768,1.53809,-157.17,244
1568024548,312.316,77.465,-17.4129,-1.86768,1.53809,-157.17,244
1568024548,312.316,77.465,-17.4129,-1.86768,1.53809,-157.17,244
1568024548,312.316,77.465,-17.4129,-1.86768,1.53809,-157.17,244
1568024548,312.316,77.465,-17.4129,-1.86768,1.53809,-157.17,244
1568024548,312.316,77.465,-17.4129,-1.86768,1.53809,-157.17,244
1568024548,312.316,77.465,-17.4129,-1.86768,1.53809,-157.17,244
1568024548,312.316,77.465,-17.4129,-1.86768,1.53809,-157.17,244
1568024548,312.316,77.465,-17.4129,-1.8457,1.53809,-157.17,244
1568024548,312.316,77.465,-17.4129,-1.8457,1.56006,-157.17,244
1568024548,312.316,77.465,-17.4129,-1.8457,1.56006,-157.17,244
1568024549,312.316,77.465,-17.4129,-1.8457,1.56006,-157.17,244
1568024549,312.316,77.465,-17.4129,-1.8457,1.56006,-157.17,244
1568024549,312.316,77.465,-17.4129,-1.8457,1.56006,-157.17,244
1568024549,312.316,77.5767,-17.4129,-1.8457,1.56006,-157.17,248
1568024549,312.316,77.5767,-17.4129,-1.8457,1.56006,-157.17,248
1568024549,312.316,77.5767,-17.4129,-1.8457,1.56006,-157.17,248
1568024549,312.316,77.5767,-17.4129,-1.8457,1.56006,-157.17,248
1568024549,312.316,77.465,-17.4129,-1.8457,1.56006,-157.17,248
1568024549,312.316,77.465,-17.4129,-1.8457,1.56006,-157.17,248
1568024549,312.316,77.465,-17.4129,-1.8457,1.56006,-157.17,248
1568024549,312.316,77.465,-17.4129,-1.8457,1.56006,-157.17,248
1568024549,312.316,77.465,-17.4129,-1.8457,1.56006,-157.17,248
1568024549,312.316,77.465,-17.4129,-1.8457,1.56006,-157.17,248
1568024549,312.316,77.465,-17.4129,-1.8457,1.56006,-157.17,248
1568024549,312.316,77.465,-17.4129,-1.8457,1.56006,-157.17,248
1568024549,312.316,77.465,-17.4129,-1.86768,1.56006,-157.148,248
1568024549,312.316,77.465,-17.4129,-1.86768,1.56006,-157.148,248
1568024549,312.316,77.465,-17.4129,-1.86768,1.56006,-157.148,248
1568024549,312.316,77.465,-17.4129,-1.86768,1.56006,-157.148,248
1568024549,312.316,77.465,-17.4129,-1.86768,1.56006,-157.148,248
1568024549,312.316,77.465,-17.4129,-1.86768,1.56006,-157.148,248
1568024549,312.316,77.465,-17.4129,-1.86768,1.56006,-157.148,248
1568024549,312.316,77.465,-17.4129,-1.86768,1.56006,-157.148,248
1568024549,312.316,77.465,-17.4129,-1.86768,1.56006,-157.148,248
1568024549,312.316,77.465,-17.4129,-1.86768,1.56006,-157.148,248
1568024549,312.316,77.465,-17.4129,-1.86768,1.56006,-157.148,248
1568024549,312.316,77.465,-17.4129,-1.86768,1.56006,-157.148,248
1568024549,312.316,77.465,-17.4129,-1.86768,1.56006,-157.148,248
1568024549,312.316,77.465,-17.4129,-1.86768,1.56006,-157.148,248
1568024549,312.316,77.465,-17.4129,-1.8457,1.56006,-157.148,248
1568024549,312.316,77.465,-17.4129,-1.8457,1.56006,-157.148,248
1568024549,312.316,77.465,-17.4129,-1.8457,1.56006,-157.148,248
1568024549,312.316,77.465,-17.4129,-1.8457,1.56006,-157.148,248
1568024549,312.316,77.465,-17.4129,-1.8457,1.56006,-157.148,248
1568024549,312.316,77.465,-17.4129,-1.8457,1.56006,-157.148,248
1568024549,312.316,77.465,-17.4129,-1.8457,1.56006,-157.148,248
1568024549,312.316,77.465,-17.4129,-1.8457,1.56006,-157.148,248
1568024549,312.316,77.465,-17.4129,-1.8457,1.56006,-157.148,248
1568024549,312.316,77.465,-17.4129,-1.8457,1.56006,-157.148,248
1568024549,312.316,77.465,-17.4129,-1.8457,1.56006,-157.148,248
1568024549,312.316,77.465,-17.4129,-1.86768,1.56006,-157.148,248
1568024549,312.316,77.465,-17.4129,-1.86768,1.56006,-157.148,248
1568024549,312.316,77.465,-17.4129,-1.86768,1.56006,-157.148,248
1568024549,312.316,77.465,-17.4129,-1.86768,1.56006,-157.148,248
1568024549,312.316,77.465,-17.4129,-1.86768,1.56006,-157.17,248
1568024549,312.316,77.465,-17.4129,-1.86768,1.56006,-157.17,248
1568024549,312.316,77.465,-17.4129,-1.86768,1.56006,-157.17,248
1568024549,312.316,77.465,-17.4129,-1.86768,1.56006,-157.17,248
1568024549,312.316,77.465,-17.4129,-1.86768,1.56006,-157.17,252
1568024549,312.316,77.465,-17.4129,-1.86768,1.58203,-157.17,252
1568024549,312.316,77.465,-17.4129,-1.86768,1.58203,-157.17,252
1568024549,312.316,77.465,-17.4129,-1.86768,1.58203,-157.17,252
1568024549,312.316,77.465,-17.4129,-1.86768,1.58203,-157.17,252
1568024549,312.316,77.465,-17.4129,-1.8457,1.58203,-157.17,252
1568024549,312.316,77.465,-17.4129,-1.8457,1.58203,-157.17,252
1568024549,312.316,77.465,-17.4129,-1.8457,1.58203,-157.148,252
1568024549,312.316,77.465,-17.4129,-1.8457,1.58203,-157.148,252
1568024549,312.316,77.465,-17.4129,-1.8457,1.58203,-157.148,252
1568024549,312.316,77.465,-17.4129,-1.86768,1.58203,-157.148,252
1568024549,312.316,77.465,-17.4129,-1.86768,1.58203,-157.148,252
1568024549,312.316,77.465,-17.4129,-1.86768,1.58203,-157.148,252
1568024549,312.316,77.465,-17.4129,-1.86768,1.56006,-157.148,252
1568024549,312.316,77.465,-17.4129,-1.86768,1.56006,-157.148,252
1568024549,312.316,77.465,-17.4129,-1.86768,1.56006,-157.148,252
1568024549,312.316,77.465,-17.4129,-1.86768,1.56006,-157.148,252
1568024549,312.316,77.465,-17.4129,-1.86768,1.56006,-157.148,252
1568024549,312.316,77.465,-17.4129,-1.86768,1.56006,-157.148,252
1568024549,312.316,77.465,-17.4129,-1.86768,1.56006,-157.148,256
1568024549,312.316,77.465,-17.4129,-1.86768,1.56006,-157.148,256
1568024549,312.316,77.465,-17.4129,-1.86768,1.56006,-157.148,256
1568024549,312.316,77.465,-17.4129,-1.86768,1.56006,-157.148,256
1568024549,312.316,77.465,-17.4129,-1.86768,1.56006,-157.148,256
1568024549,312.316,77.465,-17.4129,-1.86768,1.56006,-157.148,256
1568024549,312.316,77.465,-17.4129,-1.86768,1.56006,-157.148,256
1568024549,312.316,77.465,-17.4129,-1.86768,1.56006,-157.148,256
1568024549,312.316,77.465,-17.4129,-1.86768,1.56006,-157.148,256
1568024549,312.316,77.465,-17.4129,-1.86768,1.56006,-157.148,260
1568024549,312.316,77.465,-17.4129,-1.86768,1.56006,-157.148,260
1568024549,312.316,77.465,-17.4129,-1.86768,1.56006,-157.148,260
1568024549,312.316,77.465,-17.4129,-1.86768,1.56006,-157.148,260
1568024549,312.316,77.465,-17.4129,-1.86768,1.56006,-157.148,260
1568024549,312.316,77.465,-17.4129,-1.86768,1.56006,-157.148,260
1568024549,312.316,77.465,-17.4129,-1.86768,1.56006,-157.148,256
1568024549,312.316,77.465,-17.4129,-1.88965,1.56006,-157.148,256
1568024549,312.316,77.465,-17.4129,-1.88965,1.56006,-157.148,256
1568024549,312.316,77.465,-17.4129,-1.88965,1.56006,-157.148,256
1568024549,312.316,77.465,-17.4129,-1.88965,1.56006,-157.148,256
1568024549,312.316,77.465,-17.4129,-1.88965,1.56006,-157.148,256
1568024549,312.316,77.465,-17.4129,-1.88965,1.56006,-157.148,256
1568024549,312.316,77.465,-17.4129,-1.86768,1.56006,-157.148,256
1568024549,312.316,77.465,-17.4129,-1.86768,1.56006,-157.148,256
1568024549,312.316,77.465,-17.4129,-1.86768,1.56006,-157.148,256
1568024549,312.316,77.465,-17.4129,-1.86768,1.56006,-157.148,252
1568024549,312.316,77.465,-17.4129,-1.86768,1.56006,-157.148,252
1568024549,312.316,77.465,-17.4129,-1.86768,1.56006,-157.148,252
1568024549,312.316,77.465,-17.4129,-1.86768,1.56006,-157.148,252
1568024549,312.316,77.465,-17.4129,-1.86768,1.56006,-157.148,252
1568024549,312.316,77.465,-17.4129,-1.86768,1.56006,-157.148,252
1568024549,312.316,77.465,-17.4129,-1.86768,1.56006,-157.148,252
1568024549,312.316,77.465,-17.4129,-1.8457,1.56006,-157.148,252
1568024550,312.316,77.465,-17.4129,-1.8457,1.56006,-157.148,252
1568024550,312.316,77.465,-17.4129,-1.8457,1.56006,-157.148,252
1568024550,312.316,77.465,-17.4129,-1.8457,1.56006,-157.148,252
1568024550,312.316,77.465,-17.4129,-1.8457,1.56006,-157.148,252
1568024550,312.316,77.465,-17.4129,-1.8457,1.56006,-157.148,252
1568024550,312.316,77.465,-17.4129,-1.86768,1.56006,-157.17,252
1568024550,312.316,77.465,-17.4129,-1.8457,1.56006,-157.17,252
1568024550,312.316,77.465,-17.4129,-1.8457,1.56006,-157.17,252
1568024550,312.316,77.465,-17.4129,-1.8457,1.56006,-157.17,252
1568024550,312.316,77.465,-17.4129,-1.8457,1.56006,-157.17,252
1568024550,312.316,77.465,-17.4129,-1.8457,1.56006,-157.17,252
1568024550,312.316,77.465,-17.4129,-1.8457,1.56006,-157.17,252
1568024550,312.316,77.5767,-17.4129,-1.8457,1.56006,-157.17,252
1568024550,312.316,77.5767,-17.4129,-1.8457,1.56006,-157.17,252
1568024550,312.316,77.5767,-17.4129,-1.8457,1.56006,-157.17,252
1568024550,312.316,77.5767,-17.4129,-1.8457,1.56006,-157.17,252
1568024550,312.316,77.5767,-17.4129,-1.8457,1.56006,-157.148,252
1568024550,312.316,77.5767,-17.4129,-1.8457,1.56006,-157.148,252
1568024550,312.316,77.5767,-17.4129,-1.8457,1.56006,-157.148,248
1568024550,312.316,77.5767,-17.4129,-1.8457,1.56006,-157.148,248
1568024550,312.316,77.5767,-17.4129,-1.8457,1.56006,-157.148,248
1568024550,312.316,77.5767,-17.4129,-1.8457,1.56006,-157.148,248
1568024550,312.316,77.5767,-17.4129,-1.8457,1.56006,-157.148,248
1568024550,312.316,77.5767,-17.4129,-1.8457,1.56006,-157.17,248
1568024550,312.316,77.5767,-17.4129,-1.8457,1.56006,-157.17,248
1568024557,296.912,93.985,-17.5245,-1.91162,1.34033,-156.489,248
1568024557,296.912,93.985,-17.5245,-1.91162,1.34033,-156.489,248
1568024557,296.912,93.985,-17.5245,-1.91162,1.34033,-156.489,248
1568024557,297.024,93.985,-17.5245,-1.91162,1.34033,-156.489,248
1568024557,297.024,93.985,-17.5245,-1.91162,1.34033,-156.489,248
1568024557,297.024,94.0966,-17.5245,-1.91162,1.34033,-156.489,248
1568024557,297.024,94.0966,-17.5245,-1.91162,1.34033,-156.489,248
1568024557,297.024,94.0966,-17.5245,-1.91162,1.34033,-156.489,248
1568024557,297.024,94.0966,-17.5245,-1.91162,1.34033,-156.489,248
1568024557,297.024,94.0966,-17.5245,-1.91162,1.34033,-156.489,248
1568024557,297.024,94.0966,-17.5245,-1.91162,1.34033,-156.489,248
1568024557,297.024,94.0966,-17.5245,-1.91162,1.34033,-156.489,248
1568024557,297.024,94.0966,-17.5245,-1.91162,1.34033,-156.489,248
1568024557,297.024,94.0966,-17.5245,-1.91162,1.34033,-156.489,248
1568024557,297.024,94.0966,-17.5245,-1.91162,1.34033,-156.489,248
1568024557,297.024,94.0966,-17.5245,-1.91162,1.34033,-156.489,248
1568024557,297.024,94.0966,-17.5245,-1.91162,1.34033,-156.489,248
1568024557,297.024,94.0966,-17.5245,-1.91162,1.34033,-156.489,248
1568024557,297.024,94.0966,-17.5245,-1.91162,1.34033,-156.489,248
1568024557,297.024,94.0966,-17.5245,-1.91162,1.34033,-156.489,248
1568024557,297.024,94.0966,-17.5245,-1.91162,1.34033,-156.489,248
1568024558,297.024,94.0966,-17.5245,-1.91162,1.34033,-156.489,248
1568024558,297.024,94.0966,-17.5245,-1.91162,1.34033,-156.489,244
1568024558,297.024,94.0966,-17.5245,-1.91162,1.34033,-156.489,244
1568024558,297.024,94.0966,-17.5245,-1.91162,1.34033,-156.489,244
1568024558,297.024,94.0966,-17.5245,-1.91162,1.34033,-156.489,244
1568024558,297.024,94.0966,-17.5245,-1.91162,1.34033,-156.489,244
1568024558,297.024,94.0966,-17.5245,-1.91162,1.34033,-156.489,248
1568024558,297.024,94.0966,-17.5245,-1.91162,1.34033,-156.489,248
1568024558,297.024,94.0966,-17.5245,-1.91162,1.34033,-156.489,248
1568024558,297.024,94.0966,-17.5245,-1.91162,1.34033,-156.467,248
1568024558,297.024,94.0966,-17.5245,-1.91162,1.34033,-156.467,248
1568024558,297.024,94.0966,-17.5245,-1.91162,1.34033,-156.467,248
1568024558,297.024,94.0966,-17.5245,-1.91162,1.34033,-156.467,248
1568024558,297.024,94.0966,-17.5245,-1.91162,1.34033,-156.467,248
1568024558,297.024,94.0966,-17.5245,-1.91162,1.34033,-156.467,248
1568024558,297.024,94.0966,-17.5245,-1.91162,1.34033,-156.467,248
1568024558,297.024,94.0966,-17.5245,-1.91162,1.34033,-156.467,248
1568024558,297.024,94.0966,-17.5245,-1.91162,1.34033,-156.467,248
1568024558,297.024,94.0966,-17.5245,-1.91162,1.34033,-156.467,248
1568024558,297.024,94.0966,-17.5245,-1.91162,1.34033,-156.467,248
1568024558,297.024,94.0966,-17.5245,-1.91162,1.34033,-156.467,248
1568024558,297.024,94.0966,-17.5245,-1.91162,1.34033,-156.467,248
1568024558,297.024,94.0966,-17.5245,-1.91162,1.34033,-156.467,248
1568024558,297.024,94.0966,-17.5245,-1.91162,1.34033,-156.467,248
1568024558,297.024,94.0966,-17.5245,-1.91162,1.34033,-156.467,248
1568024558,297.024,94.0966,-17.5245,-1.91162,1.34033,-156.467,248
1568024558,297.024,94.0966,-17.5245,-1.91162,1.34033,-156.467,248
1568024558,297.024,94.0966,-17.5245,-1.91162,1.34033,-156.467,248
1568024558,297.024,94.0966,-17.5245,-1.91162,1.34033,-156.467,248
1568024558,297.024,94.0966,-17.5245,-1.91162,1.34033,-156.467,248
1568024558,297.024,94.0966,-17.5245,-1.91162,1.34033,-156.467,248
1568024558,297.024,94.0966,-17.5245,-1.91162,1.34033,-156.467,248
1568024558,297.024,94.0966,-17.5245,-1.91162,1.34033,-156.467,244
1568024558,296.912,94.0966,-17.5245,-1.91162,1.34033,-156.467,244
1568024558,296.912,94.0966,-17.5245,-1.91162,1.34033,-156.467,244
1568024558,296.912,94.0966,-17.5245,-1.91162,1.34033,-156.467,248
1568024558,296.912,94.0966,-17.5245,-1.91162,1.34033,-156.467,248
1568024558,296.912,94.0966,-17.5245,-1.91162,1.34033,-156.467,248
1568024558,296.912,94.0966,-17.5245,-1.91162,1.34033,-156.467,248
1568024558,296.912,93.985,-17.5245,-1.91162,1.34033,-156.467,248
1568024558,296.912,93.985,-17.5245,-1.91162,1.34033,-156.467,248
1568024558,296.912,93.985,-17.5245,-1.91162,1.34033,-156.467,248
1568024558,296.912,93.985,-17.5245,-1.91162,1.34033,-156.467,248
1568024558,296.912,93.985,-17.5245,-1.91162,1.34033,-156.467,248
1568024558,296.912,93.985,-17.5245,-1.91162,1.34033,-156.467,248
1568024558,296.912,93.985,-17.5245,-1.91162,1.34033,-156.467,248
1568024558,296.912,93.985,-17.5245,-1.91162,1.34033,-156.467,248
1568024558,296.912,93.985,-17.5245,-1.91162,1.34033,-156.467,248
1568024558,296.912,93.985,-17.5245,-1.91162,1.34033,-156.467,248
1568024558,296.912,93.985,-17.5245,-1.91162,1.34033,-156.467,248
1568024558,296.912,93.985,-17.5245,-1.91162,1.34033,-156.467,248
1568024558,296.912,93.985,-17.5245,-1.91162,1.34033,-156.467,248
1568024558,296.912,93.985,-17.5245,-1.91162,1.34033,-156.467,248
1568024558,296.912,94.0966,-17.5245,-1.91162,1.34033,-156.467,248
1568024558,296.912,94.0966,-17.5245,-1.91162,1.34033,-156.467,248
1568024558,296.912,94.0966,-17.5245,-1.91162,1.34033,-156.467,248
1568024558,296.912,94.0966,-17.5245,-1.91162,1.3623,-156.467,248
1568024558,296.912,94.0966,-17.5245,-1.91162,1.3623,-156.467,244
1568024558,296.912,94.0966,-17.5245,-1.91162,1.3623,-156.467,244
1568024558,296.912,94.0966,-17.5245,-1.91162,1.3623,-156.467,244
1568024558,296.912,94.0966,-17.5245,-1.91162,1.3623,-156.467,244
1568024558,296.912,94.0966,-17.5245,-1.91162,1.3623,-156.467,244
1568024558,296.912,94.0966,-17.5245,-1.91162,1.3623,-156.467,244
1568024558,296.912,94.0966,-17.5245,-1.91162,1.3623,-156.467,244
1568024558,296.912,94.0966,-17.5245,-1.88965,1.3623,-156.467,244
1568024558,296.912,94.0966,-17.5245,-1.88965,1.34033,-156.467,244
1568024558,296.912,94.0966,-17.5245,-1.88965,1.34033,-156.467,244
1568024558,296.912,94.0966,-17.5245,-1.88965,1.34033,-156.467,244
1568024558,297.024,94.0966,-17.5245,-1.88965,1.34033,-156.467,244
1568024558,297.024,94.0966,-17.5245,-1.88965,1.34033,-156.467,244
1568024558,296.912,94.0966,-17.5245,-1.88965,1.34033,-156.467,244
1568024558,296.912,94.0966,-17.5245,-1.88965,1.34033,-156.467,244
1568024558,296.912,94.0966,-17.5245,-1.88965,1.34033,-156.467,244
1568024558,296.912,94.0966,-17.5245,-1.88965,1.34033,-156.467,244
1568024558,296.912,94.0966,-17.5245,-1.88965,1.34033,-156.467,244
1568024558,296.912,94.0966,-17.5245,-1.88965,1.34033,-156.467,244
1568024558,296.912,94.0966,-17.5245,-1.88965,1.34033,-156.467,244
1568024558,296.912,94.0966,-17.5245,-1.88965,1.34033,-156.467,244
1568024558,296.912,94.0966,-17.5245,-1.88965,1.34033,-156.467,244
1568024558,296.912,94.0966,-17.5245,-1.88965,1.34033,-156.467,244
1568024558,296.912,94.0966,-17.5245,-1.88965,1.34033,-156.467,244
1568024558,296.912,94.0966,-17.5245,-1.88965,1.34033,-156.467,244
1568024558,296.912,94.0966,-17.5245,-1.91162,1.34033,-156.467,244
1568024558,296.912,94.0966,-17.5245,-1.91162,1.34033,-156.467,244
1568024558,296.912,93.985,-17.5245,-1.91162,1.34033,-156.467,244
1568024558,296.912,93.985,-17.5245,-1.91162,1.34033,-156.467,244
1568024558,297.024,93.985,-17.5245,-1.91162,1.34033,-156.467,244
1568024558,297.024,93.985,-17.5245,-1.91162,1.34033,-156.467,244
1568024558,297.024,93.985,-17.5245,-1.91162,1.34033,-156.467,244
1568024558,297.024,93.985,-17.5245,-1.91162,1.34033,-156.467,244
1568024558,297.024,93.985,-17.5245,-1.91162,1.34033,-156.467,240
1568024558,297.024,93.985,-17.5245,-1.91162,1.34033,-156.467,240
1568024558,297.024,93.985,-17.5245,-1.91162,1.34033,-156.467,240
1568024558,297.024,93.985,-17.5245,-1.91162,1.34033,-156.467,240
1568024558,297.024,93.985,-17.5245,-1.91162,1.34033,-156.467,240
1568024558,297.024,93.985,-17.5245,-1.91162,1.34033,-156.467,240
1568024558,297.024,93.985,-17.5245,-1.91162,1.34033,-156.467,240
1568024558,297.024,93.985,-17.5245,-1.91162,1.34033,-156.467,240
1568024558,297.024,93.985,-17.5245,-1.91162,1.34033,-156.467,240
1568024558,297.024,93.985,-17.5245,-1.91162,1.34033,-156.467,240
1568024559,297.024,93.985,-17.5245,-1.91162,1.34033,-156.467,240
1568024559,297.024,93.985,-17.5245,-1.91162,1.34033,-156.467,240
1568024559,297.024,93.985,-17.5245,-1.91162,1.34033,-156.467,240
1568024559,297.024,93.985,-17.5245,-1.91162,1.34033,-156.467,240
1568024559,297.024,93.985,-17.5245,-1.91162,1.34033,-156.467,240
1568024559,297.024,93.985,-17.5245,-1.91162,1.34033,-156.467,240
1568024559,297.024,93.985,-17.5245,-1.91162,1.34033,-156.467,240
1568024559,297.024,93.985,-17.5245,-1.91162,1.34033,-156.467,240
1568024559,297.024,93.985,-17.5245,-1.91162,1.34033,-156.467,240
1568024559,297.024,93.985,-17.5245,-1.91162,1.34033,-156.467,240
1568024559,297.024,93.985,-17.5245,-1.91162,1.34033,-156.467,240
1568024559,297.024,93.985,-17.5245,-1.91162,1.34033,-156.467,240
1568024559,297.024,93.985,-17.5245,-1.91162,1.34033,-156.467,240
1568024559,297.024,93.985,-17.5245,-1.91162,1.34033,-156.467,236
1568024559,297.024,93.985,-17.5245,-1.91162,1.34033,-156.467,236
1568024559,297.024,93.985,-17.5245,-1.91162,1.34033,-156.467,236
1568024559,297.024,93.985,-17.5245,-1.91162,1.34033,-156.467,236
1568024559,297.024,93.985,-17.5245,-1.91162,1.34033,-156.467,236
1568024559,297.024,93.985,-17.5245,-1.91162,1.34033,-156.467,236
1568024559,297.024,93.985,-17.5245,-1.91162,1.34033,-156.467,240
1568024559,297.024,93.985,-17.5245,-1.91162,1.34033,-156.467,240
1568024559,297.024,93.985,-17.5245,-1.93359,1.34033,-156.467,240
1568024559,297.024,93.985,-17.5245,-1.93359,1.34033,-156.467,240
1568024559,297.024,93.985,-17.5245,-1.93359,1.34033,-156.467,240
1568024559,297.024,93.985,-17.5245,-1.93359,1.34033,-156.467,240
1568024559,297.024,93.985,-17.5245,-1.93359,1.34033,-156.467,240
1568024559,297.024,93.985,-17.5245,-1.93359,1.34033,-156.467,240
1568024559,297.024,93.985,-17.5245,-1.93359,1.34033,-156.467,240
1568024559,297.024,93.985,-17.5245,-1.93359,1.34033,-156.467,240
1568024559,297.024,93.985,-17.5245,-1.93359,1.34033,-156.467,244
1568024559,297.024,93.985,-17.5245,-1.93359,1.34033,-156.467,244
1568024559,297.024,93.985,-17.5245,-1.91162,1.34033,-156.467,244
1568024559,297.024,93.985,-17.5245,-1.91162,1.34033,-156.467,244
1568024559,297.024,93.985,-17.5245,-1.91162,1.34033,-156.467,244
1568024559,297.024,93.985,-17.5245,-1.91162,1.34033,-156.467,244
1568024559,297.024,93.985,-17.5245,-1.91162,1.34033,-156.467,244
1568024559,297.024,93.985,-17.5245,-1.91162,1.34033,-156.467,244
1568024559,297.024,93.985,-17.5245,-1.91162,1.34033,-156.467,244
1568024559,297.024,93.985,-17.5245,-1.91162,1.34033,-156.467,244
1568024559,297.024,93.985,-17.5245,-1.91162,1.34033,-156.467,244
1568024559,297.024,93.985,-17.5245,-1.91162,1.34033,-156.467,244
1568024559,297.024,93.985,-17.5245,-1.93359,1.34033,-156.467,244
1568024559,297.024,93.985,-17.5245,-1.93359,1.34033,-156.467,248
1568024559,297.024,93.985,-17.5245,-1.93359,1.34033,-156.467,248
1568024559,297.024,93.985,-17.5245,-1.93359,1.34033,-156.467,248
1568024559,297.024,93.985,-17.5245,-1.93359,1.34033,-156.467,248
1568024559,297.024,93.985,-17.5245,-1.93359,1.34033,-156.467,248
1568024559,297.024,93.985,-17.5245,-1.93359,1.34033,-156.467,248
1568024559,297.024,93.985,-17.5245,-1.93359,1.34033,-156.467,248
1568024559,297.024,93.985,-17.5245,-1.93359,1.34033,-156.467,248
1568024559,297.024,93.985,-17.5245,-1.93359,1.34033,-156.467,248
1568024559,297.024,93.985,-17.5245,-1.93359,1.34033,-156.467,248
1568024559,297.024,93.985,-17.5245,-1.93359,1.34033,-156.467,248
1568024559,297.024,93.985,-17.5245,-1.93359,1.34033,-156.467,244
1568024559,297.024,93.985,-17.5245,-1.93359,1.34033,-156.467,244
1568024559,297.024,93.985,-17.5245,-1.93359,1.34033,-156.467,244
1568024559,297.024,93.985,-17.5245,-1.93359,1.34033,-156.467,244
1568024559,297.024,93.985,-17.5245,-1.93359,1.34033,-156.467,244
1568024559,297.024,93.985,-17.5245,-1.93359,1.34033,-156.467,244
1568024559,297.024,93.985,-17.5245,-1.93359,1.34033,-156.467,244
1568024559,297.024,93.985,-17.5245,-1.93359,1.34033,-156.467,244
1568024559,297.024,93.985,-17.5245,-1.93359,1.34033,-156.467,244
1568024559,297.024,93.985,-17.5245,-1.93359,1.34033,-156.467,244
1568024559,297.024,93.985,-17.5245,-1.93359,1.34033,-156.467,244
1568024559,297.024,93.985,-17.5245,-1.93359,1.34033,-156.467,244
1568024559,297.024,93.985,-17.5245,-1.93359,1.34033,-156.467,240
1568024559,297.024,93.985,-17.5245,-1.93359,1.34033,-156.467,240
1568024559,297.024,93.985,-17.5245,-1.93359,1.34033,-156.467,240
1568024559,297.024,93.985,-17.5245,-1.93359,1.34033,-156.467,240
1568024559,297.024,93.985,-17.5245,-1.93359,1.34033,-156.467,240
1568024559,297.024,93.985,-17.5245,-1.93359,1.34033,-156.467,240
1568024559,297.024,93.985,-17.5245,-1.93359,1.34033,-156.467,240
1568024559,297.024,93.985,-17.5245,-1.93359,1.34033,-156.467,240
1568024559,297.024,93.985,-17.5245,-1.93359,1.34033,-156.467,240
1568024559,297.024,93.985,-17.5245,-1.93359,1.34033,-156.467,240
1568024559,297.024,93.985,-17.5245,-1.93359,1.34033,-156.467,240
1568024559,297.024,93.985,-17.5245,-1.93359,1.34033,-156.467,240
1568024559,297.024,93.985,-17.5245,-1.93359,1.34033,-156.467,240
1568024559,297.024,93.985,-17.5245,-1.93359,1.34033,-156.467,240
1568024559,297.024,93.985,-17.5245,-1.91162,1.34033,-156.467,240
1568024559,297.024,93.985,-17.5245,-1.91162,1.34033,-156.467,240
1568024559,297.024,93.985,-17.5245,-1.91162,1.34033,-156.467,240
1568024559,297.024,93.985,-17.5245,-1.91162,1.34033,-156.467,240
1568024559,297.024,93.985,-17.5245,-1.91162,1.34033,-156.467,240
1568024559,297.024,93.985,-17.5245,-1.91162,1.34033,-156.467,244
1568024559,297.024,93.985,-17.5245,-1.91162,1.34033,-156.467,244
1568024559,297.024,93.985,-17.5245,-1.91162,1.34033,-156.467,244
1568024559,297.024,93.985,-17.5245,-1.91162,1.34033,-156.467,244
1568024559,297.024,93.985,-17.5245,-1.91162,1.34033,-156.467,244
1568024559,297.024,93.985,-17.5245,-1.91162,1.34033,-156.467,244
1568024559,297.024,93.985,-17.5245,-1.91162,1.34033,-156.467,244
1568024559,297.024,93.985,-17.5245,-1.91162,1.34033,-156.467,244
1568024559,297.024,93.985,-17.5245,-1.91162,1.34033,-156.467,244
1568024559,297.024,93.985,-17.5245,-1.91162,1.34033,-156.467,244
1568024559,297.024,93.985,-17.5245,-1.91162,1.34033,-156.467,244
1568024559,297.024,93.985,-17.5245,-1.91162,1.34033,-156.467,244
1568024559,297.024,93.985,-17.5245,-1.91162,1.34033,-156.467,244
1568024559,297.024,93.985,-17.5245,-1.91162,1.34033,-156.467,244
1568024559,297.024,93.985,-17.5245,-1.93359,1.34033,-156.467,244
1568024559,297.024,93.985,-17.5245,-1.93359,1.34033,-156.467,244
1568024560,297.024,93.985,-17.5245,-1.93359,1.34033,-156.467,244
1568024560,297.024,93.985,-17.5245,-1.93359,1.34033,-156.467,244
1568024560,297.024,93.985,-17.5245,-1.93359,1.34033,-156.467,244
1568024560,297.024,93.985,-17.5245,-1.93359,1.34033,-156.467,244
1568024560,297.024,93.985,-17.5245,-1.93359,1.34033,-156.467,244
1568024560,297.024,93.985,-17.5245,-1.93359,1.34033,-156.467,244
1568024560,297.024,93.985,-17.5245,-1.93359,1.34033,-156.467,244
1568024560,297.024,93.985,-17.5245,-1.93359,1.34033,-156.467,244
1568024560,297.024,93.985,-17.5245,-1.93359,1.34033,-156.467,244
1568024560,297.024,93.985,-17.5245,-1.93359,1.34033,-156.467,244
1568024560,297.024,93.985,-17.5245,-1.93359,1.34033,-156.467,244
1568024560,297.024,93.985,-17.5245,-1.93359,1.34033,-156.467,244
1568024560,297.024,93.985,-17.5245,-1.93359,1.34033,-156.467,244
1568024560,297.024,93.985,-17.5245,-1.93359,1.34033,-156.467,244
1568024560,297.024,93.985,-17.5245,-1.93359,1.34033,-156.467,244
1568024560,297.024,93.985,-17.5245,-1.93359,1.34033,-156.467,244
1568024560,297.024,93.985,-17.5245,-1.93359,1.3623,-156.467,244
1568024560,297.024,93.985,-17.5245,-1.93359,1.3623,-156.467,248
1568024560,297.024,93.985,-17.5245,-1.93359,1.3623,-156.467,248
1568024560,297.024,93.985,-17.5245,-1.93359,1.3623,-156.467,248
1568024560,297.024,93.985,-17.5245,-1.93359,1.3623,-156.467,248
1568024560,297.024,93.985,-17.5245,-1.93359,1.3623,-156.467,248
1568024560,297.024,93.985,-17.5245,-1.93359,1.3623,-156.467,248
1568024560,297.024,93.985,-17.5245,-1.93359,1.3623,-156.467,248
1568024560,297.024,93.985,-17.5245,-1.93359,1.3623,-156.467,248
1568024560,297.024,93.985,-17.5245,-1.93359,1.3623,-156.467,248
1568024560,297.024,93.985,-17.5245,-1.93359,1.3623,-156.467,248
1568024560,297.024,93.985,-17.5245,-1.93359,1.3623,-156.467,248
1568024560,297.024,93.985,-17.5245,-1.93359,1.3623,-156.467,252
1568024560,297.024,93.985,-17.5245,-1.93359,1.34033,-156.467,252
1568024560,297.024,93.985,-17.5245,-1.93359,1.34033,-156.467,252
1568024560,297.024,93.985,-17.5245,-1.93359,1.34033,-156.467,252
1568024560,297.024,93.985,-17.5245,-1.93359,1.34033,-156.467,252
1568024560,297.024,93.985,-17.5245,-1.93359,1.34033,-156.467,252
1568024560,297.024,93.985,-17.5245,-1.93359,1.34033,-156.467,252
1568024560,297.024,93.985,-17.5245,-1.93359,1.34033,-156.467,252
1568024560,297.024,93.985,-17.5245,-1.91162,1.34033,-156.467,252
1568024560,297.024,93.985,-17.5245,-1.91162,1.34033,-156.467,252
1568024560,297.024,93.985,-17.5245,-1.91162,1.34033,-156.467,252
1568024560,297.024,93.985,-17.5245,-1.91162,1.34033,-156.467,252
1568024560,297.024,93.985,-17.5245,-1.91162,1.34033,-156.467,252
1568024560,297.024,93.985,-17.5245,-1.91162,1.34033,-156.467,252
1568024560,297.024,93.985,-17.5245,-1.91162,1.34033,-156.467,252
1568024560,297.024,93.985,-17.5245,-1.93359,1.34033,-156.467,252
1568024560,297.024,93.985,-17.5245,-1.93359,1.34033,-156.467,252
1568024560,297.024,93.985,-17.5245,-1.93359,1.34033,-156.467,252
1568024560,297.024,93.985,-17.5245,-1.93359,1.34033,-156.467,252
1568024560,297.024,93.985,-17.5245,-1.93359,1.34033,-156.467,252
1568024560,297.024,93.985,-17.5245,-1.93359,1.34033,-156.467,252
1568024560,297.024,93.985,-17.5245,-1.93359,1.34033,-156.467,252
1568024560,297.024,93.985,-17.5245,-1.93359,1.34033,-156.467,252
1568024560,297.024,93.985,-17.5245,-1.93359,1.34033,-156.467,248
1568024560,297.024,93.985,-17.5245,-1.93359,1.34033,-156.467,248
1568024560,297.024,93.985,-17.5245,-1.93359,1.34033,-156.467,248
1568024560,297.024,93.985,-17.5245,-1.93359,1.34033,-156.467,248
1568024560,297.024,93.985,-17.5245,-1.93359,1.34033,-156.467,248
1568024560,297.024,93.985,-17.5245,-1.91162,1.34033,-156.467,248
1568024560,297.024,93.985,-17.5245,-1.91162,1.34033,-156.467,248
1568024560,297.024,93.985,-17.5245,-1.91162,1.34033,-156.467,248
1568024560,297.024,93.985,-17.5245,-1.91162,1.34033,-156.467,244
1568024560,297.024,93.985,-17.5245,-1.91162,1.34033,-156.467,244
1568024560,297.024,93.985,-17.5245,-1.91162,1.34033,-156.467,244
1568024560,297.024,93.985,-17.5245,-1.91162,1.34033,-156.467,244
1568024560,297.024,93.985,-17.5245,-1.91162,1.34033,-156.467,244
1568024560,297.024,93.985,-17.5245,-1.91162,1.34033,-156.467,244
1568024560,297.024,93.985,-17.5245,-1.91162,1.34033,-156.467,244
1568024560,297.024,93.985,-17.5245,-1.91162,1.34033,-156.467,244
1568024560,297.024,93.985,-17.5245,-1.91162,1.34033,-156.467,244
1568024560,297.024,93.985,-17.5245,-1.91162,1.34033,-156.467,248
1568024560,297.024,93.985,-17.5245,-1.91162,1.34033,-156.467,248
1568024560,297.024,93.985,-17.5245,-1.91162,1.34033,-156.467,248
1568024560,297.024,93.985,-17.5245,-1.91162,1.34033,-156.467,248
1568024560,297.024,93.985,-17.5245,-1.91162,1.34033,-156.467,248
1568024560,297.024,93.985,-17.5245,-1.91162,1.34033,-156.467,248
1568024560,297.024,93.985,-17.5245,-1.93359,1.34033,-156.489,248
1568024560,297.024,93.985,-17.5245,-1.93359,1.34033,-156.489,248
1568024560,297.024,93.985,-17.5245,-1.93359,1.34033,-156.489,244
1568024560,297.024,93.985,-17.5245,-1.93359,1.34033,-156.489,244
1568024560,297.024,93.985,-17.5245,-1.93359,1.34033,-156.489,244
1568024560,297.024,93.985,-17.5245,-1.93359,1.34033,-156.489,244
1568024560,297.024,93.985,-17.5245,-1.93359,1.34033,-156.489,244
1568024560,297.024,93.985,-17.5245,-1.93359,1.34033,-156.489,244
1568024560,297.024,93.985,-17.5245,-1.93359,1.34033,-156.489,244
1568024560,297.024,93.985,-17.5245,-1.93359,1.34033,-156.489,244
1568024560,297.024,93.985,-17.5245,-1.93359,1.34033,-156.489,244
1568024560,297.024,93.985,-17.5245,-1.93359,1.34033,-156.489,244
1568024560,297.024,93.985,-17.5245,-1.93359,1.34033,-156.489,244
1568024560,297.024,93.985,-17.5245,-1.93359,1.34033,-156.489,244
1568024560,297.024,93.985,-17.5245,-1.93359,1.34033,-156.489,244
1568024560,297.024,93.985,-17.5245,-1.93359,1.34033,-156.489,244
1568024560,297.024,93.985,-17.5245,-1.93359,1.34033,-156.489,244
1568024560,297.024,93.985,-17.5245,-1.93359,1.34033,-156.489,244
1568024560,297.024,93.985,-17.5245,-1.93359,1.34033,-156.489,244
1568024560,297.024,93.985,-17.5245,-1.93359,1.34033,-156.489,244
1568024560,297.024,93.985,-17.5245,-1.93359,1.34033,-156.489,244
1568024560,297.024,93.985,-17.5245,-1.93359,1.34033,-156.489,244
1568024560,297.024,93.985,-17.5245,-1.93359,1.34033,-156.489,244
1568024560,297.024,93.985,-17.5245,-1.93359,1.34033,-156.489,244
1568024560,297.024,93.985,-17.5245,-1.93359,1.34033,-156.489,240
1568024560,297.024,93.985,-17.5245,-1.93359,1.34033,-156.489,240
1568024561,297.024,93.985,-17.5245,-1.93359,1.34033,-156.489,240
1568024561,297.024,93.985,-17.5245,-1.93359,1.34033,-156.489,240
1568024561,297.024,93.985,-17.5245,-1.93359,1.34033,-156.489,240
1568024561,296.912,93.985,-17.5245,-1.93359,1.34033,-156.489,240
1568024561,296.912,93.985,-17.5245,-1.93359,1.34033,-156.489,240
1568024561,296.912,93.985,-17.5245,-1.93359,1.34033,-156.489,240
1568024561,296.912,93.985,-17.5245,-1.93359,1.34033,-156.489,240
1568024561,296.912,93.985,-17.5245,-1.93359,1.34033,-156.489,240
1568024561,296.912,93.985,-17.5245,-1.93359,1.34033,-156.489,240
1568024561,296.912,93.985,-17.5245,-1.93359,1.34033,-156.489,240
1568024561,296.912,93.985,-17.5245,-1.93359,1.34033,-156.489,240
1568024561,296.912,93.985,-17.5245,-1.93359,1.34033,-156.489,240
1568024561,296.912,93.985,-17.5245,-1.93359,1.34033,-156.489,240
1568024561,296.912,93.985,-17.5245,-1.93359,1.34033,-156.489,240
1568024561,297.024,93.985,-17.5245,-1.93359,1.34033,-156.489,240
1568024561,297.024,93.985,-17.5245,-1.93359,1.34033,-156.489,240
1568024561,297.024,93.985,-17.5245,-1.93359,1.34033,-156.489,240
1568024561,297.024,93.985,-17.5245,-1.93359,1.34033,-156.489,240
1568024561,297.024,93.985,-17.5245,-1.93359,1.34033,-156.489,240
1568024561,297.024,93.985,-17.5245,-1.93359,1.34033,-156.489,240
1568024561,297.024,93.985,-17.5245,-1.93359,1.34033,-156.489,240
1568024561,296.912,93.985,-17.5245,-1.93359,1.34033,-156.489,240
1568024561,296.912,93.985,-17.5245,-1.93359,1.34033,-156.489,240
1568024561,296.912,93.985,-17.5245,-1.93359,1.34033,-156.489,240
1568024561,296.912,93.985,-17.5245,-1.93359,1.34033,-156.489,240
1568024561,296.912,93.985,-17.5245,-1.91162,1.34033,-156.489,240
1568024561,296.912,93.985,-17.5245,-1.91162,1.34033,-156.489,240
1568024561,296.912,93.985,-17.5245,-1.91162,1.34033,-156.489,240
1568024561,296.912,93.985,-17.5245,-1.91162,1.34033,-156.489,240
1568024561,296.912,93.985,-17.5245,-1.91162,1.34033,-156.489,240
1568024561,296.912,93.985,-17.5245,-1.91162,1.34033,-156.489,240
1568024561,296.912,93.985,-17.5245,-1.91162,1.34033,-156.489,240
1568024561,296.912,93.985,-17.5245,-1.91162,1.34033,-156.489,240
1568024561,296.912,93.985,-17.5245,-1.91162,1.34033,-156.467,240
1568024561,296.912,93.985,-17.5245,-1.91162,1.34033,-156.467,240
1568024561,296.912,93.985,-17.5245,-1.91162,1.34033,-156.467,240
1568024561,296.912,93.985,-17.5245,-1.91162,1.34033,-156.467,240
1568024561,296.912,93.985,-17.5245,-1.91162,1.34033,-156.467,240
1568024561,296.912,93.985,-17.5245,-1.93359,1.34033,-156.467,240
1568024561,296.912,93.985,-17.5245,-1.93359,1.34033,-156.467,240
1568024561,296.912,93.985,-17.5245,-1.93359,1.34033,-156.467,240
1568024561,296.912,93.985,-17.5245,-1.93359,1.34033,-156.467,240
1568024561,296.912,93.985,-17.5245,-1.93359,1.31836,-156.467,240
1568024561,296.912,93.985,-17.5245,-1.93359,1.31836,-156.467,240
1568024561,296.912,93.985,-17.5245,-1.93359,1.31836,-156.467,240
1568024561,296.912,93.985,-17.5245,-1.93359,1.31836,-156.467,240
1568024561,296.912,93.985,-17.5245,-1.93359,1.34033,-156.467,240
1568024561,296.912,93.985,-17.5245,-1.91162,1.34033,-156.467,240
1568024561,296.912,93.985,-17.5245,-1.91162,1.34033,-156.467,240
1568024561,296.912,93.985,-17.5245,-1.91162,1.34033,-156.467,240
1568024561,296.912,93.985,-17.5245,-1.91162,1.34033,-156.467,240
1568024561,297.024,93.985,-17.5245,-1.91162,1.34033,-156.467,240
1568024561,297.024,93.985,-17.5245,-1.91162,1.34033,-156.467,240
1568024561,297.024,93.985,-17.5245,-1.91162,1.34033,-156.467,240
1568024561,297.024,93.985,-17.5245,-1.91162,1.34033,-156.467,240
1568024561,297.024,93.985,-17.5245,-1.91162,1.34033,-156.467,240
1568024561,297.024,93.985,-17.5245,-1.91162,1.34033,-156.467,240
1568024561,297.024,93.985,-17.5245,-1.91162,1.34033,-156.467,240
1568024561,297.024,93.985,-17.5245,-1.91162,1.34033,-156.467,240
1568024561,297.024,93.985,-17.5245,-1.91162,1.34033,-156.467,240
1568024561,297.024,93.985,-17.5245,-1.91162,1.34033,-156.467,240
1568024561,297.024,93.985,-17.5245,-1.91162,1.34033,-156.467,240
1568024561,297.024,93.985,-17.5245,-1.91162,1.34033,-156.467,240
1568024561,297.024,93.985,-17.5245,-1.91162,1.34033,-156.467,240
1568024561,297.024,93.985,-17.5245,-1.91162,1.34033,-156.467,240
1568024561,297.024,93.985,-17.5245,-1.91162,1.3623,-156.467,240
1568024561,297.024,93.985,-17.5245,-1.91162,1.3623,-156.467,240
1568024561,297.024,93.985,-17.5245,-1.91162,1.3623,-156.467,240
1568024561,297.024,93.985,-17.5245,-1.91162,1.3623,-156.467,240
1568024561,297.024,93.985,-17.5245,-1.93359,1.3623,-156.467,240
1568024561,297.024,93.985,-17.5245,-1.93359,1.3623,-156.467,240
1568024561,297.024,93.985,-17.5245,-1.93359,1.3623,-156.467,240
1568024561,297.024,93.985,-17.5245,-1.93359,1.3623,-156.467,240
1568024561,297.024,93.985,-17.5245,-1.93359,1.34033,-156.467,240
1568024561,297.024,93.985,-17.5245,-1.93359,1.34033,-156.467,240
1568024561,297.024,93.985,-17.5245,-1.93359,1.34033,-156.467,240
1568024561,297.024,93.985,-17.5245,-1.93359,1.34033,-156.467,240
1568024561,297.024,93.985,-17.5245,-1.93359,1.34033,-156.467,240
1568024561,297.024,93.985,-17.5245,-1.93359,1.34033,-156.467,240
1568024561,297.024,93.985,-17.5245,-1.93359,1.34033,-156.467,240
1568024561,297.024,93.985,-17.5245,-1.93359,1.34033,-156.467,240
1568024561,297.024,93.985,-17.5245,-1.93359,1.34033,-156.467,240
1568024561,297.024,93.985,-17.5245,-1.93359,1.34033,-156.467,240
1568024561,297.024,93.985,-17.5245,-1.93359,1.34033,-156.467,240
1568024561,297.024,93.985,-17.5245,-1.93359,1.34033,-156.467,244
1568024561,297.024,93.985,-17.5245,-1.93359,1.34033,-156.467,244
1568024561,297.024,93.985,-17.5245,-1.93359,1.34033,-156.467,244
1568024561,297.024,93.985,-17.5245,-1.93359,1.34033,-156.467,244
1568024561,297.024,93.985,-17.5245,-1.93359,1.34033,-156.467,244
1568024561,297.024,93.985,-17.5245,-1.91162,1.34033,-156.467,244
1568024561,297.024,93.985,-17.5245,-1.91162,1.34033,-156.467,244
1568024561,296.912,93.985,-17.5245,-1.91162,1.34033,-156.467,244
1568024561,296.912,93.985,-17.5245,-1.91162,1.34033,-156.467,244
1568024561,296.912,93.985,-17.5245,-1.91162,1.34033,-156.467,244
1568024561,296.912,93.985,-17.5245,-1.91162,1.34033,-156.467,240
1568024561,297.024,93.985,-17.5245,-1.91162,1.34033,-156.467,240
1568024561,297.024,93.985,-17.5245,-1.91162,1.34033,-156.467,240
1568024561,297.024,93.985,-17.5245,-1.91162,1.34033,-156.467,240
1568024561,297.024,93.985,-17.5245,-1.91162,1.34033,-156.467,240
1568024561,297.024,93.985,-17.5245,-1.91162,1.34033,-156.467,240
1568024562,297.024,93.985,-17.5245,-1.91162,1.34033,-156.467,240
1568024562,297.024,93.985,-17.5245,-1.91162,1.34033,-156.467,240
1568024562,297.024,93.985,-17.5245,-1.91162,1.34033,-156.467,240
1568024562,297.024,93.985,-17.5245,-1.91162,1.34033,-156.467,240
1568024562,297.024,93.985,-17.5245,-1.91162,1.34033,-156.467,240
1568024562,297.024,93.985,-17.5245,-1.91162,1.34033,-156.467,240
1568024562,297.024,93.985,-17.5245,-1.91162,1.34033,-156.467,240
1568024562,297.024,93.985,-17.5245,-1.91162,1.34033,-156.467,240
1568024562,297.024,93.985,-17.5245,-1.91162,1.34033,-156.467,240
1568024562,297.024,93.985,-17.5245,-1.91162,1.34033,-156.467,244
1568024562,297.024,93.985,-17.5245,-1.91162,1.34033,-156.467,244
1568024562,297.024,93.985,-17.5245,-1.91162,1.34033,-156.467,244
1568024562,297.024,93.985,-17.5245,-1.91162,1.34033,-156.467,244
1568024562,297.024,93.985,-17.5245,-1.91162,1.34033,-156.467,244
1568024562,297.024,93.985,-17.5245,-1.91162,1.34033,-156.467,244
1568024562,297.024,93.985,-17.5245,-1.91162,1.34033,-156.489,244
1568024562,297.024,93.985,-17.5245,-1.91162,1.34033,-156.489,244
1568024562,297.024,93.985,-17.5245,-1.91162,1.34033,-156.489,244
1568024562,297.024,93.985,-17.5245,-1.91162,1.34033,-156.489,244
1568024562,297.024,93.985,-17.5245,-1.91162,1.34033,-156.489,244
1568024562,297.024,93.985,-17.5245,-1.91162,1.3623,-156.489,244
1568024562,297.024,93.985,-17.5245,-1.91162,1.3623,-156.489,244
1568024562,297.024,93.985,-17.5245,-1.91162,1.3623,-156.489,240
1568024562,297.024,93.985,-17.5245,-1.91162,1.3623,-156.489,240
1568024562,297.024,93.985,-17.5245,-1.91162,1.3623,-156.489,240
1568024562,297.024,93.985,-17.5245,-1.91162,1.3623,-156.489,240
1568024562,297.024,93.985,-17.5245,-1.91162,1.3623,-156.489,240
1568024562,297.024,93.985,-17.5245,-1.91162,1.3623,-156.467,240
1568024562,297.024,93.985,-17.5245,-1.91162,1.3623,-156.467,240
1568024562,297.024,93.985,-17.5245,-1.91162,1.3623,-156.467,240
1568024562,297.024,93.985,-17.6361,-1.91162,1.3623,-156.467,240
1568024562,297.024,93.985,-17.6361,-1.91162,1.3623,-156.467,240
1568024562,297.024,93.985,-17.6361,-1.91162,1.3623,-156.467,240
1568024562,297.024,93.985,-17.6361,-1.91162,1.3623,-156.467,240
1568024562,297.024,93.985,-17.6361,-1.91162,1.3623,-156.467,240
1568024562,297.024,93.985,-17.6361,-1.91162,1.3623,-156.467,240
1568024562,297.024,93.985,-17.6361,-1.91162,1.3623,-156.467,240
1568024562,297.024,93.985,-17.6361,-1.93359,1.3623,-156.467,240
1568024562,297.024,93.985,-17.6361,-1.93359,1.3623,-156.467,240
1568024562,297.024,93.985,-17.6361,-1.93359,1.3623,-156.467,240
1568024562,297.024,93.985,-17.6361,-1.93359,1.3623,-156.467,240
1568024562,297.024,93.985,-17.6361,-1.93359,1.3623,-156.467,240
1568024562,297.024,93.985,-17.6361,-1.93359,1.3623,-156.467,240
1568024562,297.024,93.985,-17.5245,-1.93359,1.3623,-156.467,240
1568024562,297.024,93.985,-17.5245,-1.93359,1.3623,-156.467,240
1568024562,297.024,93.985,-17.5245,-1.93359,1.3623,-156.467,240
1568024562,297.024,93.985,-17.5245,-1.93359,1.3623,-156.467,240
1568024562,297.024,93.985,-17.5245,-1.93359,1.3623,-156.467,240
1568024562,297.024,93.985,-17.5245,-1.93359,1.34033,-156.467,240
1568024562,297.024,93.985,-17.5245,-1.93359,1.34033,-156.467,240
1568024562,297.024,93.985,-17.5245,-1.93359,1.34033,-156.489,240
1568024562,297.024,93.985,-17.5245,-1.93359,1.34033,-156.489,240
1568024562,297.024,93.985,-17.5245,-1.93359,1.34033,-156.489,240
1568024562,297.024,93.985,-17.5245,-1.93359,1.34033,-156.489,240
1568024562,297.024,93.985,-17.5245,-1.93359,1.34033,-156.489,240
1568024562,297.024,93.985,-17.5245,-1.93359,1.34033,-156.489,240
1568024562,297.024,93.985,-17.5245,-1.93359,1.34033,-156.489,244
1568024562,297.024,93.985,-17.5245,-1.93359,1.34033,-156.489,244
1568024562,297.024,93.985,-17.5245,-1.93359,1.34033,-156.489,244
1568024562,297.024,93.985,-17.5245,-1.93359,1.34033,-156.489,244
1568024562,297.024,93.985,-17.5245,-1.93359,1.34033,-156.467,244
1568024562,297.024,93.8733,-17.5245,-1.95557,1.34033,-156.467,244
1568024562,297.024,93.8733,-17.5245,-1.95557,1.34033,-156.467,244
1568024562,297.024,93.8733,-17.5245,-1.93359,1.34033,-156.467,248
1568024562,297.024,93.8733,-17.5245,-1.93359,1.34033,-156.467,248
1568024562,297.024,93.8733,-17.5245,-1.93359,1.34033,-156.467,248
1568024562,297.024,93.8733,-17.5245,-1.93359,1.34033,-156.467,248
1568024562,297.024,93.985,-17.5245,-1.93359,1.34033,-156.467,248
1568024562,297.024,93.985,-17.5245,-1.93359,1.34033,-156.467,248
1568024562,297.024,93.985,-17.5245,-1.93359,1.34033,-156.467,248
1568024562,297.024,93.985,-17.5245,-1.93359,1.34033,-156.467,248
1568024562,297.024,93.985,-17.5245,-1.93359,1.34033,-156.467,248
1568024562,297.024,93.985,-17.5245,-1.93359,1.34033,-156.467,248
1568024562,297.024,93.985,-17.5245,-1.93359,1.34033,-156.467,248
1568024562,297.024,93.985,-17.5245,-1.93359,1.34033,-156.467,248
1568024562,297.024,93.985,-17.5245,-1.93359,1.34033,-156.467,248
1568024562,297.024,93.985,-17.5245,-1.93359,1.34033,-156.467,248
1568024562,297.024,93.985,-17.5245,-1.93359,1.34033,-156.467,248
1568024562,297.024,93.985,-17.5245,-1.93359,1.34033,-156.467,248
1568024570,273.918,118.318,-17.4129,-2.13135,1.42822,-156.489,220
1568024570,273.918,118.318,-17.4129,-2.13135,1.42822,-156.489,220
1568024570,273.918,118.318,-17.4129,-2.13135,1.42822,-156.489,220
1568024570,273.918,118.318,-17.4129,-2.13135,1.42822,-156.489,220
1568024570,273.918,118.318,-17.4129,-2.13135,1.42822,-156.489,220
1568024570,273.918,118.318,-17.4129,-2.13135,1.42822,-156.489,220
1568024570,273.918,118.318,-17.4129,-2.13135,1.42822,-156.489,220
1568024570,273.918,118.318,-17.4129,-2.13135,1.42822,-156.489,220
1568024570,273.918,118.318,-17.4129,-2.13135,1.42822,-156.489,220
1568024570,273.807,118.318,-17.4129,-2.13135,1.42822,-156.489,220
1568024570,273.807,118.318,-17.4129,-2.13135,1.42822,-156.489,220
1568024570,273.807,118.318,-17.4129,-2.13135,1.42822,-156.489,220
1568024570,273.807,118.318,-17.4129,-2.13135,1.42822,-156.489,220
1568024570,273.807,118.318,-17.4129,-2.13135,1.42822,-156.489,220
1568024570,273.807,118.318,-17.4129,-2.13135,1.42822,-156.489,220
1568024570,273.807,118.318,-17.4129,-2.10938,1.42822,-156.489,220
1568024570,273.807,118.318,-17.4129,-2.10938,1.42822,-156.489,220
1568024570,273.807,118.318,-17.4129,-2.10938,1.42822,-156.489,216
1568024570,273.807,118.318,-17.4129,-2.10938,1.42822,-156.489,216
1568024570,273.807,118.318,-17.4129,-2.10938,1.42822,-156.489,216
1568024570,273.807,118.318,-17.4129,-2.10938,1.42822,-156.489,216
1568024570,273.807,118.318,-17.4129,-2.10938,1.42822,-156.489,216
1568024570,273.807,118.318,-17.4129,-2.10938,1.42822,-156.489,216
1568024570,273.807,118.318,-17.4129,-2.10938,1.42822,-156.489,220
1568024570,273.807,118.318,-17.4129,-2.10938,1.42822,-156.489,220
1568024570,273.807,118.318,-17.4129,-2.10938,1.42822,-156.489,220
1568024570,273.807,118.318,-17.4129,-2.10938,1.42822,-156.489,220
1568024570,273.807,118.318,-17.4129,-2.10938,1.42822,-156.489,220
1568024570,273.807,118.318,-17.4129,-2.10938,1.42822,-156.489,220
1568024570,273.807,118.318,-17.4129,-2.10938,1.42822,-156.489,220
1568024570,273.807,118.318,-17.4129,-2.10938,1.42822,-156.489,220
1568024570,273.807,118.318,-17.4129,-2.10938,1.42822,-156.489,220
1568024570,273.807,118.318,-17.4129,-2.10938,1.42822,-156.489,220
1568024570,273.807,118.318,-17.4129,-2.10938,1.42822,-156.489,220
1568024570,273.807,118.318,-17.4129,-2.13135,1.42822,-156.489,220
1568024570,273.807,118.318,-17.4129,-2.13135,1.42822,-156.489,220
1568024570,273.807,118.318,-17.4129,-2.13135,1.42822,-156.489,224
1568024570,273.807,118.318,-17.4129,-2.13135,1.42822,-156.489,224
1568024570,273.807,118.318,-17.4129,-2.13135,1.42822,-156.489,224
1568024570,273.807,118.207,-17.4129,-2.13135,1.42822,-156.489,224
1568024570,273.807,118.207,-17.4129,-2.13135,1.42822,-156.489,224
1568024570,273.807,118.207,-17.4129,-2.13135,1.42822,-156.489,224
1568024570,273.807,118.207,-17.4129,-2.13135,1.42822,-156.489,224
1568024570,273.807,118.207,-17.4129,-2.13135,1.42822,-156.489,228
1568024570,273.807,118.207,-17.4129,-2.13135,1.42822,-156.489,228
1568024570,273.807,118.207,-17.4129,-2.13135,1.42822,-156.489,228
1568024570,273.807,118.207,-17.4129,-2.13135,1.42822,-156.489,228
1568024570,273.807,118.207,-17.4129,-2.13135,1.42822,-156.489,228
1568024570,273.807,118.207,-17.4129,-2.13135,1.42822,-156.489,228
1568024570,273.807,118.207,-17.4129,-2.13135,1.42822,-156.489,228
1568024570,273.807,118.207,-17.4129,-2.13135,1.42822,-156.489,228
1568024570,273.807,118.207,-17.4129,-2.13135,1.42822,-156.489,228
1568024570,273.807,118.207,-17.4129,-2.13135,1.42822,-156.489,228
1568024570,273.807,118.207,-17.4129,-2.13135,1.42822,-156.489,232
1568024570,273.807,118.207,-17.4129,-2.13135,1.42822,-156.489,232
1568024570,273.807,118.207,-17.4129,-2.13135,1.42822,-156.489,232
1568024570,273.807,118.207,-17.4129,-2.13135,1.42822,-156.489,232
1568024570,273.807,118.207,-17.4129,-2.13135,1.42822,-156.489,228
1568024570,273.807,118.207,-17.4129,-2.13135,1.42822,-156.489,228
1568024570,273.807,118.207,-17.4129,-2.13135,1.42822,-156.489,228
1568024570,273.807,118.207,-17.4129,-2.13135,1.42822,-156.489,228
1568024570,273.807,118.207,-17.4129,-2.13135,1.42822,-156.489,228
1568024570,273.807,118.207,-17.4129,-2.13135,1.42822,-156.489,228
1568024570,273.807,118.207,-17.4129,-2.13135,1.42822,-156.489,228
1568024570,273.807,118.207,-17.4129,-2.13135,1.42822,-156.489,228
1568024570,273.807,118.207,-17.4129,-2.13135,1.42822,-156.489,228
1568024570,273.807,118.207,-17.4129,-2.13135,1.42822,-156.489,228
1568024570,273.807,118.318,-17.4129,-2.13135,1.42822,-156.489,228
1568024570,273.807,118.318,-17.4129,-2.13135,1.42822,-156.489,228
1568024570,273.807,118.318,-17.4129,-2.10938,1.42822,-156.489,228
1568024570,273.807,118.318,-17.4129,-2.10938,1.42822,-156.489,228
1568024570,273.807,118.318,-17.4129,-2.10938,1.42822,-156.489,228
1568024570,273.807,118.318,-17.4129,-2.10938,1.42822,-156.489,228
1568024570,273.807,118.318,-17.4129,-2.10938,1.42822,-156.489,228
1568024570,273.807,118.318,-17.4129,-2.10938,1.42822,-156.489,228
1568024570,273.807,118.318,-17.4129,-2.10938,1.42822,-156.489,228
1568024570,273.807,118.318,-17.4129,-2.10938,1.42822,-156.489,228
1568024570,273.807,118.318,-17.4129,-2.10938,1.42822,-156.489,228
1568024570,273.807,118.318,-17.4129,-2.10938,1.42822,-156.489,228
1568024570,273.807,118.318,-17.4129,-2.10938,1.42822,-156.489,232
1568024570,273.807,118.318,-17.4129,-2.10938,1.42822,-156.489,232
1568024570,273.807,118.318,-17.4129,-2.10938,1.42822,-156.489,232
1568024570,273.807,118.318,-17.4129,-2.10938,1.42822,-156.489,232
1568024571,273.807,118.318,-17.4129,-2.10938,1.42822,-156.489,232
1568024571,273.807,118.318,-17.4129,-2.10938,1.42822,-156.489,232
1568024571,273.807,118.318,-17.4129,-2.10938,1.42822,-156.489,228
1568024571,273.807,118.318,-17.4129,-2.10938,1.42822,-156.489,228
1568024571,273.807,118.318,-17.4129,-2.10938,1.42822,-156.489,228
1568024571,273.807,118.318,-17.4129,-2.10938,1.42822,-156.489,228
1568024571,273.807,118.318,-17.4129,-2.10938,1.42822,-156.489,228
1568024571,273.807,118.318,-17.4129,-2.10938,1.42822,-156.489,228
1568024571,273.807,118.318,-17.4129,-2.10938,1.42822,-156.489,228
1568024571,273.807,118.318,-17.4129,-2.10938,1.42822,-156.489,228
1568024571,273.807,118.318,-17.4129,-2.10938,1.42822,-156.489,228
1568024571,273.807,118.318,-17.4129,-2.10938,1.42822,-156.489,228
1568024571,273.807,118.318,-17.4129,-2.10938,1.42822,-156.489,228
1568024571,273.807,118.207,-17.4129,-2.13135,1.42822,-156.489,228
1568024571,273.807,118.207,-17.4129,-2.13135,1.42822,-156.489,228
1568024571,273.807,118.207,-17.4129,-2.13135,1.42822,-156.489,228
1568024571,273.807,118.207,-17.4129,-2.13135,1.4502,-156.489,228
1568024571,273.807,118.207,-17.4129,-2.13135,1.4502,-156.489,228
1568024571,273.807,118.207,-17.4129,-2.13135,1.4502,-156.489,228
1568024571,273.807,118.207,-17.4129,-2.13135,1.4502,-156.489,228
1568024571,273.807,118.207,-17.4129,-2.13135,1.4502,-156.489,228
1568024571,273.807,118.207,-17.4129,-2.13135,1.42822,-156.489,228
1568024571,273.807,118.207,-17.4129,-2.13135,1.42822,-156.489,228
1568024571,273.807,118.207,-17.4129,-2.13135,1.42822,-156.489,228
1568024571,273.807,118.207,-17.4129,-2.13135,1.42822,-156.489,228
1568024571,273.807,118.318,-17.4129,-2.13135,1.42822,-156.489,228
1568024571,273.807,118.318,-17.4129,-2.13135,1.42822,-156.489,228
1568024571,273.807,118.318,-17.4129,-2.13135,1.4502,-156.489,228
1568024571,273.807,118.318,-17.4129,-2.13135,1.4502,-156.489,228
1568024571,273.807,118.318,-17.4129,-2.13135,1.4502,-156.489,228
1568024571,273.807,118.318,-17.4129,-2.13135,1.4502,-156.489,228
1568024571,273.807,118.318,-17.4129,-2.13135,1.4502,-156.489,228
1568024571,273.807,118.318,-17.4129,-2.13135,1.4502,-156.489,228
1568024571,273.807,118.318,-17.4129,-2.13135,1.4502,-156.489,228
1568024571,273.807,118.318,-17.4129,-2.13135,1.4502,-156.489,228
1568024571,273.807,118.318,-17.4129,-2.13135,1.4502,-156.489,228
1568024571,273.807,118.318,-17.4129,-2.13135,1.4502,-156.511,228
1568024571,273.807,118.318,-17.4129,-2.13135,1.4502,-156.511,228
1568024571,273.807,118.318,-17.4129,-2.13135,1.4502,-156.489,228
1568024571,273.807,118.318,-17.4129,-2.13135,1.4502,-156.489,228
1568024571,273.807,118.318,-17.4129,-2.13135,1.4502,-156.489,232
1568024571,273.807,118.318,-17.4129,-2.13135,1.4502,-156.489,232
1568024571,273.807,118.318,-17.4129,-2.13135,1.4502,-156.489,232
1568024571,273.807,118.318,-17.4129,-2.13135,1.4502,-156.489,232
1568024571,273.807,118.318,-17.4129,-2.13135,1.4502,-156.489,232
1568024571,273.807,118.318,-17.4129,-2.13135,1.42822,-156.489,232
1568024571,273.807,118.318,-17.4129,-2.13135,1.42822,-156.489,232
1568024571,273.807,118.318,-17.4129,-2.13135,1.42822,-156.489,232
1568024571,273.807,118.318,-17.4129,-2.13135,1.42822,-156.489,232
1568024571,273.807,118.318,-17.4129,-2.13135,1.42822,-156.489,228
1568024571,273.807,118.318,-17.4129,-2.13135,1.42822,-156.489,228
1568024571,273.807,118.318,-17.4129,-2.13135,1.42822,-156.489,228
1568024571,273.807,118.318,-17.4129,-2.13135,1.42822,-156.489,228
1568024571,273.807,118.318,-17.4129,-2.13135,1.42822,-156.489,228
1568024571,273.807,118.318,-17.4129,-2.13135,1.42822,-156.489,228
1568024571,273.807,118.318,-17.4129,-2.13135,1.42822,-156.489,228
1568024571,273.807,118.318,-17.4129,-2.13135,1.42822,-156.489,228
1568024571,273.807,118.318,-17.4129,-2.13135,1.42822,-156.489,228
1568024571,273.807,118.207,-17.4129,-2.13135,1.42822,-156.489,224
1568024571,273.807,118.207,-17.4129,-2.13135,1.42822,-156.489,224
1568024571,273.807,118.207,-17.4129,-2.13135,1.42822,-156.489,224
1568024571,273.807,118.207,-17.4129,-2.13135,1.42822,-156.489,224
1568024571,273.807,118.207,-17.4129,-2.13135,1.42822,-156.489,224
1568024571,273.807,118.207,-17.4129,-2.13135,1.42822,-156.489,224
1568024571,273.807,118.207,-17.4129,-2.13135,1.42822,-156.489,224
1568024571,273.807,118.207,-17.4129,-2.13135,1.42822,-156.489,224
1568024571,273.807,118.207,-17.4129,-2.13135,1.42822,-156.489,224
1568024571,273.807,118.207,-17.4129,-2.13135,1.42822,-156.489,224
1568024571,273.807,118.207,-17.4129,-2.13135,1.42822,-156.489,224
1568024571,273.807,118.207,-17.4129,-2.13135,1.42822,-156.489,224
1568024571,273.807,118.207,-17.4129,-2.13135,1.42822,-156.489,224
1568024571,273.807,118.207,-17.4129,-2.13135,1.42822,-156.489,224
1568024571,273.807,118.207,-17.4129,-2.13135,1.42822,-156.489,224
1568024571,273.807,118.207,-17.4129,-2.13135,1.42822,-156.489,224
1568024571,273.807,118.207,-17.4129,-2.13135,1.42822,-156.489,224
1568024571,273.807,118.207,-17.4129,-2.13135,1.42822,-156.489,224
1568024571,273.807,118.207,-17.4129,-2.13135,1.42822,-156.489,224
1568024571,273.807,118.207,-17.4129,-2.13135,1.42822,-156.489,224
1568024571,273.807,118.207,-17.4129,-2.13135,1.42822,-156.489,224
1568024571,273.807,118.207,-17.4129,-2.13135,1.42822,-156.489,224
1568024571,273.807,118.207,-17.4129,-2.13135,1.42822,-156.489,224
1568024571,273.807,118.207,-17.4129,-2.13135,1.42822,-156.489,224
1568024571,273.807,118.207,-17.4129,-2.13135,1.42822,-156.489,224
1568024571,273.807,118.207,-17.4129,-2.13135,1.42822,-156.489,224
1568024571,273.807,118.207,-17.4129,-2.13135,1.42822,-156.489,220
1568024571,273.807,118.207,-17.4129,-2.13135,1.42822,-156.489,220
1568024571,273.807,118.207,-17.4129,-2.13135,1.42822,-156.489,220
1568024571,273.807,118.207,-17.4129,-2.13135,1.42822,-156.489,220
1568024571,273.807,118.207,-17.4129,-2.13135,1.42822,-156.489,220
1568024571,273.807,118.207,-17.4129,-2.13135,1.42822,-156.489,220
1568024571,273.807,118.207,-17.4129,-2.13135,1.42822,-156.489,220
1568024571,273.807,118.207,-17.4129,-2.13135,1.42822,-156.489,220
1568024571,273.807,118.207,-17.4129,-2.13135,1.42822,-156.489,220
1568024571,273.807,118.207,-17.4129,-2.13135,1.42822,-156.489,220
1568024571,273.807,118.207,-17.4129,-2.13135,1.42822,-156.489,220
1568024571,273.807,118.207,-17.4129,-2.13135,1.42822,-156.489,220
1568024571,273.807,118.207,-17.4129,-2.13135,1.4502,-156.489,220
1568024571,273.807,118.207,-17.4129,-2.13135,1.4502,-156.489,220
1568024571,273.807,118.207,-17.4129,-2.13135,1.4502,-156.489,220
1568024571,273.807,118.207,-17.4129,-2.13135,1.4502,-156.489,220
1568024572,273.807,118.207,-17.4129,-2.13135,1.4502,-156.489,220
1568024572,273.807,118.207,-17.4129,-2.13135,1.4502,-156.489,220
1568024572,273.807,118.207,-17.4129,-2.13135,1.4502,-156.489,220
1568024572,273.807,118.207,-17.4129,-2.13135,1.4502,-156.489,220
1568024572,273.807,118.207,-17.4129,-2.13135,1.4502,-156.489,220
1568024572,273.807,118.207,-17.4129,-2.13135,1.4502,-156.489,220
1568024572,273.807,118.207,-17.4129,-2.13135,1.4502,-156.489,220
1568024572,273.807,118.207,-17.4129,-2.13135,1.4502,-156.489,220
1568024572,273.807,118.207,-17.4129,-2.13135,1.42822,-156.489,220
1568024572,273.807,118.207,-17.4129,-2.13135,1.42822,-156.489,220
1568024572,273.807,118.207,-17.4129,-2.13135,1.42822,-156.489,220
1568024572,273.807,118.207,-17.4129,-2.13135,1.42822,-156.489,220
1568024572,273.807,118.207,-17.4129,-2.13135,1.42822,-156.489,220
1568024572,273.807,118.318,-17.4129,-2.13135,1.42822,-156.489,220
1568024572,273.807,118.318,-17.4129,-2.13135,1.42822,-156.489,220
1568024572,273.807,118.318,-17.4129,-2.13135,1.42822,-156.489,220
1568024572,273.807,118.318,-17.4129,-2.13135,1.42822,-156.489,220
1568024572,273.807,118.318,-17.4129,-2.13135,1.42822,-156.489,220
1568024572,273.807,118.318,-17.4129,-2.13135,1.42822,-156.489,220
1568024572,273.807,118.318,-17.4129,-2.13135,1.42822,-156.489,220
1568024572,273.807,118.318,-17.4129,-2.13135,1.42822,-156.489,220
1568024572,273.807,118.318,-17.4129,-2.13135,1.42822,-156.489,220
1568024572,273.807,118.318,-17.4129,-2.13135,1.42822,-156.489,220
1568024572,273.807,118.318,-17.4129,-2.13135,1.42822,-156.489,220
1568024572,273.807,118.318,-17.4129,-2.13135,1.42822,-156.489,220
1568024572,273.807,118.318,-17.4129,-2.13135,1.42822,-156.489,220
1568024572,273.807,118.318,-17.4129,-2.13135,1.42822,-156.489,220
1568024572,273.807,118.318,-17.4129,-2.13135,1.42822,-156.489,220
1568024572,273.807,118.318,-17.4129,-2.13135,1.42822,-156.489,220
1568024572,273.807,118.318,-17.4129,-2.13135,1.4502,-156.489,220
1568024572,273.807,118.318,-17.4129,-2.13135,1.4502,-156.489,220
1568024572,273.807,118.318,-17.4129,-2.13135,1.4502,-156.489,220
1568024572,273.807,118.318,-17.4129,-2.13135,1.4502,-156.489,220
1568024572,273.807,118.318,-17.4129,-2.13135,1.4502,-156.489,220
1568024572,273.807,118.318,-17.4129,-2.13135,1.42822,-156.489,220
1568024572,273.807,118.318,-17.4129,-2.13135,1.4502,-156.489,220
1568024572,273.807,118.318,-17.4129,-2.13135,1.4502,-156.489,220
1568024572,273.807,118.318,-17.4129,-2.10938,1.4502,-156.489,220
1568024572,273.807,118.318,-17.4129,-2.10938,1.4502,-156.489,220
1568024572,273.807,118.318,-17.4129,-2.10938,1.4502,-156.489,220
1568024572,273.807,118.318,-17.4129,-2.10938,1.4502,-156.489,220
1568024572,273.807,118.318,-17.4129,-2.10938,1.4502,-156.489,220
1568024572,273.807,118.318,-17.4129,-2.10938,1.4502,-156.489,220
1568024572,273.807,118.318,-17.4129,-2.10938,1.4502,-156.489,220
1568024572,273.807,118.318,-17.4129,-2.10938,1.4502,-156.489,220
1568024572,273.807,118.318,-17.4129,-2.10938,1.4502,-156.489,220
1568024572,273.807,118.318,-17.4129,-2.10938,1.4502,-156.489,220
1568024572,273.807,118.318,-17.4129,-2.10938,1.4502,-156.489,220
1568024572,273.807,118.318,-17.4129,-2.10938,1.4502,-156.489,220
1568024572,273.807,118.318,-17.4129,-2.10938,1.4502,-156.489,220
1568024572,273.807,118.318,-17.4129,-2.10938,1.4502,-156.489,220
1568024572,273.807,118.318,-17.4129,-2.10938,1.4502,-156.489,220
1568024572,273.807,118.318,-17.4129,-2.10938,1.4502,-156.489,220
1568024572,273.807,118.318,-17.4129,-2.10938,1.4502,-156.489,220
1568024572,273.807,118.318,-17.4129,-2.10938,1.4502,-156.489,220
1568024572,273.807,118.318,-17.4129,-2.10938,1.42822,-156.489,220
1568024572,273.807,118.318,-17.4129,-2.10938,1.42822,-156.489,220
1568024572,273.807,118.318,-17.4129,-2.10938,1.42822,-156.489,220
1568024572,273.807,118.318,-17.4129,-2.10938,1.42822,-156.489,220
1568024572,273.807,118.318,-17.4129,-2.10938,1.42822,-156.489,220
1568024572,273.807,118.318,-17.4129,-2.13135,1.42822,-156.489,220
1568024572,273.807,118.318,-17.4129,-2.13135,1.42822,-156.489,220
1568024572,273.807,118.318,-17.4129,-2.13135,1.42822,-156.489,220
1568024572,273.807,118.318,-17.4129,-2.13135,1.42822,-156.489,220
1568024572,273.807,118.318,-17.4129,-2.13135,1.42822,-156.489,220
1568024572,273.807,118.318,-17.4129,-2.13135,1.42822,-156.489,220
1568024572,273.807,118.318,-17.4129,-2.13135,1.42822,-156.489,220
1568024572,273.807,118.318,-17.4129,-2.13135,1.42822,-156.489,220
1568024572,273.807,118.318,-17.4129,-2.13135,1.42822,-156.489,220
1568024572,273.807,118.318,-17.4129,-2.13135,1.42822,-156.489,220
1568024572,273.807,118.318,-17.4129,-2.13135,1.42822,-156.489,220
1568024572,273.807,118.318,-17.4129,-2.13135,1.42822,-156.489,220
1568024572,273.807,118.207,-17.4129,-2.13135,1.42822,-156.489,220
1568024572,273.807,118.207,-17.4129,-2.13135,1.42822,-156.489,220
1568024572,273.807,118.207,-17.4129,-2.13135,1.42822,-156.489,220
1568024572,273.807,118.207,-17.4129,-2.13135,1.42822,-156.489,220
1568024572,273.807,118.207,-17.4129,-2.13135,1.42822,-156.489,220
1568024572,273.807,118.207,-17.4129,-2.13135,1.42822,-156.489,220
1568024572,273.807,118.207,-17.4129,-2.13135,1.42822,-156.489,220
1568024572,273.807,118.207,-17.4129,-2.13135,1.42822,-156.489,220
1568024572,273.807,118.207,-17.4129,-2.13135,1.42822,-156.489,220
1568024572,273.807,118.207,-17.4129,-2.13135,1.42822,-156.489,220
1568024572,273.807,118.207,-17.4129,-2.13135,1.42822,-156.489,220
1568024572,273.807,118.207,-17.4129,-2.13135,1.42822,-156.489,220
1568024572,273.807,118.207,-17.4129,-2.13135,1.42822,-156.489,220
1568024572,273.807,118.207,-17.4129,-2.13135,1.42822,-156.489,220
1568024572,273.807,118.207,-17.4129,-2.13135,1.42822,-156.489,220
1568024572,273.807,118.207,-17.4129,-2.13135,1.42822,-156.489,220
1568024572,273.807,118.207,-17.4129,-2.13135,1.42822,-156.489,220
1568024572,273.807,118.207,-17.4129,-2.13135,1.42822,-156.489,220
1568024572,273.807,118.207,-17.4129,-2.13135,1.42822,-156.489,220
1568024572,273.807,118.207,-17.4129,-2.13135,1.42822,-156.489,220
1568024572,273.807,118.207,-17.4129,-2.13135,1.42822,-156.489,220
1568024572,273.807,118.207,-17.4129,-2.13135,1.42822,-156.489,224
1568024572,273.807,118.207,-17.4129,-2.13135,1.42822,-156.489,224
1568024572,273.807,118.207,-17.4129,-2.13135,1.4502,-156.489,224
1568024572,273.807,118.207,-17.4129,-2.13135,1.42822,-156.489,224
1568024572,273.807,118.318,-17.4129,-2.13135,1.42822,-156.489,224
1568024572,273.807,118.318,-17.4129,-2.10938,1.42822,-156.489,224
1568024572,273.807,118.318,-17.4129,-2.10938,1.42822,-156.489,224
1568024573,273.807,118.318,-17.4129,-2.10938,1.42822,-156.489,224
1568024573,273.807,118.318,-17.4129,-2.10938,1.42822,-156.489,224
1568024573,273.807,118.318,-17.4129,-2.10938,1.42822,-156.489,224
1568024573,273.807,118.318,-17.4129,-2.10938,1.42822,-156.489,224
1568024573,273.807,118.318,-17.4129,-2.10938,1.42822,-156.489,224
1568024573,273.807,118.318,-17.4129,-2.10938,1.42822,-156.489,224
1568024573,273.807,118.318,-17.4129,-2.10938,1.42822,-156.489,224
1568024573,273.807,118.318,-17.4129,-2.10938,1.42822,-156.489,224
1568024573,273.807,118.318,-17.4129,-2.10938,1.42822,-156.489,224
1568024573,273.807,118.318,-17.4129,-2.10938,1.42822,-156.489,224
1568024573,273.807,118.318,-17.4129,-2.10938,1.42822,-156.489,224
1568024573,273.807,118.318,-17.4129,-2.10938,1.42822,-156.489,224
1568024573,273.807,118.318,-17.4129,-2.10938,1.42822,-156.489,228
1568024573,273.807,118.318,-17.4129,-2.10938,1.42822,-156.489,228
1568024573,273.807,118.318,-17.4129,-2.10938,1.42822,-156.489,228
1568024573,273.807,118.318,-17.4129,-2.10938,1.42822,-156.489,228
1568024573,273.807,118.318,-17.4129,-2.10938,1.42822,-156.489,228
1568024573,273.807,118.318,-17.4129,-2.10938,1.42822,-156.489,228
1568024573,273.807,118.318,-17.4129,-2.10938,1.42822,-156.489,228
1568024573,273.807,118.318,-17.4129,-2.10938,1.42822,-156.489,228
1568024573,273.807,118.318,-17.4129,-2.10938,1.42822,-156.489,228
1568024573,273.807,118.318,-17.4129,-2.10938,1.42822,-156.489,228
1568024573,273.807,118.318,-17.4129,-2.10938,1.42822,-156.489,228
1568024573,273.807,118.318,-17.4129,-2.10938,1.42822,-156.489,228
1568024573,273.807,118.318,-17.4129,-2.10938,1.42822,-156.489,228
1568024573,273.807,118.318,-17.4129,-2.10938,1.42822,-156.489,228
1568024573,273.807,118.318,-17.4129,-2.10938,1.42822,-156.489,228
1568024573,273.807,118.318,-17.4129,-2.10938,1.42822,-156.489,228
1568024573,273.807,118.318,-17.4129,-2.13135,1.42822,-156.489,228
1568024573,273.807,118.318,-17.4129,-2.13135,1.42822,-156.489,228
1568024573,273.807,118.318,-17.4129,-2.13135,1.42822,-156.489,228
1568024573,273.807,118.318,-17.4129,-2.13135,1.42822,-156.489,228
1568024573,273.807,118.318,-17.4129,-2.13135,1.42822,-156.489,228
1568024573,273.807,118.318,-17.4129,-2.13135,1.42822,-156.489,232
1568024573,273.807,118.318,-17.4129,-2.13135,1.42822,-156.489,232
1568024573,273.807,118.318,-17.4129,-2.13135,1.42822,-156.489,232
1568024573,273.807,118.318,-17.4129,-2.13135,1.42822,-156.489,232
1568024573,273.807,118.318,-17.4129,-2.13135,1.42822,-156.489,232
1568024573,273.807,118.318,-17.4129,-2.13135,1.42822,-156.489,232
1568024573,273.807,118.318,-17.4129,-2.13135,1.42822,-156.489,232
1568024573,273.807,118.318,-17.4129,-2.13135,1.42822,-156.489,236
1568024573,273.807,118.318,-17.4129,-2.13135,1.42822,-156.489,236
1568024573,273.807,118.318,-17.4129,-2.13135,1.42822,-156.489,236
1568024573,273.807,118.318,-17.4129,-2.13135,1.42822,-156.489,236
1568024573,273.807,118.318,-17.4129,-2.10938,1.42822,-156.489,236
1568024573,273.807,118.318,-17.4129,-2.10938,1.42822,-156.489,236
1568024573,273.807,118.318,-17.4129,-2.10938,1.42822,-156.489,236
1568024573,273.807,118.318,-17.4129,-2.10938,1.42822,-156.489,236
1568024573,273.807,118.318,-17.4129,-2.10938,1.42822,-156.489,236
1568024573,273.807,118.318,-17.4129,-2.10938,1.42822,-156.489,236
1568024573,273.807,118.318,-17.4129,-2.10938,1.42822,-156.489,236
1568024573,273.807,118.318,-17.4129,-2.10938,1.42822,-156.489,236
1568024573,273.807,118.318,-17.4129,-2.10938,1.42822,-156.489,236
1568024573,273.807,118.318,-17.4129,-2.10938,1.42822,-156.489,236
1568024573,273.807,118.318,-17.4129,-2.10938,1.42822,-156.489,236
1568024573,273.807,118.318,-17.4129,-2.10938,1.42822,-156.489,236
1568024573,273.807,118.318,-17.4129,-2.10938,1.42822,-156.489,236
1568024573,273.807,118.318,-17.4129,-2.10938,1.42822,-156.489,236
1568024573,273.807,118.318,-17.4129,-2.10938,1.42822,-156.489,232
1568024573,273.807,118.318,-17.4129,-2.10938,1.4502,-156.489,232
1568024573,273.807,118.318,-17.4129,-2.10938,1.4502,-156.489,232
1568024573,273.807,118.318,-17.4129,-2.10938,1.4502,-156.489,232
1568024573,273.807,118.318,-17.4129,-2.10938,1.4502,-156.489,232
1568024573,273.807,118.318,-17.4129,-2.10938,1.4502,-156.489,232
1568024573,273.807,118.318,-17.4129,-2.10938,1.4502,-156.489,232
1568024573,273.807,118.318,-17.4129,-2.13135,1.4502,-156.489,232
1568024573,273.807,118.318,-17.4129,-2.13135,1.4502,-156.489,232
1568024573,273.807,118.318,-17.4129,-2.13135,1.4502,-156.489,232
1568024573,273.807,118.318,-17.4129,-2.13135,1.4502,-156.489,228
1568024573,273.807,118.318,-17.4129,-2.13135,1.4502,-156.489,228
1568024573,273.807,118.318,-17.4129,-2.13135,1.4502,-156.489,228
1568024573,273.807,118.318,-17.4129,-2.13135,1.4502,-156.489,228
1568024573,273.807,118.318,-17.4129,-2.10938,1.4502,-156.489,228
1568024573,273.807,118.318,-17.4129,-2.10938,1.42822,-156.489,228
1568024573,273.807,118.318,-17.4129,-2.10938,1.42822,-156.489,228
1568024573,273.807,118.318,-17.4129,-2.10938,1.42822,-156.489,224
1568024573,273.807,118.318,-17.4129,-2.10938,1.42822,-156.489,224
1568024573,273.807,118.318,-17.4129,-2.10938,1.42822,-156.489,224
1568024573,273.807,118.318,-17.4129,-2.10938,1.42822,-156.489,224
1568024573,273.807,118.318,-17.4129,-2.10938,1.42822,-156.489,224
1568024573,273.807,118.318,-17.4129,-2.10938,1.42822,-156.489,224
1568024573,273.807,118.318,-17.4129,-2.10938,1.42822,-156.489,224
1568024573,273.807,118.318,-17.4129,-2.10938,1.42822,-156.489,224
1568024573,273.807,118.318,-17.4129,-2.10938,1.42822,-156.489,224
1568024573,273.807,118.318,-17.4129,-2.10938,1.42822,-156.489,224
1568024573,273.807,118.318,-17.4129,-2.10938,1.42822,-156.489,224
1568024573,273.807,118.318,-17.4129,-2.10938,1.42822,-156.489,224
1568024573,273.807,118.318,-17.4129,-2.10938,1.42822,-156.489,224
1568024573,273.807,118.318,-17.4129,-2.10938,1.42822,-156.489,224
1568024573,273.807,118.318,-17.4129,-2.10938,1.42822,-156.489,224
1568024573,273.807,118.318,-17.4129,-2.13135,1.42822,-156.489,224
1568024573,273.807,118.318,-17.4129,-2.13135,1.42822,-156.489,224
1568024573,273.807,118.318,-17.4129,-2.13135,1.42822,-156.489,224
1568024573,273.807,118.318,-17.4129,-2.13135,1.42822,-156.489,220
1568024573,273.807,118.318,-17.4129,-2.13135,1.42822,-156.489,220
1568024573,273.807,118.318,-17.4129,-2.13135,1.42822,-156.489,220
1568024573,273.807,118.318,-17.3013,-2.13135,1.42822,-156.489,220
1568024573,273.807,118.318,-17.3013,-2.13135,1.42822,-156.489,220
1568024573,273.807,118.318,-17.3013,-2.13135,1.42822,-156.489,220
1568024573,273.807,118.318,-17.3013,-2.13135,1.42822,-156.489,220
1568024574,273.807,118.318,-17.3013,-2.13135,1.42822,-156.489,220
1568024574,273.807,118.318,-17.3013,-2.13135,1.42822,-156.489,220
1568024574,273.807,118.318,-17.3013,-2.13135,1.42822,-156.489,220
1568024574,273.807,118.318,-17.3013,-2.13135,1.42822,-156.489,220
1568024574,273.807,118.318,-17.3013,-2.13135,1.42822,-156.489,220
1568024574,273.807,118.318,-17.3013,-2.13135,1.42822,-156.489,220
1568024574,273.807,118.318,-17.3013,-2.13135,1.42822,-156.489,220
1568024574,273.807,118.318,-17.3013,-2.13135,1.42822,-156.489,220
1568024574,273.807,118.318,-17.3013,-2.13135,1.42822,-156.489,220
1568024574,273.807,118.318,-17.3013,-2.13135,1.42822,-156.489,220
1568024574,273.807,118.318,-17.3013,-2.13135,1.42822,-156.489,220
1568024574,273.807,118.318,-17.3013,-2.13135,1.42822,-156.489,220
1568024574,273.807,118.318,-17.3013,-2.13135,1.42822,-156.489,220
1568024574,273.807,118.318,-17.4129,-2.13135,1.42822,-156.489,220
1568024574,273.807,118.318,-17.4129,-2.13135,1.42822,-156.489,220
1568024574,273.807,118.318,-17.4129,-2.13135,1.42822,-156.489,220
1568024574,273.807,118.318,-17.4129,-2.13135,1.42822,-156.489,220
1568024574,273.807,118.318,-17.4129,-2.13135,1.42822,-156.489,220
1568024574,273.807,118.318,-17.4129,-2.13135,1.42822,-156.489,220
1568024574,273.807,118.318,-17.4129,-2.13135,1.42822,-156.489,220
1568024574,273.807,118.318,-17.4129,-2.13135,1.42822,-156.489,220
1568024574,273.807,118.318,-17.4129,-2.13135,1.42822,-156.489,220
1568024574,273.807,118.318,-17.4129,-2.13135,1.42822,-156.489,220
1568024574,273.807,118.318,-17.4129,-2.13135,1.42822,-156.489,220
1568024574,273.807,118.318,-17.4129,-2.13135,1.42822,-156.489,220
1568024574,273.807,118.318,-17.4129,-2.10938,1.42822,-156.489,220
1568024574,273.807,118.318,-17.4129,-2.10938,1.42822,-156.489,220
1568024574,273.807,118.318,-17.4129,-2.10938,1.42822,-156.489,220
1568024574,273.807,118.318,-17.4129,-2.13135,1.42822,-156.489,220
1568024574,273.807,118.318,-17.4129,-2.13135,1.42822,-156.489,220
1568024574,273.807,118.318,-17.4129,-2.13135,1.42822,-156.489,220
1568024574,273.807,118.318,-17.4129,-2.13135,1.42822,-156.489,220
1568024574,273.807,118.318,-17.4129,-2.13135,1.42822,-156.489,220
1568024574,273.807,118.318,-17.4129,-2.13135,1.42822,-156.489,220
1568024574,273.807,118.318,-17.4129,-2.13135,1.42822,-156.489,220
1568024574,273.807,118.318,-17.4129,-2.13135,1.42822,-156.489,220
1568024574,273.807,118.318,-17.4129,-2.13135,1.42822,-156.489,220
1568024574,273.807,118.318,-17.4129,-2.13135,1.42822,-156.489,220
1568024574,273.807,118.318,-17.4129,-2.13135,1.42822,-156.489,220
1568024574,273.807,118.318,-17.4129,-2.13135,1.42822,-156.489,220
1568024574,273.807,118.318,-17.4129,-2.13135,1.42822,-156.489,220
1568024574,273.807,118.318,-17.4129,-2.13135,1.42822,-156.489,220
1568024574,273.807,118.318,-17.4129,-2.13135,1.42822,-156.489,220
1568024574,273.807,118.318,-17.4129,-2.13135,1.42822,-156.489,220
1568024574,273.807,118.318,-17.4129,-2.13135,1.42822,-156.489,220
1568024574,273.807,118.318,-17.4129,-2.13135,1.42822,-156.489,220
1568024574,273.807,118.318,-17.4129,-2.13135,1.42822,-156.489,220
1568024574,273.807,118.318,-17.4129,-2.13135,1.42822,-156.489,220
1568024574,273.807,118.318,-17.4129,-2.13135,1.42822,-156.489,220
1568024574,273.807,118.318,-17.4129,-2.13135,1.42822,-156.489,220
1568024574,273.807,118.318,-17.4129,-2.13135,1.42822,-156.489,220
1568024574,273.807,118.318,-17.4129,-2.13135,1.42822,-156.489,220
1568024574,273.807,118.318,-17.4129,-2.13135,1.42822,-156.489,220
1568024574,273.807,118.318,-17.4129,-2.13135,1.4502,-156.489,220
1568024574,273.807,118.318,-17.4129,-2.13135,1.4502,-156.489,220
1568024574,273.807,118.318,-17.4129,-2.13135,1.4502,-156.489,220
1568024574,273.807,118.318,-17.4129,-2.13135,1.4502,-156.489,220
1568024574,273.807,118.318,-17.4129,-2.13135,1.4502,-156.489,220
1568024574,273.807,118.318,-17.4129,-2.13135,1.4502,-156.489,220
1568024574,273.807,118.318,-17.4129,-2.13135,1.4502,-156.489,220
1568024574,273.807,118.318,-17.4129,-2.13135,1.4502,-156.489,220
1568024574,273.807,118.318,-17.4129,-2.13135,1.4502,-156.489,220
1568024574,273.807,118.318,-17.4129,-2.13135,1.42822,-156.489,220
1568024574,273.807,118.318,-17.4129,-2.13135,1.42822,-156.489,220
1568024574,273.807,118.318,-17.4129,-2.13135,1.42822,-156.489,220
1568024574,273.807,118.318,-17.4129,-2.13135,1.42822,-156.489,220
1568024574,273.807,118.318,-17.4129,-2.13135,1.42822,-156.489,220
1568024574,273.807,118.318,-17.4129,-2.13135,1.42822,-156.489,220
1568024574,273.807,118.318,-17.4129,-2.13135,1.42822,-156.489,220
1568024574,273.807,118.318,-17.4129,-2.13135,1.42822,-156.489,224
1568024574,273.807,118.318,-17.4129,-2.13135,1.42822,-156.489,224
1568024574,273.807,118.318,-17.4129,-2.13135,1.42822,-156.489,224
1568024574,273.807,118.318,-17.4129,-2.13135,1.42822,-156.489,224
1568024574,273.807,118.318,-17.4129,-2.13135,1.42822,-156.489,224
1568024574,273.807,118.318,-17.4129,-2.13135,1.42822,-156.489,224
1568024574,273.807,118.318,-17.4129,-2.13135,1.42822,-156.489,224
1568024574,273.807,118.318,-17.4129,-2.13135,1.42822,-156.489,224
1568024574,273.807,118.207,-17.4129,-2.13135,1.42822,-156.489,224
1568024574,273.807,118.207,-17.4129,-2.13135,1.42822,-156.489,224
1568024574,273.807,118.207,-17.4129,-2.13135,1.42822,-156.489,220
1568024574,273.807,118.207,-17.4129,-2.13135,1.42822,-156.489,220
1568024574,273.807,118.207,-17.4129,-2.13135,1.42822,-156.489,220
1568024574,273.807,118.207,-17.4129,-2.13135,1.42822,-156.489,220
1568024574,273.807,118.207,-17.4129,-2.13135,1.42822,-156.489,220
1568024574,273.807,118.207,-17.4129,-2.13135,1.42822,-156.489,220
1568024574,273.807,118.207,-17.4129,-2.13135,1.42822,-156.489,220
1568024574,273.807,118.207,-17.4129,-2.13135,1.42822,-156.489,220
1568024574,273.807,118.207,-17.4129,-2.13135,1.42822,-156.489,220
1568024574,273.807,118.207,-17.4129,-2.13135,1.42822,-156.489,220
1568024574,273.807,118.207,-17.4129,-2.13135,1.42822,-156.489,220
1568024574,273.807,118.207,-17.4129,-2.13135,1.42822,-156.489,220
1568024574,273.807,118.207,-17.4129,-2.13135,1.42822,-156.489,220
1568024574,273.807,118.207,-17.4129,-2.13135,1.42822,-156.489,220
1568024574,273.807,118.207,-17.4129,-2.13135,1.42822,-156.489,220
1568024574,273.807,118.207,-17.4129,-2.13135,1.42822,-156.489,220
1568024574,273.807,118.207,-17.4129,-2.13135,1.42822,-156.489,220
1568024574,273.807,118.207,-17.4129,-2.13135,1.42822,-156.489,220
1568024574,273.807,118.207,-17.4129,-2.13135,1.42822,-156.489,220
1568024574,273.807,118.207,-17.4129,-2.13135,1.42822,-156.489,220
1568024574,273.807,118.207,-17.4129,-2.13135,1.42822,-156.489,220
1568024575,273.807,118.207,-17.4129,-2.13135,1.42822,-156.489,220
1568024575,273.807,118.207,-17.4129,-2.13135,1.42822,-156.489,220
1568024575,273.807,118.207,-17.4129,-2.13135,1.42822,-156.489,220
1568024575,273.807,118.207,-17.4129,-2.13135,1.42822,-156.489,224
1568024575,273.807,118.207,-17.4129,-2.13135,1.42822,-156.489,224
1568024575,273.807,118.207,-17.4129,-2.13135,1.42822,-156.489,224
1568024575,273.807,118.207,-17.4129,-2.13135,1.42822,-156.489,224
1568024575,273.807,118.207,-17.4129,-2.13135,1.42822,-156.489,224
1568024575,273.807,118.207,-17.4129,-2.13135,1.42822,-156.489,224
1568024575,273.807,118.207,-17.4129,-2.13135,1.42822,-156.489,224
1568024575,273.807,118.207,-17.4129,-2.13135,1.42822,-156.489,224
1568024575,273.807,118.207,-17.4129,-2.13135,1.42822,-156.489,224
1568024575,273.807,118.207,-17.4129,-2.13135,1.42822,-156.489,224
1568024575,273.807,118.207,-17.4129,-2.13135,1.42822,-156.489,224
1568024575,273.807,118.207,-17.4129,-2.13135,1.42822,-156.489,224
1568024575,273.807,118.207,-17.4129,-2.13135,1.42822,-156.489,224
1568024575,273.807,118.207,-17.4129,-2.13135,1.42822,-156.489,224
1568024582,235.186,158.837,-17.1896,-2.24121,1.71387,-157.039,164
1568024582,235.186,158.837,-17.1896,-2.24121,1.71387,-157.039,164
1568024582,235.186,158.837,-17.1896,-2.24121,1.71387,-157.039,164
1568024582,235.186,158.948,-17.1896,-2.24121,1.71387,-157.039,164
1568024582,235.186,158.948,-17.1896,-2.24121,1.71387,-157.039,164
1568024582,235.186,158.837,-17.1896,-2.24121,1.71387,-157.039,164
1568024582,235.186,158.837,-17.1896,-2.24121,1.71387,-157.039,164
1568024582,235.186,158.837,-17.1896,-2.24121,1.71387,-157.039,164
1568024582,235.186,158.837,-17.1896,-2.24121,1.71387,-157.039,164
1568024582,235.186,158.837,-17.1896,-2.24121,1.71387,-157.039,164
1568024582,235.186,158.837,-17.1896,-2.24121,1.71387,-157.039,164
1568024582,235.186,158.837,-17.1896,-2.24121,1.71387,-157.039,164
1568024582,235.186,158.837,-17.1896,-2.24121,1.71387,-157.039,164
1568024582,235.186,158.837,-17.1896,-2.24121,1.71387,-157.039,164
1568024582,235.186,158.837,-17.1896,-2.24121,1.71387,-157.039,164
1568024582,235.186,158.837,-17.1896,-2.24121,1.71387,-157.039,164
1568024582,235.186,158.837,-17.1896,-2.24121,1.71387,-157.039,164
1568024582,235.186,158.837,-17.1896,-2.24121,1.71387,-157.039,164
1568024582,235.186,158.837,-17.1896,-2.24121,1.71387,-157.039,164
1568024582,235.186,158.837,-17.1896,-2.24121,1.71387,-157.039,164
1568024582,235.186,158.837,-17.1896,-2.24121,1.71387,-157.039,164
1568024582,235.186,158.837,-17.1896,-2.24121,1.71387,-157.039,168
1568024582,235.186,158.837,-17.1896,-2.24121,1.71387,-157.039,168
1568024582,235.186,158.837,-17.1896,-2.24121,1.71387,-157.039,168
1568024582,235.186,158.837,-17.1896,-2.24121,1.71387,-157.039,168
1568024582,235.186,158.837,-17.1896,-2.24121,1.71387,-157.039,168
1568024582,235.186,158.837,-17.1896,-2.24121,1.71387,-157.039,164
1568024582,235.186,158.837,-17.1896,-2.24121,1.71387,-157.039,164
1568024582,235.186,158.837,-17.1896,-2.24121,1.71387,-157.039,164
1568024582,235.186,158.837,-17.1896,-2.24121,1.69189,-157.039,164
1568024582,235.186,158.837,-17.1896,-2.24121,1.69189,-157.039,164
1568024582,235.186,158.837,-17.1896,-2.24121,1.69189,-157.039,164
1568024582,235.186,158.837,-17.1896,-2.24121,1.69189,-157.039,164
1568024582,235.186,158.837,-17.1896,-2.24121,1.69189,-157.039,164
1568024582,235.186,158.837,-17.1896,-2.26318,1.69189,-157.039,164
1568024582,235.186,158.837,-17.1896,-2.26318,1.69189,-157.039,164
1568024582,235.186,158.837,-17.1896,-2.26318,1.69189,-157.039,164
1568024582,235.186,158.837,-17.1896,-2.26318,1.69189,-157.039,164
1568024582,235.186,158.837,-17.1896,-2.26318,1.69189,-157.039,164
1568024582,235.186,158.837,-17.1896,-2.26318,1.69189,-157.039,164
1568024582,235.186,158.837,-17.1896,-2.26318,1.69189,-157.039,164
1568024582,235.186,158.837,-17.1896,-2.26318,1.69189,-157.039,164
1568024582,235.186,158.837,-17.1896,-2.26318,1.69189,-157.039,164
1568024582,235.186,158.837,-17.1896,-2.26318,1.69189,-157.039,164
1568024582,235.186,158.837,-17.1896,-2.26318,1.69189,-157.039,164
1568024582,235.186,158.837,-17.1896,-2.26318,1.69189,-157.039,164
1568024582,235.186,158.837,-17.1896,-2.26318,1.69189,-157.039,164
1568024582,235.186,158.837,-17.1896,-2.26318,1.69189,-157.039,164
1568024582,235.186,158.837,-17.1896,-2.26318,1.69189,-157.039,164
1568024582,235.186,158.837,-17.1896,-2.26318,1.69189,-157.039,164
1568024582,235.186,158.837,-17.1896,-2.26318,1.69189,-157.039,164
1568024582,235.186,158.837,-17.1896,-2.26318,1.69189,-157.039,164
1568024582,235.186,158.837,-17.1896,-2.26318,1.69189,-157.039,164
1568024582,235.186,158.837,-17.1896,-2.26318,1.69189,-157.039,164
1568024582,235.186,158.837,-17.1896,-2.26318,1.69189,-157.039,164
1568024582,235.186,158.837,-17.1896,-2.26318,1.69189,-157.039,164
1568024582,235.186,158.837,-17.1896,-2.26318,1.69189,-157.039,164
1568024582,235.186,158.837,-17.1896,-2.26318,1.69189,-157.039,164
1568024582,235.186,158.837,-17.1896,-2.26318,1.69189,-157.039,164
1568024582,235.186,158.837,-17.1896,-2.26318,1.69189,-157.039,164
1568024582,235.186,158.837,-17.1896,-2.26318,1.69189,-157.017,168
1568024582,235.186,158.837,-17.1896,-2.26318,1.69189,-157.017,168
1568024583,235.186,158.837,-17.1896,-2.26318,1.69189,-157.017,168
1568024583,235.186,158.837,-17.1896,-2.26318,1.69189,-157.017,168
1568024583,235.186,158.837,-17.1896,-2.26318,1.69189,-157.017,168
1568024583,235.186,158.837,-17.1896,-2.26318,1.69189,-157.017,168
1568024583,235.186,158.837,-17.1896,-2.26318,1.69189,-157.017,168
1568024583,235.186,158.837,-17.1896,-2.26318,1.69189,-157.017,172
1568024583,235.186,158.837,-17.1896,-2.26318,1.69189,-157.017,172
1568024583,235.186,158.837,-17.1896,-2.26318,1.69189,-157.017,172
1568024583,235.186,158.837,-17.1896,-2.26318,1.69189,-157.017,172
1568024583,235.186,158.837,-17.1896,-2.26318,1.69189,-157.017,172
1568024583,235.186,158.837,-17.1896,-2.26318,1.69189,-157.017,172
1568024583,235.186,158.837,-17.1896,-2.26318,1.69189,-157.017,172
1568024583,235.186,158.837,-17.1896,-2.26318,1.69189,-157.017,172
1568024583,235.186,158.837,-17.1896,-2.26318,1.69189,-157.017,172
1568024583,235.186,158.837,-17.1896,-2.26318,1.69189,-157.017,172
1568024583,235.186,158.837,-17.1896,-2.26318,1.69189,-157.017,172
1568024583,235.186,158.837,-17.1896,-2.26318,1.69189,-157.017,172
1568024583,235.186,158.837,-17.1896,-2.26318,1.69189,-157.017,172
1568024583,235.186,158.837,-17.1896,-2.26318,1.69189,-157.017,172
1568024583,235.186,158.837,-17.1896,-2.26318,1.69189,-157.017,172
1568024583,235.186,158.837,-17.1896,-2.26318,1.69189,-157.017,172
1568024583,235.186,158.837,-17.1896,-2.26318,1.69189,-157.017,172
1568024583,235.186,158.837,-17.1896,-2.26318,1.69189,-157.017,172
1568024583,235.186,158.837,-17.1896,-2.24121,1.69189,-157.017,172
1568024583,235.186,158.837,-17.1896,-2.24121,1.69189,-157.017,172
1568024583,235.186,158.837,-17.1896,-2.24121,1.69189,-157.017,172
1568024583,235.186,158.837,-17.1896,-2.24121,1.69189,-157.017,168
1568024583,235.186,158.837,-17.1896,-2.24121,1.69189,-157.017,168
1568024583,235.186,158.837,-17.1896,-2.24121,1.69189,-157.017,168
1568024583,235.186,158.837,-17.1896,-2.24121,1.69189,-157.017,168
1568024583,235.186,158.837,-17.1896,-2.24121,1.69189,-157.017,168
1568024583,235.186,158.837,-17.1896,-2.26318,1.69189,-157.017,168
1568024583,235.186,158.837,-17.1896,-2.26318,1.69189,-157.017,168
1568024583,235.186,158.837,-17.1896,-2.24121,1.69189,-157.017,168
1568024583,235.186,158.837,-17.1896,-2.24121,1.69189,-157.017,168
1568024583,235.186,158.837,-17.1896,-2.24121,1.69189,-157.017,168
1568024583,235.186,158.837,-17.1896,-2.24121,1.69189,-157.017,168
1568024583,235.186,158.837,-17.1896,-2.24121,1.69189,-157.017,168
1568024583,235.186,158.837,-17.1896,-2.24121,1.69189,-157.017,172
1568024583,235.186,158.837,-17.1896,-2.24121,1.69189,-157.017,172
1568024583,235.186,158.837,-17.1896,-2.24121,1.69189,-157.017,172
1568024583,235.186,158.837,-17.1896,-2.24121,1.69189,-157.017,172
1568024583,235.186,158.837,-17.1896,-2.24121,1.69189,-157.017,172
1568024583,235.186,158.837,-17.1896,-2.24121,1.69189,-157.017,172
1568024583,235.186,158.837,-17.1896,-2.24121,1.69189,-157.017,172
1568024583,235.186,158.837,-17.1896,-2.24121,1.69189,-157.017,168
1568024583,235.186,158.837,-17.1896,-2.24121,1.69189,-157.017,168
1568024583,235.186,158.837,-17.1896,-2.24121,1.69189,-157.017,168
1568024583,235.186,158.837,-17.1896,-2.24121,1.69189,-157.017,168
1568024583,235.186,158.837,-17.1896,-2.24121,1.69189,-157.017,168
1568024583,235.186,158.837,-17.1896,-2.24121,1.69189,-157.017,168
1568024583,235.186,158.837,-17.1896,-2.24121,1.69189,-157.017,168
1568024583,235.186,158.837,-17.1896,-2.24121,1.69189,-157.017,168
1568024583,235.186,158.837,-17.1896,-2.24121,1.69189,-157.017,168
1568024583,235.186,158.837,-17.1896,-2.24121,1.69189,-157.017,168
1568024583,235.186,158.837,-17.1896,-2.24121,1.69189,-157.017,168
1568024583,235.186,158.837,-17.1896,-2.24121,1.69189,-157.017,164
1568024583,235.186,158.837,-17.1896,-2.24121,1.69189,-157.017,164
1568024583,235.186,158.837,-17.1896,-2.24121,1.69189,-157.017,164
1568024583,235.186,158.837,-17.1896,-2.24121,1.69189,-157.017,164
1568024583,235.186,158.837,-17.1896,-2.24121,1.69189,-157.017,164
1568024583,235.186,158.837,-17.1896,-2.24121,1.69189,-157.017,164
1568024583,235.186,158.837,-17.1896,-2.24121,1.69189,-157.017,164
1568024583,235.186,158.837,-17.1896,-2.24121,1.69189,-157.017,164
1568024583,235.186,158.837,-17.1896,-2.24121,1.69189,-157.017,164
1568024583,235.186,158.837,-17.1896,-2.24121,1.69189,-157.017,164
1568024583,235.186,158.837,-17.1896,-2.24121,1.69189,-157.017,164
1568024583,235.186,158.837,-17.1896,-2.24121,1.69189,-157.017,164
1568024583,235.186,158.837,-17.1896,-2.24121,1.69189,-157.017,164
1568024583,235.186,158.837,-17.1896,-2.24121,1.69189,-157.017,164
1568024583,235.186,158.837,-17.1896,-2.24121,1.69189,-157.039,164
1568024583,235.186,158.837,-17.1896,-2.24121,1.69189,-157.039,164
1568024583,235.186,158.837,-17.1896,-2.24121,1.69189,-157.039,164
1568024583,235.186,158.837,-17.1896,-2.24121,1.69189,-157.039,164
1568024583,235.186,158.837,-17.1896,-2.24121,1.69189,-157.039,164
1568024583,235.186,158.837,-17.1896,-2.24121,1.69189,-157.039,164
1568024583,235.186,158.837,-17.1896,-2.24121,1.69189,-157.039,164
1568024583,235.186,158.837,-17.1896,-2.24121,1.69189,-157.039,164
1568024583,235.186,158.837,-17.1896,-2.24121,1.69189,-157.039,164
1568024583,235.186,158.837,-17.1896,-2.24121,1.71387,-157.039,164
1568024583,235.186,158.837,-17.1896,-2.24121,1.71387,-157.039,164
1568024583,235.186,158.837,-17.1896,-2.24121,1.71387,-157.039,164
1568024583,235.186,158.837,-17.1896,-2.24121,1.71387,-157.039,164
1568024583,235.186,158.837,-17.1896,-2.24121,1.71387,-157.039,164
1568024583,235.186,158.837,-17.1896,-2.24121,1.71387,-157.039,164
1568024583,235.186,158.837,-17.1896,-2.24121,1.71387,-157.039,164
1568024583,235.186,158.837,-17.1896,-2.24121,1.71387,-157.039,164
1568024583,235.186,158.837,-17.1896,-2.24121,1.71387,-157.039,164
1568024583,235.186,158.837,-17.1896,-2.24121,1.71387,-157.039,164
1568024583,235.186,158.837,-17.1896,-2.24121,1.71387,-157.039,164
1568024583,235.186,158.837,-17.1896,-2.24121,1.71387,-157.039,164
1568024583,235.186,158.837,-17.1896,-2.24121,1.71387,-157.039,164
1568024583,235.186,158.837,-17.1896,-2.24121,1.71387,-157.039,164
1568024583,235.186,158.837,-17.1896,-2.24121,1.71387,-157.039,164
1568024583,235.186,158.837,-17.1896,-2.24121,1.71387,-157.039,164
1568024583,235.186,158.837,-17.1896,-2.24121,1.71387,-157.039,164
1568024583,235.186,158.837,-17.1896,-2.24121,1.71387,-157.039,164
1568024583,235.186,158.837,-17.1896,-2.24121,1.71387,-157.039,164
1568024583,235.186,158.837,-17.1896,-2.24121,1.71387,-157.039,164
1568024583,235.186,158.837,-17.1896,-2.24121,1.71387,-157.039,164
1568024584,235.186,158.837,-17.1896,-2.24121,1.71387,-157.039,160
1568024584,235.186,158.837,-17.1896,-2.24121,1.71387,-157.039,160
1568024584,235.186,158.837,-17.1896,-2.24121,1.71387,-157.039,160
1568024584,235.186,158.837,-17.1896,-2.24121,1.71387,-157.039,160
1568024584,235.186,158.837,-17.1896,-2.24121,1.71387,-157.039,160
1568024584,235.186,158.837,-17.1896,-2.24121,1.71387,-157.039,160
1568024584,235.186,158.837,-17.1896,-2.24121,1.71387,-157.039,160
1568024584,235.186,158.837,-17.1896,-2.26318,1.71387,-157.039,164
1568024584,235.186,158.837,-17.1896,-2.26318,1.71387,-157.039,164
1568024584,235.186,158.837,-17.1896,-2.26318,1.71387,-157.039,164
1568024584,235.186,158.837,-17.1896,-2.26318,1.71387,-157.039,164
1568024584,235.186,158.837,-17.1896,-2.26318,1.71387,-157.039,164
1568024584,235.186,158.837,-17.1896,-2.26318,1.71387,-157.039,164
1568024584,235.186,158.837,-17.1896,-2.26318,1.71387,-157.039,164
1568024584,235.186,158.837,-17.1896,-2.26318,1.71387,-157.039,164
1568024584,235.186,158.837,-17.1896,-2.26318,1.71387,-157.039,164
1568024584,235.186,158.837,-17.1896,-2.26318,1.71387,-157.039,164
1568024584,235.186,158.837,-17.1896,-2.26318,1.71387,-157.039,164
1568024584,235.186,158.837,-17.1896,-2.26318,1.71387,-157.039,164
1568024584,235.186,158.837,-17.1896,-2.26318,1.71387,-157.039,164
1568024584,235.186,158.837,-17.1896,-2.26318,1.71387,-157.039,164
1568024584,235.186,158.837,-17.1896,-2.26318,1.71387,-157.039,164
1568024584,235.186,158.837,-17.1896,-2.26318,1.71387,-157.039,164
1568024584,235.186,158.837,-17.1896,-2.26318,1.71387,-157.039,164
1568024584,235.186,158.837,-17.1896,-2.26318,1.71387,-157.039,164
1568024584,235.186,158.837,-17.1896,-2.26318,1.71387,-157.039,164
1568024584,235.186,158.837,-17.1896,-2.26318,1.71387,-157.039,164
1568024584,235.186,158.837,-17.1896,-2.26318,1.71387,-157.039,164
1568024584,235.186,158.837,-17.1896,-2.26318,1.71387,-157.039,164
1568024584,235.186,158.837,-17.1896,-2.26318,1.71387,-157.039,164
1568024584,235.186,158.837,-17.1896,-2.26318,1.71387,-157.039,164
1568024584,235.186,158.837,-17.1896,-2.26318,1.71387,-157.039,164
1568024584,235.186,158.837,-17.1896,-2.26318,1.71387,-157.039,164
1568024584,235.186,158.837,-17.1896,-2.26318,1.71387,-157.039,164
1568024584,235.186,158.837,-17.1896,-2.26318,1.71387,-157.039,164
1568024584,235.186,158.837,-17.1896,-2.26318,1.71387,-157.039,164
1568024584,235.186,158.837,-17.1896,-2.26318,1.71387,-157.039,164
1568024584,235.186,158.837,-17.1896,-2.26318,1.71387,-157.039,168
1568024584,235.186,158.837,-17.1896,-2.26318,1.71387,-157.039,168
1568024584,235.186,158.837,-17.1896,-2.26318,1.71387,-157.017,168
1568024584,235.186,158.837,-17.1896,-2.26318,1.71387,-157.017,168
1568024584,235.186,158.837,-17.1896,-2.26318,1.71387,-157.017,168
1568024584,235.186,158.837,-17.1896,-2.26318,1.71387,-157.017,168
1568024584,235.186,158.837,-17.1896,-2.26318,1.71387,-157.017,168
1568024584,235.186,158.837,-17.1896,-2.26318,1.71387,-157.039,172
1568024584,235.186,158.837,-17.1896,-2.26318,1.71387,-157.039,172
1568024584,235.186,158.837,-17.1896,-2.26318,1.71387,-157.039,172
1568024584,235.186,158.837,-17.1896,-2.26318,1.71387,-157.039,172
1568024584,235.186,158.837,-17.1896,-2.26318,1.71387,-157.039,172
1568024584,235.186,158.837,-17.1896,-2.26318,1.71387,-157.039,172
1568024584,235.186,158.837,-17.1896,-2.26318,1.71387,-157.039,172
1568024584,235.186,158.837,-17.1896,-2.26318,1.71387,-157.039,172
1568024584,235.186,158.837,-17.1896,-2.26318,1.71387,-157.039,172
1568024584,235.186,158.837,-17.1896,-2.26318,1.71387,-157.039,172
1568024584,235.186,158.837,-17.1896,-2.26318,1.71387,-157.039,172
1568024584,235.186,158.837,-17.1896,-2.26318,1.71387,-157.039,172
1568024584,235.186,158.837,-17.1896,-2.26318,1.71387,-157.039,172
1568024584,235.186,158.837,-17.1896,-2.26318,1.71387,-157.039,172
1568024584,235.186,158.837,-17.1896,-2.26318,1.71387,-157.039,172
1568024584,235.186,158.837,-17.1896,-2.26318,1.71387,-157.017,172
1568024584,235.186,158.837,-17.1896,-2.26318,1.69189,-157.017,172
1568024584,235.186,158.837,-17.1896,-2.26318,1.69189,-157.017,172
1568024584,235.186,158.837,-17.1896,-2.26318,1.69189,-157.017,172
1568024584,235.186,158.837,-17.1896,-2.26318,1.69189,-157.017,172
1568024584,235.186,158.837,-17.1896,-2.26318,1.69189,-157.017,172
1568024584,235.186,158.837,-17.1896,-2.26318,1.69189,-157.017,172
1568024584,235.186,158.837,-17.1896,-2.26318,1.69189,-157.017,172
1568024584,235.186,158.837,-17.1896,-2.26318,1.69189,-157.017,172
1568024584,235.186,158.837,-17.1896,-2.26318,1.69189,-157.039,172
1568024584,235.186,158.837,-17.1896,-2.26318,1.69189,-157.039,172
1568024584,235.186,158.837,-17.1896,-2.26318,1.69189,-157.039,172
1568024584,235.186,158.837,-17.1896,-2.26318,1.69189,-157.039,172
1568024584,235.186,158.837,-17.1896,-2.26318,1.69189,-157.039,172
1568024584,235.186,158.837,-17.1896,-2.26318,1.69189,-157.039,172
1568024584,235.186,158.837,-17.1896,-2.26318,1.69189,-157.039,168
1568024584,235.186,158.837,-17.1896,-2.26318,1.69189,-157.039,168
1568024584,235.186,158.837,-17.1896,-2.26318,1.69189,-157.039,168
1568024584,235.186,158.837,-17.1896,-2.26318,1.69189,-157.039,168
1568024584,235.186,158.837,-17.1896,-2.26318,1.69189,-157.039,168
1568024584,235.186,158.837,-17.1896,-2.26318,1.69189,-157.039,168
1568024584,235.186,158.837,-17.1896,-2.26318,1.69189,-157.039,164
1568024584,235.186,158.837,-17.1896,-2.26318,1.69189,-157.039,164
1568024584,235.186,158.837,-17.1896,-2.26318,1.71387,-157.039,164
1568024584,235.186,158.837,-17.1896,-2.26318,1.71387,-157.039,164
1568024584,235.186,158.837,-17.1896,-2.26318,1.71387,-157.039,164
1568024584,235.186,158.837,-17.1896,-2.26318,1.71387,-157.039,164
1568024584,235.186,158.837,-17.1896,-2.26318,1.71387,-157.039,164
1568024584,235.186,158.837,-17.1896,-2.26318,1.71387,-157.039,164
1568024584,235.186,158.837,-17.1896,-2.26318,1.71387,-157.039,164
1568024584,235.186,158.837,-17.1896,-2.26318,1.71387,-157.039,164
1568024584,235.186,158.837,-17.1896,-2.26318,1.71387,-157.039,164
1568024584,235.186,158.837,-17.1896,-2.26318,1.71387,-157.039,164
1568024584,235.186,158.837,-17.1896,-2.26318,1.71387,-157.039,164
1568024584,235.186,158.837,-17.1896,-2.26318,1.71387,-157.039,164
1568024584,235.186,158.837,-17.1896,-2.26318,1.71387,-157.039,164
1568024584,235.186,158.837,-17.1896,-2.26318,1.71387,-157.039,164
1568024584,235.186,158.837,-17.1896,-2.26318,1.71387,-157.039,164
1568024584,235.186,158.837,-17.1896,-2.26318,1.71387,-157.039,164
1568024584,235.186,158.837,-17.1896,-2.26318,1.71387,-157.039,164
1568024584,235.186,158.837,-17.1896,-2.26318,1.71387,-157.039,164
1568024585,235.186,158.837,-17.1896,-2.26318,1.69189,-157.039,168
1568024585,235.186,158.837,-17.1896,-2.26318,1.69189,-157.039,168
1568024585,235.186,158.837,-17.1896,-2.26318,1.69189,-157.039,168
1568024585,235.186,158.837,-17.1896,-2.26318,1.69189,-157.039,168
1568024585,235.186,158.837,-17.1896,-2.26318,1.69189,-157.039,168
1568024585,235.186,158.837,-17.1896,-2.24121,1.69189,-157.039,168
1568024585,235.186,158.837,-17.1896,-2.24121,1.69189,-157.039,168
1568024585,235.186,158.837,-17.1896,-2.24121,1.69189,-157.039,168
1568024585,235.186,158.837,-17.1896,-2.24121,1.69189,-157.039,168
1568024585,235.186,158.837,-17.1896,-2.24121,1.69189,-157.039,168
1568024585,235.186,158.837,-17.1896,-2.24121,1.69189,-157.039,168
1568024585,235.186,158.837,-17.1896,-2.24121,1.69189,-157.039,168
1568024585,235.186,158.837,-17.1896,-2.24121,1.69189,-157.039,168
1568024585,235.186,158.837,-17.1896,-2.26318,1.69189,-157.039,168
1568024585,235.186,158.837,-17.1896,-2.26318,1.69189,-157.039,168
1568024585,235.186,158.837,-17.1896,-2.26318,1.69189,-157.039,168
1568024585,235.186,158.837,-17.1896,-2.26318,1.69189,-157.039,168
1568024585,235.186,158.837,-17.1896,-2.26318,1.69189,-157.039,168
1568024585,235.186,158.837,-17.1896,-2.26318,1.69189,-157.039,168
1568024585,235.186,158.837,-17.1896,-2.26318,1.69189,-157.039,168
1568024585,235.186,158.837,-17.1896,-2.26318,1.69189,-157.039,168
1568024585,235.186,158.837,-17.1896,-2.26318,1.69189,-157.039,168
1568024585,235.186,158.837,-17.1896,-2.26318,1.69189,-157.039,168
1568024585,235.186,158.837,-17.1896,-2.26318,1.69189,-157.039,172
1568024585,235.186,158.837,-17.1896,-2.26318,1.69189,-157.039,172
1568024585,235.186,158.837,-17.1896,-2.26318,1.69189,-157.039,172
1568024585,235.186,158.837,-17.1896,-2.26318,1.69189,-157.039,172
1568024585,235.186,158.837,-17.1896,-2.24121,1.69189,-157.039,172
1568024585,235.186,158.837,-17.1896,-2.24121,1.69189,-157.039,172
1568024585,235.186,158.837,-17.1896,-2.24121,1.71387,-157.039,172
1568024585,235.186,158.837,-17.1896,-2.24121,1.71387,-157.039,172
1568024585,235.186,158.837,-17.1896,-2.24121,1.71387,-157.039,172
1568024585,235.186,158.837,-17.1896,-2.24121,1.71387,-157.039,172
1568024585,235.186,158.837,-17.1896,-2.24121,1.71387,-157.039,172
1568024585,235.186,158.837,-17.1896,-2.26318,1.69189,-157.039,172
1568024585,235.186,158.837,-17.1896,-2.26318,1.69189,-157.039,172
1568024585,235.186,158.837,-17.1896,-2.26318,1.69189,-157.039,172
1568024585,235.186,158.837,-17.1896,-2.26318,1.69189,-157.039,172
1568024585,235.186,158.837,-17.1896,-2.26318,1.69189,-157.039,172
1568024585,235.186,158.837,-17.1896,-2.26318,1.69189,-157.039,172
1568024585,235.186,158.837,-17.1896,-2.26318,1.69189,-157.039,172
1568024585,235.186,158.837,-17.1896,-2.26318,1.69189,-157.039,172
1568024585,235.186,158.837,-17.1896,-2.26318,1.69189,-157.039,172
1568024585,235.186,158.837,-17.1896,-2.26318,1.69189,-157.039,172
1568024585,235.186,158.837,-17.1896,-2.26318,1.69189,-157.039,172
1568024585,235.186,158.837,-17.1896,-2.26318,1.69189,-157.039,172
1568024585,235.186,158.837,-17.1896,-2.26318,1.69189,-157.039,172
1568024585,235.186,158.837,-17.1896,-2.26318,1.69189,-157.039,172
1568024585,235.186,158.837,-17.1896,-2.24121,1.69189,-157.039,172
