time,x,y,z,ax,ay,az,q
1567620397,367.457,-11.8318,24.2218,178.879,-0.153809,88.396,104
1567620397,367.457,-11.8318,24.2218,178.879,-0.153809,88.396,104
1567620397,367.457,-11.8318,24.2218,178.879,-0.153809,88.396,104
1567620397,367.457,-11.8318,24.2218,178.879,-0.153809,88.396,104
1567620397,367.457,-11.8318,24.2218,178.879,-0.153809,88.396,104
1567620397,367.457,-11.8318,24.2218,178.879,-0.153809,88.396,104
1567620397,367.457,-11.8318,24.2218,178.879,-0.153809,88.396,104
1567620397,367.457,-11.8318,24.2218,178.879,-0.153809,88.396,104
1567620397,367.457,-11.8318,24.2218,178.879,-0.153809,88.396,104
1567620397,367.457,-11.8318,24.2218,178.879,-0.153809,88.396,104
1567620397,367.457,-11.8318,24.2218,178.879,-0.153809,88.396,104
1567620397,367.457,-11.8318,24.2218,178.879,-0.153809,88.396,104
1567620397,367.457,-11.8318,24.2218,178.879,-0.153809,88.396,104
1567620397,367.457,-11.8318,24.2218,178.879,-0.153809,88.396,104
1567620397,367.457,-11.8318,24.2218,178.879,-0.153809,88.396,104
1567620397,367.457,-11.8318,24.2218,178.879,-0.153809,88.396,104
1567620397,367.457,-11.8318,24.2218,178.879,-0.153809,88.396,104
1567620397,367.457,-11.8318,24.2218,178.879,-0.153809,88.396,104
1567620397,367.457,-11.8318,24.2218,178.879,-0.153809,88.396,104
1567620397,367.457,-11.8318,24.2218,178.879,-0.153809,88.396,104
1567620397,367.457,-11.8318,24.2218,178.879,-0.153809,88.396,104
1567620397,367.457,-11.8318,24.2218,178.879,-0.153809,88.396,104
1567620397,367.457,-11.8318,24.2218,178.879,-0.153809,88.396,104
1567620397,367.457,-11.8318,24.2218,178.879,-0.153809,88.396,104
1567620397,367.457,-11.8318,24.2218,178.879,-0.153809,88.396,104
1567620397,367.457,-11.8318,24.2218,178.879,-0.153809,88.396,104
1567620397,367.568,-11.8318,24.2218,178.879,-0.153809,88.396,104
1567620397,367.568,-11.8318,24.2218,178.879,-0.153809,88.396,104
1567620397,367.568,-11.8318,24.2218,178.879,-0.153809,88.396,104
1567620397,367.568,-11.8318,24.2218,178.879,-0.153809,88.396,104
1567620397,367.568,-11.8318,24.2218,178.879,-0.153809,88.396,104
1567620397,367.568,-11.8318,24.2218,178.879,-0.153809,88.396,104
1567620397,367.568,-11.8318,24.2218,178.879,-0.153809,88.396,104
1567620397,367.568,-11.8318,24.2218,178.879,-0.153809,88.396,104
1567620397,367.568,-11.8318,24.2218,178.879,-0.153809,88.396,104
1567620397,367.568,-11.8318,24.2218,178.879,-0.153809,88.396,104
1567620397,367.568,-11.8318,24.2218,178.879,-0.153809,88.396,104
1567620397,367.568,-11.8318,24.2218,178.879,-0.153809,88.396,104
1567620397,367.568,-11.8318,24.2218,178.879,-0.153809,88.396,104
1567620397,367.568,-11.8318,24.2218,178.879,-0.153809,88.396,104
1567620397,367.568,-11.8318,24.2218,178.879,-0.153809,88.396,104
1567620397,367.568,-11.8318,24.2218,178.879,-0.153809,88.396,104
1567620397,367.568,-11.8318,24.2218,178.879,-0.153809,88.396,104
1567620397,367.568,-11.8318,24.2218,178.879,-0.153809,88.396,104
1567620397,367.568,-11.8318,24.2218,178.879,-0.153809,88.396,104
1567620397,367.568,-11.8318,24.2218,178.879,-0.153809,88.396,104
1567620397,367.568,-11.8318,24.2218,178.879,-0.153809,88.396,104
1567620397,367.568,-11.8318,24.2218,178.879,-0.153809,88.396,104
1567620397,367.568,-11.8318,24.2218,178.879,-0.153809,88.396,104
1567620397,367.568,-11.8318,24.2218,178.879,-0.153809,88.396,104
1567620397,367.568,-11.8318,24.2218,178.879,-0.153809,88.396,104
1567620397,367.568,-11.8318,24.2218,178.879,-0.153809,88.396,104
1567620397,367.568,-11.8318,24.2218,178.879,-0.153809,88.396,104
1567620397,367.568,-11.8318,24.2218,178.879,-0.153809,88.396,104
1567620397,367.568,-11.8318,24.2218,178.879,-0.153809,88.396,104
1567620397,367.568,-11.8318,24.2218,178.879,-0.153809,88.396,104
1567620397,367.568,-11.8318,24.2218,178.879,-0.153809,88.396,104
1567620397,367.568,-11.8318,24.2218,178.879,-0.153809,88.396,104
1567620397,367.568,-11.8318,24.2218,178.879,-0.153809,88.396,104
1567620397,367.568,-11.8318,24.2218,178.879,-0.153809,88.396,104
1567620397,367.568,-11.8318,24.2218,178.879,-0.153809,88.396,104
1567620397,367.568,-11.8318,24.2218,178.879,-0.153809,88.396,104
1567620397,367.568,-11.8318,24.2218,178.879,-0.153809,88.396,104
1567620397,367.568,-11.8318,24.2218,178.879,-0.153809,88.396,104
1567620397,367.568,-11.8318,24.2218,178.879,-0.153809,88.396,104
1567620397,367.568,-11.8318,24.2218,178.879,-0.153809,88.396,104
1567620397,367.568,-11.8318,24.2218,178.879,-0.153809,88.396,104
1567620397,367.568,-11.8318,24.2218,178.879,-0.153809,88.396,104
1567620397,367.568,-11.8318,24.2218,178.879,-0.153809,88.396,104
1567620397,367.568,-11.8318,24.2218,178.879,-0.153809,88.396,104
1567620397,367.568,-11.8318,24.2218,178.879,-0.153809,88.396,104
1567620397,367.568,-11.8318,24.2218,178.879,-0.153809,88.396,104
1567620397,367.568,-11.8318,24.2218,178.879,-0.153809,88.396,104
1567620397,367.568,-11.8318,24.2218,178.879,-0.153809,88.396,104
1567620397,367.568,-11.8318,24.2218,178.879,-0.153809,88.396,104
1567620397,367.568,-11.8318,24.2218,178.879,-0.153809,88.396,104
1567620397,367.568,-11.8318,24.2218,178.879,-0.153809,88.396,104
1567620397,367.568,-11.8318,24.2218,178.879,-0.153809,88.396,104
1567620397,367.568,-11.8318,24.2218,178.879,-0.153809,88.396,104
1567620397,367.568,-11.8318,24.2218,178.879,-0.153809,88.396,104
1567620398,367.568,-11.8318,24.2218,178.879,-0.153809,88.396,104
1567620398,367.568,-11.8318,24.2218,178.879,-0.153809,88.396,104
1567620398,367.568,-11.8318,24.2218,178.879,-0.153809,88.396,104
1567620398,367.568,-11.8318,24.2218,178.879,-0.153809,88.396,104
1567620398,367.568,-11.8318,24.2218,178.879,-0.153809,88.396,104
1567620398,367.568,-11.8318,24.2218,178.879,-0.153809,88.396,104
1567620398,367.568,-11.8318,24.2218,178.879,-0.153809,88.396,104
1567620398,367.568,-11.8318,24.2218,178.879,-0.131836,88.396,104
1567620398,367.568,-11.8318,24.2218,178.879,-0.131836,88.396,104
1567620398,367.568,-11.8318,24.2218,178.879,-0.131836,88.396,104
1567620398,367.568,-11.8318,24.2218,178.879,-0.131836,88.396,104
1567620398,367.568,-11.8318,24.2218,178.879,-0.131836,88.396,104
1567620398,367.568,-11.8318,24.2218,178.879,-0.131836,88.396,104
1567620398,367.568,-11.8318,24.2218,178.879,-0.131836,88.396,104
1567620398,367.568,-11.8318,24.2218,178.879,-0.131836,88.396,104
1567620398,367.568,-11.8318,24.2218,178.879,-0.131836,88.396,104
1567620398,367.568,-11.8318,24.2218,178.879,-0.131836,88.396,104
1567620398,367.568,-11.8318,24.2218,178.879,-0.131836,88.396,104
1567620398,367.568,-11.8318,24.2218,178.879,-0.131836,88.396,104
1567620398,367.568,-11.8318,24.2218,178.879,-0.131836,88.396,104
1567620398,367.568,-11.8318,24.2218,178.879,-0.131836,88.396,104
1567620398,367.568,-11.8318,24.2218,178.879,-0.131836,88.396,104
1567620398,367.568,-11.8318,24.2218,178.879,-0.131836,88.396,104
1567620398,367.568,-11.8318,24.2218,178.879,-0.131836,88.396,104
1567620398,367.568,-11.8318,24.2218,178.879,-0.131836,88.396,104
1567620398,367.568,-11.8318,24.2218,178.879,-0.131836,88.396,104
1567620398,367.568,-11.8318,24.2218,178.879,-0.131836,88.396,104
1567620398,367.568,-11.8318,24.2218,178.879,-0.131836,88.396,104
1567620398,367.568,-11.8318,24.2218,178.879,-0.131836,88.396,104
1567620398,367.568,-11.8318,24.2218,178.879,-0.131836,88.396,104
1567620398,367.568,-11.8318,24.2218,178.879,-0.131836,88.396,104
1567620398,367.457,-11.8318,24.2218,178.879,-0.131836,88.396,104
1567620398,367.457,-11.8318,24.2218,178.879,-0.131836,88.396,104
1567620398,367.457,-11.8318,24.2218,178.879,-0.131836,88.396,104
1567620398,367.457,-11.8318,24.2218,178.879,-0.131836,88.396,104
1567620398,367.457,-11.8318,24.2218,178.879,-0.131836,88.396,104
1567620398,367.457,-11.8318,24.2218,178.879,-0.131836,88.396,104
1567620398,367.457,-11.8318,24.2218,178.879,-0.131836,88.396,104
1567620398,367.457,-11.8318,24.2218,178.879,-0.131836,88.396,104
1567620398,367.457,-11.8318,24.2218,178.879,-0.131836,88.396,104
1567620398,367.457,-11.8318,24.2218,178.879,-0.131836,88.396,104
1567620398,367.457,-11.8318,24.2218,178.879,-0.131836,88.396,104
1567620398,367.457,-11.8318,24.2218,178.879,-0.131836,88.396,104
1567620398,367.457,-11.8318,24.2218,178.879,-0.131836,88.396,104
1567620398,367.457,-11.8318,24.2218,178.879,-0.131836,88.396,104
1567620398,367.457,-11.8318,24.2218,178.879,-0.131836,88.396,104
1567620398,367.457,-11.8318,24.2218,178.879,-0.131836,88.396,104
1567620398,367.457,-11.8318,24.2218,178.879,-0.131836,88.396,104
1567620398,367.457,-11.8318,24.2218,178.879,-0.131836,88.396,104
1567620398,367.457,-11.8318,24.2218,178.879,-0.153809,88.396,104
1567620398,367.457,-11.8318,24.2218,178.879,-0.153809,88.396,104
1567620398,367.457,-11.8318,24.2218,178.879,-0.153809,88.396,104
1567620398,367.457,-11.8318,24.2218,178.879,-0.153809,88.396,104
1567620398,367.457,-11.8318,24.2218,178.879,-0.153809,88.396,104
1567620398,367.457,-11.8318,24.2218,178.879,-0.153809,88.396,104
1567620398,367.457,-11.8318,24.2218,178.879,-0.153809,88.396,104
1567620398,367.457,-11.8318,24.2218,178.879,-0.153809,88.396,104
1567620398,367.457,-11.8318,24.2218,178.879,-0.153809,88.396,104
1567620398,367.457,-11.8318,24.2218,178.879,-0.153809,88.396,104
1567620398,367.457,-11.8318,24.2218,178.879,-0.153809,88.396,104
1567620398,367.457,-11.8318,24.2218,178.879,-0.153809,88.396,104
1567620398,367.457,-11.8318,24.2218,178.879,-0.153809,88.396,104
1567620398,367.457,-11.8318,24.2218,178.879,-0.153809,88.396,104
1567620398,367.457,-11.8318,24.2218,178.879,-0.153809,88.396,104
1567620398,367.457,-11.8318,24.2218,178.879,-0.153809,88.396,104
1567620398,367.457,-11.8318,24.2218,178.879,-0.153809,88.396,104
1567620398,367.457,-11.8318,24.2218,178.879,-0.153809,88.396,104
1567620398,367.457,-11.8318,24.2218,178.879,-0.153809,88.396,104
1567620398,367.457,-11.8318,24.2218,178.879,-0.153809,88.396,104
1567620398,367.457,-11.8318,24.2218,178.879,-0.153809,88.396,104
1567620398,367.457,-11.8318,24.2218,178.879,-0.153809,88.396,104
1567620398,367.457,-11.8318,24.2218,178.879,-0.153809,88.396,104
1567620398,367.457,-11.8318,24.2218,178.879,-0.153809,88.396,104
1567620398,367.457,-11.8318,24.2218,178.879,-0.153809,88.396,104
1567620398,367.457,-11.8318,24.2218,178.879,-0.153809,88.396,104
1567620398,367.457,-11.8318,24.2218,178.879,-0.153809,88.396,104
1567620398,367.457,-11.8318,24.2218,178.879,-0.153809,88.396,104
1567620398,367.457,-11.8318,24.2218,178.879,-0.153809,88.396,104
1567620398,367.457,-11.8318,24.2218,178.879,-0.153809,88.396,104
1567620398,367.568,-11.8318,24.2218,178.879,-0.153809,88.396,104
1567620398,367.568,-11.8318,24.2218,178.879,-0.153809,88.396,104
1567620398,367.568,-11.8318,24.2218,178.879,-0.153809,88.396,104
1567620398,367.568,-11.8318,24.2218,178.879,-0.153809,88.396,104
1567620398,367.568,-11.8318,24.2218,178.879,-0.153809,88.396,104
1567620398,367.568,-11.8318,24.2218,178.879,-0.153809,88.396,104
1567620398,367.568,-11.8318,24.2218,178.879,-0.153809,88.396,104
1567620398,367.568,-11.8318,24.2218,178.879,-0.153809,88.396,104
1567620398,367.568,-11.8318,24.2218,178.879,-0.153809,88.396,104
1567620398,367.568,-11.8318,24.2218,178.879,-0.153809,88.396,104
1567620398,367.568,-11.8318,24.2218,178.879,-0.153809,88.396,104
1567620398,367.568,-11.8318,24.2218,178.879,-0.153809,88.396,104
1567620398,367.568,-11.8318,24.2218,178.879,-0.153809,88.396,104
1567620398,367.568,-11.8318,24.2218,178.879,-0.153809,88.396,104
1567620398,367.568,-11.8318,24.2218,178.879,-0.153809,88.396,104
1567620398,367.568,-11.8318,24.2218,178.879,-0.153809,88.396,104
1567620398,367.568,-11.8318,24.2218,178.879,-0.153809,88.396,104
1567620398,367.568,-11.8318,24.2218,178.879,-0.153809,88.396,104
1567620398,367.568,-11.8318,24.2218,178.879,-0.153809,88.396,104
1567620398,367.568,-11.8318,24.2218,178.879,-0.153809,88.396,104
1567620398,367.568,-11.8318,24.2218,178.879,-0.153809,88.396,104
1567620399,367.568,-11.8318,24.2218,178.879,-0.153809,88.396,104
1567620399,367.568,-11.8318,24.2218,178.879,-0.153809,88.396,104
1567620399,367.568,-11.8318,24.2218,178.879,-0.153809,88.396,104
1567620399,367.568,-11.8318,24.2218,178.879,-0.153809,88.396,104
1567620399,367.568,-11.8318,24.2218,178.879,-0.153809,88.396,104
1567620399,367.457,-11.8318,24.2218,178.879,-0.153809,88.396,104
1567620399,367.457,-11.8318,24.2218,178.879,-0.153809,88.396,104
1567620399,367.457,-11.8318,24.2218,178.879,-0.153809,88.396,104
1567620399,367.457,-11.8318,24.2218,178.879,-0.153809,88.396,104
1567620399,367.457,-11.8318,24.2218,178.879,-0.153809,88.396,104
1567620399,367.457,-11.8318,24.2218,178.879,-0.153809,88.396,104
1567620399,367.457,-11.8318,24.2218,178.879,-0.153809,88.396,104
1567620399,367.457,-11.8318,24.2218,178.879,-0.153809,88.396,104
1567620399,367.457,-11.8318,24.2218,178.879,-0.153809,88.396,104
1567620399,367.457,-11.8318,24.2218,178.879,-0.153809,88.396,104
1567620399,367.457,-11.8318,24.2218,178.879,-0.153809,88.396,104
1567620399,367.457,-11.8318,24.2218,178.879,-0.153809,88.396,104
1567620399,367.568,-11.8318,24.2218,178.879,-0.153809,88.396,104
1567620399,367.568,-11.8318,24.2218,178.879,-0.153809,88.396,104
1567620399,367.568,-11.8318,24.2218,178.879,-0.153809,88.396,104
1567620399,367.568,-11.8318,24.2218,178.879,-0.153809,88.396,104
1567620399,367.568,-11.8318,24.2218,178.879,-0.153809,88.396,104
1567620399,367.568,-11.8318,24.2218,178.879,-0.153809,88.396,104
1567620399,367.568,-11.8318,24.2218,178.879,-0.153809,88.396,104
1567620399,367.568,-11.8318,24.2218,178.879,-0.153809,88.396,104
1567620399,367.568,-11.8318,24.2218,178.879,-0.153809,88.396,104
1567620399,367.457,-11.8318,24.2218,178.879,-0.153809,88.396,104
1567620399,367.457,-11.8318,24.2218,178.879,-0.153809,88.396,104
1567620399,367.457,-11.8318,24.2218,178.879,-0.153809,88.396,108
1567620399,367.457,-11.8318,24.2218,178.879,-0.153809,88.396,108
1567620399,367.457,-11.8318,24.2218,178.879,-0.153809,88.396,108
1567620399,367.457,-11.8318,24.2218,178.879,-0.153809,88.396,108
1567620399,367.457,-11.8318,24.2218,178.879,-0.153809,88.396,108
1567620399,367.457,-11.8318,24.2218,178.879,-0.153809,88.396,108
1567620399,367.457,-11.8318,24.2218,178.879,-0.153809,88.396,108
1567620399,367.457,-11.8318,24.2218,178.879,-0.153809,88.396,108
1567620399,367.457,-11.8318,24.2218,178.879,-0.153809,88.396,108
1567620399,367.457,-11.8318,24.2218,178.879,-0.153809,88.396,108
1567620399,367.457,-11.8318,24.2218,178.879,-0.153809,88.396,108
1567620399,367.457,-11.8318,24.2218,178.879,-0.153809,88.396,108
1567620399,367.457,-11.8318,24.2218,178.879,-0.153809,88.396,108
1567620399,367.457,-11.8318,24.2218,178.879,-0.153809,88.396,108
1567620399,367.457,-11.8318,24.2218,178.879,-0.153809,88.396,108
1567620399,367.457,-11.8318,24.2218,178.879,-0.153809,88.396,108
1567620399,367.457,-11.8318,24.2218,178.879,-0.153809,88.396,108
1567620399,367.457,-11.8318,24.2218,178.879,-0.153809,88.396,108
1567620399,367.457,-11.8318,24.2218,178.879,-0.153809,88.396,108
1567620399,367.457,-11.8318,24.2218,178.879,-0.153809,88.396,108
1567620399,367.457,-11.8318,24.2218,178.879,-0.153809,88.396,108
1567620399,367.457,-11.8318,24.2218,178.879,-0.153809,88.396,108
1567620399,367.457,-11.8318,24.2218,178.879,-0.153809,88.396,108
1567620399,367.457,-11.8318,24.2218,178.879,-0.153809,88.396,108
1567620399,367.457,-11.8318,24.2218,178.879,-0.153809,88.396,108
1567620399,367.457,-11.8318,24.2218,178.879,-0.153809,88.396,108
1567620399,367.457,-11.8318,24.2218,178.879,-0.153809,88.396,108
1567620399,367.457,-11.8318,24.2218,178.879,-0.153809,88.396,104
1567620399,367.457,-11.8318,24.2218,178.879,-0.153809,88.396,104
1567620399,367.457,-11.8318,24.2218,178.879,-0.131836,88.396,104
1567620399,367.457,-11.8318,24.2218,178.879,-0.131836,88.396,104
1567620399,367.457,-11.8318,24.2218,178.879,-0.131836,88.396,104
1567620399,367.457,-11.8318,24.2218,178.879,-0.131836,88.396,104
1567620399,367.457,-11.8318,24.2218,178.879,-0.131836,88.396,104
1567620399,367.457,-11.8318,24.2218,178.879,-0.131836,88.396,104
1567620399,367.568,-11.8318,24.2218,178.879,-0.153809,88.396,104
1567620399,367.568,-11.8318,24.2218,178.879,-0.153809,88.396,104
1567620399,367.568,-11.8318,24.2218,178.879,-0.153809,88.396,104
1567620399,367.568,-11.8318,24.2218,178.879,-0.153809,88.396,104
1567620399,367.568,-11.8318,24.2218,178.879,-0.153809,88.396,104
1567620399,367.568,-11.8318,24.2218,178.879,-0.153809,88.396,104
1567620399,367.568,-11.8318,24.2218,178.879,-0.153809,88.396,104
1567620399,367.568,-11.8318,24.2218,178.879,-0.153809,88.396,104
1567620399,367.568,-11.8318,24.2218,178.879,-0.153809,88.396,104
1567620399,367.568,-11.8318,24.2218,178.879,-0.153809,88.396,104
1567620399,367.568,-11.8318,24.2218,178.879,-0.153809,88.396,104
1567620399,367.568,-11.8318,24.2218,178.879,-0.153809,88.396,104
1567620399,367.568,-11.8318,24.2218,178.879,-0.153809,88.396,104
1567620399,367.568,-11.8318,24.2218,178.879,-0.153809,88.396,104
1567620399,367.568,-11.8318,24.2218,178.879,-0.153809,88.396,104
1567620399,367.568,-11.8318,24.2218,178.879,-0.153809,88.396,104
1567620399,367.568,-11.8318,24.2218,178.879,-0.153809,88.396,104
1567620399,367.568,-11.8318,24.2218,178.879,-0.153809,88.396,104
1567620399,367.457,-11.8318,24.2218,178.879,-0.153809,88.396,104
1567620399,367.457,-11.8318,24.2218,178.879,-0.153809,88.396,104
1567620399,367.457,-11.8318,24.2218,178.879,-0.153809,88.396,104
1567620399,367.457,-11.8318,24.2218,178.879,-0.153809,88.396,104
1567620399,367.457,-11.8318,24.2218,178.879,-0.153809,88.396,104
1567620399,367.457,-11.8318,24.2218,178.879,-0.153809,88.396,104
1567620399,367.457,-11.8318,24.2218,178.879,-0.153809,88.396,104
1567620399,367.457,-11.8318,24.2218,178.879,-0.153809,88.396,104
1567620399,367.457,-11.8318,24.2218,178.879,-0.153809,88.396,104
1567620399,367.568,-11.8318,24.2218,178.879,-0.153809,88.396,104
1567620399,367.568,-11.8318,24.2218,178.879,-0.153809,88.396,104
1567620399,367.568,-11.8318,24.2218,178.879,-0.153809,88.396,104
1567620399,367.568,-11.8318,24.2218,178.879,-0.153809,88.396,104
1567620399,367.568,-11.8318,24.2218,178.879,-0.153809,88.396,104
1567620399,367.568,-11.8318,24.2218,178.879,-0.153809,88.396,104
1567620399,367.568,-11.8318,24.2218,178.879,-0.153809,88.396,104
1567620399,367.568,-11.8318,24.2218,178.879,-0.153809,88.396,104
1567620399,367.568,-11.8318,24.2218,178.879,-0.153809,88.396,104
1567620399,367.568,-11.8318,24.2218,178.879,-0.153809,88.396,104
1567620400,367.568,-11.8318,24.2218,178.879,-0.153809,88.396,104
1567620400,367.568,-11.8318,24.2218,178.879,-0.153809,88.396,104
1567620400,367.568,-11.8318,24.2218,178.879,-0.153809,88.396,104
1567620400,367.568,-11.8318,24.2218,178.879,-0.153809,88.396,104
1567620400,367.568,-11.8318,24.2218,178.879,-0.153809,88.396,104
1567620400,367.568,-11.8318,24.2218,178.879,-0.153809,88.396,104
1567620400,367.568,-11.8318,24.2218,178.879,-0.153809,88.396,104
1567620400,367.568,-11.8318,24.2218,178.879,-0.153809,88.396,104
1567620400,367.568,-11.8318,24.2218,178.879,-0.153809,88.396,104
1567620400,367.568,-11.8318,24.2218,178.879,-0.153809,88.396,104
1567620400,367.568,-11.8318,24.2218,178.879,-0.153809,88.396,104
1567620400,367.568,-11.8318,24.2218,178.879,-0.153809,88.396,104
1567620400,367.568,-11.8318,24.2218,178.879,-0.153809,88.396,104
1567620400,367.568,-11.8318,24.2218,178.879,-0.153809,88.396,104
1567620400,367.568,-11.8318,24.2218,178.879,-0.153809,88.396,104
1567620400,367.568,-11.8318,24.2218,178.879,-0.153809,88.396,104
1567620400,367.568,-11.8318,24.2218,178.879,-0.153809,88.396,104
1567620400,367.568,-11.8318,24.2218,178.879,-0.153809,88.396,104
1567620400,367.568,-11.8318,24.2218,178.879,-0.153809,88.396,104
1567620400,367.568,-11.8318,24.2218,178.879,-0.153809,88.396,104
1567620400,367.568,-11.8318,24.2218,178.879,-0.153809,88.396,104
1567620400,367.457,-11.8318,24.2218,178.879,-0.131836,88.396,104
1567620400,367.457,-11.8318,24.2218,178.879,-0.131836,88.396,104
1567620400,367.457,-11.8318,24.2218,178.879,-0.131836,88.396,104
1567620400,367.457,-11.8318,24.2218,178.879,-0.131836,88.396,104
1567620400,367.457,-11.8318,24.2218,178.879,-0.131836,88.396,104
1567620400,367.457,-11.8318,24.2218,178.879,-0.131836,88.396,104
1567620400,367.457,-11.8318,24.2218,178.879,-0.131836,88.396,104
1567620400,367.457,-11.8318,24.2218,178.879,-0.131836,88.396,104
1567620400,367.457,-11.8318,24.2218,178.879,-0.131836,88.396,104
1567620400,367.457,-11.8318,24.2218,178.879,-0.131836,88.396,104
1567620400,367.457,-11.8318,24.2218,178.879,-0.131836,88.396,104
1567620400,367.457,-11.8318,24.2218,178.879,-0.131836,88.396,104
1567620400,367.457,-11.8318,24.2218,178.879,-0.131836,88.396,104
1567620400,367.457,-11.8318,24.2218,178.879,-0.131836,88.396,104
1567620400,367.568,-11.8318,24.2218,178.879,-0.131836,88.396,104
1567620400,367.568,-11.8318,24.2218,178.879,-0.131836,88.396,104
1567620400,367.568,-11.8318,24.2218,178.879,-0.131836,88.396,104
1567620400,367.568,-11.8318,24.2218,178.879,-0.131836,88.396,104
1567620400,367.568,-11.8318,24.2218,178.879,-0.131836,88.396,104
1567620400,367.568,-11.8318,24.2218,178.879,-0.131836,88.396,104
1567620400,367.568,-11.8318,24.2218,178.879,-0.131836,88.396,104
1567620400,367.568,-11.8318,24.2218,178.879,-0.131836,88.396,104
1567620400,367.568,-11.8318,24.2218,178.879,-0.131836,88.396,104
1567620400,367.568,-11.8318,24.2218,178.879,-0.153809,88.396,104
1567620400,367.568,-11.8318,24.2218,178.879,-0.153809,88.396,104
1567620400,367.568,-11.8318,24.2218,178.879,-0.153809,88.396,104
1567620400,367.568,-11.8318,24.2218,178.879,-0.153809,88.396,104
1567620400,367.568,-11.8318,24.2218,178.879,-0.153809,88.396,104
1567620400,367.568,-11.8318,24.2218,178.879,-0.153809,88.396,104
1567620400,367.568,-11.8318,24.2218,178.879,-0.153809,88.396,104
1567620400,367.568,-11.8318,24.2218,178.879,-0.153809,88.396,104
1567620400,367.568,-11.8318,24.2218,178.879,-0.153809,88.396,104
1567620400,367.568,-11.8318,24.2218,178.879,-0.153809,88.396,104
1567620400,367.568,-11.8318,24.2218,178.879,-0.153809,88.396,104
1567620400,367.568,-11.8318,24.2218,178.879,-0.153809,88.396,104
1567620400,367.568,-11.8318,24.2218,178.879,-0.153809,88.396,104
1567620400,367.568,-11.8318,24.2218,178.879,-0.153809,88.396,104
1567620400,367.568,-11.8318,24.2218,178.879,-0.153809,88.396,104
1567620400,367.568,-11.8318,24.2218,178.879,-0.153809,88.396,104
1567620400,367.568,-11.8318,24.2218,178.879,-0.153809,88.396,104
1567620400,367.568,-11.8318,24.2218,178.879,-0.153809,88.396,104
1567620400,367.568,-11.8318,24.2218,178.879,-0.153809,88.396,104
1567620400,367.568,-11.8318,24.2218,178.879,-0.153809,88.396,104
1567620400,367.568,-11.8318,24.2218,178.879,-0.153809,88.396,104
1567620400,367.568,-11.8318,24.2218,178.879,-0.153809,88.396,104
1567620400,367.568,-11.8318,24.2218,178.879,-0.153809,88.396,104
1567620400,367.568,-11.8318,24.2218,178.879,-0.153809,88.396,104
1567620400,367.568,-11.8318,24.2218,178.879,-0.153809,88.396,104
1567620400,367.568,-11.8318,24.2218,178.879,-0.153809,88.396,104
1567620400,367.568,-11.8318,24.2218,178.879,-0.153809,88.396,104
1567620400,367.568,-11.8318,24.2218,178.879,-0.153809,88.396,104
1567620400,367.568,-11.8318,24.2218,178.879,-0.153809,88.396,104
1567620400,367.568,-11.8318,24.2218,178.879,-0.153809,88.396,104
1567620400,367.568,-11.8318,24.2218,178.879,-0.153809,88.396,104
1567620400,367.568,-11.8318,24.2218,178.879,-0.153809,88.396,104
1567620400,367.568,-11.8318,24.2218,178.879,-0.153809,88.396,104
1567620400,367.568,-11.8318,24.2218,178.879,-0.153809,88.396,104
1567620400,367.568,-11.8318,24.2218,178.879,-0.153809,88.396,104
1567620400,367.568,-11.8318,24.2218,178.879,-0.153809,88.396,104
1567620400,367.568,-11.8318,24.2218,178.879,-0.153809,88.396,104
1567620400,367.568,-11.8318,24.2218,178.879,-0.153809,88.396,104
1567620400,367.568,-11.8318,24.2218,178.879,-0.153809,88.396,104
1567620400,367.568,-11.8318,24.2218,178.879,-0.153809,88.396,104
1567620400,367.568,-11.8318,24.2218,178.879,-0.153809,88.396,104
1567620400,367.568,-11.8318,24.2218,178.879,-0.153809,88.396,104
1567620400,367.568,-11.8318,24.2218,178.879,-0.153809,88.396,104
1567620400,367.568,-11.8318,24.2218,178.879,-0.153809,88.396,104
1567620400,367.568,-11.8318,24.2218,178.879,-0.153809,88.396,104
1567620400,367.568,-11.8318,24.2218,178.879,-0.153809,88.396,104
1567620400,367.568,-11.8318,24.2218,178.879,-0.153809,88.396,104
1567620400,367.568,-11.8318,24.2218,178.879,-0.153809,88.396,104
1567620400,367.568,-11.8318,24.2218,178.879,-0.153809,88.396,104
1567620400,367.568,-11.8318,24.2218,178.879,-0.153809,88.396,104
1567620400,367.568,-11.8318,24.2218,178.879,-0.153809,88.396,104
1567620400,367.568,-11.8318,24.2218,178.879,-0.153809,88.396,104
1567620400,367.568,-11.8318,24.2218,178.879,-0.153809,88.396,104
1567620400,367.568,-11.8318,24.2218,178.879,-0.153809,88.396,104
1567620400,367.568,-11.8318,24.2218,178.879,-0.153809,88.396,104
1567620400,367.568,-11.8318,24.2218,178.879,-0.153809,88.396,104
1567620401,367.568,-11.8318,24.2218,178.879,-0.153809,88.396,104
1567620401,367.568,-11.8318,24.2218,178.879,-0.153809,88.396,104
1567620401,367.568,-11.8318,24.2218,178.879,-0.153809,88.396,104
1567620401,367.568,-11.8318,24.2218,178.879,-0.153809,88.396,104
1567620401,367.568,-11.8318,24.2218,178.879,-0.153809,88.396,104
1567620401,367.568,-11.8318,24.2218,178.901,-0.153809,88.396,104
1567620401,367.568,-11.8318,24.2218,178.901,-0.153809,88.396,104
1567620401,367.568,-11.8318,24.2218,178.879,-0.153809,88.396,104
1567620401,367.568,-11.8318,24.2218,178.879,-0.153809,88.396,104
1567620401,367.568,-11.8318,24.2218,178.879,-0.153809,88.396,104
1567620401,367.568,-11.8318,24.2218,178.879,-0.153809,88.396,104
1567620401,367.568,-11.8318,24.2218,178.879,-0.153809,88.396,104
1567620401,367.568,-11.8318,24.2218,178.879,-0.153809,88.396,104
1567620401,367.568,-11.8318,24.2218,178.879,-0.153809,88.396,104
1567620401,367.568,-11.8318,24.2218,178.879,-0.153809,88.396,104
1567620401,367.568,-11.8318,24.2218,178.879,-0.153809,88.396,104
1567620401,367.568,-11.8318,24.2218,178.879,-0.153809,88.396,104
1567620401,367.568,-11.8318,24.2218,178.879,-0.153809,88.396,104
1567620401,367.568,-11.8318,24.2218,178.879,-0.153809,88.396,104
1567620401,367.568,-11.8318,24.2218,178.879,-0.153809,88.396,104
1567620401,367.568,-11.8318,24.2218,178.879,-0.153809,88.396,104
1567620401,367.568,-11.8318,24.2218,178.879,-0.153809,88.396,104
1567620401,367.568,-11.8318,24.2218,178.879,-0.153809,88.396,104
1567620401,367.568,-11.8318,24.2218,178.879,-0.153809,88.396,104
1567620401,367.568,-11.8318,24.2218,178.879,-0.153809,88.396,104
1567620401,367.568,-11.8318,24.2218,178.879,-0.153809,88.396,104
1567620401,367.568,-11.8318,24.2218,178.879,-0.153809,88.396,104
1567620401,367.568,-11.8318,24.2218,178.879,-0.153809,88.396,104
1567620401,367.568,-11.8318,24.2218,178.879,-0.153809,88.396,104
1567620401,367.568,-11.8318,24.2218,178.879,-0.153809,88.396,104
1567620401,367.568,-11.8318,24.2218,178.879,-0.153809,88.396,104
1567620401,367.568,-11.8318,24.2218,178.879,-0.153809,88.396,104
1567620401,367.568,-11.8318,24.2218,178.879,-0.153809,88.396,104
1567620401,367.568,-11.8318,24.2218,178.879,-0.153809,88.396,104
1567620401,367.568,-11.8318,24.2218,178.879,-0.153809,88.396,104
1567620401,367.568,-11.8318,24.2218,178.879,-0.153809,88.396,104
1567620401,367.568,-11.8318,24.2218,178.879,-0.153809,88.396,104
1567620401,367.568,-11.8318,24.2218,178.879,-0.153809,88.396,104
1567620401,367.568,-11.8318,24.2218,178.879,-0.153809,88.396,104
1567620401,367.568,-11.8318,24.2218,178.879,-0.153809,88.396,104
1567620401,367.568,-11.8318,24.2218,178.879,-0.153809,88.396,104
1567620401,367.568,-11.8318,24.2218,178.879,-0.153809,88.396,104
1567620401,367.568,-11.8318,24.2218,178.879,-0.153809,88.396,104
1567620401,367.457,-11.8318,24.2218,178.879,-0.153809,88.396,104
1567620401,367.457,-11.8318,24.2218,178.879,-0.153809,88.396,104
1567620401,367.457,-11.8318,24.2218,178.879,-0.153809,88.396,104
1567620401,367.457,-11.8318,24.2218,178.879,-0.153809,88.396,104
1567620401,367.457,-11.8318,24.2218,178.879,-0.153809,88.396,104
1567620401,367.457,-11.8318,24.2218,178.879,-0.153809,88.396,104
1567620401,367.457,-11.8318,24.2218,178.879,-0.153809,88.396,104
1567620401,367.457,-11.8318,24.2218,178.879,-0.153809,88.396,104
1567620401,367.457,-11.8318,24.2218,178.879,-0.153809,88.396,104
1567620401,367.457,-11.8318,24.2218,178.879,-0.153809,88.396,104
1567620401,367.457,-11.8318,24.2218,178.879,-0.153809,88.396,104
1567620401,367.457,-11.8318,24.2218,178.879,-0.153809,88.396,104
1567620401,367.457,-11.8318,24.2218,178.879,-0.153809,88.396,104
1567620401,367.457,-11.8318,24.2218,178.879,-0.153809,88.396,104
1567620401,367.457,-11.8318,24.2218,178.879,-0.153809,88.396,104
1567620401,367.457,-11.8318,24.2218,178.879,-0.153809,88.396,104
1567620401,367.457,-11.8318,24.2218,178.879,-0.153809,88.396,104
1567620401,367.457,-11.8318,24.2218,178.879,-0.153809,88.396,104
1567620401,367.457,-11.8318,24.2218,178.879,-0.153809,88.396,104
1567620401,367.457,-11.8318,24.2218,178.879,-0.153809,88.396,104
1567620401,367.457,-11.8318,24.2218,178.879,-0.153809,88.396,104
1567620401,367.457,-11.8318,24.2218,178.879,-0.153809,88.396,104
1567620401,367.457,-11.8318,24.2218,178.879,-0.153809,88.396,104
1567620401,367.457,-11.8318,24.2218,178.879,-0.153809,88.396,104
1567620401,367.457,-11.8318,24.2218,178.879,-0.153809,88.396,104
1567620401,367.457,-11.8318,24.2218,178.879,-0.153809,88.396,104
1567620401,367.457,-11.8318,24.2218,178.879,-0.153809,88.396,104
1567620401,367.457,-11.8318,24.2218,178.879,-0.153809,88.396,104
1567620401,367.457,-11.8318,24.2218,178.879,-0.153809,88.396,104
1567620401,367.457,-11.8318,24.2218,178.879,-0.153809,88.396,104
1567620401,367.457,-11.8318,24.2218,178.879,-0.153809,88.396,104
1567620401,367.457,-11.8318,24.2218,178.879,-0.153809,88.396,104
1567620401,367.568,-11.8318,24.2218,178.879,-0.153809,88.396,104
1567620401,367.568,-11.8318,24.2218,178.879,-0.153809,88.396,104
1567620401,367.568,-11.8318,24.2218,178.879,-0.153809,88.396,104
1567620401,367.568,-11.8318,24.2218,178.879,-0.153809,88.396,104
1567620401,367.568,-11.8318,24.2218,178.879,-0.153809,88.396,104
1567620401,367.568,-11.8318,24.2218,178.879,-0.153809,88.396,104
1567620401,367.568,-11.8318,24.2218,178.879,-0.153809,88.396,104
1567620401,367.568,-11.8318,24.2218,178.879,-0.153809,88.396,104
1567620401,367.568,-11.8318,24.2218,178.879,-0.153809,88.396,104
1567620401,367.568,-11.8318,24.2218,178.879,-0.153809,88.396,104
1567620401,367.568,-11.8318,24.2218,178.879,-0.153809,88.396,104
1567620401,367.568,-11.8318,24.2218,178.879,-0.153809,88.396,104
1567620401,367.568,-11.8318,24.2218,178.879,-0.153809,88.396,104
1567620401,367.568,-11.8318,24.2218,178.879,-0.153809,88.396,104
1567620401,367.568,-11.8318,24.2218,178.879,-0.153809,88.396,104
1567620401,367.568,-11.8318,24.2218,178.879,-0.153809,88.396,104
1567620401,367.568,-11.8318,24.2218,178.879,-0.153809,88.396,104
1567620401,367.457,-11.8318,24.2218,178.879,-0.153809,88.396,104
1567620401,367.457,-11.8318,24.2218,178.879,-0.153809,88.396,104
1567620401,367.457,-11.8318,24.2218,178.879,-0.153809,88.396,104
1567620401,367.457,-11.8318,24.2218,178.879,-0.153809,88.396,104
1567620401,367.457,-11.8318,24.2218,178.879,-0.153809,88.396,104
1567620401,367.457,-11.8318,24.2218,178.879,-0.153809,88.396,104
1567620401,367.457,-11.8318,24.2218,178.879,-0.153809,88.396,104
1567620401,367.457,-11.8318,24.2218,178.879,-0.153809,88.374,104
1567620402,367.457,-11.8318,24.2218,178.879,-0.153809,88.374,104
1567620402,367.457,-11.8318,24.2218,178.879,-0.153809,88.374,104
1567620402,367.457,-11.8318,24.2218,178.879,-0.153809,88.374,104
1567620402,367.457,-11.8318,24.2218,178.879,-0.153809,88.374,104
1567620402,367.457,-11.8318,24.2218,178.879,-0.153809,88.374,104
1567620402,367.457,-11.8318,24.2218,178.879,-0.153809,88.374,104
1567620402,367.457,-11.8318,24.2218,178.879,-0.153809,88.374,104
1567620402,367.457,-11.8318,24.2218,178.879,-0.153809,88.374,104
1567620402,367.568,-11.8318,24.2218,178.879,-0.153809,88.374,104
1567620402,367.568,-11.8318,24.2218,178.879,-0.153809,88.374,104
1567620402,367.568,-11.8318,24.2218,178.879,-0.153809,88.374,104
1567620402,367.568,-11.8318,24.2218,178.879,-0.153809,88.374,104
1567620402,367.568,-11.8318,24.2218,178.879,-0.153809,88.396,104
1567620402,367.568,-11.8318,24.2218,178.879,-0.153809,88.396,104
1567620402,367.568,-11.8318,24.2218,178.879,-0.153809,88.396,104
1567620402,367.568,-11.8318,24.2218,178.879,-0.153809,88.396,104
1567620402,367.568,-11.8318,24.2218,178.879,-0.153809,88.396,104
1567620402,367.568,-11.8318,24.2218,178.879,-0.153809,88.396,108
1567620402,367.568,-11.8318,24.2218,178.879,-0.153809,88.396,108
1567620402,367.568,-11.8318,24.2218,178.879,-0.153809,88.396,108
1567620408,367.457,-11.8318,24.2218,178.879,-0.153809,88.396,104
1567620408,367.457,-11.8318,24.2218,178.879,-0.153809,88.396,104
1567620408,367.457,-11.8318,24.2218,178.879,-0.153809,88.396,104
1567620408,367.457,-11.8318,24.2218,178.879,-0.153809,88.396,104
1567620408,367.457,-11.8318,24.2218,178.879,-0.153809,88.396,104
1567620408,367.457,-11.8318,24.2218,178.879,-0.153809,88.396,104
1567620408,367.457,-11.8318,24.2218,178.879,-0.153809,88.396,104
1567620408,367.457,-11.8318,24.2218,178.879,-0.153809,88.396,104
1567620408,367.457,-11.8318,24.2218,178.879,-0.153809,88.396,104
1567620408,367.457,-11.8318,24.2218,178.879,-0.153809,88.396,104
1567620408,367.457,-11.8318,24.2218,178.879,-0.153809,88.396,104
1567620408,367.457,-11.8318,24.2218,178.879,-0.153809,88.396,104
1567620408,367.457,-11.8318,24.2218,178.879,-0.153809,88.396,104
1567620408,367.457,-11.8318,24.2218,178.879,-0.153809,88.396,104
1567620408,367.457,-11.8318,24.2218,178.879,-0.153809,88.396,104
1567620409,367.457,-11.8318,24.2218,178.879,-0.153809,88.396,104
1567620409,367.457,-11.8318,24.2218,178.879,-0.153809,88.396,104
1567620409,367.457,-11.8318,24.2218,178.879,-0.153809,88.396,104
1567620409,367.457,-11.8318,24.2218,178.879,-0.153809,88.396,104
1567620409,367.457,-11.8318,24.2218,178.879,-0.153809,88.396,104
1567620409,367.457,-11.8318,24.2218,178.879,-0.153809,88.396,104
1567620409,367.457,-11.8318,24.2218,178.879,-0.153809,88.396,104
1567620409,367.457,-11.8318,24.2218,178.879,-0.153809,88.396,104
1567620409,367.457,-11.8318,24.2218,178.879,-0.153809,88.396,104
1567620409,367.457,-11.8318,24.2218,178.879,-0.153809,88.396,104
1567620409,367.457,-11.8318,24.2218,178.879,-0.153809,88.396,104
1567620409,367.457,-11.8318,24.2218,178.879,-0.153809,88.396,104
1567620409,367.457,-11.8318,24.2218,178.879,-0.153809,88.396,104
1567620409,367.457,-11.8318,24.2218,178.879,-0.153809,88.396,104
1567620409,367.457,-11.8318,24.2218,178.879,-0.153809,88.396,104
1567620409,367.457,-11.8318,24.2218,178.879,-0.153809,88.396,104
1567620409,367.457,-11.8318,24.2218,178.879,-0.153809,88.396,104
1567620409,367.457,-11.8318,24.2218,178.879,-0.153809,88.396,104
1567620409,367.457,-11.8318,24.2218,178.879,-0.153809,88.396,104
1567620409,367.457,-11.8318,24.2218,178.879,-0.153809,88.396,104
1567620409,367.457,-11.8318,24.2218,178.879,-0.153809,88.396,104
1567620409,367.457,-11.8318,24.2218,178.879,-0.153809,88.396,104
1567620409,367.457,-11.8318,24.2218,178.879,-0.153809,88.396,104
1567620409,367.457,-11.8318,24.2218,178.879,-0.153809,88.396,104
1567620409,367.457,-11.8318,24.2218,178.879,-0.153809,88.396,104
1567620409,367.457,-11.8318,24.2218,178.879,-0.153809,88.396,104
1567620409,367.457,-11.8318,24.2218,178.879,-0.153809,88.396,104
1567620409,367.457,-11.8318,24.2218,178.879,-0.153809,88.396,104
1567620409,367.457,-11.8318,24.2218,178.879,-0.153809,88.396,104
1567620409,367.457,-11.8318,24.2218,178.879,-0.153809,88.396,104
1567620409,367.568,-11.8318,24.2218,178.879,-0.153809,88.396,104
1567620409,367.568,-11.8318,24.2218,178.879,-0.153809,88.396,104
1567620409,367.457,-11.8318,24.2218,178.879,-0.153809,88.396,104
1567620409,367.457,-11.8318,24.2218,178.879,-0.153809,88.396,104
1567620409,367.457,-11.8318,24.2218,178.879,-0.153809,88.396,104
1567620409,367.568,-11.8318,24.2218,178.879,-0.153809,88.396,104
1567620409,367.568,-11.8318,24.2218,178.879,-0.153809,88.396,104
1567620409,367.568,-11.8318,24.2218,178.879,-0.153809,88.396,104
1567620409,367.568,-11.8318,24.2218,178.901,-0.153809,88.396,104
1567620409,367.568,-11.8318,24.2218,178.901,-0.153809,88.396,104
1567620409,367.568,-11.8318,24.2218,178.901,-0.153809,88.396,104
1567620409,367.568,-11.8318,24.2218,178.901,-0.153809,88.396,104
1567620409,367.568,-11.8318,24.2218,178.901,-0.153809,88.396,104
1567620409,367.568,-11.8318,24.2218,178.879,-0.153809,88.396,104
1567620409,367.568,-11.8318,24.2218,178.879,-0.153809,88.396,104
1567620409,367.568,-11.8318,24.2218,178.879,-0.153809,88.396,104
1567620409,367.568,-11.8318,24.2218,178.879,-0.153809,88.396,104
1567620409,367.568,-11.8318,24.2218,178.879,-0.153809,88.396,104
1567620409,367.568,-11.8318,24.2218,178.879,-0.153809,88.396,104
1567620409,367.457,-11.8318,24.2218,178.879,-0.153809,88.396,104
1567620409,367.457,-11.8318,24.2218,178.879,-0.153809,88.396,104
1567620409,367.457,-11.8318,24.2218,178.879,-0.153809,88.396,104
1567620409,367.457,-11.8318,24.2218,178.879,-0.153809,88.396,104
1567620409,367.457,-11.8318,24.2218,178.879,-0.153809,88.396,104
1567620409,367.457,-11.8318,24.2218,178.879,-0.153809,88.396,104
1567620409,367.457,-11.8318,24.2218,178.879,-0.153809,88.396,104
1567620409,367.457,-11.8318,24.2218,178.879,-0.153809,88.396,104
1567620409,367.457,-11.8318,24.2218,178.879,-0.153809,88.396,104
1567620409,367.457,-11.8318,24.2218,178.879,-0.153809,88.396,104
1567620409,367.457,-11.8318,24.2218,178.879,-0.153809,88.396,104
1567620409,367.457,-11.8318,24.2218,178.879,-0.153809,88.396,104
1567620409,367.457,-11.8318,24.2218,178.879,-0.153809,88.396,104
1567620409,367.457,-11.8318,24.2218,178.879,-0.153809,88.396,104
1567620409,367.457,-11.8318,24.2218,178.879,-0.153809,88.396,104
1567620409,367.457,-11.8318,24.2218,178.879,-0.153809,88.396,104
1567620409,367.457,-11.8318,24.2218,178.879,-0.153809,88.396,104
1567620409,367.457,-11.8318,24.2218,178.879,-0.153809,88.396,104
1567620409,367.568,-11.8318,24.2218,178.879,-0.153809,88.396,104
1567620409,367.568,-11.8318,24.2218,178.879,-0.153809,88.396,104
1567620409,367.568,-11.8318,24.2218,178.879,-0.153809,88.396,104
1567620409,367.568,-11.8318,24.2218,178.879,-0.153809,88.396,104
1567620409,367.568,-11.8318,24.2218,178.879,-0.153809,88.396,104
1567620409,367.568,-11.8318,24.2218,178.879,-0.153809,88.396,104
1567620409,367.568,-11.8318,24.2218,178.879,-0.153809,88.396,104
1567620409,367.568,-11.8318,24.2218,178.879,-0.153809,88.396,104
1567620409,367.568,-11.8318,24.2218,178.879,-0.153809,88.396,104
1567620409,367.568,-11.8318,24.2218,178.879,-0.153809,88.396,104
1567620409,367.568,-11.8318,24.2218,178.879,-0.153809,88.396,104
1567620409,367.568,-11.8318,24.2218,178.879,-0.153809,88.396,104
1567620409,367.568,-11.8318,24.2218,178.879,-0.153809,88.396,104
1567620409,367.568,-11.8318,24.2218,178.879,-0.153809,88.396,104
1567620409,367.568,-11.8318,24.2218,178.879,-0.153809,88.396,104
1567620409,367.568,-11.8318,24.2218,178.879,-0.153809,88.396,104
1567620409,367.568,-11.8318,24.2218,178.879,-0.153809,88.396,104
1567620409,367.568,-11.8318,24.2218,178.879,-0.153809,88.396,104
1567620409,367.568,-11.8318,24.2218,178.879,-0.153809,88.396,104
1567620409,367.568,-11.8318,24.2218,178.879,-0.153809,88.396,104
1567620409,367.568,-11.8318,24.2218,178.879,-0.153809,88.396,104
1567620409,367.568,-11.8318,24.2218,178.879,-0.153809,88.396,104
1567620409,367.457,-11.8318,24.2218,178.879,-0.153809,88.396,104
1567620409,367.457,-11.8318,24.2218,178.879,-0.153809,88.396,104
1567620409,367.457,-11.8318,24.2218,178.879,-0.153809,88.396,104
1567620409,367.457,-11.8318,24.2218,178.879,-0.153809,88.396,104
1567620409,367.457,-11.8318,24.2218,178.879,-0.153809,88.396,104
1567620409,367.457,-11.8318,24.2218,178.879,-0.153809,88.396,104
1567620409,367.457,-11.8318,24.2218,178.879,-0.131836,88.396,104
1567620409,367.457,-11.8318,24.2218,178.879,-0.131836,88.396,104
1567620409,367.457,-11.8318,24.2218,178.879,-0.131836,88.396,104
1567620409,367.457,-11.8318,24.2218,178.879,-0.153809,88.396,104
1567620409,367.457,-11.8318,24.2218,178.879,-0.153809,88.396,104
1567620410,367.457,-11.8318,24.2218,178.879,-0.153809,88.396,104
1567620410,367.457,-11.8318,24.2218,178.879,-0.153809,88.396,104
1567620410,367.457,-11.8318,24.2218,178.879,-0.153809,88.396,104
1567620410,367.457,-11.8318,24.2218,178.879,-0.153809,88.396,104
1567620410,367.457,-11.8318,24.2218,178.879,-0.153809,88.396,104
1567620410,367.457,-11.8318,24.2218,178.879,-0.153809,88.396,104
1567620410,367.457,-11.8318,24.2218,178.879,-0.153809,88.396,104
1567620410,367.457,-11.8318,24.2218,178.879,-0.153809,88.396,104
1567620410,367.457,-11.8318,24.2218,178.879,-0.153809,88.396,104
1567620410,367.457,-11.8318,24.2218,178.879,-0.153809,88.396,104
1567620410,367.457,-11.8318,24.2218,178.879,-0.153809,88.396,104
1567620410,367.457,-11.8318,24.2218,178.879,-0.153809,88.396,104
1567620410,367.457,-11.8318,24.2218,178.879,-0.153809,88.396,104
1567620410,367.457,-11.8318,24.2218,178.879,-0.153809,88.396,104
1567620410,367.457,-11.8318,24.2218,178.879,-0.153809,88.396,104
1567620410,367.457,-11.8318,24.2218,178.879,-0.153809,88.396,104
1567620410,367.457,-11.8318,24.2218,178.879,-0.153809,88.396,104
1567620410,367.457,-11.8318,24.2218,178.879,-0.153809,88.396,104
1567620410,367.457,-11.8318,24.2218,178.879,-0.153809,88.396,104
1567620410,367.457,-11.8318,24.2218,178.879,-0.153809,88.396,104
1567620410,367.457,-11.8318,24.2218,178.879,-0.153809,88.396,104
1567620410,367.457,-11.8318,24.2218,178.879,-0.153809,88.396,104
1567620410,367.457,-11.8318,24.2218,178.879,-0.153809,88.396,104
1567620410,367.457,-11.8318,24.2218,178.879,-0.153809,88.396,104
1567620410,367.457,-11.8318,24.2218,178.879,-0.153809,88.396,104
1567620410,367.457,-11.8318,24.2218,178.879,-0.153809,88.396,104
1567620410,367.457,-11.8318,24.2218,178.879,-0.153809,88.396,104
1567620410,367.457,-11.8318,24.2218,178.879,-0.153809,88.396,104
1567620410,367.457,-11.8318,24.2218,178.879,-0.153809,88.396,104
1567620410,367.457,-11.8318,24.2218,178.879,-0.153809,88.396,104
1567620410,367.457,-11.8318,24.2218,178.879,-0.153809,88.396,104
1567620410,367.457,-11.8318,24.2218,178.879,-0.153809,88.396,104
1567620410,367.457,-11.8318,24.2218,178.879,-0.153809,88.396,104
1567620410,367.457,-11.8318,24.2218,178.879,-0.153809,88.396,104
1567620410,367.457,-11.8318,24.2218,178.879,-0.153809,88.396,104
1567620410,367.457,-11.8318,24.2218,178.879,-0.153809,88.396,104
1567620410,367.457,-11.8318,24.2218,178.879,-0.153809,88.396,104
1567620410,367.457,-11.8318,24.2218,178.879,-0.153809,88.396,104
1567620410,367.457,-11.8318,24.2218,178.879,-0.153809,88.396,104
1567620410,367.457,-11.8318,24.2218,178.879,-0.153809,88.396,104
1567620410,367.457,-11.8318,24.2218,178.879,-0.153809,88.396,104
1567620410,367.457,-11.8318,24.2218,178.879,-0.153809,88.396,104
1567620410,367.457,-11.8318,24.2218,178.879,-0.153809,88.396,104
1567620410,367.457,-11.8318,24.2218,178.879,-0.153809,88.396,104
1567620410,367.457,-11.8318,24.2218,178.879,-0.153809,88.396,104
1567620410,367.457,-11.8318,24.2218,178.879,-0.153809,88.396,104
1567620410,367.457,-11.8318,24.2218,178.879,-0.153809,88.396,104
1567620410,367.457,-11.8318,24.2218,178.879,-0.153809,88.396,104
1567620410,367.457,-11.8318,24.2218,178.879,-0.153809,88.396,104
1567620410,367.457,-11.8318,24.2218,178.879,-0.153809,88.396,104
1567620410,367.457,-11.8318,24.2218,178.879,-0.153809,88.396,104
1567620410,367.457,-11.8318,24.2218,178.879,-0.153809,88.396,104
1567620410,367.457,-11.8318,24.2218,178.879,-0.153809,88.396,104
1567620410,367.568,-11.8318,24.2218,178.879,-0.153809,88.396,104
1567620410,367.568,-11.8318,24.2218,178.879,-0.153809,88.396,104
1567620410,367.568,-11.8318,24.2218,178.879,-0.153809,88.396,104
1567620410,367.568,-11.8318,24.2218,178.879,-0.153809,88.396,104
1567620410,367.568,-11.8318,24.2218,178.879,-0.153809,88.396,104
1567620410,367.568,-11.8318,24.2218,178.879,-0.153809,88.396,104
1567620410,367.568,-11.8318,24.2218,178.879,-0.153809,88.396,104
1567620410,367.568,-11.8318,24.2218,178.879,-0.153809,88.396,104
1567620410,367.568,-11.8318,24.2218,178.879,-0.153809,88.396,104
1567620410,367.568,-11.8318,24.2218,178.879,-0.153809,88.396,104
1567620410,367.568,-11.8318,24.2218,178.879,-0.153809,88.396,104
1567620410,367.568,-11.8318,24.2218,178.879,-0.153809,88.396,104
1567620410,367.568,-11.8318,24.2218,178.879,-0.153809,88.396,104
1567620410,367.568,-11.8318,24.2218,178.879,-0.153809,88.396,104
1567620410,367.568,-11.8318,24.2218,178.879,-0.153809,88.396,104
1567620410,367.568,-11.8318,24.2218,178.879,-0.153809,88.396,104
1567620410,367.568,-11.8318,24.2218,178.879,-0.153809,88.396,104
1567620410,367.568,-11.8318,24.2218,178.879,-0.153809,88.396,104
1567620410,367.568,-11.8318,24.2218,178.879,-0.153809,88.396,104
1567620410,367.568,-11.8318,24.2218,178.879,-0.153809,88.396,104
1567620410,367.568,-11.8318,24.2218,178.879,-0.153809,88.396,104
1567620410,367.568,-11.8318,24.2218,178.879,-0.153809,88.396,104
1567620410,367.568,-11.8318,24.2218,178.879,-0.153809,88.396,104
1567620410,367.457,-11.8318,24.2218,178.879,-0.153809,88.396,104
1567620410,367.457,-11.8318,24.2218,178.879,-0.153809,88.396,104
1567620410,367.457,-11.8318,24.2218,178.879,-0.153809,88.396,104
1567620410,367.457,-11.8318,24.2218,178.879,-0.153809,88.396,104
1567620410,367.457,-11.8318,24.2218,178.879,-0.153809,88.396,104
1567620410,367.457,-11.8318,24.2218,178.879,-0.153809,88.396,104
1567620410,367.457,-11.8318,24.2218,178.879,-0.153809,88.396,104
1567620410,367.457,-11.8318,24.2218,178.879,-0.153809,88.396,104
1567620410,367.457,-11.8318,24.2218,178.879,-0.153809,88.396,104
1567620410,367.457,-11.8318,24.2218,178.879,-0.153809,88.396,104
1567620410,367.457,-11.8318,24.2218,178.879,-0.153809,88.396,104
1567620410,367.457,-11.8318,24.2218,178.879,-0.153809,88.396,104
1567620410,367.457,-11.8318,24.2218,178.879,-0.153809,88.396,104
1567620410,367.457,-11.8318,24.2218,178.879,-0.153809,88.396,104
1567620410,367.457,-11.8318,24.2218,178.879,-0.153809,88.396,104
1567620410,367.457,-11.8318,24.2218,178.879,-0.153809,88.396,104
1567620410,367.457,-11.8318,24.2218,178.879,-0.153809,88.396,104
1567620410,367.457,-11.8318,24.2218,178.879,-0.153809,88.396,104
1567620410,367.457,-11.8318,24.2218,178.879,-0.153809,88.396,104
1567620410,367.457,-11.8318,24.2218,178.879,-0.153809,88.396,104
1567620410,367.457,-11.8318,24.2218,178.879,-0.153809,88.396,104
1567620410,367.457,-11.8318,24.2218,178.879,-0.153809,88.396,104
1567620410,367.457,-11.8318,24.2218,178.879,-0.153809,88.396,104
1567620410,367.457,-11.8318,24.2218,178.879,-0.153809,88.396,104
1567620410,367.457,-11.8318,24.2218,178.879,-0.153809,88.396,104
1567620411,367.457,-11.8318,24.2218,178.879,-0.153809,88.396,104
1567620411,367.457,-11.8318,24.2218,178.879,-0.153809,88.396,104
1567620411,367.457,-11.8318,24.2218,178.879,-0.153809,88.396,104
1567620411,367.457,-11.8318,24.2218,178.879,-0.153809,88.396,104
1567620411,367.457,-11.8318,24.2218,178.879,-0.153809,88.396,104
1567620411,367.457,-11.8318,24.2218,178.879,-0.153809,88.396,104
1567620411,367.457,-11.8318,24.2218,178.879,-0.153809,88.396,104
1567620411,367.457,-11.8318,24.2218,178.879,-0.153809,88.396,104
1567620411,367.457,-11.8318,24.2218,178.879,-0.153809,88.396,104
1567620411,367.457,-11.8318,24.2218,178.879,-0.153809,88.396,104
1567620411,367.457,-11.8318,24.2218,178.879,-0.153809,88.396,104
1567620411,367.457,-11.8318,24.2218,178.879,-0.153809,88.396,104
1567620411,367.457,-11.8318,24.2218,178.879,-0.153809,88.396,104
1567620411,367.457,-11.8318,24.2218,178.879,-0.153809,88.396,104
1567620411,367.457,-11.8318,24.2218,178.879,-0.153809,88.396,104
1567620411,367.457,-11.8318,24.2218,178.879,-0.153809,88.396,104
1567620411,367.457,-11.8318,24.2218,178.879,-0.153809,88.396,104
1567620411,367.457,-11.8318,24.2218,178.879,-0.153809,88.396,104
1567620411,367.457,-11.8318,24.2218,178.879,-0.153809,88.396,104
1567620411,367.457,-11.8318,24.2218,178.879,-0.153809,88.396,104
1567620411,367.457,-11.8318,24.2218,178.879,-0.153809,88.396,104
1567620411,367.457,-11.8318,24.2218,178.879,-0.153809,88.396,104
1567620411,367.457,-11.8318,24.2218,178.879,-0.153809,88.396,104
1567620411,367.457,-11.8318,24.2218,178.879,-0.153809,88.396,104
1567620411,367.568,-11.8318,24.2218,178.879,-0.153809,88.396,104
1567620411,367.568,-11.8318,24.2218,178.879,-0.153809,88.396,104
1567620411,367.568,-11.8318,24.2218,178.879,-0.153809,88.396,104
1567620411,367.568,-11.8318,24.2218,178.879,-0.153809,88.396,104
1567620411,367.568,-11.8318,24.2218,178.879,-0.153809,88.396,104
1567620411,367.568,-11.8318,24.2218,178.879,-0.153809,88.396,104
1567620411,367.568,-11.8318,24.2218,178.879,-0.153809,88.396,104
1567620411,367.568,-11.8318,24.2218,178.879,-0.153809,88.396,104
1567620411,367.568,-11.8318,24.2218,178.879,-0.153809,88.396,104
1567620411,367.568,-11.8318,24.2218,178.879,-0.153809,88.396,104
1567620411,367.568,-11.8318,24.2218,178.879,-0.153809,88.396,104
1567620411,367.568,-11.8318,24.2218,178.879,-0.153809,88.396,104
1567620411,367.568,-11.8318,24.2218,178.879,-0.153809,88.396,104
1567620411,367.568,-11.8318,24.2218,178.879,-0.153809,88.396,104
1567620411,367.568,-11.8318,24.2218,178.879,-0.153809,88.396,104
1567620411,367.568,-11.8318,24.2218,178.879,-0.153809,88.396,104
1567620411,367.457,-11.8318,24.2218,178.879,-0.153809,88.396,104
1567620411,367.457,-11.8318,24.2218,178.879,-0.153809,88.396,104
1567620411,367.457,-11.8318,24.2218,178.879,-0.153809,88.396,104
1567620411,367.457,-11.8318,24.2218,178.879,-0.153809,88.396,104
1567620411,367.457,-11.8318,24.2218,178.879,-0.153809,88.396,104
1567620411,367.457,-11.8318,24.2218,178.879,-0.153809,88.396,104
1567620411,367.457,-11.8318,24.2218,178.879,-0.153809,88.396,104
1567620411,367.457,-11.8318,24.2218,178.879,-0.153809,88.396,104
1567620411,367.457,-11.8318,24.2218,178.879,-0.153809,88.396,104
1567620411,367.457,-11.8318,24.2218,178.879,-0.153809,88.396,104
1567620411,367.457,-11.8318,24.2218,178.879,-0.153809,88.396,104
1567620411,367.457,-11.8318,24.2218,178.879,-0.153809,88.396,104
1567620411,367.457,-11.8318,24.2218,178.879,-0.153809,88.396,104
1567620411,367.457,-11.8318,24.2218,178.879,-0.153809,88.396,104
1567620411,367.457,-11.8318,24.2218,178.879,-0.153809,88.396,104
1567620411,367.457,-11.8318,24.2218,178.879,-0.153809,88.396,104
1567620411,367.457,-11.8318,24.2218,178.879,-0.153809,88.396,104
1567620411,367.457,-11.8318,24.2218,178.879,-0.153809,88.396,104
1567620411,367.457,-11.8318,24.2218,178.879,-0.153809,88.396,104
1567620411,367.457,-11.8318,24.2218,178.879,-0.153809,88.396,104
1567620411,367.457,-11.8318,24.2218,178.879,-0.153809,88.396,104
1567620411,367.457,-11.8318,24.2218,178.879,-0.153809,88.396,104
1567620411,367.457,-11.8318,24.2218,178.879,-0.153809,88.396,104
1567620411,367.457,-11.8318,24.2218,178.879,-0.153809,88.396,104
1567620411,367.457,-11.8318,24.2218,178.879,-0.153809,88.396,104
1567620411,367.457,-11.8318,24.2218,178.879,-0.153809,88.396,104
1567620411,367.568,-11.8318,24.2218,178.879,-0.153809,88.396,104
1567620411,367.568,-11.8318,24.2218,178.879,-0.153809,88.396,104
1567620411,367.568,-11.8318,24.2218,178.879,-0.153809,88.396,104
1567620411,367.568,-11.8318,24.2218,178.879,-0.153809,88.396,104
1567620411,367.568,-11.8318,24.2218,178.879,-0.153809,88.396,104
1567620411,367.568,-11.8318,24.2218,178.879,-0.153809,88.396,104
1567620411,367.568,-11.8318,24.2218,178.879,-0.153809,88.396,104
1567620411,367.568,-11.8318,24.2218,178.879,-0.153809,88.396,104
1567620411,367.568,-11.8318,24.2218,178.879,-0.153809,88.396,104
1567620411,367.568,-11.8318,24.2218,178.879,-0.153809,88.396,104
1567620411,367.568,-11.8318,24.2218,178.879,-0.153809,88.396,104
1567620411,367.568,-11.8318,24.2218,178.879,-0.153809,88.396,104
1567620411,367.568,-11.8318,24.2218,178.879,-0.153809,88.396,104
1567620411,367.568,-11.8318,24.2218,178.879,-0.153809,88.396,104
1567620411,367.568,-11.8318,24.2218,178.879,-0.153809,88.396,104
1567620411,367.568,-11.8318,24.2218,178.879,-0.153809,88.396,104
1567620411,367.568,-11.8318,24.2218,178.879,-0.153809,88.396,104
1567620411,367.568,-11.8318,24.2218,178.879,-0.153809,88.396,104
1567620411,367.568,-11.8318,24.2218,178.879,-0.153809,88.396,104
1567620411,367.568,-11.8318,24.2218,178.879,-0.153809,88.396,104
1567620411,367.568,-11.8318,24.2218,178.879,-0.153809,88.396,104
1567620411,367.568,-11.8318,24.2218,178.879,-0.153809,88.396,104
1567620411,367.568,-11.8318,24.2218,178.879,-0.153809,88.396,104
1567620411,367.568,-11.8318,24.2218,178.879,-0.153809,88.396,104
1567620411,367.568,-11.8318,24.2218,178.901,-0.153809,88.396,104
1567620411,367.568,-11.8318,24.2218,178.901,-0.153809,88.396,104
1567620411,367.568,-11.8318,24.2218,178.901,-0.153809,88.396,104
1567620411,367.568,-11.8318,24.2218,178.901,-0.153809,88.396,104
1567620411,367.568,-11.8318,24.2218,178.901,-0.153809,88.396,104
1567620411,367.568,-11.8318,24.2218,178.879,-0.153809,88.396,104
1567620411,367.568,-11.8318,24.2218,178.879,-0.153809,88.396,104
1567620411,367.568,-11.8318,24.2218,178.879,-0.153809,88.396,104
1567620411,367.568,-11.8318,24.2218,178.879,-0.153809,88.396,104
1567620411,367.568,-11.8318,24.2218,178.879,-0.153809,88.396,104
1567620412,367.568,-11.8318,24.2218,178.879,-0.153809,88.396,104
1567620412,367.568,-11.8318,24.2218,178.879,-0.153809,88.396,104
1567620412,367.568,-11.8318,24.2218,178.879,-0.153809,88.396,104
1567620412,367.568,-11.8318,24.2218,178.879,-0.153809,88.396,104
1567620412,367.568,-11.8318,24.2218,178.879,-0.153809,88.396,104
1567620412,367.568,-11.8318,24.2218,178.879,-0.153809,88.396,104
1567620412,367.568,-11.8318,24.2218,178.879,-0.153809,88.396,104
1567620412,367.568,-11.8318,24.2218,178.879,-0.153809,88.396,104
1567620412,367.568,-11.8318,24.2218,178.879,-0.153809,88.396,104
1567620412,367.568,-11.8318,24.2218,178.879,-0.153809,88.396,104
1567620412,367.568,-11.8318,24.2218,178.879,-0.153809,88.396,104
1567620412,367.568,-11.8318,24.2218,178.879,-0.153809,88.396,104
1567620412,367.568,-11.8318,24.2218,178.879,-0.153809,88.396,104
1567620412,367.568,-11.8318,24.2218,178.879,-0.153809,88.396,104
1567620412,367.568,-11.8318,24.2218,178.879,-0.153809,88.396,104
1567620412,367.568,-11.8318,24.2218,178.879,-0.153809,88.396,104
1567620412,367.568,-11.8318,24.2218,178.879,-0.153809,88.396,104
1567620412,367.568,-11.8318,24.2218,178.879,-0.153809,88.396,104
1567620412,367.568,-11.8318,24.2218,178.879,-0.153809,88.396,104
1567620412,367.568,-11.8318,24.2218,178.879,-0.153809,88.396,104
1567620412,367.568,-11.8318,24.2218,178.879,-0.153809,88.396,104
1567620412,367.568,-11.8318,24.2218,178.879,-0.153809,88.396,104
1567620412,367.568,-11.8318,24.2218,178.879,-0.153809,88.396,104
1567620412,367.568,-11.8318,24.2218,178.879,-0.153809,88.396,104
1567620412,367.568,-11.8318,24.2218,178.879,-0.153809,88.396,104
1567620412,367.568,-11.8318,24.2218,178.879,-0.153809,88.396,104
1567620412,367.568,-11.8318,24.2218,178.879,-0.153809,88.396,104
1567620412,367.568,-11.8318,24.2218,178.879,-0.153809,88.396,104
1567620412,367.568,-11.8318,24.2218,178.879,-0.153809,88.396,104
1567620412,367.568,-11.8318,24.2218,178.879,-0.153809,88.396,104
1567620412,367.568,-11.8318,24.2218,178.879,-0.153809,88.396,104
1567620412,367.568,-11.8318,24.2218,178.879,-0.153809,88.396,104
1567620412,367.568,-11.8318,24.2218,178.879,-0.153809,88.396,104
1567620412,367.568,-11.8318,24.2218,178.879,-0.153809,88.396,104
1567620412,367.568,-11.8318,24.2218,178.879,-0.153809,88.396,104
1567620412,367.568,-11.8318,24.2218,178.879,-0.153809,88.396,104
1567620412,367.568,-11.8318,24.2218,178.879,-0.153809,88.396,104
1567620412,367.568,-11.8318,24.2218,178.879,-0.153809,88.396,104
1567620412,367.568,-11.8318,24.2218,178.879,-0.153809,88.396,104
1567620412,367.568,-11.8318,24.2218,178.879,-0.153809,88.396,104
1567620412,367.568,-11.8318,24.2218,178.879,-0.153809,88.396,104
1567620412,367.568,-11.8318,24.2218,178.879,-0.153809,88.396,104
1567620412,367.568,-11.8318,24.2218,178.879,-0.153809,88.396,104
1567620412,367.568,-11.8318,24.2218,178.879,-0.153809,88.396,104
1567620412,367.568,-11.8318,24.2218,178.879,-0.153809,88.396,104
1567620412,367.568,-11.8318,24.2218,178.879,-0.153809,88.396,104
1567620412,367.457,-11.8318,24.2218,178.879,-0.153809,88.396,104
1567620412,367.457,-11.8318,24.2218,178.879,-0.153809,88.396,104
1567620412,367.457,-11.8318,24.2218,178.879,-0.153809,88.396,104
1567620412,367.457,-11.8318,24.2218,178.879,-0.153809,88.396,104
1567620412,367.457,-11.8318,24.2218,178.879,-0.153809,88.396,104
1567620412,367.457,-11.8318,24.2218,178.879,-0.153809,88.396,104
1567620412,367.457,-11.8318,24.2218,178.879,-0.153809,88.396,104
1567620412,367.457,-11.8318,24.2218,178.879,-0.153809,88.396,104
1567620412,367.457,-11.8318,24.2218,178.879,-0.153809,88.396,104
1567620412,367.457,-11.8318,24.2218,178.879,-0.153809,88.396,104
1567620412,367.457,-11.8318,24.2218,178.879,-0.153809,88.396,104
1567620412,367.457,-11.8318,24.2218,178.879,-0.153809,88.396,104
1567620412,367.568,-11.8318,24.2218,178.879,-0.153809,88.396,104
1567620412,367.568,-11.8318,24.2218,178.879,-0.153809,88.396,104
1567620412,367.568,-11.8318,24.2218,178.879,-0.153809,88.396,104
1567620412,367.568,-11.8318,24.2218,178.879,-0.153809,88.396,104
1567620412,367.568,-11.8318,24.2218,178.879,-0.153809,88.396,104
1567620412,367.568,-11.8318,24.2218,178.879,-0.153809,88.396,104
1567620412,367.568,-11.8318,24.2218,178.879,-0.153809,88.396,104
1567620412,367.568,-11.8318,24.2218,178.879,-0.153809,88.396,104
1567620412,367.568,-11.8318,24.2218,178.879,-0.153809,88.396,104
1567620412,367.568,-11.8318,24.2218,178.879,-0.153809,88.396,104
1567620412,367.568,-11.8318,24.2218,178.879,-0.153809,88.396,104
1567620412,367.568,-11.8318,24.2218,178.879,-0.153809,88.396,104
1567620412,367.568,-11.8318,24.2218,178.879,-0.153809,88.396,104
1567620412,367.568,-11.8318,24.2218,178.879,-0.153809,88.396,104
1567620412,367.568,-11.8318,24.2218,178.879,-0.153809,88.396,104
1567620412,367.568,-11.8318,24.2218,178.879,-0.153809,88.396,104
1567620412,367.568,-11.8318,24.2218,178.879,-0.153809,88.396,104
1567620412,367.568,-11.8318,24.2218,178.879,-0.153809,88.396,104
1567620412,367.568,-11.8318,24.2218,178.879,-0.153809,88.396,104
1567620412,367.568,-11.8318,24.2218,178.879,-0.153809,88.396,104
1567620412,367.568,-11.8318,24.2218,178.879,-0.153809,88.396,104
1567620412,367.568,-11.8318,24.2218,178.879,-0.153809,88.396,104
1567620412,367.568,-11.8318,24.2218,178.879,-0.153809,88.396,104
1567620412,367.568,-11.8318,24.2218,178.879,-0.153809,88.396,104
1567620412,367.568,-11.8318,24.2218,178.879,-0.153809,88.396,104
1567620412,367.568,-11.8318,24.2218,178.879,-0.153809,88.396,104
1567620412,367.568,-11.8318,24.2218,178.879,-0.153809,88.396,104
1567620412,367.568,-11.8318,24.2218,178.879,-0.153809,88.396,104
1567620412,367.568,-11.8318,24.2218,178.879,-0.153809,88.396,104
1567620412,367.568,-11.8318,24.2218,178.879,-0.153809,88.396,104
1567620412,367.568,-11.8318,24.2218,178.879,-0.153809,88.396,104
1567620412,367.568,-11.8318,24.2218,178.879,-0.153809,88.396,104
1567620412,367.568,-11.8318,24.2218,178.879,-0.153809,88.396,104
1567620412,367.568,-11.8318,24.2218,178.879,-0.153809,88.396,104
1567620412,367.568,-11.8318,24.2218,178.879,-0.153809,88.396,104
1567620412,367.568,-11.8318,24.2218,178.879,-0.153809,88.396,104
1567620412,367.568,-11.8318,24.2218,178.879,-0.153809,88.396,104
1567620412,367.568,-11.8318,24.2218,178.879,-0.153809,88.396,104
1567620412,367.568,-11.8318,24.2218,178.879,-0.153809,88.396,104
1567620412,367.568,-11.8318,24.2218,178.879,-0.153809,88.396,104
1567620412,367.568,-11.8318,24.2218,178.879,-0.153809,88.396,104
1567620412,367.568,-11.8318,24.2218,178.879,-0.153809,88.396,104
1567620413,367.568,-11.8318,24.2218,178.879,-0.153809,88.396,104
1567620413,367.568,-11.8318,24.2218,178.879,-0.153809,88.396,104
1567620413,367.457,-11.8318,24.2218,178.879,-0.153809,88.396,104
1567620413,367.457,-11.8318,24.2218,178.879,-0.153809,88.396,104
1567620413,367.457,-11.8318,24.2218,178.879,-0.153809,88.396,104
1567620413,367.568,-11.8318,24.2218,178.879,-0.153809,88.396,104
1567620413,367.568,-11.8318,24.2218,178.879,-0.153809,88.396,104
1567620413,367.568,-11.8318,24.2218,178.879,-0.153809,88.396,104
1567620413,367.568,-11.8318,24.2218,178.879,-0.153809,88.396,104
1567620413,367.568,-11.8318,24.2218,178.879,-0.153809,88.396,104
1567620413,367.568,-11.8318,24.2218,178.879,-0.153809,88.396,104
1567620413,367.568,-11.8318,24.2218,178.879,-0.153809,88.396,104
1567620413,367.568,-11.8318,24.2218,178.879,-0.153809,88.396,104
1567620413,367.568,-11.8318,24.2218,178.879,-0.153809,88.396,104
1567620413,367.568,-11.8318,24.2218,178.879,-0.153809,88.396,104
1567620413,367.568,-11.8318,24.2218,178.879,-0.153809,88.396,104
1567620413,367.568,-11.8318,24.2218,178.879,-0.153809,88.396,104
1567620413,367.568,-11.8318,24.2218,178.879,-0.153809,88.396,104
1567620413,367.568,-11.8318,24.2218,178.879,-0.153809,88.396,104
1567620413,367.568,-11.8318,24.2218,178.879,-0.153809,88.396,104
1567620413,367.568,-11.8318,24.2218,178.879,-0.153809,88.396,104
1567620413,367.568,-11.8318,24.2218,178.879,-0.153809,88.396,104
1567620413,367.568,-11.8318,24.2218,178.879,-0.153809,88.396,104
1567620413,367.568,-11.8318,24.2218,178.879,-0.153809,88.396,104
1567620413,367.568,-11.8318,24.2218,178.879,-0.153809,88.396,104
1567620413,367.568,-11.8318,24.2218,178.879,-0.153809,88.396,104
1567620413,367.568,-11.8318,24.2218,178.879,-0.153809,88.396,104
1567620413,367.568,-11.8318,24.2218,178.879,-0.153809,88.396,104
1567620413,367.568,-11.8318,24.2218,178.879,-0.153809,88.396,104
1567620413,367.568,-11.8318,24.2218,178.879,-0.153809,88.396,104
1567620413,367.457,-11.8318,24.2218,178.879,-0.153809,88.396,104
1567620413,367.457,-11.8318,24.2218,178.879,-0.153809,88.396,104
1567620413,367.457,-11.8318,24.2218,178.879,-0.153809,88.396,104
1567620413,367.457,-11.8318,24.2218,178.879,-0.153809,88.396,104
1567620413,367.457,-11.8318,24.2218,178.879,-0.153809,88.396,104
1567620413,367.457,-11.8318,24.2218,178.879,-0.153809,88.396,104
1567620413,367.568,-11.8318,24.2218,178.879,-0.153809,88.396,104
1567620413,367.568,-11.8318,24.2218,178.879,-0.153809,88.396,104
1567620413,367.568,-11.8318,24.2218,178.879,-0.153809,88.396,104
1567620413,367.568,-11.8318,24.2218,178.879,-0.153809,88.396,104
1567620413,367.568,-11.8318,24.2218,178.879,-0.153809,88.396,104
1567620413,367.568,-11.8318,24.2218,178.879,-0.153809,88.396,104
1567620413,367.568,-11.8318,24.2218,178.879,-0.153809,88.396,104
1567620413,367.568,-11.8318,24.2218,178.879,-0.153809,88.396,104
1567620413,367.568,-11.8318,24.2218,178.879,-0.153809,88.396,104
1567620413,367.568,-11.8318,24.2218,178.879,-0.153809,88.396,104
1567620413,367.568,-11.8318,24.2218,178.879,-0.153809,88.396,104
1567620413,367.568,-11.8318,24.2218,178.879,-0.153809,88.396,104
1567620413,367.568,-11.8318,24.2218,178.879,-0.153809,88.396,104
1567620413,367.568,-11.8318,24.2218,178.879,-0.153809,88.396,104
1567620413,367.568,-11.8318,24.2218,178.879,-0.153809,88.396,104
1567620413,367.568,-11.8318,24.2218,178.879,-0.153809,88.396,104
1567620413,367.568,-11.8318,24.2218,178.879,-0.153809,88.396,104
1567620413,367.568,-11.8318,24.2218,178.879,-0.153809,88.396,104
1567620413,367.568,-11.8318,24.2218,178.879,-0.153809,88.396,104
1567620413,367.568,-11.8318,24.2218,178.879,-0.153809,88.396,104
1567620413,367.568,-11.8318,24.2218,178.879,-0.153809,88.396,104
1567620413,367.568,-11.8318,24.2218,178.879,-0.153809,88.396,104
1567620413,367.568,-11.8318,24.2218,178.879,-0.153809,88.396,104
1567620413,367.568,-11.8318,24.2218,178.879,-0.153809,88.396,104
1567620413,367.568,-11.8318,24.2218,178.879,-0.153809,88.396,104
1567620413,367.568,-11.8318,24.2218,178.879,-0.153809,88.396,104
1567620413,367.568,-11.8318,24.2218,178.879,-0.153809,88.396,104
1567620413,367.568,-11.8318,24.2218,178.879,-0.153809,88.396,104
1567620413,367.568,-11.8318,24.2218,178.879,-0.153809,88.396,104
1567620413,367.568,-11.8318,24.2218,178.879,-0.153809,88.396,104
1567620413,367.457,-11.8318,24.2218,178.879,-0.153809,88.396,104
1567620413,367.457,-11.8318,24.2218,178.879,-0.153809,88.396,104
1567620413,367.457,-11.8318,24.2218,178.879,-0.153809,88.396,104
1567620413,367.457,-11.8318,24.2218,178.879,-0.153809,88.396,104
1567620413,367.457,-11.8318,24.2218,178.879,-0.153809,88.396,104
1567620413,367.457,-11.8318,24.2218,178.879,-0.153809,88.396,104
1567620413,367.457,-11.8318,24.2218,178.879,-0.153809,88.396,104
1567620413,367.457,-11.8318,24.2218,178.879,-0.153809,88.396,104
1567620413,367.457,-11.8318,24.2218,178.879,-0.153809,88.396,104
1567620413,367.457,-11.8318,24.2218,178.879,-0.153809,88.396,104
1567620413,367.457,-11.8318,24.2218,178.879,-0.153809,88.396,104
1567620413,367.457,-11.8318,24.2218,178.879,-0.153809,88.396,104
1567620413,367.457,-11.8318,24.2218,178.879,-0.153809,88.396,104
1567620413,367.457,-11.8318,24.2218,178.879,-0.153809,88.396,104
1567620413,367.457,-11.8318,24.2218,178.879,-0.153809,88.396,104
1567620413,367.457,-11.8318,24.2218,178.879,-0.153809,88.396,104
1567620413,367.457,-11.8318,24.2218,178.879,-0.153809,88.396,104
1567620413,367.457,-11.8318,24.2218,178.879,-0.153809,88.396,104
1567620420,367.457,-11.8318,24.2218,178.879,-0.153809,88.374,108
1567620420,367.457,-11.8318,24.2218,178.879,-0.153809,88.374,108
1567620420,367.457,-11.8318,24.2218,178.879,-0.153809,88.374,108
1567620420,367.457,-11.8318,24.2218,178.879,-0.153809,88.374,108
1567620420,367.457,-11.8318,24.2218,178.879,-0.153809,88.374,108
1567620420,367.457,-11.8318,24.2218,178.879,-0.153809,88.374,108
1567620420,367.457,-11.8318,24.2218,178.879,-0.153809,88.374,108
1567620420,367.457,-11.8318,24.2218,178.879,-0.153809,88.374,108
1567620420,367.457,-11.8318,24.2218,178.879,-0.153809,88.374,108
1567620420,367.457,-11.8318,24.2218,178.879,-0.153809,88.374,108
1567620420,367.457,-11.8318,24.2218,178.879,-0.153809,88.374,108
1567620420,367.457,-11.8318,24.2218,178.879,-0.153809,88.374,108
1567620420,367.457,-11.8318,24.2218,178.879,-0.153809,88.374,108
1567620420,367.457,-11.8318,24.2218,178.879,-0.153809,88.374,108
1567620420,367.457,-11.8318,24.2218,178.879,-0.153809,88.374,108
1567620420,367.457,-11.8318,24.2218,178.879,-0.153809,88.374,108
1567620420,367.457,-11.8318,24.2218,178.879,-0.153809,88.374,108
1567620420,367.457,-11.8318,24.2218,178.879,-0.153809,88.374,108
1567620420,367.457,-11.8318,24.2218,178.879,-0.153809,88.374,108
1567620420,367.457,-11.8318,24.2218,178.879,-0.153809,88.374,108
1567620420,367.457,-11.8318,24.2218,178.879,-0.153809,88.374,108
1567620420,367.457,-11.8318,24.2218,178.879,-0.153809,88.374,108
1567620420,367.457,-11.8318,24.2218,178.879,-0.153809,88.374,108
1567620420,367.457,-11.8318,24.2218,178.879,-0.153809,88.374,108
1567620420,367.457,-11.8318,24.2218,178.879,-0.153809,88.374,108
1567620420,367.457,-11.8318,24.2218,178.879,-0.153809,88.374,108
1567620420,367.457,-11.8318,24.2218,178.879,-0.153809,88.374,108
1567620420,367.457,-11.8318,24.2218,178.879,-0.153809,88.374,108
1567620420,367.457,-11.8318,24.2218,178.879,-0.153809,88.374,108
1567620420,367.457,-11.8318,24.2218,178.879,-0.153809,88.374,108
1567620420,367.457,-11.8318,24.2218,178.879,-0.153809,88.374,108
1567620420,367.457,-11.8318,24.2218,178.879,-0.153809,88.374,108
1567620420,367.457,-11.8318,24.2218,178.879,-0.153809,88.374,108
1567620420,367.457,-11.8318,24.2218,178.879,-0.153809,88.374,108
1567620420,367.457,-11.8318,24.2218,178.879,-0.153809,88.374,108
1567620420,367.457,-11.8318,24.2218,178.879,-0.153809,88.374,108
1567620420,367.457,-11.8318,24.2218,178.879,-0.153809,88.374,108
1567620420,367.457,-11.8318,24.2218,178.879,-0.153809,88.374,108
1567620420,367.457,-11.8318,24.2218,178.879,-0.153809,88.374,108
1567620420,367.457,-11.8318,24.2218,178.879,-0.153809,88.374,108
1567620420,367.457,-11.8318,24.2218,178.879,-0.153809,88.374,108
1567620420,367.457,-11.8318,24.2218,178.879,-0.153809,88.374,108
1567620420,367.457,-11.8318,24.2218,178.879,-0.153809,88.374,108
1567620420,367.457,-11.8318,24.2218,178.879,-0.153809,88.374,108
1567620420,367.457,-11.8318,24.2218,178.879,-0.153809,88.374,108
1567620420,367.457,-11.8318,24.2218,178.879,-0.153809,88.374,108
1567620420,367.457,-11.8318,24.2218,178.879,-0.153809,88.374,108
1567620420,367.457,-11.8318,24.2218,178.879,-0.153809,88.374,108
1567620420,367.457,-11.8318,24.2218,178.879,-0.153809,88.374,108
1567620420,367.457,-11.8318,24.2218,178.879,-0.153809,88.374,108
1567620420,367.457,-11.8318,24.2218,178.879,-0.153809,88.374,108
1567620420,367.457,-11.8318,24.2218,178.879,-0.153809,88.374,108
1567620420,367.457,-11.8318,24.2218,178.879,-0.153809,88.374,108
1567620420,367.457,-11.8318,24.2218,178.879,-0.153809,88.374,108
1567620420,367.457,-11.8318,24.2218,178.879,-0.153809,88.374,108
1567620420,367.457,-11.8318,24.2218,178.879,-0.153809,88.374,108
1567620420,367.457,-11.8318,24.2218,178.879,-0.153809,88.374,104
1567620420,367.457,-11.8318,24.2218,178.879,-0.153809,88.374,104
1567620420,367.457,-11.8318,24.2218,178.879,-0.153809,88.374,104
1567620420,367.457,-11.8318,24.2218,178.879,-0.153809,88.374,104
1567620420,367.457,-11.8318,24.2218,178.879,-0.153809,88.374,104
1567620420,367.457,-11.8318,24.2218,178.879,-0.153809,88.374,104
1567620420,367.457,-11.8318,24.2218,178.879,-0.153809,88.374,104
1567620420,367.457,-11.8318,24.2218,178.879,-0.153809,88.374,104
1567620420,367.457,-11.8318,24.2218,178.879,-0.153809,88.374,104
1567620420,367.457,-11.8318,24.2218,178.879,-0.153809,88.374,104
1567620420,367.457,-11.8318,24.2218,178.879,-0.153809,88.374,104
1567620420,367.457,-11.8318,24.2218,178.879,-0.153809,88.374,104
1567620420,367.457,-11.8318,24.2218,178.879,-0.153809,88.374,104
1567620420,367.457,-11.8318,24.2218,178.879,-0.153809,88.374,104
1567620420,367.457,-11.8318,24.2218,178.879,-0.153809,88.374,104
1567620420,367.457,-11.8318,24.2218,178.879,-0.153809,88.374,104
1567620420,367.457,-11.8318,24.2218,178.879,-0.153809,88.374,104
1567620420,367.457,-11.8318,24.2218,178.879,-0.153809,88.374,104
1567620420,367.457,-11.8318,24.2218,178.879,-0.153809,88.374,104
1567620420,367.457,-11.8318,24.2218,178.879,-0.153809,88.374,104
1567620420,367.457,-11.8318,24.2218,178.879,-0.153809,88.374,104
1567620420,367.457,-11.8318,24.2218,178.879,-0.153809,88.374,104
1567620420,367.457,-11.8318,24.2218,178.879,-0.153809,88.374,104
1567620420,367.457,-11.8318,24.2218,178.879,-0.153809,88.374,104
1567620420,367.457,-11.8318,24.2218,178.879,-0.153809,88.374,104
1567620420,367.457,-11.8318,24.2218,178.879,-0.153809,88.374,104
1567620420,367.457,-11.8318,24.2218,178.879,-0.153809,88.374,104
1567620420,367.457,-11.8318,24.2218,178.879,-0.153809,88.374,104
1567620420,367.457,-11.8318,24.2218,178.879,-0.153809,88.374,104
1567620420,367.457,-11.8318,24.2218,178.879,-0.153809,88.374,104
1567620420,367.457,-11.8318,24.2218,178.879,-0.153809,88.374,104
1567620421,367.457,-11.8318,24.2218,178.879,-0.153809,88.374,104
1567620421,367.457,-11.8318,24.2218,178.879,-0.153809,88.374,104
1567620421,367.457,-11.8318,24.2218,178.879,-0.153809,88.374,104
1567620421,367.457,-11.8318,24.2218,178.879,-0.153809,88.374,104
1567620421,367.457,-11.8318,24.2218,178.879,-0.153809,88.374,104
1567620421,367.457,-11.8318,24.2218,178.879,-0.153809,88.374,104
1567620421,367.457,-11.8318,24.2218,178.879,-0.153809,88.374,104
1567620421,367.457,-11.8318,24.2218,178.879,-0.153809,88.374,104
1567620421,367.457,-11.8318,24.2218,178.879,-0.153809,88.374,104
1567620421,367.457,-11.8318,24.2218,178.879,-0.153809,88.374,104
1567620421,367.457,-11.8318,24.2218,178.879,-0.153809,88.374,104
1567620421,367.457,-11.8318,24.2218,178.879,-0.153809,88.374,104
1567620421,367.457,-11.8318,24.2218,178.879,-0.153809,88.374,104
1567620421,367.457,-11.8318,24.2218,178.879,-0.153809,88.374,104
1567620421,367.457,-11.8318,24.2218,178.879,-0.153809,88.374,104
1567620421,367.457,-11.8318,24.2218,178.879,-0.153809,88.374,104
1567620421,367.457,-11.8318,24.2218,178.879,-0.153809,88.374,104
1567620421,367.457,-11.8318,24.2218,178.879,-0.153809,88.374,104
1567620421,367.457,-11.8318,24.2218,178.879,-0.153809,88.374,104
1567620421,367.457,-11.8318,24.2218,178.879,-0.153809,88.374,104
1567620421,367.457,-11.8318,24.2218,178.879,-0.153809,88.374,104
1567620421,367.457,-11.8318,24.2218,178.879,-0.153809,88.374,104
1567620421,367.457,-11.8318,24.2218,178.879,-0.153809,88.374,104
1567620421,367.457,-11.8318,24.2218,178.879,-0.153809,88.374,104
1567620421,367.457,-11.8318,24.2218,178.879,-0.153809,88.374,104
1567620421,367.457,-11.8318,24.2218,178.879,-0.131836,88.374,104
1567620421,367.457,-11.8318,24.2218,178.879,-0.153809,88.374,104
1567620421,367.457,-11.8318,24.2218,178.879,-0.153809,88.374,104
1567620421,367.457,-11.8318,24.2218,178.879,-0.153809,88.374,104
1567620421,367.457,-11.8318,24.2218,178.879,-0.153809,88.374,108
1567620421,367.457,-11.8318,24.2218,178.879,-0.153809,88.374,108
1567620421,367.457,-11.8318,24.2218,178.879,-0.153809,88.374,108
1567620421,367.457,-11.8318,24.2218,178.879,-0.153809,88.374,108
1567620421,367.457,-11.8318,24.2218,178.879,-0.153809,88.374,108
1567620421,367.457,-11.8318,24.2218,178.879,-0.153809,88.374,108
1567620421,367.457,-11.8318,24.2218,178.879,-0.153809,88.374,108
1567620421,367.457,-11.8318,24.2218,178.879,-0.153809,88.374,108
1567620421,367.457,-11.8318,24.2218,178.879,-0.153809,88.374,108
1567620421,367.457,-11.8318,24.2218,178.879,-0.153809,88.374,108
1567620421,367.457,-11.8318,24.2218,178.879,-0.153809,88.374,108
1567620421,367.457,-11.8318,24.2218,178.879,-0.153809,88.374,108
1567620421,367.457,-11.8318,24.2218,178.879,-0.153809,88.374,108
1567620421,367.457,-11.8318,24.2218,178.879,-0.153809,88.374,108
1567620421,367.457,-11.8318,24.2218,178.879,-0.153809,88.374,108
1567620421,367.457,-11.8318,24.2218,178.879,-0.153809,88.374,108
1567620421,367.457,-11.8318,24.2218,178.879,-0.153809,88.374,108
1567620421,367.457,-11.8318,24.2218,178.879,-0.153809,88.374,108
1567620421,367.457,-11.8318,24.2218,178.879,-0.153809,88.374,108
1567620421,367.457,-11.8318,24.2218,178.879,-0.153809,88.374,108
1567620421,367.457,-11.8318,24.2218,178.879,-0.153809,88.374,108
1567620421,367.457,-11.8318,24.2218,178.879,-0.153809,88.374,108
1567620421,367.457,-11.8318,24.2218,178.879,-0.153809,88.374,108
1567620421,367.457,-11.8318,24.2218,178.879,-0.153809,88.374,108
1567620421,367.457,-11.8318,24.2218,178.879,-0.153809,88.374,108
1567620421,367.457,-11.8318,24.2218,178.879,-0.153809,88.374,108
1567620421,367.457,-11.8318,24.2218,178.879,-0.153809,88.374,108
1567620421,367.457,-11.8318,24.2218,178.879,-0.153809,88.374,108
1567620421,367.457,-11.8318,24.2218,178.879,-0.153809,88.374,108
1567620421,367.457,-11.8318,24.2218,178.879,-0.153809,88.374,108
1567620421,367.457,-11.8318,24.2218,178.879,-0.153809,88.374,108
1567620421,367.457,-11.8318,24.2218,178.879,-0.153809,88.374,108
1567620421,367.457,-11.8318,24.2218,178.879,-0.153809,88.374,104
1567620421,367.457,-11.8318,24.2218,178.879,-0.153809,88.374,104
1567620421,367.457,-11.8318,24.2218,178.879,-0.153809,88.374,104
1567620421,367.457,-11.8318,24.2218,178.879,-0.153809,88.374,108
1567620421,367.457,-11.8318,24.2218,178.879,-0.153809,88.374,108
1567620421,367.457,-11.8318,24.2218,178.879,-0.153809,88.374,108
1567620421,367.457,-11.8318,24.2218,178.879,-0.153809,88.374,108
1567620421,367.457,-11.8318,24.2218,178.879,-0.153809,88.374,108
1567620421,367.457,-11.8318,24.2218,178.879,-0.153809,88.374,108
1567620421,367.457,-11.8318,24.2218,178.879,-0.153809,88.374,108
1567620421,367.457,-11.8318,24.2218,178.879,-0.153809,88.374,108
1567620421,367.457,-11.8318,24.2218,178.879,-0.153809,88.374,108
1567620421,367.457,-11.8318,24.2218,178.879,-0.153809,88.374,108
1567620421,367.457,-11.8318,24.2218,178.879,-0.153809,88.374,108
1567620421,367.457,-11.8318,24.2218,178.879,-0.153809,88.374,108
1567620421,367.457,-11.8318,24.2218,178.879,-0.153809,88.374,108
1567620421,367.457,-11.8318,24.2218,178.879,-0.153809,88.374,108
1567620421,367.457,-11.8318,24.2218,178.879,-0.153809,88.374,108
1567620421,367.457,-11.8318,24.2218,178.879,-0.153809,88.374,108
1567620421,367.457,-11.8318,24.2218,178.879,-0.153809,88.374,108
1567620421,367.457,-11.8318,24.2218,178.879,-0.153809,88.374,108
1567620421,367.457,-11.8318,24.2218,178.879,-0.153809,88.374,108
1567620421,367.457,-11.8318,24.2218,178.879,-0.153809,88.374,108
1567620421,367.457,-11.8318,24.2218,178.879,-0.153809,88.374,108
1567620421,367.457,-11.8318,24.2218,178.879,-0.153809,88.374,108
1567620421,367.457,-11.8318,24.2218,178.879,-0.153809,88.374,108
1567620421,367.457,-11.8318,24.2218,178.879,-0.153809,88.374,108
1567620421,367.457,-11.8318,24.2218,178.879,-0.153809,88.374,108
1567620421,367.457,-11.8318,24.2218,178.879,-0.153809,88.374,108
1567620421,367.457,-11.8318,24.2218,178.879,-0.153809,88.374,108
1567620421,367.457,-11.8318,24.2218,178.879,-0.153809,88.374,108
1567620421,367.457,-11.8318,24.2218,178.879,-0.153809,88.374,108
1567620421,367.457,-11.8318,24.2218,178.879,-0.153809,88.374,108
1567620421,367.457,-11.8318,24.2218,178.879,-0.153809,88.374,108
1567620421,367.457,-11.8318,24.2218,178.879,-0.153809,88.374,108
1567620421,367.457,-11.8318,24.2218,178.879,-0.153809,88.374,108
1567620421,367.457,-11.8318,24.2218,178.879,-0.153809,88.374,108
1567620421,367.457,-11.8318,24.2218,178.879,-0.153809,88.374,108
1567620421,367.457,-11.8318,24.2218,178.879,-0.153809,88.374,108
1567620422,367.457,-11.8318,24.2218,178.879,-0.153809,88.374,108
1567620422,367.457,-11.8318,24.2218,178.879,-0.153809,88.374,108
1567620422,367.457,-11.8318,24.2218,178.879,-0.153809,88.374,108
1567620422,367.457,-11.8318,24.2218,178.879,-0.153809,88.374,108
1567620422,367.457,-11.8318,24.2218,178.879,-0.153809,88.374,108
1567620422,367.457,-11.8318,24.2218,178.879,-0.153809,88.374,108
1567620422,367.457,-11.8318,24.2218,178.879,-0.153809,88.374,108
1567620422,367.457,-11.8318,24.2218,178.879,-0.153809,88.374,108
1567620422,367.457,-11.8318,24.2218,178.879,-0.153809,88.374,108
1567620422,367.457,-11.8318,24.2218,178.879,-0.153809,88.374,108
1567620422,367.457,-11.8318,24.2218,178.879,-0.153809,88.374,108
1567620422,367.457,-11.8318,24.2218,178.879,-0.153809,88.374,108
1567620422,367.457,-11.8318,24.2218,178.879,-0.153809,88.374,108
1567620422,367.457,-11.8318,24.2218,178.879,-0.153809,88.374,108
1567620422,367.457,-11.8318,24.2218,178.879,-0.153809,88.374,108
1567620422,367.457,-11.8318,24.2218,178.879,-0.153809,88.374,108
1567620422,367.457,-11.8318,24.2218,178.879,-0.153809,88.374,108
1567620422,367.457,-11.8318,24.2218,178.879,-0.153809,88.374,108
1567620422,367.457,-11.8318,24.2218,178.879,-0.153809,88.374,108
1567620422,367.457,-11.8318,24.2218,178.879,-0.153809,88.374,108
1567620422,367.457,-11.8318,24.2218,178.879,-0.153809,88.374,104
1567620422,367.457,-11.8318,24.2218,178.879,-0.153809,88.374,104
1567620422,367.457,-11.8318,24.2218,178.879,-0.153809,88.374,104
1567620422,367.457,-11.8318,24.2218,178.879,-0.153809,88.374,104
1567620422,367.457,-11.8318,24.2218,178.879,-0.153809,88.374,104
1567620422,367.457,-11.8318,24.2218,178.879,-0.153809,88.374,104
1567620422,367.457,-11.8318,24.2218,178.879,-0.153809,88.374,104
1567620422,367.457,-11.8318,24.2218,178.879,-0.153809,88.374,104
1567620422,367.457,-11.8318,24.2218,178.879,-0.153809,88.374,104
1567620422,367.457,-11.8318,24.2218,178.879,-0.153809,88.374,104
1567620422,367.457,-11.8318,24.2218,178.879,-0.153809,88.374,104
1567620422,367.457,-11.8318,24.2218,178.879,-0.153809,88.374,104
1567620422,367.457,-11.8318,24.2218,178.879,-0.153809,88.374,104
1567620422,367.457,-11.8318,24.2218,178.879,-0.153809,88.374,104
1567620422,367.457,-11.8318,24.2218,178.879,-0.153809,88.374,104
1567620422,367.457,-11.8318,24.2218,178.879,-0.153809,88.374,108
1567620422,367.457,-11.8318,24.2218,178.879,-0.153809,88.374,108
1567620422,367.457,-11.8318,24.2218,178.879,-0.153809,88.374,108
1567620422,367.457,-11.8318,24.2218,178.879,-0.153809,88.374,108
1567620422,367.457,-11.8318,24.2218,178.879,-0.153809,88.374,108
1567620422,367.457,-11.8318,24.2218,178.879,-0.153809,88.374,108
1567620422,367.457,-11.8318,24.2218,178.879,-0.153809,88.374,108
1567620422,367.457,-11.8318,24.2218,178.879,-0.153809,88.374,108
1567620422,367.457,-11.8318,24.2218,178.879,-0.153809,88.374,108
1567620422,367.457,-11.8318,24.2218,178.879,-0.153809,88.374,108
1567620422,367.457,-11.8318,24.2218,178.879,-0.153809,88.374,108
1567620422,367.457,-11.8318,24.2218,178.879,-0.153809,88.374,108
1567620422,367.457,-11.8318,24.2218,178.879,-0.153809,88.374,108
1567620422,367.457,-11.8318,24.2218,178.879,-0.153809,88.374,108
1567620422,367.457,-11.8318,24.2218,178.879,-0.153809,88.374,108
1567620422,367.457,-11.8318,24.2218,178.879,-0.153809,88.374,108
1567620422,367.457,-11.8318,24.2218,178.879,-0.153809,88.374,108
1567620422,367.457,-11.8318,24.2218,178.879,-0.153809,88.374,108
1567620422,367.457,-11.8318,24.2218,178.879,-0.153809,88.374,108
1567620422,367.457,-11.8318,24.2218,178.879,-0.153809,88.374,108
1567620422,367.457,-11.8318,24.2218,178.879,-0.153809,88.374,108
1567620422,367.457,-11.8318,24.2218,178.879,-0.153809,88.374,108
1567620422,367.457,-11.8318,24.2218,178.879,-0.153809,88.374,108
1567620422,367.457,-11.8318,24.2218,178.879,-0.153809,88.374,108
1567620422,367.457,-11.8318,24.2218,178.879,-0.153809,88.374,108
1567620422,367.457,-11.8318,24.2218,178.879,-0.153809,88.374,108
1567620422,367.457,-11.8318,24.2218,178.879,-0.153809,88.374,108
1567620422,367.457,-11.8318,24.2218,178.879,-0.153809,88.374,108
1567620422,367.457,-11.8318,24.2218,178.879,-0.153809,88.374,108
1567620422,367.457,-11.8318,24.2218,178.879,-0.153809,88.374,108
1567620422,367.457,-11.8318,24.2218,178.879,-0.153809,88.374,108
1567620422,367.457,-11.8318,24.2218,178.879,-0.153809,88.374,108
1567620422,367.457,-11.8318,24.2218,178.879,-0.153809,88.374,108
1567620422,367.457,-11.8318,24.2218,178.879,-0.153809,88.374,108
1567620422,367.457,-11.8318,24.2218,178.879,-0.153809,88.374,108
1567620422,367.457,-11.8318,24.2218,178.879,-0.153809,88.374,108
1567620422,367.457,-11.8318,24.2218,178.879,-0.153809,88.374,108
1567620422,367.457,-11.8318,24.2218,178.879,-0.153809,88.374,108
1567620422,367.457,-11.8318,24.2218,178.879,-0.153809,88.374,108
1567620422,367.457,-11.8318,24.2218,178.879,-0.153809,88.374,108
1567620422,367.457,-11.8318,24.2218,178.879,-0.153809,88.374,108
1567620422,367.457,-11.8318,24.2218,178.879,-0.153809,88.374,108
1567620422,367.457,-11.8318,24.2218,178.879,-0.153809,88.374,108
1567620422,367.457,-11.8318,24.2218,178.879,-0.153809,88.374,108
1567620422,367.457,-11.8318,24.2218,178.879,-0.153809,88.374,108
1567620422,367.457,-11.8318,24.2218,178.879,-0.153809,88.374,108
1567620422,367.457,-11.8318,24.2218,178.879,-0.153809,88.374,108
1567620422,367.457,-11.8318,24.2218,178.879,-0.153809,88.374,108
1567620422,367.457,-11.8318,24.2218,178.879,-0.153809,88.374,108
1567620422,367.457,-11.8318,24.2218,178.879,-0.153809,88.374,108
1567620422,367.457,-11.8318,24.2218,178.879,-0.153809,88.374,108
1567620422,367.457,-11.8318,24.2218,178.879,-0.153809,88.374,108
1567620422,367.457,-11.8318,24.2218,178.879,-0.153809,88.374,108
1567620422,367.457,-11.8318,24.2218,178.879,-0.153809,88.374,108
1567620422,367.457,-11.8318,24.2218,178.879,-0.153809,88.374,108
1567620422,367.457,-11.8318,24.2218,178.879,-0.153809,88.374,108
1567620422,367.457,-11.8318,24.2218,178.879,-0.153809,88.374,108
1567620422,367.457,-11.8318,24.2218,178.879,-0.153809,88.374,108
1567620422,367.457,-11.8318,24.2218,178.879,-0.153809,88.374,108
1567620422,367.457,-11.8318,24.2218,178.879,-0.153809,88.374,108
1567620422,367.457,-11.8318,24.2218,178.879,-0.153809,88.374,108
1567620422,367.457,-11.8318,24.2218,178.879,-0.153809,88.374,108
1567620422,367.457,-11.8318,24.2218,178.879,-0.153809,88.374,108
1567620422,367.457,-11.8318,24.2218,178.879,-0.153809,88.374,108
1567620422,367.457,-11.8318,24.2218,178.879,-0.153809,88.374,108
1567620423,367.457,-11.8318,24.2218,178.879,-0.153809,88.374,108
1567620423,367.457,-11.8318,24.2218,178.879,-0.153809,88.374,108
1567620423,367.457,-11.8318,24.2218,178.879,-0.153809,88.374,108
1567620423,367.457,-11.8318,24.2218,178.879,-0.153809,88.374,108
1567620423,367.457,-11.8318,24.2218,178.879,-0.153809,88.374,108
1567620423,367.457,-11.8318,24.2218,178.879,-0.153809,88.374,108
1567620423,367.457,-11.8318,24.2218,178.879,-0.153809,88.374,108
1567620423,367.457,-11.8318,24.2218,178.879,-0.153809,88.374,108
1567620423,367.457,-11.8318,24.2218,178.879,-0.153809,88.374,108
1567620423,367.457,-11.8318,24.2218,178.879,-0.153809,88.374,108
1567620423,367.457,-11.8318,24.2218,178.879,-0.153809,88.374,108
1567620423,367.457,-11.8318,24.2218,178.879,-0.153809,88.374,108
1567620423,367.457,-11.8318,24.2218,178.879,-0.153809,88.374,108
1567620423,367.457,-11.8318,24.2218,178.879,-0.153809,88.374,108
1567620423,367.457,-11.8318,24.2218,178.879,-0.153809,88.374,108
1567620423,367.457,-11.8318,24.2218,178.879,-0.153809,88.374,108
1567620423,367.457,-11.8318,24.2218,178.879,-0.153809,88.374,108
1567620423,367.457,-11.8318,24.2218,178.879,-0.153809,88.374,108
1567620423,367.457,-11.8318,24.2218,178.879,-0.153809,88.374,108
1567620423,367.457,-11.8318,24.2218,178.879,-0.153809,88.374,108
1567620423,367.457,-11.8318,24.2218,178.879,-0.153809,88.374,108
1567620423,367.457,-11.8318,24.2218,178.879,-0.153809,88.374,108
1567620423,367.457,-11.8318,24.2218,178.879,-0.153809,88.374,108
1567620423,367.457,-11.8318,24.2218,178.879,-0.153809,88.374,108
1567620423,367.457,-11.8318,24.2218,178.879,-0.153809,88.374,108
1567620423,367.457,-11.8318,24.2218,178.879,-0.153809,88.374,108
1567620423,367.457,-11.8318,24.2218,178.879,-0.153809,88.374,108
1567620423,367.457,-11.8318,24.2218,178.879,-0.153809,88.374,108
1567620423,367.457,-11.8318,24.2218,178.879,-0.153809,88.374,108
1567620423,367.457,-11.8318,24.2218,178.879,-0.153809,88.374,108
1567620423,367.457,-11.8318,24.2218,178.879,-0.153809,88.374,108
1567620423,367.457,-11.8318,24.2218,178.879,-0.153809,88.374,108
1567620423,367.457,-11.8318,24.2218,178.879,-0.153809,88.374,108
1567620423,367.457,-11.8318,24.2218,178.879,-0.153809,88.374,108
1567620423,367.457,-11.8318,24.2218,178.879,-0.153809,88.374,108
1567620423,367.457,-11.8318,24.2218,178.879,-0.153809,88.374,108
1567620423,367.457,-11.8318,24.2218,178.879,-0.153809,88.374,108
1567620423,367.457,-11.8318,24.2218,178.879,-0.153809,88.374,108
1567620423,367.457,-11.8318,24.2218,178.879,-0.153809,88.374,108
1567620423,367.457,-11.8318,24.2218,178.879,-0.153809,88.374,108
1567620423,367.457,-11.8318,24.2218,178.879,-0.153809,88.374,108
1567620423,367.457,-11.8318,24.2218,178.879,-0.153809,88.374,108
1567620423,367.457,-11.8318,24.2218,178.879,-0.153809,88.374,108
1567620423,367.457,-11.8318,24.2218,178.879,-0.153809,88.374,108
1567620423,367.457,-11.8318,24.2218,178.879,-0.153809,88.374,108
1567620423,367.457,-11.8318,24.2218,178.879,-0.153809,88.374,108
1567620423,367.457,-11.8318,24.2218,178.879,-0.153809,88.374,108
1567620423,367.457,-11.8318,24.2218,178.879,-0.153809,88.374,108
1567620423,367.457,-11.8318,24.2218,178.879,-0.153809,88.374,108
1567620423,367.457,-11.8318,24.2218,178.879,-0.153809,88.374,108
1567620423,367.457,-11.8318,24.2218,178.879,-0.153809,88.374,108
1567620423,367.457,-11.8318,24.2218,178.879,-0.153809,88.374,108
1567620423,367.457,-11.8318,24.2218,178.879,-0.153809,88.374,108
1567620423,367.457,-11.8318,24.2218,178.879,-0.153809,88.374,108
1567620423,367.457,-11.8318,24.2218,178.879,-0.153809,88.374,108
1567620423,367.457,-11.8318,24.2218,178.879,-0.153809,88.374,108
1567620423,367.457,-11.8318,24.2218,178.879,-0.153809,88.374,108
1567620423,367.457,-11.8318,24.2218,178.879,-0.153809,88.374,108
1567620423,367.457,-11.8318,24.2218,178.879,-0.153809,88.374,108
1567620423,367.457,-11.8318,24.2218,178.879,-0.153809,88.374,108
1567620423,367.457,-11.8318,24.2218,178.879,-0.153809,88.374,108
1567620423,367.457,-11.8318,24.2218,178.879,-0.153809,88.374,108
1567620423,367.457,-11.8318,24.2218,178.879,-0.153809,88.374,108
1567620423,367.457,-11.8318,24.2218,178.879,-0.153809,88.374,108
1567620423,367.457,-11.8318,24.2218,178.879,-0.153809,88.374,108
1567620423,367.457,-11.8318,24.2218,178.879,-0.153809,88.374,108
1567620423,367.457,-11.8318,24.2218,178.879,-0.153809,88.374,108
1567620423,367.457,-11.8318,24.2218,178.879,-0.153809,88.374,108
1567620423,367.457,-11.8318,24.2218,178.879,-0.153809,88.374,108
1567620423,367.457,-11.8318,24.2218,178.879,-0.153809,88.374,108
1567620423,367.457,-11.8318,24.2218,178.879,-0.153809,88.374,108
1567620423,367.457,-11.8318,24.2218,178.879,-0.153809,88.374,108
1567620423,367.457,-11.8318,24.2218,178.879,-0.153809,88.374,108
1567620423,367.457,-11.8318,24.2218,178.879,-0.153809,88.374,108
1567620423,367.457,-11.8318,24.2218,178.879,-0.153809,88.374,108
1567620423,367.457,-11.8318,24.2218,178.879,-0.153809,88.374,108
1567620423,367.457,-11.8318,24.2218,178.879,-0.153809,88.374,108
1567620423,367.457,-11.8318,24.2218,178.879,-0.153809,88.374,108
1567620423,367.457,-11.8318,24.2218,178.879,-0.153809,88.374,108
1567620423,367.457,-11.8318,24.2218,178.879,-0.153809,88.374,108
1567620423,367.457,-11.8318,24.2218,178.879,-0.153809,88.374,108
1567620423,367.457,-11.8318,24.2218,178.879,-0.153809,88.374,108
1567620423,367.457,-11.8318,24.2218,178.879,-0.153809,88.374,108
1567620423,367.457,-11.8318,24.2218,178.879,-0.153809,88.374,108
1567620423,367.457,-11.8318,24.2218,178.879,-0.153809,88.374,108
1567620423,367.457,-11.8318,24.2218,178.879,-0.153809,88.374,108
1567620423,367.457,-11.8318,24.2218,178.879,-0.153809,88.374,108
1567620423,367.457,-11.8318,24.2218,178.879,-0.153809,88.374,108
1567620423,367.457,-11.8318,24.2218,178.879,-0.153809,88.374,108
1567620423,367.457,-11.8318,24.2218,178.879,-0.153809,88.374,108
1567620423,367.457,-11.8318,24.2218,178.879,-0.153809,88.374,108
1567620423,367.457,-11.8318,24.2218,178.879,-0.153809,88.374,108
1567620423,367.457,-11.8318,24.2218,178.879,-0.153809,88.374,108
1567620423,367.457,-11.8318,24.2218,178.879,-0.153809,88.374,104
1567620423,367.457,-11.8318,24.2218,178.879,-0.153809,88.374,104
1567620423,367.457,-11.8318,24.2218,178.879,-0.153809,88.374,104
1567620423,367.457,-11.8318,24.2218,178.879,-0.153809,88.374,104
1567620423,367.457,-11.8318,24.2218,178.879,-0.153809,88.374,104
1567620423,367.457,-11.8318,24.2218,178.879,-0.153809,88.374,108
1567620423,367.457,-11.8318,24.2218,178.879,-0.153809,88.374,108
1567620424,367.457,-11.8318,24.2218,178.879,-0.153809,88.374,108
1567620424,367.457,-11.8318,24.2218,178.879,-0.153809,88.374,108
1567620424,367.457,-11.8318,24.2218,178.879,-0.153809,88.374,108
1567620424,367.457,-11.8318,24.2218,178.879,-0.153809,88.374,108
1567620424,367.457,-11.8318,24.2218,178.879,-0.153809,88.374,108
1567620424,367.457,-11.8318,24.2218,178.879,-0.153809,88.374,108
1567620424,367.457,-11.8318,24.2218,178.879,-0.153809,88.374,108
1567620424,367.457,-11.8318,24.2218,178.879,-0.153809,88.374,108
1567620424,367.457,-11.8318,24.2218,178.879,-0.153809,88.374,108
1567620424,367.457,-11.8318,24.2218,178.879,-0.153809,88.374,108
1567620424,367.457,-11.8318,24.2218,178.879,-0.153809,88.374,108
1567620424,367.457,-11.8318,24.2218,178.879,-0.153809,88.374,108
1567620424,367.457,-11.8318,24.2218,178.879,-0.153809,88.374,108
1567620424,367.457,-11.8318,24.2218,178.879,-0.153809,88.374,108
1567620424,367.457,-11.8318,24.2218,178.879,-0.153809,88.374,108
1567620424,367.457,-11.8318,24.2218,178.879,-0.153809,88.374,108
1567620424,367.457,-11.8318,24.2218,178.879,-0.153809,88.374,108
1567620424,367.457,-11.8318,24.2218,178.879,-0.153809,88.374,108
1567620424,367.457,-11.8318,24.2218,178.879,-0.153809,88.374,108
1567620424,367.457,-11.8318,24.2218,178.879,-0.153809,88.374,108
1567620424,367.457,-11.8318,24.2218,178.879,-0.153809,88.374,108
1567620424,367.457,-11.8318,24.2218,178.879,-0.153809,88.374,108
1567620424,367.457,-11.8318,24.2218,178.879,-0.153809,88.374,108
1567620424,367.457,-11.8318,24.2218,178.879,-0.153809,88.374,108
1567620424,367.457,-11.8318,24.2218,178.879,-0.153809,88.374,108
1567620424,367.457,-11.8318,24.2218,178.879,-0.153809,88.374,108
1567620424,367.457,-11.8318,24.2218,178.879,-0.153809,88.374,108
1567620424,367.457,-11.8318,24.2218,178.879,-0.153809,88.374,108
1567620424,367.457,-11.8318,24.2218,178.879,-0.153809,88.374,108
1567620424,367.457,-11.8318,24.2218,178.879,-0.153809,88.374,108
1567620424,367.457,-11.8318,24.2218,178.879,-0.153809,88.374,108
1567620424,367.457,-11.8318,24.2218,178.879,-0.153809,88.374,108
1567620424,367.457,-11.8318,24.2218,178.879,-0.153809,88.374,108
1567620424,367.457,-11.8318,24.2218,178.879,-0.153809,88.374,108
1567620424,367.457,-11.8318,24.2218,178.879,-0.153809,88.374,108
1567620424,367.457,-11.8318,24.2218,178.879,-0.153809,88.374,108
1567620424,367.457,-11.8318,24.2218,178.879,-0.153809,88.374,108
1567620424,367.457,-11.8318,24.2218,178.879,-0.153809,88.374,108
1567620424,367.457,-11.8318,24.2218,178.879,-0.153809,88.374,108
1567620424,367.457,-11.8318,24.2218,178.879,-0.153809,88.374,108
1567620424,367.457,-11.8318,24.2218,178.879,-0.153809,88.374,108
1567620424,367.457,-11.8318,24.2218,178.879,-0.153809,88.374,108
1567620424,367.457,-11.8318,24.2218,178.879,-0.153809,88.374,108
1567620424,367.457,-11.8318,24.2218,178.879,-0.153809,88.374,108
1567620424,367.457,-11.8318,24.2218,178.879,-0.153809,88.374,108
1567620424,367.457,-11.8318,24.2218,178.879,-0.153809,88.374,108
1567620424,367.457,-11.8318,24.2218,178.879,-0.153809,88.374,108
1567620424,367.457,-11.8318,24.2218,178.879,-0.153809,88.374,108
1567620424,367.457,-11.8318,24.2218,178.879,-0.153809,88.374,108
1567620424,367.457,-11.8318,24.2218,178.879,-0.153809,88.374,108
1567620424,367.457,-11.8318,24.2218,178.879,-0.153809,88.374,108
1567620424,367.457,-11.8318,24.2218,178.879,-0.153809,88.374,108
1567620424,367.457,-11.8318,24.2218,178.879,-0.153809,88.374,108
1567620424,367.457,-11.8318,24.2218,178.879,-0.153809,88.374,108
1567620424,367.457,-11.8318,24.2218,178.879,-0.153809,88.374,108
1567620424,367.457,-11.8318,24.2218,178.879,-0.153809,88.374,108
1567620424,367.457,-11.8318,24.2218,178.879,-0.153809,88.374,108
1567620424,367.457,-11.8318,24.2218,178.879,-0.153809,88.374,108
1567620424,367.457,-11.8318,24.2218,178.879,-0.153809,88.374,108
1567620424,367.457,-11.8318,24.2218,178.879,-0.153809,88.374,108
1567620424,367.457,-11.8318,24.2218,178.879,-0.153809,88.374,108
1567620424,367.457,-11.8318,24.2218,178.879,-0.153809,88.374,108
1567620424,367.457,-11.8318,24.2218,178.879,-0.153809,88.374,108
1567620424,367.457,-11.8318,24.2218,178.879,-0.153809,88.374,108
1567620424,367.457,-11.8318,24.2218,178.879,-0.153809,88.374,108
1567620424,367.457,-11.8318,24.2218,178.879,-0.153809,88.374,108
1567620424,367.457,-11.8318,24.2218,178.879,-0.153809,88.374,108
1567620424,367.457,-11.8318,24.2218,178.879,-0.153809,88.374,108
1567620424,367.457,-11.8318,24.2218,178.879,-0.153809,88.374,108
1567620424,367.457,-11.8318,24.2218,178.879,-0.153809,88.374,108
1567620424,367.457,-11.8318,24.2218,178.879,-0.153809,88.374,108
1567620424,367.457,-11.8318,24.2218,178.879,-0.153809,88.374,108
1567620424,367.457,-11.8318,24.2218,178.879,-0.153809,88.374,108
1567620424,367.457,-11.8318,24.2218,178.879,-0.153809,88.374,108
1567620424,367.457,-11.8318,24.2218,178.879,-0.153809,88.374,108
1567620424,367.457,-11.8318,24.2218,178.879,-0.153809,88.374,108
1567620424,367.457,-11.8318,24.2218,178.879,-0.153809,88.374,108
1567620424,367.457,-11.8318,24.2218,178.879,-0.153809,88.374,108
1567620424,367.457,-11.8318,24.2218,178.879,-0.153809,88.374,108
1567620424,367.457,-11.8318,24.2218,178.879,-0.153809,88.374,108
1567620424,367.457,-11.8318,24.2218,178.879,-0.153809,88.374,108
1567620424,367.457,-11.8318,24.2218,178.879,-0.153809,88.374,108
1567620424,367.457,-11.8318,24.2218,178.879,-0.153809,88.374,108
1567620424,367.457,-11.8318,24.2218,178.879,-0.153809,88.374,108
1567620424,367.457,-11.8318,24.2218,178.879,-0.153809,88.374,108
1567620424,367.457,-11.8318,24.2218,178.879,-0.153809,88.374,108
1567620424,367.457,-11.8318,24.2218,178.879,-0.153809,88.374,108
1567620424,367.457,-11.8318,24.2218,178.879,-0.153809,88.374,108
1567620424,367.457,-11.8318,24.2218,178.879,-0.153809,88.374,108
1567620424,367.457,-11.8318,24.2218,178.879,-0.153809,88.374,108
1567620424,367.457,-11.8318,24.2218,178.879,-0.153809,88.374,108
1567620424,367.457,-11.8318,24.2218,178.879,-0.153809,88.374,108
1567620424,367.457,-11.8318,24.2218,178.879,-0.153809,88.374,108
1567620424,367.457,-11.8318,24.2218,178.879,-0.153809,88.374,108
1567620424,367.457,-11.8318,24.2218,178.879,-0.153809,88.374,108
1567620424,367.457,-11.8318,24.2218,178.879,-0.153809,88.374,108
1567620424,367.457,-11.8318,24.2218,178.879,-0.153809,88.374,108
1567620424,367.457,-11.8318,24.2218,178.879,-0.153809,88.374,108
1567620424,367.457,-11.8318,24.2218,178.879,-0.153809,88.374,108
1567620424,367.457,-11.8318,24.2218,178.879,-0.153809,88.374,108
1567620425,367.457,-11.8318,24.2218,178.879,-0.153809,88.374,108
1567620425,367.457,-11.8318,24.2218,178.879,-0.153809,88.374,108
1567620425,367.457,-11.8318,24.2218,178.879,-0.153809,88.374,108
1567620425,367.457,-11.8318,24.2218,178.879,-0.153809,88.374,108
1567620425,367.457,-11.8318,24.2218,178.879,-0.153809,88.374,108
1567620425,367.457,-11.8318,24.2218,178.879,-0.153809,88.374,108
1567620425,367.457,-11.8318,24.2218,178.879,-0.153809,88.374,108
1567620425,367.457,-11.8318,24.2218,178.879,-0.153809,88.374,108
1567620425,367.457,-11.8318,24.2218,178.879,-0.153809,88.374,108
1567620425,367.457,-11.8318,24.2218,178.879,-0.153809,88.374,108
1567620425,367.457,-11.8318,24.2218,178.879,-0.153809,88.374,108
1567620425,367.457,-11.8318,24.2218,178.879,-0.153809,88.374,108
1567620425,367.457,-11.8318,24.2218,178.879,-0.153809,88.374,108
1567620433,367.568,-11.8318,24.2218,178.879,-0.109863,88.374,104
1567620433,367.568,-11.8318,24.2218,178.879,-0.109863,88.374,104
1567620433,367.568,-11.8318,24.2218,178.879,-0.109863,88.374,104
1567620433,367.568,-11.8318,24.2218,178.879,-0.109863,88.374,104
1567620433,367.568,-11.8318,24.2218,178.879,-0.109863,88.374,104
1567620433,367.568,-11.8318,24.2218,178.879,-0.109863,88.374,104
1567620433,367.568,-11.8318,24.2218,178.879,-0.109863,88.374,104
1567620433,367.568,-11.8318,24.2218,178.879,-0.109863,88.374,104
1567620433,367.568,-11.8318,24.2218,178.879,-0.109863,88.374,104
1567620433,367.568,-11.8318,24.2218,178.879,-0.109863,88.374,104
1567620433,367.568,-11.8318,24.2218,178.879,-0.109863,88.374,104
1567620433,367.568,-11.8318,24.2218,178.879,-0.109863,88.374,104
1567620433,367.568,-11.8318,24.2218,178.879,-0.109863,88.374,104
1567620433,367.568,-11.8318,24.2218,178.879,-0.109863,88.374,104
1567620433,367.568,-11.8318,24.2218,178.879,-0.109863,88.374,104
1567620433,367.568,-11.8318,24.2218,178.879,-0.109863,88.374,104
1567620433,367.568,-11.8318,24.2218,178.879,-0.109863,88.374,104
1567620433,367.568,-11.8318,24.2218,178.879,-0.109863,88.374,104
1567620433,367.568,-11.8318,24.2218,178.879,-0.109863,88.374,104
1567620433,367.568,-11.8318,24.2218,178.879,-0.109863,88.374,104
1567620433,367.568,-11.8318,24.2218,178.879,-0.109863,88.374,104
1567620433,367.568,-11.8318,24.2218,178.879,-0.109863,88.374,104
1567620433,367.568,-11.8318,24.2218,178.879,-0.109863,88.374,104
1567620433,367.568,-11.8318,24.2218,178.879,-0.109863,88.374,104
1567620433,367.568,-11.8318,24.2218,178.879,-0.109863,88.374,104
1567620433,367.568,-11.8318,24.2218,178.879,-0.109863,88.374,104
1567620433,367.568,-11.8318,24.2218,178.879,-0.109863,88.374,104
1567620433,367.568,-11.8318,24.2218,178.879,-0.109863,88.374,104
1567620433,367.568,-11.8318,24.2218,178.879,-0.109863,88.374,104
1567620433,367.568,-11.8318,24.2218,178.879,-0.109863,88.374,104
1567620433,367.568,-11.8318,24.2218,178.879,-0.109863,88.374,104
1567620433,367.568,-11.8318,24.2218,178.879,-0.109863,88.374,104
1567620433,367.568,-11.8318,24.2218,178.879,-0.109863,88.374,104
1567620433,367.568,-11.8318,24.2218,178.879,-0.109863,88.374,104
1567620433,367.568,-11.8318,24.2218,178.879,-0.109863,88.374,104
1567620433,367.568,-11.8318,24.2218,178.879,-0.109863,88.374,104
1567620433,367.568,-11.8318,24.2218,178.879,-0.109863,88.374,104
1567620433,367.568,-11.8318,24.2218,178.879,-0.109863,88.374,104
1567620433,367.568,-11.8318,24.2218,178.879,-0.109863,88.374,104
1567620433,367.568,-11.8318,24.2218,178.879,-0.109863,88.374,104
1567620433,367.568,-11.8318,24.2218,178.879,-0.109863,88.374,104
1567620433,367.568,-11.8318,24.2218,178.879,-0.109863,88.374,104
1567620433,367.568,-11.8318,24.2218,178.879,-0.109863,88.374,104
1567620433,367.568,-11.8318,24.2218,178.879,-0.109863,88.374,104
1567620433,367.568,-11.8318,24.2218,178.879,-0.109863,88.374,104
1567620433,367.568,-11.8318,24.2218,178.879,-0.109863,88.374,104
1567620433,367.568,-11.8318,24.2218,178.879,-0.109863,88.374,104
1567620433,367.568,-11.8318,24.2218,178.879,-0.109863,88.374,104
1567620433,367.568,-11.8318,24.2218,178.879,-0.109863,88.374,104
1567620433,367.568,-11.8318,24.2218,178.879,-0.109863,88.374,104
1567620433,367.568,-11.8318,24.2218,178.879,-0.109863,88.374,104
1567620433,367.568,-11.8318,24.2218,178.879,-0.109863,88.374,104
1567620433,367.568,-11.8318,24.2218,178.879,-0.109863,88.374,104
1567620433,367.568,-11.8318,24.2218,178.879,-0.109863,88.374,104
1567620433,367.568,-11.8318,24.2218,178.879,-0.109863,88.374,104
1567620433,367.568,-11.8318,24.2218,178.879,-0.109863,88.374,104
1567620433,367.568,-11.8318,24.2218,178.879,-0.109863,88.374,104
1567620433,367.568,-11.8318,24.2218,178.879,-0.109863,88.374,104
1567620433,367.568,-11.8318,24.2218,178.879,-0.109863,88.374,104
1567620433,367.568,-11.8318,24.2218,178.879,-0.109863,88.374,104
1567620433,367.568,-11.8318,24.2218,178.879,-0.109863,88.374,104
1567620433,367.568,-11.8318,24.2218,178.879,-0.109863,88.374,108
1567620433,367.568,-11.8318,24.2218,178.879,-0.109863,88.374,108
1567620433,367.568,-11.8318,24.2218,178.879,-0.109863,88.374,108
1567620433,367.568,-11.8318,24.2218,178.879,-0.109863,88.374,108
1567620433,367.568,-11.8318,24.2218,178.879,-0.109863,88.374,108
1567620433,367.568,-11.8318,24.2218,178.879,-0.109863,88.374,108
1567620433,367.568,-11.8318,24.2218,178.879,-0.109863,88.374,108
1567620433,367.568,-11.8318,24.2218,178.879,-0.109863,88.374,108
1567620433,367.568,-11.8318,24.2218,178.879,-0.109863,88.374,108
1567620433,367.568,-11.8318,24.2218,178.879,-0.109863,88.374,108
1567620433,367.568,-11.8318,24.2218,178.879,-0.109863,88.374,108
1567620433,367.568,-11.8318,24.2218,178.879,-0.109863,88.374,108
1567620433,367.568,-11.8318,24.2218,178.879,-0.109863,88.374,108
1567620433,367.568,-11.8318,24.2218,178.879,-0.109863,88.374,104
1567620433,367.568,-11.8318,24.2218,178.879,-0.109863,88.374,104
1567620433,367.568,-11.8318,24.2218,178.879,-0.109863,88.374,104
1567620433,367.568,-11.8318,24.2218,178.879,-0.109863,88.374,104
1567620433,367.568,-11.8318,24.2218,178.879,-0.109863,88.374,104
1567620433,367.568,-11.8318,24.2218,178.879,-0.109863,88.374,104
1567620433,367.568,-11.8318,24.2218,178.879,-0.109863,88.374,104
1567620433,367.568,-11.8318,24.2218,178.879,-0.109863,88.374,104
1567620433,367.568,-11.8318,24.2218,178.879,-0.109863,88.374,104
1567620433,367.568,-11.8318,24.2218,178.879,-0.109863,88.374,104
1567620433,367.568,-11.8318,24.2218,178.879,-0.109863,88.374,104
1567620433,367.568,-11.8318,24.2218,178.879,-0.109863,88.374,104
1567620433,367.568,-11.8318,24.2218,178.879,-0.109863,88.374,104
1567620433,367.568,-11.8318,24.2218,178.879,-0.109863,88.374,104
1567620434,367.568,-11.8318,24.2218,178.879,-0.109863,88.374,104
1567620434,367.568,-11.8318,24.2218,178.879,-0.109863,88.374,104
1567620434,367.568,-11.8318,24.2218,178.879,-0.109863,88.374,108
1567620434,367.568,-11.8318,24.2218,178.879,-0.109863,88.374,108
1567620434,367.568,-11.8318,24.2218,178.879,-0.109863,88.374,108
1567620434,367.568,-11.8318,24.2218,178.879,-0.109863,88.374,108
1567620434,367.568,-11.8318,24.2218,178.879,-0.109863,88.374,108
1567620434,367.568,-11.8318,24.2218,178.879,-0.109863,88.374,108
1567620434,367.568,-11.8318,24.2218,178.879,-0.109863,88.374,108
1567620434,367.568,-11.8318,24.2218,178.879,-0.109863,88.374,108
1567620434,367.568,-11.8318,24.2218,178.879,-0.109863,88.374,108
1567620434,367.568,-11.8318,24.2218,178.879,-0.109863,88.374,108
1567620434,367.568,-11.8318,24.2218,178.879,-0.109863,88.374,108
1567620434,367.568,-11.8318,24.2218,178.879,-0.109863,88.374,108
1567620434,367.568,-11.8318,24.2218,178.879,-0.109863,88.374,108
1567620434,367.568,-11.8318,24.2218,178.879,-0.109863,88.374,108
1567620434,367.568,-11.8318,24.2218,178.879,-0.109863,88.374,108
1567620434,367.568,-11.8318,24.2218,178.879,-0.109863,88.374,108
1567620434,367.568,-11.8318,24.2218,178.879,-0.109863,88.374,108
1567620434,367.568,-11.8318,24.2218,178.879,-0.109863,88.374,108
1567620434,367.568,-11.8318,24.2218,178.879,-0.109863,88.374,108
1567620434,367.568,-11.8318,24.2218,178.879,-0.109863,88.374,108
1567620434,367.568,-11.8318,24.2218,178.879,-0.109863,88.374,108
1567620434,367.568,-11.8318,24.2218,178.879,-0.109863,88.374,108
1567620434,367.568,-11.8318,24.2218,178.879,-0.109863,88.374,108
1567620434,367.568,-11.8318,24.2218,178.879,-0.109863,88.374,108
1567620434,367.568,-11.8318,24.2218,178.879,-0.109863,88.374,108
1567620434,367.568,-11.8318,24.2218,178.879,-0.109863,88.374,108
1567620434,367.568,-11.8318,24.2218,178.879,-0.109863,88.374,108
1567620434,367.568,-11.8318,24.2218,178.879,-0.109863,88.374,108
1567620434,367.568,-11.8318,24.2218,178.879,-0.109863,88.374,108
1567620434,367.568,-11.8318,24.2218,178.879,-0.109863,88.374,108
1567620434,367.568,-11.8318,24.2218,178.879,-0.109863,88.374,108
1567620434,367.568,-11.8318,24.2218,178.879,-0.109863,88.374,108
1567620434,367.568,-11.8318,24.2218,178.879,-0.109863,88.374,108
1567620434,367.568,-11.8318,24.2218,178.879,-0.109863,88.374,108
1567620434,367.568,-11.8318,24.2218,178.879,-0.109863,88.374,108
1567620434,367.568,-11.8318,24.2218,178.879,-0.109863,88.374,108
1567620434,367.568,-11.8318,24.2218,178.879,-0.109863,88.374,108
1567620434,367.568,-11.8318,24.2218,178.879,-0.109863,88.374,108
1567620434,367.568,-11.8318,24.2218,178.879,-0.109863,88.374,108
1567620434,367.568,-11.8318,24.2218,178.879,-0.109863,88.374,108
1567620434,367.568,-11.8318,24.2218,178.879,-0.109863,88.374,108
1567620434,367.568,-11.8318,24.2218,178.879,-0.109863,88.374,108
1567620434,367.568,-11.8318,24.2218,178.879,-0.109863,88.374,108
1567620434,367.568,-11.8318,24.2218,178.879,-0.109863,88.374,108
1567620434,367.568,-11.8318,24.2218,178.879,-0.109863,88.374,108
1567620434,367.568,-11.8318,24.2218,178.879,-0.109863,88.374,104
1567620434,367.568,-11.8318,24.2218,178.879,-0.109863,88.374,104
1567620434,367.568,-11.8318,24.2218,178.879,-0.109863,88.374,104
1567620434,367.568,-11.8318,24.2218,178.879,-0.109863,88.374,104
1567620434,367.568,-11.8318,24.2218,178.879,-0.109863,88.374,104
1567620434,367.568,-11.8318,24.2218,178.879,-0.109863,88.374,104
1567620434,367.568,-11.8318,24.2218,178.879,-0.109863,88.374,104
1567620434,367.568,-11.8318,24.2218,178.879,-0.109863,88.374,104
1567620434,367.568,-11.8318,24.2218,178.879,-0.109863,88.374,104
1567620434,367.568,-11.8318,24.2218,178.879,-0.109863,88.374,104
1567620434,367.568,-11.8318,24.2218,178.879,-0.109863,88.374,104
1567620434,367.568,-11.8318,24.2218,178.879,-0.109863,88.374,104
1567620434,367.568,-11.8318,24.2218,178.879,-0.109863,88.374,104
1567620434,367.568,-11.8318,24.2218,178.879,-0.109863,88.374,104
1567620434,367.568,-11.8318,24.2218,178.879,-0.109863,88.374,104
1567620434,367.568,-11.8318,24.2218,178.879,-0.109863,88.374,104
1567620434,367.568,-11.8318,24.2218,178.879,-0.109863,88.374,104
1567620434,367.568,-11.8318,24.2218,178.879,-0.109863,88.374,104
1567620434,367.568,-11.8318,24.2218,178.879,-0.109863,88.374,104
1567620434,367.568,-11.8318,24.2218,178.879,-0.109863,88.374,104
1567620434,367.568,-11.8318,24.2218,178.879,-0.109863,88.374,104
1567620434,367.568,-11.8318,24.2218,178.879,-0.109863,88.374,104
1567620434,367.568,-11.8318,24.2218,178.879,-0.109863,88.374,104
1567620434,367.568,-11.8318,24.2218,178.879,-0.109863,88.374,104
1567620434,367.568,-11.8318,24.2218,178.879,-0.109863,88.374,104
1567620434,367.568,-11.8318,24.2218,178.879,-0.109863,88.374,104
1567620434,367.568,-11.8318,24.2218,178.879,-0.109863,88.374,104
1567620434,367.568,-11.8318,24.2218,178.879,-0.109863,88.374,104
1567620434,367.568,-11.8318,24.2218,178.879,-0.109863,88.374,104
1567620434,367.568,-11.8318,24.2218,178.879,-0.109863,88.374,104
1567620434,367.568,-11.8318,24.2218,178.879,-0.109863,88.374,104
1567620434,367.568,-11.8318,24.2218,178.879,-0.109863,88.374,104
1567620434,367.568,-11.8318,24.2218,178.879,-0.109863,88.374,104
1567620434,367.568,-11.8318,24.2218,178.879,-0.109863,88.374,104
1567620434,367.568,-11.8318,24.2218,178.879,-0.109863,88.374,104
1567620434,367.568,-11.8318,24.2218,178.879,-0.109863,88.374,104
1567620434,367.568,-11.8318,24.2218,178.879,-0.109863,88.374,104
1567620434,367.568,-11.8318,24.2218,178.879,-0.109863,88.374,104
1567620434,367.568,-11.8318,24.2218,178.879,-0.109863,88.374,104
1567620434,367.568,-11.8318,24.2218,178.879,-0.109863,88.374,104
1567620434,367.568,-11.8318,24.2218,178.879,-0.109863,88.374,104
1567620434,367.568,-11.8318,24.2218,178.879,-0.109863,88.374,104
1567620434,367.568,-11.8318,24.2218,178.879,-0.109863,88.374,104
1567620434,367.568,-11.8318,24.2218,178.879,-0.109863,88.374,104
1567620434,367.568,-11.8318,24.2218,178.879,-0.109863,88.374,104
1567620434,367.568,-11.8318,24.2218,178.879,-0.109863,88.374,104
1567620434,367.568,-11.8318,24.2218,178.879,-0.109863,88.374,104
1567620434,367.568,-11.8318,24.2218,178.879,-0.109863,88.374,104
1567620434,367.568,-11.8318,24.2218,178.879,-0.109863,88.374,104
1567620434,367.568,-11.8318,24.2218,178.879,-0.109863,88.374,104
1567620434,367.568,-11.8318,24.2218,178.879,-0.109863,88.374,104
1567620434,367.568,-11.8318,24.2218,178.879,-0.109863,88.374,104
1567620434,367.568,-11.8318,24.2218,178.879,-0.109863,88.374,104
1567620435,367.568,-11.8318,24.2218,178.879,-0.109863,88.374,104
1567620435,367.568,-11.8318,24.2218,178.879,-0.109863,88.374,104
1567620435,367.568,-11.8318,24.2218,178.879,-0.109863,88.374,104
1567620435,367.568,-11.8318,24.2218,178.879,-0.109863,88.374,104
1567620435,367.568,-11.8318,24.2218,178.879,-0.109863,88.374,104
1567620435,367.568,-11.8318,24.2218,178.879,-0.109863,88.374,104
1567620435,367.568,-11.8318,24.2218,178.879,-0.109863,88.374,104
1567620435,367.568,-11.8318,24.2218,178.879,-0.109863,88.374,104
1567620435,367.568,-11.8318,24.2218,178.879,-0.109863,88.374,104
1567620435,367.568,-11.8318,24.2218,178.879,-0.109863,88.374,104
1567620435,367.568,-11.8318,24.2218,178.879,-0.109863,88.374,104
1567620435,367.568,-11.8318,24.2218,178.879,-0.109863,88.374,104
1567620435,367.568,-11.8318,24.2218,178.879,-0.109863,88.374,104
1567620435,367.568,-11.8318,24.2218,178.879,-0.109863,88.374,104
1567620435,367.568,-11.8318,24.2218,178.879,-0.109863,88.374,104
1567620435,367.568,-11.8318,24.2218,178.879,-0.109863,88.374,104
1567620435,367.568,-11.8318,24.2218,178.879,-0.109863,88.374,104
1567620435,367.568,-11.8318,24.2218,178.879,-0.109863,88.374,104
1567620435,367.568,-11.8318,24.2218,178.879,-0.109863,88.374,104
1567620435,367.568,-11.8318,24.2218,178.879,-0.109863,88.374,104
1567620435,367.568,-11.8318,24.2218,178.879,-0.109863,88.374,104
1567620435,367.568,-11.8318,24.2218,178.879,-0.109863,88.374,104
1567620435,367.568,-11.8318,24.2218,178.879,-0.109863,88.374,104
1567620435,367.568,-11.8318,24.2218,178.879,-0.109863,88.374,104
1567620435,367.568,-11.8318,24.2218,178.879,-0.109863,88.374,104
1567620435,367.568,-11.8318,24.2218,178.879,-0.109863,88.374,104
1567620435,367.568,-11.8318,24.2218,178.879,-0.109863,88.374,104
1567620435,367.568,-11.8318,24.2218,178.879,-0.109863,88.374,104
1567620435,367.568,-11.8318,24.2218,178.879,-0.109863,88.374,104
1567620435,367.568,-11.8318,24.2218,178.879,-0.109863,88.374,104
1567620435,367.568,-11.8318,24.2218,178.879,-0.109863,88.374,104
1567620435,367.568,-11.8318,24.2218,178.879,-0.109863,88.374,104
1567620435,367.568,-11.8318,24.2218,178.879,-0.109863,88.374,104
1567620435,367.568,-11.8318,24.2218,178.879,-0.109863,88.374,104
1567620435,367.568,-11.8318,24.2218,178.879,-0.109863,88.374,104
1567620435,367.568,-11.8318,24.2218,178.879,-0.109863,88.374,104
1567620435,367.568,-11.8318,24.2218,178.879,-0.109863,88.374,104
1567620435,367.568,-11.8318,24.2218,178.879,-0.109863,88.374,104
1567620435,367.568,-11.8318,24.2218,178.879,-0.109863,88.374,104
1567620435,367.568,-11.8318,24.2218,178.879,-0.109863,88.374,104
1567620435,367.568,-11.8318,24.2218,178.879,-0.109863,88.374,104
1567620435,367.568,-11.8318,24.2218,178.879,-0.109863,88.374,104
1567620435,367.568,-11.8318,24.2218,178.879,-0.109863,88.374,104
1567620435,367.568,-11.8318,24.2218,178.879,-0.109863,88.374,104
1567620435,367.568,-11.8318,24.2218,178.879,-0.109863,88.374,104
1567620435,367.568,-11.8318,24.2218,178.879,-0.109863,88.374,104
1567620435,367.568,-11.8318,24.2218,178.879,-0.109863,88.374,104
1567620435,367.568,-11.8318,24.2218,178.879,-0.109863,88.374,104
1567620435,367.568,-11.8318,24.2218,178.879,-0.109863,88.374,104
1567620435,367.568,-11.8318,24.2218,178.879,-0.109863,88.374,104
1567620435,367.568,-11.8318,24.2218,178.879,-0.109863,88.374,104
1567620435,367.568,-11.8318,24.2218,178.879,-0.109863,88.374,104
1567620435,367.568,-11.8318,24.2218,178.879,-0.109863,88.374,104
1567620435,367.568,-11.8318,24.2218,178.879,-0.109863,88.374,104
1567620435,367.568,-11.8318,24.2218,178.879,-0.109863,88.374,104
1567620435,367.568,-11.8318,24.2218,178.879,-0.109863,88.374,104
1567620435,367.568,-11.8318,24.2218,178.879,-0.109863,88.374,104
1567620435,367.568,-11.8318,24.2218,178.879,-0.109863,88.374,104
1567620435,367.568,-11.8318,24.2218,178.879,-0.109863,88.374,104
1567620435,367.568,-11.8318,24.2218,178.879,-0.109863,88.374,104
1567620435,367.568,-11.8318,24.2218,178.879,-0.109863,88.374,104
1567620435,367.568,-11.8318,24.2218,178.879,-0.109863,88.374,104
1567620435,367.568,-11.8318,24.2218,178.879,-0.109863,88.374,104
1567620435,367.568,-11.8318,24.2218,178.879,-0.109863,88.374,104
1567620435,367.568,-11.8318,24.2218,178.879,-0.109863,88.374,104
1567620435,367.568,-11.8318,24.2218,178.879,-0.109863,88.374,104
1567620435,367.568,-11.8318,24.2218,178.879,-0.109863,88.374,104
1567620435,367.568,-11.8318,24.2218,178.879,-0.109863,88.374,104
1567620435,367.568,-11.8318,24.2218,178.879,-0.109863,88.374,104
1567620435,367.568,-11.8318,24.2218,178.879,-0.109863,88.374,104
1567620435,367.568,-11.8318,24.2218,178.879,-0.109863,88.374,104
1567620435,367.568,-11.8318,24.2218,178.879,-0.109863,88.374,104
1567620435,367.568,-11.8318,24.2218,178.879,-0.109863,88.374,104
1567620435,367.568,-11.8318,24.2218,178.879,-0.109863,88.374,104
1567620435,367.568,-11.8318,24.2218,178.879,-0.109863,88.374,104
1567620435,367.568,-11.8318,24.2218,178.879,-0.109863,88.374,104
1567620435,367.568,-11.8318,24.2218,178.879,-0.109863,88.374,104
1567620435,367.568,-11.8318,24.2218,178.879,-0.109863,88.374,104
1567620435,367.568,-11.8318,24.2218,178.879,-0.109863,88.374,104
1567620435,367.568,-11.8318,24.2218,178.879,-0.109863,88.374,104
1567620435,367.568,-11.8318,24.2218,178.879,-0.109863,88.374,104
1567620435,367.568,-11.8318,24.2218,178.879,-0.109863,88.374,104
1567620435,367.568,-11.8318,24.2218,178.879,-0.109863,88.374,104
1567620435,367.568,-11.8318,24.2218,178.879,-0.109863,88.374,104
1567620435,367.568,-11.8318,24.2218,178.879,-0.109863,88.374,104
1567620435,367.568,-11.8318,24.2218,178.879,-0.109863,88.374,104
1567620435,367.568,-11.8318,24.2218,178.879,-0.109863,88.374,104
1567620435,367.568,-11.8318,24.2218,178.879,-0.109863,88.374,104
1567620435,367.568,-11.8318,24.2218,178.879,-0.109863,88.374,104
1567620435,367.568,-11.8318,24.2218,178.879,-0.109863,88.374,104
1567620435,367.568,-11.8318,24.2218,178.879,-0.109863,88.374,104
1567620435,367.568,-11.8318,24.2218,178.879,-0.109863,88.374,104
1567620435,367.568,-11.8318,24.2218,178.879,-0.109863,88.374,104
1567620435,367.568,-11.8318,24.2218,178.879,-0.109863,88.374,104
1567620435,367.568,-11.8318,24.2218,178.879,-0.109863,88.374,104
1567620435,367.568,-11.8318,24.2218,178.879,-0.109863,88.374,104
1567620435,367.568,-11.8318,24.2218,178.879,-0.109863,88.374,104
1567620435,367.568,-11.8318,24.2218,178.879,-0.109863,88.374,104
1567620435,367.568,-11.8318,24.2218,178.879,-0.109863,88.374,104
1567620436,367.568,-11.8318,24.2218,178.879,-0.109863,88.374,104
1567620436,367.568,-11.8318,24.2218,178.879,-0.109863,88.374,104
1567620436,367.568,-11.8318,24.2218,178.879,-0.109863,88.374,104
1567620436,367.568,-11.8318,24.2218,178.879,-0.109863,88.374,104
1567620436,367.568,-11.8318,24.2218,178.879,-0.109863,88.374,104
1567620436,367.568,-11.8318,24.2218,178.879,-0.109863,88.374,104
1567620436,367.568,-11.8318,24.2218,178.879,-0.109863,88.374,104
1567620436,367.568,-11.8318,24.2218,178.879,-0.109863,88.374,104
1567620436,367.568,-11.8318,24.2218,178.879,-0.109863,88.374,104
1567620436,367.568,-11.8318,24.2218,178.879,-0.109863,88.374,104
1567620436,367.568,-11.8318,24.2218,178.879,-0.109863,88.374,104
1567620436,367.568,-11.8318,24.2218,178.879,-0.109863,88.374,104
1567620436,367.568,-11.8318,24.2218,178.879,-0.109863,88.374,104
1567620436,367.568,-11.8318,24.2218,178.879,-0.109863,88.374,104
1567620436,367.568,-11.8318,24.2218,178.879,-0.109863,88.374,104
1567620436,367.568,-11.8318,24.2218,178.879,-0.109863,88.374,104
1567620436,367.568,-11.8318,24.2218,178.879,-0.109863,88.374,104
1567620436,367.568,-11.8318,24.2218,178.879,-0.109863,88.374,104
1567620436,367.568,-11.8318,24.2218,178.879,-0.109863,88.374,104
1567620436,367.568,-11.8318,24.2218,178.879,-0.109863,88.374,104
1567620436,367.568,-11.8318,24.2218,178.879,-0.109863,88.374,104
1567620436,367.568,-11.8318,24.2218,178.879,-0.109863,88.374,104
1567620436,367.568,-11.8318,24.2218,178.879,-0.109863,88.374,104
1567620436,367.568,-11.8318,24.2218,178.879,-0.109863,88.374,104
1567620436,367.568,-11.8318,24.2218,178.879,-0.109863,88.374,104
1567620436,367.568,-11.8318,24.2218,178.879,-0.109863,88.374,104
1567620436,367.568,-11.8318,24.2218,178.879,-0.109863,88.374,104
1567620436,367.568,-11.8318,24.2218,178.879,-0.109863,88.374,104
1567620436,367.568,-11.8318,24.2218,178.879,-0.109863,88.374,104
1567620436,367.568,-11.8318,24.2218,178.879,-0.109863,88.374,104
