time,x,y,z,ax,ay,az,q
1569939895,324.594,26.9007,-15.7386,178.506,1.49414,-145.151,340
1569939895,324.594,26.9007,-15.7386,178.506,1.49414,-145.151,340
1569939895,324.594,26.9007,-15.7386,178.506,1.49414,-145.151,340
1569939895,324.594,26.9007,-15.7386,178.506,1.49414,-145.151,340
1569939895,324.594,26.9007,-15.7386,178.506,1.49414,-145.151,340
1569939895,324.594,26.9007,-15.7386,178.506,1.49414,-145.151,340
1569939895,324.594,26.9007,-15.7386,178.506,1.49414,-145.151,340
1569939895,324.594,26.9007,-15.7386,178.506,1.49414,-145.151,340
1569939895,324.594,26.9007,-15.7386,178.506,1.49414,-145.151,340
1569939895,324.594,26.9007,-15.7386,178.506,1.49414,-145.151,340
1569939895,324.594,26.9007,-15.7386,178.506,1.49414,-145.151,344
1569939895,324.594,26.9007,-15.7386,178.506,1.49414,-145.151,344
1569939895,324.594,26.9007,-15.7386,178.506,1.49414,-145.151,344
1569939895,324.594,26.9007,-15.7386,178.506,1.49414,-145.151,344
1569939895,324.594,26.9007,-15.7386,178.506,1.49414,-145.151,340
1569939895,324.594,26.9007,-15.7386,178.506,1.49414,-145.151,340
1569939895,324.594,26.9007,-15.7386,178.506,1.49414,-145.151,340
1569939895,324.594,26.9007,-15.7386,178.506,1.49414,-145.151,340
1569939895,324.594,26.9007,-15.7386,178.506,1.49414,-145.151,340
1569939895,324.594,26.9007,-15.7386,178.506,1.49414,-145.151,340
1569939895,324.594,26.9007,-15.7386,178.506,1.49414,-145.151,340
1569939895,324.594,26.9007,-15.7386,178.506,1.51611,-145.151,340
1569939895,324.594,26.9007,-15.7386,178.506,1.51611,-145.151,340
1569939895,324.594,27.0123,-15.7386,178.506,1.51611,-145.151,340
1569939895,324.594,27.0123,-15.7386,178.528,1.51611,-145.151,340
1569939895,324.594,27.0123,-15.7386,178.528,1.51611,-145.151,340
1569939895,324.594,27.0123,-15.7386,178.528,1.51611,-145.151,340
1569939895,324.594,27.0123,-15.7386,178.528,1.51611,-145.151,336
1569939895,324.594,27.0123,-15.7386,178.528,1.51611,-145.151,336
1569939895,324.706,27.0123,-15.7386,178.528,1.51611,-145.151,336
1569939895,324.706,27.0123,-15.7386,178.528,1.51611,-145.151,336
1569939895,324.706,27.0123,-15.7386,178.528,1.51611,-145.151,336
1569939895,324.706,27.0123,-15.7386,178.506,1.51611,-145.151,336
1569939895,324.706,26.9007,-15.7386,178.506,1.51611,-145.151,336
1569939895,324.706,26.9007,-15.7386,178.506,1.49414,-145.151,336
1569939895,324.594,26.9007,-15.7386,178.506,1.49414,-145.151,336
1569939895,324.594,26.9007,-15.7386,178.506,1.49414,-145.151,336
1569939895,324.594,26.9007,-15.7386,178.506,1.49414,-145.151,336
1569939895,324.594,26.9007,-15.7386,178.506,1.49414,-145.151,336
1569939895,324.594,26.9007,-15.7386,178.506,1.49414,-145.151,336
1569939895,324.594,26.9007,-15.7386,178.506,1.49414,-145.151,336
1569939895,324.594,26.9007,-15.7386,178.506,1.49414,-145.151,336
1569939895,324.594,26.9007,-15.7386,178.506,1.49414,-145.151,336
1569939895,324.594,26.9007,-15.7386,178.506,1.49414,-145.151,336
1569939895,324.594,26.9007,-15.7386,178.506,1.49414,-145.151,336
1569939895,324.594,26.9007,-15.7386,178.506,1.49414,-145.151,336
1569939895,324.594,26.9007,-15.7386,178.506,1.49414,-145.151,336
1569939895,324.594,26.9007,-15.7386,178.506,1.49414,-145.151,336
1569939895,324.594,26.9007,-15.7386,178.506,1.49414,-145.151,336
1569939895,324.594,26.9007,-15.7386,178.506,1.49414,-145.151,336
1569939895,324.594,26.9007,-15.7386,178.506,1.49414,-145.151,336
1569939895,324.594,26.9007,-15.7386,178.506,1.51611,-145.151,336
1569939895,324.594,26.9007,-15.7386,178.506,1.51611,-145.151,336
1569939895,324.594,26.9007,-15.7386,178.506,1.51611,-145.151,332
1569939895,324.594,26.9007,-15.7386,178.506,1.51611,-145.151,332
1569939895,324.594,26.9007,-15.7386,178.484,1.51611,-145.151,332
1569939895,324.594,26.9007,-15.7386,178.484,1.51611,-145.151,332
1569939895,324.594,26.9007,-15.7386,178.484,1.51611,-145.151,332
1569939895,324.594,26.9007,-15.7386,178.484,1.51611,-145.151,332
1569939895,324.594,26.9007,-15.7386,178.484,1.51611,-145.151,332
1569939895,324.594,26.9007,-15.7386,178.484,1.51611,-145.151,332
1569939895,324.594,26.9007,-15.7386,178.484,1.51611,-145.151,332
1569939895,324.594,26.9007,-15.7386,178.484,1.51611,-145.151,332
1569939895,324.594,26.9007,-15.7386,178.484,1.51611,-145.151,332
1569939895,324.594,26.9007,-15.7386,178.484,1.51611,-145.151,332
1569939896,324.594,26.9007,-15.7386,178.484,1.51611,-145.151,332
1569939896,324.594,26.9007,-15.7386,178.484,1.49414,-145.151,332
1569939896,324.594,26.9007,-15.7386,178.484,1.49414,-145.151,332
1569939896,324.594,26.9007,-15.7386,178.484,1.49414,-145.151,332
1569939896,324.594,26.9007,-15.7386,178.484,1.49414,-145.151,332
1569939896,324.594,26.9007,-15.7386,178.484,1.49414,-145.151,332
1569939896,324.594,26.9007,-15.7386,178.484,1.49414,-145.151,332
1569939896,324.594,26.9007,-15.7386,178.484,1.49414,-145.151,332
1569939896,324.594,26.9007,-15.7386,178.484,1.49414,-145.151,332
1569939896,324.594,26.9007,-15.7386,178.484,1.49414,-145.151,332
1569939896,324.594,26.9007,-15.7386,178.484,1.49414,-145.151,332
1569939896,324.594,26.9007,-15.7386,178.484,1.49414,-145.151,336
1569939896,324.594,26.9007,-15.7386,178.484,1.49414,-145.151,336
1569939896,324.594,26.9007,-15.7386,178.484,1.49414,-145.151,336
1569939896,324.594,26.9007,-15.7386,178.484,1.49414,-145.151,336
1569939896,324.594,26.9007,-15.7386,178.484,1.51611,-145.151,336
1569939896,324.594,26.9007,-15.7386,178.484,1.51611,-145.151,340
1569939896,324.594,26.9007,-15.7386,178.484,1.51611,-145.151,340
1569939896,324.594,26.9007,-15.7386,178.484,1.51611,-145.151,340
1569939896,324.594,26.9007,-15.7386,178.484,1.51611,-145.151,340
1569939896,324.594,26.9007,-15.7386,178.484,1.51611,-145.151,340
1569939896,324.594,26.9007,-15.7386,178.484,1.51611,-145.151,340
1569939896,324.594,26.9007,-15.7386,178.484,1.51611,-145.151,344
1569939896,324.594,26.9007,-15.7386,178.484,1.51611,-145.151,344
1569939896,324.594,26.9007,-15.7386,178.484,1.51611,-145.151,344
1569939896,324.594,26.9007,-15.7386,178.506,1.51611,-145.151,344
1569939896,324.594,26.9007,-15.7386,178.506,1.51611,-145.151,344
1569939896,324.594,26.9007,-15.7386,178.506,1.51611,-145.151,344
1569939896,324.594,26.9007,-15.7386,178.506,1.49414,-145.151,344
1569939896,324.594,26.9007,-15.7386,178.506,1.49414,-145.151,344
1569939896,324.594,26.9007,-15.7386,178.506,1.49414,-145.151,344
1569939896,324.594,26.9007,-15.7386,178.506,1.49414,-145.151,348
1569939896,324.594,26.9007,-15.7386,178.484,1.49414,-145.151,348
1569939896,324.594,26.9007,-15.7386,178.484,1.49414,-145.151,348
1569939896,324.594,26.9007,-15.7386,178.484,1.49414,-145.151,348
1569939896,324.594,26.9007,-15.7386,178.484,1.49414,-145.151,348
1569939896,324.594,26.9007,-15.7386,178.484,1.49414,-145.151,348
1569939896,324.594,26.9007,-15.7386,178.484,1.49414,-145.151,348
1569939896,324.594,26.9007,-15.7386,178.484,1.49414,-145.151,348
1569939896,324.594,26.9007,-15.7386,178.484,1.49414,-145.151,348
1569939896,324.594,26.9007,-15.7386,178.484,1.51611,-145.151,348
1569939896,324.594,26.9007,-15.7386,178.484,1.51611,-145.151,348
1569939896,324.594,26.9007,-15.7386,178.484,1.51611,-145.151,348
1569939896,324.594,26.9007,-15.7386,178.484,1.51611,-145.151,348
1569939896,324.594,26.9007,-15.7386,178.484,1.51611,-145.151,348
1569939896,324.594,26.9007,-15.7386,178.484,1.51611,-145.151,348
1569939896,324.594,26.9007,-15.7386,178.484,1.51611,-145.151,348
1569939896,324.594,26.9007,-15.7386,178.484,1.51611,-145.151,348
1569939896,324.594,26.9007,-15.7386,178.484,1.51611,-145.151,348
1569939896,324.594,26.9007,-15.7386,178.484,1.51611,-145.151,348
1569939896,324.594,26.9007,-15.7386,178.484,1.51611,-145.151,348
1569939896,324.594,26.9007,-15.7386,178.484,1.51611,-145.151,348
1569939896,324.594,26.9007,-15.7386,178.484,1.49414,-145.151,348
1569939896,324.594,26.9007,-15.7386,178.484,1.49414,-145.151,348
1569939896,324.594,26.9007,-15.7386,178.484,1.49414,-145.151,348
1569939896,324.594,26.9007,-15.7386,178.484,1.49414,-145.151,348
1569939896,324.594,26.9007,-15.7386,178.484,1.49414,-145.151,348
1569939896,324.594,26.9007,-15.7386,178.484,1.49414,-145.151,348
1569939896,324.594,26.9007,-15.7386,178.506,1.49414,-145.151,348
1569939896,324.594,26.9007,-15.7386,178.506,1.49414,-145.151,348
1569939896,324.594,26.9007,-15.7386,178.506,1.49414,-145.151,352
1569939896,324.594,26.9007,-15.7386,178.506,1.49414,-145.151,352
1569939896,324.594,26.9007,-15.7386,178.506,1.49414,-145.151,352
1569939896,324.594,26.9007,-15.7386,178.506,1.49414,-145.151,352
1569939896,324.594,26.9007,-15.7386,178.506,1.49414,-145.151,352
1569939896,324.594,26.9007,-15.7386,178.506,1.49414,-145.151,352
1569939896,324.594,26.9007,-15.7386,178.506,1.49414,-145.151,352
1569939896,324.594,26.9007,-15.7386,178.506,1.49414,-145.151,352
1569939896,324.594,26.9007,-15.7386,178.506,1.49414,-145.151,352
1569939896,324.594,26.9007,-15.7386,178.484,1.49414,-145.151,352
1569939896,324.594,26.9007,-15.7386,178.484,1.49414,-145.151,352
1569939896,324.594,26.9007,-15.7386,178.484,1.49414,-145.173,348
1569939896,324.594,26.9007,-15.7386,178.484,1.49414,-145.173,348
1569939896,324.594,26.9007,-15.7386,178.484,1.49414,-145.173,348
1569939896,324.594,26.9007,-15.7386,178.484,1.49414,-145.173,348
1569939896,324.594,26.9007,-15.7386,178.484,1.49414,-145.173,348
1569939896,324.594,26.9007,-15.7386,178.484,1.49414,-145.173,348
1569939896,324.594,26.9007,-15.7386,178.484,1.49414,-145.151,348
1569939896,324.594,26.9007,-15.7386,178.484,1.49414,-145.151,348
1569939896,324.594,26.9007,-15.7386,178.484,1.49414,-145.151,348
1569939896,324.594,26.9007,-15.7386,178.484,1.49414,-145.151,348
1569939896,324.594,26.9007,-15.7386,178.484,1.49414,-145.151,348
1569939896,324.594,26.9007,-15.7386,178.484,1.49414,-145.151,348
1569939896,324.594,26.9007,-15.7386,178.484,1.49414,-145.151,348
1569939896,324.594,26.9007,-15.7386,178.484,1.49414,-145.151,348
1569939896,324.594,26.9007,-15.7386,178.484,1.49414,-145.151,348
1569939896,324.594,26.9007,-15.7386,178.484,1.49414,-145.151,348
1569939896,324.594,26.9007,-15.7386,178.484,1.49414,-145.151,348
1569939896,324.594,26.9007,-15.7386,178.484,1.49414,-145.151,348
1569939896,324.594,26.9007,-15.7386,178.484,1.49414,-145.151,348
1569939896,324.594,26.9007,-15.7386,178.484,1.49414,-145.151,348
1569939896,324.594,26.9007,-15.7386,178.484,1.49414,-145.151,348
1569939896,324.594,26.9007,-15.7386,178.484,1.49414,-145.151,348
1569939896,324.594,26.9007,-15.7386,178.484,1.49414,-145.151,348
1569939896,324.594,26.9007,-15.7386,178.484,1.49414,-145.151,344
1569939896,324.594,26.9007,-15.7386,178.484,1.49414,-145.151,344
1569939896,324.594,26.9007,-15.8502,178.484,1.47217,-145.151,344
1569939896,324.594,26.9007,-15.8502,178.484,1.47217,-145.151,344
1569939896,324.594,26.9007,-15.8502,178.484,1.47217,-145.151,344
1569939896,324.594,26.9007,-15.8502,178.484,1.47217,-145.151,344
1569939897,324.594,26.9007,-15.8502,178.484,1.47217,-145.151,344
1569939897,324.594,26.9007,-15.8502,178.484,1.47217,-145.151,344
1569939897,324.594,26.9007,-15.8502,178.484,1.47217,-145.151,344
1569939897,324.594,26.9007,-15.7386,178.484,1.49414,-145.151,344
1569939897,324.594,26.9007,-15.7386,178.484,1.49414,-145.151,344
1569939897,324.594,26.9007,-15.7386,178.484,1.49414,-145.151,344
1569939897,324.594,26.9007,-15.7386,178.484,1.49414,-145.151,340
1569939897,324.594,26.9007,-15.7386,178.484,1.49414,-145.151,340
1569939897,324.706,26.9007,-15.7386,178.484,1.49414,-145.151,340
1569939897,324.706,26.9007,-15.7386,178.484,1.49414,-145.151,340
1569939897,324.706,26.9007,-15.7386,178.484,1.49414,-145.151,340
1569939897,324.706,26.9007,-15.7386,178.484,1.49414,-145.151,340
1569939897,324.706,26.9007,-15.7386,178.484,1.49414,-145.151,340
1569939897,324.706,26.9007,-15.7386,178.484,1.49414,-145.151,340
1569939897,324.706,26.9007,-15.7386,178.484,1.49414,-145.151,340
1569939897,324.706,26.9007,-15.7386,178.484,1.49414,-145.151,340
1569939897,324.706,26.9007,-15.7386,178.484,1.49414,-145.151,340
1569939897,324.706,26.9007,-15.7386,178.484,1.49414,-145.151,340
1569939897,324.706,26.9007,-15.7386,178.484,1.49414,-145.151,340
1569939897,324.706,26.9007,-15.7386,178.484,1.49414,-145.151,340
1569939897,324.594,26.9007,-15.7386,178.484,1.49414,-145.151,340
1569939897,324.594,26.9007,-15.7386,178.484,1.49414,-145.151,340
1569939897,324.594,26.9007,-15.7386,178.484,1.49414,-145.151,340
1569939897,324.594,26.9007,-15.7386,178.484,1.49414,-145.151,340
1569939897,324.594,26.9007,-15.7386,178.484,1.49414,-145.151,340
1569939897,324.594,26.9007,-15.7386,178.484,1.49414,-145.151,344
1569939897,324.594,26.9007,-15.7386,178.484,1.49414,-145.151,344
1569939897,324.594,26.9007,-15.7386,178.484,1.49414,-145.151,344
1569939897,324.594,26.9007,-15.7386,178.484,1.49414,-145.151,344
1569939897,324.594,26.9007,-15.7386,178.484,1.49414,-145.151,344
1569939897,324.594,26.9007,-15.7386,178.484,1.49414,-145.151,344
1569939897,324.594,26.9007,-15.7386,178.484,1.51611,-145.151,344
1569939897,324.594,26.9007,-15.7386,178.484,1.51611,-145.151,344
1569939897,324.594,26.9007,-15.7386,178.484,1.51611,-145.151,344
1569939897,324.594,26.9007,-15.7386,178.484,1.51611,-145.151,344
1569939897,324.594,26.9007,-15.7386,178.506,1.51611,-145.151,344
1569939897,324.594,26.9007,-15.7386,178.506,1.51611,-145.151,344
1569939897,324.594,26.9007,-15.7386,178.506,1.51611,-145.151,344
1569939897,324.594,26.9007,-15.7386,178.506,1.51611,-145.151,344
1569939897,324.594,26.9007,-15.7386,178.506,1.51611,-145.151,344
1569939897,324.594,26.9007,-15.7386,178.506,1.51611,-145.151,340
1569939897,324.594,26.9007,-15.7386,178.506,1.51611,-145.151,340
1569939897,324.594,26.9007,-15.7386,178.506,1.51611,-145.151,340
1569939897,324.594,27.0123,-15.7386,178.506,1.51611,-145.151,340
1569939897,324.594,27.0123,-15.7386,178.506,1.51611,-145.151,340
1569939897,324.594,27.0123,-15.7386,178.506,1.51611,-145.151,340
1569939897,324.594,27.0123,-15.7386,178.506,1.51611,-145.151,340
1569939897,324.594,27.0123,-15.7386,178.506,1.51611,-145.151,340
1569939897,324.594,27.0123,-15.7386,178.506,1.49414,-145.151,340
1569939897,324.594,26.9007,-15.7386,178.506,1.49414,-145.151,340
1569939897,324.594,26.9007,-15.7386,178.506,1.49414,-145.151,340
1569939897,324.594,26.9007,-15.7386,178.506,1.49414,-145.151,340
1569939897,324.594,26.9007,-15.7386,178.506,1.49414,-145.151,340
1569939897,324.594,26.9007,-15.7386,178.506,1.49414,-145.151,340
1569939897,324.594,26.9007,-15.7386,178.506,1.49414,-145.151,340
1569939897,324.594,26.9007,-15.7386,178.506,1.49414,-145.151,340
1569939897,324.594,26.9007,-15.7386,178.506,1.49414,-145.151,340
1569939897,324.594,26.9007,-15.7386,178.484,1.51611,-145.173,340
1569939897,324.594,26.9007,-15.7386,178.484,1.51611,-145.173,340
1569939897,324.594,26.9007,-15.7386,178.484,1.51611,-145.173,340
1569939897,324.594,26.9007,-15.7386,178.484,1.51611,-145.173,340
1569939897,324.594,26.9007,-15.7386,178.484,1.51611,-145.173,340
1569939897,324.594,26.9007,-15.7386,178.484,1.51611,-145.151,340
1569939897,324.594,26.9007,-15.7386,178.484,1.49414,-145.151,340
1569939897,324.594,26.9007,-15.7386,178.484,1.49414,-145.151,340
1569939897,324.594,26.9007,-15.7386,178.484,1.49414,-145.151,340
1569939897,324.594,26.9007,-15.7386,178.484,1.49414,-145.151,340
1569939897,324.594,26.9007,-15.7386,178.484,1.49414,-145.151,340
1569939897,324.594,26.9007,-15.7386,178.484,1.49414,-145.151,340
1569939897,324.594,26.9007,-15.7386,178.484,1.49414,-145.151,340
1569939897,324.594,26.9007,-15.7386,178.484,1.49414,-145.151,340
1569939897,324.594,26.9007,-15.7386,178.484,1.49414,-145.151,344
1569939897,324.594,26.9007,-15.7386,178.484,1.49414,-145.151,344
1569939897,324.594,26.9007,-15.7386,178.484,1.49414,-145.151,344
1569939897,324.594,26.9007,-15.7386,178.484,1.49414,-145.151,344
1569939897,324.594,26.9007,-15.7386,178.484,1.49414,-145.151,344
1569939897,324.594,26.9007,-15.7386,178.484,1.49414,-145.151,344
1569939897,324.594,26.9007,-15.7386,178.484,1.49414,-145.151,344
1569939897,324.594,26.9007,-15.7386,178.484,1.49414,-145.151,344
1569939897,324.594,26.9007,-15.7386,178.484,1.49414,-145.151,344
1569939897,324.594,26.9007,-15.7386,178.484,1.49414,-145.151,348
1569939897,324.594,26.9007,-15.7386,178.484,1.49414,-145.151,348
1569939897,324.594,26.9007,-15.7386,178.484,1.49414,-145.151,348
1569939897,324.594,26.9007,-15.7386,178.484,1.49414,-145.151,348
1569939897,324.594,26.9007,-15.7386,178.484,1.49414,-145.151,348
1569939897,324.594,26.9007,-15.7386,178.484,1.49414,-145.151,348
1569939897,324.594,26.9007,-15.7386,178.484,1.49414,-145.151,348
1569939897,324.594,26.9007,-15.7386,178.484,1.49414,-145.151,348
1569939897,324.594,26.9007,-15.7386,178.484,1.49414,-145.151,348
1569939897,324.594,26.9007,-15.7386,178.484,1.49414,-145.151,352
1569939897,324.594,26.9007,-15.7386,178.484,1.49414,-145.151,352
1569939897,324.594,26.9007,-15.7386,178.484,1.49414,-145.151,352
1569939897,324.594,26.9007,-15.7386,178.484,1.49414,-145.151,352
1569939897,324.594,26.9007,-15.7386,178.484,1.49414,-145.151,352
1569939897,324.594,26.9007,-15.7386,178.484,1.49414,-145.151,352
1569939897,324.594,26.9007,-15.7386,178.484,1.49414,-145.151,352
1569939897,324.594,26.9007,-15.7386,178.484,1.49414,-145.151,352
1569939897,324.594,26.9007,-15.8502,178.484,1.49414,-145.151,352
1569939897,324.594,26.9007,-15.8502,178.484,1.49414,-145.151,352
1569939897,324.594,26.9007,-15.8502,178.484,1.49414,-145.151,352
1569939898,324.594,26.9007,-15.8502,178.484,1.49414,-145.151,352
1569939898,324.594,26.9007,-15.7386,178.484,1.49414,-145.151,352
1569939898,324.594,26.9007,-15.7386,178.484,1.49414,-145.151,348
1569939898,324.594,26.9007,-15.7386,178.484,1.49414,-145.151,348
1569939898,324.594,26.9007,-15.7386,178.484,1.49414,-145.151,348
1569939898,324.594,26.9007,-15.7386,178.506,1.49414,-145.151,348
1569939898,324.594,26.9007,-15.7386,178.506,1.49414,-145.151,348
1569939898,324.594,26.9007,-15.7386,178.506,1.49414,-145.173,348
1569939898,324.594,26.9007,-15.7386,178.506,1.49414,-145.173,348
1569939898,324.594,26.9007,-15.7386,178.506,1.49414,-145.173,348
1569939898,324.594,26.9007,-15.7386,178.506,1.49414,-145.173,348
1569939898,324.594,26.9007,-15.7386,178.506,1.49414,-145.173,348
1569939898,324.594,26.9007,-15.7386,178.506,1.49414,-145.173,348
1569939898,324.594,26.9007,-15.7386,178.506,1.49414,-145.173,348
1569939898,324.594,26.9007,-15.7386,178.506,1.49414,-145.173,348
1569939898,324.594,26.9007,-15.7386,178.506,1.49414,-145.173,348
1569939898,324.594,26.9007,-15.7386,178.484,1.49414,-145.173,348
1569939898,324.594,26.9007,-15.7386,178.484,1.49414,-145.173,348
1569939898,324.594,26.9007,-15.7386,178.484,1.49414,-145.173,348
1569939898,324.594,26.9007,-15.7386,178.484,1.49414,-145.151,348
1569939898,324.594,26.9007,-15.7386,178.484,1.49414,-145.151,348
1569939898,324.594,26.9007,-15.7386,178.484,1.49414,-145.151,348
1569939898,324.594,26.9007,-15.7386,178.484,1.51611,-145.151,348
1569939898,324.594,26.9007,-15.7386,178.484,1.51611,-145.151,348
1569939898,324.594,26.9007,-15.7386,178.484,1.51611,-145.151,348
1569939898,324.594,26.9007,-15.7386,178.506,1.51611,-145.151,348
1569939898,324.594,26.9007,-15.7386,178.506,1.51611,-145.151,348
1569939898,324.594,26.9007,-15.7386,178.506,1.51611,-145.151,348
1569939898,324.594,26.9007,-15.7386,178.506,1.51611,-145.151,348
1569939898,324.594,26.9007,-15.7386,178.506,1.49414,-145.151,348
1569939898,324.594,26.9007,-15.7386,178.506,1.49414,-145.151,348
1569939898,324.594,26.9007,-15.7386,178.506,1.49414,-145.151,348
1569939898,324.594,26.9007,-15.7386,178.506,1.49414,-145.151,348
1569939898,324.594,26.9007,-15.7386,178.506,1.49414,-145.151,348
1569939898,324.594,26.9007,-15.7386,178.506,1.49414,-145.151,348
1569939898,324.594,26.9007,-15.7386,178.506,1.49414,-145.151,348
1569939898,324.594,26.9007,-15.7386,178.506,1.49414,-145.151,348
1569939898,324.594,26.9007,-15.7386,178.506,1.49414,-145.151,348
1569939898,324.594,26.9007,-15.7386,178.506,1.49414,-145.151,348
1569939898,324.594,26.9007,-15.7386,178.506,1.49414,-145.151,348
1569939898,324.594,26.9007,-15.7386,178.506,1.49414,-145.151,348
1569939898,324.594,26.9007,-15.7386,178.506,1.49414,-145.151,348
1569939898,324.594,26.9007,-15.7386,178.506,1.49414,-145.151,348
1569939898,324.594,26.9007,-15.7386,178.506,1.49414,-145.151,348
1569939898,324.594,26.9007,-15.7386,178.506,1.49414,-145.151,348
1569939898,324.594,26.9007,-15.7386,178.506,1.49414,-145.151,348
1569939898,324.594,26.9007,-15.7386,178.506,1.49414,-145.151,348
1569939898,324.594,26.9007,-15.7386,178.506,1.49414,-145.151,348
1569939898,324.594,26.9007,-15.7386,178.506,1.49414,-145.151,348
1569939898,324.594,26.9007,-15.7386,178.506,1.49414,-145.151,348
1569939898,324.594,26.9007,-15.7386,178.506,1.49414,-145.151,348
1569939898,324.594,26.9007,-15.7386,178.506,1.49414,-145.151,348
1569939898,324.594,26.9007,-15.7386,178.506,1.49414,-145.151,352
1569939898,324.594,26.9007,-15.7386,178.506,1.49414,-145.151,352
1569939898,324.594,26.9007,-15.7386,178.506,1.49414,-145.151,352
1569939898,324.594,26.9007,-15.7386,178.506,1.49414,-145.151,352
1569939898,324.594,26.9007,-15.7386,178.506,1.49414,-145.151,352
1569939898,324.594,26.9007,-15.7386,178.506,1.49414,-145.151,352
1569939898,324.594,26.9007,-15.7386,178.506,1.49414,-145.173,352
1569939898,324.594,26.9007,-15.7386,178.506,1.49414,-145.173,352
1569939898,324.594,26.9007,-15.7386,178.506,1.49414,-145.173,352
1569939898,324.594,26.9007,-15.7386,178.506,1.49414,-145.173,352
1569939898,324.594,26.9007,-15.7386,178.506,1.49414,-145.173,352
1569939898,324.594,26.9007,-15.7386,178.484,1.49414,-145.173,348
1569939898,324.594,26.9007,-15.7386,178.484,1.49414,-145.173,348
1569939898,324.594,26.9007,-15.7386,178.484,1.49414,-145.173,348
1569939898,324.594,26.9007,-15.7386,178.484,1.49414,-145.173,348
1569939898,324.594,26.9007,-15.7386,178.484,1.49414,-145.173,348
1569939898,324.594,26.9007,-15.7386,178.484,1.49414,-145.173,348
1569939898,324.594,26.9007,-15.7386,178.484,1.49414,-145.173,348
1569939898,324.594,26.9007,-15.7386,178.484,1.49414,-145.173,348
1569939898,324.594,26.9007,-15.7386,178.484,1.49414,-145.173,348
1569939898,324.594,26.9007,-15.7386,178.484,1.49414,-145.173,348
1569939898,324.594,26.9007,-15.7386,178.484,1.49414,-145.173,348
1569939898,324.594,26.9007,-15.7386,178.484,1.49414,-145.173,348
1569939898,324.594,26.9007,-15.7386,178.484,1.49414,-145.173,348
1569939898,324.594,26.9007,-15.7386,178.484,1.49414,-145.173,348
1569939898,324.594,26.9007,-15.7386,178.484,1.49414,-145.173,348
1569939898,324.594,26.9007,-15.7386,178.484,1.49414,-145.173,348
1569939898,324.594,26.9007,-15.7386,178.484,1.49414,-145.173,348
1569939898,324.594,26.9007,-15.7386,178.484,1.49414,-145.173,348
1569939898,324.594,26.9007,-15.7386,178.484,1.49414,-145.173,348
1569939898,324.594,26.9007,-15.7386,178.484,1.49414,-145.173,348
1569939898,324.594,26.9007,-15.7386,178.484,1.49414,-145.173,348
1569939898,324.594,26.9007,-15.7386,178.484,1.49414,-145.173,352
1569939898,324.594,26.9007,-15.7386,178.484,1.49414,-145.173,352
1569939898,324.594,26.9007,-15.7386,178.484,1.49414,-145.173,352
1569939898,324.594,26.9007,-15.7386,178.484,1.49414,-145.173,352
1569939898,324.594,26.9007,-15.7386,178.484,1.49414,-145.173,352
1569939898,324.594,26.9007,-15.7386,178.484,1.49414,-145.173,352
1569939898,324.594,26.9007,-15.7386,178.484,1.49414,-145.173,352
1569939898,324.594,26.9007,-15.7386,178.484,1.49414,-145.173,352
1569939898,324.594,26.9007,-15.7386,178.462,1.49414,-145.173,348
1569939898,324.594,26.9007,-15.7386,178.462,1.49414,-145.151,348
1569939898,324.594,26.9007,-15.7386,178.462,1.49414,-145.151,348
1569939898,324.594,26.9007,-15.8502,178.462,1.49414,-145.151,348
1569939898,324.594,26.9007,-15.8502,178.484,1.49414,-145.151,348
1569939898,324.594,26.9007,-15.8502,178.484,1.49414,-145.151,348
1569939898,324.594,26.9007,-15.8502,178.484,1.49414,-145.151,348
1569939898,324.594,26.9007,-15.8502,178.484,1.49414,-145.151,348
1569939899,324.594,26.9007,-15.8502,178.484,1.49414,-145.151,348
1569939899,324.594,26.9007,-15.8502,178.484,1.49414,-145.151,348
1569939899,324.594,26.9007,-15.8502,178.484,1.49414,-145.151,348
1569939899,324.594,26.9007,-15.8502,178.484,1.49414,-145.151,352
1569939899,324.594,26.9007,-15.8502,178.484,1.49414,-145.151,352
1569939899,324.594,26.9007,-15.8502,178.484,1.49414,-145.151,352
1569939899,324.594,26.9007,-15.8502,178.484,1.49414,-145.151,352
1569939899,324.594,26.9007,-15.8502,178.484,1.49414,-145.151,352
1569939899,324.594,26.9007,-15.8502,178.484,1.49414,-145.151,352
1569939899,324.594,26.9007,-15.8502,178.484,1.49414,-145.151,352
1569939899,324.594,26.9007,-15.8502,178.484,1.49414,-145.151,352
1569939899,324.594,26.9007,-15.8502,178.484,1.49414,-145.151,352
1569939899,324.594,26.9007,-15.8502,178.484,1.49414,-145.151,352
1569939899,324.594,26.9007,-15.7386,178.484,1.49414,-145.151,352
1569939899,324.594,26.9007,-15.7386,178.506,1.49414,-145.151,352
1569939899,324.594,26.9007,-15.7386,178.506,1.49414,-145.151,352
1569939899,324.594,26.9007,-15.7386,178.506,1.49414,-145.151,352
1569939899,324.594,26.9007,-15.7386,178.506,1.49414,-145.151,352
1569939899,324.594,26.9007,-15.7386,178.506,1.49414,-145.151,352
1569939899,324.594,26.9007,-15.7386,178.506,1.49414,-145.151,352
1569939899,324.594,26.9007,-15.7386,178.506,1.49414,-145.151,352
1569939899,324.594,26.9007,-15.7386,178.506,1.49414,-145.151,352
1569939899,324.594,26.9007,-15.7386,178.506,1.49414,-145.151,352
1569939899,324.594,26.9007,-15.7386,178.506,1.51611,-145.151,352
1569939899,324.594,26.9007,-15.7386,178.506,1.51611,-145.151,352
1569939899,324.594,26.9007,-15.7386,178.506,1.51611,-145.151,352
1569939899,324.594,26.9007,-15.7386,178.506,1.51611,-145.151,352
1569939899,324.594,26.9007,-15.7386,178.506,1.51611,-145.151,352
1569939899,324.594,26.9007,-15.7386,178.506,1.51611,-145.151,352
1569939899,324.594,26.9007,-15.7386,178.484,1.51611,-145.151,348
1569939899,324.594,26.9007,-15.7386,178.506,1.51611,-145.173,348
1569939899,324.594,26.9007,-15.7386,178.484,1.51611,-145.173,348
1569939899,324.594,26.9007,-15.7386,178.484,1.51611,-145.173,348
1569939899,324.594,26.9007,-15.7386,178.484,1.51611,-145.173,348
1569939899,324.594,26.9007,-15.7386,178.484,1.51611,-145.173,348
1569939899,324.594,26.9007,-15.7386,178.484,1.49414,-145.173,348
1569939899,324.594,26.9007,-15.7386,178.484,1.49414,-145.173,348
1569939899,324.594,26.9007,-15.7386,178.484,1.49414,-145.151,348
1569939899,324.594,26.9007,-15.7386,178.484,1.49414,-145.151,348
1569939899,324.594,26.9007,-15.7386,178.484,1.49414,-145.151,348
1569939899,324.594,26.9007,-15.7386,178.484,1.49414,-145.151,348
1569939899,324.594,26.9007,-15.7386,178.484,1.49414,-145.151,348
1569939899,324.594,26.9007,-15.7386,178.484,1.49414,-145.151,348
1569939899,324.594,26.9007,-15.7386,178.484,1.49414,-145.151,348
1569939899,324.594,26.9007,-15.7386,178.484,1.49414,-145.151,348
1569939899,324.594,26.9007,-15.7386,178.484,1.49414,-145.151,348
1569939899,324.594,26.9007,-15.7386,178.484,1.49414,-145.151,348
1569939899,324.594,26.9007,-15.7386,178.484,1.49414,-145.151,348
1569939899,324.594,26.9007,-15.7386,178.484,1.49414,-145.151,348
1569939899,324.594,26.9007,-15.7386,178.484,1.49414,-145.151,348
1569939899,324.594,26.9007,-15.7386,178.484,1.49414,-145.151,348
1569939899,324.594,26.9007,-15.7386,178.484,1.49414,-145.151,348
1569939899,324.594,26.9007,-15.7386,178.506,1.49414,-145.151,348
1569939899,324.594,26.9007,-15.7386,178.506,1.49414,-145.151,348
1569939899,324.594,26.9007,-15.7386,178.506,1.49414,-145.151,348
1569939899,324.594,26.9007,-15.7386,178.506,1.49414,-145.151,348
1569939899,324.594,26.9007,-15.7386,178.506,1.49414,-145.151,348
1569939899,324.594,26.9007,-15.7386,178.506,1.49414,-145.151,348
1569939899,324.594,26.9007,-15.7386,178.506,1.49414,-145.151,348
1569939899,324.594,26.9007,-15.7386,178.506,1.49414,-145.151,348
1569939899,324.594,26.9007,-15.7386,178.506,1.49414,-145.151,348
1569939899,324.594,26.9007,-15.7386,178.506,1.49414,-145.173,348
1569939899,324.594,26.9007,-15.7386,178.506,1.49414,-145.173,348
1569939899,324.594,26.9007,-15.7386,178.506,1.49414,-145.173,348
1569939899,324.594,26.9007,-15.7386,178.506,1.49414,-145.173,348
1569939899,324.594,26.9007,-15.7386,178.506,1.49414,-145.151,348
1569939899,324.594,26.9007,-15.7386,178.506,1.49414,-145.151,348
1569939899,324.594,26.9007,-15.7386,178.506,1.49414,-145.151,348
1569939899,324.594,26.9007,-15.7386,178.506,1.49414,-145.151,348
1569939899,324.594,26.9007,-15.7386,178.506,1.49414,-145.151,348
1569939899,324.594,27.0123,-15.7386,178.506,1.49414,-145.151,352
1569939899,324.594,27.0123,-15.7386,178.506,1.49414,-145.151,352
1569939899,324.594,27.0123,-15.7386,178.506,1.49414,-145.151,352
1569939899,324.594,26.9007,-15.7386,178.506,1.49414,-145.151,352
1569939899,324.594,26.9007,-15.7386,178.506,1.49414,-145.151,352
1569939899,324.594,26.9007,-15.7386,178.506,1.49414,-145.151,352
1569939899,324.594,26.9007,-15.7386,178.506,1.49414,-145.151,352
1569939899,324.594,26.9007,-15.7386,178.506,1.49414,-145.173,352
1569939899,324.594,26.9007,-15.7386,178.506,1.49414,-145.173,352
1569939899,324.594,26.9007,-15.7386,178.506,1.49414,-145.173,352
1569939899,324.594,26.9007,-15.7386,178.506,1.49414,-145.173,352
1569939899,324.594,26.9007,-15.7386,178.506,1.49414,-145.173,352
1569939899,324.594,26.9007,-15.7386,178.506,1.49414,-145.173,352
1569939899,324.594,26.9007,-15.7386,178.506,1.49414,-145.173,352
1569939899,324.594,26.9007,-15.7386,178.506,1.49414,-145.173,352
1569939899,324.594,26.9007,-15.7386,178.506,1.49414,-145.173,352
1569939899,324.594,26.9007,-15.7386,178.506,1.49414,-145.173,352
1569939899,324.594,26.9007,-15.7386,178.506,1.49414,-145.173,352
1569939899,324.594,26.9007,-15.7386,178.506,1.49414,-145.173,352
1569939899,324.594,26.9007,-15.7386,178.506,1.49414,-145.173,352
1569939899,324.594,26.9007,-15.7386,178.484,1.49414,-145.173,352
1569939899,324.594,26.9007,-15.7386,178.484,1.49414,-145.173,348
1569939899,324.594,26.9007,-15.7386,178.484,1.49414,-145.173,348
1569939899,324.594,26.9007,-15.7386,178.484,1.49414,-145.173,348
1569939899,324.594,26.9007,-15.7386,178.484,1.49414,-145.151,348
1569939899,324.594,26.9007,-15.7386,178.506,1.49414,-145.151,348
1569939899,324.594,26.9007,-15.7386,178.506,1.49414,-145.151,348
1569939899,324.594,26.9007,-15.7386,178.506,1.49414,-145.151,348
1569939899,324.594,26.9007,-15.7386,178.506,1.49414,-145.151,348
1569939899,324.594,26.9007,-15.7386,178.506,1.49414,-145.151,344
1569939900,324.594,26.9007,-15.7386,178.506,1.49414,-145.151,344
1569939900,324.594,26.9007,-15.7386,178.506,1.49414,-145.151,344
1569939900,324.594,26.9007,-15.7386,178.506,1.49414,-145.151,344
1569939900,324.594,26.9007,-15.7386,178.506,1.49414,-145.151,344
1569939900,324.594,26.9007,-15.7386,178.506,1.51611,-145.151,344
1569939900,324.594,26.9007,-15.7386,178.506,1.51611,-145.151,340
1569939900,324.594,26.9007,-15.7386,178.506,1.51611,-145.151,340
1569939900,324.594,26.9007,-15.7386,178.506,1.51611,-145.151,340
1569939900,324.594,26.9007,-15.7386,178.506,1.51611,-145.151,340
1569939900,324.594,26.9007,-15.7386,178.506,1.51611,-145.151,340
1569939900,324.594,26.9007,-15.7386,178.506,1.51611,-145.151,340
1569939900,324.594,26.9007,-15.7386,178.506,1.51611,-145.151,340
1569939900,324.594,26.9007,-15.7386,178.506,1.51611,-145.151,340
1569939900,324.594,26.9007,-15.7386,178.506,1.51611,-145.173,344
1569939900,324.594,26.9007,-15.7386,178.506,1.51611,-145.173,344
1569939900,324.594,26.9007,-15.7386,178.506,1.51611,-145.173,344
1569939900,324.594,26.9007,-15.7386,178.506,1.51611,-145.173,344
1569939900,324.594,26.9007,-15.7386,178.506,1.51611,-145.173,344
1569939900,324.594,26.9007,-15.7386,178.506,1.51611,-145.173,348
1569939900,324.594,26.9007,-15.7386,178.506,1.51611,-145.173,348
1569939900,324.594,26.9007,-15.7386,178.506,1.51611,-145.173,348
1569939900,324.594,26.9007,-15.7386,178.506,1.51611,-145.173,348
1569939900,324.594,26.9007,-15.7386,178.506,1.51611,-145.173,352
1569939900,324.594,26.9007,-15.7386,178.506,1.51611,-145.173,352
1569939900,324.594,26.9007,-15.7386,178.506,1.51611,-145.173,352
1569939900,324.594,26.9007,-15.7386,178.506,1.51611,-145.173,352
1569939900,324.594,26.9007,-15.7386,178.506,1.51611,-145.173,352
1569939900,324.594,26.9007,-15.7386,178.506,1.51611,-145.173,352
1569939900,324.594,26.9007,-15.7386,178.506,1.51611,-145.173,352
1569939900,324.594,26.9007,-15.7386,178.506,1.51611,-145.173,356
1569939900,324.594,26.9007,-15.7386,178.506,1.51611,-145.173,356
1569939900,324.594,26.9007,-15.7386,178.506,1.51611,-145.173,356
1569939900,324.594,26.9007,-15.7386,178.484,1.51611,-145.173,356
1569939900,324.594,26.9007,-15.7386,178.484,1.51611,-145.173,356
1569939900,324.594,26.9007,-15.7386,178.484,1.49414,-145.173,356
1569939903,339.775,9.93428,-15.627,178.462,1.38428,-144.602,368
1569939903,339.775,9.93428,-15.627,178.462,1.38428,-144.602,368
1569939903,339.775,9.93428,-15.627,178.462,1.40625,-144.602,368
1569939903,339.775,9.93428,-15.627,178.462,1.40625,-144.602,368
1569939903,339.775,9.93428,-15.627,178.462,1.40625,-144.602,368
1569939903,339.775,9.93428,-15.627,178.462,1.40625,-144.602,368
1569939903,339.775,9.93428,-15.627,178.462,1.40625,-144.602,368
1569939903,339.775,9.93428,-15.627,178.462,1.40625,-144.602,368
1569939903,339.775,9.93428,-15.627,178.462,1.40625,-144.602,368
1569939903,339.775,9.93428,-15.627,178.462,1.40625,-144.602,368
1569939903,339.775,9.93428,-15.627,178.462,1.40625,-144.602,368
1569939903,339.775,9.93428,-15.627,178.462,1.40625,-144.602,368
1569939903,339.775,9.93428,-15.627,178.462,1.40625,-144.602,368
1569939903,339.775,9.93428,-15.627,178.462,1.40625,-144.602,372
1569939903,339.775,9.93428,-15.627,178.462,1.40625,-144.602,372
1569939903,339.775,9.93428,-15.627,178.462,1.40625,-144.602,372
1569939903,339.775,9.93428,-15.627,178.462,1.40625,-144.602,372
1569939903,339.775,9.93428,-15.627,178.462,1.40625,-144.602,372
1569939903,339.775,9.93428,-15.627,178.462,1.40625,-144.602,372
1569939903,339.775,9.93428,-15.627,178.462,1.40625,-144.602,372
1569939903,339.775,9.93428,-15.627,178.462,1.40625,-144.602,372
1569939903,339.775,9.93428,-15.627,178.462,1.40625,-144.602,372
1569939903,339.775,9.93428,-15.627,178.462,1.40625,-144.602,372
1569939903,339.775,9.93428,-15.627,178.462,1.40625,-144.602,372
1569939903,339.775,9.93428,-15.627,178.462,1.40625,-144.602,372
1569939903,339.775,9.93428,-15.627,178.462,1.40625,-144.602,372
1569939903,339.775,9.93428,-15.627,178.462,1.40625,-144.602,376
1569939903,339.775,9.93428,-15.627,178.462,1.40625,-144.602,376
1569939903,339.775,9.93428,-15.5153,178.44,1.40625,-144.602,376
1569939903,339.775,9.93428,-15.5153,178.44,1.40625,-144.602,376
1569939903,339.775,9.93428,-15.5153,178.44,1.40625,-144.602,376
1569939903,339.775,9.93428,-15.5153,178.44,1.40625,-144.602,376
1569939903,339.775,9.93428,-15.5153,178.44,1.40625,-144.602,376
1569939903,339.775,9.93428,-15.5153,178.44,1.40625,-144.602,376
1569939903,339.775,9.93428,-15.5153,178.44,1.40625,-144.602,376
1569939903,339.775,9.93428,-15.5153,178.44,1.40625,-144.602,376
1569939903,339.775,9.93428,-15.5153,178.44,1.40625,-144.602,376
1569939903,339.775,9.93428,-15.5153,178.462,1.40625,-144.602,376
1569939903,339.775,9.93428,-15.5153,178.462,1.40625,-144.602,376
1569939903,339.775,9.93428,-15.5153,178.462,1.40625,-144.602,376
1569939903,339.775,9.93428,-15.5153,178.462,1.40625,-144.602,376
1569939903,339.775,9.93428,-15.5153,178.462,1.40625,-144.602,376
1569939903,339.775,9.93428,-15.5153,178.462,1.40625,-144.602,376
1569939903,339.775,9.93428,-15.5153,178.462,1.40625,-144.602,376
1569939903,339.775,9.93428,-15.5153,178.462,1.40625,-144.602,376
1569939903,339.775,9.93428,-15.627,178.462,1.40625,-144.602,376
1569939903,339.775,9.93428,-15.627,178.462,1.40625,-144.602,376
1569939903,339.775,9.93428,-15.627,178.462,1.40625,-144.624,376
1569939903,339.775,9.93428,-15.627,178.462,1.40625,-144.624,376
1569939903,339.775,9.93428,-15.627,178.462,1.40625,-144.624,376
1569939903,339.775,9.93428,-15.627,178.462,1.40625,-144.624,376
1569939903,339.775,9.93428,-15.627,178.462,1.40625,-144.624,376
1569939903,339.775,9.93428,-15.627,178.462,1.40625,-144.624,376
1569939903,339.775,9.93428,-15.627,178.462,1.40625,-144.624,372
1569939903,339.775,9.93428,-15.627,178.462,1.40625,-144.624,372
1569939903,339.775,9.93428,-15.627,178.462,1.40625,-144.624,372
1569939903,339.775,9.93428,-15.5153,178.462,1.40625,-144.624,372
1569939903,339.775,9.93428,-15.5153,178.462,1.40625,-144.624,372
1569939903,339.775,9.93428,-15.5153,178.462,1.40625,-144.624,368
1569939903,339.775,9.93428,-15.5153,178.462,1.40625,-144.624,368
1569939903,339.775,9.93428,-15.5153,178.462,1.40625,-144.624,368
1569939903,339.775,9.93428,-15.5153,178.462,1.40625,-144.624,368
1569939903,339.775,9.93428,-15.5153,178.462,1.40625,-144.624,368
1569939903,339.775,10.0459,-15.5153,178.462,1.40625,-144.624,368
1569939903,339.775,10.0459,-15.5153,178.462,1.40625,-144.624,368
1569939903,339.775,10.0459,-15.5153,178.462,1.40625,-144.602,364
1569939903,339.775,10.0459,-15.5153,178.462,1.40625,-144.602,364
1569939903,339.775,10.0459,-15.627,178.462,1.40625,-144.602,364
1569939903,339.775,9.93428,-15.627,178.462,1.40625,-144.602,364
1569939903,339.886,9.93428,-15.627,178.462,1.40625,-144.602,364
1569939903,339.886,9.93428,-15.627,178.462,1.40625,-144.602,364
1569939903,339.886,9.93428,-15.627,178.462,1.40625,-144.602,364
1569939904,339.886,9.93428,-15.627,178.462,1.40625,-144.602,364
1569939904,339.886,9.93428,-15.627,178.462,1.40625,-144.602,364
1569939904,339.886,9.93428,-15.627,178.44,1.40625,-144.602,364
1569939904,339.886,9.93428,-15.627,178.44,1.40625,-144.602,364
1569939904,339.886,9.93428,-15.627,178.44,1.40625,-144.602,364
1569939904,339.886,9.93428,-15.627,178.44,1.40625,-144.602,364
1569939904,339.886,9.93428,-15.627,178.44,1.40625,-144.602,364
1569939904,339.886,9.93428,-15.627,178.44,1.40625,-144.602,364
1569939904,339.886,9.93428,-15.627,178.44,1.40625,-144.602,364
1569939904,339.886,9.93428,-15.627,178.44,1.40625,-144.602,364
1569939904,339.886,9.93428,-15.627,178.44,1.40625,-144.602,364
1569939904,339.886,9.93428,-15.627,178.44,1.40625,-144.602,364
1569939904,339.886,9.93428,-15.627,178.44,1.40625,-144.602,364
1569939904,339.886,9.93428,-15.627,178.44,1.40625,-144.602,368
1569939904,339.886,9.93428,-15.627,178.44,1.40625,-144.602,368
1569939904,339.886,9.93428,-15.627,178.44,1.40625,-144.602,368
1569939904,339.886,9.93428,-15.627,178.44,1.40625,-144.602,368
1569939904,339.886,9.93428,-15.627,178.44,1.40625,-144.602,368
1569939904,339.886,9.93428,-15.627,178.44,1.40625,-144.602,368
1569939904,339.886,9.93428,-15.627,178.44,1.40625,-144.602,368
1569939904,339.886,9.93428,-15.627,178.44,1.40625,-144.602,368
1569939904,339.886,9.93428,-15.627,178.44,1.40625,-144.602,372
1569939904,339.886,9.93428,-15.627,178.44,1.40625,-144.602,372
1569939904,339.886,9.93428,-15.627,178.44,1.40625,-144.602,372
1569939904,339.886,9.93428,-15.5153,178.44,1.40625,-144.602,372
1569939904,339.886,9.93428,-15.5153,178.44,1.40625,-144.602,372
1569939904,339.886,9.93428,-15.5153,178.44,1.40625,-144.602,372
1569939904,339.886,9.93428,-15.5153,178.44,1.40625,-144.602,372
1569939904,339.886,9.93428,-15.5153,178.44,1.40625,-144.602,372
1569939904,339.886,9.93428,-15.5153,178.44,1.40625,-144.602,372
1569939904,339.886,9.93428,-15.5153,178.44,1.40625,-144.602,372
1569939904,339.886,9.93428,-15.5153,178.44,1.40625,-144.602,372
1569939904,339.886,9.93428,-15.5153,178.44,1.40625,-144.602,372
1569939904,339.886,9.93428,-15.5153,178.44,1.40625,-144.602,372
1569939904,339.886,9.93428,-15.5153,178.44,1.40625,-144.602,368
1569939904,339.886,9.93428,-15.5153,178.44,1.40625,-144.602,368
1569939904,339.886,9.93428,-15.5153,178.44,1.40625,-144.602,368
1569939904,339.886,9.93428,-15.5153,178.44,1.40625,-144.602,368
1569939904,339.775,9.93428,-15.5153,178.44,1.40625,-144.602,368
1569939904,339.775,9.93428,-15.5153,178.44,1.40625,-144.602,368
1569939904,339.775,9.93428,-15.5153,178.44,1.40625,-144.602,368
1569939904,339.775,9.93428,-15.627,178.44,1.40625,-144.602,368
1569939904,339.775,9.93428,-15.627,178.44,1.40625,-144.602,368
1569939904,339.775,9.93428,-15.627,178.462,1.40625,-144.602,368
1569939904,339.775,9.93428,-15.627,178.462,1.40625,-144.602,368
1569939904,339.775,9.93428,-15.627,178.462,1.40625,-144.602,368
1569939904,339.775,9.93428,-15.627,178.462,1.40625,-144.602,368
1569939904,339.886,9.93428,-15.627,178.462,1.40625,-144.602,368
1569939904,339.886,9.93428,-15.5153,178.462,1.40625,-144.602,368
1569939904,339.886,9.93428,-15.5153,178.462,1.40625,-144.602,368
1569939904,339.886,9.93428,-15.5153,178.462,1.40625,-144.602,368
1569939904,339.886,9.93428,-15.5153,178.462,1.40625,-144.602,364
1569939904,339.886,9.93428,-15.5153,178.462,1.40625,-144.602,364
1569939904,339.886,9.93428,-15.5153,178.462,1.42822,-144.602,364
1569939904,339.886,9.93428,-15.5153,178.462,1.42822,-144.602,364
1569939904,339.886,9.93428,-15.5153,178.462,1.42822,-144.602,364
1569939904,339.886,9.93428,-15.5153,178.462,1.42822,-144.602,364
1569939904,339.886,10.0459,-15.5153,178.462,1.42822,-144.602,364
1569939904,339.886,10.0459,-15.5153,178.462,1.42822,-144.602,360
1569939904,339.886,10.0459,-15.5153,178.462,1.42822,-144.602,360
1569939904,339.886,10.0459,-15.5153,178.462,1.42822,-144.602,360
1569939904,339.775,10.0459,-15.5153,178.462,1.40625,-144.624,360
1569939904,339.775,10.0459,-15.5153,178.484,1.40625,-144.624,360
1569939904,339.775,10.0459,-15.5153,178.484,1.40625,-144.624,360
1569939904,339.775,10.0459,-15.5153,178.484,1.40625,-144.624,360
1569939904,339.775,10.0459,-15.5153,178.484,1.40625,-144.624,360
1569939904,339.775,10.0459,-15.5153,178.484,1.40625,-144.624,360
1569939904,339.775,10.0459,-15.5153,178.484,1.40625,-144.624,360
1569939904,339.775,10.0459,-15.5153,178.484,1.40625,-144.624,360
1569939904,339.775,10.0459,-15.5153,178.484,1.40625,-144.624,360
1569939904,339.775,10.0459,-15.5153,178.484,1.40625,-144.602,360
1569939904,339.775,10.0459,-15.5153,178.484,1.40625,-144.602,356
1569939904,339.775,10.0459,-15.5153,178.484,1.40625,-144.602,356
1569939904,339.775,10.0459,-15.5153,178.484,1.40625,-144.602,356
1569939904,339.775,10.0459,-15.5153,178.484,1.40625,-144.602,356
1569939904,339.775,10.0459,-15.5153,178.484,1.40625,-144.602,356
1569939904,339.775,10.0459,-15.5153,178.484,1.40625,-144.602,356
1569939904,339.775,10.0459,-15.5153,178.484,1.40625,-144.602,356
1569939904,339.886,10.0459,-15.5153,178.484,1.40625,-144.602,356
1569939904,339.886,10.0459,-15.5153,178.484,1.40625,-144.602,356
1569939904,339.886,10.0459,-15.5153,178.484,1.40625,-144.602,356
1569939904,339.886,10.0459,-15.5153,178.484,1.40625,-144.602,356
1569939904,339.886,10.0459,-15.5153,178.484,1.40625,-144.602,356
1569939904,339.886,10.0459,-15.627,178.484,1.40625,-144.602,356
1569939904,339.886,10.0459,-15.627,178.484,1.40625,-144.624,356
1569939904,339.886,10.0459,-15.627,178.484,1.40625,-144.624,356
1569939904,339.886,10.0459,-15.627,178.484,1.40625,-144.624,356
1569939904,339.886,10.0459,-15.627,178.484,1.40625,-144.624,356
1569939904,339.886,10.0459,-15.627,178.484,1.40625,-144.624,356
1569939904,339.886,10.0459,-15.627,178.484,1.40625,-144.624,356
1569939904,339.886,10.0459,-15.627,178.484,1.40625,-144.624,356
1569939904,339.886,10.0459,-15.627,178.484,1.40625,-144.624,356
1569939904,339.886,10.0459,-15.627,178.484,1.40625,-144.624,356
1569939904,339.886,10.0459,-15.627,178.484,1.40625,-144.624,356
1569939904,339.886,10.0459,-15.627,178.506,1.40625,-144.624,356
1569939904,339.886,10.0459,-15.627,178.506,1.40625,-144.624,356
1569939904,339.886,10.0459,-15.627,178.506,1.40625,-144.624,360
1569939904,339.886,10.0459,-15.627,178.506,1.40625,-144.624,360
1569939904,339.886,10.0459,-15.627,178.506,1.40625,-144.624,360
1569939904,339.886,10.0459,-15.627,178.506,1.40625,-144.624,360
1569939905,339.886,10.0459,-15.627,178.506,1.38428,-144.624,360
1569939905,339.886,10.0459,-15.627,178.506,1.38428,-144.624,360
1569939905,339.886,10.0459,-15.627,178.506,1.38428,-144.624,360
1569939905,339.886,10.0459,-15.627,178.506,1.40625,-144.624,360
1569939905,339.886,10.0459,-15.627,178.506,1.40625,-144.624,360
1569939905,339.886,10.0459,-15.627,178.484,1.40625,-144.624,360
1569939905,339.886,10.0459,-15.627,178.484,1.40625,-144.624,360
1569939905,339.886,10.0459,-15.627,178.484,1.40625,-144.602,360
1569939905,339.886,10.0459,-15.627,178.484,1.40625,-144.602,360
1569939905,339.886,10.0459,-15.627,178.484,1.40625,-144.602,360
1569939905,339.886,10.0459,-15.627,178.484,1.40625,-144.602,360
1569939905,339.886,10.0459,-15.627,178.484,1.40625,-144.602,360
1569939905,339.886,10.0459,-15.627,178.484,1.40625,-144.602,360
1569939905,339.886,10.0459,-15.627,178.484,1.40625,-144.602,360
1569939905,339.775,10.0459,-15.627,178.484,1.40625,-144.602,364
1569939905,339.775,10.0459,-15.627,178.484,1.40625,-144.602,364
1569939905,339.775,10.0459,-15.627,178.484,1.40625,-144.602,364
1569939905,339.775,10.0459,-15.627,178.484,1.40625,-144.602,364
1569939905,339.775,10.0459,-15.627,178.484,1.40625,-144.602,364
1569939905,339.775,10.0459,-15.627,178.484,1.40625,-144.602,368
1569939905,339.775,10.0459,-15.5153,178.484,1.40625,-144.602,368
1569939905,339.775,10.0459,-15.5153,178.484,1.40625,-144.602,368
1569939905,339.775,10.0459,-15.5153,178.484,1.40625,-144.602,368
1569939905,339.775,10.0459,-15.5153,178.484,1.40625,-144.602,368
1569939905,339.775,10.0459,-15.5153,178.484,1.40625,-144.602,368
1569939905,339.775,10.0459,-15.5153,178.484,1.40625,-144.602,368
1569939905,339.775,10.0459,-15.5153,178.484,1.40625,-144.602,368
1569939905,339.775,10.0459,-15.627,178.484,1.40625,-144.602,368
1569939905,339.775,10.0459,-15.627,178.484,1.40625,-144.602,368
1569939905,339.775,10.0459,-15.627,178.484,1.38428,-144.602,368
1569939905,339.775,10.0459,-15.627,178.484,1.38428,-144.602,368
1569939905,339.775,10.0459,-15.627,178.484,1.38428,-144.602,368
1569939905,339.775,10.0459,-15.627,178.484,1.38428,-144.602,368
1569939905,339.775,10.0459,-15.627,178.484,1.38428,-144.602,368
1569939905,339.775,10.0459,-15.627,178.462,1.38428,-144.602,368
1569939905,339.775,10.0459,-15.627,178.462,1.38428,-144.602,368
1569939905,339.775,10.0459,-15.627,178.462,1.38428,-144.602,372
1569939905,339.775,10.0459,-15.627,178.462,1.38428,-144.602,372
1569939905,339.775,10.0459,-15.627,178.462,1.38428,-144.602,372
1569939905,339.775,10.0459,-15.627,178.462,1.38428,-144.602,372
1569939905,339.775,10.0459,-15.627,178.462,1.38428,-144.602,372
1569939905,339.775,10.0459,-15.627,178.462,1.38428,-144.602,372
1569939905,339.775,10.0459,-15.627,178.462,1.38428,-144.602,372
1569939905,339.775,10.0459,-15.627,178.462,1.38428,-144.602,372
1569939905,339.775,10.0459,-15.627,178.462,1.38428,-144.602,372
1569939905,339.775,10.0459,-15.627,178.462,1.38428,-144.602,372
1569939905,339.775,10.0459,-15.627,178.462,1.38428,-144.602,372
1569939905,339.775,10.0459,-15.627,178.462,1.38428,-144.602,372
1569939905,339.775,10.0459,-15.627,178.462,1.38428,-144.602,376
1569939905,339.775,10.0459,-15.627,178.462,1.38428,-144.602,376
1569939905,339.775,10.0459,-15.627,178.462,1.38428,-144.602,376
1569939905,339.775,10.0459,-15.627,178.462,1.38428,-144.602,376
1569939905,339.775,10.0459,-15.627,178.462,1.38428,-144.602,376
1569939905,339.775,10.0459,-15.627,178.462,1.38428,-144.602,376
1569939905,339.775,10.0459,-15.627,178.462,1.38428,-144.602,376
1569939905,339.775,10.0459,-15.627,178.462,1.38428,-144.602,376
1569939905,339.775,10.0459,-15.627,178.462,1.38428,-144.58,376
1569939905,339.775,10.0459,-15.627,178.462,1.38428,-144.58,376
1569939905,339.775,10.0459,-15.627,178.462,1.38428,-144.58,376
1569939905,339.775,10.0459,-15.627,178.462,1.38428,-144.58,376
1569939905,339.775,10.0459,-15.627,178.462,1.38428,-144.58,376
1569939905,339.775,10.0459,-15.627,178.462,1.38428,-144.58,376
1569939905,339.775,10.0459,-15.627,178.462,1.38428,-144.58,376
1569939905,339.775,10.0459,-15.627,178.462,1.38428,-144.58,372
1569939905,339.775,10.0459,-15.627,178.462,1.38428,-144.58,372
1569939905,339.775,10.0459,-15.627,178.462,1.38428,-144.602,372
1569939905,339.775,10.0459,-15.627,178.462,1.38428,-144.602,372
1569939905,339.775,10.0459,-15.627,178.484,1.38428,-144.602,372
1569939905,339.775,10.0459,-15.627,178.484,1.38428,-144.602,372
1569939905,339.775,10.0459,-15.627,178.484,1.38428,-144.602,372
1569939905,339.775,10.0459,-15.627,178.484,1.38428,-144.602,372
1569939905,339.775,10.0459,-15.627,178.484,1.38428,-144.58,372
1569939905,339.775,10.0459,-15.627,178.484,1.38428,-144.58,372
1569939905,339.775,10.0459,-15.627,178.484,1.38428,-144.58,372
1569939905,339.886,10.0459,-15.627,178.462,1.38428,-144.58,372
1569939905,339.886,10.0459,-15.627,178.462,1.38428,-144.58,372
1569939905,339.886,10.0459,-15.627,178.462,1.40625,-144.58,372
1569939905,339.886,10.0459,-15.627,178.462,1.40625,-144.58,372
1569939905,339.886,10.0459,-15.627,178.462,1.40625,-144.58,372
1569939905,339.886,10.0459,-15.627,178.462,1.40625,-144.58,372
1569939905,339.886,10.0459,-15.627,178.462,1.40625,-144.58,372
1569939905,339.886,10.0459,-15.627,178.462,1.40625,-144.58,372
1569939905,339.886,10.0459,-15.627,178.462,1.40625,-144.58,372
1569939905,339.886,10.0459,-15.627,178.462,1.38428,-144.58,372
1569939905,339.886,10.0459,-15.627,178.462,1.38428,-144.58,372
1569939905,339.886,10.0459,-15.627,178.462,1.38428,-144.58,372
1569939905,339.886,10.0459,-15.627,178.462,1.38428,-144.58,372
1569939905,339.886,10.0459,-15.627,178.462,1.38428,-144.58,372
1569939905,339.775,10.0459,-15.627,178.462,1.38428,-144.58,372
1569939905,339.775,10.0459,-15.627,178.462,1.38428,-144.58,372
1569939905,339.775,10.0459,-15.627,178.462,1.40625,-144.58,372
1569939905,339.775,10.0459,-15.627,178.484,1.40625,-144.58,372
1569939905,339.775,10.0459,-15.627,178.484,1.40625,-144.58,372
1569939905,339.775,10.0459,-15.627,178.484,1.40625,-144.58,372
1569939905,339.775,10.0459,-15.627,178.484,1.40625,-144.58,372
1569939905,339.886,10.0459,-15.627,178.484,1.40625,-144.58,372
1569939905,339.886,10.0459,-15.627,178.484,1.40625,-144.58,372
1569939905,339.886,10.0459,-15.627,178.484,1.40625,-144.58,372
1569939905,339.886,10.0459,-15.627,178.484,1.40625,-144.58,372
1569939905,339.886,10.0459,-15.627,178.484,1.40625,-144.58,368
1569939906,339.886,10.0459,-15.627,178.484,1.38428,-144.58,368
1569939906,339.886,10.0459,-15.627,178.484,1.38428,-144.58,368
1569939906,339.886,10.0459,-15.627,178.484,1.38428,-144.58,368
1569939906,339.886,10.0459,-15.627,178.484,1.38428,-144.58,368
1569939906,339.886,10.0459,-15.627,178.484,1.38428,-144.58,368
1569939906,339.886,10.0459,-15.627,178.484,1.38428,-144.58,368
1569939906,339.886,10.0459,-15.627,178.484,1.38428,-144.58,364
1569939906,339.886,10.0459,-15.7386,178.484,1.3623,-144.58,364
1569939906,339.886,10.0459,-15.7386,178.484,1.3623,-144.58,364
1569939906,339.886,10.0459,-15.7386,178.484,1.3623,-144.58,364
1569939906,339.886,10.0459,-15.7386,178.484,1.3623,-144.58,364
1569939906,339.886,10.0459,-15.627,178.484,1.38428,-144.58,364
1569939906,339.886,10.0459,-15.627,178.484,1.38428,-144.58,364
1569939906,339.886,10.0459,-15.627,178.484,1.38428,-144.58,364
1569939906,339.886,10.0459,-15.627,178.484,1.38428,-144.58,364
1569939906,339.886,10.0459,-15.627,178.484,1.38428,-144.602,360
1569939906,339.886,10.0459,-15.627,178.484,1.38428,-144.602,360
1569939906,339.886,10.0459,-15.627,178.484,1.38428,-144.602,360
1569939906,339.886,10.0459,-15.627,178.484,1.38428,-144.602,360
1569939906,339.886,10.0459,-15.627,178.484,1.38428,-144.602,360
1569939906,339.886,10.0459,-15.627,178.484,1.38428,-144.602,360
1569939906,339.886,10.0459,-15.627,178.484,1.38428,-144.602,360
1569939906,339.886,10.0459,-15.627,178.484,1.38428,-144.602,360
1569939906,339.886,10.0459,-15.627,178.484,1.38428,-144.602,364
1569939906,339.775,10.0459,-15.627,178.484,1.38428,-144.602,364
1569939906,339.775,10.0459,-15.627,178.484,1.38428,-144.602,364
1569939906,339.775,10.0459,-15.627,178.484,1.38428,-144.602,364
1569939906,339.775,10.0459,-15.627,178.484,1.38428,-144.602,368
1569939906,339.775,10.0459,-15.627,178.484,1.38428,-144.602,368
1569939906,339.775,10.0459,-15.627,178.484,1.38428,-144.602,368
1569939906,339.775,10.0459,-15.627,178.484,1.38428,-144.602,368
1569939906,339.775,10.0459,-15.627,178.484,1.38428,-144.602,372
1569939906,339.775,10.0459,-15.627,178.484,1.38428,-144.602,372
1569939906,339.775,10.0459,-15.627,178.484,1.38428,-144.602,372
1569939906,339.775,10.0459,-15.627,178.484,1.38428,-144.602,372
1569939906,339.775,10.0459,-15.627,178.484,1.38428,-144.602,376
1569939906,339.775,10.0459,-15.627,178.484,1.38428,-144.602,376
1569939906,339.775,10.0459,-15.627,178.484,1.38428,-144.602,376
1569939906,339.775,10.0459,-15.627,178.484,1.40625,-144.602,376
1569939906,339.886,10.0459,-15.627,178.484,1.40625,-144.602,376
1569939906,339.886,10.0459,-15.627,178.484,1.40625,-144.602,376
1569939906,339.886,10.0459,-15.5153,178.484,1.40625,-144.602,376
1569939906,339.886,10.0459,-15.5153,178.484,1.40625,-144.602,376
1569939906,339.886,10.0459,-15.5153,178.484,1.40625,-144.602,376
1569939906,339.886,10.0459,-15.5153,178.484,1.40625,-144.602,376
1569939906,339.886,10.0459,-15.5153,178.484,1.40625,-144.602,376
1569939906,339.886,10.0459,-15.5153,178.484,1.40625,-144.602,376
1569939906,339.886,10.0459,-15.5153,178.484,1.40625,-144.602,376
1569939906,339.886,10.0459,-15.5153,178.484,1.40625,-144.602,376
1569939906,339.886,10.0459,-15.5153,178.484,1.40625,-144.602,376
1569939906,339.886,10.0459,-15.5153,178.484,1.40625,-144.602,376
1569939906,339.886,10.0459,-15.5153,178.484,1.40625,-144.602,376
1569939906,339.886,10.0459,-15.5153,178.484,1.40625,-144.624,376
1569939906,339.775,10.0459,-15.5153,178.484,1.40625,-144.624,376
1569939906,339.775,10.0459,-15.5153,178.484,1.40625,-144.624,376
1569939906,339.775,10.0459,-15.5153,178.484,1.40625,-144.624,376
1569939906,339.775,10.0459,-15.5153,178.484,1.40625,-144.624,376
1569939906,339.775,10.0459,-15.5153,178.484,1.40625,-144.624,376
1569939906,339.775,10.0459,-15.5153,178.484,1.40625,-144.624,376
1569939906,339.775,10.0459,-15.5153,178.484,1.40625,-144.624,376
1569939906,339.775,10.0459,-15.5153,178.484,1.40625,-144.624,376
1569939906,339.775,10.0459,-15.5153,178.484,1.40625,-144.624,376
1569939906,339.775,10.0459,-15.5153,178.484,1.40625,-144.624,376
1569939906,339.886,10.0459,-15.5153,178.484,1.40625,-144.624,376
1569939906,339.886,10.0459,-15.5153,178.484,1.40625,-144.624,376
1569939906,339.886,10.0459,-15.5153,178.484,1.40625,-144.624,376
1569939906,339.886,10.0459,-15.627,178.484,1.40625,-144.624,376
1569939906,339.886,10.0459,-15.627,178.484,1.40625,-144.624,376
1569939906,339.886,10.0459,-15.627,178.506,1.40625,-144.624,376
1569939906,339.886,10.0459,-15.627,178.506,1.40625,-144.624,376
1569939906,339.886,10.0459,-15.627,178.506,1.40625,-144.624,376
1569939906,339.775,10.0459,-15.627,178.506,1.40625,-144.624,372
1569939906,339.775,10.0459,-15.627,178.506,1.40625,-144.624,372
1569939906,339.775,10.0459,-15.627,178.506,1.38428,-144.624,372
1569939906,339.775,10.0459,-15.627,178.506,1.38428,-144.624,372
1569939906,339.775,10.0459,-15.627,178.506,1.38428,-144.624,372
1569939906,339.775,10.0459,-15.627,178.506,1.38428,-144.624,372
1569939906,339.775,10.0459,-15.627,178.506,1.38428,-144.624,372
1569939906,339.775,10.0459,-15.627,178.484,1.38428,-144.624,372
1569939906,339.775,10.0459,-15.627,178.484,1.38428,-144.624,372
1569939906,339.775,10.0459,-15.627,178.484,1.38428,-144.624,372
1569939906,339.775,10.0459,-15.627,178.484,1.38428,-144.624,376
1569939906,339.775,10.0459,-15.627,178.484,1.38428,-144.624,376
1569939906,339.775,10.0459,-15.627,178.484,1.38428,-144.624,376
1569939906,339.775,10.0459,-15.627,178.484,1.38428,-144.624,376
1569939906,339.775,10.0459,-15.627,178.484,1.38428,-144.624,376
1569939906,339.775,10.0459,-15.627,178.484,1.38428,-144.624,376
1569939906,339.775,10.0459,-15.627,178.484,1.38428,-144.624,376
1569939906,339.775,10.0459,-15.627,178.484,1.38428,-144.624,376
1569939906,339.775,10.0459,-15.627,178.484,1.38428,-144.624,376
1569939906,339.775,10.0459,-15.627,178.484,1.38428,-144.624,376
1569939906,339.775,10.0459,-15.627,178.484,1.3623,-144.602,376
1569939906,339.775,10.0459,-15.627,178.484,1.3623,-144.602,376
1569939906,339.775,10.0459,-15.627,178.484,1.38428,-144.602,376
1569939906,339.775,10.0459,-15.627,178.484,1.38428,-144.602,380
1569939906,339.775,10.0459,-15.627,178.484,1.38428,-144.602,380
1569939906,339.775,10.0459,-15.627,178.462,1.38428,-144.602,380
1569939906,339.775,10.0459,-15.627,178.462,1.38428,-144.602,380
1569939906,339.775,10.0459,-15.627,178.462,1.38428,-144.602,380
1569939906,339.775,10.0459,-15.627,178.462,1.38428,-144.624,380
1569939907,339.775,10.0459,-15.627,178.462,1.38428,-144.624,380
1569939907,339.775,10.0459,-15.627,178.462,1.40625,-144.624,380
1569939907,339.775,10.0459,-15.627,178.462,1.40625,-144.624,380
1569939907,339.775,10.0459,-15.627,178.462,1.40625,-144.624,380
1569939907,339.775,10.0459,-15.627,178.462,1.40625,-144.624,380
1569939907,339.775,10.0459,-15.627,178.462,1.40625,-144.624,380
1569939907,339.775,10.0459,-15.627,178.462,1.40625,-144.624,380
1569939907,339.775,10.0459,-15.627,178.462,1.40625,-144.624,380
1569939907,339.775,10.0459,-15.627,178.462,1.40625,-144.624,380
1569939907,339.775,10.0459,-15.627,178.462,1.40625,-144.624,380
1569939907,339.775,10.0459,-15.627,178.462,1.40625,-144.624,380
1569939907,339.775,10.0459,-15.627,178.462,1.40625,-144.624,380
1569939907,339.775,10.0459,-15.627,178.462,1.40625,-144.624,380
1569939907,339.775,10.0459,-15.627,178.462,1.38428,-144.624,380
1569939907,339.775,10.0459,-15.627,178.462,1.38428,-144.624,380
1569939907,339.775,10.0459,-15.627,178.484,1.38428,-144.624,380
1569939907,339.775,10.0459,-15.627,178.484,1.38428,-144.624,380
1569939907,339.775,10.0459,-15.627,178.484,1.38428,-144.624,380
1569939907,339.775,10.0459,-15.627,178.484,1.38428,-144.624,380
1569939907,339.775,10.0459,-15.627,178.484,1.38428,-144.624,380
1569939907,339.775,10.0459,-15.627,178.484,1.38428,-144.624,380
1569939907,339.775,10.0459,-15.627,178.484,1.38428,-144.624,380
1569939907,339.775,10.0459,-15.627,178.484,1.38428,-144.624,380
1569939907,339.775,10.0459,-15.627,178.484,1.38428,-144.624,380
1569939907,339.775,10.0459,-15.627,178.484,1.38428,-144.624,380
1569939907,339.775,10.0459,-15.627,178.484,1.38428,-144.624,380
1569939907,339.775,10.0459,-15.627,178.484,1.38428,-144.624,380
1569939907,339.775,10.0459,-15.627,178.462,1.38428,-144.624,380
1569939907,339.775,10.0459,-15.627,178.462,1.38428,-144.602,380
1569939907,339.775,10.0459,-15.627,178.462,1.38428,-144.624,380
1569939907,339.775,10.0459,-15.627,178.462,1.38428,-144.624,380
1569939907,339.775,10.0459,-15.627,178.462,1.38428,-144.602,380
1569939907,339.775,10.0459,-15.627,178.462,1.38428,-144.602,380
1569939907,339.775,10.0459,-15.627,178.462,1.38428,-144.602,380
1569939907,339.886,10.0459,-15.627,178.462,1.38428,-144.602,380
1569939907,339.886,10.0459,-15.627,178.462,1.40625,-144.602,376
1569939907,339.886,10.0459,-15.627,178.462,1.40625,-144.602,376
1569939907,339.886,10.0459,-15.627,178.462,1.40625,-144.602,376
1569939907,339.775,10.0459,-15.627,178.462,1.40625,-144.624,376
1569939907,339.775,10.0459,-15.627,178.462,1.40625,-144.624,376
1569939907,339.775,10.0459,-15.627,178.462,1.40625,-144.624,376
1569939907,339.775,10.0459,-15.627,178.462,1.40625,-144.624,376
1569939907,339.775,10.0459,-15.627,178.462,1.40625,-144.624,380
1569939907,339.775,10.0459,-15.627,178.462,1.40625,-144.624,380
1569939907,339.775,10.0459,-15.627,178.484,1.40625,-144.624,380
1569939907,339.775,10.0459,-15.627,178.484,1.40625,-144.624,380
1569939907,339.775,10.0459,-15.627,178.484,1.40625,-144.624,380
1569939907,339.775,10.0459,-15.5153,178.484,1.40625,-144.602,380
1569939907,339.775,10.0459,-15.5153,178.484,1.40625,-144.602,380
1569939907,339.775,10.0459,-15.5153,178.484,1.40625,-144.602,380
1569939907,339.775,10.0459,-15.5153,178.484,1.40625,-144.602,380
1569939907,339.775,10.0459,-15.627,178.484,1.40625,-144.602,380
1569939907,339.775,10.0459,-15.627,178.484,1.40625,-144.602,380
1569939907,339.775,10.0459,-15.627,178.484,1.40625,-144.602,380
1569939907,339.775,10.0459,-15.627,178.484,1.40625,-144.602,380
1569939907,339.775,10.0459,-15.627,178.484,1.40625,-144.602,380
1569939907,339.775,10.0459,-15.627,178.484,1.40625,-144.602,380
1569939907,339.775,10.0459,-15.627,178.484,1.40625,-144.602,380
1569939907,339.775,10.0459,-15.627,178.484,1.40625,-144.602,380
1569939907,339.775,10.0459,-15.627,178.484,1.40625,-144.602,380
1569939907,339.775,10.0459,-15.627,178.484,1.40625,-144.602,380
1569939907,339.775,10.0459,-15.627,178.484,1.40625,-144.602,380
1569939907,339.775,10.0459,-15.627,178.484,1.40625,-144.602,380
1569939907,339.775,10.0459,-15.627,178.484,1.40625,-144.602,380
1569939907,339.775,10.0459,-15.627,178.484,1.40625,-144.602,380
1569939907,339.775,10.0459,-15.627,178.484,1.40625,-144.602,384
1569939907,339.775,10.0459,-15.627,178.484,1.40625,-144.602,384
1569939907,339.775,10.0459,-15.5153,178.484,1.40625,-144.602,384
1569939907,339.775,10.0459,-15.5153,178.484,1.40625,-144.602,384
1569939907,339.775,10.0459,-15.5153,178.484,1.40625,-144.602,384
1569939907,339.775,10.0459,-15.627,178.484,1.40625,-144.602,384
1569939907,339.775,10.0459,-15.627,178.484,1.40625,-144.602,384
1569939907,339.775,10.0459,-15.627,178.484,1.40625,-144.602,388
1569939907,339.775,10.0459,-15.627,178.484,1.40625,-144.602,388
1569939907,339.775,10.0459,-15.627,178.484,1.40625,-144.602,388
1569939907,339.775,10.0459,-15.627,178.484,1.40625,-144.602,388
1569939907,339.775,10.0459,-15.627,178.484,1.40625,-144.602,388
1569939907,339.775,10.0459,-15.627,178.484,1.38428,-144.602,388
1569939907,339.775,10.0459,-15.627,178.484,1.38428,-144.602,388
1569939907,339.775,10.0459,-15.627,178.484,1.38428,-144.602,388
1569939907,339.775,10.0459,-15.627,178.484,1.38428,-144.602,388
1569939907,339.775,10.0459,-15.627,178.484,1.38428,-144.602,388
1569939907,339.775,10.0459,-15.627,178.484,1.40625,-144.602,388
1569939907,339.775,10.0459,-15.627,178.484,1.40625,-144.602,388
1569939907,339.775,10.0459,-15.627,178.484,1.40625,-144.602,392
1569939907,339.775,10.0459,-15.627,178.484,1.40625,-144.602,392
1569939907,339.775,10.0459,-15.627,178.484,1.40625,-144.602,392
1569939907,339.775,10.0459,-15.627,178.484,1.40625,-144.602,392
1569939907,339.775,10.0459,-15.627,178.484,1.40625,-144.602,392
1569939907,339.775,10.0459,-15.627,178.484,1.40625,-144.602,392
1569939907,339.775,10.0459,-15.627,178.484,1.38428,-144.602,392
1569939907,339.775,10.0459,-15.627,178.484,1.38428,-144.602,392
1569939907,339.775,10.0459,-15.627,178.462,1.38428,-144.602,392
1569939907,339.775,10.0459,-15.627,178.462,1.38428,-144.602,392
1569939907,339.775,10.0459,-15.627,178.462,1.38428,-144.602,392
1569939907,339.775,10.0459,-15.627,178.462,1.38428,-144.602,392
1569939907,339.775,10.0459,-15.627,178.462,1.38428,-144.602,392
1569939907,339.775,10.0459,-15.627,178.462,1.38428,-144.602,392
1569939907,339.775,10.0459,-15.627,178.462,1.38428,-144.602,392
1569939907,339.775,10.0459,-15.627,178.462,1.38428,-144.602,392
1569939908,339.775,10.0459,-15.627,178.462,1.38428,-144.602,392
1569939908,339.775,10.0459,-15.627,178.462,1.38428,-144.602,392
1569939908,339.775,10.0459,-15.627,178.462,1.38428,-144.602,392
1569939908,339.775,10.0459,-15.627,178.462,1.38428,-144.602,392
1569939908,339.775,10.0459,-15.627,178.462,1.38428,-144.602,392
1569939908,339.775,10.0459,-15.627,178.462,1.38428,-144.602,392
1569939908,339.775,10.0459,-15.627,178.462,1.38428,-144.602,392
1569939908,339.775,10.0459,-15.627,178.462,1.38428,-144.602,392
1569939908,339.775,10.0459,-15.627,178.462,1.38428,-144.602,392
1569939908,339.775,10.0459,-15.627,178.462,1.38428,-144.602,392
1569939908,339.775,10.0459,-15.627,178.462,1.38428,-144.602,392
1569939908,339.775,10.0459,-15.627,178.462,1.38428,-144.602,388
1569939908,339.775,9.93428,-15.627,178.462,1.38428,-144.602,388
1569939908,339.775,9.93428,-15.627,178.462,1.38428,-144.602,388
1569939908,339.775,9.93428,-15.627,178.462,1.38428,-144.602,388
1569939908,339.886,9.93428,-15.627,178.462,1.38428,-144.602,384
1569939908,339.886,9.93428,-15.627,178.462,1.38428,-144.602,384
1569939908,339.886,9.93428,-15.627,178.462,1.38428,-144.602,384
1569939908,339.886,9.93428,-15.627,178.462,1.38428,-144.602,384
1569939908,339.886,9.93428,-15.627,178.462,1.38428,-144.602,380
1569939908,339.886,9.93428,-15.627,178.462,1.38428,-144.602,380
1569939908,339.886,9.93428,-15.627,178.462,1.38428,-144.602,380
1569939908,339.886,9.93428,-15.627,178.462,1.38428,-144.602,380
1569939908,339.886,9.93428,-15.627,178.462,1.38428,-144.602,376
1569939908,339.886,9.93428,-15.627,178.462,1.38428,-144.602,376
1569939908,339.886,9.93428,-15.627,178.462,1.38428,-144.602,376
1569939908,339.886,9.93428,-15.627,178.462,1.38428,-144.602,376
1569939908,339.886,9.93428,-15.627,178.462,1.38428,-144.602,372
1569939911,362.769,-14.9572,-14.8456,178.396,1.73584,-144.8,424
1569939911,362.769,-14.9572,-14.8456,178.396,1.73584,-144.8,424
1569939911,362.769,-14.9572,-14.8456,178.396,1.73584,-144.8,424
1569939911,362.769,-14.9572,-14.8456,178.396,1.73584,-144.8,424
1569939911,362.88,-14.9572,-14.8456,178.396,1.73584,-144.8,420
1569939911,362.88,-15.0688,-14.8456,178.374,1.73584,-144.8,420
1569939911,362.88,-15.0688,-14.8456,178.374,1.75781,-144.8,420
1569939911,362.88,-15.0688,-14.8456,178.374,1.75781,-144.8,420
1569939911,362.88,-15.0688,-14.8456,178.374,1.75781,-144.8,420
1569939911,362.88,-15.0688,-14.8456,178.374,1.75781,-144.8,420
1569939911,362.88,-15.0688,-14.8456,178.374,1.75781,-144.8,420
1569939911,362.88,-15.0688,-14.8456,178.374,1.75781,-144.8,420
1569939911,362.88,-15.0688,-14.8456,178.374,1.75781,-144.8,416
1569939911,362.88,-15.0688,-14.8456,178.374,1.75781,-144.8,416
1569939911,362.88,-15.0688,-14.8456,178.374,1.75781,-144.8,416
1569939911,362.88,-15.0688,-14.8456,178.374,1.75781,-144.8,416
1569939911,362.88,-15.0688,-14.8456,178.374,1.75781,-144.8,416
1569939911,362.88,-15.0688,-14.8456,178.374,1.75781,-144.8,416
1569939911,362.88,-15.0688,-14.8456,178.374,1.75781,-144.8,416
1569939911,362.88,-15.0688,-14.8456,178.374,1.75781,-144.8,416
1569939911,362.88,-15.0688,-14.8456,178.374,1.75781,-144.8,416
1569939911,362.769,-15.0688,-14.8456,178.374,1.75781,-144.8,416
1569939911,362.769,-15.0688,-14.8456,178.374,1.73584,-144.8,416
1569939911,362.769,-15.0688,-14.8456,178.374,1.73584,-144.8,416
1569939911,362.769,-15.0688,-14.9572,178.374,1.73584,-144.8,416
1569939911,362.769,-15.0688,-14.9572,178.374,1.73584,-144.8,416
1569939911,362.769,-15.0688,-14.9572,178.374,1.73584,-144.8,416
1569939911,362.769,-15.0688,-14.9572,178.374,1.73584,-144.8,416
1569939911,362.769,-15.0688,-14.9572,178.374,1.73584,-144.8,416
1569939911,362.769,-15.0688,-14.9572,178.374,1.73584,-144.8,416
1569939911,362.769,-15.0688,-14.9572,178.374,1.73584,-144.8,416
1569939912,362.769,-15.0688,-14.9572,178.374,1.73584,-144.8,420
1569939912,362.769,-15.0688,-14.9572,178.374,1.73584,-144.8,420
1569939912,362.769,-15.0688,-14.9572,178.374,1.71387,-144.8,420
1569939912,362.769,-15.0688,-14.9572,178.374,1.71387,-144.8,420
1569939912,362.769,-15.0688,-14.9572,178.374,1.71387,-144.8,420
1569939912,362.769,-15.0688,-14.9572,178.374,1.71387,-144.8,424
1569939912,362.769,-15.0688,-14.9572,178.374,1.71387,-144.8,424
1569939912,362.769,-15.0688,-14.9572,178.374,1.71387,-144.8,424
1569939912,362.769,-15.0688,-14.9572,178.374,1.73584,-144.8,424
1569939912,362.769,-15.0688,-14.9572,178.374,1.73584,-144.8,424
1569939912,362.769,-15.0688,-14.9572,178.374,1.73584,-144.8,428
1569939912,362.769,-15.0688,-14.9572,178.374,1.73584,-144.8,428
1569939912,362.769,-15.0688,-14.9572,178.374,1.73584,-144.8,428
1569939912,362.769,-15.0688,-14.9572,178.374,1.73584,-144.8,428
1569939912,362.769,-15.0688,-14.9572,178.374,1.73584,-144.8,432
1569939912,362.769,-15.0688,-14.9572,178.374,1.73584,-144.8,432
1569939912,362.769,-15.0688,-14.9572,178.374,1.73584,-144.8,432
1569939912,362.769,-15.0688,-14.9572,178.374,1.71387,-144.8,432
1569939912,362.769,-15.0688,-14.9572,178.374,1.71387,-144.822,436
1569939912,362.769,-15.0688,-14.9572,178.374,1.71387,-144.822,436
1569939912,362.769,-15.0688,-14.9572,178.374,1.71387,-144.822,436
1569939912,362.769,-15.0688,-14.9572,178.374,1.71387,-144.822,436
1569939912,362.769,-15.0688,-14.9572,178.374,1.71387,-144.822,436
1569939912,362.769,-15.0688,-14.9572,178.374,1.71387,-144.822,436
1569939912,362.769,-15.0688,-14.9572,178.374,1.69189,-144.822,436
1569939912,362.769,-15.0688,-15.0688,178.396,1.69189,-144.822,436
1569939912,362.769,-15.0688,-15.0688,178.374,1.69189,-144.822,436
1569939912,362.769,-15.0688,-15.0688,178.374,1.69189,-144.822,436
1569939912,362.769,-15.0688,-15.0688,178.374,1.69189,-144.822,432
1569939912,362.769,-15.0688,-15.0688,178.374,1.69189,-144.822,432
1569939912,362.769,-15.0688,-15.0688,178.374,1.69189,-144.8,432
1569939912,362.769,-15.0688,-15.0688,178.374,1.69189,-144.8,432
1569939912,362.769,-15.0688,-15.0688,178.374,1.69189,-144.8,432
1569939912,362.769,-15.0688,-15.0688,178.374,1.69189,-144.8,432
1569939912,362.769,-15.0688,-15.0688,178.374,1.69189,-144.8,432
1569939912,362.769,-15.0688,-15.0688,178.374,1.69189,-144.8,432
1569939912,362.769,-15.0688,-15.0688,178.374,1.69189,-144.8,432
1569939912,362.769,-15.0688,-15.0688,178.374,1.69189,-144.8,432
1569939912,362.769,-15.0688,-15.0688,178.374,1.69189,-144.8,432
1569939912,362.769,-15.0688,-15.0688,178.374,1.69189,-144.8,432
1569939912,362.769,-15.0688,-14.9572,178.374,1.69189,-144.8,432
1569939912,362.769,-15.0688,-14.9572,178.374,1.71387,-144.778,432
1569939912,362.769,-15.0688,-14.9572,178.374,1.71387,-144.778,436
1569939912,362.769,-15.0688,-14.9572,178.374,1.71387,-144.778,436
1569939912,362.769,-15.0688,-14.9572,178.374,1.71387,-144.778,436
1569939912,362.769,-15.0688,-14.9572,178.374,1.71387,-144.778,436
1569939912,362.769,-15.0688,-14.9572,178.374,1.71387,-144.778,436
1569939912,362.769,-15.0688,-14.9572,178.374,1.71387,-144.778,436
1569939912,362.769,-15.0688,-14.9572,178.374,1.71387,-144.778,436
1569939912,362.769,-15.0688,-14.9572,178.374,1.71387,-144.778,436
1569939912,362.769,-15.0688,-14.9572,178.374,1.71387,-144.8,432
1569939912,362.769,-15.0688,-14.9572,178.374,1.71387,-144.8,432
1569939912,362.769,-15.0688,-14.9572,178.374,1.71387,-144.8,432
1569939912,362.769,-15.0688,-14.9572,178.374,1.71387,-144.8,432
1569939912,362.88,-15.0688,-14.9572,178.374,1.71387,-144.8,432
1569939912,362.88,-14.9572,-14.9572,178.396,1.71387,-144.8,432
1569939912,362.88,-14.9572,-14.9572,178.396,1.71387,-144.8,428
1569939912,362.88,-14.9572,-14.9572,178.396,1.71387,-144.8,428
1569939912,362.88,-14.9572,-14.9572,178.396,1.71387,-144.8,428
1569939912,362.88,-14.9572,-14.9572,178.396,1.71387,-144.8,428
1569939912,362.88,-14.9572,-14.9572,178.396,1.71387,-144.8,428
1569939912,362.88,-14.9572,-14.9572,178.396,1.71387,-144.8,428
1569939912,362.769,-14.9572,-14.9572,178.396,1.71387,-144.8,428
1569939912,362.769,-14.9572,-14.9572,178.396,1.71387,-144.8,428
1569939912,362.769,-14.9572,-14.9572,178.396,1.71387,-144.8,432
1569939912,362.769,-15.0688,-14.9572,178.396,1.71387,-144.8,432
1569939912,362.769,-15.0688,-14.9572,178.396,1.71387,-144.8,432
1569939912,362.769,-15.0688,-14.9572,178.374,1.71387,-144.8,432
1569939912,362.769,-15.0688,-14.9572,178.374,1.71387,-144.8,436
1569939912,362.769,-15.0688,-14.9572,178.374,1.71387,-144.8,436
1569939912,362.769,-15.0688,-14.9572,178.374,1.71387,-144.8,436
1569939912,362.769,-15.0688,-14.9572,178.374,1.71387,-144.8,436
1569939912,362.769,-15.0688,-14.9572,178.374,1.71387,-144.8,440
1569939912,362.769,-15.0688,-14.9572,178.374,1.71387,-144.8,440
1569939912,362.769,-15.0688,-14.9572,178.374,1.71387,-144.8,440
1569939912,362.769,-15.0688,-14.9572,178.396,1.71387,-144.822,440
1569939912,362.769,-15.0688,-14.9572,178.396,1.71387,-144.822,444
1569939912,362.769,-15.0688,-14.9572,178.374,1.71387,-144.822,444
1569939912,362.769,-15.0688,-14.9572,178.374,1.71387,-144.822,444
1569939912,362.769,-15.0688,-14.9572,178.374,1.71387,-144.822,444
1569939912,362.769,-15.0688,-14.9572,178.374,1.71387,-144.822,448
1569939912,362.769,-15.0688,-14.9572,178.374,1.71387,-144.822,448
1569939912,362.769,-15.0688,-14.9572,178.374,1.71387,-144.822,448
1569939912,362.769,-15.0688,-14.9572,178.374,1.71387,-144.822,448
1569939912,362.769,-15.0688,-14.9572,178.374,1.71387,-144.822,452
1569939912,362.769,-15.0688,-14.9572,178.374,1.71387,-144.822,452
1569939912,362.769,-15.0688,-14.9572,178.374,1.71387,-144.822,452
1569939912,362.769,-15.0688,-14.9572,178.374,1.71387,-144.822,452
1569939912,362.769,-15.0688,-14.9572,178.374,1.71387,-144.822,452
1569939912,362.769,-15.0688,-14.9572,178.374,1.71387,-144.822,452
1569939912,362.769,-15.0688,-14.9572,178.374,1.71387,-144.822,452
1569939912,362.769,-15.0688,-14.9572,178.374,1.71387,-144.8,452
1569939912,362.769,-15.0688,-14.9572,178.396,1.71387,-144.8,452
1569939912,362.769,-15.0688,-14.9572,178.396,1.71387,-144.8,452
1569939912,362.769,-15.0688,-14.9572,178.396,1.71387,-144.822,452
1569939912,362.769,-15.0688,-14.9572,178.396,1.71387,-144.822,452
1569939912,362.769,-15.0688,-14.9572,178.396,1.71387,-144.822,448
1569939912,362.769,-15.0688,-14.9572,178.396,1.71387,-144.822,448
1569939912,362.769,-15.0688,-14.9572,178.396,1.71387,-144.822,448
1569939912,362.769,-15.0688,-14.9572,178.396,1.71387,-144.822,448
1569939913,362.769,-15.0688,-14.9572,178.374,1.71387,-144.822,448
1569939913,362.769,-15.0688,-14.9572,178.374,1.71387,-144.822,444
1569939913,362.769,-15.0688,-14.9572,178.374,1.71387,-144.822,444
1569939913,362.769,-15.0688,-14.9572,178.374,1.71387,-144.822,444
1569939913,362.769,-15.0688,-14.9572,178.374,1.71387,-144.822,444
1569939913,362.769,-15.0688,-14.9572,178.374,1.71387,-144.822,444
1569939913,362.769,-15.0688,-14.9572,178.374,1.71387,-144.822,444
1569939913,362.769,-15.0688,-14.9572,178.374,1.73584,-144.822,440
1569939913,362.769,-15.0688,-14.9572,178.396,1.73584,-144.822,440
1569939913,362.769,-15.0688,-14.9572,178.396,1.73584,-144.822,440
1569939913,362.769,-14.9572,-14.9572,178.396,1.73584,-144.822,440
1569939913,362.769,-14.9572,-14.9572,178.396,1.73584,-144.822,440
1569939913,362.769,-14.9572,-14.9572,178.396,1.71387,-144.8,436
1569939913,362.769,-14.9572,-14.9572,178.396,1.71387,-144.8,436
1569939913,362.769,-14.9572,-14.9572,178.396,1.71387,-144.8,436
1569939913,362.769,-14.9572,-14.9572,178.396,1.71387,-144.8,436
1569939913,362.769,-15.0688,-14.9572,178.396,1.71387,-144.8,436
1569939913,362.769,-15.0688,-14.9572,178.374,1.71387,-144.8,436
1569939913,362.769,-15.0688,-14.9572,178.374,1.71387,-144.8,436
1569939913,362.769,-15.0688,-14.9572,178.374,1.71387,-144.8,436
1569939913,362.769,-15.0688,-14.9572,178.374,1.71387,-144.8,436
1569939913,362.769,-15.0688,-14.9572,178.374,1.71387,-144.8,436
1569939913,362.769,-15.0688,-14.9572,178.374,1.71387,-144.8,436
1569939913,362.769,-15.0688,-14.9572,178.374,1.71387,-144.8,436
1569939913,362.769,-15.0688,-14.9572,178.374,1.71387,-144.8,436
1569939913,362.769,-15.0688,-14.9572,178.374,1.71387,-144.8,436
1569939913,362.769,-15.0688,-14.9572,178.352,1.71387,-144.8,436
1569939913,362.769,-15.0688,-14.9572,178.352,1.71387,-144.8,432
1569939913,362.769,-15.0688,-14.9572,178.352,1.71387,-144.8,432
1569939913,362.769,-15.0688,-14.9572,178.352,1.71387,-144.8,432
1569939913,362.769,-15.0688,-14.9572,178.352,1.71387,-144.778,432
1569939913,362.769,-15.0688,-14.9572,178.352,1.71387,-144.778,428
1569939913,362.769,-15.0688,-14.9572,178.352,1.71387,-144.778,428
1569939913,362.769,-15.0688,-14.9572,178.352,1.71387,-144.778,428
1569939913,362.769,-15.0688,-14.9572,178.352,1.71387,-144.778,428
1569939913,362.88,-15.0688,-14.9572,178.352,1.71387,-144.778,424
1569939913,362.88,-15.0688,-14.9572,178.352,1.71387,-144.778,424
1569939913,362.88,-15.0688,-14.9572,178.352,1.71387,-144.778,424
1569939913,362.769,-15.0688,-14.9572,178.352,1.71387,-144.778,424
1569939913,362.769,-15.0688,-14.9572,178.352,1.71387,-144.778,424
1569939913,362.769,-15.0688,-14.9572,178.352,1.71387,-144.778,424
1569939913,362.769,-15.0688,-14.9572,178.352,1.71387,-144.778,424
1569939913,362.769,-15.0688,-14.9572,178.352,1.69189,-144.778,424
1569939913,362.769,-15.1805,-15.0688,178.352,1.69189,-144.8,424
1569939913,362.769,-15.1805,-15.0688,178.352,1.69189,-144.8,424
1569939913,362.769,-15.1805,-15.0688,178.352,1.69189,-144.8,424
1569939913,362.769,-15.1805,-15.0688,178.352,1.69189,-144.8,424
1569939913,362.769,-15.1805,-15.0688,178.33,1.69189,-144.8,424
1569939913,362.769,-15.1805,-15.0688,178.33,1.69189,-144.8,424
1569939913,362.769,-15.1805,-14.9572,178.33,1.69189,-144.8,424
1569939913,362.769,-15.1805,-14.9572,178.33,1.69189,-144.8,424
1569939913,362.769,-15.1805,-14.9572,178.33,1.69189,-144.8,424
1569939913,362.769,-15.1805,-14.9572,178.33,1.71387,-144.8,424
1569939913,362.769,-15.1805,-14.9572,178.33,1.71387,-144.8,424
1569939913,362.769,-15.1805,-14.9572,178.33,1.71387,-144.8,424
1569939913,362.769,-15.1805,-14.9572,178.33,1.71387,-144.8,424
1569939913,362.769,-15.1805,-14.9572,178.33,1.71387,-144.8,424
1569939913,362.769,-15.1805,-14.9572,178.352,1.71387,-144.8,424
1569939913,362.769,-15.1805,-14.9572,178.352,1.71387,-144.8,424
1569939913,362.769,-15.1805,-14.9572,178.352,1.71387,-144.8,420
1569939913,362.88,-15.1805,-14.9572,178.352,1.71387,-144.8,420
1569939913,362.88,-15.1805,-14.9572,178.352,1.71387,-144.8,420
1569939913,362.88,-15.1805,-14.9572,178.352,1.71387,-144.8,420
1569939913,362.769,-15.1805,-14.9572,178.352,1.71387,-144.8,420
1569939913,362.769,-15.1805,-14.9572,178.352,1.71387,-144.8,420
1569939913,362.769,-15.1805,-14.9572,178.352,1.73584,-144.8,416
1569939913,362.769,-15.0688,-14.9572,178.352,1.73584,-144.8,416
1569939913,362.769,-15.0688,-14.9572,178.352,1.73584,-144.8,416
1569939913,362.769,-15.0688,-14.9572,178.352,1.71387,-144.8,416
1569939913,362.769,-15.0688,-14.9572,178.352,1.71387,-144.8,416
1569939913,362.769,-15.0688,-14.9572,178.352,1.71387,-144.8,416
1569939913,362.769,-15.0688,-14.9572,178.352,1.71387,-144.8,420
1569939913,362.769,-15.0688,-14.9572,178.352,1.71387,-144.8,420
1569939913,362.769,-15.0688,-14.9572,178.352,1.71387,-144.8,420
1569939913,362.769,-15.0688,-14.9572,178.352,1.71387,-144.8,420
1569939913,362.769,-15.0688,-14.9572,178.352,1.71387,-144.8,420
1569939913,362.769,-15.0688,-14.9572,178.352,1.71387,-144.8,420
1569939913,362.769,-15.0688,-14.9572,178.352,1.71387,-144.8,424
1569939913,362.769,-15.0688,-14.9572,178.352,1.71387,-144.8,424
1569939913,362.769,-15.0688,-14.9572,178.352,1.71387,-144.8,424
1569939913,362.769,-15.0688,-14.9572,178.352,1.71387,-144.8,424
1569939913,362.769,-15.0688,-14.9572,178.352,1.71387,-144.8,424
1569939913,362.769,-15.0688,-14.9572,178.352,1.71387,-144.8,424
1569939913,362.769,-15.0688,-14.9572,178.352,1.71387,-144.8,424
1569939913,362.769,-15.0688,-14.9572,178.374,1.69189,-144.8,424
1569939913,362.769,-15.0688,-14.9572,178.374,1.69189,-144.8,424
1569939913,362.769,-15.0688,-14.9572,178.374,1.69189,-144.8,424
1569939913,362.769,-15.0688,-14.9572,178.374,1.69189,-144.8,424
1569939913,362.769,-15.0688,-14.9572,178.374,1.69189,-144.8,424
1569939913,362.769,-15.0688,-14.9572,178.374,1.69189,-144.8,424
1569939913,362.769,-15.0688,-14.9572,178.374,1.69189,-144.8,424
1569939913,362.769,-15.0688,-14.9572,178.374,1.69189,-144.8,424
1569939913,362.769,-15.0688,-14.9572,178.374,1.69189,-144.8,424
1569939913,362.769,-15.0688,-14.9572,178.374,1.69189,-144.8,424
1569939913,362.769,-15.0688,-14.9572,178.374,1.69189,-144.8,424
1569939913,362.769,-15.0688,-14.9572,178.374,1.69189,-144.8,424
1569939913,362.769,-15.0688,-14.9572,178.374,1.69189,-144.8,424
1569939913,362.769,-15.0688,-14.9572,178.374,1.69189,-144.8,424
1569939913,362.769,-14.9572,-14.9572,178.396,1.69189,-144.822,424
1569939913,362.769,-14.9572,-14.9572,178.396,1.69189,-144.822,428
1569939914,362.769,-14.9572,-14.9572,178.396,1.69189,-144.822,428
1569939914,362.769,-14.9572,-14.9572,178.396,1.69189,-144.822,428
1569939914,362.769,-14.9572,-14.9572,178.374,1.71387,-144.822,428
1569939914,362.769,-15.0688,-14.9572,178.374,1.71387,-144.822,428
1569939914,362.769,-15.0688,-14.9572,178.374,1.71387,-144.822,428
1569939914,362.769,-15.0688,-14.9572,178.374,1.71387,-144.822,428
1569939914,362.769,-15.0688,-14.9572,178.374,1.71387,-144.822,428
1569939914,362.769,-15.0688,-14.9572,178.374,1.71387,-144.822,428
1569939914,362.769,-15.0688,-14.9572,178.374,1.71387,-144.822,428
1569939914,362.769,-15.0688,-14.9572,178.374,1.71387,-144.822,428
1569939914,362.769,-15.0688,-14.9572,178.374,1.71387,-144.8,428
1569939914,362.769,-15.0688,-14.9572,178.374,1.71387,-144.8,428
1569939914,362.769,-15.0688,-14.9572,178.374,1.71387,-144.8,428
1569939914,362.769,-15.0688,-14.9572,178.374,1.71387,-144.8,428
1569939914,362.769,-15.0688,-14.9572,178.374,1.71387,-144.8,428
1569939914,362.769,-15.0688,-14.9572,178.374,1.71387,-144.8,428
1569939914,362.769,-15.0688,-14.9572,178.374,1.71387,-144.8,428
1569939914,362.769,-15.0688,-14.9572,178.374,1.71387,-144.8,424
1569939914,362.769,-15.0688,-14.9572,178.374,1.71387,-144.8,424
1569939914,362.769,-15.0688,-14.9572,178.396,1.71387,-144.8,424
1569939914,362.769,-15.0688,-14.9572,178.396,1.71387,-144.8,424
1569939914,362.769,-15.0688,-14.9572,178.396,1.73584,-144.8,424
1569939914,362.769,-14.9572,-14.9572,178.396,1.73584,-144.8,424
1569939914,362.769,-14.9572,-14.9572,178.396,1.73584,-144.8,420
1569939914,362.769,-14.9572,-14.9572,178.396,1.73584,-144.8,420
1569939914,362.769,-14.9572,-14.9572,178.396,1.73584,-144.8,420
1569939914,362.769,-14.9572,-14.9572,178.396,1.73584,-144.8,420
1569939914,362.769,-14.9572,-14.9572,178.396,1.73584,-144.8,420
1569939914,362.769,-14.9572,-14.9572,178.396,1.73584,-144.8,420
1569939914,362.769,-14.9572,-14.9572,178.396,1.73584,-144.8,420
1569939914,362.769,-14.9572,-14.9572,178.396,1.73584,-144.8,420
1569939914,362.769,-14.9572,-14.9572,178.396,1.71387,-144.8,420
1569939914,362.769,-14.9572,-14.9572,178.396,1.71387,-144.8,420
1569939914,362.769,-14.9572,-14.9572,178.396,1.71387,-144.8,420
1569939914,362.769,-14.9572,-14.9572,178.396,1.71387,-144.8,420
1569939914,362.769,-14.9572,-14.9572,178.396,1.71387,-144.8,420
1569939914,362.769,-14.9572,-14.9572,178.396,1.71387,-144.8,420
1569939914,362.769,-14.9572,-14.9572,178.418,1.71387,-144.8,420
1569939914,362.769,-14.9572,-14.9572,178.418,1.71387,-144.8,420
1569939914,362.769,-14.9572,-14.9572,178.418,1.71387,-144.8,420
1569939914,362.769,-14.9572,-14.9572,178.418,1.71387,-144.8,420
1569939914,362.769,-14.9572,-14.9572,178.418,1.71387,-144.8,420
1569939914,362.769,-14.9572,-14.9572,178.418,1.71387,-144.8,420
1569939914,362.769,-14.9572,-14.9572,178.418,1.71387,-144.8,420
1569939914,362.769,-14.9572,-14.9572,178.418,1.73584,-144.822,420
1569939914,362.769,-14.9572,-14.9572,178.418,1.73584,-144.822,424
1569939914,362.769,-14.9572,-14.9572,178.418,1.73584,-144.822,424
1569939914,362.769,-14.9572,-14.9572,178.418,1.73584,-144.822,424
1569939914,362.769,-14.9572,-14.9572,178.418,1.73584,-144.822,424
1569939914,362.769,-14.9572,-14.9572,178.418,1.73584,-144.822,424
1569939914,362.769,-14.9572,-14.8456,178.418,1.73584,-144.822,424
1569939914,362.769,-14.9572,-14.8456,178.418,1.73584,-144.822,424
1569939914,362.769,-14.9572,-14.8456,178.418,1.73584,-144.822,424
1569939914,362.769,-14.9572,-14.8456,178.418,1.75781,-144.822,424
1569939914,362.769,-14.9572,-14.8456,178.418,1.75781,-144.8,424
1569939914,362.769,-14.9572,-14.8456,178.418,1.75781,-144.8,424
1569939914,362.769,-14.9572,-14.8456,178.418,1.75781,-144.8,424
1569939914,362.769,-14.9572,-14.8456,178.418,1.75781,-144.8,424
1569939914,362.769,-14.9572,-14.8456,178.418,1.75781,-144.8,424
1569939914,362.769,-14.9572,-14.8456,178.418,1.75781,-144.8,428
1569939914,362.769,-14.9572,-14.8456,178.418,1.73584,-144.8,428
1569939914,362.769,-14.9572,-14.8456,178.418,1.73584,-144.8,428
1569939914,362.769,-14.9572,-14.8456,178.418,1.73584,-144.8,428
1569939914,362.769,-14.9572,-14.8456,178.418,1.73584,-144.8,428
1569939914,362.769,-14.9572,-14.8456,178.418,1.73584,-144.8,428
1569939914,362.769,-14.9572,-14.9572,178.418,1.73584,-144.8,432
1569939914,362.769,-14.9572,-14.9572,178.418,1.73584,-144.8,432
1569939914,362.769,-14.9572,-14.9572,178.418,1.73584,-144.8,432
1569939914,362.769,-14.9572,-14.9572,178.418,1.71387,-144.8,432
1569939914,362.769,-14.9572,-14.9572,178.418,1.71387,-144.8,432
1569939914,362.769,-14.9572,-14.9572,178.418,1.71387,-144.8,432
1569939914,362.769,-14.9572,-14.9572,178.418,1.71387,-144.8,432
1569939914,362.769,-14.9572,-14.9572,178.418,1.71387,-144.8,428
1569939914,362.769,-14.9572,-14.9572,178.418,1.71387,-144.8,428
1569939914,362.769,-14.9572,-14.9572,178.418,1.71387,-144.8,428
1569939914,362.769,-14.9572,-14.9572,178.418,1.71387,-144.8,428
1569939914,362.769,-14.9572,-14.9572,178.418,1.71387,-144.8,428
1569939914,362.769,-14.9572,-14.9572,178.418,1.71387,-144.8,424
1569939914,362.769,-14.9572,-14.9572,178.418,1.71387,-144.8,424
1569939914,362.769,-14.9572,-14.9572,178.418,1.71387,-144.8,424
1569939914,362.769,-14.9572,-14.9572,178.418,1.71387,-144.8,420
1569939914,362.769,-14.9572,-14.9572,178.418,1.71387,-144.8,420
1569939914,362.769,-14.9572,-14.9572,178.418,1.71387,-144.8,420
1569939914,362.769,-14.9572,-14.9572,178.418,1.71387,-144.8,416
1569939914,362.769,-14.9572,-14.9572,178.418,1.71387,-144.8,416
1569939914,362.769,-14.9572,-14.9572,178.396,1.71387,-144.8,416
1569939914,362.769,-14.9572,-14.9572,178.396,1.71387,-144.8,416
1569939914,362.769,-14.9572,-14.9572,178.396,1.71387,-144.8,412
1569939914,362.769,-14.9572,-14.9572,178.396,1.71387,-144.8,412
1569939914,362.769,-14.9572,-14.9572,178.396,1.71387,-144.8,412
1569939914,362.769,-14.9572,-14.9572,178.396,1.71387,-144.8,412
1569939914,362.769,-14.9572,-14.9572,178.396,1.71387,-144.8,412
1569939914,362.769,-14.9572,-14.9572,178.396,1.71387,-144.822,412
1569939914,362.769,-14.9572,-14.9572,178.396,1.71387,-144.822,412
1569939914,362.769,-14.9572,-14.9572,178.396,1.71387,-144.822,412
1569939914,362.769,-14.9572,-14.9572,178.396,1.71387,-144.822,412
1569939914,362.769,-14.9572,-14.9572,178.396,1.71387,-144.822,412
1569939914,362.769,-14.9572,-14.9572,178.396,1.71387,-144.822,412
1569939914,362.769,-14.9572,-14.9572,178.396,1.71387,-144.822,416
1569939914,362.769,-14.9572,-14.9572,178.396,1.71387,-144.822,416
1569939915,362.769,-14.9572,-14.9572,178.396,1.71387,-144.822,416
1569939915,362.769,-14.9572,-14.9572,178.396,1.71387,-144.822,416
1569939915,362.769,-14.9572,-14.9572,178.396,1.71387,-144.822,420
1569939915,362.769,-14.9572,-14.9572,178.396,1.71387,-144.822,420
1569939915,362.769,-14.9572,-14.9572,178.396,1.71387,-144.822,420
1569939915,362.769,-14.9572,-14.9572,178.396,1.71387,-144.822,420
1569939915,362.769,-14.9572,-14.9572,178.418,1.71387,-144.822,420
1569939915,362.769,-14.9572,-14.9572,178.418,1.71387,-144.822,424
1569939915,362.769,-14.9572,-14.9572,178.396,1.71387,-144.822,424
1569939915,362.769,-14.9572,-14.9572,178.396,1.71387,-144.822,424
1569939915,362.769,-14.9572,-14.9572,178.396,1.71387,-144.822,424
1569939915,362.769,-14.9572,-14.9572,178.396,1.71387,-144.822,424
1569939915,362.769,-14.9572,-14.9572,178.396,1.71387,-144.822,428
1569939915,362.769,-14.9572,-14.9572,178.396,1.73584,-144.822,428
1569939915,362.769,-14.9572,-14.9572,178.396,1.73584,-144.822,428
1569939915,362.769,-14.9572,-14.9572,178.396,1.73584,-144.822,428
1569939915,362.769,-14.9572,-14.9572,178.396,1.73584,-144.822,428
1569939915,362.769,-14.9572,-14.9572,178.396,1.73584,-144.8,428
1569939915,362.769,-14.9572,-14.9572,178.396,1.73584,-144.8,428
1569939915,362.88,-14.9572,-14.9572,178.396,1.73584,-144.8,428
1569939915,362.88,-14.9572,-14.9572,178.396,1.73584,-144.8,428
1569939915,362.88,-14.9572,-14.9572,178.396,1.73584,-144.8,428
1569939915,362.88,-14.9572,-14.9572,178.396,1.73584,-144.8,424
1569939915,362.88,-14.9572,-14.9572,178.396,1.73584,-144.8,424
1569939915,362.88,-14.9572,-14.9572,178.418,1.73584,-144.8,424
1569939915,362.88,-14.9572,-14.9572,178.418,1.73584,-144.8,424
1569939915,362.88,-14.9572,-14.9572,178.418,1.73584,-144.8,420
1569939915,362.88,-14.9572,-14.9572,178.418,1.73584,-144.8,420
1569939915,362.88,-14.9572,-14.9572,178.418,1.73584,-144.8,420
1569939915,362.88,-14.9572,-14.9572,178.418,1.73584,-144.8,416
1569939915,362.88,-14.9572,-14.9572,178.418,1.73584,-144.8,416
1569939915,362.88,-14.9572,-14.9572,178.396,1.73584,-144.8,416
1569939915,362.88,-14.9572,-14.9572,178.396,1.73584,-144.8,416
1569939915,362.88,-14.9572,-14.9572,178.396,1.73584,-144.8,416
1569939915,362.88,-15.0688,-14.9572,178.396,1.73584,-144.822,416
1569939915,362.88,-15.0688,-14.9572,178.396,1.73584,-144.822,416
1569939915,362.88,-15.0688,-14.9572,178.396,1.73584,-144.822,416
1569939915,362.88,-15.0688,-14.9572,178.374,1.73584,-144.822,416
1569939915,362.88,-15.0688,-14.9572,178.374,1.73584,-144.822,416
1569939915,362.88,-15.0688,-14.9572,178.374,1.73584,-144.822,416
1569939915,362.88,-15.0688,-14.8456,178.374,1.73584,-144.822,416
1569939915,362.88,-15.0688,-14.8456,178.374,1.73584,-144.822,416
1569939915,362.88,-15.0688,-14.8456,178.374,1.73584,-144.822,416
1569939915,362.769,-15.0688,-14.8456,178.374,1.73584,-144.822,420
1569939915,362.769,-15.0688,-14.8456,178.374,1.73584,-144.822,420
1569939915,362.769,-15.0688,-14.8456,178.374,1.73584,-144.822,420
1569939915,362.769,-15.0688,-14.9572,178.374,1.73584,-144.822,420
1569939915,362.769,-15.0688,-14.9572,178.374,1.73584,-144.822,420
1569939915,362.769,-15.0688,-14.9572,178.374,1.73584,-144.822,420
1569939915,362.769,-15.0688,-14.9572,178.374,1.73584,-144.822,420
1569939915,362.769,-15.0688,-14.9572,178.374,1.73584,-144.822,420
1569939915,362.769,-15.0688,-14.9572,178.374,1.71387,-144.822,424
1569939915,362.769,-15.0688,-14.9572,178.374,1.71387,-144.822,424
1569939915,362.769,-15.0688,-14.9572,178.374,1.71387,-144.822,424
1569939915,362.769,-15.0688,-14.9572,178.374,1.71387,-144.8,424
1569939915,362.769,-15.0688,-14.9572,178.374,1.71387,-144.8,424
1569939915,362.769,-15.0688,-14.9572,178.374,1.71387,-144.8,424
1569939915,362.769,-15.0688,-14.9572,178.374,1.71387,-144.8,424
1569939915,362.769,-15.0688,-14.9572,178.374,1.71387,-144.8,424
1569939915,362.88,-15.0688,-14.9572,178.374,1.71387,-144.8,420
1569939915,362.88,-15.0688,-14.9572,178.374,1.71387,-144.8,420
1569939915,362.88,-15.0688,-14.9572,178.374,1.71387,-144.8,420
1569939915,362.88,-15.0688,-14.9572,178.374,1.71387,-144.8,420
1569939915,362.88,-15.0688,-14.9572,178.374,1.71387,-144.8,420
1569939915,362.88,-15.0688,-14.9572,178.374,1.71387,-144.8,420
1569939915,362.88,-15.0688,-14.9572,178.374,1.71387,-144.8,420
1569939915,362.88,-15.0688,-14.9572,178.374,1.71387,-144.8,416
1569939915,362.88,-15.0688,-14.9572,178.374,1.71387,-144.8,416
1569939915,362.88,-15.0688,-14.9572,178.374,1.71387,-144.8,416
1569939915,362.88,-15.0688,-14.9572,178.374,1.71387,-144.8,416
1569939915,362.88,-15.0688,-14.9572,178.374,1.71387,-144.8,416
1569939915,362.88,-15.0688,-14.9572,178.374,1.71387,-144.8,416
1569939915,362.88,-15.0688,-14.9572,178.374,1.71387,-144.8,416
1569939915,362.88,-15.0688,-14.9572,178.374,1.71387,-144.8,416
1569939915,362.88,-15.0688,-14.9572,178.374,1.71387,-144.8,416
1569939915,362.88,-15.0688,-14.9572,178.374,1.71387,-144.8,416
1569939915,362.88,-15.0688,-14.9572,178.374,1.71387,-144.8,416
1569939915,362.88,-15.0688,-14.9572,178.374,1.71387,-144.8,416
1569939915,362.88,-15.0688,-14.9572,178.374,1.71387,-144.8,416
1569939915,362.88,-15.0688,-14.9572,178.374,1.71387,-144.8,416
1569939915,362.88,-15.0688,-14.9572,178.374,1.71387,-144.8,416
1569939915,362.88,-15.0688,-14.9572,178.374,1.71387,-144.8,416
1569939915,362.88,-15.0688,-14.9572,178.374,1.69189,-144.8,416
1569939915,362.88,-15.0688,-14.9572,178.374,1.69189,-144.8,416
1569939915,362.88,-15.0688,-14.9572,178.374,1.69189,-144.8,420
1569939915,362.88,-15.0688,-14.9572,178.374,1.69189,-144.8,420
1569939915,362.88,-15.0688,-14.9572,178.374,1.69189,-144.8,420
1569939915,362.88,-15.0688,-14.9572,178.374,1.69189,-144.8,420
1569939915,362.88,-15.0688,-14.9572,178.374,1.69189,-144.8,420
1569939915,362.88,-15.0688,-15.0688,178.396,1.69189,-144.8,420
1569939915,362.88,-15.0688,-15.0688,178.396,1.69189,-144.8,420
1569939915,362.88,-15.0688,-15.0688,178.396,1.69189,-144.8,420
1569939915,362.88,-15.0688,-15.0688,178.396,1.69189,-144.8,420
1569939915,362.88,-15.0688,-15.0688,178.396,1.69189,-144.8,424
1569939915,362.88,-15.0688,-15.0688,178.396,1.69189,-144.8,424
1569939915,362.88,-15.0688,-15.0688,178.396,1.69189,-144.8,424
1569939915,362.88,-15.0688,-15.0688,178.396,1.69189,-144.8,424
1569939915,362.88,-15.0688,-15.0688,178.396,1.69189,-144.8,424
1569939915,362.88,-15.0688,-15.0688,178.396,1.69189,-144.8,424
1569939915,362.88,-15.0688,-15.0688,178.396,1.69189,-144.8,424
1569939916,362.88,-15.0688,-15.0688,178.396,1.69189,-144.8,424
1569939916,362.88,-15.0688,-15.0688,178.396,1.69189,-144.8,424
1569939916,362.769,-15.0688,-15.0688,178.396,1.69189,-144.8,424
1569939916,362.769,-15.0688,-15.0688,178.396,1.69189,-144.8,428
1569939916,362.769,-15.0688,-15.0688,178.396,1.69189,-144.8,428
1569939916,362.769,-15.0688,-15.0688,178.396,1.69189,-144.8,428
1569939916,362.769,-15.0688,-15.0688,178.396,1.69189,-144.8,428
1569939916,362.769,-15.0688,-15.0688,178.396,1.69189,-144.8,428
1569939916,362.769,-15.0688,-15.0688,178.396,1.69189,-144.8,428
1569939916,362.769,-15.0688,-15.0688,178.396,1.69189,-144.8,428
1569939916,362.769,-15.0688,-15.0688,178.396,1.69189,-144.8,428
1569939916,362.769,-15.0688,-15.0688,178.396,1.69189,-144.8,428
1569939916,362.769,-15.0688,-15.0688,178.374,1.69189,-144.8,428
1569939916,362.769,-15.0688,-15.0688,178.374,1.69189,-144.8,428
1569939916,362.769,-15.0688,-15.0688,178.374,1.69189,-144.8,424
1569939916,362.769,-15.0688,-15.0688,178.374,1.69189,-144.8,424
1569939916,362.769,-15.0688,-15.0688,178.374,1.69189,-144.778,424
1569939916,362.769,-15.0688,-15.0688,178.374,1.69189,-144.778,424
1569939916,362.769,-15.0688,-15.0688,178.374,1.69189,-144.778,424
1569939916,362.769,-15.0688,-15.0688,178.374,1.69189,-144.778,424
1569939916,362.769,-15.0688,-15.0688,178.374,1.69189,-144.778,424
1569939916,362.769,-15.0688,-15.0688,178.374,1.69189,-144.778,424
1569939916,362.769,-15.0688,-14.9572,178.374,1.69189,-144.778,424
1569939916,362.769,-15.0688,-14.9572,178.374,1.69189,-144.778,424
1569939916,362.769,-15.0688,-14.9572,178.352,1.69189,-144.778,424
1569939916,362.769,-15.0688,-14.9572,178.352,1.69189,-144.778,428
1569939916,362.769,-15.0688,-14.9572,178.352,1.69189,-144.778,428
1569939916,362.769,-15.0688,-14.9572,178.352,1.69189,-144.778,428
1569939916,362.769,-15.0688,-14.9572,178.352,1.69189,-144.778,428
1569939916,362.769,-15.0688,-15.0688,178.352,1.69189,-144.778,428
1569939916,362.769,-15.0688,-15.0688,178.352,1.69189,-144.778,428
1569939916,362.769,-15.0688,-15.0688,178.352,1.69189,-144.778,428
1569939916,362.769,-15.0688,-15.0688,178.352,1.69189,-144.778,428
1569939916,362.769,-15.0688,-15.0688,178.352,1.69189,-144.778,428
1569939916,362.769,-15.0688,-14.9572,178.352,1.69189,-144.778,428
1569939916,362.769,-15.0688,-14.9572,178.352,1.69189,-144.778,428
1569939916,362.769,-15.0688,-14.9572,178.352,1.69189,-144.778,428
1569939916,362.769,-15.0688,-14.9572,178.352,1.69189,-144.778,428
1569939916,362.769,-15.0688,-14.9572,178.352,1.71387,-144.8,428
1569939916,362.769,-15.0688,-14.9572,178.352,1.71387,-144.8,428
1569939916,362.769,-15.0688,-14.9572,178.352,1.71387,-144.8,428
1569939916,362.769,-15.0688,-14.9572,178.352,1.71387,-144.8,428
1569939916,362.769,-15.0688,-14.9572,178.352,1.71387,-144.8,428
1569939916,362.769,-15.0688,-14.9572,178.352,1.71387,-144.8,428
1569939916,362.769,-15.0688,-14.9572,178.352,1.71387,-144.8,428
1569939916,362.769,-15.0688,-14.9572,178.352,1.71387,-144.8,428
1569939916,362.769,-15.0688,-14.9572,178.352,1.71387,-144.8,428
1569939916,362.769,-15.0688,-14.9572,178.352,1.71387,-144.8,428
1569939916,362.769,-15.0688,-14.9572,178.352,1.71387,-144.8,428
1569939916,362.769,-15.0688,-14.9572,178.352,1.71387,-144.8,428
1569939916,362.769,-15.0688,-14.9572,178.352,1.71387,-144.8,428
1569939916,362.769,-15.0688,-14.9572,178.352,1.71387,-144.8,428
1569939916,362.769,-15.0688,-14.9572,178.352,1.71387,-144.8,428
1569939916,362.769,-15.0688,-14.9572,178.352,1.71387,-144.8,428
1569939916,362.769,-15.0688,-14.9572,178.352,1.71387,-144.822,428
1569939916,362.769,-15.0688,-14.9572,178.352,1.71387,-144.822,428
1569939916,362.769,-15.0688,-14.9572,178.352,1.71387,-144.822,428
1569939916,362.769,-15.0688,-14.9572,178.352,1.71387,-144.822,428
1569939916,362.769,-15.0688,-14.9572,178.352,1.71387,-144.822,428
1569939916,362.769,-15.0688,-14.9572,178.352,1.71387,-144.822,428
1569939916,362.769,-15.0688,-14.9572,178.352,1.71387,-144.822,428
1569939916,362.769,-15.0688,-14.9572,178.352,1.71387,-144.822,428
1569939916,362.769,-15.0688,-14.9572,178.352,1.71387,-144.822,428
1569939916,362.769,-15.0688,-14.9572,178.352,1.71387,-144.822,428
1569939916,362.769,-15.0688,-14.9572,178.352,1.71387,-144.822,432
1569939916,362.769,-15.0688,-14.9572,178.352,1.71387,-144.822,432
1569939916,362.769,-15.0688,-14.9572,178.352,1.71387,-144.822,432
1569939916,362.769,-15.0688,-14.9572,178.352,1.71387,-144.822,432
1569939916,362.769,-15.0688,-14.9572,178.352,1.71387,-144.822,432
1569939924,401.055,-56.8151,-13.841,178.396,2.24121,-144.668,480
1569939924,401.055,-56.8151,-13.841,178.396,2.26318,-144.668,480
1569939924,401.055,-56.8151,-13.841,178.396,2.26318,-144.668,480
1569939924,401.055,-56.8151,-13.841,178.396,2.26318,-144.668,480
1569939924,401.055,-56.8151,-13.841,178.396,2.26318,-144.668,480
1569939924,401.055,-56.8151,-13.841,178.396,2.26318,-144.668,480
1569939924,401.055,-56.8151,-13.841,178.396,2.26318,-144.646,480
1569939924,401.166,-56.8151,-13.841,178.396,2.26318,-144.646,476
1569939924,401.166,-56.8151,-13.841,178.396,2.26318,-144.646,476
1569939924,401.166,-56.8151,-13.841,178.396,2.26318,-144.646,476
1569939924,401.166,-56.9268,-13.841,178.396,2.26318,-144.646,476
1569939924,401.166,-56.9268,-13.841,178.396,2.26318,-144.646,476
1569939924,401.166,-56.9268,-13.841,178.396,2.26318,-144.646,476
1569939924,401.166,-56.9268,-13.841,178.396,2.24121,-144.646,476
1569939924,401.166,-56.9268,-13.841,178.396,2.24121,-144.646,476
1569939924,401.166,-56.9268,-13.841,178.396,2.24121,-144.646,476
1569939924,401.166,-56.9268,-13.841,178.374,2.24121,-144.646,476
1569939924,401.166,-56.9268,-13.841,178.374,2.24121,-144.646,476
1569939924,401.166,-56.9268,-13.841,178.374,2.24121,-144.646,476
1569939924,401.166,-56.9268,-13.841,178.374,2.24121,-144.646,480
1569939924,401.166,-56.9268,-13.841,178.374,2.21924,-144.646,480
1569939924,401.166,-57.0384,-13.841,178.374,2.21924,-144.646,480
1569939924,401.166,-57.0384,-13.9526,178.352,2.21924,-144.646,480
1569939924,401.166,-57.0384,-13.9526,178.352,2.21924,-144.646,484
1569939924,401.166,-57.0384,-13.9526,178.352,2.21924,-144.646,484
1569939924,401.166,-57.0384,-13.9526,178.352,2.21924,-144.646,484
1569939924,401.166,-57.0384,-13.9526,178.352,2.19727,-144.646,484
1569939924,401.166,-57.0384,-13.9526,178.352,2.19727,-144.646,484
1569939924,401.166,-57.0384,-13.9526,178.352,2.19727,-144.646,484
1569939924,401.166,-57.0384,-13.9526,178.352,2.19727,-144.646,488
1569939924,401.166,-57.0384,-13.9526,178.352,2.19727,-144.646,488
1569939924,401.166,-57.0384,-13.9526,178.352,2.19727,-144.646,488
1569939924,401.166,-57.0384,-13.9526,178.352,2.19727,-144.624,488
1569939924,401.166,-57.0384,-13.9526,178.352,2.19727,-144.624,488
1569939924,401.166,-57.0384,-13.9526,178.352,2.19727,-144.624,484
1569939924,401.166,-57.0384,-13.9526,178.352,2.19727,-144.624,484
1569939924,401.166,-57.0384,-13.9526,178.352,2.19727,-144.624,484
1569939924,401.166,-57.0384,-13.9526,178.352,2.19727,-144.624,480
1569939924,401.166,-57.0384,-13.9526,178.352,2.19727,-144.624,480
1569939924,401.166,-57.0384,-13.9526,178.352,2.19727,-144.624,480
1569939924,401.166,-57.0384,-13.9526,178.352,2.21924,-144.624,476
1569939924,401.166,-57.0384,-13.9526,178.352,2.21924,-144.624,476
1569939924,401.166,-57.0384,-13.9526,178.352,2.21924,-144.624,472
1569939924,401.166,-57.0384,-13.841,178.352,2.21924,-144.624,472
1569939924,401.166,-57.0384,-13.841,178.352,2.21924,-144.624,472
1569939924,401.166,-57.0384,-13.841,178.352,2.21924,-144.624,472
1569939924,401.166,-57.0384,-13.841,178.352,2.21924,-144.624,472
1569939924,401.166,-57.0384,-13.841,178.352,2.21924,-144.646,472
1569939924,401.166,-57.0384,-13.841,178.352,2.21924,-144.646,472
1569939924,401.166,-57.0384,-13.841,178.352,2.21924,-144.646,472
1569939924,401.166,-57.0384,-13.841,178.352,2.21924,-144.646,472
1569939924,401.166,-57.0384,-13.841,178.352,2.21924,-144.646,472
1569939924,401.166,-57.0384,-13.841,178.352,2.21924,-144.646,472
1569939924,401.055,-57.0384,-13.841,178.352,2.21924,-144.646,476
1569939924,401.055,-57.0384,-13.841,178.352,2.21924,-144.624,476
1569939924,401.055,-57.0384,-13.841,178.352,2.21924,-144.624,476
1569939924,401.055,-57.0384,-13.841,178.352,2.21924,-144.624,476
1569939924,401.055,-57.0384,-13.841,178.352,2.21924,-144.624,476
1569939924,401.055,-57.0384,-13.841,178.352,2.21924,-144.624,476
1569939924,401.055,-57.0384,-13.841,178.352,2.24121,-144.624,480
1569939925,401.055,-57.0384,-13.841,178.352,2.24121,-144.624,480
1569939925,401.055,-57.0384,-13.841,178.352,2.24121,-144.624,480
1569939925,401.055,-57.0384,-13.841,178.352,2.24121,-144.624,480
1569939925,401.055,-57.0384,-13.7294,178.352,2.24121,-144.624,480
1569939925,401.055,-57.0384,-13.7294,178.352,2.24121,-144.624,480
1569939925,401.055,-57.0384,-13.7294,178.352,2.24121,-144.624,480
1569939925,401.055,-57.0384,-13.7294,178.352,2.24121,-144.624,480
1569939925,401.055,-57.0384,-13.7294,178.33,2.24121,-144.624,480
1569939925,401.055,-57.0384,-13.7294,178.33,2.26318,-144.624,480
1569939925,401.055,-57.0384,-13.7294,178.33,2.26318,-144.624,480
1569939925,401.055,-57.0384,-13.7294,178.33,2.26318,-144.624,484
1569939925,401.055,-57.0384,-13.7294,178.33,2.26318,-144.624,484
1569939925,401.055,-57.15,-13.7294,178.33,2.26318,-144.624,484
1569939925,401.055,-57.15,-13.7294,178.33,2.26318,-144.624,484
1569939925,401.055,-57.0384,-13.7294,178.33,2.26318,-144.624,484
1569939925,401.055,-57.0384,-13.7294,178.352,2.24121,-144.624,488
1569939925,401.055,-57.0384,-13.7294,178.352,2.24121,-144.624,488
1569939925,401.055,-57.0384,-13.841,178.352,2.24121,-144.624,488
1569939925,401.055,-57.0384,-13.841,178.352,2.24121,-144.624,492
1569939925,401.055,-57.0384,-13.841,178.352,2.24121,-144.624,492
1569939925,401.055,-57.0384,-13.841,178.352,2.21924,-144.624,492
1569939925,401.055,-57.0384,-13.841,178.352,2.21924,-144.624,496
1569939925,401.055,-57.0384,-13.841,178.352,2.21924,-144.624,496
1569939925,401.055,-57.0384,-13.841,178.352,2.21924,-144.624,496
1569939925,401.055,-57.0384,-13.841,178.352,2.21924,-144.646,500
1569939925,401.055,-57.0384,-13.841,178.374,2.21924,-144.646,500
1569939925,401.055,-57.0384,-13.841,178.374,2.21924,-144.646,500
1569939925,401.055,-57.0384,-13.841,178.374,2.21924,-144.646,504
1569939925,401.055,-57.0384,-13.841,178.374,2.21924,-144.646,504
1569939925,401.055,-57.0384,-13.841,178.374,2.21924,-144.646,504
1569939925,401.055,-57.0384,-13.841,178.374,2.21924,-144.646,508
1569939925,401.055,-57.0384,-13.841,178.352,2.21924,-144.646,508
1569939925,401.055,-57.0384,-13.841,178.352,2.24121,-144.646,508
1569939925,401.055,-57.0384,-13.841,178.352,2.24121,-144.646,508
1569939925,401.055,-57.0384,-13.7294,178.352,2.24121,-144.646,512
1569939925,401.055,-57.0384,-13.7294,178.352,2.24121,-144.646,512
1569939925,401.055,-57.0384,-13.7294,178.352,2.24121,-144.646,512
1569939925,401.055,-57.0384,-13.7294,178.352,2.24121,-144.646,512
1569939925,401.055,-57.0384,-13.7294,178.352,2.24121,-144.646,512
1569939925,401.055,-57.0384,-13.7294,178.352,2.24121,-144.646,512
1569939925,401.055,-57.0384,-13.841,178.352,2.24121,-144.646,512
1569939925,401.166,-57.0384,-13.841,178.352,2.24121,-144.646,512
1569939925,401.166,-57.0384,-13.841,178.352,2.24121,-144.646,512
1569939925,401.166,-57.0384,-13.841,178.352,2.24121,-144.646,512
1569939925,401.166,-57.0384,-13.841,178.352,2.24121,-144.646,512
1569939925,401.166,-57.0384,-13.841,178.352,2.24121,-144.646,512
1569939925,401.166,-57.0384,-13.841,178.352,2.24121,-144.646,512
1569939925,401.166,-57.0384,-13.841,178.352,2.24121,-144.646,512
1569939925,401.166,-57.0384,-13.841,178.352,2.24121,-144.646,512
1569939925,401.166,-57.0384,-13.841,178.352,2.24121,-144.646,512
1569939925,401.166,-57.0384,-13.841,178.352,2.24121,-144.646,512
1569939925,401.166,-57.0384,-13.841,178.352,2.24121,-144.646,512
1569939925,401.166,-57.0384,-13.841,178.352,2.24121,-144.646,512
1569939925,401.166,-57.0384,-13.841,178.352,2.24121,-144.646,512
1569939925,401.166,-57.0384,-13.841,178.352,2.24121,-144.646,508
1569939925,401.166,-57.0384,-13.841,178.33,2.24121,-144.646,508
1569939925,401.166,-57.0384,-13.841,178.33,2.24121,-144.646,508
1569939925,401.166,-57.15,-13.841,178.33,2.24121,-144.646,508
1569939925,401.166,-57.15,-13.841,178.33,2.24121,-144.646,508
1569939925,401.166,-57.15,-13.841,178.33,2.24121,-144.646,508
1569939925,401.166,-57.15,-13.841,178.308,2.24121,-144.646,508
1569939925,401.166,-57.15,-13.841,178.308,2.24121,-144.646,508
1569939925,401.166,-57.15,-13.841,178.308,2.24121,-144.646,508
1569939925,401.166,-57.15,-13.841,178.308,2.24121,-144.646,508
1569939925,401.166,-57.15,-13.841,178.308,2.24121,-144.646,508
1569939925,401.166,-57.15,-13.841,178.308,2.24121,-144.646,508
1569939925,401.166,-57.15,-13.841,178.308,2.24121,-144.668,508
1569939925,401.166,-57.15,-13.841,178.308,2.24121,-144.668,508
1569939925,401.166,-57.15,-13.841,178.308,2.24121,-144.668,508
1569939925,401.166,-57.15,-13.841,178.308,2.24121,-144.668,508
1569939925,401.055,-57.15,-13.841,178.308,2.24121,-144.668,508
1569939925,401.055,-57.15,-13.841,178.308,2.24121,-144.668,508
1569939925,401.055,-57.15,-13.841,178.308,2.24121,-144.646,508
1569939925,401.055,-57.15,-13.841,178.308,2.24121,-144.646,508
1569939925,401.166,-57.15,-13.841,178.308,2.24121,-144.646,508
1569939925,401.166,-57.15,-13.841,178.308,2.24121,-144.646,508
1569939925,401.166,-57.15,-13.841,178.308,2.24121,-144.646,508
1569939925,401.166,-57.15,-13.841,178.308,2.24121,-144.624,504
1569939925,401.166,-57.15,-13.841,178.308,2.24121,-144.624,504
1569939925,401.166,-57.15,-13.841,178.308,2.24121,-144.624,500
1569939925,401.166,-57.15,-13.841,178.308,2.24121,-144.624,496
1569939925,401.166,-57.15,-13.841,178.308,2.24121,-144.624,496
1569939925,401.166,-57.15,-13.841,178.308,2.24121,-144.624,492
1569939925,401.166,-57.15,-13.841,178.308,2.24121,-144.624,488
1569939925,401.166,-57.15,-13.841,178.308,2.24121,-144.624,488
1569939925,401.166,-57.15,-13.841,178.308,2.24121,-144.624,484
1569939925,401.166,-57.15,-13.841,178.308,2.24121,-144.624,484
1569939925,401.166,-57.15,-13.841,178.308,2.24121,-144.624,480
1569939925,401.166,-57.15,-13.841,178.308,2.24121,-144.624,476
1569939925,401.166,-57.15,-13.841,178.308,2.24121,-144.624,476
1569939925,401.166,-57.15,-13.841,178.33,2.24121,-144.624,476
1569939925,401.166,-57.15,-13.841,178.33,2.24121,-144.624,472
1569939925,401.166,-57.15,-13.841,178.33,2.24121,-144.624,472
1569939925,401.166,-57.0384,-13.841,178.33,2.24121,-144.624,472
1569939925,401.055,-57.0384,-13.841,178.33,2.24121,-144.624,472
1569939925,401.055,-57.0384,-13.841,178.33,2.24121,-144.624,476
1569939925,401.055,-57.0384,-13.841,178.33,2.24121,-144.624,476
1569939925,401.055,-57.0384,-13.841,178.352,2.24121,-144.624,476
1569939925,401.055,-57.0384,-13.841,178.352,2.24121,-144.624,480
1569939925,401.055,-57.0384,-13.841,178.352,2.24121,-144.624,480
1569939926,401.055,-57.0384,-13.841,178.352,2.24121,-144.624,484
1569939926,401.055,-57.0384,-13.841,178.352,2.24121,-144.646,484
1569939926,401.055,-56.9268,-13.841,178.374,2.24121,-144.646,488
1569939926,401.055,-56.9268,-13.841,178.374,2.24121,-144.646,488
1569939926,401.055,-56.9268,-13.841,178.374,2.24121,-144.646,488
1569939926,401.166,-56.9268,-13.841,178.374,2.24121,-144.646,488
1569939926,401.166,-56.9268,-13.841,178.396,2.24121,-144.646,492
1569939926,401.166,-56.9268,-13.841,178.396,2.24121,-144.646,492
1569939926,401.166,-56.9268,-13.841,178.396,2.24121,-144.646,492
1569939926,401.166,-56.9268,-13.841,178.396,2.24121,-144.646,492
1569939926,401.166,-56.9268,-13.841,178.396,2.26318,-144.646,492
1569939926,401.166,-56.9268,-13.841,178.396,2.26318,-144.646,492
1569939926,401.166,-56.8151,-13.841,178.396,2.26318,-144.646,492
1569939926,401.166,-56.8151,-13.841,178.396,2.26318,-144.646,492
1569939926,401.166,-56.8151,-13.841,178.396,2.26318,-144.646,492
1569939926,401.166,-56.9268,-13.841,178.396,2.26318,-144.646,492
1569939926,401.166,-56.9268,-13.841,178.396,2.26318,-144.646,492
1569939926,401.166,-56.9268,-13.841,178.396,2.26318,-144.646,492
1569939926,401.166,-56.9268,-13.841,178.396,2.24121,-144.646,492
1569939926,401.166,-56.9268,-13.841,178.396,2.24121,-144.646,492
1569939926,401.166,-56.9268,-13.841,178.396,2.24121,-144.646,492
1569939926,401.166,-56.9268,-13.841,178.396,2.24121,-144.646,492
1569939926,401.166,-56.8151,-13.841,178.396,2.24121,-144.646,492
1569939926,401.166,-56.8151,-13.841,178.396,2.24121,-144.646,492
1569939926,401.166,-56.8151,-13.841,178.396,2.24121,-144.646,496
1569939926,401.166,-56.8151,-13.841,178.396,2.24121,-144.646,496
1569939926,401.166,-56.8151,-13.841,178.396,2.21924,-144.646,496
1569939926,401.166,-56.8151,-13.841,178.396,2.21924,-144.646,496
1569939926,401.166,-56.8151,-13.841,178.396,2.21924,-144.646,496
1569939926,401.166,-56.8151,-13.841,178.396,2.21924,-144.646,496
1569939926,401.166,-56.8151,-13.841,178.396,2.21924,-144.646,496
1569939926,401.166,-56.8151,-13.841,178.396,2.21924,-144.646,496
1569939926,401.166,-56.9268,-13.841,178.396,2.21924,-144.646,496
1569939926,401.166,-56.9268,-13.841,178.374,2.21924,-144.646,496
1569939926,401.055,-56.9268,-13.841,178.374,2.21924,-144.646,496
1569939926,401.055,-56.9268,-13.841,178.374,2.21924,-144.646,496
1569939926,401.055,-56.9268,-13.841,178.374,2.21924,-144.646,496
1569939926,401.055,-56.9268,-13.841,178.352,2.21924,-144.646,496
1569939926,401.055,-56.9268,-13.841,178.352,2.24121,-144.646,496
1569939926,401.055,-57.0384,-13.841,178.352,2.24121,-144.624,496
1569939926,401.055,-57.0384,-13.841,178.352,2.24121,-144.624,496
1569939926,401.055,-57.0384,-13.841,178.352,2.24121,-144.624,496
1569939926,401.055,-57.0384,-13.841,178.352,2.24121,-144.624,496
1569939926,401.055,-57.0384,-13.841,178.352,2.24121,-144.624,496
1569939926,401.055,-57.0384,-13.841,178.33,2.24121,-144.624,496
1569939926,401.055,-57.0384,-13.841,178.33,2.24121,-144.624,496
1569939926,401.055,-57.0384,-13.841,178.33,2.21924,-144.624,496
1569939926,401.055,-57.0384,-13.841,178.33,2.21924,-144.624,500
1569939926,401.055,-57.0384,-13.841,178.33,2.21924,-144.624,500
1569939926,401.055,-57.0384,-13.841,178.33,2.21924,-144.624,500
1569939926,401.055,-57.0384,-13.841,178.33,2.21924,-144.624,500
1569939926,401.055,-57.0384,-13.841,178.33,2.21924,-144.624,500
1569939926,401.055,-57.0384,-13.841,178.352,2.21924,-144.624,500
1569939926,401.055,-57.0384,-13.841,178.352,2.21924,-144.624,500
1569939926,401.055,-57.0384,-13.841,178.352,2.21924,-144.624,504
1569939926,401.055,-57.0384,-13.841,178.352,2.21924,-144.624,504
1569939926,401.055,-57.0384,-13.841,178.352,2.21924,-144.624,504
1569939926,401.055,-57.0384,-13.841,178.352,2.21924,-144.624,504
1569939926,401.055,-57.0384,-13.841,178.352,2.21924,-144.624,504
1569939926,401.166,-57.0384,-13.841,178.352,2.21924,-144.624,504
1569939926,401.166,-57.0384,-13.841,178.352,2.21924,-144.624,504
1569939926,401.166,-57.0384,-13.841,178.352,2.21924,-144.624,504
1569939926,401.055,-57.0384,-13.841,178.352,2.21924,-144.624,504
1569939926,401.055,-57.0384,-13.841,178.352,2.21924,-144.624,504
1569939926,401.055,-57.0384,-13.841,178.352,2.21924,-144.624,504
1569939926,401.055,-57.0384,-13.841,178.352,2.21924,-144.624,504
1569939926,401.166,-57.0384,-13.841,178.352,2.21924,-144.624,504
1569939926,401.166,-57.0384,-13.841,178.352,2.21924,-144.624,500
1569939926,401.166,-57.0384,-13.841,178.352,2.24121,-144.624,500
1569939926,401.166,-57.0384,-13.841,178.352,2.24121,-144.624,500
1569939926,401.166,-57.0384,-13.841,178.352,2.24121,-144.624,496
1569939926,401.166,-57.0384,-13.841,178.352,2.24121,-144.624,496
1569939926,401.166,-57.0384,-13.7294,178.352,2.24121,-144.646,496
1569939926,401.166,-57.0384,-13.7294,178.352,2.24121,-144.646,496
1569939926,401.166,-57.0384,-13.7294,178.352,2.24121,-144.646,492
1569939926,401.166,-57.0384,-13.7294,178.352,2.24121,-144.646,492
1569939926,401.166,-57.15,-13.7294,178.352,2.24121,-144.646,488
1569939926,401.166,-57.15,-13.7294,178.33,2.24121,-144.646,488
1569939926,401.166,-57.15,-13.7294,178.33,2.26318,-144.646,488
1569939926,401.166,-57.15,-13.7294,178.33,2.26318,-144.646,488
1569939926,401.166,-57.15,-13.7294,178.33,2.26318,-144.646,484
1569939926,401.166,-57.15,-13.7294,178.33,2.26318,-144.646,484
1569939926,401.166,-57.15,-13.7294,178.33,2.26318,-144.646,484
1569939926,401.166,-57.15,-13.7294,178.33,2.26318,-144.646,484
1569939926,401.166,-57.15,-13.7294,178.33,2.26318,-144.646,484
1569939926,401.166,-57.15,-13.6178,178.33,2.26318,-144.646,484
1569939926,401.166,-57.15,-13.6178,178.33,2.28516,-144.646,484
1569939926,401.166,-57.15,-13.6178,178.33,2.28516,-144.646,484
1569939926,401.166,-57.15,-13.6178,178.33,2.28516,-144.646,484
1569939926,401.166,-57.15,-13.6178,178.33,2.28516,-144.646,484
1569939926,401.166,-57.15,-13.6178,178.33,2.28516,-144.646,484
1569939926,401.166,-57.15,-13.6178,178.33,2.28516,-144.646,488
1569939926,401.166,-57.15,-13.6178,178.33,2.28516,-144.646,488
1569939926,401.166,-57.15,-13.7294,178.33,2.28516,-144.646,488
1569939926,401.166,-57.0384,-13.7294,178.33,2.28516,-144.646,488
1569939926,401.166,-57.0384,-13.7294,178.33,2.28516,-144.646,488
1569939926,401.166,-57.0384,-13.7294,178.33,2.28516,-144.646,492
1569939926,401.166,-57.0384,-13.7294,178.33,2.26318,-144.646,492
1569939926,401.166,-57.0384,-13.7294,178.33,2.26318,-144.646,492
1569939926,401.166,-57.15,-13.7294,178.33,2.28516,-144.646,492
1569939927,401.166,-57.15,-13.7294,178.33,2.26318,-144.646,492
1569939927,401.166,-57.15,-13.7294,178.33,2.26318,-144.646,492
1569939927,401.166,-57.15,-13.7294,178.33,2.26318,-144.646,492
1569939927,401.166,-57.15,-13.7294,178.33,2.26318,-144.646,492
1569939927,401.166,-57.15,-13.7294,178.33,2.26318,-144.646,492
1569939927,401.166,-57.15,-13.7294,178.308,2.26318,-144.646,492
1569939927,401.166,-57.15,-13.7294,178.308,2.26318,-144.624,492
1569939927,401.166,-57.15,-13.7294,178.308,2.26318,-144.624,492
1569939927,401.166,-57.15,-13.7294,178.308,2.26318,-144.624,492
1569939927,401.166,-57.15,-13.7294,178.33,2.26318,-144.624,492
1569939927,401.166,-57.15,-13.7294,178.33,2.26318,-144.624,492
1569939927,401.166,-57.15,-13.7294,178.33,2.26318,-144.624,492
1569939927,401.166,-57.15,-13.7294,178.33,2.26318,-144.624,492
1569939927,401.166,-57.15,-13.7294,178.33,2.26318,-144.624,492
1569939927,401.166,-57.15,-13.7294,178.33,2.26318,-144.624,496
1569939927,401.166,-57.15,-13.7294,178.33,2.26318,-144.624,496
1569939927,401.166,-57.15,-13.7294,178.33,2.26318,-144.624,496
1569939927,401.166,-57.15,-13.7294,178.33,2.26318,-144.624,496
1569939927,401.166,-57.15,-13.841,178.33,2.26318,-144.624,496
1569939927,401.166,-57.15,-13.841,178.33,2.26318,-144.624,496
1569939927,401.166,-57.15,-13.841,178.33,2.24121,-144.624,500
1569939927,401.166,-57.15,-13.841,178.33,2.24121,-144.624,500
1569939927,401.166,-57.15,-13.841,178.33,2.24121,-144.624,500
1569939927,401.166,-57.15,-13.841,178.33,2.24121,-144.624,500
1569939927,401.166,-57.15,-13.841,178.33,2.24121,-144.624,500
1569939927,401.166,-57.15,-13.841,178.33,2.24121,-144.624,504
1569939927,401.166,-57.15,-13.841,178.33,2.24121,-144.624,504
1569939927,401.166,-57.15,-13.7294,178.33,2.26318,-144.624,504
1569939927,401.166,-57.0384,-13.7294,178.33,2.26318,-144.624,504
1569939927,401.166,-57.0384,-13.7294,178.352,2.26318,-144.624,508
1569939927,401.055,-57.0384,-13.7294,178.352,2.26318,-144.624,508
1569939927,401.055,-57.0384,-13.7294,178.352,2.26318,-144.624,508
1569939927,401.055,-57.0384,-13.7294,178.352,2.26318,-144.624,512
1569939927,401.055,-57.0384,-13.7294,178.352,2.26318,-144.624,512
1569939927,401.055,-57.0384,-13.7294,178.352,2.28516,-144.624,512
1569939927,401.055,-57.0384,-13.7294,178.374,2.28516,-144.624,512
1569939927,401.055,-57.0384,-13.7294,178.374,2.28516,-144.624,512
1569939927,401.055,-57.0384,-13.7294,178.374,2.28516,-144.624,516
1569939927,401.055,-57.0384,-13.7294,178.374,2.28516,-144.602,516
1569939927,401.055,-57.0384,-13.7294,178.352,2.28516,-144.602,516
1569939927,401.055,-57.0384,-13.7294,178.352,2.28516,-144.602,516
1569939927,401.055,-57.0384,-13.7294,178.352,2.26318,-144.624,516
1569939927,401.055,-57.0384,-13.7294,178.352,2.26318,-144.624,512
1569939927,401.055,-57.0384,-13.7294,178.352,2.26318,-144.624,512
1569939927,401.055,-57.0384,-13.7294,178.352,2.26318,-144.624,512
1569939927,401.055,-57.0384,-13.7294,178.352,2.26318,-144.624,512
1569939927,401.055,-57.0384,-13.7294,178.352,2.26318,-144.624,508
1569939927,401.055,-57.0384,-13.7294,178.33,2.26318,-144.624,508
1569939927,401.055,-57.0384,-13.7294,178.33,2.26318,-144.624,508
1569939927,401.055,-57.0384,-13.7294,178.33,2.26318,-144.624,504
1569939927,401.055,-57.0384,-13.7294,178.33,2.24121,-144.624,504
1569939927,401.055,-57.0384,-13.7294,178.33,2.24121,-144.624,504
1569939927,401.055,-57.0384,-13.7294,178.33,2.24121,-144.624,504
1569939927,401.055,-57.0384,-13.7294,178.33,2.24121,-144.624,504
1569939927,401.055,-57.0384,-13.7294,178.33,2.24121,-144.624,504
1569939927,401.055,-57.0384,-13.7294,178.33,2.24121,-144.624,504
1569939927,401.055,-57.0384,-13.841,178.33,2.24121,-144.624,508
1569939927,401.055,-57.0384,-13.841,178.33,2.24121,-144.624,508
1569939927,401.055,-57.0384,-13.841,178.33,2.24121,-144.646,508
1569939927,401.055,-57.0384,-13.841,178.33,2.24121,-144.646,508
1569939927,401.055,-57.0384,-13.841,178.33,2.24121,-144.624,508
1569939927,401.055,-57.0384,-13.841,178.33,2.24121,-144.624,504
1569939927,401.055,-57.15,-13.841,178.33,2.21924,-144.624,504
1569939927,401.055,-57.15,-13.841,178.33,2.21924,-144.624,504
1569939927,401.055,-57.15,-13.841,178.33,2.21924,-144.624,504
1569939927,401.055,-57.15,-13.841,178.33,2.21924,-144.624,500
1569939927,401.166,-57.15,-13.841,178.33,2.21924,-144.624,500
1569939927,401.166,-57.15,-13.841,178.33,2.21924,-144.624,500
1569939927,401.166,-57.15,-13.841,178.33,2.21924,-144.624,496
1569939927,401.166,-57.15,-13.841,178.33,2.21924,-144.646,496
1569939927,401.166,-57.15,-13.841,178.33,2.21924,-144.646,496
