time,x,y,z,ax,ay,az,q
1571222490,284.634,29.8028,-16.9664,179.143,1.16455,-145.525,544
1571222490,284.634,29.8028,-16.9664,179.143,1.16455,-145.525,544
1571222490,284.634,29.8028,-16.9664,179.143,1.16455,-145.525,544
1571222491,284.634,29.8028,-16.9664,179.143,1.16455,-145.525,548
1571222491,284.634,29.8028,-16.9664,179.143,1.16455,-145.525,548
1571222491,284.634,29.8028,-16.9664,179.143,1.16455,-145.525,548
1571222491,284.634,29.8028,-16.9664,179.143,1.16455,-145.503,548
1571222491,284.634,29.8028,-16.9664,179.143,1.16455,-145.503,548
1571222491,284.634,29.8028,-16.9664,179.143,1.16455,-145.503,548
1571222491,284.634,29.8028,-16.9664,179.143,1.16455,-145.503,548
1571222491,284.634,29.8028,-16.9664,179.143,1.16455,-145.503,548
1571222491,284.634,29.8028,-16.9664,179.143,1.16455,-145.503,548
1571222491,284.634,29.8028,-16.9664,179.143,1.16455,-145.503,548
1571222491,284.634,29.8028,-16.9664,179.143,1.16455,-145.503,548
1571222491,284.634,29.8028,-16.9664,179.143,1.16455,-145.503,548
1571222491,284.634,29.8028,-16.9664,179.143,1.16455,-145.503,548
1571222491,284.634,29.8028,-16.9664,179.143,1.16455,-145.503,548
1571222491,284.634,29.8028,-16.9664,179.143,1.16455,-145.503,548
1571222491,284.634,29.8028,-16.9664,179.143,1.16455,-145.503,548
1571222491,284.634,29.8028,-16.9664,179.143,1.16455,-145.503,548
1571222491,284.634,29.8028,-16.9664,179.143,1.16455,-145.503,548
1571222491,284.634,29.8028,-16.9664,179.143,1.16455,-145.503,548
1571222491,284.634,29.8028,-16.9664,179.143,1.16455,-145.503,548
1571222491,284.634,29.8028,-16.9664,179.143,1.16455,-145.503,548
1571222491,284.634,29.8028,-16.9664,179.143,1.16455,-145.503,548
1571222491,284.634,29.8028,-16.9664,179.143,1.16455,-145.503,548
1571222491,284.634,29.8028,-16.9664,179.143,1.16455,-145.503,548
1571222491,284.634,29.8028,-16.9664,179.143,1.16455,-145.503,548
1571222491,284.634,29.8028,-16.9664,179.143,1.16455,-145.503,548
1571222491,284.634,29.8028,-16.9664,179.143,1.16455,-145.503,548
1571222491,284.634,29.8028,-16.9664,179.143,1.16455,-145.503,548
1571222491,284.634,29.8028,-16.9664,179.143,1.16455,-145.503,548
1571222491,284.634,29.8028,-16.9664,179.143,1.16455,-145.503,548
1571222491,284.634,29.8028,-16.9664,179.143,1.16455,-145.503,548
1571222491,284.634,29.8028,-16.9664,179.143,1.16455,-145.503,548
1571222491,284.634,29.8028,-16.9664,179.143,1.16455,-145.503,548
1571222491,284.634,29.8028,-16.9664,179.143,1.16455,-145.503,548
1571222491,284.634,29.8028,-16.9664,179.143,1.14258,-145.503,548
1571222491,284.634,29.8028,-16.9664,179.143,1.14258,-145.503,544
1571222491,284.634,29.8028,-16.9664,179.143,1.14258,-145.503,544
1571222491,284.634,29.8028,-16.9664,179.143,1.14258,-145.503,544
1571222491,284.634,29.8028,-16.9664,179.143,1.14258,-145.503,544
1571222491,284.634,29.8028,-16.9664,179.143,1.14258,-145.503,544
1571222491,284.634,29.8028,-16.9664,179.143,1.14258,-145.503,544
1571222491,284.634,29.8028,-16.9664,179.143,1.14258,-145.503,544
1571222491,284.634,29.8028,-16.9664,179.143,1.14258,-145.503,544
1571222491,284.634,29.8028,-16.9664,179.143,1.14258,-145.503,544
1571222491,284.634,29.8028,-16.9664,179.143,1.14258,-145.503,544
1571222491,284.634,29.8028,-16.9664,179.143,1.16455,-145.503,540
1571222491,284.634,29.8028,-16.9664,179.143,1.16455,-145.503,540
1571222491,284.634,29.8028,-16.9664,179.143,1.16455,-145.503,540
1571222491,284.634,29.8028,-16.9664,179.143,1.16455,-145.503,540
1571222491,284.634,29.8028,-16.9664,179.143,1.16455,-145.503,540
1571222491,284.634,29.8028,-16.9664,179.143,1.16455,-145.503,540
1571222491,284.634,29.8028,-16.9664,179.143,1.16455,-145.503,540
1571222491,284.634,29.8028,-16.9664,179.143,1.16455,-145.503,540
1571222491,284.634,29.8028,-16.9664,179.143,1.16455,-145.503,540
1571222491,284.634,29.8028,-16.9664,179.143,1.16455,-145.503,540
1571222491,284.634,29.8028,-16.9664,179.143,1.16455,-145.503,536
1571222491,284.634,29.8028,-16.9664,179.143,1.16455,-145.503,536
1571222491,284.634,29.8028,-16.9664,179.143,1.16455,-145.503,536
1571222491,284.634,29.8028,-16.9664,179.143,1.16455,-145.503,536
1571222491,284.634,29.8028,-16.9664,179.143,1.16455,-145.503,536
1571222491,284.634,29.8028,-16.9664,179.143,1.16455,-145.503,536
1571222491,284.634,29.8028,-16.9664,179.143,1.16455,-145.503,536
1571222491,284.634,29.8028,-16.9664,179.143,1.16455,-145.503,536
1571222491,284.634,29.8028,-16.9664,179.143,1.16455,-145.503,536
1571222491,284.634,29.8028,-16.9664,179.143,1.16455,-145.503,536
1571222491,284.634,29.8028,-16.9664,179.143,1.16455,-145.503,532
1571222491,284.745,29.8028,-16.9664,179.143,1.16455,-145.503,532
1571222491,284.745,29.8028,-16.9664,179.143,1.16455,-145.503,532
1571222491,284.745,29.8028,-16.9664,179.143,1.16455,-145.503,532
1571222491,284.745,29.8028,-16.9664,179.143,1.16455,-145.503,532
1571222491,284.745,29.8028,-16.9664,179.143,1.14258,-145.503,532
1571222491,284.745,29.8028,-16.9664,179.143,1.14258,-145.503,532
1571222491,284.745,29.8028,-16.9664,179.143,1.14258,-145.503,532
1571222491,284.745,29.8028,-16.9664,179.143,1.14258,-145.503,532
1571222491,284.745,29.8028,-16.9664,179.143,1.14258,-145.503,532
1571222491,284.634,29.8028,-16.9664,179.143,1.14258,-145.503,532
1571222491,284.634,29.8028,-16.9664,179.143,1.14258,-145.503,532
1571222491,284.634,29.8028,-16.9664,179.143,1.14258,-145.503,532
1571222491,284.634,29.8028,-16.9664,179.143,1.14258,-145.503,532
1571222491,284.634,29.8028,-16.9664,179.143,1.14258,-145.503,532
1571222491,284.634,29.8028,-16.9664,179.143,1.14258,-145.503,532
1571222491,284.634,29.8028,-16.9664,179.143,1.14258,-145.503,532
1571222491,284.634,29.8028,-16.9664,179.165,1.14258,-145.503,532
1571222491,284.634,29.8028,-16.9664,179.165,1.16455,-145.503,532
1571222491,284.634,29.8028,-16.9664,179.165,1.16455,-145.503,532
1571222491,284.634,29.8028,-16.9664,179.165,1.16455,-145.503,536
1571222491,284.634,29.8028,-16.9664,179.165,1.16455,-145.503,536
1571222491,284.634,29.8028,-16.9664,179.165,1.16455,-145.503,536
1571222491,284.634,29.8028,-16.9664,179.165,1.16455,-145.503,536
1571222491,284.634,29.8028,-16.9664,179.165,1.16455,-145.503,536
1571222491,284.634,29.8028,-16.9664,179.165,1.16455,-145.503,536
1571222491,284.634,29.8028,-16.9664,179.165,1.16455,-145.503,540
1571222491,284.634,29.8028,-16.9664,179.165,1.16455,-145.503,540
1571222491,284.634,29.8028,-16.9664,179.165,1.16455,-145.503,540
1571222491,284.634,29.8028,-16.9664,179.165,1.16455,-145.503,540
1571222491,284.634,29.8028,-16.9664,179.165,1.16455,-145.503,540
1571222491,284.634,29.8028,-16.9664,179.165,1.16455,-145.503,540
1571222491,284.634,29.8028,-16.9664,179.165,1.16455,-145.503,540
1571222491,284.634,29.8028,-16.9664,179.165,1.16455,-145.503,540
1571222491,284.634,29.8028,-16.9664,179.165,1.16455,-145.503,540
1571222492,284.634,29.8028,-16.9664,179.165,1.16455,-145.503,540
1571222492,284.634,29.8028,-16.9664,179.165,1.16455,-145.503,540
1571222492,284.634,29.8028,-16.9664,179.165,1.16455,-145.503,540
1571222492,284.634,29.8028,-16.9664,179.165,1.16455,-145.503,540
1571222492,284.634,29.8028,-16.9664,179.165,1.16455,-145.503,540
1571222492,284.634,29.8028,-16.9664,179.165,1.16455,-145.503,540
1571222492,284.634,29.8028,-16.9664,179.165,1.16455,-145.503,540
1571222492,284.634,29.8028,-16.9664,179.165,1.16455,-145.503,540
1571222492,284.634,29.8028,-16.9664,179.165,1.16455,-145.503,540
1571222492,284.634,29.8028,-16.9664,179.165,1.16455,-145.503,540
1571222492,284.634,29.8028,-16.9664,179.165,1.16455,-145.503,540
1571222492,284.634,29.8028,-16.9664,179.165,1.16455,-145.503,540
1571222492,284.634,29.8028,-16.9664,179.165,1.16455,-145.503,540
1571222492,284.634,29.8028,-16.9664,179.165,1.16455,-145.503,540
1571222492,284.634,29.8028,-16.9664,179.165,1.16455,-145.503,540
1571222492,284.634,29.8028,-16.9664,179.165,1.16455,-145.503,540
1571222492,284.634,29.8028,-16.9664,179.165,1.16455,-145.503,540
1571222492,284.634,29.8028,-16.9664,179.165,1.16455,-145.503,540
1571222492,284.634,29.8028,-16.9664,179.165,1.16455,-145.503,540
1571222492,284.634,29.8028,-16.9664,179.143,1.16455,-145.503,540
1571222492,284.634,29.8028,-16.9664,179.143,1.16455,-145.503,540
1571222492,284.634,29.8028,-16.9664,179.143,1.16455,-145.503,540
1571222492,284.634,29.8028,-16.9664,179.143,1.16455,-145.503,540
1571222492,284.634,29.8028,-16.9664,179.143,1.16455,-145.503,540
1571222492,284.634,29.8028,-16.9664,179.143,1.16455,-145.503,540
1571222492,284.634,29.8028,-16.9664,179.143,1.16455,-145.503,540
1571222492,284.634,29.8028,-16.9664,179.143,1.16455,-145.503,540
1571222492,284.634,29.8028,-16.9664,179.143,1.16455,-145.503,540
1571222492,284.634,29.8028,-16.9664,179.143,1.16455,-145.503,540
1571222492,284.634,29.8028,-16.9664,179.143,1.16455,-145.503,540
1571222492,284.634,29.8028,-16.9664,179.143,1.16455,-145.503,540
1571222492,284.634,29.8028,-16.9664,179.143,1.16455,-145.503,540
1571222492,284.634,29.8028,-16.9664,179.143,1.16455,-145.503,540
1571222492,284.634,29.8028,-16.9664,179.143,1.16455,-145.503,540
1571222492,284.634,29.8028,-16.9664,179.143,1.16455,-145.525,540
1571222492,284.634,29.8028,-16.9664,179.143,1.16455,-145.525,536
1571222492,284.634,29.8028,-16.9664,179.143,1.16455,-145.525,536
1571222492,284.634,29.8028,-16.9664,179.143,1.16455,-145.525,536
1571222492,284.634,29.8028,-16.9664,179.143,1.16455,-145.525,536
1571222492,284.634,29.8028,-16.9664,179.143,1.16455,-145.525,536
1571222492,284.634,29.8028,-16.9664,179.143,1.16455,-145.525,536
1571222492,284.634,29.8028,-16.9664,179.143,1.16455,-145.525,536
1571222492,284.634,29.8028,-16.9664,179.143,1.16455,-145.525,536
1571222492,284.634,29.8028,-16.9664,179.143,1.16455,-145.525,536
1571222492,284.634,29.8028,-16.9664,179.143,1.16455,-145.525,536
1571222492,284.634,29.8028,-16.9664,179.143,1.16455,-145.503,536
1571222492,284.634,29.8028,-16.9664,179.143,1.16455,-145.503,536
1571222492,284.634,29.8028,-16.9664,179.143,1.16455,-145.503,536
1571222492,284.634,29.8028,-16.9664,179.143,1.16455,-145.503,536
1571222492,284.634,29.8028,-16.9664,179.143,1.16455,-145.503,536
1571222492,284.634,29.8028,-16.9664,179.143,1.16455,-145.503,536
1571222492,284.634,29.8028,-16.9664,179.143,1.16455,-145.503,536
1571222492,284.634,29.8028,-16.9664,179.143,1.16455,-145.503,536
1571222492,284.634,29.8028,-16.9664,179.143,1.16455,-145.503,536
1571222492,284.634,29.8028,-16.9664,179.143,1.16455,-145.503,536
1571222492,284.634,29.8028,-16.9664,179.143,1.16455,-145.503,540
1571222492,284.634,29.8028,-16.9664,179.143,1.16455,-145.503,540
1571222492,284.634,29.8028,-16.9664,179.143,1.16455,-145.503,540
1571222492,284.634,29.8028,-16.9664,179.143,1.16455,-145.503,540
1571222492,284.634,29.8028,-16.9664,179.143,1.16455,-145.503,540
1571222492,284.634,29.8028,-16.9664,179.143,1.16455,-145.503,540
1571222492,284.634,29.8028,-16.9664,179.143,1.16455,-145.503,540
1571222492,284.634,29.8028,-16.9664,179.143,1.16455,-145.503,540
1571222492,284.634,29.8028,-16.9664,179.143,1.16455,-145.503,540
1571222492,284.634,29.8028,-16.9664,179.143,1.16455,-145.503,540
1571222492,284.634,29.8028,-16.9664,179.143,1.16455,-145.503,540
1571222492,284.634,29.8028,-16.9664,179.143,1.16455,-145.503,540
1571222492,284.634,29.8028,-16.9664,179.143,1.16455,-145.503,540
1571222492,284.634,29.8028,-16.9664,179.143,1.16455,-145.503,540
1571222492,284.634,29.8028,-16.9664,179.143,1.16455,-145.503,540
1571222492,284.634,29.8028,-16.9664,179.143,1.16455,-145.503,540
1571222492,284.634,29.8028,-16.9664,179.143,1.16455,-145.503,540
1571222492,284.634,29.8028,-16.9664,179.143,1.16455,-145.503,540
1571222492,284.634,29.8028,-16.9664,179.143,1.16455,-145.503,540
1571222492,284.634,29.8028,-16.9664,179.143,1.16455,-145.503,540
1571222492,284.634,29.8028,-16.9664,179.143,1.16455,-145.503,540
1571222492,284.634,29.8028,-16.9664,179.143,1.16455,-145.503,540
1571222492,284.634,29.8028,-16.9664,179.143,1.16455,-145.503,540
1571222492,284.634,29.8028,-16.9664,179.143,1.16455,-145.503,540
1571222492,284.634,29.8028,-16.9664,179.143,1.16455,-145.503,540
1571222492,284.634,29.8028,-16.9664,179.143,1.16455,-145.525,540
1571222492,284.634,29.8028,-16.9664,179.143,1.14258,-145.525,540
1571222492,284.634,29.8028,-16.9664,179.143,1.14258,-145.525,540
1571222492,284.634,29.8028,-16.9664,179.143,1.14258,-145.525,540
1571222492,284.634,29.8028,-16.9664,179.143,1.14258,-145.525,540
1571222492,284.634,29.8028,-16.9664,179.143,1.14258,-145.525,544
1571222492,284.634,29.8028,-16.9664,179.143,1.14258,-145.525,544
1571222492,284.634,29.8028,-16.9664,179.143,1.14258,-145.525,544
1571222492,284.634,29.8028,-16.9664,179.143,1.14258,-145.525,544
1571222492,284.634,29.8028,-16.9664,179.143,1.14258,-145.525,544
1571222492,284.634,29.8028,-16.9664,179.143,1.14258,-145.525,544
1571222492,284.634,29.8028,-16.9664,179.143,1.14258,-145.525,544
1571222492,284.634,29.8028,-16.9664,179.143,1.14258,-145.525,544
1571222492,284.634,29.8028,-16.9664,179.143,1.14258,-145.525,544
1571222492,284.634,29.8028,-16.9664,179.143,1.14258,-145.525,544
1571222492,284.634,29.8028,-16.9664,179.143,1.14258,-145.525,544
1571222492,284.634,29.8028,-16.9664,179.143,1.14258,-145.525,544
1571222492,284.634,29.8028,-16.9664,179.143,1.14258,-145.525,544
1571222492,284.634,29.8028,-16.9664,179.143,1.14258,-145.525,544
1571222492,284.634,29.8028,-16.9664,179.143,1.14258,-145.525,544
1571222493,284.634,29.8028,-16.9664,179.143,1.14258,-145.525,544
1571222493,284.634,29.8028,-16.9664,179.143,1.14258,-145.525,544
1571222493,284.634,29.8028,-16.9664,179.143,1.14258,-145.525,544
1571222493,284.634,29.8028,-16.9664,179.143,1.14258,-145.525,544
1571222493,284.634,29.8028,-16.9664,179.143,1.14258,-145.525,544
1571222493,284.634,29.8028,-16.9664,179.143,1.16455,-145.525,544
1571222493,284.634,29.8028,-16.9664,179.143,1.16455,-145.525,544
1571222493,284.634,29.8028,-16.9664,179.143,1.16455,-145.525,544
1571222493,284.634,29.8028,-16.9664,179.143,1.16455,-145.525,544
1571222493,284.634,29.8028,-16.9664,179.143,1.16455,-145.525,544
1571222493,284.634,29.8028,-16.9664,179.143,1.16455,-145.525,544
1571222493,284.634,29.8028,-16.9664,179.143,1.16455,-145.525,544
1571222493,284.634,29.8028,-16.9664,179.143,1.16455,-145.525,544
1571222493,284.634,29.8028,-16.9664,179.143,1.16455,-145.525,544
1571222493,284.634,29.8028,-16.9664,179.143,1.16455,-145.525,544
1571222493,284.634,29.8028,-16.9664,179.143,1.16455,-145.525,544
1571222493,284.634,29.8028,-16.9664,179.143,1.16455,-145.525,544
1571222493,284.634,29.8028,-16.9664,179.143,1.16455,-145.525,544
1571222493,284.634,29.8028,-16.9664,179.143,1.16455,-145.525,544
1571222493,284.634,29.8028,-16.9664,179.143,1.16455,-145.525,544
1571222493,284.634,29.8028,-16.9664,179.143,1.16455,-145.525,544
1571222493,284.634,29.8028,-16.9664,179.143,1.16455,-145.525,544
1571222493,284.634,29.8028,-16.9664,179.143,1.16455,-145.525,544
1571222493,284.634,29.8028,-16.9664,179.143,1.16455,-145.525,544
1571222493,284.634,29.8028,-16.9664,179.143,1.16455,-145.525,544
1571222493,284.634,29.8028,-16.9664,179.143,1.16455,-145.525,544
1571222493,284.634,29.8028,-16.9664,179.143,1.16455,-145.503,544
1571222493,284.634,29.8028,-16.9664,179.143,1.16455,-145.503,544
1571222493,284.634,29.8028,-16.9664,179.143,1.16455,-145.503,544
1571222493,284.634,29.8028,-16.9664,179.143,1.16455,-145.503,544
1571222493,284.634,29.8028,-16.9664,179.143,1.16455,-145.503,544
1571222493,284.634,29.8028,-16.9664,179.143,1.16455,-145.503,544
1571222493,284.634,29.8028,-16.9664,179.143,1.16455,-145.503,544
1571222493,284.634,29.8028,-16.9664,179.143,1.16455,-145.503,544
1571222493,284.634,29.8028,-16.9664,179.143,1.16455,-145.503,544
1571222493,284.634,29.8028,-16.9664,179.143,1.16455,-145.503,544
1571222493,284.634,29.8028,-16.9664,179.143,1.16455,-145.503,544
1571222493,284.634,29.8028,-16.9664,179.143,1.16455,-145.503,544
1571222493,284.634,29.8028,-16.9664,179.143,1.16455,-145.503,544
1571222493,284.634,29.8028,-16.9664,179.143,1.16455,-145.503,544
1571222493,284.634,29.8028,-16.9664,179.143,1.16455,-145.525,544
1571222493,284.634,29.8028,-16.9664,179.143,1.16455,-145.503,544
1571222493,284.634,29.8028,-16.9664,179.143,1.16455,-145.503,544
1571222493,284.634,29.8028,-16.9664,179.143,1.16455,-145.503,544
1571222493,284.634,29.8028,-16.9664,179.143,1.16455,-145.503,544
1571222493,284.634,29.8028,-16.9664,179.143,1.16455,-145.503,544
1571222493,284.634,29.8028,-16.9664,179.143,1.16455,-145.503,544
1571222493,284.634,29.8028,-16.9664,179.143,1.16455,-145.503,544
1571222493,284.634,29.8028,-16.9664,179.143,1.16455,-145.503,544
1571222493,284.634,29.8028,-16.9664,179.143,1.16455,-145.503,544
1571222493,284.634,29.8028,-16.9664,179.143,1.16455,-145.503,544
1571222493,284.634,29.8028,-16.9664,179.143,1.16455,-145.503,544
1571222493,284.634,29.8028,-16.9664,179.143,1.16455,-145.503,544
1571222493,284.634,29.8028,-16.9664,179.143,1.16455,-145.503,544
1571222493,284.634,29.8028,-16.9664,179.143,1.16455,-145.503,544
1571222493,284.634,29.8028,-16.9664,179.143,1.16455,-145.503,544
1571222493,284.634,29.8028,-16.9664,179.143,1.16455,-145.503,544
1571222493,284.634,29.8028,-16.9664,179.143,1.14258,-145.503,540
1571222493,284.634,29.8028,-16.9664,179.143,1.14258,-145.503,540
1571222493,284.634,29.8028,-16.9664,179.143,1.14258,-145.503,540
1571222493,284.634,29.8028,-16.9664,179.143,1.14258,-145.503,540
1571222493,284.634,29.8028,-16.9664,179.143,1.14258,-145.503,540
1571222493,284.634,29.8028,-16.9664,179.143,1.14258,-145.503,540
1571222493,284.634,29.8028,-16.9664,179.143,1.14258,-145.503,540
1571222493,284.634,29.8028,-16.9664,179.143,1.14258,-145.503,540
1571222493,284.634,29.8028,-16.9664,179.143,1.14258,-145.503,540
1571222493,284.634,29.8028,-16.9664,179.143,1.14258,-145.503,540
1571222493,284.634,29.8028,-16.9664,179.143,1.14258,-145.503,540
1571222493,284.634,29.8028,-16.9664,179.143,1.14258,-145.503,540
1571222493,284.634,29.8028,-16.9664,179.143,1.16455,-145.503,540
1571222493,284.634,29.8028,-16.9664,179.143,1.16455,-145.503,540
1571222493,284.634,29.8028,-16.9664,179.143,1.16455,-145.503,540
1571222493,284.634,29.8028,-16.9664,179.143,1.16455,-145.503,540
1571222493,284.634,29.8028,-16.9664,179.143,1.16455,-145.503,540
1571222493,284.634,29.8028,-16.9664,179.143,1.16455,-145.503,540
1571222493,284.745,29.8028,-16.9664,179.143,1.16455,-145.503,540
1571222493,284.745,29.8028,-16.9664,179.143,1.16455,-145.503,540
1571222493,284.745,29.8028,-16.9664,179.143,1.16455,-145.503,540
1571222493,284.745,29.8028,-16.9664,179.143,1.16455,-145.503,540
1571222493,284.745,29.8028,-16.9664,179.143,1.16455,-145.503,540
1571222493,284.745,29.8028,-16.9664,179.143,1.16455,-145.503,540
1571222493,284.745,29.8028,-16.9664,179.143,1.16455,-145.503,540
1571222493,284.745,29.8028,-16.9664,179.143,1.16455,-145.503,540
1571222493,284.745,29.8028,-16.9664,179.143,1.14258,-145.503,540
1571222493,284.745,29.8028,-16.9664,179.143,1.14258,-145.503,536
1571222493,284.634,29.8028,-16.9664,179.143,1.14258,-145.503,536
1571222493,284.634,29.8028,-16.9664,179.143,1.14258,-145.503,536
1571222493,284.634,29.8028,-16.9664,179.143,1.14258,-145.503,536
1571222493,284.634,29.8028,-16.9664,179.143,1.14258,-145.503,536
1571222493,284.634,29.8028,-16.9664,179.143,1.14258,-145.503,536
1571222493,284.634,29.8028,-16.9664,179.143,1.14258,-145.503,536
1571222493,284.634,29.8028,-16.9664,179.143,1.14258,-145.503,536
1571222493,284.634,29.8028,-16.9664,179.143,1.14258,-145.503,536
1571222493,284.634,29.8028,-16.9664,179.143,1.14258,-145.503,536
1571222493,284.634,29.8028,-16.9664,179.143,1.14258,-145.503,536
1571222493,284.634,29.8028,-16.9664,179.143,1.14258,-145.503,536
1571222493,284.634,29.8028,-16.9664,179.143,1.14258,-145.503,536
1571222493,284.634,29.8028,-16.9664,179.143,1.14258,-145.503,536
1571222493,284.634,29.8028,-16.9664,179.143,1.14258,-145.503,536
1571222493,284.634,29.8028,-16.9664,179.143,1.14258,-145.503,536
1571222494,284.634,29.8028,-16.9664,179.143,1.14258,-145.503,536
1571222494,284.634,29.8028,-16.9664,179.143,1.14258,-145.503,536
1571222494,284.634,29.8028,-16.9664,179.143,1.14258,-145.503,536
1571222494,284.634,29.8028,-16.9664,179.143,1.14258,-145.503,536
1571222494,284.634,29.8028,-16.9664,179.143,1.14258,-145.503,536
1571222494,284.634,29.8028,-16.9664,179.143,1.16455,-145.503,536
1571222494,284.634,29.8028,-16.9664,179.143,1.16455,-145.503,540
1571222494,284.634,29.8028,-16.9664,179.143,1.16455,-145.503,540
1571222494,284.634,29.8028,-16.9664,179.143,1.16455,-145.503,540
1571222494,284.634,29.8028,-16.9664,179.143,1.16455,-145.503,540
1571222494,284.634,29.8028,-16.9664,179.143,1.16455,-145.503,540
1571222494,284.634,29.8028,-16.9664,179.143,1.16455,-145.503,540
1571222494,284.634,29.8028,-16.9664,179.143,1.16455,-145.503,540
1571222494,284.634,29.8028,-16.9664,179.143,1.16455,-145.503,540
1571222494,284.634,29.8028,-16.9664,179.143,1.14258,-145.503,540
1571222494,284.634,29.8028,-16.9664,179.143,1.14258,-145.503,540
1571222494,284.634,29.8028,-16.9664,179.143,1.14258,-145.503,536
1571222494,284.634,29.8028,-16.9664,179.143,1.14258,-145.503,536
1571222494,284.634,29.8028,-16.9664,179.143,1.14258,-145.503,536
1571222494,284.634,29.8028,-16.9664,179.143,1.14258,-145.503,536
1571222494,284.634,29.8028,-16.9664,179.143,1.14258,-145.503,536
1571222494,284.634,29.8028,-16.9664,179.143,1.14258,-145.503,536
1571222494,284.634,29.8028,-16.9664,179.143,1.14258,-145.503,536
1571222494,284.634,29.8028,-16.9664,179.143,1.14258,-145.503,536
1571222494,284.634,29.8028,-16.9664,179.143,1.16455,-145.503,536
1571222494,284.634,29.8028,-16.9664,179.143,1.16455,-145.503,536
1571222494,284.634,29.8028,-16.9664,179.143,1.16455,-145.503,536
1571222494,284.634,29.8028,-16.9664,179.143,1.14258,-145.503,536
1571222494,284.634,29.8028,-16.9664,179.143,1.16455,-145.503,536
1571222494,284.634,29.8028,-16.9664,179.143,1.14258,-145.503,536
1571222494,284.634,29.8028,-16.9664,179.143,1.14258,-145.503,536
1571222494,284.634,29.8028,-16.9664,179.143,1.14258,-145.503,540
1571222494,284.634,29.8028,-16.9664,179.143,1.14258,-145.503,540
1571222494,284.634,29.8028,-16.9664,179.143,1.14258,-145.503,540
1571222494,284.634,29.8028,-16.9664,179.143,1.14258,-145.503,540
1571222494,284.634,29.8028,-16.9664,179.143,1.14258,-145.503,540
1571222494,284.634,29.8028,-16.9664,179.143,1.14258,-145.503,540
1571222494,284.634,29.8028,-16.9664,179.165,1.14258,-145.503,540
1571222494,284.634,29.8028,-16.9664,179.165,1.14258,-145.503,540
1571222494,284.634,29.8028,-16.9664,179.165,1.14258,-145.503,540
1571222494,284.634,29.8028,-16.9664,179.165,1.14258,-145.503,540
1571222494,284.634,29.8028,-16.9664,179.143,1.14258,-145.503,540
1571222494,284.634,29.8028,-16.9664,179.143,1.14258,-145.503,540
1571222494,284.634,29.8028,-16.9664,179.143,1.14258,-145.503,540
1571222494,284.634,29.8028,-16.9664,179.143,1.14258,-145.503,540
1571222494,284.634,29.8028,-16.9664,179.143,1.14258,-145.503,540
1571222494,284.634,29.8028,-16.9664,179.143,1.14258,-145.503,540
1571222494,284.634,29.8028,-16.9664,179.143,1.14258,-145.503,540
1571222494,284.634,29.8028,-16.9664,179.143,1.14258,-145.503,540
1571222494,284.634,29.8028,-16.9664,179.143,1.14258,-145.503,540
1571222494,284.634,29.8028,-16.9664,179.143,1.14258,-145.503,540
1571222494,284.634,29.8028,-16.9664,179.143,1.14258,-145.503,540
1571222494,284.634,29.8028,-16.9664,179.143,1.14258,-145.503,540
1571222494,284.634,29.8028,-16.9664,179.143,1.14258,-145.503,536
1571222494,284.634,29.8028,-16.9664,179.143,1.14258,-145.503,536
1571222494,284.634,29.8028,-16.9664,179.143,1.14258,-145.503,536
1571222494,284.634,29.8028,-16.9664,179.143,1.14258,-145.503,536
1571222494,284.634,29.8028,-16.9664,179.143,1.14258,-145.503,536
1571222494,284.634,29.8028,-16.9664,179.143,1.14258,-145.503,536
1571222494,284.634,29.8028,-16.9664,179.143,1.14258,-145.503,536
1571222494,284.634,29.8028,-16.9664,179.143,1.14258,-145.503,536
1571222494,284.634,29.8028,-16.9664,179.143,1.14258,-145.503,536
1571222494,284.634,29.8028,-16.9664,179.143,1.14258,-145.503,536
1571222494,284.634,29.8028,-16.9664,179.143,1.14258,-145.503,536
1571222494,284.634,29.8028,-17.078,179.143,1.14258,-145.503,536
1571222494,284.634,29.8028,-17.078,179.143,1.14258,-145.503,536
1571222494,284.634,29.8028,-17.078,179.143,1.14258,-145.503,536
1571222494,284.634,29.8028,-17.078,179.121,1.14258,-145.503,536
1571222494,284.634,29.8028,-17.078,179.121,1.14258,-145.525,536
1571222494,284.634,29.8028,-17.078,179.121,1.14258,-145.525,536
1571222494,284.634,29.8028,-17.078,179.121,1.14258,-145.525,536
1571222494,284.634,29.8028,-17.078,179.143,1.14258,-145.525,536
1571222494,284.634,29.8028,-17.078,179.143,1.14258,-145.525,536
1571222494,284.634,29.8028,-17.078,179.143,1.14258,-145.525,536
1571222494,284.634,29.8028,-17.078,179.143,1.14258,-145.525,536
1571222494,284.634,29.8028,-17.078,179.143,1.14258,-145.525,536
1571222494,284.634,29.8028,-17.078,179.143,1.14258,-145.525,536
1571222494,284.634,29.8028,-17.078,179.143,1.14258,-145.525,536
1571222494,284.634,29.8028,-17.078,179.143,1.14258,-145.525,536
1571222494,284.634,29.8028,-16.9664,179.143,1.14258,-145.525,536
1571222494,284.634,29.8028,-16.9664,179.143,1.14258,-145.525,536
1571222494,284.634,29.8028,-16.9664,179.143,1.14258,-145.525,536
1571222494,284.634,29.8028,-16.9664,179.143,1.14258,-145.525,536
1571222494,284.634,29.8028,-16.9664,179.143,1.14258,-145.525,536
1571222494,284.634,29.8028,-16.9664,179.143,1.14258,-145.525,536
1571222494,284.634,29.8028,-16.9664,179.143,1.14258,-145.525,536
1571222494,284.634,29.8028,-16.9664,179.143,1.14258,-145.525,536
1571222494,284.634,29.8028,-16.9664,179.143,1.14258,-145.525,536
1571222494,284.634,29.8028,-16.9664,179.143,1.14258,-145.525,536
1571222494,284.634,29.8028,-16.9664,179.143,1.14258,-145.525,536
1571222494,284.634,29.8028,-16.9664,179.143,1.14258,-145.525,536
1571222494,284.634,29.8028,-16.9664,179.143,1.14258,-145.525,536
1571222494,284.634,29.8028,-16.9664,179.143,1.14258,-145.525,536
1571222494,284.634,29.8028,-16.9664,179.143,1.14258,-145.525,536
1571222494,284.634,29.8028,-16.9664,179.143,1.14258,-145.525,536
1571222494,284.634,29.8028,-16.9664,179.143,1.14258,-145.525,536
1571222494,284.634,29.8028,-16.9664,179.143,1.14258,-145.525,536
1571222494,284.634,29.8028,-16.9664,179.143,1.14258,-145.525,536
1571222494,284.634,29.8028,-16.9664,179.143,1.14258,-145.525,536
1571222494,284.634,29.8028,-16.9664,179.143,1.14258,-145.525,536
1571222495,284.634,29.8028,-16.9664,179.143,1.14258,-145.525,536
1571222495,284.634,29.8028,-16.9664,179.143,1.14258,-145.525,536
1571222495,284.634,29.8028,-16.9664,179.121,1.14258,-145.525,536
1571222495,284.634,29.8028,-16.9664,179.121,1.14258,-145.525,536
1571222495,284.634,29.8028,-16.9664,179.143,1.14258,-145.525,536
1571222495,284.634,29.8028,-16.9664,179.143,1.14258,-145.525,536
1571222495,284.634,29.8028,-16.9664,179.143,1.14258,-145.525,536
1571222495,284.634,29.8028,-16.9664,179.143,1.16455,-145.525,536
1571222495,284.634,29.8028,-16.9664,179.143,1.16455,-145.525,536
1571222495,284.634,29.8028,-16.9664,179.143,1.14258,-145.525,540
1571222495,284.634,29.8028,-16.9664,179.143,1.14258,-145.525,540
1571222495,284.634,29.8028,-16.9664,179.143,1.14258,-145.525,540
1571222495,284.634,29.8028,-16.9664,179.143,1.14258,-145.525,540
1571222495,284.634,29.8028,-16.9664,179.143,1.14258,-145.525,540
1571222495,284.634,29.8028,-16.9664,179.143,1.14258,-145.525,540
1571222495,284.634,29.8028,-16.9664,179.143,1.14258,-145.525,540
1571222495,284.634,29.8028,-16.9664,179.143,1.14258,-145.525,540
1571222495,284.634,29.8028,-16.9664,179.143,1.14258,-145.525,540
1571222495,284.634,29.8028,-16.9664,179.143,1.14258,-145.525,540
1571222495,284.634,29.8028,-16.9664,179.143,1.14258,-145.525,540
1571222495,284.634,29.8028,-16.9664,179.143,1.14258,-145.525,540
1571222495,284.634,29.8028,-16.9664,179.143,1.14258,-145.525,540
1571222495,284.634,29.8028,-16.9664,179.143,1.14258,-145.525,540
1571222495,284.634,29.8028,-16.9664,179.143,1.14258,-145.525,540
1571222495,284.634,29.8028,-16.9664,179.143,1.14258,-145.525,540
1571222495,284.634,29.8028,-16.9664,179.143,1.14258,-145.525,540
1571222495,284.634,29.8028,-16.9664,179.143,1.14258,-145.525,540
1571222495,284.634,29.8028,-16.9664,179.143,1.14258,-145.525,540
1571222495,284.634,29.8028,-16.9664,179.143,1.14258,-145.525,540
1571222495,284.634,29.8028,-16.9664,179.143,1.14258,-145.525,540
1571222495,284.634,29.8028,-16.9664,179.143,1.14258,-145.525,540
1571222495,284.634,29.8028,-16.9664,179.143,1.14258,-145.525,540
1571222495,284.634,29.8028,-16.9664,179.143,1.14258,-145.525,540
1571222495,284.634,29.8028,-16.9664,179.143,1.14258,-145.525,540
1571222495,284.634,29.8028,-16.9664,179.143,1.14258,-145.525,540
1571222495,284.634,29.8028,-16.9664,179.143,1.14258,-145.525,540
1571222495,284.634,29.8028,-16.9664,179.143,1.14258,-145.525,540
1571222495,284.634,29.8028,-16.9664,179.143,1.14258,-145.525,540
1571222495,284.634,29.8028,-16.9664,179.143,1.14258,-145.525,540
1571222495,284.634,29.8028,-16.9664,179.143,1.14258,-145.525,540
1571222495,284.634,29.8028,-16.9664,179.143,1.14258,-145.525,540
1571222495,284.634,29.8028,-16.9664,179.143,1.14258,-145.503,540
1571222495,284.634,29.8028,-16.9664,179.143,1.14258,-145.503,540
1571222495,284.634,29.8028,-16.9664,179.143,1.14258,-145.503,540
1571222495,284.634,29.8028,-16.9664,179.143,1.16455,-145.503,540
1571222495,284.634,29.8028,-16.9664,179.143,1.16455,-145.503,540
1571222495,284.634,29.8028,-16.9664,179.143,1.16455,-145.503,540
1571222495,284.634,29.8028,-16.9664,179.143,1.16455,-145.503,540
1571222495,284.634,29.8028,-16.9664,179.143,1.16455,-145.503,540
1571222495,284.634,29.8028,-16.9664,179.143,1.16455,-145.503,540
1571222495,284.634,29.8028,-16.9664,179.143,1.16455,-145.503,540
1571222495,284.634,29.8028,-16.9664,179.143,1.16455,-145.503,540
1571222495,284.634,29.8028,-16.9664,179.143,1.16455,-145.503,540
1571222495,284.634,29.8028,-16.9664,179.143,1.16455,-145.503,540
1571222495,284.634,29.8028,-16.9664,179.143,1.16455,-145.503,540
1571222495,284.634,29.8028,-16.9664,179.143,1.16455,-145.503,540
1571222495,284.634,29.8028,-16.9664,179.143,1.16455,-145.503,540
1571222495,284.634,29.8028,-16.9664,179.143,1.16455,-145.503,540
1571222495,284.634,29.8028,-16.9664,179.143,1.16455,-145.503,540
1571222495,284.634,29.8028,-16.9664,179.143,1.16455,-145.503,540
1571222495,284.634,29.8028,-16.9664,179.143,1.16455,-145.503,540
1571222495,284.634,29.8028,-16.9664,179.143,1.16455,-145.503,540
1571222495,284.634,29.8028,-16.9664,179.143,1.14258,-145.503,540
1571222495,284.634,29.8028,-16.9664,179.143,1.14258,-145.503,540
1571222495,284.634,29.8028,-16.9664,179.143,1.14258,-145.503,540
1571222495,284.634,29.8028,-16.9664,179.143,1.14258,-145.503,540
1571222495,284.634,29.8028,-16.9664,179.143,1.14258,-145.503,540
1571222495,284.634,29.8028,-16.9664,179.143,1.14258,-145.503,540
1571222495,284.634,29.8028,-16.9664,179.143,1.14258,-145.503,540
1571222495,284.634,29.8028,-16.9664,179.143,1.14258,-145.503,540
1571222495,284.634,29.8028,-16.9664,179.143,1.16455,-145.503,540
1571222495,284.634,29.8028,-16.9664,179.143,1.16455,-145.503,540
1571222495,284.634,29.8028,-16.9664,179.143,1.16455,-145.503,540
1571222495,284.634,29.8028,-16.9664,179.143,1.16455,-145.503,540
1571222495,284.634,29.8028,-16.9664,179.143,1.16455,-145.503,536
1571222495,284.634,29.8028,-16.9664,179.143,1.16455,-145.503,536
1571222495,284.634,29.8028,-16.9664,179.143,1.16455,-145.503,536
1571222495,284.634,29.8028,-16.9664,179.143,1.16455,-145.503,536
1571222495,284.634,29.8028,-16.9664,179.143,1.16455,-145.503,536
1571222495,284.634,29.8028,-16.9664,179.143,1.16455,-145.503,536
1571222495,284.634,29.8028,-16.9664,179.143,1.16455,-145.503,536
1571222495,284.634,29.8028,-16.9664,179.143,1.16455,-145.503,536
1571222495,284.634,29.8028,-16.9664,179.143,1.16455,-145.503,536
1571222495,284.634,29.8028,-16.9664,179.143,1.16455,-145.503,540
1571222495,284.634,29.8028,-16.9664,179.143,1.16455,-145.503,540
1571222495,284.634,29.8028,-16.9664,179.143,1.16455,-145.503,540
1571222495,284.634,29.8028,-16.9664,179.143,1.16455,-145.503,540
1571222495,284.634,29.8028,-16.9664,179.143,1.16455,-145.503,540
1571222495,284.634,29.8028,-16.9664,179.143,1.16455,-145.503,540
1571222495,284.634,29.8028,-16.9664,179.143,1.16455,-145.503,540
1571222495,284.634,29.8028,-16.9664,179.143,1.16455,-145.503,540
1571222495,284.634,29.8028,-16.9664,179.143,1.16455,-145.503,540
1571222495,284.634,29.8028,-16.9664,179.143,1.16455,-145.503,540
1571222495,284.634,29.8028,-16.9664,179.143,1.16455,-145.503,540
1571222495,284.634,29.8028,-16.9664,179.143,1.16455,-145.525,540
1571222495,284.634,29.8028,-16.9664,179.143,1.16455,-145.503,540
1571222495,284.634,29.8028,-16.9664,179.143,1.16455,-145.503,540
1571222499,299.926,13.5062,-17.078,179.209,1.01074,-145.371,588
1571222499,299.926,13.5062,-17.078,179.209,1.01074,-145.371,588
1571222499,299.926,13.5062,-17.078,179.209,1.01074,-145.371,588
1571222499,299.926,13.5062,-17.078,179.209,1.01074,-145.371,588
1571222499,299.926,13.5062,-17.078,179.209,1.01074,-145.371,588
1571222499,299.926,13.5062,-17.078,179.209,1.01074,-145.371,592
1571222499,299.926,13.5062,-17.078,179.231,1.01074,-145.371,592
1571222499,299.926,13.5062,-17.078,179.231,1.01074,-145.371,592
1571222499,299.926,13.5062,-17.078,179.231,1.01074,-145.371,592
1571222499,299.926,13.5062,-17.078,179.231,1.01074,-145.371,592
1571222499,299.926,13.5062,-17.078,179.231,1.01074,-145.371,592
1571222499,299.926,13.5062,-17.078,179.231,1.01074,-145.371,592
1571222499,299.926,13.5062,-17.078,179.231,1.01074,-145.371,592
1571222499,299.926,13.5062,-17.078,179.231,1.01074,-145.371,592
1571222499,299.926,13.5062,-17.078,179.231,1.03271,-145.371,592
1571222499,299.926,13.5062,-17.078,179.231,1.03271,-145.371,592
1571222499,299.926,13.5062,-17.078,179.231,1.03271,-145.371,592
1571222499,299.926,13.5062,-17.078,179.231,1.03271,-145.371,592
1571222499,299.926,13.5062,-17.078,179.231,1.03271,-145.371,592
1571222499,299.926,13.5062,-17.078,179.231,1.03271,-145.371,592
1571222499,299.926,13.5062,-17.078,179.209,1.03271,-145.371,592
1571222499,299.926,13.5062,-17.078,179.209,1.03271,-145.371,592
1571222499,299.926,13.5062,-16.9664,179.209,1.03271,-145.371,592
1571222499,299.926,13.5062,-16.9664,179.231,1.03271,-145.371,592
1571222499,299.926,13.5062,-16.9664,179.231,1.03271,-145.371,592
1571222499,299.926,13.5062,-16.9664,179.231,1.03271,-145.371,592
1571222499,299.926,13.5062,-16.9664,179.231,1.03271,-145.371,592
1571222499,299.926,13.5062,-16.9664,179.231,1.03271,-145.371,592
1571222499,299.926,13.5062,-16.9664,179.231,1.03271,-145.371,592
1571222499,299.926,13.5062,-17.078,179.231,1.03271,-145.371,592
1571222499,299.926,13.5062,-17.078,179.231,1.03271,-145.371,592
1571222499,299.926,13.5062,-17.078,179.231,1.03271,-145.371,592
1571222500,299.926,13.5062,-17.078,179.231,1.03271,-145.371,592
1571222500,299.926,13.5062,-17.078,179.231,1.03271,-145.371,592
1571222500,299.926,13.5062,-17.078,179.231,1.03271,-145.371,592
1571222500,299.926,13.5062,-17.078,179.231,1.01074,-145.371,592
1571222500,299.926,13.5062,-17.078,179.231,1.01074,-145.371,592
1571222500,299.926,13.5062,-17.078,179.231,1.01074,-145.371,592
1571222500,299.926,13.5062,-17.078,179.231,1.03271,-145.371,592
1571222500,299.926,13.5062,-17.078,179.231,1.03271,-145.371,592
1571222500,299.926,13.5062,-17.078,179.231,1.03271,-145.371,596
1571222500,299.926,13.5062,-17.078,179.231,1.03271,-145.371,596
1571222500,299.926,13.5062,-17.078,179.209,1.03271,-145.371,596
1571222500,299.926,13.5062,-17.078,179.209,1.03271,-145.371,596
1571222500,299.926,13.5062,-17.078,179.209,1.03271,-145.371,596
1571222500,299.926,13.5062,-16.9664,179.209,1.03271,-145.371,596
1571222500,299.926,13.5062,-16.9664,179.209,1.03271,-145.371,596
1571222500,299.926,13.5062,-16.9664,179.231,1.03271,-145.371,596
1571222500,299.926,13.5062,-16.9664,179.209,1.03271,-145.371,596
1571222500,299.926,13.5062,-16.9664,179.209,1.03271,-145.371,596
1571222500,299.926,13.5062,-16.9664,179.209,1.03271,-145.371,596
1571222500,299.926,13.5062,-16.9664,179.209,1.03271,-145.371,596
1571222500,299.926,13.5062,-16.9664,179.209,1.03271,-145.371,596
1571222500,299.926,13.5062,-16.9664,179.209,1.03271,-145.371,596
1571222500,299.926,13.5062,-16.9664,179.209,1.03271,-145.371,596
1571222500,299.926,13.5062,-16.9664,179.209,1.03271,-145.371,596
1571222500,299.926,13.5062,-16.9664,179.209,1.03271,-145.371,596
1571222500,299.926,13.5062,-16.9664,179.209,1.03271,-145.371,596
1571222500,299.926,13.5062,-16.9664,179.209,1.03271,-145.371,596
1571222500,299.926,13.5062,-16.9664,179.209,1.03271,-145.371,596
1571222500,299.926,13.5062,-16.9664,179.209,1.03271,-145.371,596
1571222500,299.926,13.5062,-16.9664,179.209,1.03271,-145.371,596
1571222500,299.926,13.5062,-16.9664,179.209,1.03271,-145.371,596
1571222500,299.926,13.5062,-16.9664,179.209,1.03271,-145.371,596
1571222500,299.926,13.5062,-16.9664,179.209,1.03271,-145.371,596
1571222500,299.926,13.5062,-16.9664,179.209,1.03271,-145.371,596
1571222500,299.926,13.5062,-16.9664,179.231,1.03271,-145.371,596
1571222500,299.926,13.5062,-16.9664,179.231,1.03271,-145.371,596
1571222500,299.926,13.5062,-16.9664,179.231,1.03271,-145.371,596
1571222500,299.926,13.5062,-16.9664,179.231,1.03271,-145.371,596
1571222500,299.926,13.5062,-17.078,179.231,1.03271,-145.371,596
1571222500,299.926,13.5062,-17.078,179.231,1.03271,-145.393,596
1571222500,299.926,13.5062,-17.078,179.231,1.03271,-145.393,592
1571222500,299.926,13.5062,-17.078,179.231,1.03271,-145.393,592
1571222500,299.926,13.5062,-17.078,179.231,1.03271,-145.393,592
1571222500,299.926,13.5062,-17.078,179.231,1.03271,-145.393,592
1571222500,299.926,13.5062,-17.078,179.231,1.03271,-145.393,592
1571222500,299.926,13.5062,-17.078,179.231,1.01074,-145.393,592
1571222500,299.926,13.5062,-17.078,179.231,1.01074,-145.393,592
1571222500,299.926,13.5062,-17.078,179.231,1.01074,-145.371,592
1571222500,299.926,13.5062,-17.078,179.231,1.01074,-145.371,592
1571222500,299.926,13.5062,-17.078,179.231,1.03271,-145.371,592
1571222500,299.926,13.5062,-17.078,179.231,1.03271,-145.371,592
1571222500,299.926,13.5062,-17.078,179.231,1.03271,-145.371,592
1571222500,299.926,13.5062,-17.078,179.231,1.03271,-145.371,592
1571222500,299.926,13.5062,-17.078,179.231,1.03271,-145.371,592
1571222500,299.926,13.5062,-17.078,179.231,1.03271,-145.371,592
1571222500,299.926,13.5062,-17.078,179.231,1.03271,-145.371,592
1571222500,299.926,13.5062,-17.078,179.231,1.03271,-145.371,592
1571222500,299.926,13.5062,-17.078,179.231,1.03271,-145.371,592
1571222500,299.926,13.5062,-17.078,179.231,1.03271,-145.371,592
1571222500,299.926,13.5062,-17.078,179.231,1.03271,-145.371,592
1571222500,299.926,13.5062,-16.9664,179.231,1.03271,-145.371,592
1571222500,299.926,13.5062,-16.9664,179.231,1.03271,-145.371,592
1571222500,299.926,13.5062,-16.9664,179.231,1.03271,-145.371,592
1571222500,299.926,13.5062,-16.9664,179.231,1.03271,-145.371,592
1571222500,299.926,13.5062,-16.9664,179.231,1.03271,-145.371,588
1571222500,299.926,13.5062,-16.9664,179.231,1.03271,-145.371,588
1571222500,299.926,13.5062,-16.9664,179.231,1.03271,-145.371,588
1571222500,299.926,13.5062,-17.078,179.209,1.03271,-145.371,588
1571222500,299.926,13.5062,-17.078,179.209,1.03271,-145.371,588
1571222500,299.926,13.5062,-17.078,179.209,1.03271,-145.371,588
1571222500,299.926,13.5062,-17.078,179.209,1.03271,-145.371,588
1571222500,299.926,13.5062,-17.078,179.209,1.03271,-145.371,588
1571222500,299.926,13.5062,-17.078,179.209,1.03271,-145.371,588
1571222500,299.926,13.5062,-17.078,179.209,1.03271,-145.371,588
1571222500,299.926,13.5062,-17.078,179.209,1.03271,-145.371,588
1571222500,299.926,13.5062,-17.078,179.209,1.03271,-145.371,584
1571222500,299.926,13.5062,-17.078,179.209,1.03271,-145.371,584
1571222500,299.926,13.5062,-17.078,179.209,1.03271,-145.371,584
1571222500,299.926,13.5062,-17.078,179.231,1.03271,-145.371,584
1571222500,299.926,13.5062,-17.078,179.231,1.03271,-145.371,584
1571222500,299.926,13.5062,-17.078,179.231,1.03271,-145.371,584
1571222500,299.926,13.5062,-17.078,179.231,1.03271,-145.371,584
1571222500,299.926,13.5062,-17.078,179.231,1.03271,-145.393,584
1571222500,299.926,13.5062,-16.9664,179.231,1.03271,-145.393,584
1571222500,299.926,13.5062,-16.9664,179.231,1.03271,-145.393,584
1571222500,299.926,13.5062,-16.9664,179.231,1.03271,-145.393,584
1571222500,299.926,13.5062,-16.9664,179.231,1.03271,-145.371,584
1571222500,299.926,13.5062,-16.9664,179.231,1.03271,-145.371,584
1571222500,299.926,13.5062,-16.9664,179.231,1.03271,-145.371,584
1571222500,299.926,13.5062,-16.9664,179.231,1.03271,-145.371,584
1571222500,299.926,13.5062,-16.9664,179.231,1.03271,-145.371,584
1571222500,299.926,13.5062,-16.9664,179.231,1.03271,-145.371,584
1571222500,299.926,13.5062,-16.9664,179.231,1.03271,-145.371,584
1571222500,299.926,13.5062,-16.9664,179.231,1.03271,-145.371,588
1571222500,299.926,13.5062,-16.9664,179.231,1.03271,-145.371,588
1571222500,299.926,13.5062,-16.9664,179.231,1.03271,-145.371,588
1571222500,299.926,13.5062,-16.9664,179.231,1.03271,-145.371,588
1571222500,299.926,13.5062,-16.9664,179.231,1.03271,-145.371,588
1571222500,299.926,13.5062,-16.9664,179.231,1.03271,-145.371,588
1571222500,299.926,13.5062,-16.9664,179.231,1.03271,-145.371,588
1571222501,299.926,13.5062,-16.9664,179.231,1.03271,-145.371,588
1571222501,299.926,13.5062,-16.9664,179.231,1.03271,-145.371,588
1571222501,299.926,13.5062,-16.9664,179.231,1.03271,-145.371,588
1571222501,299.926,13.5062,-16.9664,179.231,1.03271,-145.371,588
1571222501,299.926,13.5062,-16.9664,179.231,1.03271,-145.371,588
1571222501,299.926,13.5062,-16.9664,179.231,1.03271,-145.371,588
1571222501,299.926,13.5062,-16.9664,179.231,1.03271,-145.371,588
1571222501,299.926,13.5062,-16.9664,179.231,1.03271,-145.371,588
1571222501,299.926,13.5062,-16.9664,179.231,1.03271,-145.371,588
1571222501,299.926,13.5062,-16.9664,179.231,1.03271,-145.371,588
1571222501,299.926,13.5062,-16.9664,179.231,1.03271,-145.371,588
1571222501,299.926,13.5062,-16.9664,179.231,1.03271,-145.371,588
1571222501,299.926,13.5062,-16.9664,179.231,1.03271,-145.371,588
1571222501,299.926,13.5062,-16.9664,179.231,1.03271,-145.371,588
1571222501,299.926,13.5062,-16.9664,179.231,1.03271,-145.371,588
1571222501,299.926,13.5062,-16.9664,179.231,1.03271,-145.371,588
1571222501,299.926,13.5062,-16.9664,179.231,1.03271,-145.371,588
1571222501,299.926,13.5062,-16.9664,179.231,1.03271,-145.371,588
1571222501,299.926,13.5062,-16.9664,179.231,1.03271,-145.371,588
1571222501,299.926,13.5062,-17.078,179.231,1.03271,-145.371,588
1571222501,299.926,13.5062,-17.078,179.231,1.03271,-145.371,588
1571222501,299.926,13.5062,-17.078,179.231,1.03271,-145.371,588
1571222501,299.926,13.5062,-17.078,179.231,1.03271,-145.371,584
1571222501,299.926,13.5062,-17.078,179.231,1.03271,-145.371,584
1571222501,299.926,13.5062,-17.078,179.231,1.03271,-145.371,584
1571222501,299.926,13.5062,-17.078,179.231,1.03271,-145.371,584
1571222501,299.926,13.5062,-17.078,179.231,1.03271,-145.371,584
1571222501,299.926,13.5062,-17.078,179.231,1.03271,-145.371,584
1571222501,299.926,13.5062,-17.078,179.231,1.03271,-145.371,584
1571222501,299.926,13.5062,-16.9664,179.231,1.03271,-145.371,584
1571222501,299.926,13.5062,-16.9664,179.209,1.03271,-145.371,584
1571222501,299.926,13.5062,-16.9664,179.231,1.03271,-145.371,584
1571222501,299.926,13.5062,-16.9664,179.231,1.03271,-145.371,584
1571222501,299.926,13.5062,-16.9664,179.231,1.03271,-145.371,588
1571222501,299.926,13.5062,-16.9664,179.231,1.03271,-145.371,588
1571222501,299.926,13.5062,-16.9664,179.231,1.03271,-145.371,588
1571222501,299.926,13.5062,-16.9664,179.231,1.03271,-145.371,588
1571222501,299.926,13.5062,-16.9664,179.231,1.03271,-145.371,588
1571222501,299.926,13.5062,-16.9664,179.231,1.03271,-145.371,588
1571222501,299.926,13.5062,-16.9664,179.231,1.03271,-145.371,588
1571222501,299.926,13.5062,-16.9664,179.231,1.03271,-145.371,588
1571222501,299.926,13.5062,-16.9664,179.231,1.03271,-145.371,588
1571222501,299.926,13.5062,-16.9664,179.231,1.03271,-145.371,588
1571222501,299.926,13.5062,-16.9664,179.231,1.03271,-145.371,588
1571222501,299.926,13.5062,-16.9664,179.231,1.03271,-145.371,588
1571222501,299.926,13.5062,-16.9664,179.209,1.03271,-145.371,588
1571222501,299.926,13.5062,-16.9664,179.209,1.03271,-145.371,588
1571222501,299.926,13.5062,-16.9664,179.209,1.03271,-145.371,588
1571222501,299.926,13.5062,-16.9664,179.209,1.03271,-145.371,588
1571222501,299.926,13.5062,-16.9664,179.209,1.03271,-145.371,588
1571222501,299.926,13.5062,-16.9664,179.209,1.03271,-145.371,588
1571222501,299.926,13.5062,-16.9664,179.209,1.03271,-145.371,588
1571222501,299.926,13.5062,-16.9664,179.209,1.03271,-145.371,588
1571222501,299.926,13.5062,-16.9664,179.209,1.03271,-145.371,588
1571222501,299.926,13.5062,-16.9664,179.209,1.03271,-145.371,588
1571222501,299.926,13.5062,-16.9664,179.209,1.03271,-145.371,588
1571222501,299.926,13.5062,-16.9664,179.209,1.03271,-145.371,588
1571222501,299.926,13.5062,-16.9664,179.209,1.03271,-145.371,588
1571222501,299.926,13.5062,-16.9664,179.209,1.03271,-145.371,588
1571222501,299.926,13.5062,-16.9664,179.209,1.03271,-145.371,588
1571222501,299.926,13.5062,-16.9664,179.209,1.03271,-145.371,584
1571222501,299.926,13.5062,-16.9664,179.209,1.03271,-145.371,584
1571222501,299.926,13.5062,-16.9664,179.209,1.03271,-145.371,584
1571222501,299.926,13.5062,-16.9664,179.209,1.03271,-145.371,584
1571222501,299.926,13.5062,-16.9664,179.209,1.03271,-145.371,584
1571222501,299.926,13.5062,-16.9664,179.209,1.03271,-145.371,584
1571222501,299.926,13.5062,-16.9664,179.209,1.03271,-145.371,584
1571222501,299.926,13.5062,-16.9664,179.209,1.03271,-145.371,584
1571222501,299.926,13.5062,-16.9664,179.209,1.03271,-145.371,584
1571222501,299.926,13.5062,-16.9664,179.209,1.03271,-145.371,584
1571222501,299.926,13.5062,-16.9664,179.209,1.03271,-145.371,584
1571222501,299.926,13.5062,-16.9664,179.209,1.03271,-145.371,584
1571222501,299.926,13.5062,-16.9664,179.209,1.03271,-145.371,584
1571222501,299.926,13.5062,-16.9664,179.209,1.03271,-145.371,584
1571222501,299.926,13.5062,-16.9664,179.209,1.03271,-145.371,584
1571222501,299.926,13.5062,-16.9664,179.209,1.03271,-145.371,584
1571222501,299.926,13.5062,-16.9664,179.209,1.03271,-145.371,584
1571222501,299.926,13.5062,-16.9664,179.209,1.03271,-145.371,584
1571222501,299.926,13.5062,-16.9664,179.209,1.03271,-145.371,584
1571222501,299.926,13.5062,-16.9664,179.209,1.03271,-145.371,584
1571222501,299.926,13.5062,-16.9664,179.209,1.03271,-145.371,584
1571222501,299.926,13.5062,-16.9664,179.209,1.03271,-145.371,584
1571222501,299.926,13.5062,-16.9664,179.209,1.03271,-145.371,584
1571222501,299.926,13.5062,-16.9664,179.209,1.03271,-145.371,584
1571222501,299.926,13.5062,-16.9664,179.209,1.03271,-145.371,584
1571222501,299.926,13.5062,-16.9664,179.209,1.03271,-145.371,584
1571222501,299.926,13.5062,-16.9664,179.231,1.03271,-145.371,584
1571222501,299.926,13.5062,-16.9664,179.231,1.03271,-145.371,588
1571222501,299.926,13.5062,-16.9664,179.209,1.03271,-145.371,588
1571222501,299.926,13.5062,-17.078,179.209,1.03271,-145.371,588
1571222501,299.926,13.5062,-17.078,179.209,1.03271,-145.371,588
1571222501,299.926,13.5062,-17.078,179.209,1.03271,-145.371,584
1571222501,299.926,13.5062,-17.078,179.209,1.03271,-145.371,584
1571222501,299.926,13.5062,-17.078,179.209,1.03271,-145.371,584
1571222501,299.926,13.5062,-17.078,179.209,1.03271,-145.371,584
1571222501,299.926,13.5062,-17.078,179.209,1.03271,-145.371,584
1571222501,299.926,13.5062,-17.078,179.209,1.03271,-145.371,584
1571222501,299.926,13.5062,-17.078,179.231,1.03271,-145.371,584
1571222501,299.926,13.5062,-17.078,179.231,1.03271,-145.371,584
1571222501,299.926,13.5062,-17.078,179.231,1.03271,-145.371,584
1571222502,299.926,13.5062,-17.078,179.231,1.03271,-145.371,584
1571222502,299.926,13.5062,-17.078,179.231,1.03271,-145.371,584
1571222502,299.926,13.5062,-17.078,179.231,1.03271,-145.371,584
1571222502,299.926,13.5062,-17.078,179.231,1.03271,-145.371,584
1571222502,299.926,13.5062,-17.078,179.231,1.03271,-145.371,584
1571222502,299.926,13.5062,-17.078,179.231,1.01074,-145.371,584
1571222502,299.926,13.5062,-17.078,179.231,1.01074,-145.371,584
1571222502,299.926,13.5062,-17.078,179.231,1.01074,-145.371,584
1571222502,299.926,13.5062,-17.078,179.231,1.01074,-145.371,584
1571222502,299.926,13.5062,-17.078,179.231,1.01074,-145.371,584
1571222502,299.926,13.5062,-17.078,179.231,1.01074,-145.371,584
1571222502,299.926,13.5062,-17.078,179.231,1.01074,-145.371,588
1571222502,299.926,13.5062,-17.078,179.231,1.01074,-145.371,588
1571222502,299.926,13.5062,-17.078,179.231,1.01074,-145.371,588
1571222502,299.926,13.5062,-17.078,179.231,1.03271,-145.371,588
1571222502,299.926,13.5062,-17.078,179.231,1.03271,-145.371,588
1571222502,299.926,13.5062,-16.9664,179.231,1.03271,-145.371,588
1571222502,299.926,13.5062,-16.9664,179.231,1.03271,-145.371,592
1571222502,299.814,13.5062,-16.9664,179.209,1.03271,-145.371,592
1571222502,299.926,13.5062,-16.9664,179.209,1.03271,-145.371,592
1571222502,299.926,13.5062,-16.9664,179.209,1.03271,-145.371,592
1571222502,299.926,13.5062,-16.9664,179.209,1.03271,-145.371,592
1571222502,299.926,13.5062,-16.9664,179.209,1.03271,-145.371,592
1571222502,299.926,13.5062,-16.9664,179.209,1.03271,-145.371,592
1571222502,299.926,13.5062,-16.9664,179.209,1.03271,-145.371,592
1571222502,299.926,13.5062,-17.078,179.209,1.03271,-145.371,592
1571222502,299.926,13.5062,-17.078,179.231,1.03271,-145.371,592
1571222502,299.926,13.5062,-17.078,179.231,1.01074,-145.371,592
1571222502,299.926,13.5062,-17.078,179.231,1.01074,-145.371,592
1571222502,299.926,13.5062,-17.078,179.231,1.01074,-145.371,592
1571222502,299.926,13.5062,-17.078,179.231,1.01074,-145.371,592
1571222502,299.926,13.5062,-17.078,179.231,1.01074,-145.371,592
1571222502,299.926,13.5062,-17.078,179.231,1.01074,-145.371,592
1571222502,299.926,13.5062,-17.078,179.231,1.01074,-145.371,592
1571222502,299.926,13.5062,-17.078,179.231,1.01074,-145.349,592
1571222502,299.926,13.5062,-17.078,179.231,1.01074,-145.349,592
1571222502,299.926,13.5062,-17.078,179.231,1.01074,-145.349,592
1571222502,299.926,13.5062,-17.078,179.231,1.01074,-145.349,592
1571222502,299.926,13.5062,-17.078,179.231,1.01074,-145.349,592
1571222502,299.926,13.5062,-17.078,179.231,1.01074,-145.349,592
1571222502,299.926,13.5062,-17.078,179.231,1.01074,-145.349,592
1571222502,299.926,13.5062,-17.078,179.231,1.01074,-145.349,592
1571222502,299.926,13.5062,-17.078,179.231,1.01074,-145.349,592
1571222502,299.926,13.5062,-17.078,179.231,1.01074,-145.349,592
1571222502,299.926,13.5062,-17.078,179.231,1.01074,-145.349,592
1571222502,299.926,13.5062,-17.078,179.231,1.01074,-145.349,592
1571222502,299.926,13.5062,-17.078,179.231,1.01074,-145.371,588
1571222502,299.926,13.5062,-17.078,179.231,1.01074,-145.371,588
1571222502,299.926,13.5062,-17.078,179.231,1.01074,-145.371,588
1571222502,299.926,13.5062,-17.078,179.231,1.01074,-145.371,588
1571222502,299.926,13.5062,-17.078,179.231,1.01074,-145.371,588
1571222502,299.926,13.5062,-17.078,179.231,1.01074,-145.371,588
1571222502,299.926,13.5062,-17.078,179.231,1.01074,-145.371,588
1571222502,299.926,13.5062,-17.078,179.231,1.01074,-145.371,588
1571222502,299.926,13.5062,-17.078,179.231,1.01074,-145.371,588
1571222502,299.926,13.5062,-17.078,179.231,1.01074,-145.371,588
1571222502,299.926,13.5062,-17.078,179.231,1.01074,-145.371,588
1571222502,299.926,13.5062,-17.078,179.231,1.01074,-145.371,588
1571222502,299.926,13.5062,-17.078,179.231,1.01074,-145.371,588
1571222502,299.926,13.5062,-17.078,179.231,1.01074,-145.371,592
1571222502,299.926,13.5062,-17.078,179.231,1.01074,-145.371,592
1571222502,299.926,13.5062,-17.078,179.231,1.01074,-145.371,592
1571222502,299.926,13.5062,-17.078,179.231,1.01074,-145.371,592
1571222502,299.926,13.5062,-17.078,179.231,1.01074,-145.371,592
1571222502,299.926,13.5062,-17.078,179.231,1.01074,-145.371,592
1571222502,299.926,13.5062,-17.078,179.231,1.01074,-145.371,592
1571222502,299.926,13.5062,-17.078,179.231,1.01074,-145.371,592
1571222502,299.926,13.5062,-17.078,179.231,1.01074,-145.371,592
1571222502,299.926,13.5062,-17.078,179.231,1.01074,-145.371,592
1571222502,299.926,13.5062,-17.078,179.231,1.01074,-145.371,592
1571222502,299.926,13.5062,-16.9664,179.231,1.01074,-145.371,592
1571222502,299.926,13.5062,-16.9664,179.231,1.01074,-145.371,592
1571222502,299.926,13.5062,-16.9664,179.231,1.03271,-145.371,592
1571222502,299.926,13.5062,-16.9664,179.231,1.03271,-145.371,592
1571222502,299.926,13.5062,-16.9664,179.231,1.03271,-145.371,592
1571222502,299.926,13.5062,-16.9664,179.231,1.03271,-145.371,592
1571222502,299.926,13.5062,-16.9664,179.231,1.03271,-145.371,592
1571222502,299.926,13.5062,-16.9664,179.231,1.03271,-145.371,592
1571222502,299.926,13.5062,-16.9664,179.231,1.03271,-145.371,592
1571222502,299.926,13.5062,-16.9664,179.231,1.03271,-145.371,592
1571222502,299.926,13.5062,-16.9664,179.231,1.03271,-145.371,592
1571222502,299.926,13.5062,-16.9664,179.231,1.03271,-145.371,592
1571222502,299.926,13.5062,-16.9664,179.231,1.03271,-145.371,592
1571222502,299.926,13.5062,-16.9664,179.231,1.03271,-145.371,592
1571222502,299.926,13.5062,-16.9664,179.231,1.03271,-145.371,592
1571222502,299.926,13.5062,-16.9664,179.231,1.03271,-145.371,592
1571222502,299.926,13.5062,-16.9664,179.231,1.03271,-145.371,592
1571222502,299.926,13.5062,-16.9664,179.231,1.03271,-145.371,592
1571222502,299.926,13.5062,-16.9664,179.231,1.03271,-145.371,596
1571222502,299.926,13.5062,-16.9664,179.231,1.03271,-145.371,596
1571222502,299.926,13.5062,-17.078,179.231,1.03271,-145.371,596
1571222502,299.926,13.5062,-17.078,179.231,1.03271,-145.371,596
1571222502,299.926,13.5062,-17.078,179.231,1.03271,-145.371,596
1571222502,299.926,13.5062,-17.078,179.231,1.03271,-145.371,596
1571222502,299.926,13.5062,-17.078,179.231,1.03271,-145.371,596
1571222502,299.926,13.5062,-17.078,179.231,1.03271,-145.371,596
1571222502,299.926,13.5062,-17.078,179.231,1.03271,-145.371,596
1571222502,299.926,13.5062,-17.078,179.231,1.03271,-145.371,596
1571222502,299.926,13.5062,-17.078,179.231,1.03271,-145.371,596
1571222502,299.926,13.5062,-17.078,179.231,1.03271,-145.371,596
1571222503,299.926,13.5062,-17.078,179.231,1.03271,-145.371,596
1571222503,299.926,13.5062,-17.078,179.231,1.03271,-145.371,596
1571222503,299.926,13.5062,-17.078,179.231,1.03271,-145.371,596
1571222503,299.926,13.5062,-17.078,179.231,1.03271,-145.371,596
1571222503,299.926,13.5062,-17.078,179.231,1.03271,-145.371,596
1571222503,299.926,13.5062,-17.078,179.231,1.03271,-145.371,600
1571222503,299.926,13.5062,-17.078,179.231,1.03271,-145.371,600
1571222503,299.926,13.5062,-17.078,179.231,1.03271,-145.371,600
1571222503,299.926,13.5062,-17.078,179.231,1.03271,-145.371,600
1571222503,299.926,13.5062,-17.078,179.231,1.03271,-145.371,600
1571222503,299.926,13.5062,-17.078,179.231,1.03271,-145.371,600
1571222503,299.926,13.5062,-17.078,179.231,1.03271,-145.371,600
1571222503,299.926,13.5062,-17.078,179.231,1.03271,-145.371,600
1571222503,299.926,13.5062,-17.078,179.231,1.03271,-145.371,600
1571222503,299.926,13.5062,-17.078,179.231,1.03271,-145.371,600
1571222503,299.926,13.5062,-17.078,179.231,1.03271,-145.371,600
1571222503,299.926,13.5062,-17.078,179.231,1.03271,-145.371,600
1571222503,299.926,13.5062,-17.078,179.231,1.03271,-145.371,600
1571222503,299.926,13.5062,-17.078,179.231,1.03271,-145.371,600
1571222503,299.926,13.5062,-17.078,179.231,1.03271,-145.371,596
1571222503,299.926,13.5062,-17.078,179.231,1.03271,-145.371,596
1571222503,299.926,13.5062,-17.078,179.231,1.03271,-145.371,596
1571222503,299.926,13.5062,-17.078,179.209,1.03271,-145.371,596
1571222503,299.926,13.5062,-17.078,179.209,1.03271,-145.371,596
1571222503,299.926,13.5062,-17.078,179.209,1.03271,-145.371,596
1571222503,299.926,13.5062,-17.078,179.209,1.03271,-145.371,596
1571222503,299.926,13.5062,-17.078,179.209,1.03271,-145.371,596
1571222503,299.926,13.5062,-17.078,179.209,1.03271,-145.371,596
1571222503,299.926,13.5062,-17.078,179.209,1.03271,-145.371,592
1571222503,299.926,13.5062,-17.078,179.209,1.03271,-145.371,592
1571222503,299.926,13.5062,-17.078,179.209,1.03271,-145.371,592
1571222503,299.926,13.5062,-17.078,179.209,1.03271,-145.371,592
1571222503,299.926,13.5062,-17.078,179.209,1.03271,-145.371,592
1571222503,299.926,13.5062,-17.078,179.209,1.03271,-145.371,592
1571222503,299.926,13.5062,-17.078,179.209,1.03271,-145.371,592
1571222503,299.926,13.5062,-17.078,179.209,1.01074,-145.371,592
1571222503,299.926,13.5062,-17.078,179.209,1.01074,-145.393,592
1571222503,299.926,13.5062,-17.078,179.209,1.01074,-145.393,592
1571222503,299.926,13.5062,-17.078,179.209,1.01074,-145.393,592
1571222503,299.926,13.5062,-17.078,179.209,1.01074,-145.393,592
1571222503,299.926,13.5062,-17.078,179.209,1.01074,-145.393,592
1571222503,299.926,13.5062,-17.078,179.209,1.01074,-145.393,592
1571222503,299.926,13.5062,-17.078,179.209,1.01074,-145.371,592
1571222503,299.926,13.5062,-17.078,179.209,1.01074,-145.371,592
1571222503,299.926,13.5062,-17.078,179.209,1.01074,-145.371,592
1571222503,299.926,13.5062,-17.078,179.209,1.01074,-145.371,592
1571222503,299.926,13.5062,-17.078,179.209,1.01074,-145.371,592
1571222503,299.926,13.5062,-17.078,179.209,1.01074,-145.371,592
1571222503,299.926,13.5062,-17.078,179.209,1.01074,-145.371,592
1571222503,299.926,13.5062,-17.078,179.209,1.01074,-145.371,592
1571222503,299.926,13.5062,-17.078,179.209,1.01074,-145.371,592
1571222503,299.926,13.5062,-17.078,179.209,1.01074,-145.393,592
1571222503,299.926,13.5062,-17.078,179.209,1.01074,-145.393,592
1571222503,299.926,13.5062,-17.078,179.209,1.01074,-145.393,592
1571222503,299.926,13.5062,-17.078,179.209,1.01074,-145.393,592
1571222503,299.926,13.5062,-17.078,179.209,1.01074,-145.393,592
1571222503,299.926,13.5062,-17.078,179.209,1.01074,-145.393,592
1571222503,299.926,13.5062,-17.078,179.209,1.01074,-145.393,592
1571222503,299.926,13.5062,-17.078,179.209,1.01074,-145.393,592
1571222503,299.926,13.5062,-17.078,179.209,1.01074,-145.371,592
1571222503,299.926,13.5062,-17.078,179.209,1.01074,-145.371,592
1571222503,299.926,13.5062,-17.078,179.209,1.01074,-145.371,592
1571222503,299.926,13.5062,-17.078,179.209,1.01074,-145.371,592
1571222503,299.926,13.5062,-17.078,179.209,1.01074,-145.371,592
1571222503,299.926,13.5062,-17.078,179.209,1.01074,-145.371,592
1571222503,299.926,13.5062,-17.078,179.209,1.01074,-145.371,592
1571222503,299.926,13.5062,-17.078,179.209,1.01074,-145.371,592
1571222503,299.926,13.5062,-17.078,179.209,1.01074,-145.371,592
1571222503,299.926,13.5062,-17.078,179.209,1.01074,-145.371,592
1571222503,299.926,13.5062,-17.078,179.209,1.01074,-145.371,592
1571222503,299.926,13.5062,-17.078,179.209,1.01074,-145.371,592
1571222503,299.926,13.5062,-17.078,179.209,1.01074,-145.371,592
1571222503,299.926,13.5062,-17.078,179.209,1.03271,-145.371,592
1571222503,299.926,13.5062,-17.078,179.209,1.03271,-145.371,592
1571222503,299.926,13.5062,-17.078,179.209,1.03271,-145.371,592
1571222503,299.926,13.5062,-17.078,179.209,1.03271,-145.371,592
1571222503,299.926,13.5062,-17.078,179.209,1.03271,-145.371,592
1571222503,299.926,13.5062,-17.078,179.209,1.03271,-145.371,592
1571222503,299.926,13.5062,-17.078,179.209,1.03271,-145.371,592
1571222503,299.926,13.5062,-17.078,179.209,1.03271,-145.371,592
1571222503,299.926,13.5062,-17.078,179.209,1.03271,-145.371,592
1571222503,299.926,13.5062,-17.078,179.209,1.03271,-145.371,592
1571222503,299.926,13.5062,-17.078,179.209,1.03271,-145.371,592
1571222503,299.926,13.5062,-17.078,179.209,1.03271,-145.371,592
1571222503,299.926,13.5062,-17.078,179.209,1.03271,-145.371,592
1571222503,299.926,13.5062,-17.078,179.209,1.03271,-145.371,592
1571222503,299.926,13.5062,-17.078,179.209,1.03271,-145.371,592
1571222503,299.926,13.5062,-17.078,179.209,1.03271,-145.371,592
1571222503,299.926,13.5062,-16.9664,179.209,1.03271,-145.371,592
1571222503,299.926,13.5062,-16.9664,179.209,1.03271,-145.371,592
1571222503,299.926,13.5062,-16.9664,179.209,1.03271,-145.371,592
1571222503,299.926,13.5062,-16.9664,179.209,1.03271,-145.371,592
1571222503,299.926,13.5062,-16.9664,179.209,1.03271,-145.371,592
1571222503,299.926,13.5062,-16.9664,179.209,1.03271,-145.371,592
1571222503,299.926,13.5062,-16.9664,179.209,1.03271,-145.371,592
1571222503,299.926,13.5062,-16.9664,179.231,1.03271,-145.371,592
1571222503,299.926,13.5062,-16.9664,179.231,1.03271,-145.371,592
1571222503,299.926,13.5062,-16.9664,179.209,1.03271,-145.371,592
1571222503,299.926,13.5062,-16.9664,179.209,1.03271,-145.371,592
1571222503,299.926,13.5062,-16.9664,179.209,1.03271,-145.371,592
1571222504,299.926,13.5062,-16.9664,179.209,1.03271,-145.371,592
1571222504,299.926,13.5062,-16.9664,179.209,1.03271,-145.371,592
1571222504,299.926,13.5062,-16.9664,179.209,1.03271,-145.371,592
1571222504,299.926,13.5062,-16.9664,179.209,1.03271,-145.371,592
1571222504,299.926,13.5062,-16.9664,179.209,1.03271,-145.371,592
1571222504,299.926,13.5062,-16.9664,179.209,1.03271,-145.371,592
1571222504,299.926,13.5062,-16.9664,179.209,1.03271,-145.371,592
1571222504,299.926,13.5062,-16.9664,179.209,1.03271,-145.371,592
1571222504,299.926,13.5062,-16.9664,179.209,1.03271,-145.371,592
1571222504,299.926,13.5062,-16.9664,179.209,1.03271,-145.371,592
1571222504,299.926,13.5062,-16.9664,179.209,1.03271,-145.371,596
1571222504,299.926,13.5062,-16.9664,179.209,1.03271,-145.371,596
1571222504,299.926,13.5062,-16.9664,179.209,1.03271,-145.371,596
1571222504,299.926,13.5062,-16.9664,179.209,1.03271,-145.371,596
1571222504,299.926,13.5062,-16.9664,179.209,1.03271,-145.371,596
1571222504,299.926,13.5062,-16.9664,179.209,1.03271,-145.371,596
1571222504,299.926,13.5062,-16.9664,179.209,1.03271,-145.371,600
1571222504,299.926,13.5062,-16.9664,179.209,1.03271,-145.371,600
1571222504,299.926,13.5062,-16.9664,179.231,1.03271,-145.371,600
1571222504,299.926,13.5062,-16.9664,179.231,1.03271,-145.371,600
1571222504,299.926,13.5062,-16.9664,179.231,1.03271,-145.371,600
1571222504,299.926,13.5062,-16.9664,179.231,1.03271,-145.371,600
1571222504,299.926,13.5062,-16.9664,179.231,1.03271,-145.371,600
1571222504,299.926,13.5062,-16.9664,179.231,1.03271,-145.371,600
1571222504,299.926,13.5062,-16.9664,179.231,1.03271,-145.371,600
1571222504,299.926,13.5062,-17.078,179.231,1.03271,-145.371,600
1571222504,299.926,13.5062,-17.078,179.231,1.03271,-145.371,600
1571222504,299.926,13.5062,-17.078,179.231,1.03271,-145.371,600
1571222504,299.926,13.5062,-17.078,179.231,1.03271,-145.371,600
1571222504,299.926,13.5062,-16.9664,179.209,1.03271,-145.371,600
1571222504,299.926,13.5062,-16.9664,179.209,1.03271,-145.371,596
1571222504,299.926,13.5062,-16.9664,179.209,1.03271,-145.371,596
1571222504,299.926,13.5062,-16.9664,179.209,1.03271,-145.371,596
1571222504,299.926,13.5062,-16.9664,179.209,1.03271,-145.371,596
1571222504,299.926,13.5062,-16.9664,179.231,1.03271,-145.371,596
1571222504,299.926,13.5062,-16.9664,179.209,1.03271,-145.371,596
1571222504,299.926,13.5062,-16.9664,179.231,1.03271,-145.371,596
1571222504,299.926,13.5062,-16.9664,179.231,1.03271,-145.371,596
1571222504,299.926,13.5062,-16.9664,179.231,1.03271,-145.371,596
1571222504,299.926,13.5062,-16.9664,179.231,1.03271,-145.371,596
1571222504,299.926,13.5062,-16.9664,179.231,1.03271,-145.371,596
1571222504,299.926,13.5062,-16.9664,179.231,1.03271,-145.371,596
1571222504,299.926,13.5062,-16.9664,179.231,1.03271,-145.371,596
1571222504,299.926,13.5062,-16.9664,179.231,1.03271,-145.371,596
1571222504,299.926,13.5062,-16.9664,179.231,1.03271,-145.371,596
1571222504,299.926,13.5062,-16.9664,179.209,1.03271,-145.371,596
1571222504,299.926,13.5062,-16.9664,179.209,1.03271,-145.371,596
1571222504,299.926,13.5062,-16.9664,179.209,1.03271,-145.371,592
1571222504,299.926,13.5062,-16.9664,179.209,1.03271,-145.371,592
1571222504,299.926,13.5062,-16.9664,179.209,1.03271,-145.371,592
1571222504,299.926,13.5062,-16.9664,179.209,1.03271,-145.371,592
1571222504,299.926,13.5062,-16.9664,179.209,1.03271,-145.371,592
1571222504,299.926,13.5062,-16.9664,179.209,1.03271,-145.371,592
1571222504,299.926,13.5062,-16.9664,179.209,1.03271,-145.371,592
1571222504,299.926,13.5062,-16.9664,179.209,1.03271,-145.371,592
1571222504,299.926,13.5062,-16.9664,179.209,1.03271,-145.371,592
1571222504,299.926,13.5062,-16.9664,179.209,1.03271,-145.371,592
1571222504,299.926,13.5062,-16.9664,179.209,1.03271,-145.371,592
1571222504,299.926,13.5062,-16.9664,179.209,1.03271,-145.371,592
1571222504,299.926,13.5062,-16.9664,179.209,1.03271,-145.371,592
1571222504,299.926,13.5062,-16.9664,179.209,1.03271,-145.371,592
1571222504,299.926,13.5062,-16.9664,179.209,1.03271,-145.371,592
1571222504,299.926,13.5062,-16.9664,179.209,1.03271,-145.371,592
1571222504,299.926,13.5062,-16.9664,179.209,1.03271,-145.371,592
1571222504,299.926,13.5062,-17.078,179.209,1.03271,-145.371,592
1571222504,299.926,13.5062,-17.078,179.209,1.03271,-145.371,592
1571222504,299.926,13.5062,-17.078,179.209,1.03271,-145.371,592
1571222504,299.926,13.5062,-17.078,179.209,1.03271,-145.371,592
1571222508,322.92,-10.8272,-16.8548,179.253,1.2085,-145.679,680
1571222508,322.92,-10.8272,-16.8548,179.253,1.2085,-145.679,680
1571222508,322.92,-10.8272,-16.8548,179.253,1.2085,-145.679,680
1571222508,322.92,-10.8272,-16.8548,179.253,1.2085,-145.679,680
1571222508,322.92,-10.8272,-16.8548,179.253,1.2085,-145.679,680
1571222508,322.92,-10.8272,-16.8548,179.253,1.2085,-145.679,680
1571222508,322.92,-10.8272,-16.8548,179.253,1.2085,-145.679,680
1571222508,322.92,-10.8272,-16.8548,179.253,1.2085,-145.679,680
1571222508,322.92,-10.8272,-16.8548,179.253,1.2085,-145.679,680
1571222508,322.92,-10.8272,-16.8548,179.253,1.2085,-145.679,680
1571222508,322.92,-10.8272,-16.8548,179.253,1.2085,-145.679,680
1571222508,322.92,-10.8272,-16.8548,179.253,1.2085,-145.679,680
1571222508,322.92,-10.8272,-16.8548,179.253,1.2085,-145.679,680
1571222508,322.92,-10.8272,-16.8548,179.253,1.2085,-145.679,680
1571222508,322.92,-10.8272,-16.8548,179.253,1.2085,-145.679,676
1571222508,322.92,-10.8272,-16.8548,179.253,1.2085,-145.679,676
1571222508,322.92,-10.8272,-16.8548,179.253,1.2085,-145.679,676
1571222508,322.92,-10.8272,-16.8548,179.253,1.2085,-145.679,676
1571222508,322.92,-10.8272,-16.8548,179.253,1.2085,-145.679,676
1571222508,322.92,-10.8272,-16.8548,179.253,1.2085,-145.679,676
1571222508,322.92,-10.8272,-16.8548,179.253,1.2085,-145.679,676
1571222508,322.92,-10.8272,-16.8548,179.253,1.2085,-145.679,676
1571222508,322.92,-10.8272,-16.8548,179.253,1.2085,-145.679,676
1571222508,322.92,-10.8272,-16.8548,179.253,1.2085,-145.679,676
1571222508,322.92,-10.8272,-16.8548,179.253,1.2085,-145.679,676
1571222509,322.92,-10.8272,-16.8548,179.253,1.2085,-145.679,676
1571222509,322.92,-10.8272,-16.8548,179.253,1.2085,-145.679,676
1571222509,322.92,-10.7156,-16.8548,179.253,1.2085,-145.679,676
1571222509,322.92,-10.7156,-16.8548,179.253,1.2085,-145.679,676
1571222509,322.92,-10.7156,-16.8548,179.253,1.2085,-145.679,676
1571222509,322.92,-10.7156,-16.8548,179.253,1.2085,-145.679,676
1571222509,322.92,-10.7156,-16.8548,179.275,1.2085,-145.679,676
1571222509,322.92,-10.7156,-16.8548,179.275,1.2085,-145.679,676
1571222509,322.92,-10.7156,-16.8548,179.275,1.2085,-145.679,676
1571222509,322.92,-10.7156,-16.8548,179.275,1.2085,-145.679,676
1571222509,322.92,-10.7156,-16.8548,179.275,1.2085,-145.679,676
1571222509,322.92,-10.7156,-16.8548,179.275,1.2085,-145.679,676
1571222509,322.92,-10.7156,-16.8548,179.275,1.2085,-145.679,676
1571222509,322.92,-10.7156,-16.8548,179.275,1.2085,-145.679,676
1571222509,322.92,-10.7156,-16.8548,179.275,1.2085,-145.679,676
1571222509,322.92,-10.7156,-16.8548,179.275,1.2085,-145.679,676
1571222509,322.92,-10.7156,-16.8548,179.275,1.2085,-145.679,676
1571222509,322.92,-10.7156,-16.8548,179.275,1.2085,-145.679,676
1571222509,322.92,-10.7156,-16.8548,179.275,1.2085,-145.679,676
1571222509,322.92,-10.7156,-16.7432,179.275,1.2085,-145.679,676
1571222509,322.92,-10.7156,-16.7432,179.275,1.23047,-145.679,676
1571222509,322.92,-10.7156,-16.7432,179.275,1.23047,-145.701,676
1571222509,322.92,-10.7156,-16.7432,179.275,1.23047,-145.701,676
1571222509,322.92,-10.7156,-16.7432,179.275,1.23047,-145.701,676
1571222509,322.92,-10.7156,-16.7432,179.275,1.23047,-145.701,676
1571222509,322.92,-10.7156,-16.7432,179.275,1.23047,-145.701,676
1571222509,322.92,-10.7156,-16.7432,179.275,1.23047,-145.701,676
1571222509,322.92,-10.7156,-16.7432,179.275,1.23047,-145.701,676
1571222509,322.92,-10.7156,-16.8548,179.275,1.23047,-145.701,676
1571222509,322.92,-10.7156,-16.8548,179.275,1.2085,-145.701,676
1571222509,322.92,-10.7156,-16.8548,179.275,1.2085,-145.701,676
1571222509,322.92,-10.7156,-16.8548,179.275,1.2085,-145.701,676
1571222509,322.92,-10.7156,-16.8548,179.275,1.2085,-145.701,676
1571222509,322.92,-10.7156,-16.8548,179.275,1.2085,-145.679,676
1571222509,322.92,-10.7156,-16.8548,179.275,1.2085,-145.679,676
1571222509,322.92,-10.7156,-16.8548,179.275,1.2085,-145.679,676
1571222509,322.92,-10.7156,-16.8548,179.275,1.2085,-145.679,676
1571222509,322.92,-10.7156,-16.8548,179.275,1.2085,-145.679,676
1571222509,322.92,-10.7156,-16.8548,179.275,1.2085,-145.679,676
1571222509,322.92,-10.7156,-16.8548,179.275,1.2085,-145.679,676
1571222509,322.92,-10.7156,-16.8548,179.275,1.2085,-145.679,680
1571222509,322.808,-10.7156,-16.8548,179.275,1.2085,-145.679,680
1571222509,322.808,-10.7156,-16.8548,179.253,1.2085,-145.679,680
1571222509,322.808,-10.7156,-16.8548,179.253,1.2085,-145.679,680
1571222509,322.808,-10.7156,-16.7432,179.253,1.2085,-145.679,680
1571222509,322.808,-10.8272,-16.7432,179.253,1.2085,-145.679,680
1571222509,322.808,-10.8272,-16.7432,179.253,1.23047,-145.679,680
1571222509,322.808,-10.8272,-16.7432,179.253,1.23047,-145.679,680
1571222509,322.808,-10.8272,-16.7432,179.253,1.23047,-145.679,680
1571222509,322.808,-10.8272,-16.7432,179.253,1.23047,-145.679,680
1571222509,322.808,-10.8272,-16.7432,179.253,1.23047,-145.679,680
1571222509,322.808,-10.8272,-16.7432,179.253,1.23047,-145.679,680
1571222509,322.808,-10.8272,-16.7432,179.253,1.23047,-145.679,680
1571222509,322.808,-10.8272,-16.7432,179.253,1.23047,-145.679,680
1571222509,322.92,-10.8272,-16.7432,179.253,1.23047,-145.679,680
1571222509,322.92,-10.8272,-16.7432,179.253,1.23047,-145.679,680
1571222509,322.92,-10.8272,-16.7432,179.253,1.23047,-145.679,680
1571222509,322.92,-10.8272,-16.7432,179.253,1.23047,-145.679,680
1571222509,322.92,-10.8272,-16.7432,179.253,1.23047,-145.679,680
1571222509,322.92,-10.8272,-16.7432,179.253,1.23047,-145.679,680
1571222509,322.92,-10.8272,-16.7432,179.253,1.23047,-145.679,680
1571222509,322.92,-10.8272,-16.7432,179.253,1.23047,-145.679,680
1571222509,322.92,-10.8272,-16.8548,179.253,1.23047,-145.679,680
1571222509,322.92,-10.8272,-16.8548,179.253,1.2085,-145.679,680
1571222509,322.92,-10.8272,-16.8548,179.253,1.2085,-145.679,680
1571222509,322.92,-10.8272,-16.8548,179.253,1.2085,-145.679,680
1571222509,322.92,-10.8272,-16.8548,179.253,1.2085,-145.679,680
1571222509,322.92,-10.8272,-16.8548,179.253,1.2085,-145.679,680
1571222509,322.92,-10.8272,-16.8548,179.253,1.2085,-145.679,680
1571222509,322.92,-10.8272,-16.8548,179.253,1.2085,-145.679,680
1571222509,322.92,-10.8272,-16.8548,179.253,1.2085,-145.679,680
1571222509,322.92,-10.8272,-16.8548,179.253,1.2085,-145.679,680
1571222509,322.92,-10.8272,-16.8548,179.253,1.2085,-145.679,680
1571222509,322.92,-10.8272,-16.8548,179.253,1.2085,-145.679,680
1571222509,322.92,-10.8272,-16.8548,179.253,1.2085,-145.679,680
1571222509,322.92,-10.7156,-16.8548,179.253,1.2085,-145.679,680
1571222509,322.92,-10.7156,-16.8548,179.275,1.2085,-145.679,680
1571222509,322.92,-10.7156,-16.8548,179.275,1.2085,-145.679,680
1571222509,322.92,-10.7156,-16.8548,179.275,1.2085,-145.679,680
1571222509,322.92,-10.7156,-16.8548,179.275,1.2085,-145.679,676
1571222509,322.92,-10.7156,-16.8548,179.275,1.2085,-145.679,676
1571222509,322.92,-10.7156,-16.8548,179.275,1.2085,-145.679,676
1571222509,322.92,-10.7156,-16.8548,179.275,1.2085,-145.679,676
1571222509,322.92,-10.7156,-16.8548,179.275,1.2085,-145.679,676
1571222509,322.92,-10.7156,-16.8548,179.275,1.2085,-145.679,676
1571222509,322.92,-10.7156,-16.8548,179.275,1.2085,-145.679,676
1571222509,322.92,-10.7156,-16.8548,179.275,1.2085,-145.679,676
1571222509,322.92,-10.7156,-16.8548,179.275,1.2085,-145.679,676
1571222509,322.92,-10.7156,-16.8548,179.275,1.2085,-145.679,676
1571222509,322.92,-10.7156,-16.8548,179.275,1.2085,-145.679,676
1571222509,322.92,-10.7156,-16.8548,179.275,1.2085,-145.679,676
1571222509,322.92,-10.7156,-16.8548,179.275,1.2085,-145.679,676
1571222509,322.92,-10.7156,-16.8548,179.275,1.2085,-145.679,676
1571222509,322.92,-10.7156,-16.8548,179.275,1.2085,-145.679,676
1571222509,322.92,-10.7156,-16.8548,179.275,1.2085,-145.679,676
1571222509,322.92,-10.7156,-16.8548,179.275,1.2085,-145.679,672
1571222509,322.92,-10.7156,-16.8548,179.275,1.2085,-145.679,672
1571222509,322.92,-10.7156,-16.8548,179.275,1.2085,-145.679,672
1571222509,322.92,-10.7156,-16.8548,179.275,1.2085,-145.679,672
1571222509,322.92,-10.7156,-16.8548,179.275,1.2085,-145.679,672
1571222510,322.92,-10.7156,-16.8548,179.275,1.2085,-145.679,672
1571222510,322.92,-10.7156,-16.8548,179.275,1.2085,-145.679,672
1571222510,322.92,-10.7156,-16.8548,179.275,1.2085,-145.679,672
1571222510,322.92,-10.7156,-16.8548,179.275,1.2085,-145.679,672
1571222510,322.92,-10.7156,-16.8548,179.275,1.2085,-145.679,672
1571222510,322.92,-10.8272,-16.8548,179.275,1.2085,-145.679,672
1571222510,322.92,-10.8272,-16.8548,179.253,1.2085,-145.679,672
1571222510,322.92,-10.8272,-16.8548,179.253,1.2085,-145.679,672
1571222510,322.92,-10.8272,-16.8548,179.253,1.2085,-145.679,672
1571222510,322.92,-10.8272,-16.8548,179.253,1.2085,-145.679,672
1571222510,322.92,-10.8272,-16.8548,179.253,1.2085,-145.679,672
1571222510,322.92,-10.8272,-16.8548,179.253,1.2085,-145.679,676
1571222510,322.92,-10.8272,-16.8548,179.253,1.2085,-145.679,676
1571222510,322.92,-10.8272,-16.8548,179.253,1.2085,-145.679,676
1571222510,322.92,-10.8272,-16.7432,179.253,1.2085,-145.679,676
1571222510,322.92,-10.8272,-16.7432,179.253,1.2085,-145.679,676
1571222510,322.92,-10.8272,-16.7432,179.253,1.2085,-145.679,676
1571222510,322.92,-10.8272,-16.7432,179.253,1.2085,-145.679,676
1571222510,322.92,-10.8272,-16.7432,179.253,1.2085,-145.679,676
1571222510,322.92,-10.8272,-16.7432,179.253,1.2085,-145.679,676
1571222510,322.92,-10.8272,-16.7432,179.253,1.2085,-145.679,676
1571222510,322.92,-10.8272,-16.7432,179.253,1.2085,-145.679,676
1571222510,322.92,-10.8272,-16.8548,179.253,1.2085,-145.679,676
1571222510,322.92,-10.8272,-16.8548,179.253,1.2085,-145.679,676
1571222510,322.92,-10.8272,-16.8548,179.253,1.2085,-145.679,676
1571222510,322.92,-10.8272,-16.8548,179.253,1.2085,-145.679,676
1571222510,322.92,-10.8272,-16.8548,179.253,1.2085,-145.679,672
1571222510,322.92,-10.8272,-16.8548,179.253,1.2085,-145.679,672
1571222510,322.92,-10.8272,-16.8548,179.253,1.2085,-145.679,672
1571222510,322.92,-10.8272,-16.8548,179.253,1.2085,-145.679,672
1571222510,322.92,-10.8272,-16.8548,179.253,1.2085,-145.679,672
1571222510,322.92,-10.7156,-16.8548,179.253,1.2085,-145.679,672
1571222510,322.92,-10.7156,-16.8548,179.253,1.2085,-145.679,672
1571222510,322.92,-10.7156,-16.8548,179.253,1.2085,-145.679,672
1571222510,322.92,-10.7156,-16.7432,179.275,1.2085,-145.679,672
1571222510,322.92,-10.7156,-16.7432,179.275,1.2085,-145.679,672
1571222510,322.92,-10.7156,-16.7432,179.275,1.23047,-145.679,672
1571222510,322.92,-10.7156,-16.7432,179.275,1.23047,-145.679,672
1571222510,322.92,-10.7156,-16.7432,179.275,1.23047,-145.679,672
1571222510,322.92,-10.7156,-16.7432,179.275,1.23047,-145.679,672
1571222510,322.92,-10.7156,-16.7432,179.275,1.23047,-145.679,672
1571222510,322.92,-10.7156,-16.7432,179.275,1.23047,-145.679,672
1571222510,322.92,-10.7156,-16.7432,179.275,1.23047,-145.679,672
1571222510,322.92,-10.7156,-16.7432,179.275,1.23047,-145.679,672
1571222510,322.92,-10.7156,-16.7432,179.275,1.23047,-145.679,672
1571222510,322.92,-10.7156,-16.7432,179.275,1.23047,-145.679,672
1571222510,322.92,-10.7156,-16.7432,179.275,1.2085,-145.679,672
1571222510,322.92,-10.7156,-16.7432,179.275,1.2085,-145.679,672
1571222510,322.92,-10.7156,-16.8548,179.275,1.2085,-145.679,672
1571222510,322.92,-10.7156,-16.8548,179.275,1.2085,-145.679,672
1571222510,322.92,-10.7156,-16.8548,179.275,1.2085,-145.679,672
1571222510,322.92,-10.7156,-16.8548,179.275,1.2085,-145.679,672
1571222510,322.92,-10.7156,-16.8548,179.275,1.2085,-145.679,672
1571222510,322.92,-10.7156,-16.8548,179.275,1.2085,-145.679,672
1571222510,322.92,-10.7156,-16.8548,179.275,1.2085,-145.679,672
1571222510,322.92,-10.7156,-16.8548,179.275,1.2085,-145.701,672
1571222510,322.92,-10.7156,-16.8548,179.275,1.2085,-145.701,672
1571222510,322.92,-10.7156,-16.8548,179.275,1.2085,-145.701,672
1571222510,322.92,-10.7156,-16.8548,179.275,1.2085,-145.701,668
1571222510,322.92,-10.7156,-16.8548,179.275,1.2085,-145.701,668
1571222510,322.92,-10.7156,-16.8548,179.275,1.2085,-145.701,668
1571222510,322.92,-10.7156,-16.8548,179.275,1.2085,-145.701,668
1571222510,322.92,-10.7156,-16.8548,179.275,1.2085,-145.701,668
1571222510,322.92,-10.7156,-16.8548,179.275,1.2085,-145.679,668
1571222510,322.92,-10.7156,-16.8548,179.275,1.2085,-145.679,668
1571222510,322.92,-10.7156,-16.8548,179.275,1.2085,-145.679,668
1571222510,322.92,-10.7156,-16.8548,179.275,1.2085,-145.679,668
1571222510,322.92,-10.7156,-16.8548,179.275,1.2085,-145.679,668
1571222510,322.92,-10.7156,-16.8548,179.275,1.2085,-145.679,668
1571222510,322.92,-10.7156,-16.8548,179.275,1.2085,-145.679,668
1571222510,322.92,-10.7156,-16.8548,179.275,1.2085,-145.679,664
1571222510,322.92,-10.7156,-16.8548,179.275,1.2085,-145.679,664
1571222510,322.92,-10.7156,-16.8548,179.275,1.2085,-145.679,664
1571222510,322.92,-10.7156,-16.8548,179.275,1.2085,-145.679,668
1571222510,322.92,-10.7156,-16.8548,179.275,1.2085,-145.679,668
1571222510,322.92,-10.7156,-16.8548,179.275,1.2085,-145.679,668
1571222510,322.92,-10.7156,-16.7432,179.275,1.2085,-145.679,668
1571222510,322.92,-10.7156,-16.7432,179.275,1.23047,-145.679,668
1571222510,322.92,-10.7156,-16.7432,179.275,1.23047,-145.657,668
1571222510,322.92,-10.7156,-16.7432,179.275,1.23047,-145.657,668
1571222510,322.92,-10.7156,-16.7432,179.275,1.23047,-145.657,668
1571222510,322.92,-10.7156,-16.7432,179.275,1.23047,-145.657,668
1571222510,322.92,-10.7156,-16.7432,179.275,1.23047,-145.657,668
1571222510,322.92,-10.7156,-16.7432,179.275,1.23047,-145.657,668
1571222510,322.92,-10.7156,-16.7432,179.275,1.23047,-145.657,672
1571222510,322.92,-10.7156,-16.7432,179.275,1.23047,-145.657,672
1571222510,322.92,-10.7156,-16.7432,179.275,1.23047,-145.657,672
1571222510,322.92,-10.7156,-16.7432,179.275,1.23047,-145.657,672
1571222510,322.92,-10.7156,-16.7432,179.275,1.23047,-145.657,672
1571222510,322.92,-10.7156,-16.7432,179.275,1.23047,-145.657,672
1571222510,322.92,-10.7156,-16.7432,179.275,1.23047,-145.657,672
1571222510,322.92,-10.7156,-16.7432,179.275,1.23047,-145.657,672
1571222510,322.92,-10.7156,-16.7432,179.275,1.23047,-145.657,672
1571222510,322.92,-10.7156,-16.8548,179.275,1.23047,-145.657,668
1571222510,322.92,-10.7156,-16.8548,179.275,1.23047,-145.657,668
1571222510,322.92,-10.7156,-16.8548,179.275,1.2085,-145.657,668
1571222510,322.92,-10.7156,-16.8548,179.275,1.2085,-145.679,668
1571222510,322.92,-10.7156,-16.8548,179.275,1.2085,-145.679,668
1571222510,322.92,-10.7156,-16.8548,179.275,1.2085,-145.679,668
1571222510,322.92,-10.7156,-16.8548,179.275,1.2085,-145.679,668
1571222511,322.92,-10.7156,-16.8548,179.275,1.2085,-145.679,668
1571222511,322.92,-10.7156,-16.8548,179.275,1.2085,-145.679,668
1571222511,322.92,-10.7156,-16.8548,179.275,1.2085,-145.679,668
1571222511,322.92,-10.7156,-16.8548,179.275,1.2085,-145.679,668
1571222511,322.92,-10.7156,-16.8548,179.275,1.2085,-145.679,668
1571222511,322.92,-10.7156,-16.8548,179.275,1.2085,-145.679,668
1571222511,322.92,-10.7156,-16.8548,179.275,1.2085,-145.679,668
1571222511,322.92,-10.7156,-16.8548,179.275,1.2085,-145.679,668
1571222511,322.92,-10.7156,-16.8548,179.275,1.2085,-145.679,668
1571222511,322.92,-10.7156,-16.8548,179.275,1.2085,-145.679,668
1571222511,322.92,-10.7156,-16.8548,179.275,1.2085,-145.679,668
1571222511,322.92,-10.7156,-16.8548,179.275,1.2085,-145.679,672
1571222511,322.92,-10.7156,-16.8548,179.275,1.2085,-145.679,672
1571222511,322.92,-10.7156,-16.8548,179.275,1.2085,-145.679,672
1571222511,322.92,-10.7156,-16.8548,179.275,1.2085,-145.679,672
1571222511,322.92,-10.7156,-16.8548,179.275,1.2085,-145.679,672
1571222511,322.92,-10.7156,-16.8548,179.275,1.2085,-145.679,672
1571222511,322.92,-10.7156,-16.8548,179.275,1.2085,-145.679,672
1571222511,322.92,-10.7156,-16.8548,179.275,1.2085,-145.679,672
1571222511,322.92,-10.7156,-16.8548,179.275,1.2085,-145.679,672
1571222511,322.92,-10.7156,-16.8548,179.275,1.18652,-145.679,672
1571222511,322.92,-10.7156,-16.8548,179.275,1.18652,-145.679,672
1571222511,322.92,-10.7156,-16.8548,179.275,1.18652,-145.679,672
1571222511,322.92,-10.7156,-16.8548,179.275,1.18652,-145.679,672
1571222511,322.92,-10.7156,-16.8548,179.275,1.18652,-145.679,672
1571222511,322.92,-10.7156,-16.8548,179.275,1.18652,-145.679,672
1571222511,322.92,-10.7156,-16.8548,179.275,1.18652,-145.679,672
1571222511,322.92,-10.7156,-16.8548,179.275,1.18652,-145.679,672
1571222511,322.92,-10.7156,-16.8548,179.275,1.18652,-145.679,672
1571222511,322.92,-10.7156,-16.8548,179.275,1.18652,-145.679,672
1571222511,322.92,-10.7156,-16.8548,179.275,1.18652,-145.679,672
1571222511,322.92,-10.7156,-16.8548,179.275,1.18652,-145.679,668
1571222511,322.92,-10.7156,-16.8548,179.253,1.18652,-145.679,668
1571222511,322.92,-10.8272,-16.8548,179.253,1.18652,-145.679,668
1571222511,322.92,-10.8272,-16.8548,179.253,1.18652,-145.679,668
1571222511,322.92,-10.8272,-16.8548,179.253,1.18652,-145.679,668
1571222511,322.92,-10.8272,-16.8548,179.253,1.18652,-145.679,668
1571222511,322.92,-10.8272,-16.8548,179.253,1.18652,-145.679,668
1571222511,322.92,-10.8272,-16.8548,179.253,1.18652,-145.679,672
1571222511,322.92,-10.8272,-16.8548,179.253,1.18652,-145.679,672
1571222511,322.92,-10.8272,-16.8548,179.253,1.18652,-145.679,672
1571222511,322.92,-10.8272,-16.8548,179.253,1.18652,-145.679,672
1571222511,322.92,-10.8272,-16.8548,179.253,1.18652,-145.679,672
1571222511,322.92,-10.8272,-16.8548,179.253,1.18652,-145.679,672
1571222511,322.92,-10.8272,-16.8548,179.253,1.18652,-145.679,672
1571222511,322.92,-10.8272,-16.8548,179.253,1.2085,-145.679,672
1571222511,322.92,-10.8272,-16.8548,179.253,1.2085,-145.679,676
1571222511,322.92,-10.8272,-16.8548,179.253,1.2085,-145.679,676
1571222511,322.92,-10.8272,-16.8548,179.253,1.2085,-145.679,676
1571222511,322.92,-10.8272,-16.8548,179.253,1.2085,-145.679,676
1571222511,322.92,-10.8272,-16.8548,179.253,1.2085,-145.679,676
1571222511,322.92,-10.8272,-16.8548,179.253,1.2085,-145.679,676
1571222511,322.92,-10.8272,-16.8548,179.253,1.2085,-145.679,676
1571222511,322.92,-10.8272,-16.8548,179.253,1.2085,-145.679,676
1571222511,322.92,-10.8272,-16.8548,179.253,1.2085,-145.679,676
1571222511,322.92,-10.8272,-16.7432,179.253,1.2085,-145.679,676
1571222511,322.92,-10.8272,-16.7432,179.253,1.2085,-145.679,672
1571222511,322.92,-10.8272,-16.7432,179.253,1.2085,-145.679,672
1571222511,322.92,-10.8272,-16.7432,179.253,1.2085,-145.679,672
1571222511,322.92,-10.8272,-16.7432,179.253,1.2085,-145.679,672
1571222511,322.92,-10.8272,-16.7432,179.253,1.2085,-145.679,672
1571222511,322.92,-10.8272,-16.7432,179.253,1.2085,-145.679,672
1571222511,322.92,-10.8272,-16.7432,179.253,1.2085,-145.679,672
1571222511,322.92,-10.8272,-16.7432,179.253,1.2085,-145.679,672
1571222511,322.92,-10.8272,-16.7432,179.253,1.2085,-145.679,672
1571222511,322.92,-10.8272,-16.7432,179.253,1.2085,-145.679,672
1571222511,322.92,-10.8272,-16.7432,179.253,1.2085,-145.679,672
1571222511,322.92,-10.8272,-16.7432,179.253,1.2085,-145.679,672
1571222511,322.92,-10.8272,-16.7432,179.253,1.2085,-145.679,672
1571222511,322.92,-10.8272,-16.7432,179.253,1.2085,-145.679,672
1571222511,322.92,-10.8272,-16.7432,179.253,1.2085,-145.679,676
1571222511,322.92,-10.8272,-16.7432,179.253,1.2085,-145.679,676
1571222511,322.92,-10.8272,-16.7432,179.253,1.2085,-145.679,676
1571222511,322.92,-10.8272,-16.8548,179.253,1.2085,-145.679,676
1571222511,322.92,-10.8272,-16.8548,179.253,1.2085,-145.679,676
1571222511,322.92,-10.8272,-16.8548,179.253,1.2085,-145.679,676
1571222511,322.92,-10.8272,-16.8548,179.253,1.2085,-145.679,676
1571222511,322.92,-10.8272,-16.8548,179.253,1.2085,-145.679,676
1571222511,322.92,-10.8272,-16.8548,179.253,1.2085,-145.679,676
1571222511,322.92,-10.8272,-16.8548,179.253,1.2085,-145.679,676
1571222511,322.92,-10.8272,-16.8548,179.253,1.2085,-145.679,676
1571222511,322.92,-10.8272,-16.8548,179.253,1.2085,-145.679,676
1571222511,322.92,-10.8272,-16.8548,179.253,1.2085,-145.679,672
1571222511,322.92,-10.8272,-16.8548,179.253,1.2085,-145.679,672
1571222511,322.92,-10.8272,-16.8548,179.253,1.2085,-145.679,672
1571222511,322.92,-10.8272,-16.8548,179.253,1.2085,-145.679,672
1571222511,322.92,-10.8272,-16.7432,179.253,1.2085,-145.679,672
1571222511,322.92,-10.8272,-16.7432,179.253,1.2085,-145.679,672
1571222511,322.92,-10.7156,-16.7432,179.253,1.2085,-145.679,672
1571222511,322.92,-10.7156,-16.7432,179.275,1.2085,-145.679,672
1571222511,322.92,-10.7156,-16.7432,179.275,1.2085,-145.679,672
1571222511,322.92,-10.7156,-16.7432,179.275,1.23047,-145.679,668
1571222511,322.92,-10.7156,-16.7432,179.275,1.23047,-145.679,668
1571222511,322.92,-10.7156,-16.7432,179.275,1.23047,-145.679,668
1571222511,322.92,-10.7156,-16.7432,179.275,1.23047,-145.679,668
1571222511,322.92,-10.7156,-16.7432,179.275,1.23047,-145.679,668
1571222511,322.92,-10.7156,-16.7432,179.275,1.23047,-145.679,664
1571222511,322.92,-10.7156,-16.7432,179.275,1.23047,-145.679,664
1571222511,323.031,-10.7156,-16.7432,179.275,1.23047,-145.679,664
1571222511,322.92,-10.7156,-16.7432,179.297,1.23047,-145.679,664
1571222512,322.92,-10.7156,-16.7432,179.297,1.23047,-145.679,664
1571222512,322.92,-10.7156,-16.7432,179.297,1.23047,-145.679,664
1571222512,322.92,-10.7156,-16.7432,179.297,1.23047,-145.679,660
1571222512,322.92,-10.7156,-16.7432,179.297,1.23047,-145.679,660
1571222512,322.92,-10.7156,-16.7432,179.297,1.23047,-145.679,660
1571222512,322.92,-10.7156,-16.7432,179.297,1.23047,-145.679,660
1571222512,322.92,-10.7156,-16.7432,179.275,1.23047,-145.679,660
1571222512,322.92,-10.7156,-16.7432,179.275,1.23047,-145.679,660
1571222512,322.92,-10.7156,-16.7432,179.275,1.23047,-145.679,660
1571222512,322.92,-10.7156,-16.7432,179.275,1.23047,-145.679,660
1571222512,322.92,-10.7156,-16.7432,179.275,1.2085,-145.679,660
1571222512,322.92,-10.7156,-16.7432,179.275,1.2085,-145.679,660
1571222512,322.92,-10.7156,-16.7432,179.275,1.2085,-145.679,660
1571222512,322.92,-10.7156,-16.8548,179.275,1.2085,-145.679,664
1571222512,322.92,-10.7156,-16.8548,179.275,1.2085,-145.679,664
1571222512,322.92,-10.7156,-16.8548,179.275,1.2085,-145.679,664
1571222512,322.92,-10.7156,-16.8548,179.275,1.2085,-145.679,664
1571222512,322.92,-10.7156,-16.8548,179.275,1.2085,-145.679,664
1571222512,322.92,-10.7156,-16.8548,179.275,1.2085,-145.679,668
1571222512,322.92,-10.7156,-16.8548,179.275,1.2085,-145.679,668
1571222512,322.92,-10.7156,-16.8548,179.275,1.2085,-145.679,668
1571222512,322.92,-10.7156,-16.8548,179.275,1.2085,-145.679,668
1571222512,322.92,-10.7156,-16.8548,179.275,1.2085,-145.679,672
1571222512,322.92,-10.7156,-16.8548,179.275,1.2085,-145.679,672
1571222512,322.92,-10.7156,-16.8548,179.275,1.2085,-145.679,672
1571222512,322.92,-10.7156,-16.8548,179.275,1.2085,-145.679,672
1571222512,322.92,-10.7156,-16.8548,179.275,1.2085,-145.679,676
1571222512,322.92,-10.7156,-16.8548,179.275,1.2085,-145.679,676
1571222512,322.92,-10.7156,-16.8548,179.275,1.2085,-145.679,676
1571222512,322.92,-10.7156,-16.8548,179.275,1.2085,-145.679,676
1571222512,322.92,-10.7156,-16.8548,179.275,1.2085,-145.679,676
1571222512,322.92,-10.7156,-16.8548,179.275,1.2085,-145.679,676
1571222512,322.92,-10.7156,-16.8548,179.275,1.2085,-145.679,676
1571222512,322.92,-10.7156,-16.8548,179.275,1.2085,-145.679,676
1571222512,322.92,-10.7156,-16.8548,179.275,1.2085,-145.679,676
1571222512,322.92,-10.7156,-16.8548,179.275,1.2085,-145.679,676
1571222512,322.92,-10.7156,-16.8548,179.275,1.2085,-145.679,676
1571222512,322.92,-10.7156,-16.8548,179.275,1.2085,-145.679,676
1571222512,322.92,-10.7156,-16.8548,179.275,1.2085,-145.679,676
1571222512,322.92,-10.7156,-16.8548,179.275,1.2085,-145.679,676
1571222512,322.92,-10.7156,-16.8548,179.275,1.2085,-145.679,676
1571222512,322.92,-10.7156,-16.8548,179.275,1.2085,-145.679,672
1571222512,322.92,-10.7156,-16.8548,179.275,1.2085,-145.679,672
1571222512,322.92,-10.7156,-16.8548,179.275,1.2085,-145.679,672
1571222512,322.92,-10.7156,-16.8548,179.275,1.2085,-145.679,672
1571222512,322.92,-10.7156,-16.8548,179.253,1.2085,-145.657,672
1571222512,322.92,-10.7156,-16.8548,179.253,1.2085,-145.657,668
1571222512,322.92,-10.7156,-16.8548,179.253,1.2085,-145.657,668
1571222512,322.92,-10.8272,-16.8548,179.253,1.2085,-145.657,668
1571222512,322.92,-10.8272,-16.8548,179.253,1.2085,-145.657,668
1571222512,322.92,-10.8272,-16.8548,179.253,1.2085,-145.657,668
1571222512,322.92,-10.8272,-16.8548,179.253,1.2085,-145.657,668
1571222512,322.92,-10.8272,-16.8548,179.253,1.2085,-145.657,668
1571222512,322.92,-10.8272,-16.8548,179.253,1.2085,-145.657,668
1571222512,322.92,-10.8272,-16.8548,179.253,1.2085,-145.657,668
1571222512,322.92,-10.8272,-16.8548,179.253,1.2085,-145.657,668
1571222512,322.92,-10.8272,-16.8548,179.253,1.2085,-145.657,668
1571222512,322.92,-10.8272,-16.8548,179.253,1.2085,-145.657,668
1571222512,322.92,-10.8272,-16.8548,179.253,1.2085,-145.657,668
1571222512,322.92,-10.8272,-16.8548,179.253,1.2085,-145.657,668
1571222512,322.92,-10.8272,-16.8548,179.253,1.2085,-145.657,668
1571222512,322.92,-10.8272,-16.8548,179.253,1.2085,-145.657,668
1571222512,322.92,-10.8272,-16.8548,179.253,1.2085,-145.657,668
1571222512,322.92,-10.8272,-16.8548,179.253,1.2085,-145.679,664
1571222512,322.92,-10.7156,-16.8548,179.253,1.2085,-145.679,664
1571222512,322.92,-10.7156,-16.8548,179.253,1.2085,-145.679,664
1571222512,322.92,-10.7156,-16.8548,179.253,1.2085,-145.679,664
1571222512,322.92,-10.7156,-16.8548,179.253,1.2085,-145.679,664
1571222512,322.92,-10.7156,-16.8548,179.253,1.2085,-145.679,664
1571222512,322.92,-10.7156,-16.8548,179.253,1.2085,-145.679,664
1571222512,322.92,-10.7156,-16.8548,179.253,1.2085,-145.679,664
1571222512,322.92,-10.8272,-16.8548,179.253,1.2085,-145.679,664
1571222512,322.92,-10.8272,-16.8548,179.253,1.2085,-145.679,664
1571222512,322.92,-10.8272,-16.8548,179.253,1.2085,-145.679,664
1571222512,322.92,-10.8272,-16.8548,179.253,1.2085,-145.679,664
1571222512,322.92,-10.8272,-16.8548,179.253,1.2085,-145.679,664
1571222512,322.92,-10.8272,-16.8548,179.253,1.2085,-145.679,664
1571222512,322.92,-10.8272,-16.8548,179.253,1.2085,-145.679,664
1571222512,322.92,-10.8272,-16.8548,179.253,1.2085,-145.679,664
1571222512,322.92,-10.8272,-16.8548,179.253,1.2085,-145.679,664
1571222512,322.92,-10.8272,-16.8548,179.253,1.2085,-145.679,664
1571222512,322.92,-10.8272,-16.8548,179.253,1.2085,-145.679,664
1571222512,322.92,-10.8272,-16.8548,179.253,1.2085,-145.679,664
1571222512,322.92,-10.8272,-16.8548,179.253,1.2085,-145.679,664
1571222512,322.92,-10.7156,-16.8548,179.253,1.2085,-145.679,664
1571222512,322.92,-10.7156,-16.8548,179.253,1.2085,-145.679,668
1571222512,322.92,-10.7156,-16.8548,179.253,1.2085,-145.679,668
1571222512,322.92,-10.7156,-16.8548,179.253,1.2085,-145.679,668
1571222512,322.92,-10.7156,-16.8548,179.253,1.2085,-145.679,668
1571222512,322.92,-10.7156,-16.8548,179.253,1.2085,-145.679,668
1571222512,322.92,-10.7156,-16.8548,179.253,1.2085,-145.679,668
1571222512,322.92,-10.7156,-16.8548,179.253,1.2085,-145.679,668
1571222512,322.92,-10.7156,-16.8548,179.253,1.2085,-145.679,668
1571222512,322.92,-10.7156,-16.8548,179.253,1.2085,-145.679,668
1571222512,322.92,-10.7156,-16.8548,179.253,1.2085,-145.679,668
1571222512,322.92,-10.7156,-16.8548,179.253,1.2085,-145.679,668
1571222512,322.92,-10.7156,-16.8548,179.253,1.2085,-145.679,668
1571222512,322.92,-10.7156,-16.8548,179.253,1.2085,-145.679,668
1571222512,322.92,-10.7156,-16.8548,179.253,1.2085,-145.679,668
1571222512,322.92,-10.7156,-16.8548,179.253,1.2085,-145.679,668
1571222513,322.92,-10.7156,-16.8548,179.253,1.2085,-145.679,668
1571222513,322.92,-10.7156,-16.8548,179.253,1.2085,-145.679,668
1571222513,322.92,-10.7156,-16.8548,179.253,1.2085,-145.679,668
1571222513,322.92,-10.7156,-16.8548,179.253,1.2085,-145.679,668
1571222513,322.92,-10.7156,-16.8548,179.253,1.2085,-145.679,668
1571222513,322.92,-10.7156,-16.8548,179.253,1.18652,-145.679,668
1571222513,322.92,-10.7156,-16.8548,179.253,1.18652,-145.679,668
1571222513,322.92,-10.7156,-16.8548,179.253,1.18652,-145.679,668
1571222513,322.92,-10.8272,-16.8548,179.253,1.18652,-145.679,668
1571222513,322.92,-10.8272,-16.8548,179.253,1.18652,-145.679,668
1571222513,322.92,-10.8272,-16.8548,179.253,1.18652,-145.679,668
1571222513,322.92,-10.8272,-16.8548,179.253,1.18652,-145.679,668
1571222513,322.92,-10.8272,-16.8548,179.253,1.18652,-145.679,668
1571222513,322.92,-10.8272,-16.8548,179.253,1.18652,-145.679,668
1571222513,322.92,-10.8272,-16.8548,179.253,1.18652,-145.679,668
1571222513,322.92,-10.8272,-16.8548,179.253,1.18652,-145.679,668
1571222513,322.92,-10.8272,-16.8548,179.253,1.18652,-145.679,668
1571222513,322.92,-10.8272,-16.8548,179.253,1.18652,-145.679,668
1571222513,322.92,-10.8272,-16.8548,179.253,1.18652,-145.679,668
1571222513,322.92,-10.8272,-16.8548,179.253,1.18652,-145.679,668
1571222513,322.92,-10.8272,-16.8548,179.253,1.18652,-145.679,668
1571222513,322.92,-10.8272,-16.8548,179.253,1.18652,-145.679,668
1571222513,322.92,-10.8272,-16.8548,179.253,1.18652,-145.679,668
1571222513,322.92,-10.8272,-16.8548,179.253,1.18652,-145.679,668
1571222513,322.92,-10.8272,-16.8548,179.253,1.18652,-145.679,668
1571222513,322.92,-10.8272,-16.8548,179.275,1.18652,-145.679,668
1571222513,322.92,-10.8272,-16.8548,179.275,1.18652,-145.679,668
1571222513,322.92,-10.7156,-16.8548,179.275,1.18652,-145.679,668
1571222513,322.92,-10.7156,-16.8548,179.275,1.18652,-145.679,668
1571222513,322.92,-10.7156,-16.8548,179.275,1.18652,-145.679,668
1571222513,322.92,-10.7156,-16.8548,179.275,1.18652,-145.657,668
1571222513,322.92,-10.7156,-16.8548,179.275,1.18652,-145.657,668
1571222513,322.92,-10.7156,-16.8548,179.275,1.18652,-145.657,668
1571222513,322.92,-10.7156,-16.8548,179.275,1.18652,-145.657,668
1571222513,322.92,-10.7156,-16.8548,179.275,1.18652,-145.657,668
1571222513,322.92,-10.7156,-16.8548,179.275,1.18652,-145.657,668
1571222513,322.92,-10.7156,-16.8548,179.275,1.18652,-145.657,668
1571222513,322.92,-10.7156,-16.8548,179.275,1.18652,-145.657,668
1571222513,322.92,-10.7156,-16.8548,179.275,1.18652,-145.679,668
1571222513,322.92,-10.7156,-16.8548,179.275,1.18652,-145.679,668
1571222513,322.92,-10.7156,-16.8548,179.275,1.18652,-145.679,668
1571222513,322.92,-10.7156,-16.8548,179.275,1.18652,-145.679,668
1571222513,322.92,-10.7156,-16.8548,179.275,1.18652,-145.679,668
1571222513,322.92,-10.7156,-16.8548,179.275,1.18652,-145.679,668
1571222513,322.92,-10.7156,-16.8548,179.275,1.18652,-145.679,668
1571222513,322.92,-10.7156,-16.8548,179.275,1.18652,-145.679,668
1571222513,322.92,-10.7156,-16.8548,179.275,1.18652,-145.679,668
1571222513,322.92,-10.7156,-16.8548,179.275,1.18652,-145.679,668
1571222513,322.92,-10.7156,-16.8548,179.275,1.18652,-145.679,668
1571222513,322.92,-10.7156,-16.8548,179.275,1.18652,-145.679,668
1571222513,322.92,-10.7156,-16.8548,179.275,1.2085,-145.679,668
1571222513,322.92,-10.7156,-16.8548,179.275,1.2085,-145.679,668
1571222513,322.92,-10.7156,-16.8548,179.275,1.2085,-145.679,668
1571222513,322.92,-10.7156,-16.8548,179.275,1.2085,-145.679,664
1571222513,322.92,-10.7156,-16.8548,179.275,1.2085,-145.679,664
1571222513,322.92,-10.7156,-16.8548,179.275,1.2085,-145.679,664
1571222513,322.92,-10.7156,-16.8548,179.275,1.2085,-145.679,664
1571222513,322.92,-10.7156,-16.8548,179.275,1.2085,-145.679,664
1571222513,323.031,-10.7156,-16.8548,179.275,1.2085,-145.679,660
1571222513,323.031,-10.7156,-16.8548,179.275,1.2085,-145.679,660
1571222513,323.031,-10.7156,-16.8548,179.275,1.2085,-145.679,660
1571222513,323.031,-10.7156,-16.8548,179.275,1.2085,-145.679,660
1571222513,323.031,-10.7156,-16.8548,179.275,1.2085,-145.679,660
1571222513,323.031,-10.7156,-16.8548,179.275,1.2085,-145.679,660
1571222513,323.031,-10.7156,-16.8548,179.275,1.2085,-145.679,660
1571222513,323.031,-10.7156,-16.8548,179.275,1.2085,-145.679,660
1571222513,323.031,-10.7156,-16.8548,179.275,1.2085,-145.679,660
1571222513,323.031,-10.7156,-16.8548,179.275,1.2085,-145.679,660
1571222513,323.031,-10.7156,-16.8548,179.275,1.2085,-145.679,660
1571222513,323.031,-10.7156,-16.8548,179.275,1.2085,-145.679,660
1571222513,323.031,-10.7156,-16.8548,179.275,1.2085,-145.679,660
1571222513,323.031,-10.7156,-16.8548,179.275,1.2085,-145.679,660
1571222513,323.031,-10.7156,-16.8548,179.275,1.2085,-145.679,660
1571222513,323.031,-10.7156,-16.8548,179.297,1.2085,-145.679,660
1571222513,323.031,-10.7156,-16.8548,179.297,1.2085,-145.679,664
1571222517,361.094,-51.3457,-16.7432,179.363,1.31836,-145.547,748
1571222517,361.094,-51.3457,-16.7432,179.363,1.31836,-145.547,748
1571222517,361.094,-51.3457,-16.7432,179.363,1.31836,-145.547,748
1571222517,361.094,-51.3457,-16.7432,179.363,1.31836,-145.547,748
1571222517,361.094,-51.4573,-16.7432,179.363,1.31836,-145.547,748
1571222517,361.094,-51.4573,-16.7432,179.363,1.31836,-145.547,748
1571222517,361.094,-51.4573,-16.7432,179.363,1.31836,-145.547,748
1571222517,361.094,-51.4573,-16.7432,179.341,1.31836,-145.547,752
1571222517,361.094,-51.4573,-16.7432,179.341,1.31836,-145.547,752
1571222517,361.094,-51.4573,-16.7432,179.341,1.31836,-145.547,752
1571222517,361.094,-51.4573,-16.7432,179.341,1.31836,-145.547,752
1571222517,361.094,-51.4573,-16.7432,179.341,1.31836,-145.547,752
1571222517,361.094,-51.4573,-16.7432,179.341,1.31836,-145.547,752
1571222517,361.094,-51.4573,-16.7432,179.341,1.31836,-145.547,752
1571222517,361.094,-51.4573,-16.7432,179.341,1.31836,-145.547,756
1571222517,361.094,-51.4573,-16.7432,179.341,1.31836,-145.547,756
1571222517,361.094,-51.4573,-16.7432,179.341,1.31836,-145.547,756
1571222517,361.094,-51.4573,-16.7432,179.341,1.31836,-145.547,756
1571222517,361.094,-51.4573,-16.7432,179.341,1.31836,-145.547,756
1571222517,361.094,-51.4573,-16.7432,179.341,1.31836,-145.547,756
1571222517,361.094,-51.4573,-16.7432,179.363,1.34033,-145.547,756
1571222517,361.094,-51.4573,-16.7432,179.363,1.34033,-145.547,756
1571222517,361.094,-51.4573,-16.7432,179.363,1.34033,-145.547,756
1571222517,361.094,-51.4573,-16.7432,179.363,1.34033,-145.547,756
1571222517,361.094,-51.4573,-16.7432,179.363,1.34033,-145.547,756
1571222517,361.094,-51.4573,-16.7432,179.363,1.34033,-145.547,760
1571222517,361.094,-51.4573,-16.7432,179.363,1.34033,-145.547,760
1571222517,361.094,-51.3457,-16.7432,179.363,1.34033,-145.547,760
1571222517,361.094,-51.3457,-16.7432,179.363,1.34033,-145.547,760
1571222517,361.094,-51.3457,-16.7432,179.363,1.34033,-145.547,760
1571222517,361.094,-51.3457,-16.7432,179.363,1.34033,-145.547,760
1571222518,361.094,-51.3457,-16.7432,179.363,1.34033,-145.547,760
1571222518,361.094,-51.3457,-16.7432,179.363,1.34033,-145.547,760
1571222518,361.094,-51.3457,-16.7432,179.363,1.34033,-145.547,760
1571222518,361.094,-51.3457,-16.7432,179.363,1.34033,-145.547,760
1571222518,361.094,-51.3457,-16.7432,179.363,1.34033,-145.547,760
1571222518,361.094,-51.3457,-16.7432,179.363,1.34033,-145.547,760
1571222518,361.094,-51.4573,-16.7432,179.363,1.34033,-145.547,764
1571222518,361.094,-51.4573,-16.7432,179.363,1.34033,-145.547,764
1571222518,361.094,-51.4573,-16.7432,179.363,1.34033,-145.547,764
1571222518,361.094,-51.4573,-16.7432,179.363,1.34033,-145.547,764
1571222518,361.094,-51.4573,-16.7432,179.363,1.34033,-145.547,764
1571222518,361.094,-51.4573,-16.7432,179.363,1.34033,-145.547,764
1571222518,361.206,-51.4573,-16.7432,179.363,1.34033,-145.547,764
1571222518,361.206,-51.4573,-16.7432,179.363,1.34033,-145.547,764
1571222518,361.206,-51.4573,-16.7432,179.363,1.34033,-145.547,764
1571222518,361.206,-51.3457,-16.7432,179.363,1.34033,-145.547,764
1571222518,361.206,-51.3457,-16.7432,179.385,1.34033,-145.547,764
1571222518,361.206,-51.3457,-16.7432,179.385,1.34033,-145.547,764
1571222518,361.206,-51.3457,-16.7432,179.385,1.34033,-145.547,764
1571222518,361.206,-51.3457,-16.7432,179.385,1.34033,-145.547,760
1571222518,361.206,-51.3457,-16.7432,179.385,1.34033,-145.547,760
1571222518,361.206,-51.3457,-16.7432,179.385,1.34033,-145.547,760
1571222518,361.206,-51.3457,-16.7432,179.385,1.34033,-145.547,760
1571222518,361.206,-51.3457,-16.7432,179.385,1.34033,-145.547,764
1571222518,361.206,-51.3457,-16.7432,179.385,1.34033,-145.547,764
1571222518,361.206,-51.3457,-16.7432,179.385,1.34033,-145.547,764
1571222518,361.094,-51.3457,-16.7432,179.385,1.31836,-145.547,764
1571222518,361.094,-51.3457,-16.7432,179.385,1.31836,-145.547,764
1571222518,361.094,-51.3457,-16.7432,179.385,1.31836,-145.525,764
1571222518,361.094,-51.3457,-16.7432,179.385,1.31836,-145.525,764
1571222518,361.094,-51.3457,-16.7432,179.385,1.31836,-145.525,764
1571222518,361.094,-51.3457,-16.7432,179.385,1.31836,-145.525,764
1571222518,361.094,-51.3457,-16.7432,179.385,1.31836,-145.525,764
1571222518,361.094,-51.3457,-16.7432,179.385,1.31836,-145.525,764
1571222518,361.094,-51.3457,-16.7432,179.385,1.31836,-145.547,764
1571222518,361.094,-51.3457,-16.7432,179.385,1.31836,-145.547,764
1571222518,361.094,-51.3457,-16.7432,179.385,1.31836,-145.547,764
1571222518,361.094,-51.3457,-16.7432,179.385,1.31836,-145.547,764
1571222518,361.094,-51.3457,-16.7432,179.385,1.31836,-145.547,764
1571222518,361.094,-51.3457,-16.7432,179.385,1.31836,-145.547,764
1571222518,361.094,-51.3457,-16.7432,179.385,1.31836,-145.547,764
1571222518,361.094,-51.3457,-16.7432,179.385,1.31836,-145.547,764
1571222518,361.094,-51.3457,-16.7432,179.385,1.31836,-145.547,764
1571222518,361.094,-51.3457,-16.7432,179.385,1.31836,-145.547,764
1571222518,361.094,-51.3457,-16.7432,179.385,1.31836,-145.547,764
1571222518,361.094,-51.3457,-16.7432,179.385,1.31836,-145.547,764
1571222518,361.094,-51.3457,-16.7432,179.363,1.31836,-145.547,764
1571222518,361.094,-51.3457,-16.7432,179.363,1.31836,-145.547,764
1571222518,361.094,-51.4573,-16.7432,179.363,1.31836,-145.547,764
1571222518,361.094,-51.4573,-16.7432,179.363,1.31836,-145.547,764
1571222518,361.094,-51.4573,-16.7432,179.363,1.31836,-145.547,764
1571222518,361.094,-51.4573,-16.7432,179.363,1.31836,-145.547,764
1571222518,361.094,-51.4573,-16.7432,179.363,1.31836,-145.547,764
1571222518,361.094,-51.4573,-16.7432,179.363,1.31836,-145.547,764
1571222518,361.206,-51.4573,-16.7432,179.363,1.31836,-145.547,764
1571222518,361.206,-51.4573,-16.7432,179.363,1.31836,-145.547,764
1571222518,361.206,-51.4573,-16.7432,179.363,1.31836,-145.547,764
1571222518,361.206,-51.4573,-16.7432,179.363,1.31836,-145.547,764
1571222518,361.206,-51.4573,-16.7432,179.363,1.31836,-145.547,760
1571222518,361.206,-51.4573,-16.8548,179.363,1.31836,-145.547,760
1571222518,361.206,-51.4573,-16.8548,179.363,1.29639,-145.547,760
1571222518,361.094,-51.4573,-16.8548,179.363,1.29639,-145.547,760
1571222518,361.094,-51.4573,-16.8548,179.363,1.29639,-145.547,760
1571222518,361.094,-51.4573,-16.8548,179.363,1.29639,-145.547,760
1571222518,361.094,-51.4573,-16.8548,179.363,1.29639,-145.547,756
1571222518,361.094,-51.4573,-16.8548,179.363,1.29639,-145.547,756
1571222518,361.094,-51.4573,-16.7432,179.363,1.29639,-145.547,756
1571222518,361.094,-51.4573,-16.7432,179.363,1.29639,-145.547,756
1571222518,361.094,-51.4573,-16.7432,179.363,1.29639,-145.547,756
1571222518,361.094,-51.4573,-16.7432,179.363,1.29639,-145.547,756
1571222518,361.094,-51.3457,-16.7432,179.363,1.29639,-145.547,756
1571222518,361.094,-51.3457,-16.7432,179.363,1.31836,-145.547,756
1571222518,361.094,-51.3457,-16.7432,179.363,1.31836,-145.547,756
1571222518,361.094,-51.3457,-16.7432,179.363,1.31836,-145.547,756
1571222518,361.094,-51.3457,-16.7432,179.363,1.31836,-145.547,752
1571222518,361.094,-51.3457,-16.7432,179.363,1.31836,-145.547,752
1571222518,361.094,-51.3457,-16.7432,179.363,1.31836,-145.547,752
1571222518,361.094,-51.3457,-16.7432,179.363,1.31836,-145.547,752
1571222518,361.094,-51.3457,-16.7432,179.363,1.31836,-145.569,752
1571222518,361.094,-51.3457,-16.7432,179.363,1.31836,-145.569,752
1571222518,361.094,-51.3457,-16.7432,179.363,1.31836,-145.569,752
1571222518,361.094,-51.3457,-16.7432,179.363,1.31836,-145.569,752
1571222518,361.094,-51.3457,-16.7432,179.363,1.31836,-145.569,752
1571222518,361.094,-51.3457,-16.7432,179.363,1.34033,-145.569,752
1571222518,361.094,-51.3457,-16.7432,179.363,1.34033,-145.569,752
1571222518,361.094,-51.3457,-16.7432,179.363,1.34033,-145.569,752
1571222518,361.094,-51.4573,-16.7432,179.363,1.34033,-145.547,752
1571222518,361.094,-51.4573,-16.7432,179.363,1.34033,-145.547,752
1571222518,361.094,-51.4573,-16.7432,179.341,1.34033,-145.547,752
1571222518,361.094,-51.4573,-16.7432,179.341,1.34033,-145.547,752
1571222518,361.094,-51.4573,-16.7432,179.341,1.34033,-145.547,752
1571222518,361.094,-51.4573,-16.7432,179.341,1.34033,-145.547,752
1571222518,361.094,-51.4573,-16.7432,179.341,1.34033,-145.547,752
1571222518,361.094,-51.4573,-16.7432,179.341,1.34033,-145.547,752
1571222518,361.094,-51.5689,-16.7432,179.341,1.34033,-145.525,752
1571222518,361.094,-51.4573,-16.7432,179.341,1.34033,-145.525,752
1571222518,361.094,-51.4573,-16.6315,179.341,1.34033,-145.525,752
1571222518,361.094,-51.4573,-16.6315,179.341,1.34033,-145.525,752
1571222518,361.094,-51.4573,-16.6315,179.341,1.34033,-145.525,756
1571222518,361.094,-51.4573,-16.6315,179.341,1.34033,-145.525,756
1571222519,361.094,-51.4573,-16.6315,179.341,1.34033,-145.525,756
1571222519,361.094,-51.4573,-16.6315,179.341,1.34033,-145.525,756
1571222519,361.094,-51.4573,-16.6315,179.341,1.34033,-145.525,756
1571222519,361.094,-51.4573,-16.6315,179.341,1.34033,-145.525,756
1571222519,361.094,-51.4573,-16.6315,179.341,1.34033,-145.525,756
1571222519,361.094,-51.4573,-16.6315,179.363,1.34033,-145.525,756
1571222519,361.094,-51.4573,-16.6315,179.363,1.34033,-145.547,756
1571222519,361.094,-51.4573,-16.6315,179.363,1.34033,-145.547,756
1571222519,361.094,-51.4573,-16.6315,179.363,1.34033,-145.547,756
1571222519,361.094,-51.4573,-16.6315,179.363,1.34033,-145.547,756
1571222519,361.094,-51.4573,-16.6315,179.363,1.34033,-145.547,756
1571222519,361.094,-51.4573,-16.6315,179.363,1.34033,-145.547,756
1571222519,361.094,-51.4573,-16.6315,179.363,1.34033,-145.547,756
1571222519,361.094,-51.3457,-16.6315,179.363,1.34033,-145.547,756
1571222519,361.094,-51.3457,-16.6315,179.363,1.34033,-145.547,756
1571222519,361.094,-51.3457,-16.7432,179.385,1.34033,-145.547,756
1571222519,361.094,-51.3457,-16.7432,179.385,1.34033,-145.547,756
1571222519,361.094,-51.3457,-16.7432,179.385,1.34033,-145.547,756
1571222519,361.206,-51.3457,-16.7432,179.385,1.34033,-145.547,756
1571222519,361.206,-51.3457,-16.7432,179.385,1.34033,-145.547,756
1571222519,361.206,-51.3457,-16.7432,179.385,1.34033,-145.547,756
1571222519,361.206,-51.3457,-16.7432,179.385,1.34033,-145.547,756
1571222519,361.206,-51.3457,-16.7432,179.385,1.34033,-145.547,756
1571222519,361.206,-51.3457,-16.7432,179.385,1.34033,-145.547,752
1571222519,361.206,-51.3457,-16.7432,179.385,1.34033,-145.547,752
1571222519,361.206,-51.3457,-16.7432,179.385,1.34033,-145.547,752
1571222519,361.206,-51.3457,-16.7432,179.385,1.34033,-145.547,752
1571222519,361.206,-51.3457,-16.7432,179.385,1.34033,-145.547,748
1571222519,361.206,-51.3457,-16.7432,179.385,1.34033,-145.547,748
1571222519,361.206,-51.3457,-16.7432,179.385,1.34033,-145.547,748
1571222519,361.206,-51.3457,-16.7432,179.385,1.34033,-145.547,744
1571222519,361.206,-51.3457,-16.7432,179.385,1.34033,-145.547,744
1571222519,361.206,-51.3457,-16.7432,179.385,1.34033,-145.547,744
1571222519,361.206,-51.3457,-16.6315,179.385,1.34033,-145.547,744
1571222519,361.206,-51.3457,-16.6315,179.385,1.34033,-145.547,740
1571222519,361.206,-51.3457,-16.6315,179.385,1.3623,-145.547,740
1571222519,361.206,-51.3457,-16.6315,179.385,1.3623,-145.547,740
1571222519,361.206,-51.3457,-16.6315,179.385,1.3623,-145.547,740
1571222519,361.206,-51.3457,-16.6315,179.385,1.3623,-145.547,740
1571222519,361.206,-51.3457,-16.6315,179.385,1.3623,-145.569,740
1571222519,361.206,-51.3457,-16.6315,179.385,1.3623,-145.569,740
1571222519,361.206,-51.3457,-16.6315,179.385,1.3623,-145.569,736
1571222519,361.206,-51.3457,-16.6315,179.385,1.3623,-145.569,736
1571222519,361.206,-51.3457,-16.6315,179.385,1.34033,-145.569,740
1571222519,361.206,-51.3457,-16.7432,179.385,1.34033,-145.569,740
1571222519,361.206,-51.3457,-16.7432,179.385,1.34033,-145.569,740
1571222519,361.206,-51.3457,-16.7432,179.385,1.34033,-145.569,740
1571222519,361.206,-51.3457,-16.7432,179.385,1.34033,-145.547,740
1571222519,361.206,-51.3457,-16.7432,179.385,1.34033,-145.547,740
1571222519,361.206,-51.3457,-16.7432,179.385,1.34033,-145.547,740
1571222519,361.206,-51.3457,-16.7432,179.385,1.34033,-145.547,740
1571222519,361.206,-51.3457,-16.7432,179.385,1.31836,-145.547,740
1571222519,361.206,-51.3457,-16.7432,179.385,1.31836,-145.547,740
1571222519,361.206,-51.3457,-16.7432,179.385,1.31836,-145.547,740
1571222519,361.206,-51.3457,-16.7432,179.385,1.31836,-145.547,740
1571222519,361.206,-51.3457,-16.7432,179.385,1.31836,-145.547,744
1571222519,361.206,-51.3457,-16.7432,179.385,1.31836,-145.547,744
1571222519,361.206,-51.3457,-16.7432,179.385,1.31836,-145.547,744
1571222519,361.206,-51.3457,-16.7432,179.385,1.31836,-145.547,744
1571222519,361.206,-51.3457,-16.7432,179.385,1.31836,-145.547,744
1571222519,361.206,-51.3457,-16.7432,179.385,1.34033,-145.547,744
1571222519,361.206,-51.3457,-16.7432,179.385,1.34033,-145.547,744
1571222519,361.206,-51.3457,-16.7432,179.385,1.34033,-145.547,744
1571222519,361.206,-51.3457,-16.7432,179.385,1.34033,-145.547,744
1571222519,361.206,-51.3457,-16.7432,179.385,1.34033,-145.547,744
1571222519,361.206,-51.3457,-16.7432,179.385,1.34033,-145.547,744
1571222519,361.206,-51.3457,-16.7432,179.385,1.34033,-145.547,744
1571222519,361.206,-51.3457,-16.7432,179.363,1.34033,-145.547,744
1571222519,361.206,-51.3457,-16.7432,179.363,1.34033,-145.547,744
1571222519,361.206,-51.4573,-16.7432,179.363,1.34033,-145.547,744
1571222519,361.206,-51.4573,-16.7432,179.363,1.34033,-145.547,744
1571222519,361.206,-51.4573,-16.7432,179.363,1.34033,-145.547,744
1571222519,361.206,-51.4573,-16.7432,179.363,1.34033,-145.525,744
1571222519,361.206,-51.4573,-16.7432,179.363,1.34033,-145.525,740
1571222519,361.206,-51.4573,-16.7432,179.363,1.34033,-145.525,740
1571222519,361.206,-51.4573,-16.7432,179.363,1.34033,-145.525,740
1571222519,361.206,-51.4573,-16.7432,179.363,1.34033,-145.525,740
1571222519,361.206,-51.4573,-16.7432,179.363,1.34033,-145.525,740
1571222519,361.206,-51.3457,-16.7432,179.385,1.34033,-145.547,740
1571222519,361.206,-51.3457,-16.7432,179.385,1.34033,-145.547,740
1571222519,361.206,-51.3457,-16.7432,179.385,1.34033,-145.547,740
1571222519,361.206,-51.3457,-16.7432,179.385,1.34033,-145.547,740
1571222519,361.206,-51.3457,-16.7432,179.385,1.34033,-145.547,740
1571222519,361.206,-51.3457,-16.7432,179.385,1.34033,-145.547,740
1571222519,361.206,-51.3457,-16.7432,179.385,1.34033,-145.547,740
1571222519,361.206,-51.3457,-16.7432,179.385,1.34033,-145.547,740
1571222519,361.206,-51.3457,-16.7432,179.385,1.34033,-145.547,740
1571222519,361.206,-51.3457,-16.7432,179.385,1.34033,-145.547,740
1571222519,361.206,-51.3457,-16.7432,179.385,1.34033,-145.547,740
1571222519,361.206,-51.3457,-16.7432,179.385,1.34033,-145.547,740
1571222519,361.206,-51.3457,-16.7432,179.385,1.34033,-145.547,740
1571222519,361.206,-51.3457,-16.7432,179.385,1.34033,-145.547,740
1571222519,361.206,-51.3457,-16.7432,179.385,1.34033,-145.547,744
1571222519,361.206,-51.3457,-16.7432,179.385,1.34033,-145.547,744
1571222519,361.206,-51.3457,-16.6315,179.385,1.34033,-145.547,744
1571222519,361.206,-51.3457,-16.6315,179.385,1.34033,-145.547,744
1571222519,361.206,-51.3457,-16.6315,179.363,1.34033,-145.547,744
1571222519,361.206,-51.3457,-16.6315,179.363,1.34033,-145.547,748
1571222519,361.206,-51.3457,-16.7432,179.363,1.34033,-145.547,748
1571222519,361.206,-51.3457,-16.7432,179.363,1.34033,-145.547,748
1571222520,361.206,-51.3457,-16.7432,179.363,1.34033,-145.547,748
1571222520,361.206,-51.3457,-16.7432,179.385,1.34033,-145.547,748
1571222520,361.206,-51.3457,-16.7432,179.385,1.34033,-145.547,748
1571222520,361.206,-51.3457,-16.7432,179.385,1.34033,-145.547,748
1571222520,361.206,-51.3457,-16.7432,179.385,1.34033,-145.547,748
1571222520,361.206,-51.3457,-16.7432,179.385,1.34033,-145.547,748
1571222520,361.206,-51.3457,-16.7432,179.385,1.34033,-145.547,748
1571222520,361.206,-51.3457,-16.7432,179.385,1.34033,-145.547,748
1571222520,361.206,-51.3457,-16.7432,179.385,1.34033,-145.547,748
1571222520,361.206,-51.3457,-16.7432,179.385,1.34033,-145.569,748
1571222520,361.206,-51.3457,-16.6315,179.385,1.34033,-145.569,748
1571222520,361.206,-51.3457,-16.6315,179.385,1.34033,-145.569,748
1571222520,361.206,-51.3457,-16.6315,179.385,1.34033,-145.569,748
1571222520,361.206,-51.3457,-16.6315,179.385,1.34033,-145.569,748
1571222520,361.206,-51.3457,-16.6315,179.385,1.34033,-145.569,748
1571222520,361.206,-51.3457,-16.6315,179.385,1.34033,-145.569,748
1571222520,361.206,-51.3457,-16.6315,179.385,1.34033,-145.569,748
1571222520,361.206,-51.3457,-16.6315,179.385,1.34033,-145.569,748
1571222520,361.206,-51.3457,-16.6315,179.385,1.34033,-145.547,748
1571222520,361.206,-51.3457,-16.6315,179.385,1.34033,-145.547,748
1571222520,361.206,-51.3457,-16.6315,179.385,1.34033,-145.547,748
1571222520,361.206,-51.3457,-16.7432,179.385,1.34033,-145.547,748
1571222520,361.206,-51.3457,-16.7432,179.385,1.34033,-145.547,748
1571222520,361.206,-51.3457,-16.7432,179.385,1.34033,-145.547,748
1571222520,361.206,-51.3457,-16.7432,179.385,1.31836,-145.547,748
1571222520,361.206,-51.3457,-16.7432,179.385,1.31836,-145.547,748
1571222520,361.206,-51.3457,-16.7432,179.385,1.31836,-145.547,748
1571222520,361.206,-51.3457,-16.7432,179.363,1.31836,-145.547,748
1571222520,361.206,-51.3457,-16.7432,179.363,1.31836,-145.547,748
1571222520,361.206,-51.3457,-16.7432,179.363,1.31836,-145.547,748
1571222520,361.206,-51.3457,-16.7432,179.363,1.31836,-145.547,748
1571222520,361.206,-51.3457,-16.7432,179.363,1.34033,-145.547,748
1571222520,361.206,-51.3457,-16.7432,179.363,1.34033,-145.547,748
1571222520,361.206,-51.3457,-16.7432,179.363,1.34033,-145.547,752
1571222520,361.206,-51.3457,-16.7432,179.363,1.34033,-145.547,752
1571222520,361.206,-51.3457,-16.6315,179.363,1.34033,-145.547,752
1571222520,361.206,-51.3457,-16.6315,179.363,1.34033,-145.547,752
1571222520,361.206,-51.3457,-16.6315,179.363,1.34033,-145.547,752
1571222520,361.206,-51.3457,-16.6315,179.363,1.34033,-145.547,752
1571222520,361.206,-51.3457,-16.6315,179.363,1.34033,-145.547,752
1571222520,361.206,-51.4573,-16.6315,179.363,1.34033,-145.547,752
1571222520,361.206,-51.4573,-16.6315,179.363,1.34033,-145.547,756
1571222520,361.094,-51.4573,-16.6315,179.363,1.34033,-145.547,756
1571222520,361.094,-51.4573,-16.6315,179.363,1.34033,-145.547,756
1571222520,361.094,-51.4573,-16.6315,179.341,1.34033,-145.547,756
1571222520,361.094,-51.4573,-16.6315,179.341,1.34033,-145.547,756
1571222520,361.094,-51.4573,-16.6315,179.341,1.34033,-145.547,760
1571222520,361.094,-51.4573,-16.6315,179.341,1.34033,-145.547,760
1571222520,361.094,-51.4573,-16.6315,179.341,1.34033,-145.525,760
1571222520,361.094,-51.4573,-16.6315,179.341,1.34033,-145.525,760
1571222520,361.094,-51.4573,-16.6315,179.341,1.34033,-145.525,760
1571222520,361.094,-51.4573,-16.6315,179.341,1.34033,-145.525,764
1571222520,361.094,-51.4573,-16.6315,179.341,1.34033,-145.525,764
1571222520,361.094,-51.4573,-16.6315,179.341,1.34033,-145.525,764
1571222520,361.094,-51.4573,-16.6315,179.341,1.34033,-145.525,764
1571222520,361.094,-51.4573,-16.6315,179.341,1.3623,-145.525,764
1571222520,361.094,-51.4573,-16.6315,179.341,1.3623,-145.525,764
1571222520,361.094,-51.4573,-16.6315,179.341,1.3623,-145.525,764
1571222520,361.094,-51.4573,-16.6315,179.341,1.3623,-145.525,764
1571222520,361.094,-51.4573,-16.6315,179.341,1.34033,-145.525,764
1571222520,361.094,-51.4573,-16.6315,179.341,1.34033,-145.525,764
1571222520,361.094,-51.4573,-16.6315,179.341,1.34033,-145.525,764
1571222520,361.094,-51.4573,-16.6315,179.341,1.34033,-145.525,764
1571222520,361.094,-51.4573,-16.6315,179.341,1.34033,-145.525,764
1571222520,361.094,-51.4573,-16.6315,179.363,1.34033,-145.525,764
1571222520,361.094,-51.4573,-16.6315,179.363,1.34033,-145.525,764
1571222520,361.094,-51.4573,-16.6315,179.363,1.34033,-145.525,764
1571222520,361.094,-51.4573,-16.7432,179.363,1.34033,-145.525,764
1571222520,361.094,-51.3457,-16.7432,179.363,1.34033,-145.525,768
1571222520,361.094,-51.3457,-16.7432,179.363,1.34033,-145.525,768
1571222520,361.094,-51.3457,-16.7432,179.363,1.34033,-145.525,768
1571222520,361.094,-51.3457,-16.7432,179.363,1.34033,-145.525,768
1571222520,361.094,-51.3457,-16.6315,179.385,1.34033,-145.525,768
1571222520,361.094,-51.3457,-16.6315,179.385,1.34033,-145.525,772
1571222520,361.094,-51.3457,-16.6315,179.385,1.34033,-145.525,772
1571222520,361.094,-51.3457,-16.6315,179.385,1.34033,-145.525,772
1571222520,361.094,-51.3457,-16.6315,179.363,1.34033,-145.525,772
1571222520,361.094,-51.3457,-16.6315,179.363,1.34033,-145.525,772
1571222520,361.094,-51.3457,-16.6315,179.363,1.34033,-145.525,772
1571222520,361.094,-51.4573,-16.6315,179.363,1.34033,-145.525,772
1571222520,361.094,-51.4573,-16.6315,179.363,1.34033,-145.525,772
1571222520,361.094,-51.4573,-16.6315,179.363,1.34033,-145.525,772
1571222520,361.094,-51.4573,-16.7432,179.363,1.34033,-145.525,772
1571222520,361.094,-51.4573,-16.7432,179.363,1.34033,-145.525,772
1571222520,361.094,-51.4573,-16.7432,179.363,1.34033,-145.525,772
1571222520,361.094,-51.4573,-16.7432,179.363,1.34033,-145.525,772
1571222520,361.094,-51.4573,-16.7432,179.363,1.34033,-145.525,772
1571222520,361.094,-51.4573,-16.7432,179.363,1.34033,-145.525,772
1571222520,361.206,-51.4573,-16.7432,179.363,1.34033,-145.525,768
1571222520,361.206,-51.4573,-16.7432,179.363,1.34033,-145.525,768
1571222520,361.206,-51.4573,-16.7432,179.363,1.34033,-145.525,768
