time,x,y,z,ax,ay,az,q
1569931939,249.92,156.828,-16.8548,178.484,1.42822,-144.932,260
1569931939,249.92,156.828,-16.8548,178.484,1.42822,-144.932,260
1569931939,249.92,156.828,-16.8548,178.484,1.42822,-144.932,260
1569931939,249.92,156.828,-16.8548,178.484,1.42822,-144.932,260
1569931939,249.92,156.828,-16.8548,178.484,1.4502,-144.932,260
1569931939,249.92,156.828,-16.8548,178.484,1.4502,-144.932,260
1569931939,249.92,156.828,-16.8548,178.484,1.4502,-144.932,260
1569931939,249.92,156.828,-16.8548,178.484,1.4502,-144.932,260
1569931939,249.92,156.828,-16.8548,178.484,1.42822,-144.932,260
1569931939,249.92,156.828,-16.8548,178.484,1.42822,-144.932,260
1569931939,249.92,156.828,-16.8548,178.484,1.42822,-144.932,260
1569931940,249.92,156.828,-16.8548,178.484,1.42822,-144.932,260
1569931940,249.92,156.939,-16.8548,178.484,1.42822,-144.932,256
1569931940,249.92,156.939,-16.8548,178.484,1.42822,-144.932,256
1569931940,249.92,156.939,-16.8548,178.484,1.42822,-144.932,256
1569931940,249.92,156.939,-16.8548,178.484,1.42822,-144.932,256
1569931940,249.92,156.939,-16.8548,178.484,1.42822,-144.932,256
1569931940,249.92,156.939,-16.8548,178.506,1.42822,-144.932,256
1569931940,249.92,156.939,-16.8548,178.506,1.42822,-144.932,256
1569931940,249.92,156.939,-16.8548,178.506,1.42822,-144.932,256
1569931940,249.92,156.939,-16.8548,178.506,1.42822,-144.932,256
1569931940,249.92,156.939,-16.8548,178.506,1.42822,-144.932,256
1569931940,249.92,156.939,-16.8548,178.506,1.4502,-144.932,256
1569931940,249.92,156.939,-16.8548,178.506,1.4502,-144.932,256
1569931940,249.92,156.939,-16.8548,178.506,1.4502,-144.932,256
1569931940,249.92,156.939,-16.8548,178.506,1.4502,-144.932,256
1569931940,249.92,156.939,-16.8548,178.506,1.4502,-144.932,256
1569931940,249.92,156.939,-16.8548,178.506,1.4502,-144.932,256
1569931940,249.92,156.939,-16.8548,178.506,1.4502,-144.932,256
1569931940,249.92,156.939,-16.8548,178.506,1.4502,-144.932,256
1569931940,249.92,156.939,-16.8548,178.506,1.4502,-144.932,256
1569931940,249.92,156.939,-16.8548,178.506,1.4502,-144.932,256
1569931940,249.92,156.939,-16.8548,178.506,1.4502,-144.932,256
1569931940,249.92,156.939,-16.8548,178.506,1.4502,-144.932,256
1569931940,249.92,156.939,-16.8548,178.506,1.4502,-144.932,256
1569931940,249.92,156.939,-16.8548,178.506,1.4502,-144.932,256
1569931940,249.92,156.939,-16.8548,178.506,1.4502,-144.932,256
1569931940,249.92,156.939,-16.8548,178.506,1.4502,-144.932,256
1569931940,249.92,156.939,-16.8548,178.506,1.4502,-144.932,256
1569931940,249.92,156.939,-16.8548,178.506,1.4502,-144.932,256
1569931940,249.92,156.939,-16.8548,178.506,1.4502,-144.932,256
1569931940,249.92,156.939,-16.8548,178.506,1.4502,-144.932,256
1569931940,249.92,156.939,-16.8548,178.506,1.4502,-144.932,256
1569931940,249.92,156.939,-16.8548,178.506,1.4502,-144.932,256
1569931940,249.92,156.939,-16.8548,178.506,1.4502,-144.932,256
1569931940,249.92,156.939,-16.8548,178.506,1.4502,-144.932,256
1569931940,249.92,156.939,-16.8548,178.506,1.4502,-144.932,256
1569931940,249.92,156.939,-16.8548,178.506,1.4502,-144.932,256
1569931940,249.92,156.939,-16.8548,178.506,1.4502,-144.932,256
1569931940,249.92,156.939,-16.8548,178.506,1.4502,-144.932,256
1569931940,249.92,156.939,-16.8548,178.506,1.4502,-144.932,256
1569931940,249.92,156.939,-16.8548,178.506,1.4502,-144.932,256
1569931940,249.92,156.939,-16.8548,178.506,1.4502,-144.932,256
1569931940,249.92,156.939,-16.8548,178.506,1.4502,-144.932,256
1569931940,249.92,156.939,-16.8548,178.484,1.4502,-144.932,256
1569931940,249.92,156.939,-16.8548,178.484,1.4502,-144.932,260
1569931940,249.92,156.939,-16.8548,178.484,1.4502,-144.932,260
1569931940,249.92,156.828,-16.8548,178.484,1.4502,-144.932,260
1569931940,249.92,156.828,-16.8548,178.484,1.4502,-144.932,260
1569931940,249.92,156.828,-16.8548,178.484,1.4502,-144.932,260
1569931940,249.92,156.828,-16.8548,178.484,1.4502,-144.932,260
1569931940,249.92,156.828,-16.8548,178.484,1.4502,-144.932,264
1569931940,249.92,156.828,-16.8548,178.484,1.4502,-144.932,264
1569931940,249.92,156.828,-16.8548,178.484,1.4502,-144.932,264
1569931940,249.92,156.828,-16.8548,178.484,1.4502,-144.932,264
1569931940,249.92,156.828,-16.8548,178.484,1.4502,-144.932,264
1569931940,249.92,156.828,-16.8548,178.484,1.4502,-144.932,264
1569931940,249.92,156.828,-16.8548,178.484,1.4502,-144.932,264
1569931940,249.92,156.828,-16.8548,178.484,1.4502,-144.932,264
1569931940,249.92,156.828,-16.8548,178.506,1.4502,-144.932,268
1569931940,249.92,156.828,-16.8548,178.506,1.4502,-144.932,268
1569931940,249.92,156.828,-16.8548,178.506,1.4502,-144.932,268
1569931940,249.92,156.828,-16.8548,178.506,1.4502,-144.932,268
1569931940,249.92,156.939,-16.8548,178.506,1.4502,-144.932,268
1569931940,249.92,156.939,-16.8548,178.506,1.4502,-144.932,268
1569931940,249.92,156.939,-16.8548,178.506,1.4502,-144.932,268
1569931940,249.92,156.939,-16.8548,178.506,1.4502,-144.932,268
1569931940,249.92,156.939,-16.8548,178.506,1.4502,-144.932,268
1569931940,249.92,156.939,-16.8548,178.506,1.4502,-144.932,268
1569931940,249.92,156.939,-16.8548,178.506,1.4502,-144.932,268
1569931940,249.92,156.939,-16.8548,178.506,1.4502,-144.932,268
1569931940,249.92,156.939,-16.8548,178.506,1.4502,-144.932,264
1569931940,249.92,156.939,-16.8548,178.506,1.4502,-144.932,264
1569931940,249.92,156.939,-16.8548,178.506,1.4502,-144.932,264
1569931940,249.92,156.939,-16.8548,178.506,1.4502,-144.932,264
1569931940,249.92,156.939,-16.8548,178.506,1.4502,-144.932,264
1569931940,249.92,156.939,-16.8548,178.506,1.4502,-144.932,264
1569931940,249.92,156.939,-16.8548,178.506,1.4502,-144.932,264
1569931940,249.92,156.939,-16.8548,178.506,1.4502,-144.932,264
1569931940,249.92,156.939,-16.8548,178.506,1.4502,-144.932,264
1569931940,249.92,156.939,-16.8548,178.506,1.4502,-144.932,264
1569931940,249.92,156.939,-16.8548,178.506,1.4502,-144.932,264
1569931940,249.92,156.939,-16.8548,178.506,1.4502,-144.932,264
1569931940,249.92,156.939,-16.8548,178.506,1.4502,-144.932,264
1569931940,249.92,156.939,-16.8548,178.506,1.4502,-144.932,260
1569931940,249.92,156.939,-16.8548,178.506,1.4502,-144.932,260
1569931940,249.92,156.939,-16.8548,178.506,1.47217,-144.932,260
1569931940,249.92,156.939,-16.8548,178.506,1.47217,-144.932,260
1569931940,249.92,156.828,-16.8548,178.506,1.47217,-144.932,260
1569931940,249.92,156.828,-16.8548,178.484,1.47217,-144.932,260
1569931940,249.92,156.828,-16.8548,178.484,1.47217,-144.932,260
1569931940,249.92,156.828,-16.8548,178.484,1.47217,-144.932,260
1569931940,249.92,156.828,-16.8548,178.484,1.47217,-144.932,260
1569931940,249.92,156.828,-16.8548,178.484,1.47217,-144.932,260
1569931940,249.92,156.828,-16.8548,178.484,1.47217,-144.932,260
1569931940,249.92,156.828,-16.8548,178.484,1.47217,-144.932,260
1569931940,249.92,156.828,-16.8548,178.484,1.47217,-144.932,260
1569931940,249.92,156.828,-16.8548,178.484,1.47217,-144.932,264
1569931940,249.92,156.828,-16.8548,178.484,1.47217,-144.932,264
1569931940,249.92,156.828,-16.8548,178.484,1.47217,-144.932,264
1569931940,249.92,156.828,-16.8548,178.484,1.47217,-144.932,264
1569931941,249.92,156.828,-16.8548,178.484,1.47217,-144.932,264
1569931941,249.92,156.828,-16.8548,178.484,1.47217,-144.932,264
1569931941,249.92,156.828,-16.8548,178.484,1.47217,-144.932,264
1569931941,249.92,156.828,-16.8548,178.484,1.47217,-144.932,260
1569931941,249.92,156.828,-16.8548,178.484,1.47217,-144.932,260
1569931941,249.92,156.828,-16.8548,178.484,1.47217,-144.932,260
1569931941,249.92,156.828,-16.8548,178.484,1.47217,-144.932,260
1569931941,249.92,156.828,-16.8548,178.484,1.47217,-144.932,260
1569931941,249.92,156.828,-16.8548,178.484,1.47217,-144.932,260
1569931941,249.92,156.828,-16.8548,178.484,1.47217,-144.932,260
1569931941,249.92,156.828,-16.8548,178.484,1.47217,-144.932,260
1569931941,249.92,156.828,-16.8548,178.484,1.47217,-144.932,260
1569931941,249.92,156.828,-16.8548,178.484,1.4502,-144.932,260
1569931941,249.92,156.828,-16.8548,178.484,1.4502,-144.932,260
1569931941,249.92,156.828,-16.8548,178.484,1.4502,-144.932,260
1569931941,249.92,156.828,-16.8548,178.484,1.4502,-144.932,260
1569931941,249.92,156.828,-16.8548,178.484,1.4502,-144.932,260
1569931941,249.92,156.828,-16.8548,178.484,1.4502,-144.932,260
1569931941,249.92,156.828,-16.8548,178.484,1.4502,-144.932,260
1569931941,249.92,156.939,-16.8548,178.484,1.4502,-144.932,260
1569931941,249.92,156.939,-16.8548,178.484,1.4502,-144.932,260
1569931941,249.92,156.939,-16.8548,178.484,1.4502,-144.932,260
1569931941,249.92,156.939,-16.8548,178.484,1.4502,-144.932,256
1569931941,249.92,156.939,-16.8548,178.484,1.4502,-144.932,256
1569931941,249.92,156.939,-16.8548,178.484,1.4502,-144.932,256
1569931941,249.92,156.939,-16.8548,178.484,1.4502,-144.932,256
1569931941,249.92,156.939,-16.8548,178.484,1.4502,-144.932,256
1569931941,249.92,156.939,-16.8548,178.484,1.4502,-144.932,256
1569931941,249.92,156.939,-16.8548,178.484,1.4502,-144.932,256
1569931941,249.92,156.939,-16.8548,178.506,1.4502,-144.932,256
1569931941,249.92,156.939,-16.8548,178.506,1.4502,-144.932,256
1569931941,249.92,156.939,-16.8548,178.506,1.4502,-144.932,260
1569931941,249.92,156.939,-16.8548,178.506,1.4502,-144.932,260
1569931941,249.92,156.939,-16.8548,178.506,1.4502,-144.932,260
1569931941,249.92,156.939,-16.8548,178.506,1.4502,-144.932,260
1569931941,249.92,156.828,-16.8548,178.484,1.4502,-144.932,260
1569931941,249.92,156.828,-16.8548,178.484,1.4502,-144.932,260
1569931941,249.92,156.828,-16.8548,178.484,1.4502,-144.932,260
1569931941,249.92,156.828,-16.8548,178.484,1.4502,-144.932,260
1569931941,249.92,156.828,-16.8548,178.484,1.4502,-144.932,260
1569931941,249.92,156.828,-16.8548,178.484,1.4502,-144.932,260
1569931941,249.92,156.828,-16.8548,178.484,1.4502,-144.932,260
1569931941,249.92,156.828,-16.8548,178.484,1.4502,-144.932,260
1569931941,249.92,156.828,-16.8548,178.484,1.4502,-144.932,260
1569931941,249.92,156.828,-16.8548,178.484,1.4502,-144.932,260
1569931941,249.92,156.828,-16.8548,178.484,1.4502,-144.932,260
1569931941,249.92,156.828,-16.8548,178.484,1.4502,-144.932,260
1569931941,249.92,156.828,-16.8548,178.484,1.4502,-144.932,260
1569931941,249.92,156.828,-16.8548,178.484,1.4502,-144.932,256
1569931941,249.92,156.828,-16.8548,178.484,1.4502,-144.932,256
1569931941,249.92,156.828,-16.8548,178.484,1.4502,-144.932,256
1569931941,249.92,156.939,-16.8548,178.506,1.4502,-144.932,256
1569931941,249.92,156.939,-16.8548,178.506,1.4502,-144.932,256
1569931941,249.92,156.939,-16.8548,178.506,1.4502,-144.932,256
1569931941,249.92,156.939,-16.8548,178.506,1.4502,-144.932,256
1569931941,249.92,156.939,-16.8548,178.506,1.4502,-144.932,256
1569931941,249.92,156.939,-16.8548,178.506,1.4502,-144.932,256
1569931941,249.92,156.939,-16.8548,178.506,1.4502,-144.932,256
1569931941,249.92,156.939,-16.8548,178.506,1.4502,-144.932,256
1569931941,249.92,156.939,-16.8548,178.506,1.4502,-144.932,256
1569931941,249.92,156.939,-16.8548,178.506,1.4502,-144.932,256
1569931941,249.92,156.939,-16.8548,178.506,1.4502,-144.932,256
1569931941,249.92,156.939,-16.8548,178.506,1.4502,-144.932,256
1569931941,249.92,156.939,-16.8548,178.506,1.4502,-144.932,256
1569931941,249.92,156.939,-16.8548,178.506,1.4502,-144.932,256
1569931941,249.92,156.939,-16.8548,178.506,1.4502,-144.932,256
1569931941,249.92,156.939,-16.8548,178.506,1.4502,-144.932,256
1569931941,249.92,156.939,-16.8548,178.506,1.4502,-144.932,256
1569931941,249.92,156.939,-16.8548,178.506,1.4502,-144.932,256
1569931941,249.92,156.939,-16.8548,178.506,1.4502,-144.932,256
1569931941,249.92,156.828,-16.8548,178.506,1.4502,-144.932,256
1569931941,249.92,156.828,-16.8548,178.506,1.4502,-144.932,256
1569931941,249.92,156.828,-16.8548,178.506,1.4502,-144.932,256
1569931941,249.92,156.828,-16.8548,178.506,1.4502,-144.932,256
1569931941,249.92,156.828,-16.8548,178.506,1.4502,-144.932,260
1569931941,249.92,156.828,-16.8548,178.506,1.4502,-144.932,260
1569931941,249.92,156.828,-16.8548,178.506,1.4502,-144.932,260
1569931941,249.92,156.939,-16.8548,178.506,1.4502,-144.932,260
1569931941,249.92,156.939,-16.8548,178.506,1.4502,-144.932,256
1569931941,249.92,156.939,-16.8548,178.506,1.4502,-144.932,256
1569931941,249.92,156.939,-16.8548,178.506,1.4502,-144.91,256
1569931941,249.92,156.939,-16.8548,178.506,1.4502,-144.91,256
1569931941,249.92,156.939,-16.8548,178.506,1.4502,-144.91,256
1569931941,249.92,156.939,-16.8548,178.506,1.4502,-144.91,256
1569931941,249.92,156.939,-16.8548,178.506,1.4502,-144.91,256
1569931941,249.92,156.939,-16.8548,178.506,1.4502,-144.91,256
1569931941,249.92,156.939,-16.8548,178.506,1.4502,-144.91,256
1569931941,249.92,156.939,-16.8548,178.506,1.4502,-144.91,256
1569931941,249.92,156.828,-16.8548,178.484,1.4502,-144.91,256
1569931941,249.92,156.828,-16.8548,178.484,1.4502,-144.91,256
1569931941,249.92,156.828,-16.8548,178.484,1.4502,-144.91,256
1569931941,249.92,156.828,-16.8548,178.484,1.4502,-144.91,256
1569931941,249.92,156.828,-16.8548,178.484,1.4502,-144.91,260
1569931941,249.92,156.828,-16.8548,178.484,1.4502,-144.91,260
1569931941,249.92,156.828,-16.8548,178.484,1.4502,-144.932,260
1569931941,249.92,156.828,-16.8548,178.484,1.4502,-144.932,260
1569931941,249.92,156.828,-16.8548,178.484,1.4502,-144.932,260
1569931941,249.92,156.828,-16.8548,178.484,1.4502,-144.932,260
1569931941,249.92,156.828,-16.8548,178.484,1.4502,-144.932,260
1569931941,249.92,156.828,-16.8548,178.484,1.4502,-144.932,260
1569931942,249.92,156.828,-16.8548,178.484,1.4502,-144.932,260
1569931942,249.92,156.828,-16.8548,178.484,1.4502,-144.932,264
1569931942,249.92,156.828,-16.8548,178.484,1.4502,-144.932,264
1569931942,249.92,156.828,-16.8548,178.484,1.4502,-144.932,264
1569931942,249.92,156.828,-16.8548,178.484,1.4502,-144.932,264
1569931942,249.92,156.828,-16.8548,178.484,1.4502,-144.91,264
1569931942,249.92,156.828,-16.8548,178.484,1.4502,-144.91,264
1569931942,249.92,156.828,-16.8548,178.484,1.4502,-144.91,264
1569931942,249.92,156.828,-16.8548,178.484,1.4502,-144.91,264
1569931942,249.92,156.828,-16.8548,178.484,1.4502,-144.91,264
1569931942,249.92,156.828,-16.8548,178.484,1.4502,-144.91,264
1569931942,249.92,156.828,-16.8548,178.484,1.4502,-144.91,264
1569931942,249.92,156.828,-16.8548,178.484,1.4502,-144.91,264
1569931942,249.92,156.828,-16.8548,178.484,1.4502,-144.91,264
1569931942,249.92,156.828,-16.8548,178.484,1.4502,-144.91,264
1569931942,249.92,156.828,-16.8548,178.484,1.4502,-144.91,264
1569931942,249.92,156.828,-16.8548,178.484,1.4502,-144.91,264
1569931942,249.92,156.828,-16.8548,178.484,1.4502,-144.91,264
1569931942,249.92,156.828,-16.8548,178.484,1.4502,-144.91,264
1569931942,249.92,156.828,-16.8548,178.484,1.4502,-144.91,264
1569931942,249.92,156.828,-16.8548,178.484,1.4502,-144.91,260
1569931942,249.92,156.828,-16.8548,178.484,1.4502,-144.932,260
1569931942,249.92,156.828,-16.8548,178.484,1.4502,-144.932,260
1569931942,249.92,156.828,-16.8548,178.484,1.4502,-144.932,260
1569931942,249.92,156.828,-16.8548,178.484,1.4502,-144.932,260
1569931942,249.92,156.828,-16.8548,178.484,1.4502,-144.932,260
1569931942,249.92,156.828,-16.8548,178.484,1.4502,-144.932,260
1569931942,249.92,156.828,-16.8548,178.484,1.4502,-144.932,260
1569931942,249.92,156.828,-16.8548,178.484,1.4502,-144.932,260
1569931942,249.92,156.828,-16.8548,178.484,1.4502,-144.932,260
1569931942,249.92,156.828,-16.8548,178.484,1.4502,-144.932,256
1569931942,249.92,156.828,-16.8548,178.484,1.4502,-144.932,256
1569931942,249.92,156.828,-16.8548,178.484,1.4502,-144.932,256
1569931942,249.92,156.828,-16.8548,178.484,1.4502,-144.932,256
1569931942,249.92,156.828,-16.8548,178.484,1.4502,-144.932,256
1569931942,249.92,156.828,-16.8548,178.484,1.4502,-144.932,256
1569931942,249.92,156.828,-16.8548,178.484,1.4502,-144.932,256
1569931942,249.92,156.828,-16.8548,178.484,1.4502,-144.932,256
1569931942,249.92,156.828,-16.8548,178.484,1.4502,-144.932,256
1569931942,249.92,156.828,-16.8548,178.484,1.4502,-144.932,256
1569931942,249.92,156.828,-16.8548,178.484,1.4502,-144.932,256
1569931942,249.92,156.828,-16.8548,178.484,1.4502,-144.932,256
1569931942,249.92,156.828,-16.8548,178.484,1.4502,-144.932,260
1569931942,249.92,156.828,-16.8548,178.484,1.4502,-144.932,260
1569931942,249.92,156.828,-16.8548,178.484,1.4502,-144.932,260
1569931942,249.92,156.828,-16.8548,178.484,1.4502,-144.932,260
1569931942,249.92,156.828,-16.8548,178.484,1.4502,-144.932,260
1569931942,249.92,156.828,-16.8548,178.484,1.4502,-144.932,260
1569931942,249.92,156.828,-16.8548,178.484,1.4502,-144.932,260
1569931942,249.92,156.828,-16.8548,178.484,1.4502,-144.932,260
1569931942,249.92,156.828,-16.8548,178.484,1.4502,-144.932,260
1569931942,249.92,156.828,-16.8548,178.484,1.4502,-144.932,260
1569931942,249.92,156.828,-16.8548,178.484,1.4502,-144.932,260
1569931942,249.92,156.828,-16.8548,178.484,1.4502,-144.932,260
1569931942,249.92,156.828,-16.8548,178.484,1.4502,-144.932,264
1569931942,249.92,156.828,-16.8548,178.484,1.4502,-144.932,264
1569931942,249.92,156.828,-16.8548,178.484,1.4502,-144.932,264
1569931942,249.92,156.828,-16.8548,178.484,1.4502,-144.932,264
1569931942,249.92,156.828,-16.8548,178.484,1.4502,-144.932,264
1569931942,249.92,156.828,-16.8548,178.484,1.4502,-144.932,264
1569931942,249.92,156.828,-16.8548,178.484,1.4502,-144.932,264
1569931942,249.92,156.828,-16.8548,178.484,1.4502,-144.932,264
1569931942,249.92,156.828,-16.8548,178.484,1.4502,-144.932,264
1569931942,249.92,156.828,-16.8548,178.484,1.4502,-144.932,260
1569931942,249.92,156.828,-16.8548,178.484,1.4502,-144.932,260
1569931942,249.92,156.828,-16.8548,178.484,1.4502,-144.932,260
1569931942,249.92,156.828,-16.8548,178.484,1.4502,-144.932,260
1569931942,249.92,156.828,-16.8548,178.484,1.4502,-144.932,260
1569931942,249.92,156.828,-16.8548,178.484,1.4502,-144.932,260
1569931942,249.92,156.828,-16.8548,178.484,1.4502,-144.932,260
1569931942,249.92,156.828,-16.8548,178.484,1.4502,-144.932,260
1569931942,249.92,156.828,-16.8548,178.484,1.4502,-144.932,260
1569931942,249.92,156.828,-16.8548,178.484,1.4502,-144.932,260
1569931942,249.92,156.828,-16.8548,178.484,1.4502,-144.91,260
1569931942,249.92,156.828,-16.8548,178.484,1.4502,-144.932,260
1569931942,249.92,156.828,-16.8548,178.484,1.4502,-144.932,260
1569931942,249.92,156.828,-16.8548,178.484,1.4502,-144.932,260
1569931942,249.92,156.828,-16.8548,178.484,1.4502,-144.932,260
1569931942,249.92,156.828,-16.8548,178.484,1.4502,-144.932,260
1569931942,249.92,156.828,-16.8548,178.484,1.4502,-144.932,260
1569931942,249.92,156.828,-16.8548,178.484,1.4502,-144.932,260
1569931942,249.92,156.828,-16.8548,178.484,1.47217,-144.932,260
1569931942,249.92,156.828,-16.8548,178.484,1.47217,-144.932,260
1569931942,249.92,156.828,-16.8548,178.484,1.47217,-144.932,260
1569931942,249.92,156.828,-16.8548,178.484,1.47217,-144.932,260
1569931942,249.92,156.828,-16.8548,178.484,1.47217,-144.932,260
1569931942,249.92,156.828,-16.8548,178.484,1.47217,-144.932,260
1569931942,249.92,156.828,-16.8548,178.484,1.4502,-144.932,260
1569931942,249.92,156.828,-16.8548,178.484,1.4502,-144.932,260
1569931942,249.92,156.828,-16.8548,178.484,1.4502,-144.932,260
1569931942,249.92,156.828,-16.8548,178.484,1.4502,-144.932,260
1569931942,249.92,156.828,-16.8548,178.484,1.4502,-144.932,260
1569931942,249.92,156.828,-16.8548,178.484,1.4502,-144.932,260
1569931942,249.92,156.828,-16.8548,178.484,1.4502,-144.932,260
1569931942,249.92,156.828,-16.8548,178.484,1.4502,-144.932,260
1569931942,249.92,156.828,-16.8548,178.484,1.4502,-144.932,260
1569931942,249.92,156.828,-16.8548,178.484,1.4502,-144.932,260
1569931942,249.92,156.828,-16.8548,178.484,1.4502,-144.932,260
1569931942,249.92,156.828,-16.8548,178.484,1.4502,-144.932,260
1569931942,249.92,156.828,-16.8548,178.484,1.4502,-144.932,260
1569931943,249.92,156.828,-16.8548,178.484,1.4502,-144.932,260
1569931943,249.92,156.828,-16.8548,178.484,1.4502,-144.932,260
1569931943,249.92,156.828,-16.8548,178.484,1.4502,-144.932,260
1569931943,249.92,156.828,-16.8548,178.484,1.4502,-144.932,260
1569931943,249.92,156.828,-16.8548,178.484,1.4502,-144.932,256
1569931943,249.92,156.828,-16.8548,178.484,1.4502,-144.932,256
1569931943,249.92,156.828,-16.8548,178.484,1.4502,-144.932,256
1569931943,249.92,156.828,-16.8548,178.484,1.4502,-144.932,256
1569931943,249.92,156.828,-16.8548,178.484,1.4502,-144.932,260
1569931943,249.92,156.828,-16.8548,178.484,1.4502,-144.932,260
1569931943,249.92,156.828,-16.8548,178.484,1.4502,-144.932,260
1569931943,249.92,156.828,-16.8548,178.484,1.4502,-144.932,260
1569931943,249.92,156.828,-16.8548,178.484,1.4502,-144.932,260
1569931943,249.92,156.828,-16.8548,178.484,1.4502,-144.932,260
1569931943,249.92,156.828,-16.8548,178.484,1.4502,-144.932,260
1569931943,249.92,156.828,-16.8548,178.484,1.4502,-144.932,260
1569931943,249.92,156.828,-16.8548,178.484,1.4502,-144.932,260
1569931943,249.92,156.828,-16.8548,178.484,1.4502,-144.932,260
1569931943,249.92,156.828,-16.8548,178.484,1.4502,-144.932,260
1569931943,249.92,156.828,-16.8548,178.484,1.4502,-144.932,260
1569931943,249.92,156.828,-16.8548,178.484,1.4502,-144.932,260
1569931943,249.92,156.828,-16.8548,178.484,1.4502,-144.932,260
1569931943,249.92,156.828,-16.8548,178.484,1.4502,-144.932,260
1569931943,249.92,156.828,-16.8548,178.484,1.4502,-144.932,260
1569931943,249.92,156.828,-16.8548,178.484,1.4502,-144.932,260
1569931943,249.92,156.828,-16.8548,178.484,1.4502,-144.91,260
1569931943,249.92,156.828,-16.8548,178.484,1.4502,-144.91,260
1569931943,249.92,156.828,-16.8548,178.484,1.4502,-144.91,260
1569931943,249.92,156.828,-16.8548,178.484,1.4502,-144.91,260
1569931943,249.92,156.828,-16.8548,178.484,1.4502,-144.91,260
1569931943,249.92,156.828,-16.8548,178.484,1.4502,-144.932,264
1569931943,249.92,156.828,-16.8548,178.484,1.4502,-144.932,264
1569931943,249.92,156.828,-16.8548,178.484,1.4502,-144.932,264
1569931943,249.92,156.828,-16.8548,178.484,1.4502,-144.932,264
1569931943,249.92,156.828,-16.8548,178.484,1.4502,-144.932,264
1569931943,249.92,156.828,-16.8548,178.484,1.4502,-144.932,264
1569931943,249.92,156.828,-16.8548,178.484,1.4502,-144.932,264
1569931943,249.92,156.828,-16.8548,178.484,1.4502,-144.932,264
1569931943,249.92,156.828,-16.8548,178.484,1.4502,-144.932,264
1569931943,249.92,156.828,-16.8548,178.484,1.4502,-144.932,264
1569931943,249.92,156.828,-16.8548,178.484,1.4502,-144.932,264
1569931943,249.92,156.828,-16.8548,178.506,1.4502,-144.932,264
1569931943,249.92,156.828,-16.8548,178.506,1.4502,-144.932,264
1569931943,249.92,156.828,-16.8548,178.506,1.4502,-144.932,264
1569931943,249.92,156.828,-16.8548,178.506,1.4502,-144.932,264
1569931943,249.92,156.828,-16.8548,178.506,1.4502,-144.932,264
1569931943,249.92,156.828,-16.8548,178.506,1.4502,-144.932,264
1569931943,249.92,156.828,-16.8548,178.506,1.4502,-144.932,264
1569931943,249.92,156.828,-16.8548,178.506,1.4502,-144.932,264
1569931943,249.92,156.828,-16.8548,178.506,1.4502,-144.932,264
1569931943,249.92,156.828,-16.8548,178.506,1.4502,-144.932,264
1569931943,249.92,156.828,-16.8548,178.506,1.4502,-144.932,264
1569931943,249.92,156.828,-16.8548,178.506,1.4502,-144.91,264
1569931943,249.92,156.828,-16.8548,178.506,1.4502,-144.91,264
1569931943,249.92,156.828,-16.8548,178.506,1.4502,-144.91,264
1569931943,249.92,156.828,-16.8548,178.506,1.4502,-144.91,268
1569931943,249.92,156.828,-16.8548,178.506,1.4502,-144.91,268
1569931943,249.92,156.828,-16.8548,178.506,1.4502,-144.91,268
1569931943,249.92,156.828,-16.8548,178.506,1.4502,-144.91,268
1569931943,249.92,156.828,-16.8548,178.506,1.4502,-144.91,268
1569931943,249.92,156.828,-16.8548,178.506,1.4502,-144.91,268
1569931943,249.92,156.828,-16.8548,178.506,1.4502,-144.91,268
1569931943,249.92,156.828,-16.8548,178.506,1.4502,-144.91,272
1569931943,249.92,156.828,-16.8548,178.506,1.4502,-144.91,272
1569931943,249.92,156.828,-16.8548,178.506,1.4502,-144.91,272
1569931943,249.92,156.828,-16.8548,178.506,1.4502,-144.91,272
1569931943,249.92,156.828,-16.8548,178.506,1.4502,-144.91,272
1569931943,249.92,156.828,-16.8548,178.506,1.4502,-144.91,272
1569931943,249.92,156.828,-16.8548,178.506,1.4502,-144.91,272
1569931943,249.92,156.828,-16.8548,178.506,1.4502,-144.91,272
1569931943,249.92,156.828,-16.8548,178.506,1.4502,-144.91,272
1569931943,249.92,156.828,-16.8548,178.506,1.4502,-144.91,272
1569931943,249.92,156.828,-16.8548,178.506,1.4502,-144.91,272
1569931943,249.92,156.828,-16.8548,178.506,1.4502,-144.91,272
1569931943,249.92,156.939,-16.8548,178.506,1.4502,-144.91,272
1569931943,249.92,156.939,-16.8548,178.506,1.4502,-144.91,268
1569931943,249.92,156.939,-16.8548,178.506,1.4502,-144.91,268
1569931943,249.92,156.939,-16.8548,178.506,1.4502,-144.91,268
1569931943,249.92,156.939,-16.8548,178.506,1.4502,-144.91,268
1569931943,249.92,156.939,-16.8548,178.506,1.4502,-144.91,268
1569931943,249.92,156.939,-16.8548,178.506,1.4502,-144.91,268
1569931943,249.92,156.939,-16.8548,178.506,1.4502,-144.91,268
1569931943,249.92,156.939,-16.8548,178.506,1.4502,-144.91,268
1569931943,249.92,156.939,-16.8548,178.506,1.4502,-144.91,268
1569931943,249.92,156.939,-16.8548,178.506,1.4502,-144.91,268
1569931943,249.92,156.939,-16.8548,178.506,1.4502,-144.91,268
1569931943,249.92,156.939,-16.8548,178.506,1.4502,-144.91,268
1569931943,249.92,156.939,-16.8548,178.506,1.4502,-144.91,268
1569931943,249.92,156.939,-16.8548,178.506,1.4502,-144.91,268
1569931943,249.92,156.939,-16.8548,178.506,1.4502,-144.91,268
1569931943,249.92,156.939,-16.8548,178.506,1.4502,-144.91,268
1569931943,249.92,156.939,-16.8548,178.506,1.4502,-144.91,268
1569931943,249.92,156.939,-16.8548,178.506,1.4502,-144.91,268
1569931943,249.92,156.939,-16.8548,178.506,1.4502,-144.91,268
1569931943,249.92,156.939,-16.8548,178.506,1.4502,-144.91,268
1569931943,249.92,156.939,-16.8548,178.506,1.4502,-144.91,268
1569931943,249.92,156.939,-16.8548,178.506,1.4502,-144.91,268
1569931943,249.92,156.939,-16.8548,178.506,1.4502,-144.91,272
1569931943,249.92,156.939,-16.8548,178.506,1.4502,-144.91,272
1569931943,249.92,156.939,-16.8548,178.506,1.4502,-144.91,272
1569931944,249.92,156.939,-16.8548,178.506,1.4502,-144.91,272
1569931944,249.92,156.939,-16.8548,178.506,1.4502,-144.91,272
1569931944,249.92,156.939,-16.8548,178.506,1.4502,-144.91,272
1569931944,249.92,156.939,-16.8548,178.506,1.4502,-144.91,272
1569931944,249.92,156.939,-16.8548,178.506,1.4502,-144.91,272
1569931944,249.92,156.939,-16.8548,178.506,1.4502,-144.91,272
1569931944,249.92,156.939,-16.8548,178.506,1.4502,-144.932,272
1569931944,249.92,156.939,-16.8548,178.506,1.4502,-144.932,272
1569931944,249.92,156.939,-16.8548,178.506,1.4502,-144.932,272
1569931944,249.92,156.939,-16.8548,178.506,1.4502,-144.932,272
1569931944,249.92,156.939,-16.8548,178.506,1.4502,-144.932,272
1569931944,249.92,156.939,-16.8548,178.506,1.4502,-144.932,272
1569931944,249.92,156.939,-16.8548,178.506,1.4502,-144.932,272
1569931944,249.92,156.939,-16.8548,178.506,1.4502,-144.932,272
1569931944,249.92,156.939,-16.8548,178.506,1.4502,-144.932,272
1569931944,249.92,156.939,-16.8548,178.506,1.4502,-144.932,272
1569931944,249.92,156.939,-16.8548,178.506,1.4502,-144.932,268
1569931944,249.92,156.939,-16.8548,178.506,1.4502,-144.932,268
1569931944,249.92,156.939,-16.8548,178.506,1.4502,-144.932,268
1569931944,249.92,156.939,-16.8548,178.506,1.4502,-144.932,268
1569931944,249.92,156.939,-16.8548,178.506,1.4502,-144.932,268
1569931944,249.92,156.939,-16.8548,178.506,1.4502,-144.932,264
1569931944,249.92,156.939,-16.8548,178.506,1.4502,-144.932,264
1569931944,249.92,156.939,-16.8548,178.506,1.4502,-144.932,264
1569931944,249.92,156.939,-16.8548,178.506,1.4502,-144.932,264
1569931944,249.92,156.939,-16.8548,178.506,1.4502,-144.932,264
1569931944,249.92,156.939,-16.8548,178.506,1.4502,-144.932,260
1569931944,249.92,156.939,-16.8548,178.506,1.4502,-144.932,260
1569931944,249.92,156.939,-16.8548,178.506,1.4502,-144.932,260
1569931944,249.92,156.939,-16.8548,178.506,1.4502,-144.932,260
1569931944,249.92,156.939,-16.8548,178.506,1.4502,-144.932,260
1569931944,249.92,156.939,-16.8548,178.506,1.4502,-144.932,260
1569931944,249.92,156.939,-16.8548,178.506,1.4502,-144.932,260
1569931944,249.92,156.939,-16.8548,178.506,1.4502,-144.932,260
1569931944,249.92,156.939,-16.8548,178.506,1.4502,-144.932,260
1569931944,249.92,156.939,-16.8548,178.506,1.4502,-144.932,260
1569931944,249.92,156.939,-16.8548,178.506,1.4502,-144.932,260
1569931944,249.92,156.939,-16.8548,178.506,1.4502,-144.932,260
1569931944,249.92,156.939,-16.8548,178.506,1.4502,-144.932,260
1569931944,249.92,156.939,-16.8548,178.506,1.4502,-144.932,260
1569931944,249.92,156.939,-16.8548,178.506,1.4502,-144.932,260
1569931944,249.92,156.939,-16.8548,178.506,1.4502,-144.932,260
1569931944,249.92,156.939,-16.8548,178.506,1.4502,-144.932,256
1569931944,249.92,156.939,-16.8548,178.506,1.4502,-144.932,256
1569931944,249.92,156.939,-16.8548,178.506,1.4502,-144.932,256
1569931944,249.92,156.939,-16.8548,178.506,1.4502,-144.932,256
1569931944,249.92,156.939,-16.8548,178.506,1.4502,-144.932,256
1569931944,249.92,156.939,-16.8548,178.506,1.4502,-144.932,256
1569931944,249.92,156.939,-16.8548,178.506,1.4502,-144.932,256
1569931944,249.92,156.939,-16.8548,178.506,1.4502,-144.932,256
1569931944,249.92,156.939,-16.8548,178.506,1.4502,-144.932,256
1569931944,249.92,156.939,-16.8548,178.506,1.4502,-144.932,256
1569931944,249.92,156.939,-16.8548,178.506,1.4502,-144.932,256
1569931944,249.92,156.939,-16.8548,178.506,1.4502,-144.932,256
1569931944,249.92,156.939,-16.8548,178.506,1.4502,-144.932,256
1569931944,249.92,156.939,-16.8548,178.506,1.4502,-144.932,256
1569931944,249.92,156.939,-16.8548,178.506,1.4502,-144.932,256
1569931944,249.92,156.939,-16.8548,178.506,1.4502,-144.932,256
1569931944,249.92,156.939,-16.8548,178.506,1.4502,-144.932,256
1569931944,249.92,156.939,-16.8548,178.506,1.4502,-144.932,256
1569931944,249.92,156.939,-16.8548,178.506,1.4502,-144.932,256
1569931944,249.92,156.939,-16.8548,178.506,1.4502,-144.932,256
1569931944,249.92,156.939,-16.8548,178.506,1.4502,-144.932,260
1569931944,249.92,156.939,-16.8548,178.506,1.4502,-144.932,260
1569931944,249.92,156.939,-16.8548,178.506,1.4502,-144.932,260
1569931944,249.92,156.939,-16.8548,178.506,1.4502,-144.932,260
1569931944,249.92,156.939,-16.8548,178.506,1.4502,-144.932,260
1569931944,249.92,156.939,-16.8548,178.506,1.4502,-144.932,260
1569931944,249.92,156.939,-16.8548,178.506,1.4502,-144.932,260
1569931944,249.92,156.939,-16.8548,178.506,1.4502,-144.932,260
1569931944,249.92,156.939,-16.8548,178.506,1.4502,-144.932,260
1569931944,249.92,156.939,-16.8548,178.506,1.4502,-144.932,260
1569931944,249.92,156.939,-16.8548,178.506,1.4502,-144.932,260
1569931944,249.92,156.939,-16.8548,178.506,1.4502,-144.932,260
1569931944,249.92,156.939,-16.8548,178.506,1.4502,-144.932,260
1569931944,249.92,156.939,-16.8548,178.506,1.4502,-144.932,260
1569931944,249.92,156.939,-16.8548,178.506,1.4502,-144.932,260
1569931944,249.92,156.939,-16.8548,178.506,1.4502,-144.932,260
1569931944,249.92,156.939,-16.8548,178.506,1.4502,-144.932,260
1569931944,249.92,156.939,-16.8548,178.506,1.4502,-144.932,260
1569931944,249.92,156.939,-16.8548,178.506,1.4502,-144.932,260
1569931944,249.92,156.939,-16.8548,178.506,1.4502,-144.932,260
1569931944,249.92,156.939,-16.8548,178.506,1.4502,-144.932,260
1569931944,249.92,156.939,-16.8548,178.506,1.4502,-144.932,260
1569931944,249.92,156.939,-16.8548,178.506,1.4502,-144.932,260
1569931944,249.92,156.939,-16.8548,178.506,1.42822,-144.932,260
1569931944,249.92,156.939,-16.8548,178.506,1.42822,-144.932,260
1569931944,249.92,156.939,-16.8548,178.506,1.42822,-144.932,260
1569931944,249.92,156.939,-16.9664,178.506,1.42822,-144.932,260
1569931949,265.1,140.196,-16.9664,178.528,1.18652,-144.602,288
1569931949,265.1,140.196,-16.9664,178.528,1.18652,-144.602,288
1569931949,265.1,140.196,-16.9664,178.528,1.18652,-144.602,288
1569931949,265.1,140.196,-16.9664,178.528,1.18652,-144.602,288
1569931949,265.1,140.308,-16.9664,178.528,1.18652,-144.602,288
1569931949,265.1,140.308,-16.9664,178.528,1.18652,-144.602,288
1569931949,265.1,140.308,-16.9664,178.528,1.18652,-144.602,288
1569931949,265.1,140.308,-16.9664,178.528,1.18652,-144.602,288
1569931949,265.1,140.196,-16.9664,178.528,1.18652,-144.602,288
1569931949,265.1,140.196,-16.8548,178.528,1.18652,-144.602,288
1569931949,265.1,140.196,-16.8548,178.528,1.18652,-144.602,288
1569931949,265.1,140.196,-16.8548,178.528,1.18652,-144.602,288
1569931949,265.1,140.196,-16.8548,178.528,1.18652,-144.602,288
1569931949,265.1,140.196,-16.8548,178.528,1.18652,-144.602,292
1569931949,265.1,140.196,-16.8548,178.528,1.18652,-144.602,292
1569931949,265.1,140.196,-16.8548,178.528,1.18652,-144.602,292
1569931949,265.1,140.196,-16.8548,178.528,1.18652,-144.602,292
1569931949,265.1,140.196,-16.8548,178.528,1.18652,-144.602,292
1569931949,265.1,140.196,-16.8548,178.528,1.18652,-144.602,292
1569931949,265.1,140.196,-16.8548,178.528,1.18652,-144.602,292
1569931949,265.1,140.196,-16.8548,178.528,1.18652,-144.602,292
1569931949,265.1,140.196,-16.8548,178.528,1.18652,-144.602,292
1569931949,265.1,140.196,-16.8548,178.528,1.18652,-144.602,292
1569931949,265.1,140.196,-16.8548,178.528,1.18652,-144.602,292
1569931949,265.1,140.196,-16.8548,178.528,1.18652,-144.602,292
1569931949,265.212,140.196,-16.8548,178.528,1.18652,-144.602,292
1569931949,265.212,140.196,-16.8548,178.528,1.18652,-144.602,288
1569931949,265.212,140.196,-16.8548,178.528,1.18652,-144.602,288
1569931949,265.212,140.196,-16.8548,178.528,1.18652,-144.602,288
1569931949,265.212,140.196,-16.8548,178.528,1.18652,-144.602,288
1569931949,265.212,140.196,-16.8548,178.528,1.18652,-144.602,288
1569931949,265.1,140.196,-16.8548,178.528,1.18652,-144.602,288
1569931949,265.1,140.196,-16.8548,178.528,1.18652,-144.602,288
1569931949,265.1,140.196,-16.8548,178.528,1.18652,-144.602,288
1569931949,265.1,140.196,-16.8548,178.528,1.18652,-144.602,288
1569931949,265.1,140.196,-16.8548,178.528,1.18652,-144.602,288
1569931949,265.1,140.196,-16.8548,178.528,1.18652,-144.602,288
1569931949,265.1,140.196,-16.9664,178.528,1.18652,-144.602,288
1569931949,265.1,140.196,-16.9664,178.528,1.18652,-144.602,288
1569931949,265.1,140.196,-16.9664,178.528,1.18652,-144.602,288
1569931949,265.1,140.196,-16.9664,178.528,1.18652,-144.602,288
1569931949,265.1,140.196,-16.9664,178.528,1.18652,-144.602,288
1569931949,265.1,140.196,-16.9664,178.528,1.18652,-144.602,288
1569931949,265.1,140.196,-16.9664,178.528,1.18652,-144.602,288
1569931949,265.1,140.196,-16.9664,178.528,1.18652,-144.602,288
1569931949,265.1,140.196,-16.9664,178.528,1.18652,-144.602,288
1569931949,265.1,140.196,-16.9664,178.528,1.18652,-144.602,288
1569931949,265.1,140.196,-16.9664,178.528,1.18652,-144.602,288
1569931949,265.1,140.196,-16.9664,178.528,1.18652,-144.602,288
1569931949,265.1,140.196,-16.9664,178.528,1.18652,-144.602,288
1569931949,265.1,140.196,-16.9664,178.528,1.18652,-144.602,288
1569931949,265.1,140.196,-16.9664,178.528,1.18652,-144.602,288
1569931949,265.1,140.196,-16.9664,178.528,1.16455,-144.602,288
1569931949,265.1,140.196,-16.9664,178.528,1.16455,-144.602,288
1569931949,265.1,140.196,-16.9664,178.528,1.16455,-144.602,288
1569931949,265.1,140.196,-16.9664,178.528,1.18652,-144.602,288
1569931949,265.1,140.196,-16.9664,178.528,1.18652,-144.602,288
1569931949,265.1,140.196,-16.9664,178.528,1.18652,-144.602,288
1569931949,265.1,140.196,-16.9664,178.528,1.18652,-144.602,288
1569931949,265.1,140.196,-16.9664,178.528,1.18652,-144.602,284
1569931949,265.1,140.196,-16.9664,178.528,1.18652,-144.602,284
1569931949,265.1,140.196,-16.9664,178.528,1.18652,-144.602,284
1569931949,265.1,140.196,-16.9664,178.528,1.18652,-144.602,284
1569931949,265.1,140.196,-16.9664,178.528,1.18652,-144.602,284
1569931949,265.1,140.196,-16.9664,178.528,1.18652,-144.602,284
1569931949,265.1,140.196,-16.9664,178.506,1.18652,-144.602,284
1569931949,265.1,140.196,-16.9664,178.506,1.18652,-144.602,284
1569931949,265.1,140.196,-16.9664,178.506,1.18652,-144.602,284
1569931949,265.1,140.196,-16.9664,178.506,1.18652,-144.602,284
1569931949,265.1,140.196,-16.9664,178.506,1.18652,-144.602,284
1569931949,265.1,140.196,-16.9664,178.506,1.18652,-144.602,284
1569931949,265.1,140.196,-16.8548,178.506,1.18652,-144.602,284
1569931949,265.1,140.196,-16.8548,178.528,1.18652,-144.602,284
1569931949,265.1,140.196,-16.8548,178.528,1.18652,-144.602,284
1569931949,265.1,140.196,-16.8548,178.528,1.18652,-144.602,284
1569931949,265.1,140.196,-16.8548,178.528,1.18652,-144.602,284
1569931949,265.1,140.196,-16.9664,178.528,1.18652,-144.602,284
1569931949,265.1,140.196,-16.9664,178.528,1.18652,-144.602,284
1569931949,265.1,140.196,-16.8548,178.528,1.18652,-144.602,284
1569931949,265.1,140.196,-16.9664,178.528,1.18652,-144.602,284
1569931949,265.1,140.196,-16.9664,178.528,1.18652,-144.602,284
1569931949,265.1,140.196,-16.9664,178.528,1.18652,-144.602,284
1569931949,265.1,140.196,-16.9664,178.528,1.18652,-144.602,284
1569931949,265.1,140.196,-16.9664,178.528,1.18652,-144.602,284
1569931949,265.1,140.196,-16.9664,178.528,1.18652,-144.602,284
1569931949,265.1,140.196,-16.8548,178.528,1.18652,-144.602,284
1569931949,265.1,140.196,-16.8548,178.528,1.18652,-144.602,284
1569931949,265.1,140.196,-16.8548,178.528,1.18652,-144.602,284
1569931949,265.1,140.196,-16.8548,178.528,1.18652,-144.602,284
1569931949,265.1,140.196,-16.8548,178.528,1.18652,-144.602,284
1569931949,265.1,140.196,-16.8548,178.528,1.18652,-144.602,284
1569931949,265.1,140.196,-16.8548,178.528,1.18652,-144.602,284
1569931949,265.1,140.308,-16.8548,178.528,1.18652,-144.602,284
1569931949,265.1,140.308,-16.8548,178.528,1.18652,-144.602,284
1569931949,265.1,140.308,-16.8548,178.528,1.18652,-144.602,284
1569931949,265.1,140.308,-16.8548,178.528,1.18652,-144.602,284
1569931950,265.1,140.308,-16.8548,178.528,1.18652,-144.602,284
1569931950,265.1,140.196,-16.8548,178.528,1.18652,-144.602,284
1569931950,265.1,140.196,-16.8548,178.528,1.18652,-144.602,284
1569931950,265.1,140.196,-16.8548,178.528,1.18652,-144.602,284
1569931950,265.1,140.196,-16.8548,178.528,1.18652,-144.602,284
1569931950,265.1,140.196,-16.8548,178.528,1.18652,-144.602,284
1569931950,265.1,140.196,-16.8548,178.528,1.18652,-144.602,284
1569931950,265.1,140.196,-16.8548,178.528,1.18652,-144.602,284
1569931950,265.1,140.196,-16.8548,178.528,1.18652,-144.602,284
1569931950,265.1,140.196,-16.8548,178.528,1.18652,-144.602,284
1569931950,265.1,140.196,-16.8548,178.528,1.18652,-144.602,284
1569931950,265.1,140.196,-16.8548,178.528,1.18652,-144.602,288
1569931950,265.1,140.196,-16.8548,178.528,1.18652,-144.602,288
1569931950,265.1,140.196,-16.8548,178.528,1.18652,-144.602,288
1569931950,265.1,140.196,-16.8548,178.528,1.18652,-144.602,288
1569931950,265.1,140.196,-16.8548,178.528,1.18652,-144.602,288
1569931950,265.1,140.196,-16.8548,178.528,1.18652,-144.602,288
1569931950,265.1,140.196,-16.8548,178.528,1.18652,-144.602,288
1569931950,265.1,140.196,-16.8548,178.528,1.18652,-144.602,288
1569931950,265.1,140.196,-16.8548,178.528,1.18652,-144.602,288
1569931950,265.1,140.196,-16.9664,178.528,1.18652,-144.602,288
1569931950,265.1,140.196,-16.9664,178.528,1.18652,-144.602,288
1569931950,265.1,140.196,-16.9664,178.528,1.18652,-144.602,288
1569931950,265.1,140.196,-16.8548,178.528,1.18652,-144.602,292
1569931950,265.1,140.196,-16.8548,178.528,1.18652,-144.602,292
1569931950,265.1,140.196,-16.8548,178.528,1.18652,-144.602,292
1569931950,265.1,140.196,-16.8548,178.528,1.18652,-144.602,292
1569931950,265.1,140.196,-16.8548,178.528,1.18652,-144.602,292
1569931950,265.1,140.196,-16.8548,178.528,1.18652,-144.602,292
1569931950,265.1,140.196,-16.8548,178.528,1.18652,-144.602,292
1569931950,265.1,140.196,-16.8548,178.528,1.18652,-144.602,292
1569931950,265.1,140.196,-16.8548,178.528,1.18652,-144.602,292
1569931950,265.1,140.196,-16.8548,178.528,1.18652,-144.602,296
1569931950,265.1,140.196,-16.8548,178.528,1.18652,-144.602,296
1569931950,265.1,140.196,-16.8548,178.528,1.18652,-144.602,296
1569931950,265.1,140.196,-16.8548,178.528,1.18652,-144.602,296
1569931950,265.1,140.196,-16.8548,178.528,1.18652,-144.602,296
1569931950,265.1,140.196,-16.8548,178.528,1.18652,-144.602,296
1569931950,265.1,140.196,-16.8548,178.528,1.18652,-144.602,296
1569931950,265.1,140.196,-16.8548,178.528,1.18652,-144.602,296
1569931950,265.1,140.196,-16.8548,178.528,1.18652,-144.602,296
1569931950,265.1,140.196,-16.8548,178.528,1.18652,-144.602,296
1569931950,265.1,140.196,-16.8548,178.528,1.18652,-144.602,296
1569931950,265.1,140.196,-16.8548,178.528,1.18652,-144.602,292
1569931950,265.1,140.196,-16.8548,178.528,1.18652,-144.602,292
1569931950,265.1,140.196,-16.8548,178.528,1.18652,-144.602,292
1569931950,265.1,140.196,-16.8548,178.506,1.18652,-144.602,292
1569931950,265.212,140.196,-16.8548,178.506,1.2085,-144.602,292
1569931950,265.212,140.196,-16.8548,178.528,1.2085,-144.602,292
1569931950,265.212,140.196,-16.8548,178.528,1.2085,-144.602,292
1569931950,265.1,140.196,-16.8548,178.528,1.2085,-144.602,292
1569931950,265.1,140.196,-16.8548,178.528,1.2085,-144.602,292
1569931950,265.1,140.196,-16.8548,178.528,1.2085,-144.602,292
1569931950,265.1,140.196,-16.8548,178.528,1.2085,-144.602,292
1569931950,265.1,140.196,-16.8548,178.528,1.2085,-144.602,292
1569931950,265.1,140.196,-16.8548,178.528,1.2085,-144.602,292
1569931950,265.1,140.196,-16.8548,178.528,1.2085,-144.602,288
1569931950,265.1,140.196,-16.8548,178.528,1.2085,-144.602,288
1569931950,265.1,140.196,-16.8548,178.528,1.2085,-144.602,288
1569931950,265.1,140.196,-16.8548,178.528,1.2085,-144.602,288
1569931950,265.1,140.196,-16.8548,178.528,1.2085,-144.602,288
1569931950,265.1,140.196,-16.8548,178.528,1.2085,-144.602,288
1569931950,265.1,140.196,-16.8548,178.528,1.2085,-144.602,288
1569931950,265.1,140.196,-16.8548,178.528,1.18652,-144.602,288
1569931950,265.1,140.196,-16.8548,178.506,1.18652,-144.602,288
1569931950,265.1,140.196,-16.8548,178.506,1.18652,-144.602,288
1569931950,265.1,140.196,-16.8548,178.506,1.18652,-144.602,288
1569931950,265.1,140.196,-16.8548,178.506,1.18652,-144.602,288
1569931950,265.1,140.196,-16.8548,178.506,1.18652,-144.602,288
1569931950,265.1,140.196,-16.8548,178.506,1.18652,-144.602,288
1569931950,265.212,140.196,-16.8548,178.506,1.18652,-144.602,288
1569931950,265.212,140.196,-16.8548,178.506,1.18652,-144.602,288
1569931950,265.212,140.196,-16.8548,178.506,1.18652,-144.602,288
1569931950,265.212,140.196,-16.8548,178.506,1.18652,-144.602,288
1569931950,265.212,140.196,-16.8548,178.506,1.18652,-144.602,288
1569931950,265.212,140.196,-16.8548,178.506,1.18652,-144.602,284
1569931950,265.212,140.196,-16.8548,178.506,1.18652,-144.602,284
1569931950,265.212,140.196,-16.8548,178.506,1.18652,-144.602,284
1569931950,265.212,140.196,-16.8548,178.506,1.18652,-144.602,284
1569931950,265.212,140.196,-16.8548,178.506,1.18652,-144.602,284
1569931950,265.212,140.196,-16.8548,178.506,1.18652,-144.602,284
1569931950,265.212,140.196,-16.8548,178.506,1.18652,-144.602,284
1569931950,265.212,140.196,-16.8548,178.506,1.18652,-144.602,280
1569931950,265.212,140.196,-16.8548,178.528,1.18652,-144.602,280
1569931950,265.212,140.196,-16.8548,178.528,1.18652,-144.602,280
1569931950,265.212,140.196,-16.8548,178.528,1.18652,-144.602,280
1569931950,265.212,140.196,-16.8548,178.528,1.18652,-144.602,280
1569931950,265.212,140.196,-16.8548,178.528,1.18652,-144.602,280
1569931950,265.212,140.196,-16.8548,178.528,1.18652,-144.602,280
1569931950,265.212,140.196,-16.8548,178.528,1.18652,-144.602,280
1569931950,265.212,140.196,-16.8548,178.528,1.18652,-144.602,280
1569931950,265.212,140.196,-16.8548,178.528,1.18652,-144.602,280
1569931950,265.1,140.196,-16.8548,178.528,1.18652,-144.602,280
1569931950,265.1,140.196,-16.8548,178.528,1.18652,-144.602,280
1569931950,265.1,140.196,-16.8548,178.528,1.18652,-144.602,280
1569931950,265.1,140.196,-16.8548,178.528,1.18652,-144.602,284
1569931950,265.1,140.196,-16.8548,178.528,1.18652,-144.602,284
1569931950,265.1,140.196,-16.8548,178.528,1.18652,-144.602,284
1569931950,265.1,140.308,-16.8548,178.528,1.18652,-144.602,284
1569931950,265.1,140.308,-16.8548,178.528,1.18652,-144.602,284
1569931951,265.1,140.308,-16.8548,178.55,1.18652,-144.602,284
1569931951,265.1,140.308,-16.8548,178.55,1.18652,-144.602,284
1569931951,265.1,140.308,-16.9664,178.55,1.18652,-144.602,284
1569931951,265.1,140.308,-16.9664,178.55,1.18652,-144.602,284
1569931951,265.1,140.308,-16.9664,178.55,1.18652,-144.602,284
1569931951,265.1,140.308,-16.9664,178.55,1.18652,-144.602,284
1569931951,265.1,140.308,-16.9664,178.55,1.18652,-144.602,280
1569931951,265.1,140.308,-16.9664,178.55,1.18652,-144.602,280
1569931951,265.1,140.308,-16.9664,178.55,1.18652,-144.602,280
1569931951,265.1,140.308,-16.9664,178.55,1.18652,-144.602,280
1569931951,265.1,140.308,-16.9664,178.55,1.18652,-144.602,280
1569931951,265.1,140.308,-16.9664,178.55,1.18652,-144.602,280
1569931951,265.1,140.308,-16.9664,178.55,1.18652,-144.602,280
1569931951,265.1,140.308,-16.9664,178.55,1.18652,-144.602,284
1569931951,265.1,140.308,-16.9664,178.55,1.18652,-144.602,284
1569931951,265.1,140.308,-16.9664,178.55,1.18652,-144.602,284
1569931951,265.1,140.308,-16.9664,178.55,1.18652,-144.602,284
1569931951,265.1,140.308,-16.9664,178.55,1.18652,-144.602,284
1569931951,265.1,140.308,-16.9664,178.528,1.18652,-144.602,284
1569931951,265.1,140.308,-16.9664,178.528,1.18652,-144.602,284
1569931951,265.1,140.308,-16.9664,178.528,1.18652,-144.602,284
1569931951,265.1,140.308,-16.9664,178.528,1.18652,-144.602,284
1569931951,265.1,140.308,-16.8548,178.528,1.18652,-144.602,284
1569931951,265.1,140.308,-16.8548,178.528,1.18652,-144.602,284
1569931951,265.1,140.308,-16.8548,178.528,1.18652,-144.602,284
1569931951,265.1,140.308,-16.8548,178.528,1.18652,-144.602,284
1569931951,265.1,140.308,-16.8548,178.528,1.18652,-144.602,284
1569931951,265.1,140.308,-16.8548,178.528,1.18652,-144.602,284
1569931951,265.1,140.308,-16.8548,178.528,1.18652,-144.602,284
1569931951,265.1,140.308,-16.8548,178.528,1.18652,-144.602,284
1569931951,265.1,140.308,-16.8548,178.528,1.18652,-144.602,284
1569931951,265.1,140.308,-16.8548,178.528,1.18652,-144.602,284
1569931951,265.1,140.308,-16.8548,178.528,1.18652,-144.602,284
1569931951,265.1,140.308,-16.8548,178.528,1.18652,-144.602,288
1569931951,265.1,140.308,-16.8548,178.528,1.18652,-144.602,288
1569931951,265.1,140.308,-16.8548,178.528,1.18652,-144.602,288
1569931951,265.1,140.308,-16.8548,178.528,1.18652,-144.602,288
1569931951,265.1,140.308,-16.8548,178.528,1.18652,-144.602,288
1569931951,265.1,140.308,-16.8548,178.528,1.18652,-144.602,288
1569931951,265.1,140.308,-16.8548,178.528,1.18652,-144.602,288
1569931951,265.1,140.308,-16.8548,178.528,1.18652,-144.602,288
1569931951,265.1,140.308,-16.8548,178.528,1.18652,-144.602,288
1569931951,265.1,140.308,-16.8548,178.528,1.18652,-144.602,288
1569931951,265.1,140.308,-16.8548,178.528,1.18652,-144.602,288
1569931951,265.1,140.308,-16.8548,178.528,1.18652,-144.602,288
1569931951,265.1,140.308,-16.8548,178.528,1.18652,-144.602,288
1569931951,265.1,140.308,-16.8548,178.528,1.18652,-144.602,288
1569931951,265.1,140.308,-16.8548,178.55,1.18652,-144.602,288
1569931951,265.1,140.308,-16.8548,178.55,1.18652,-144.602,288
1569931951,265.1,140.308,-16.8548,178.528,1.18652,-144.602,288
1569931951,265.1,140.308,-16.8548,178.528,1.18652,-144.602,288
1569931951,265.1,140.308,-16.8548,178.528,1.18652,-144.602,288
1569931951,265.1,140.308,-16.8548,178.528,1.18652,-144.602,288
1569931951,265.1,140.308,-16.8548,178.528,1.18652,-144.602,288
1569931951,265.1,140.308,-16.8548,178.528,1.18652,-144.602,288
1569931951,265.1,140.196,-16.8548,178.528,1.18652,-144.602,288
1569931951,265.1,140.196,-16.8548,178.528,1.18652,-144.602,288
1569931951,265.1,140.196,-16.8548,178.528,1.18652,-144.602,288
1569931951,265.1,140.196,-16.8548,178.528,1.18652,-144.602,288
1569931951,265.1,140.196,-16.8548,178.528,1.18652,-144.602,288
1569931951,265.1,140.196,-16.8548,178.528,1.18652,-144.602,288
1569931951,265.1,140.196,-16.8548,178.528,1.18652,-144.602,288
1569931951,265.1,140.196,-16.8548,178.528,1.18652,-144.602,292
1569931951,265.1,140.308,-16.8548,178.528,1.18652,-144.602,292
1569931951,265.1,140.308,-16.8548,178.528,1.18652,-144.602,292
1569931951,265.1,140.308,-16.8548,178.528,1.18652,-144.602,292
1569931951,265.1,140.308,-16.8548,178.528,1.18652,-144.602,292
1569931951,265.1,140.308,-16.9664,178.528,1.18652,-144.602,292
1569931951,265.1,140.308,-16.9664,178.528,1.18652,-144.602,292
1569931951,265.1,140.308,-16.9664,178.528,1.18652,-144.602,292
1569931951,265.1,140.196,-16.9664,178.528,1.18652,-144.602,292
1569931951,265.1,140.196,-16.9664,178.528,1.18652,-144.602,292
1569931951,265.1,140.196,-16.9664,178.528,1.18652,-144.58,292
1569931951,265.1,140.196,-16.9664,178.528,1.16455,-144.58,292
1569931951,265.1,140.196,-16.9664,178.528,1.16455,-144.58,292
1569931951,265.1,140.196,-16.9664,178.528,1.16455,-144.58,288
1569931951,265.1,140.196,-16.9664,178.528,1.16455,-144.58,288
1569931951,265.1,140.196,-16.9664,178.528,1.16455,-144.58,288
1569931951,265.1,140.308,-16.9664,178.528,1.16455,-144.602,288
1569931951,265.1,140.308,-16.9664,178.528,1.16455,-144.602,288
1569931951,265.1,140.308,-16.9664,178.528,1.16455,-144.602,288
1569931951,265.1,140.308,-16.9664,178.528,1.16455,-144.602,288
1569931951,265.1,140.308,-16.9664,178.528,1.18652,-144.602,288
1569931951,265.1,140.308,-16.9664,178.528,1.18652,-144.602,288
1569931951,265.1,140.308,-16.9664,178.528,1.18652,-144.602,288
1569931951,265.1,140.308,-16.9664,178.528,1.18652,-144.602,288
1569931951,265.1,140.308,-16.9664,178.528,1.18652,-144.602,288
1569931951,265.1,140.308,-16.9664,178.528,1.18652,-144.602,288
1569931951,265.1,140.308,-16.9664,178.528,1.18652,-144.602,288
1569931951,265.1,140.308,-16.9664,178.528,1.18652,-144.602,288
1569931951,265.1,140.308,-16.9664,178.528,1.18652,-144.602,288
1569931951,265.1,140.308,-16.9664,178.55,1.18652,-144.602,288
1569931951,265.1,140.308,-16.9664,178.55,1.18652,-144.602,288
1569931951,265.1,140.308,-16.9664,178.55,1.18652,-144.602,288
1569931951,265.1,140.308,-16.9664,178.55,1.18652,-144.602,288
1569931951,265.1,140.308,-16.9664,178.55,1.18652,-144.602,288
1569931951,265.1,140.308,-16.9664,178.55,1.18652,-144.602,288
1569931951,265.1,140.308,-16.9664,178.55,1.18652,-144.602,288
1569931951,265.1,140.308,-16.9664,178.55,1.18652,-144.602,288
1569931951,265.1,140.308,-16.9664,178.528,1.18652,-144.602,288
1569931952,265.1,140.308,-16.8548,178.528,1.18652,-144.602,288
1569931952,265.1,140.308,-16.8548,178.528,1.18652,-144.602,288
1569931952,265.1,140.308,-16.8548,178.528,1.18652,-144.602,288
1569931952,265.1,140.308,-16.8548,178.528,1.18652,-144.602,288
1569931952,265.1,140.308,-16.8548,178.528,1.18652,-144.602,288
1569931952,265.1,140.308,-16.8548,178.528,1.18652,-144.602,288
1569931952,265.1,140.308,-16.8548,178.528,1.18652,-144.602,288
1569931952,265.1,140.308,-16.8548,178.528,1.18652,-144.602,288
1569931952,265.1,140.308,-16.8548,178.528,1.18652,-144.602,288
1569931952,265.1,140.308,-16.8548,178.528,1.18652,-144.602,288
1569931952,265.1,140.308,-16.8548,178.528,1.18652,-144.602,288
1569931952,265.1,140.308,-16.8548,178.528,1.18652,-144.602,288
1569931952,265.1,140.308,-16.8548,178.528,1.18652,-144.602,288
1569931952,265.1,140.308,-16.8548,178.528,1.18652,-144.602,288
1569931952,265.1,140.308,-16.8548,178.528,1.18652,-144.602,288
1569931952,265.1,140.308,-16.8548,178.528,1.18652,-144.602,288
1569931952,265.1,140.308,-16.8548,178.528,1.18652,-144.602,288
1569931952,265.1,140.308,-16.8548,178.528,1.18652,-144.602,288
1569931952,265.1,140.196,-16.8548,178.528,1.18652,-144.602,292
1569931952,265.1,140.196,-16.8548,178.528,1.18652,-144.602,292
1569931952,265.1,140.196,-16.8548,178.528,1.18652,-144.602,292
1569931952,265.1,140.196,-16.8548,178.528,1.18652,-144.602,292
1569931952,265.1,140.196,-16.8548,178.528,1.18652,-144.602,292
1569931952,265.1,140.308,-16.8548,178.528,1.18652,-144.602,292
1569931952,265.1,140.308,-16.8548,178.528,1.18652,-144.602,292
1569931952,265.1,140.308,-16.8548,178.528,1.18652,-144.602,292
1569931952,265.1,140.308,-16.8548,178.528,1.18652,-144.602,292
1569931952,265.1,140.308,-16.8548,178.528,1.18652,-144.602,292
1569931952,265.1,140.308,-16.8548,178.528,1.18652,-144.602,292
1569931952,265.1,140.308,-16.8548,178.528,1.18652,-144.602,292
1569931952,265.1,140.196,-16.8548,178.528,1.18652,-144.602,292
1569931952,265.1,140.196,-16.8548,178.528,1.18652,-144.602,292
1569931952,265.1,140.196,-16.8548,178.528,1.18652,-144.602,292
1569931952,265.1,140.196,-16.8548,178.528,1.18652,-144.602,292
1569931952,265.1,140.196,-16.8548,178.528,1.18652,-144.602,292
1569931952,265.1,140.196,-16.8548,178.528,1.18652,-144.602,292
1569931952,265.1,140.196,-16.8548,178.528,1.18652,-144.602,292
1569931952,265.1,140.196,-16.8548,178.528,1.18652,-144.602,292
1569931952,265.1,140.196,-16.8548,178.528,1.18652,-144.602,292
1569931952,265.1,140.196,-16.8548,178.528,1.18652,-144.602,292
1569931952,265.1,140.196,-16.8548,178.528,1.18652,-144.602,292
1569931952,265.1,140.196,-16.8548,178.528,1.18652,-144.602,292
1569931952,265.1,140.196,-16.8548,178.528,1.18652,-144.602,292
1569931952,265.1,140.196,-16.8548,178.528,1.18652,-144.602,292
1569931952,265.1,140.196,-16.8548,178.528,1.18652,-144.602,292
1569931952,265.1,140.196,-16.8548,178.528,1.18652,-144.602,292
1569931952,265.1,140.196,-16.8548,178.528,1.18652,-144.602,292
1569931952,265.1,140.196,-16.8548,178.528,1.18652,-144.602,292
1569931952,265.1,140.196,-16.8548,178.528,1.18652,-144.602,292
1569931952,265.1,140.196,-16.8548,178.528,1.18652,-144.602,292
1569931952,265.1,140.196,-16.8548,178.528,1.18652,-144.602,292
1569931952,265.1,140.196,-16.8548,178.528,1.18652,-144.602,292
1569931952,265.1,140.196,-16.8548,178.528,1.18652,-144.602,292
1569931952,265.1,140.196,-16.8548,178.528,1.18652,-144.602,292
1569931952,265.1,140.196,-16.8548,178.528,1.18652,-144.602,292
1569931952,265.1,140.196,-16.8548,178.528,1.18652,-144.602,292
1569931952,265.1,140.196,-16.8548,178.528,1.18652,-144.602,292
1569931952,265.1,140.196,-16.8548,178.528,1.18652,-144.602,292
1569931952,265.1,140.196,-16.8548,178.528,1.18652,-144.602,292
1569931952,265.1,140.196,-16.8548,178.528,1.18652,-144.602,292
1569931952,265.1,140.196,-16.8548,178.528,1.18652,-144.602,292
1569931952,265.1,140.196,-16.8548,178.528,1.18652,-144.602,292
1569931952,265.1,140.196,-16.8548,178.528,1.18652,-144.602,292
1569931952,265.1,140.196,-16.8548,178.528,1.18652,-144.602,296
1569931952,265.1,140.196,-16.8548,178.528,1.18652,-144.602,296
1569931952,265.1,140.196,-16.8548,178.528,1.18652,-144.602,296
1569931952,265.1,140.196,-16.8548,178.528,1.18652,-144.602,292
1569931952,265.1,140.196,-16.8548,178.528,1.18652,-144.602,292
1569931952,265.1,140.196,-16.8548,178.528,1.18652,-144.602,292
1569931952,265.1,140.196,-16.8548,178.528,1.18652,-144.602,292
1569931952,265.1,140.196,-16.8548,178.528,1.18652,-144.602,292
1569931952,265.1,140.196,-16.8548,178.528,1.18652,-144.602,292
1569931952,265.1,140.196,-16.8548,178.528,1.18652,-144.602,292
1569931952,265.1,140.196,-16.8548,178.528,1.18652,-144.602,292
1569931952,265.1,140.196,-16.8548,178.528,1.18652,-144.602,292
1569931952,265.1,140.196,-16.8548,178.528,1.18652,-144.602,296
1569931952,265.1,140.196,-16.8548,178.528,1.18652,-144.602,296
1569931952,265.1,140.196,-16.8548,178.528,1.18652,-144.602,296
1569931952,265.1,140.196,-16.8548,178.528,1.18652,-144.602,296
1569931952,265.1,140.196,-16.8548,178.528,1.18652,-144.602,296
1569931952,265.1,140.196,-16.8548,178.528,1.18652,-144.602,296
1569931952,265.1,140.196,-16.8548,178.528,1.18652,-144.602,296
1569931952,265.1,140.196,-16.8548,178.528,1.18652,-144.602,296
1569931952,265.1,140.196,-16.8548,178.528,1.18652,-144.602,296
1569931952,265.1,140.196,-16.8548,178.528,1.18652,-144.602,296
1569931952,265.1,140.196,-16.8548,178.528,1.18652,-144.602,296
1569931952,265.1,140.196,-16.8548,178.528,1.18652,-144.602,296
1569931952,265.1,140.196,-16.8548,178.528,1.18652,-144.602,296
1569931952,265.1,140.196,-16.8548,178.528,1.18652,-144.602,296
1569931952,265.1,140.196,-16.8548,178.528,1.18652,-144.602,296
1569931952,265.1,140.196,-16.8548,178.528,1.18652,-144.602,296
1569931952,265.1,140.196,-16.8548,178.528,1.18652,-144.602,296
1569931952,265.1,140.196,-16.8548,178.528,1.18652,-144.58,296
1569931952,265.1,140.196,-16.8548,178.506,1.18652,-144.58,296
1569931952,265.1,140.196,-16.8548,178.506,1.18652,-144.58,296
1569931952,265.1,140.196,-16.8548,178.506,1.18652,-144.58,296
1569931952,265.1,140.196,-16.8548,178.506,1.18652,-144.58,296
1569931952,265.1,140.196,-16.8548,178.506,1.18652,-144.58,292
1569931952,265.1,140.196,-16.8548,178.506,1.18652,-144.58,292
1569931952,265.1,140.196,-16.8548,178.506,1.18652,-144.58,292
1569931953,265.1,140.196,-16.8548,178.506,1.18652,-144.58,292
1569931953,265.1,140.196,-16.8548,178.506,1.18652,-144.58,292
1569931953,265.1,140.196,-16.8548,178.506,1.18652,-144.58,292
1569931953,265.1,140.196,-16.8548,178.506,1.18652,-144.58,292
1569931953,265.1,140.196,-16.8548,178.506,1.2085,-144.58,292
1569931953,265.1,140.196,-16.8548,178.506,1.2085,-144.58,288
1569931953,265.1,140.196,-16.8548,178.506,1.2085,-144.58,288
1569931953,265.1,140.196,-16.8548,178.506,1.2085,-144.58,288
1569931953,265.1,140.196,-16.8548,178.506,1.2085,-144.58,288
1569931953,265.1,140.196,-16.8548,178.506,1.18652,-144.602,288
1569931953,265.1,140.196,-16.8548,178.506,1.18652,-144.602,288
1569931953,265.1,140.196,-16.8548,178.506,1.18652,-144.602,288
1569931953,265.1,140.196,-16.8548,178.506,1.18652,-144.602,284
1569931953,265.1,140.196,-16.8548,178.506,1.18652,-144.602,284
1569931953,265.1,140.196,-16.8548,178.506,1.18652,-144.602,284
1569931953,265.1,140.196,-16.8548,178.528,1.18652,-144.602,284
1569931953,265.1,140.196,-16.8548,178.528,1.18652,-144.602,284
1569931953,265.1,140.196,-16.8548,178.528,1.18652,-144.602,284
1569931953,265.1,140.196,-16.8548,178.528,1.18652,-144.602,284
1569931953,265.1,140.196,-16.8548,178.528,1.18652,-144.602,284
1569931953,265.1,140.196,-16.8548,178.528,1.18652,-144.602,284
1569931953,265.1,140.196,-16.8548,178.528,1.18652,-144.602,284
1569931953,265.1,140.196,-16.8548,178.506,1.18652,-144.602,284
1569931953,265.1,140.196,-16.8548,178.506,1.18652,-144.602,284
1569931953,265.1,140.196,-16.8548,178.506,1.18652,-144.602,284
1569931953,265.1,140.196,-16.8548,178.506,1.18652,-144.602,284
1569931953,265.1,140.196,-16.8548,178.506,1.18652,-144.602,284
1569931953,265.1,140.196,-16.8548,178.506,1.18652,-144.602,284
1569931953,265.1,140.196,-16.8548,178.506,1.18652,-144.602,284
1569931953,265.1,140.196,-16.8548,178.506,1.18652,-144.602,284
1569931953,265.1,140.196,-16.8548,178.506,1.18652,-144.602,284
1569931953,265.1,140.196,-16.8548,178.506,1.18652,-144.602,284
1569931953,265.1,140.196,-16.8548,178.506,1.18652,-144.602,284
1569931953,265.1,140.196,-16.8548,178.506,1.18652,-144.602,288
1569931953,265.1,140.196,-16.8548,178.506,1.18652,-144.602,288
1569931953,265.1,140.196,-16.8548,178.506,1.18652,-144.602,288
1569931953,265.1,140.196,-16.8548,178.506,1.18652,-144.602,288
1569931953,265.1,140.196,-16.8548,178.506,1.18652,-144.602,288
1569931953,265.1,140.196,-16.8548,178.506,1.18652,-144.602,288
1569931953,265.1,140.196,-16.8548,178.506,1.18652,-144.602,288
1569931953,265.1,140.196,-16.8548,178.506,1.18652,-144.602,288
1569931953,265.1,140.196,-16.8548,178.506,1.18652,-144.602,288
1569931953,265.1,140.196,-16.8548,178.506,1.18652,-144.602,288
1569931953,265.1,140.196,-16.8548,178.506,1.18652,-144.602,288
1569931953,265.1,140.196,-16.8548,178.506,1.18652,-144.602,288
1569931953,265.1,140.196,-16.8548,178.506,1.18652,-144.602,288
1569931953,265.1,140.196,-16.8548,178.506,1.18652,-144.602,288
1569931953,265.1,140.196,-16.8548,178.506,1.18652,-144.602,288
1569931953,265.1,140.196,-16.8548,178.506,1.18652,-144.602,288
1569931953,265.1,140.196,-16.8548,178.506,1.18652,-144.602,288
1569931953,265.1,140.196,-16.9664,178.506,1.18652,-144.602,288
1569931953,265.1,140.196,-16.9664,178.506,1.18652,-144.602,288
1569931953,265.1,140.196,-16.9664,178.506,1.18652,-144.602,288
1569931953,265.1,140.196,-16.9664,178.506,1.18652,-144.602,288
1569931953,265.1,140.196,-16.9664,178.506,1.18652,-144.602,288
1569931953,265.1,140.196,-16.9664,178.506,1.18652,-144.602,288
1569931953,265.1,140.196,-16.9664,178.506,1.18652,-144.602,288
1569931953,265.1,140.196,-16.8548,178.506,1.18652,-144.602,288
1569931953,265.1,140.196,-16.8548,178.506,1.18652,-144.602,288
1569931953,265.1,140.196,-16.8548,178.506,1.18652,-144.602,288
1569931953,265.1,140.196,-16.8548,178.506,1.18652,-144.602,288
1569931953,265.1,140.196,-16.8548,178.506,1.18652,-144.602,288
1569931953,265.1,140.196,-16.8548,178.506,1.18652,-144.602,288
1569931953,265.1,140.196,-16.8548,178.506,1.18652,-144.602,288
1569931953,265.1,140.196,-16.8548,178.506,1.18652,-144.602,288
1569931953,265.1,140.196,-16.8548,178.506,1.18652,-144.602,288
1569931953,265.1,140.196,-16.8548,178.506,1.18652,-144.602,288
1569931953,265.1,140.196,-16.8548,178.506,1.18652,-144.602,288
1569931953,265.1,140.196,-16.8548,178.528,1.18652,-144.602,288
1569931953,265.1,140.196,-16.8548,178.528,1.18652,-144.602,288
1569931953,265.1,140.196,-16.8548,178.528,1.2085,-144.602,288
1569931953,265.1,140.196,-16.8548,178.528,1.2085,-144.602,288
1569931953,265.1,140.196,-16.8548,178.528,1.2085,-144.602,288
1569931953,265.1,140.196,-16.8548,178.528,1.2085,-144.602,288
1569931953,265.1,140.196,-16.8548,178.528,1.2085,-144.602,288
1569931953,265.1,140.196,-16.8548,178.528,1.2085,-144.602,288
1569931953,265.1,140.196,-16.8548,178.528,1.2085,-144.602,288
1569931953,265.1,140.196,-16.8548,178.528,1.2085,-144.602,288
1569931953,265.1,140.196,-16.8548,178.528,1.2085,-144.602,288
1569931953,265.1,140.196,-16.8548,178.528,1.2085,-144.602,288
1569931953,265.1,140.196,-16.8548,178.528,1.2085,-144.602,288
1569931953,265.1,140.196,-16.8548,178.528,1.2085,-144.602,288
1569931953,265.212,140.196,-16.8548,178.528,1.2085,-144.602,288
1569931953,265.212,140.196,-16.8548,178.528,1.2085,-144.602,288
1569931953,265.212,140.196,-16.8548,178.506,1.2085,-144.602,288
1569931953,265.212,140.196,-16.8548,178.506,1.2085,-144.602,288
1569931953,265.212,140.196,-16.8548,178.506,1.2085,-144.602,288
1569931953,265.212,140.196,-16.8548,178.506,1.2085,-144.602,288
1569931953,265.212,140.196,-16.8548,178.506,1.2085,-144.602,288
1569931953,265.212,140.196,-16.8548,178.506,1.18652,-144.58,288
1569931953,265.212,140.196,-16.8548,178.506,1.18652,-144.58,288
1569931953,265.212,140.196,-16.8548,178.506,1.18652,-144.58,288
1569931953,265.212,140.196,-16.8548,178.506,1.18652,-144.58,284
1569931953,265.212,140.196,-16.8548,178.506,1.18652,-144.58,284
1569931953,265.212,140.196,-16.8548,178.506,1.18652,-144.58,284
1569931953,265.1,140.196,-16.8548,178.506,1.18652,-144.58,284
1569931953,265.1,140.196,-16.8548,178.506,1.18652,-144.58,284
1569931953,265.1,140.196,-16.8548,178.506,1.18652,-144.58,288
1569931953,265.1,140.196,-16.8548,178.506,1.18652,-144.602,288
1569931953,265.1,140.196,-16.8548,178.506,1.18652,-144.602,288
1569931954,265.1,140.196,-16.8548,178.506,1.18652,-144.602,288
1569931954,265.1,140.196,-16.8548,178.528,1.18652,-144.602,288
1569931954,265.1,140.196,-16.8548,178.528,1.18652,-144.602,288
1569931954,265.1,140.196,-16.8548,178.528,1.18652,-144.602,288
1569931957,288.206,115.639,-16.6315,178.528,1.31836,-144.998,312
1569931957,288.206,115.639,-16.6315,178.528,1.31836,-144.998,312
1569931957,288.206,115.639,-16.6315,178.528,1.31836,-144.998,312
1569931957,288.206,115.639,-16.6315,178.528,1.31836,-144.998,312
1569931957,288.206,115.639,-16.6315,178.528,1.31836,-144.998,312
1569931957,288.206,115.639,-16.6315,178.528,1.31836,-144.998,312
1569931957,288.206,115.639,-16.6315,178.528,1.31836,-144.998,312
1569931957,288.206,115.639,-16.6315,178.528,1.31836,-144.998,312
1569931957,288.206,115.639,-16.6315,178.528,1.31836,-144.998,312
1569931957,288.206,115.639,-16.6315,178.528,1.29639,-144.998,312
1569931957,288.206,115.639,-16.6315,178.528,1.29639,-144.998,312
1569931957,288.206,115.528,-16.6315,178.528,1.29639,-144.998,312
1569931957,288.206,115.528,-16.6315,178.528,1.29639,-144.998,312
1569931957,288.206,115.528,-16.6315,178.528,1.29639,-144.998,316
1569931957,288.206,115.528,-16.6315,178.528,1.29639,-144.998,316
1569931957,288.206,115.528,-16.6315,178.528,1.31836,-144.998,316
1569931957,288.206,115.528,-16.6315,178.506,1.31836,-144.998,316
1569931957,288.206,115.528,-16.6315,178.506,1.31836,-144.998,316
1569931957,288.206,115.528,-16.6315,178.506,1.31836,-144.998,316
1569931957,288.206,115.528,-16.6315,178.506,1.31836,-144.998,316
1569931957,288.206,115.528,-16.6315,178.506,1.31836,-144.998,316
1569931957,288.206,115.528,-16.6315,178.506,1.31836,-144.998,316
1569931957,288.206,115.528,-16.6315,178.506,1.31836,-144.998,316
1569931957,288.206,115.528,-16.6315,178.506,1.31836,-144.998,316
1569931957,288.206,115.528,-16.6315,178.506,1.31836,-144.998,316
1569931957,288.206,115.528,-16.6315,178.506,1.31836,-144.998,316
1569931957,288.206,115.528,-16.6315,178.506,1.31836,-144.998,316
1569931957,288.206,115.528,-16.6315,178.506,1.31836,-144.998,316
1569931957,288.206,115.528,-16.6315,178.506,1.31836,-144.998,316
1569931957,288.206,115.528,-16.6315,178.506,1.31836,-144.998,316
1569931957,288.206,115.528,-16.6315,178.506,1.31836,-144.998,320
1569931957,288.206,115.528,-16.6315,178.506,1.31836,-144.998,320
1569931957,288.206,115.528,-16.6315,178.506,1.31836,-144.998,320
1569931957,288.206,115.528,-16.6315,178.506,1.31836,-144.998,320
1569931957,288.206,115.528,-16.6315,178.506,1.31836,-144.998,320
1569931957,288.206,115.528,-16.6315,178.506,1.31836,-144.998,320
1569931958,288.206,115.528,-16.6315,178.506,1.31836,-144.998,320
1569931958,288.206,115.528,-16.6315,178.506,1.31836,-144.998,320
1569931958,288.206,115.528,-16.6315,178.506,1.31836,-144.998,320
1569931958,288.206,115.528,-16.6315,178.506,1.31836,-144.998,320
1569931958,288.206,115.528,-16.6315,178.506,1.31836,-144.998,320
1569931958,288.206,115.528,-16.6315,178.506,1.31836,-144.998,320
1569931958,288.206,115.528,-16.6315,178.506,1.31836,-144.998,320
1569931958,288.206,115.528,-16.6315,178.506,1.31836,-144.998,320
1569931958,288.206,115.528,-16.6315,178.506,1.31836,-144.998,320
1569931958,288.206,115.528,-16.6315,178.506,1.31836,-144.998,320
1569931958,288.206,115.528,-16.6315,178.506,1.31836,-144.998,320
1569931958,288.206,115.528,-16.6315,178.506,1.31836,-144.998,320
1569931958,288.206,115.528,-16.6315,178.506,1.31836,-144.998,320
1569931958,288.206,115.528,-16.6315,178.506,1.31836,-144.998,320
1569931958,288.206,115.528,-16.6315,178.506,1.31836,-144.998,320
1569931958,288.206,115.528,-16.6315,178.506,1.29639,-144.998,320
1569931958,288.206,115.528,-16.6315,178.506,1.29639,-144.998,320
1569931958,288.206,115.528,-16.6315,178.506,1.29639,-144.998,320
1569931958,288.206,115.528,-16.6315,178.506,1.29639,-144.998,320
1569931958,288.206,115.528,-16.6315,178.506,1.29639,-144.998,320
1569931958,288.206,115.528,-16.6315,178.506,1.29639,-144.998,320
1569931958,288.206,115.528,-16.6315,178.506,1.29639,-144.998,320
1569931958,288.206,115.528,-16.6315,178.506,1.29639,-144.998,320
1569931958,288.206,115.528,-16.6315,178.506,1.29639,-144.998,320
1569931958,288.206,115.528,-16.6315,178.506,1.29639,-144.998,320
1569931958,288.206,115.528,-16.6315,178.506,1.29639,-144.998,324
1569931958,288.206,115.528,-16.6315,178.506,1.29639,-144.998,324
1569931958,288.206,115.528,-16.6315,178.506,1.29639,-144.998,324
1569931958,288.206,115.528,-16.6315,178.506,1.29639,-144.998,324
1569931958,288.206,115.528,-16.6315,178.506,1.29639,-144.998,324
1569931958,288.206,115.528,-16.6315,178.506,1.29639,-144.998,324
1569931958,288.206,115.528,-16.6315,178.506,1.29639,-144.998,324
1569931958,288.206,115.528,-16.6315,178.506,1.29639,-144.998,324
1569931958,288.206,115.528,-16.6315,178.506,1.29639,-144.998,324
1569931958,288.206,115.528,-16.6315,178.506,1.29639,-144.998,324
1569931958,288.206,115.528,-16.6315,178.506,1.29639,-144.998,324
1569931958,288.206,115.528,-16.6315,178.506,1.29639,-144.998,324
1569931958,288.206,115.528,-16.6315,178.506,1.29639,-144.998,324
1569931958,288.206,115.528,-16.6315,178.506,1.29639,-144.998,324
1569931958,288.206,115.528,-16.6315,178.506,1.29639,-144.998,324
1569931958,288.206,115.528,-16.6315,178.506,1.29639,-144.998,324
1569931958,288.206,115.528,-16.6315,178.506,1.29639,-144.998,324
1569931958,288.206,115.528,-16.6315,178.506,1.29639,-144.998,324
1569931958,288.206,115.528,-16.6315,178.506,1.29639,-144.998,324
1569931958,288.206,115.528,-16.6315,178.506,1.29639,-144.998,324
1569931958,288.206,115.528,-16.6315,178.506,1.29639,-144.998,324
1569931958,288.206,115.528,-16.6315,178.506,1.29639,-144.998,320
1569931958,288.206,115.528,-16.6315,178.506,1.29639,-144.998,320
1569931958,288.206,115.528,-16.6315,178.506,1.29639,-144.998,320
1569931958,288.206,115.528,-16.6315,178.506,1.29639,-144.998,320
1569931958,288.206,115.528,-16.6315,178.506,1.29639,-144.998,320
1569931958,288.206,115.528,-16.6315,178.506,1.29639,-144.998,316
1569931958,288.206,115.528,-16.6315,178.506,1.29639,-144.998,316
1569931958,288.206,115.528,-16.6315,178.506,1.29639,-144.998,316
1569931958,288.206,115.528,-16.6315,178.506,1.29639,-144.998,316
1569931958,288.206,115.528,-16.6315,178.506,1.29639,-144.998,316
1569931958,288.206,115.528,-16.6315,178.506,1.29639,-144.998,316
1569931958,288.206,115.528,-16.6315,178.506,1.29639,-144.998,316
1569931958,288.206,115.528,-16.6315,178.484,1.29639,-144.998,316
1569931958,288.206,115.528,-16.6315,178.484,1.29639,-144.998,316
1569931958,288.206,115.528,-16.6315,178.484,1.31836,-144.998,316
1569931958,288.206,115.528,-16.6315,178.484,1.31836,-144.998,316
1569931958,288.206,115.528,-16.6315,178.484,1.31836,-144.998,316
1569931958,288.206,115.528,-16.6315,178.484,1.31836,-144.998,316
1569931958,288.206,115.528,-16.6315,178.484,1.31836,-144.998,316
1569931958,288.206,115.528,-16.6315,178.484,1.31836,-144.998,316
1569931958,288.206,115.528,-16.6315,178.484,1.31836,-144.998,316
1569931958,288.206,115.528,-16.6315,178.506,1.31836,-144.998,320
1569931958,288.206,115.528,-16.6315,178.506,1.31836,-144.998,320
1569931958,288.206,115.528,-16.6315,178.506,1.31836,-144.998,320
1569931958,288.206,115.528,-16.6315,178.506,1.31836,-144.998,320
1569931958,288.206,115.528,-16.6315,178.506,1.31836,-144.998,320
1569931958,288.206,115.528,-16.6315,178.506,1.31836,-144.998,320
1569931958,288.206,115.528,-16.6315,178.506,1.31836,-144.998,320
1569931958,288.206,115.528,-16.6315,178.506,1.31836,-144.998,320
1569931958,288.206,115.528,-16.6315,178.506,1.31836,-144.998,320
1569931958,288.206,115.528,-16.6315,178.506,1.31836,-144.998,320
1569931958,288.206,115.528,-16.6315,178.506,1.31836,-144.998,320
1569931958,288.206,115.528,-16.6315,178.506,1.31836,-144.998,320
1569931958,288.206,115.528,-16.6315,178.506,1.31836,-144.998,320
1569931958,288.206,115.528,-16.6315,178.506,1.31836,-144.998,320
1569931958,288.206,115.528,-16.6315,178.506,1.31836,-144.998,320
1569931958,288.206,115.528,-16.6315,178.506,1.31836,-144.998,320
1569931958,288.206,115.528,-16.6315,178.506,1.31836,-144.998,316
1569931958,288.206,115.528,-16.6315,178.506,1.31836,-144.998,316
1569931958,288.206,115.528,-16.6315,178.506,1.31836,-144.998,316
1569931958,288.206,115.528,-16.6315,178.506,1.31836,-144.998,316
1569931958,288.206,115.528,-16.6315,178.506,1.31836,-144.998,316
1569931958,288.206,115.528,-16.5199,178.506,1.31836,-144.998,316
1569931958,288.206,115.528,-16.5199,178.506,1.31836,-144.998,316
1569931958,288.206,115.528,-16.5199,178.506,1.31836,-144.998,316
1569931958,288.206,115.528,-16.6315,178.506,1.31836,-144.998,316
1569931958,288.206,115.528,-16.6315,178.506,1.31836,-144.998,316
1569931958,288.206,115.528,-16.6315,178.506,1.31836,-144.998,316
1569931958,288.206,115.528,-16.6315,178.506,1.31836,-144.998,316
1569931958,288.206,115.528,-16.6315,178.506,1.31836,-144.998,316
1569931958,288.206,115.528,-16.6315,178.484,1.31836,-144.998,316
1569931958,288.206,115.528,-16.6315,178.484,1.31836,-144.998,316
1569931958,288.206,115.528,-16.6315,178.484,1.31836,-144.998,316
1569931958,288.206,115.528,-16.6315,178.484,1.31836,-144.998,316
1569931959,288.206,115.528,-16.6315,178.484,1.31836,-144.998,316
1569931959,288.206,115.528,-16.6315,178.484,1.31836,-144.998,316
1569931959,288.206,115.528,-16.6315,178.484,1.31836,-144.998,316
1569931959,288.206,115.528,-16.6315,178.484,1.31836,-144.998,316
1569931959,288.206,115.528,-16.6315,178.484,1.31836,-144.998,316
1569931959,288.206,115.528,-16.6315,178.484,1.31836,-144.998,316
1569931959,288.206,115.528,-16.6315,178.484,1.31836,-144.998,316
1569931959,288.206,115.528,-16.6315,178.484,1.31836,-144.998,316
1569931959,288.206,115.528,-16.6315,178.484,1.31836,-144.998,316
1569931959,288.206,115.528,-16.6315,178.484,1.31836,-144.998,316
1569931959,288.206,115.528,-16.6315,178.484,1.31836,-144.998,316
1569931959,288.206,115.528,-16.6315,178.484,1.31836,-144.998,316
1569931959,288.206,115.528,-16.6315,178.506,1.31836,-144.998,316
1569931959,288.206,115.528,-16.6315,178.506,1.31836,-144.998,316
1569931959,288.206,115.528,-16.6315,178.506,1.31836,-144.998,316
1569931959,288.206,115.528,-16.6315,178.506,1.31836,-144.998,316
1569931959,288.206,115.528,-16.6315,178.506,1.31836,-144.998,316
1569931959,288.206,115.528,-16.6315,178.506,1.31836,-144.998,316
1569931959,288.206,115.528,-16.6315,178.506,1.31836,-144.998,316
1569931959,288.206,115.528,-16.6315,178.506,1.31836,-144.998,316
1569931959,288.206,115.528,-16.6315,178.506,1.31836,-144.998,316
1569931959,288.206,115.528,-16.6315,178.506,1.31836,-144.998,316
1569931959,288.206,115.528,-16.6315,178.506,1.31836,-144.998,316
1569931959,288.206,115.528,-16.6315,178.506,1.31836,-144.998,316
1569931959,288.206,115.528,-16.6315,178.506,1.31836,-144.998,316
1569931959,288.206,115.528,-16.6315,178.506,1.31836,-144.998,316
1569931959,288.206,115.528,-16.6315,178.506,1.31836,-144.998,316
1569931959,288.206,115.528,-16.6315,178.506,1.31836,-144.998,316
1569931959,288.206,115.528,-16.6315,178.506,1.31836,-144.998,316
1569931959,288.206,115.528,-16.6315,178.506,1.31836,-144.998,316
1569931959,288.206,115.528,-16.6315,178.506,1.31836,-144.998,316
1569931959,288.206,115.528,-16.6315,178.506,1.31836,-144.998,316
1569931959,288.206,115.528,-16.6315,178.506,1.31836,-144.998,316
1569931959,288.206,115.528,-16.6315,178.506,1.31836,-144.998,316
1569931959,288.206,115.528,-16.6315,178.506,1.31836,-144.998,316
1569931959,288.206,115.528,-16.6315,178.506,1.31836,-144.998,316
1569931959,288.206,115.528,-16.6315,178.506,1.31836,-144.998,316
1569931959,288.206,115.528,-16.6315,178.506,1.31836,-144.998,316
1569931959,288.206,115.528,-16.6315,178.506,1.31836,-144.998,316
1569931959,288.206,115.528,-16.6315,178.506,1.31836,-144.998,316
1569931959,288.206,115.528,-16.6315,178.506,1.31836,-144.998,316
1569931959,288.206,115.528,-16.6315,178.506,1.31836,-144.998,316
1569931959,288.206,115.528,-16.6315,178.506,1.31836,-144.998,316
1569931959,288.206,115.528,-16.6315,178.506,1.31836,-144.998,316
1569931959,288.206,115.528,-16.6315,178.506,1.31836,-144.998,316
1569931959,288.206,115.528,-16.6315,178.506,1.31836,-144.998,316
1569931959,288.206,115.528,-16.6315,178.506,1.31836,-144.998,316
1569931959,288.206,115.528,-16.6315,178.506,1.31836,-144.998,316
1569931959,288.206,115.528,-16.6315,178.506,1.34033,-144.998,316
1569931959,288.206,115.528,-16.6315,178.506,1.34033,-144.998,316
1569931959,288.206,115.528,-16.6315,178.506,1.34033,-144.998,316
1569931959,288.206,115.528,-16.6315,178.506,1.34033,-144.998,316
1569931959,288.206,115.528,-16.6315,178.506,1.34033,-144.998,316
1569931959,288.206,115.528,-16.6315,178.506,1.34033,-144.998,316
1569931959,288.206,115.528,-16.6315,178.506,1.31836,-144.998,316
1569931959,288.206,115.528,-16.6315,178.506,1.31836,-144.998,316
1569931959,288.206,115.528,-16.6315,178.506,1.31836,-144.998,316
1569931959,288.206,115.528,-16.6315,178.506,1.31836,-144.998,316
1569931959,288.206,115.528,-16.6315,178.506,1.31836,-144.998,316
1569931959,288.206,115.528,-16.6315,178.506,1.31836,-144.998,316
1569931959,288.206,115.528,-16.6315,178.506,1.31836,-144.998,316
1569931959,288.206,115.528,-16.6315,178.506,1.31836,-144.998,316
1569931959,288.206,115.528,-16.6315,178.506,1.31836,-144.998,316
1569931959,288.206,115.528,-16.6315,178.506,1.31836,-144.998,316
1569931959,288.206,115.528,-16.6315,178.506,1.31836,-144.998,312
1569931959,288.206,115.528,-16.6315,178.506,1.31836,-144.998,312
1569931959,288.206,115.528,-16.6315,178.506,1.31836,-144.998,316
1569931959,288.206,115.528,-16.6315,178.484,1.31836,-144.998,316
1569931959,288.206,115.528,-16.6315,178.484,1.31836,-144.998,316
1569931959,288.206,115.528,-16.6315,178.484,1.31836,-144.998,316
1569931959,288.206,115.528,-16.6315,178.484,1.31836,-144.998,316
1569931959,288.206,115.528,-16.6315,178.484,1.31836,-144.998,316
1569931959,288.206,115.528,-16.6315,178.484,1.31836,-144.998,316
1569931959,288.206,115.528,-16.6315,178.484,1.34033,-144.998,316
1569931959,288.206,115.528,-16.6315,178.484,1.34033,-144.998,316
1569931959,288.206,115.528,-16.6315,178.484,1.34033,-144.998,316
1569931959,288.206,115.528,-16.6315,178.484,1.34033,-144.998,316
1569931959,288.206,115.528,-16.5199,178.484,1.34033,-144.998,316
1569931959,288.206,115.528,-16.5199,178.484,1.34033,-144.998,316
1569931959,288.206,115.528,-16.6315,178.484,1.34033,-144.998,316
1569931959,288.206,115.528,-16.6315,178.484,1.34033,-144.998,316
1569931959,288.206,115.528,-16.6315,178.484,1.34033,-144.998,316
1569931959,288.206,115.528,-16.6315,178.506,1.34033,-144.998,316
1569931959,288.206,115.528,-16.6315,178.506,1.34033,-144.998,316
1569931959,288.206,115.528,-16.6315,178.506,1.34033,-144.998,316
1569931959,288.206,115.528,-16.6315,178.506,1.34033,-144.998,316
1569931959,288.206,115.528,-16.6315,178.506,1.34033,-144.998,316
1569931959,288.206,115.528,-16.6315,178.506,1.34033,-144.998,320
1569931959,288.206,115.528,-16.6315,178.506,1.34033,-144.998,320
1569931959,288.206,115.528,-16.6315,178.506,1.34033,-144.998,320
1569931959,288.206,115.528,-16.6315,178.506,1.34033,-144.998,320
1569931959,288.206,115.528,-16.6315,178.506,1.34033,-144.998,320
1569931959,288.206,115.528,-16.6315,178.506,1.34033,-144.998,320
1569931959,288.206,115.528,-16.6315,178.506,1.34033,-144.998,320
1569931959,288.206,115.528,-16.6315,178.506,1.34033,-144.998,320
1569931959,288.206,115.528,-16.6315,178.506,1.34033,-144.998,320
1569931959,288.206,115.528,-16.6315,178.506,1.34033,-144.998,320
1569931959,288.206,115.528,-16.6315,178.506,1.31836,-144.998,320
1569931959,288.206,115.528,-16.6315,178.506,1.31836,-144.998,320
1569931959,288.206,115.528,-16.6315,178.506,1.31836,-144.998,320
1569931960,288.206,115.528,-16.6315,178.506,1.31836,-144.998,320
1569931960,288.206,115.528,-16.6315,178.506,1.31836,-144.998,320
1569931960,288.206,115.528,-16.6315,178.506,1.31836,-144.998,320
1569931960,288.206,115.528,-16.6315,178.506,1.31836,-144.998,320
1569931960,288.206,115.528,-16.6315,178.506,1.31836,-144.998,320
1569931960,288.206,115.528,-16.6315,178.506,1.31836,-144.998,320
1569931960,288.206,115.528,-16.6315,178.506,1.31836,-144.998,320
1569931960,288.206,115.528,-16.6315,178.506,1.31836,-144.998,320
1569931960,288.206,115.528,-16.6315,178.506,1.31836,-144.998,320
1569931960,288.206,115.528,-16.6315,178.506,1.31836,-144.998,320
1569931960,288.206,115.528,-16.6315,178.506,1.31836,-144.998,320
1569931960,288.206,115.528,-16.6315,178.506,1.31836,-144.998,320
1569931960,288.206,115.528,-16.6315,178.506,1.29639,-144.998,320
1569931960,288.206,115.528,-16.6315,178.506,1.29639,-144.998,320
1569931960,288.206,115.528,-16.6315,178.506,1.29639,-144.998,320
1569931960,288.206,115.528,-16.6315,178.506,1.29639,-144.998,320
1569931960,288.206,115.528,-16.6315,178.506,1.29639,-144.998,320
1569931960,288.206,115.528,-16.6315,178.506,1.29639,-144.998,320
1569931960,288.206,115.528,-16.6315,178.506,1.29639,-144.998,320
1569931960,288.206,115.528,-16.6315,178.506,1.29639,-144.998,320
1569931960,288.206,115.528,-16.6315,178.506,1.29639,-144.998,320
1569931960,288.206,115.528,-16.6315,178.506,1.29639,-144.998,320
1569931960,288.206,115.528,-16.6315,178.506,1.29639,-144.998,320
1569931960,288.206,115.528,-16.6315,178.506,1.29639,-144.998,320
1569931960,288.206,115.528,-16.6315,178.506,1.29639,-144.998,320
1569931960,288.206,115.528,-16.6315,178.506,1.29639,-144.998,320
1569931960,288.206,115.528,-16.6315,178.506,1.29639,-144.998,320
1569931960,288.206,115.528,-16.6315,178.506,1.29639,-144.998,320
1569931960,288.206,115.528,-16.6315,178.506,1.29639,-144.998,320
1569931960,288.206,115.528,-16.6315,178.506,1.29639,-144.998,320
1569931960,288.206,115.528,-16.6315,178.506,1.29639,-144.998,320
1569931960,288.206,115.528,-16.6315,178.506,1.29639,-144.998,320
1569931960,288.206,115.528,-16.6315,178.506,1.29639,-144.998,320
1569931960,288.206,115.528,-16.6315,178.506,1.29639,-144.998,320
1569931960,288.206,115.528,-16.6315,178.506,1.29639,-144.998,324
1569931960,288.206,115.528,-16.6315,178.506,1.29639,-144.998,324
1569931960,288.206,115.528,-16.6315,178.506,1.29639,-144.998,324
1569931960,288.206,115.528,-16.6315,178.506,1.29639,-144.998,324
1569931960,288.206,115.528,-16.6315,178.506,1.29639,-144.998,324
1569931960,288.206,115.528,-16.6315,178.506,1.29639,-144.998,324
1569931960,288.206,115.528,-16.6315,178.506,1.29639,-144.998,324
1569931960,288.206,115.528,-16.6315,178.506,1.29639,-144.998,324
1569931960,288.206,115.528,-16.6315,178.506,1.29639,-144.998,324
1569931960,288.206,115.528,-16.6315,178.506,1.29639,-144.998,324
1569931960,288.206,115.528,-16.6315,178.506,1.29639,-144.998,324
1569931960,288.206,115.528,-16.6315,178.506,1.29639,-144.998,324
1569931960,288.206,115.528,-16.6315,178.506,1.29639,-144.998,324
1569931960,288.206,115.528,-16.6315,178.506,1.29639,-144.998,324
1569931960,288.206,115.528,-16.6315,178.506,1.29639,-144.998,324
1569931960,288.206,115.528,-16.6315,178.484,1.29639,-144.998,324
1569931960,288.206,115.528,-16.6315,178.484,1.29639,-144.998,324
1569931960,288.206,115.528,-16.6315,178.484,1.29639,-144.998,324
1569931960,288.206,115.528,-16.6315,178.484,1.29639,-144.998,324
1569931960,288.206,115.528,-16.6315,178.506,1.29639,-144.998,324
1569931960,288.206,115.528,-16.6315,178.506,1.29639,-144.998,324
1569931960,288.206,115.528,-16.6315,178.506,1.29639,-144.998,324
1569931960,288.206,115.528,-16.6315,178.506,1.29639,-144.998,324
1569931960,288.206,115.528,-16.6315,178.506,1.31836,-144.998,324
1569931960,288.206,115.528,-16.6315,178.506,1.31836,-144.998,324
1569931960,288.206,115.528,-16.6315,178.506,1.31836,-144.998,324
1569931960,288.206,115.528,-16.6315,178.506,1.31836,-144.998,320
1569931960,288.206,115.528,-16.6315,178.506,1.31836,-144.998,320
1569931960,288.206,115.528,-16.6315,178.506,1.31836,-144.998,320
1569931960,288.206,115.528,-16.6315,178.506,1.31836,-144.998,320
1569931960,288.206,115.528,-16.6315,178.506,1.31836,-144.998,320
1569931960,288.206,115.528,-16.6315,178.506,1.31836,-144.998,320
1569931960,288.206,115.528,-16.6315,178.506,1.31836,-144.998,320
1569931960,288.206,115.528,-16.6315,178.506,1.31836,-144.998,320
1569931960,288.206,115.528,-16.6315,178.506,1.31836,-144.998,320
1569931960,288.206,115.528,-16.6315,178.506,1.31836,-144.998,320
1569931960,288.206,115.528,-16.6315,178.506,1.31836,-144.998,320
1569931960,288.206,115.528,-16.6315,178.506,1.31836,-144.998,320
1569931960,288.206,115.528,-16.6315,178.506,1.31836,-144.998,320
1569931960,288.206,115.528,-16.6315,178.506,1.31836,-144.998,320
1569931960,288.206,115.528,-16.6315,178.506,1.31836,-144.998,320
1569931960,288.206,115.528,-16.6315,178.506,1.31836,-144.998,320
1569931960,288.206,115.528,-16.6315,178.506,1.31836,-144.998,320
1569931960,288.206,115.528,-16.6315,178.506,1.31836,-144.998,320
1569931960,288.206,115.528,-16.6315,178.506,1.31836,-144.998,320
1569931960,288.206,115.528,-16.6315,178.506,1.31836,-144.998,320
1569931960,288.206,115.528,-16.6315,178.506,1.31836,-144.998,320
1569931960,288.206,115.528,-16.6315,178.506,1.31836,-144.998,316
1569931960,288.206,115.528,-16.6315,178.506,1.31836,-144.998,316
1569931960,288.206,115.528,-16.6315,178.506,1.31836,-144.998,316
1569931960,288.206,115.528,-16.6315,178.506,1.31836,-144.998,316
1569931960,288.206,115.528,-16.6315,178.506,1.31836,-144.998,316
1569931960,288.206,115.528,-16.6315,178.506,1.31836,-144.998,316
1569931960,288.206,115.528,-16.6315,178.506,1.31836,-144.998,316
1569931960,288.206,115.528,-16.6315,178.506,1.31836,-144.998,316
1569931960,288.206,115.528,-16.6315,178.506,1.31836,-144.998,316
1569931960,288.206,115.528,-16.6315,178.484,1.31836,-144.998,316
1569931960,288.206,115.528,-16.6315,178.484,1.31836,-144.998,316
1569931960,288.206,115.528,-16.6315,178.484,1.31836,-144.998,316
1569931960,288.206,115.528,-16.6315,178.484,1.31836,-144.998,316
1569931960,288.206,115.528,-16.6315,178.484,1.31836,-144.998,316
1569931960,288.206,115.528,-16.6315,178.484,1.31836,-144.998,316
1569931960,288.206,115.528,-16.6315,178.484,1.31836,-144.998,316
1569931960,288.206,115.528,-16.6315,178.484,1.29639,-144.998,316
1569931960,288.206,115.528,-16.6315,178.484,1.29639,-144.998,316
1569931960,288.206,115.528,-16.6315,178.484,1.29639,-144.998,316
1569931961,288.206,115.528,-16.6315,178.484,1.29639,-144.998,316
1569931961,288.206,115.528,-16.6315,178.484,1.29639,-144.998,316
1569931961,288.206,115.528,-16.6315,178.484,1.29639,-144.998,316
1569931961,288.206,115.528,-16.6315,178.484,1.29639,-144.998,316
1569931961,288.206,115.528,-16.6315,178.484,1.29639,-144.998,316
1569931961,288.206,115.528,-16.6315,178.484,1.29639,-144.998,316
1569931961,288.206,115.528,-16.6315,178.484,1.29639,-144.998,316
1569931961,288.206,115.528,-16.6315,178.484,1.29639,-144.998,316
1569931961,288.206,115.528,-16.6315,178.484,1.29639,-144.998,316
1569931961,288.206,115.528,-16.6315,178.484,1.29639,-144.998,312
1569931961,288.206,115.528,-16.6315,178.484,1.29639,-144.998,312
1569931961,288.206,115.528,-16.6315,178.484,1.29639,-144.998,312
1569931961,288.206,115.528,-16.6315,178.484,1.29639,-144.976,312
1569931961,288.206,115.528,-16.6315,178.484,1.29639,-144.976,312
1569931961,288.206,115.528,-16.6315,178.484,1.29639,-144.976,312
1569931961,288.206,115.528,-16.6315,178.484,1.29639,-144.976,312
1569931961,288.206,115.528,-16.6315,178.484,1.29639,-144.976,312
1569931961,288.317,115.528,-16.6315,178.484,1.29639,-144.976,312
1569931961,288.317,115.528,-16.6315,178.484,1.29639,-144.976,312
1569931961,288.317,115.528,-16.6315,178.484,1.29639,-144.998,312
1569931961,288.317,115.528,-16.6315,178.484,1.31836,-144.998,312
1569931961,288.317,115.528,-16.6315,178.484,1.31836,-144.998,312
1569931961,288.317,115.528,-16.6315,178.484,1.31836,-144.998,308
1569931961,288.317,115.528,-16.6315,178.484,1.31836,-144.998,308
1569931961,288.317,115.528,-16.6315,178.484,1.31836,-144.998,308
1569931961,288.317,115.528,-16.6315,178.484,1.31836,-144.998,308
1569931961,288.317,115.528,-16.6315,178.506,1.31836,-144.998,308
1569931961,288.317,115.528,-16.6315,178.506,1.31836,-144.998,308
1569931961,288.206,115.528,-16.6315,178.506,1.31836,-144.998,308
1569931961,288.206,115.528,-16.6315,178.506,1.31836,-144.998,308
1569931961,288.206,115.528,-16.6315,178.506,1.31836,-144.998,308
1569931961,288.206,115.528,-16.6315,178.506,1.31836,-144.998,312
1569931961,288.206,115.528,-16.6315,178.484,1.31836,-144.998,312
1569931961,288.206,115.528,-16.6315,178.484,1.31836,-144.998,312
1569931961,288.206,115.528,-16.6315,178.484,1.31836,-144.998,312
1569931961,288.206,115.528,-16.6315,178.484,1.31836,-144.998,312
1569931961,288.206,115.528,-16.6315,178.484,1.31836,-144.998,312
1569931961,288.206,115.528,-16.6315,178.484,1.31836,-144.998,312
1569931961,288.206,115.528,-16.6315,178.484,1.31836,-144.998,312
1569931961,288.206,115.528,-16.6315,178.484,1.31836,-144.998,312
1569931961,288.206,115.528,-16.6315,178.484,1.31836,-144.998,312
1569931961,288.206,115.528,-16.6315,178.484,1.31836,-144.998,312
1569931961,288.206,115.528,-16.6315,178.506,1.31836,-144.998,312
1569931961,288.206,115.528,-16.6315,178.506,1.31836,-144.998,312
1569931961,288.206,115.528,-16.6315,178.484,1.31836,-144.998,312
1569931961,288.206,115.528,-16.6315,178.484,1.31836,-144.998,308
1569931961,288.206,115.528,-16.6315,178.484,1.31836,-144.998,308
1569931961,288.206,115.528,-16.6315,178.484,1.31836,-144.998,308
1569931961,288.206,115.528,-16.6315,178.484,1.31836,-144.998,308
1569931961,288.206,115.528,-16.6315,178.484,1.31836,-144.998,308
1569931961,288.206,115.528,-16.6315,178.484,1.31836,-144.998,308
1569931961,288.206,115.528,-16.6315,178.484,1.31836,-144.998,308
1569931961,288.206,115.528,-16.6315,178.484,1.31836,-144.998,308
1569931961,288.206,115.528,-16.6315,178.506,1.31836,-144.998,308
1569931961,288.206,115.528,-16.6315,178.506,1.31836,-144.998,308
1569931961,288.206,115.528,-16.6315,178.506,1.31836,-144.998,308
1569931961,288.206,115.528,-16.6315,178.506,1.31836,-144.998,308
1569931961,288.206,115.528,-16.6315,178.506,1.31836,-144.998,308
1569931961,288.206,115.528,-16.6315,178.506,1.31836,-144.998,308
1569931961,288.206,115.528,-16.6315,178.506,1.31836,-144.998,312
1569931961,288.206,115.528,-16.6315,178.506,1.31836,-144.998,312
1569931961,288.206,115.528,-16.6315,178.506,1.31836,-144.998,312
1569931961,288.206,115.528,-16.6315,178.506,1.31836,-144.998,312
1569931961,288.206,115.528,-16.6315,178.506,1.31836,-144.998,312
1569931961,288.206,115.528,-16.6315,178.506,1.31836,-144.998,312
1569931961,288.206,115.528,-16.6315,178.506,1.31836,-144.998,312
1569931961,288.206,115.528,-16.6315,178.506,1.31836,-144.998,312
1569931961,288.206,115.528,-16.6315,178.506,1.31836,-144.998,312
1569931961,288.206,115.528,-16.6315,178.506,1.31836,-144.998,316
1569931961,288.206,115.528,-16.6315,178.506,1.31836,-144.998,316
1569931961,288.206,115.528,-16.6315,178.506,1.31836,-144.998,316
1569931961,288.206,115.528,-16.6315,178.506,1.31836,-144.998,316
1569931961,288.206,115.528,-16.6315,178.506,1.31836,-144.998,316
1569931961,288.206,115.528,-16.6315,178.506,1.31836,-144.998,316
1569931961,288.206,115.528,-16.6315,178.506,1.31836,-144.998,316
1569931961,288.206,115.528,-16.6315,178.506,1.31836,-144.998,316
1569931961,288.206,115.528,-16.6315,178.506,1.31836,-144.998,316
1569931961,288.206,115.528,-16.6315,178.506,1.31836,-144.998,316
1569931961,288.206,115.528,-16.6315,178.506,1.31836,-144.998,316
1569931961,288.206,115.528,-16.6315,178.506,1.31836,-144.998,316
1569931961,288.206,115.528,-16.6315,178.506,1.31836,-144.998,316
1569931961,288.206,115.528,-16.6315,178.506,1.31836,-144.998,316
1569931961,288.206,115.528,-16.6315,178.506,1.31836,-144.998,316
1569931961,288.206,115.528,-16.6315,178.506,1.31836,-144.998,316
1569931961,288.206,115.528,-16.6315,178.506,1.31836,-144.998,316
1569931961,288.206,115.528,-16.6315,178.506,1.31836,-144.998,316
1569931961,288.206,115.528,-16.6315,178.506,1.31836,-144.998,316
1569931961,288.206,115.528,-16.6315,178.506,1.31836,-144.998,316
1569931961,288.206,115.528,-16.6315,178.506,1.31836,-144.998,316
1569931961,288.206,115.528,-16.6315,178.506,1.31836,-144.998,316
1569931961,288.206,115.528,-16.6315,178.506,1.31836,-144.998,316
1569931961,288.206,115.528,-16.6315,178.506,1.31836,-144.998,316
1569931961,288.206,115.528,-16.6315,178.506,1.31836,-144.998,316
1569931961,288.206,115.528,-16.6315,178.506,1.31836,-144.998,316
1569931961,288.206,115.528,-16.6315,178.506,1.31836,-144.998,316
1569931961,288.206,115.528,-16.6315,178.506,1.31836,-144.998,316
1569931961,288.206,115.528,-16.6315,178.506,1.31836,-144.998,316
1569931961,288.206,115.528,-16.6315,178.506,1.31836,-144.998,316
1569931961,288.206,115.528,-16.6315,178.506,1.31836,-144.998,316
1569931961,288.206,115.528,-16.6315,178.506,1.31836,-144.998,316
1569931961,288.206,115.528,-16.6315,178.506,1.31836,-144.998,316
1569931962,288.206,115.528,-16.6315,178.506,1.31836,-144.998,316
1569931962,288.206,115.528,-16.6315,178.506,1.31836,-144.998,316
1569931962,288.206,115.528,-16.6315,178.506,1.31836,-144.998,316
1569931962,288.206,115.528,-16.6315,178.506,1.31836,-144.998,316
1569931962,288.206,115.528,-16.6315,178.506,1.31836,-144.998,316
1569931962,288.206,115.528,-16.6315,178.506,1.31836,-144.998,316
1569931962,288.206,115.528,-16.6315,178.506,1.31836,-144.998,316
1569931962,288.206,115.528,-16.6315,178.506,1.31836,-144.998,316
1569931962,288.206,115.528,-16.6315,178.506,1.31836,-144.998,316
1569931962,288.206,115.528,-16.6315,178.506,1.31836,-144.998,316
1569931962,288.206,115.528,-16.6315,178.506,1.31836,-144.998,316
1569931962,288.206,115.528,-16.6315,178.506,1.31836,-144.998,316
1569931962,288.206,115.528,-16.6315,178.506,1.31836,-144.998,316
1569931962,288.206,115.528,-16.6315,178.506,1.31836,-144.998,316
1569931962,288.206,115.528,-16.6315,178.506,1.31836,-144.998,316
1569931962,288.206,115.528,-16.6315,178.506,1.31836,-144.998,316
1569931962,288.206,115.528,-16.6315,178.506,1.31836,-144.998,316
1569931962,288.206,115.528,-16.6315,178.506,1.31836,-144.998,316
1569931962,288.206,115.528,-16.6315,178.506,1.31836,-144.998,316
1569931962,288.206,115.528,-16.6315,178.506,1.31836,-144.998,316
1569931962,288.206,115.528,-16.6315,178.506,1.31836,-144.998,316
1569931962,288.206,115.528,-16.6315,178.506,1.31836,-144.998,316
1569931962,288.206,115.528,-16.6315,178.484,1.31836,-144.998,320
1569931962,288.206,115.528,-16.6315,178.484,1.31836,-144.998,320
1569931962,288.206,115.528,-16.6315,178.484,1.31836,-144.998,320
1569931962,288.206,115.528,-16.6315,178.484,1.31836,-144.998,320
1569931962,288.206,115.528,-16.6315,178.484,1.31836,-144.998,320
1569931962,288.206,115.528,-16.6315,178.484,1.31836,-144.998,320
1569931962,288.206,115.528,-16.6315,178.484,1.31836,-144.998,320
1569931962,288.206,115.528,-16.6315,178.484,1.31836,-144.998,320
1569931962,288.206,115.528,-16.6315,178.484,1.31836,-144.998,316
1569931962,288.206,115.528,-16.6315,178.484,1.31836,-144.998,316
1569931962,288.206,115.528,-16.6315,178.484,1.31836,-144.998,316
1569931962,288.206,115.528,-16.6315,178.506,1.31836,-144.998,316
1569931962,288.206,115.528,-16.6315,178.506,1.31836,-144.998,316
1569931962,288.206,115.528,-16.6315,178.506,1.34033,-144.998,316
1569931962,288.206,115.528,-16.6315,178.506,1.34033,-144.998,316
1569931962,288.206,115.528,-16.6315,178.506,1.34033,-144.998,316
1569931962,288.206,115.528,-16.6315,178.506,1.34033,-144.998,316
1569931962,288.206,115.528,-16.6315,178.506,1.34033,-144.998,316
1569931962,288.206,115.528,-16.5199,178.506,1.34033,-144.998,312
1569931962,288.206,115.528,-16.5199,178.506,1.34033,-144.998,312
1569931962,288.206,115.528,-16.5199,178.506,1.34033,-144.998,312
1569931962,288.206,115.528,-16.5199,178.506,1.34033,-144.998,312
1569931962,288.206,115.528,-16.5199,178.506,1.34033,-144.998,312
1569931962,288.206,115.528,-16.5199,178.506,1.34033,-144.998,312
1569931962,288.206,115.528,-16.5199,178.506,1.34033,-144.998,312
1569931962,288.206,115.528,-16.5199,178.506,1.34033,-144.998,312
1569931962,288.206,115.528,-16.5199,178.506,1.34033,-144.998,312
1569931962,288.206,115.528,-16.5199,178.506,1.34033,-144.998,312
1569931962,288.206,115.528,-16.5199,178.506,1.34033,-144.998,312
1569931962,288.206,115.528,-16.5199,178.506,1.34033,-144.998,312
1569931962,288.206,115.528,-16.5199,178.506,1.34033,-144.998,312
1569931962,288.206,115.528,-16.5199,178.506,1.34033,-144.998,312
1569931962,288.206,115.528,-16.5199,178.506,1.34033,-144.998,308
1569931962,288.206,115.528,-16.5199,178.506,1.34033,-144.998,308
1569931962,288.206,115.528,-16.5199,178.506,1.34033,-144.998,308
1569931962,288.206,115.528,-16.5199,178.506,1.34033,-144.998,308
1569931962,288.206,115.528,-16.5199,178.506,1.34033,-144.998,308
1569931962,288.206,115.528,-16.5199,178.506,1.34033,-144.998,308
1569931962,288.206,115.528,-16.5199,178.506,1.34033,-144.998,308
1569931962,288.206,115.528,-16.5199,178.506,1.34033,-144.998,308
1569931962,288.206,115.528,-16.6315,178.506,1.34033,-144.998,308
1569931966,326.603,74.1164,-15.7386,178.418,1.77979,-144.866,364
1569931966,326.603,74.1164,-15.7386,178.418,1.77979,-144.866,364
1569931966,326.603,74.1164,-15.7386,178.418,1.77979,-144.866,364
1569931966,326.603,74.1164,-15.7386,178.44,1.77979,-144.866,364
1569931966,326.603,74.1164,-15.7386,178.44,1.77979,-144.866,364
1569931966,326.603,74.1164,-15.7386,178.44,1.77979,-144.866,364
1569931966,326.603,74.1164,-15.7386,178.44,1.77979,-144.866,364
1569931966,326.603,74.1164,-15.7386,178.418,1.77979,-144.866,364
1569931966,326.603,74.1164,-15.7386,178.418,1.77979,-144.866,364
1569931966,326.603,74.1164,-15.7386,178.418,1.77979,-144.866,368
1569931966,326.603,74.1164,-15.7386,178.418,1.77979,-144.866,368
1569931966,326.603,74.1164,-15.7386,178.418,1.77979,-144.866,368
1569931966,326.603,74.1164,-15.7386,178.418,1.80176,-144.866,368
1569931966,326.603,74.1164,-15.7386,178.418,1.80176,-144.866,368
1569931966,326.603,74.1164,-15.7386,178.418,1.80176,-144.888,368
1569931966,326.603,74.1164,-15.7386,178.418,1.80176,-144.888,372
1569931966,326.603,74.1164,-15.7386,178.418,1.80176,-144.888,372
1569931966,326.603,74.1164,-15.7386,178.418,1.80176,-144.888,372
1569931966,326.715,74.1164,-15.7386,178.418,1.80176,-144.888,372
1569931966,326.715,74.1164,-15.7386,178.418,1.80176,-144.888,372
1569931966,326.715,74.1164,-15.7386,178.418,1.80176,-144.888,372
1569931966,326.715,74.1164,-15.7386,178.418,1.80176,-144.888,372
1569931966,326.715,74.1164,-15.7386,178.418,1.80176,-144.888,372
1569931966,326.715,74.1164,-15.7386,178.418,1.80176,-144.888,372
1569931966,326.715,74.1164,-15.627,178.418,1.80176,-144.888,372
1569931966,326.715,74.1164,-15.627,178.418,1.80176,-144.888,376
1569931966,326.715,74.1164,-15.627,178.418,1.80176,-144.888,376
1569931966,326.715,74.1164,-15.627,178.418,1.80176,-144.888,376
1569931966,326.715,74.1164,-15.627,178.418,1.80176,-144.888,376
1569931966,326.715,74.1164,-15.627,178.418,1.80176,-144.888,376
1569931966,326.715,74.1164,-15.627,178.418,1.80176,-144.888,376
1569931966,326.715,74.1164,-15.627,178.418,1.80176,-144.888,376
1569931966,326.715,74.1164,-15.627,178.418,1.80176,-144.888,376
1569931966,326.715,74.1164,-15.627,178.418,1.80176,-144.888,376
1569931966,326.603,74.1164,-15.627,178.418,1.80176,-144.888,376
1569931966,326.603,74.1164,-15.627,178.418,1.80176,-144.888,376
1569931966,326.603,74.1164,-15.627,178.418,1.80176,-144.888,376
1569931966,326.603,74.1164,-15.627,178.418,1.80176,-144.888,376
1569931966,326.603,74.1164,-15.627,178.418,1.80176,-144.888,376
1569931966,326.603,74.1164,-15.627,178.418,1.80176,-144.888,376
1569931966,326.603,74.1164,-15.627,178.418,1.80176,-144.888,376
1569931966,326.603,74.1164,-15.7386,178.418,1.77979,-144.888,376
1569931966,326.603,74.1164,-15.7386,178.44,1.77979,-144.888,376
1569931966,326.603,74.1164,-15.7386,178.44,1.77979,-144.888,376
1569931966,326.603,74.1164,-15.7386,178.44,1.77979,-144.888,376
1569931966,326.603,74.1164,-15.7386,178.44,1.77979,-144.888,376
1569931966,326.603,74.1164,-15.7386,178.44,1.77979,-144.888,376
1569931966,326.603,74.1164,-15.7386,178.44,1.77979,-144.888,372
1569931966,326.715,74.1164,-15.7386,178.44,1.77979,-144.888,372
1569931966,326.715,74.228,-15.627,178.44,1.77979,-144.888,372
1569931966,326.715,74.228,-15.627,178.44,1.77979,-144.888,372
1569931966,326.715,74.1164,-15.627,178.44,1.77979,-144.888,372
1569931966,326.715,74.1164,-15.627,178.44,1.77979,-144.888,372
1569931966,326.715,74.1164,-15.627,178.44,1.77979,-144.866,372
1569931966,326.715,74.1164,-15.627,178.44,1.77979,-144.866,372
1569931966,326.715,74.1164,-15.627,178.44,1.77979,-144.866,372
1569931966,326.603,74.1164,-15.627,178.44,1.77979,-144.866,372
1569931966,326.603,74.1164,-15.627,178.44,1.77979,-144.866,372
1569931966,326.603,74.1164,-15.627,178.44,1.77979,-144.866,372
1569931966,326.603,74.1164,-15.627,178.418,1.77979,-144.866,372
1569931966,326.603,74.1164,-15.627,178.418,1.77979,-144.888,372
1569931966,326.603,74.1164,-15.627,178.418,1.77979,-144.888,372
1569931966,326.603,74.1164,-15.7386,178.418,1.77979,-144.888,372
1569931966,326.603,74.1164,-15.7386,178.418,1.77979,-144.888,372
1569931966,326.603,74.1164,-15.7386,178.418,1.77979,-144.888,372
1569931966,326.603,74.1164,-15.7386,178.418,1.77979,-144.888,372
1569931966,326.603,74.1164,-15.7386,178.418,1.77979,-144.888,372
1569931966,326.603,74.1164,-15.7386,178.418,1.77979,-144.888,372
1569931966,326.603,74.1164,-15.7386,178.418,1.77979,-144.888,372
1569931966,326.603,74.1164,-15.7386,178.418,1.75781,-144.888,372
1569931966,326.603,74.1164,-15.7386,178.418,1.75781,-144.866,372
1569931966,326.603,74.1164,-15.7386,178.418,1.75781,-144.866,372
1569931966,326.603,74.1164,-15.7386,178.44,1.75781,-144.866,372
1569931966,326.603,74.1164,-15.7386,178.44,1.75781,-144.866,372
1569931966,326.603,74.1164,-15.7386,178.44,1.75781,-144.866,372
1569931966,326.603,74.1164,-15.7386,178.44,1.75781,-144.866,372
1569931966,326.603,74.228,-15.7386,178.44,1.75781,-144.866,372
1569931966,326.715,74.228,-15.7386,178.44,1.75781,-144.888,372
1569931966,326.715,74.228,-15.7386,178.44,1.75781,-144.888,372
1569931966,326.715,74.228,-15.7386,178.44,1.75781,-144.888,372
1569931966,326.715,74.228,-15.7386,178.44,1.75781,-144.888,372
1569931966,326.715,74.228,-15.7386,178.44,1.75781,-144.888,372
1569931966,326.715,74.228,-15.7386,178.44,1.75781,-144.888,372
1569931966,326.715,74.228,-15.7386,178.44,1.75781,-144.888,372
1569931966,326.715,74.228,-15.7386,178.44,1.75781,-144.888,372
1569931966,326.715,74.228,-15.7386,178.44,1.75781,-144.888,372
1569931966,326.715,74.228,-15.7386,178.44,1.75781,-144.888,372
1569931966,326.715,74.228,-15.7386,178.44,1.75781,-144.888,372
1569931966,326.603,74.228,-15.7386,178.44,1.75781,-144.888,372
1569931966,326.603,74.228,-15.7386,178.44,1.75781,-144.888,376
1569931966,326.603,74.228,-15.7386,178.44,1.75781,-144.888,376
1569931967,326.603,74.228,-15.7386,178.44,1.75781,-144.888,376
1569931967,326.603,74.228,-15.7386,178.44,1.75781,-144.888,376
1569931967,326.603,74.1164,-15.7386,178.44,1.75781,-144.888,376
1569931967,326.603,74.1164,-15.7386,178.44,1.77979,-144.888,376
1569931967,326.603,74.1164,-15.7386,178.44,1.77979,-144.888,376
1569931967,326.603,74.1164,-15.7386,178.418,1.77979,-144.888,372
1569931967,326.603,74.1164,-15.7386,178.418,1.77979,-144.888,372
1569931967,326.603,74.1164,-15.7386,178.418,1.77979,-144.888,372
1569931967,326.715,74.1164,-15.7386,178.418,1.77979,-144.888,372
1569931967,326.715,74.1164,-15.7386,178.418,1.77979,-144.888,372
1569931967,326.715,74.1164,-15.7386,178.418,1.77979,-144.888,372
1569931967,326.715,74.1164,-15.7386,178.418,1.77979,-144.888,372
1569931967,326.715,74.1164,-15.7386,178.418,1.77979,-144.888,372
1569931967,326.715,74.1164,-15.627,178.418,1.77979,-144.888,372
1569931967,326.715,74.1164,-15.627,178.418,1.77979,-144.888,372
1569931967,326.715,74.1164,-15.627,178.418,1.77979,-144.888,372
1569931967,326.715,74.1164,-15.627,178.418,1.77979,-144.888,372
1569931967,326.715,74.1164,-15.627,178.418,1.77979,-144.888,372
1569931967,326.715,74.1164,-15.627,178.418,1.77979,-144.888,372
1569931967,326.715,74.1164,-15.627,178.418,1.77979,-144.888,372
1569931967,326.715,74.1164,-15.7386,178.418,1.77979,-144.888,372
1569931967,326.715,74.1164,-15.7386,178.418,1.77979,-144.888,372
1569931967,326.715,74.1164,-15.7386,178.418,1.77979,-144.888,372
1569931967,326.715,74.1164,-15.7386,178.418,1.77979,-144.888,372
1569931967,326.715,74.1164,-15.627,178.418,1.77979,-144.91,372
1569931967,326.715,74.1164,-15.627,178.418,1.77979,-144.91,372
1569931967,326.715,74.1164,-15.627,178.396,1.77979,-144.91,372
1569931967,326.715,74.1164,-15.627,178.396,1.77979,-144.888,372
1569931967,326.715,74.1164,-15.627,178.396,1.77979,-144.888,372
1569931967,326.715,74.1164,-15.627,178.396,1.77979,-144.91,372
1569931967,326.715,74.1164,-15.627,178.396,1.77979,-144.91,372
1569931967,326.715,74.1164,-15.7386,178.396,1.77979,-144.91,372
1569931967,326.715,74.1164,-15.7386,178.396,1.77979,-144.91,372
1569931967,326.715,74.1164,-15.7386,178.418,1.77979,-144.91,372
1569931967,326.715,74.1164,-15.7386,178.418,1.77979,-144.888,372
1569931967,326.715,74.1164,-15.7386,178.418,1.77979,-144.888,372
1569931967,326.715,74.1164,-15.7386,178.418,1.77979,-144.888,372
1569931967,326.715,74.1164,-15.7386,178.418,1.77979,-144.888,372
1569931967,326.715,74.1164,-15.7386,178.418,1.77979,-144.888,372
1569931967,326.715,74.1164,-15.7386,178.396,1.77979,-144.888,372
1569931967,326.715,74.1164,-15.7386,178.396,1.77979,-144.888,372
1569931967,326.715,74.1164,-15.7386,178.396,1.77979,-144.888,372
1569931967,326.603,74.1164,-15.7386,178.396,1.77979,-144.888,372
1569931967,326.603,74.0048,-15.7386,178.396,1.77979,-144.888,372
1569931967,326.603,74.0048,-15.7386,178.396,1.77979,-144.888,372
1569931967,326.603,74.0048,-15.7386,178.396,1.77979,-144.888,372
1569931967,326.603,74.0048,-15.7386,178.396,1.77979,-144.888,372
1569931967,326.603,74.0048,-15.7386,178.396,1.77979,-144.888,372
1569931967,326.603,74.0048,-15.7386,178.396,1.77979,-144.888,372
1569931967,326.603,74.0048,-15.7386,178.396,1.77979,-144.888,372
1569931967,326.603,74.0048,-15.7386,178.396,1.77979,-144.888,372
1569931967,326.603,74.0048,-15.7386,178.396,1.77979,-144.888,372
1569931967,326.603,74.0048,-15.7386,178.396,1.77979,-144.888,372
1569931967,326.603,74.0048,-15.7386,178.396,1.77979,-144.888,376
1569931967,326.603,74.0048,-15.7386,178.396,1.77979,-144.888,376
1569931967,326.603,74.0048,-15.7386,178.396,1.77979,-144.888,376
1569931967,326.603,74.0048,-15.7386,178.396,1.77979,-144.888,376
1569931967,326.603,74.0048,-15.7386,178.396,1.77979,-144.888,376
1569931967,326.603,74.0048,-15.7386,178.396,1.77979,-144.888,376
1569931967,326.603,74.0048,-15.7386,178.396,1.77979,-144.888,376
1569931967,326.603,74.0048,-15.7386,178.396,1.77979,-144.888,376
1569931967,326.603,74.0048,-15.7386,178.396,1.77979,-144.888,380
1569931967,326.603,74.0048,-15.7386,178.396,1.77979,-144.888,380
1569931967,326.603,74.0048,-15.7386,178.396,1.77979,-144.888,380
1569931967,326.603,74.0048,-15.7386,178.396,1.77979,-144.888,380
1569931967,326.603,74.0048,-15.7386,178.396,1.77979,-144.888,380
1569931967,326.603,74.0048,-15.7386,178.396,1.77979,-144.888,380
1569931967,326.603,74.0048,-15.7386,178.396,1.77979,-144.888,384
1569931967,326.603,74.0048,-15.7386,178.396,1.77979,-144.888,384
1569931967,326.603,74.0048,-15.7386,178.396,1.77979,-144.888,384
1569931967,326.603,74.0048,-15.7386,178.396,1.77979,-144.888,384
1569931967,326.603,74.0048,-15.7386,178.396,1.77979,-144.888,384
1569931967,326.603,74.0048,-15.7386,178.396,1.77979,-144.888,384
1569931967,326.603,74.0048,-15.7386,178.396,1.77979,-144.888,384
1569931967,326.603,74.0048,-15.7386,178.396,1.77979,-144.866,384
1569931967,326.603,74.0048,-15.7386,178.396,1.77979,-144.866,384
1569931967,326.603,74.0048,-15.7386,178.396,1.77979,-144.866,384
1569931967,326.603,74.0048,-15.7386,178.396,1.77979,-144.866,384
1569931967,326.603,74.0048,-15.7386,178.396,1.77979,-144.866,380
1569931967,326.603,74.0048,-15.7386,178.396,1.77979,-144.866,380
1569931967,326.603,74.0048,-15.7386,178.396,1.77979,-144.866,380
1569931967,326.603,74.0048,-15.7386,178.396,1.77979,-144.866,380
1569931967,326.603,74.0048,-15.7386,178.396,1.77979,-144.866,380
1569931967,326.603,74.0048,-15.7386,178.396,1.77979,-144.866,380
1569931967,326.603,74.0048,-15.7386,178.396,1.80176,-144.866,376
1569931967,326.603,74.0048,-15.7386,178.396,1.80176,-144.866,376
1569931967,326.603,74.0048,-15.627,178.396,1.80176,-144.866,376
1569931967,326.603,74.0048,-15.627,178.396,1.80176,-144.866,376
1569931967,326.603,74.0048,-15.627,178.396,1.80176,-144.866,376
1569931967,326.603,74.0048,-15.627,178.396,1.80176,-144.866,376
1569931967,326.603,74.0048,-15.627,178.396,1.80176,-144.866,376
1569931967,326.603,74.0048,-15.627,178.396,1.80176,-144.866,376
1569931967,326.603,74.0048,-15.627,178.396,1.80176,-144.866,376
1569931967,326.603,74.0048,-15.627,178.374,1.80176,-144.866,376
1569931967,326.603,74.0048,-15.627,178.374,1.80176,-144.866,376
1569931967,326.603,74.0048,-15.7386,178.374,1.80176,-144.866,372
1569931967,326.603,74.0048,-15.7386,178.374,1.77979,-144.866,372
1569931967,326.603,74.0048,-15.7386,178.374,1.77979,-144.866,372
1569931967,326.603,74.0048,-15.7386,178.374,1.77979,-144.866,372
1569931967,326.603,74.0048,-15.7386,178.396,1.77979,-144.866,372
1569931968,326.603,74.0048,-15.7386,178.396,1.77979,-144.866,372
1569931968,326.603,74.0048,-15.7386,178.396,1.77979,-144.866,372
1569931968,326.603,74.0048,-15.7386,178.396,1.77979,-144.866,372
1569931968,326.603,74.0048,-15.7386,178.396,1.77979,-144.866,372
1569931968,326.603,74.0048,-15.7386,178.396,1.77979,-144.866,372
1569931968,326.603,74.0048,-15.7386,178.396,1.77979,-144.866,372
1569931968,326.603,74.0048,-15.7386,178.396,1.77979,-144.866,372
1569931968,326.603,74.0048,-15.7386,178.396,1.77979,-144.866,368
1569931968,326.603,74.0048,-15.7386,178.396,1.77979,-144.866,368
1569931968,326.603,74.0048,-15.7386,178.396,1.77979,-144.866,368
1569931968,326.603,74.0048,-15.7386,178.396,1.77979,-144.866,368
1569931968,326.603,74.0048,-15.7386,178.396,1.77979,-144.866,368
1569931968,326.603,74.0048,-15.7386,178.396,1.77979,-144.866,368
1569931968,326.603,74.0048,-15.7386,178.396,1.77979,-144.866,368
1569931968,326.603,74.0048,-15.7386,178.396,1.77979,-144.866,368
1569931968,326.603,74.0048,-15.7386,178.396,1.77979,-144.866,368
1569931968,326.603,74.1164,-15.7386,178.396,1.77979,-144.866,364
1569931968,326.603,74.1164,-15.7386,178.396,1.77979,-144.866,364
1569931968,326.603,74.1164,-15.7386,178.396,1.77979,-144.866,364
1569931968,326.603,74.1164,-15.7386,178.396,1.77979,-144.866,364
1569931968,326.603,74.1164,-15.7386,178.396,1.77979,-144.866,364
1569931968,326.603,74.1164,-15.7386,178.396,1.77979,-144.866,364
1569931968,326.603,74.1164,-15.7386,178.396,1.77979,-144.866,364
1569931968,326.603,74.1164,-15.7386,178.396,1.77979,-144.866,368
1569931968,326.603,74.1164,-15.7386,178.396,1.77979,-144.866,368
1569931968,326.603,74.1164,-15.7386,178.396,1.77979,-144.866,368
1569931968,326.603,74.1164,-15.7386,178.418,1.77979,-144.888,368
1569931968,326.603,74.1164,-15.7386,178.418,1.77979,-144.888,368
1569931968,326.603,74.1164,-15.7386,178.418,1.77979,-144.888,368
1569931968,326.603,74.1164,-15.7386,178.418,1.77979,-144.888,368
1569931968,326.603,74.1164,-15.7386,178.418,1.77979,-144.888,368
1569931968,326.603,74.1164,-15.7386,178.418,1.77979,-144.888,368
1569931968,326.603,74.1164,-15.7386,178.418,1.77979,-144.888,368
1569931968,326.603,74.1164,-15.7386,178.418,1.77979,-144.888,368
1569931968,326.603,74.1164,-15.7386,178.418,1.77979,-144.888,368
1569931968,326.603,74.1164,-15.7386,178.418,1.77979,-144.888,372
1569931968,326.603,74.1164,-15.7386,178.418,1.77979,-144.888,372
1569931968,326.603,74.1164,-15.7386,178.418,1.77979,-144.888,372
1569931968,326.603,74.1164,-15.7386,178.418,1.77979,-144.888,372
1569931968,326.603,74.1164,-15.7386,178.418,1.77979,-144.888,372
1569931968,326.603,74.1164,-15.7386,178.418,1.77979,-144.888,372
1569931968,326.603,74.1164,-15.7386,178.418,1.77979,-144.888,372
1569931968,326.603,74.1164,-15.7386,178.418,1.77979,-144.866,372
1569931968,326.603,74.1164,-15.7386,178.418,1.77979,-144.866,372
1569931968,326.603,74.1164,-15.7386,178.418,1.77979,-144.888,372
1569931968,326.603,74.1164,-15.7386,178.418,1.77979,-144.888,372
1569931968,326.603,74.1164,-15.7386,178.418,1.77979,-144.888,372
1569931968,326.603,74.1164,-15.7386,178.418,1.77979,-144.888,368
1569931968,326.603,74.1164,-15.7386,178.418,1.77979,-144.888,368
1569931968,326.603,74.1164,-15.7386,178.418,1.77979,-144.888,368
1569931968,326.603,74.1164,-15.7386,178.396,1.77979,-144.888,368
1569931968,326.603,74.1164,-15.7386,178.396,1.77979,-144.888,368
1569931968,326.603,74.1164,-15.7386,178.396,1.77979,-144.888,368
1569931968,326.603,74.1164,-15.627,178.396,1.77979,-144.888,368
1569931968,326.603,74.1164,-15.627,178.396,1.77979,-144.888,368
1569931968,326.603,74.1164,-15.627,178.396,1.77979,-144.888,368
1569931968,326.603,74.1164,-15.7386,178.396,1.77979,-144.888,368
1569931968,326.603,74.1164,-15.7386,178.396,1.77979,-144.888,368
1569931968,326.603,74.1164,-15.7386,178.396,1.77979,-144.888,364
1569931968,326.603,74.1164,-15.7386,178.418,1.77979,-144.888,364
1569931968,326.603,74.1164,-15.7386,178.418,1.77979,-144.888,364
1569931968,326.603,74.1164,-15.7386,178.418,1.77979,-144.888,364
1569931968,326.603,74.1164,-15.7386,178.418,1.77979,-144.888,364
1569931968,326.603,74.1164,-15.7386,178.418,1.77979,-144.888,364
1569931968,326.603,74.1164,-15.7386,178.418,1.77979,-144.888,364
1569931968,326.603,74.1164,-15.7386,178.418,1.77979,-144.888,364
1569931968,326.603,74.1164,-15.7386,178.418,1.77979,-144.888,364
1569931968,326.603,74.1164,-15.7386,178.418,1.77979,-144.888,364
1569931968,326.603,74.1164,-15.7386,178.418,1.77979,-144.866,364
1569931968,326.603,74.1164,-15.7386,178.418,1.77979,-144.866,364
1569931968,326.603,74.1164,-15.7386,178.418,1.77979,-144.866,364
1569931968,326.603,74.1164,-15.7386,178.418,1.77979,-144.866,364
1569931968,326.603,74.1164,-15.7386,178.418,1.77979,-144.866,364
1569931968,326.603,74.1164,-15.7386,178.418,1.77979,-144.866,364
1569931968,326.603,74.1164,-15.7386,178.418,1.77979,-144.866,364
1569931968,326.603,74.1164,-15.7386,178.418,1.77979,-144.888,364
1569931968,326.603,74.1164,-15.7386,178.418,1.77979,-144.888,364
1569931968,326.603,74.1164,-15.627,178.418,1.77979,-144.888,364
1569931968,326.603,74.1164,-15.627,178.418,1.77979,-144.888,364
1569931968,326.603,74.1164,-15.627,178.418,1.77979,-144.888,364
1569931968,326.603,74.1164,-15.627,178.418,1.80176,-144.888,364
1569931968,326.603,74.1164,-15.627,178.418,1.80176,-144.888,368
1569931968,326.603,74.1164,-15.627,178.418,1.80176,-144.888,368
1569931968,326.603,74.1164,-15.627,178.418,1.80176,-144.888,368
1569931968,326.603,74.1164,-15.627,178.418,1.80176,-144.888,368
1569931968,326.603,74.1164,-15.627,178.418,1.80176,-144.888,368
1569931968,326.603,74.1164,-15.627,178.418,1.80176,-144.888,368
1569931968,326.603,74.1164,-15.627,178.418,1.80176,-144.888,368
1569931968,326.603,74.1164,-15.627,178.418,1.80176,-144.888,368
1569931968,326.715,74.1164,-15.627,178.418,1.80176,-144.888,368
1569931968,326.715,74.1164,-15.627,178.418,1.80176,-144.888,368
1569931968,326.715,74.1164,-15.627,178.418,1.80176,-144.888,364
1569931968,326.715,74.1164,-15.627,178.418,1.80176,-144.888,364
1569931968,326.715,74.1164,-15.627,178.418,1.80176,-144.888,364
1569931968,326.715,74.1164,-15.627,178.418,1.80176,-144.888,364
1569931968,326.715,74.1164,-15.627,178.418,1.80176,-144.888,364
1569931968,326.715,74.1164,-15.627,178.418,1.80176,-144.888,364
1569931968,326.715,74.1164,-15.627,178.418,1.80176,-144.888,364
1569931968,326.715,74.1164,-15.627,178.418,1.80176,-144.888,364
1569931968,326.715,74.1164,-15.627,178.418,1.80176,-144.888,364
1569931969,326.715,74.1164,-15.627,178.418,1.80176,-144.888,364
1569931969,326.715,74.1164,-15.627,178.418,1.80176,-144.888,364
1569931969,326.715,74.1164,-15.627,178.418,1.80176,-144.888,368
1569931969,326.715,74.1164,-15.627,178.418,1.80176,-144.888,368
1569931969,326.715,74.1164,-15.627,178.418,1.80176,-144.888,368
1569931969,326.715,74.1164,-15.627,178.418,1.80176,-144.888,368
1569931969,326.715,74.1164,-15.627,178.418,1.80176,-144.888,368
1569931969,326.715,74.1164,-15.627,178.418,1.80176,-144.888,372
1569931969,326.715,74.1164,-15.627,178.418,1.80176,-144.888,372
1569931969,326.603,74.1164,-15.627,178.418,1.80176,-144.888,372
1569931969,326.603,74.1164,-15.627,178.418,1.80176,-144.888,372
1569931969,326.603,74.1164,-15.627,178.418,1.80176,-144.888,376
1569931969,326.603,74.1164,-15.627,178.418,1.80176,-144.888,376
1569931969,326.603,74.1164,-15.627,178.418,1.80176,-144.888,376
1569931969,326.603,74.1164,-15.627,178.418,1.80176,-144.888,376
1569931969,326.603,74.1164,-15.627,178.418,1.77979,-144.888,376
1569931969,326.603,74.1164,-15.627,178.418,1.77979,-144.888,380
1569931969,326.603,74.1164,-15.627,178.418,1.77979,-144.888,380
1569931969,326.603,74.1164,-15.627,178.418,1.77979,-144.888,380
1569931969,326.603,74.1164,-15.627,178.418,1.77979,-144.888,380
1569931969,326.603,74.1164,-15.627,178.418,1.77979,-144.888,380
1569931969,326.603,74.1164,-15.627,178.418,1.77979,-144.888,380
1569931969,326.603,74.1164,-15.627,178.418,1.77979,-144.888,380
1569931969,326.603,74.1164,-15.627,178.418,1.77979,-144.888,380
1569931969,326.603,74.1164,-15.627,178.418,1.77979,-144.888,380
1569931969,326.603,74.1164,-15.627,178.418,1.77979,-144.888,380
1569931969,326.603,74.1164,-15.627,178.418,1.77979,-144.888,380
1569931969,326.603,74.1164,-15.627,178.418,1.77979,-144.888,380
1569931969,326.603,74.1164,-15.627,178.418,1.77979,-144.888,380
1569931969,326.603,74.1164,-15.627,178.418,1.80176,-144.888,380
1569931969,326.603,74.1164,-15.627,178.418,1.80176,-144.888,380
1569931969,326.603,74.1164,-15.627,178.418,1.80176,-144.888,380
1569931969,326.603,74.1164,-15.627,178.418,1.80176,-144.888,380
1569931969,326.603,74.1164,-15.627,178.418,1.80176,-144.888,380
1569931969,326.603,74.1164,-15.627,178.418,1.80176,-144.888,376
1569931969,326.603,74.1164,-15.627,178.418,1.80176,-144.888,376
1569931969,326.603,74.1164,-15.627,178.418,1.80176,-144.888,376
1569931969,326.603,74.1164,-15.627,178.418,1.80176,-144.888,376
1569931969,326.603,74.1164,-15.627,178.418,1.80176,-144.888,376
1569931969,326.603,74.1164,-15.627,178.418,1.80176,-144.888,376
1569931969,326.603,74.1164,-15.627,178.418,1.80176,-144.888,372
1569931969,326.603,74.1164,-15.627,178.418,1.77979,-144.888,372
1569931969,326.603,74.1164,-15.627,178.418,1.77979,-144.888,372
1569931969,326.603,74.1164,-15.627,178.418,1.77979,-144.888,372
1569931969,326.603,74.1164,-15.627,178.418,1.77979,-144.888,372
1569931969,326.603,74.1164,-15.627,178.418,1.77979,-144.888,372
1569931969,326.603,74.1164,-15.627,178.418,1.77979,-144.888,372
1569931969,326.603,74.1164,-15.7386,178.418,1.77979,-144.888,372
1569931969,326.603,74.1164,-15.7386,178.418,1.77979,-144.888,372
1569931969,326.603,74.1164,-15.7386,178.418,1.77979,-144.888,372
1569931969,326.603,74.1164,-15.627,178.418,1.80176,-144.888,372
1569931969,326.603,74.1164,-15.627,178.418,1.80176,-144.888,372
1569931969,326.603,74.1164,-15.627,178.396,1.80176,-144.888,372
1569931969,326.603,74.0048,-15.627,178.396,1.80176,-144.888,372
1569931969,326.603,74.0048,-15.627,178.396,1.80176,-144.888,372
1569931969,326.603,74.0048,-15.627,178.396,1.80176,-144.888,372
1569931969,326.603,74.0048,-15.627,178.396,1.80176,-144.888,372
1569931969,326.603,74.0048,-15.627,178.396,1.77979,-144.888,372
1569931969,326.603,74.0048,-15.627,178.396,1.77979,-144.888,372
1569931969,326.603,74.0048,-15.627,178.396,1.77979,-144.888,372
1569931969,326.603,74.0048,-15.627,178.396,1.77979,-144.888,372
