time,x,y,z,ax,ay,az,q
1568039751,269.677,-47.5506,-17.078,-1.47217,1.34033,-156.929,204
1568039751,269.677,-47.5506,-17.078,-1.47217,1.34033,-156.929,204
1568039751,269.677,-47.5506,-17.078,-1.47217,1.34033,-156.929,204
1568039751,269.677,-47.5506,-17.078,-1.47217,1.34033,-156.929,204
1568039751,269.677,-47.5506,-17.078,-1.47217,1.34033,-156.929,204
1568039751,269.677,-47.5506,-17.078,-1.47217,1.34033,-156.929,204
1568039751,269.677,-47.5506,-17.078,-1.47217,1.34033,-156.929,204
1568039751,269.677,-47.5506,-17.078,-1.47217,1.34033,-156.929,204
1568039751,269.677,-47.5506,-17.078,-1.47217,1.34033,-156.929,204
1568039751,269.677,-47.5506,-17.078,-1.47217,1.34033,-156.929,204
1568039751,269.677,-47.5506,-17.078,-1.47217,1.34033,-156.929,208
1568039751,269.677,-47.5506,-17.078,-1.47217,1.34033,-156.929,208
1568039751,269.677,-47.5506,-17.078,-1.47217,1.34033,-156.929,208
1568039751,269.677,-47.5506,-17.078,-1.47217,1.34033,-156.929,208
1568039751,269.677,-47.5506,-17.078,-1.47217,1.34033,-156.929,208
1568039751,269.677,-47.5506,-17.078,-1.47217,1.34033,-156.929,208
1568039751,269.677,-47.5506,-17.078,-1.47217,1.31836,-156.929,208
1568039751,269.677,-47.5506,-17.078,-1.47217,1.31836,-156.929,208
1568039751,269.677,-47.5506,-17.078,-1.47217,1.31836,-156.929,208
1568039751,269.677,-47.5506,-17.078,-1.47217,1.31836,-156.929,212
1568039751,269.677,-47.5506,-17.078,-1.47217,1.31836,-156.929,212
1568039751,269.677,-47.5506,-17.078,-1.47217,1.31836,-156.929,212
1568039751,269.677,-47.5506,-17.078,-1.47217,1.31836,-156.929,212
1568039751,269.677,-47.5506,-17.078,-1.47217,1.31836,-156.929,212
1568039751,269.677,-47.5506,-17.078,-1.47217,1.31836,-156.929,212
1568039751,269.677,-47.5506,-17.078,-1.47217,1.31836,-156.929,212
1568039751,269.677,-47.5506,-17.078,-1.47217,1.31836,-156.929,212
1568039751,269.677,-47.5506,-17.078,-1.47217,1.31836,-156.929,212
1568039751,269.677,-47.5506,-17.078,-1.47217,1.31836,-156.929,212
1568039751,269.677,-47.5506,-17.078,-1.47217,1.31836,-156.929,212
1568039751,269.677,-47.5506,-17.078,-1.47217,1.31836,-156.929,212
1568039751,269.677,-47.5506,-17.078,-1.47217,1.31836,-156.929,212
1568039751,269.677,-47.5506,-17.078,-1.47217,1.31836,-156.929,212
1568039751,269.677,-47.5506,-17.078,-1.47217,1.31836,-156.929,212
1568039751,269.677,-47.5506,-17.078,-1.47217,1.31836,-156.929,212
1568039751,269.677,-47.5506,-17.078,-1.47217,1.31836,-156.929,212
1568039751,269.677,-47.5506,-17.078,-1.47217,1.31836,-156.929,212
1568039751,269.677,-47.5506,-17.078,-1.47217,1.31836,-156.929,212
1568039751,269.677,-47.5506,-17.078,-1.47217,1.31836,-156.929,212
1568039751,269.677,-47.5506,-17.078,-1.47217,1.31836,-156.929,212
1568039751,269.677,-47.5506,-17.078,-1.47217,1.31836,-156.929,212
1568039751,269.677,-47.5506,-17.078,-1.47217,1.31836,-156.929,212
1568039751,269.677,-47.5506,-17.078,-1.47217,1.31836,-156.929,212
1568039751,269.677,-47.5506,-17.078,-1.47217,1.31836,-156.929,212
1568039751,269.677,-47.5506,-17.078,-1.47217,1.31836,-156.929,212
1568039751,269.677,-47.5506,-17.078,-1.47217,1.31836,-156.907,212
1568039751,269.677,-47.5506,-17.078,-1.47217,1.31836,-156.907,212
1568039751,269.677,-47.5506,-17.078,-1.47217,1.31836,-156.907,212
1568039751,269.677,-47.5506,-17.078,-1.47217,1.31836,-156.907,212
1568039751,269.677,-47.5506,-17.078,-1.47217,1.31836,-156.929,212
1568039751,269.677,-47.5506,-17.078,-1.47217,1.31836,-156.929,212
1568039751,269.677,-47.5506,-17.078,-1.47217,1.31836,-156.929,212
1568039751,269.677,-47.5506,-17.078,-1.47217,1.31836,-156.929,212
1568039751,269.677,-47.5506,-17.078,-1.47217,1.31836,-156.929,212
1568039751,269.677,-47.5506,-17.078,-1.47217,1.31836,-156.929,212
1568039751,269.677,-47.5506,-17.078,-1.47217,1.31836,-156.929,212
1568039751,269.677,-47.5506,-17.078,-1.47217,1.31836,-156.929,212
1568039751,269.677,-47.5506,-17.078,-1.47217,1.31836,-156.929,212
1568039751,269.677,-47.5506,-17.078,-1.47217,1.34033,-156.929,212
1568039751,269.677,-47.5506,-17.078,-1.47217,1.34033,-156.929,212
1568039751,269.677,-47.5506,-17.078,-1.47217,1.34033,-156.929,208
1568039751,269.677,-47.5506,-17.078,-1.47217,1.31836,-156.929,208
1568039751,269.677,-47.5506,-17.078,-1.47217,1.31836,-156.929,208
1568039751,269.677,-47.5506,-17.078,-1.47217,1.31836,-156.929,208
1568039751,269.677,-47.5506,-17.078,-1.47217,1.31836,-156.929,208
1568039751,269.677,-47.5506,-17.078,-1.47217,1.31836,-156.929,208
1568039751,269.677,-47.5506,-17.078,-1.47217,1.31836,-156.929,208
1568039751,269.677,-47.5506,-17.078,-1.47217,1.31836,-156.929,208
1568039751,269.677,-47.5506,-17.078,-1.47217,1.31836,-156.929,208
1568039751,269.677,-47.5506,-17.078,-1.47217,1.31836,-156.929,208
1568039751,269.677,-47.5506,-17.078,-1.47217,1.31836,-156.929,208
1568039751,269.677,-47.5506,-17.078,-1.47217,1.31836,-156.929,208
1568039751,269.677,-47.5506,-17.078,-1.47217,1.31836,-156.929,204
1568039751,269.677,-47.5506,-17.078,-1.47217,1.31836,-156.929,204
1568039751,269.677,-47.5506,-17.078,-1.47217,1.31836,-156.929,204
1568039751,269.677,-47.5506,-17.078,-1.47217,1.31836,-156.929,204
1568039751,269.677,-47.5506,-17.078,-1.47217,1.31836,-156.929,204
1568039751,269.677,-47.5506,-17.078,-1.47217,1.31836,-156.929,204
1568039752,269.677,-47.5506,-17.078,-1.47217,1.31836,-156.929,204
1568039752,269.677,-47.5506,-17.078,-1.47217,1.31836,-156.929,204
1568039752,269.677,-47.5506,-17.078,-1.47217,1.31836,-156.929,204
1568039752,269.677,-47.5506,-17.078,-1.47217,1.31836,-156.929,208
1568039752,269.677,-47.5506,-17.078,-1.47217,1.31836,-156.929,208
1568039752,269.677,-47.5506,-17.078,-1.47217,1.31836,-156.929,208
1568039752,269.677,-47.5506,-17.078,-1.47217,1.31836,-156.929,208
1568039752,269.677,-47.5506,-17.078,-1.47217,1.31836,-156.929,208
1568039752,269.677,-47.5506,-17.078,-1.47217,1.31836,-156.929,208
1568039752,269.677,-47.5506,-17.078,-1.47217,1.31836,-156.929,208
1568039752,269.677,-47.5506,-17.078,-1.47217,1.31836,-156.929,208
1568039752,269.677,-47.5506,-17.078,-1.47217,1.31836,-156.929,208
1568039752,269.677,-47.5506,-17.078,-1.47217,1.31836,-156.929,208
1568039752,269.677,-47.5506,-17.078,-1.47217,1.31836,-156.929,208
1568039752,269.677,-47.5506,-17.078,-1.47217,1.31836,-156.929,208
1568039752,269.677,-47.5506,-17.078,-1.47217,1.31836,-156.929,208
1568039752,269.677,-47.5506,-17.078,-1.47217,1.31836,-156.929,208
1568039752,269.677,-47.5506,-17.078,-1.47217,1.31836,-156.929,212
1568039752,269.677,-47.5506,-17.078,-1.47217,1.34033,-156.929,212
1568039752,269.677,-47.5506,-17.078,-1.47217,1.34033,-156.929,212
1568039752,269.677,-47.5506,-17.078,-1.47217,1.34033,-156.929,212
1568039752,269.677,-47.5506,-17.078,-1.47217,1.34033,-156.929,212
1568039752,269.677,-47.5506,-17.078,-1.47217,1.34033,-156.929,212
1568039752,269.677,-47.5506,-17.078,-1.47217,1.34033,-156.929,212
1568039752,269.677,-47.5506,-17.078,-1.49414,1.34033,-156.929,212
1568039752,269.677,-47.5506,-17.078,-1.47217,1.34033,-156.929,212
1568039752,269.677,-47.5506,-17.078,-1.47217,1.34033,-156.929,212
1568039752,269.677,-47.5506,-17.078,-1.47217,1.34033,-156.929,212
1568039752,269.677,-47.5506,-17.078,-1.47217,1.31836,-156.929,212
1568039752,269.677,-47.5506,-17.078,-1.47217,1.31836,-156.929,212
1568039752,269.677,-47.5506,-17.078,-1.47217,1.31836,-156.929,212
1568039752,269.677,-47.5506,-17.078,-1.47217,1.31836,-156.929,212
1568039752,269.677,-47.5506,-17.078,-1.47217,1.31836,-156.929,212
1568039752,269.677,-47.5506,-17.078,-1.47217,1.31836,-156.929,212
1568039752,269.677,-47.5506,-17.078,-1.47217,1.31836,-156.929,212
1568039752,269.677,-47.5506,-17.078,-1.47217,1.31836,-156.929,212
1568039752,269.677,-47.5506,-17.078,-1.47217,1.31836,-156.929,212
1568039752,269.677,-47.5506,-17.078,-1.47217,1.34033,-156.929,212
1568039752,269.677,-47.5506,-17.078,-1.47217,1.34033,-156.929,212
1568039752,269.677,-47.5506,-17.078,-1.47217,1.34033,-156.929,212
1568039752,269.677,-47.5506,-17.078,-1.47217,1.34033,-156.929,212
1568039752,269.677,-47.5506,-17.078,-1.47217,1.34033,-156.929,212
1568039752,269.677,-47.5506,-17.078,-1.47217,1.34033,-156.929,212
1568039752,269.677,-47.5506,-17.078,-1.47217,1.34033,-156.929,212
1568039752,269.677,-47.5506,-17.078,-1.49414,1.34033,-156.929,212
1568039752,269.677,-47.5506,-17.078,-1.49414,1.34033,-156.929,212
1568039752,269.677,-47.5506,-17.078,-1.49414,1.34033,-156.929,212
1568039752,269.677,-47.5506,-17.078,-1.49414,1.34033,-156.929,212
1568039752,269.677,-47.5506,-17.078,-1.49414,1.34033,-156.929,212
1568039752,269.677,-47.5506,-17.078,-1.49414,1.34033,-156.929,212
1568039752,269.677,-47.5506,-17.078,-1.49414,1.34033,-156.929,212
1568039752,269.677,-47.5506,-17.078,-1.49414,1.34033,-156.907,212
1568039752,269.677,-47.5506,-17.078,-1.49414,1.34033,-156.907,212
1568039752,269.677,-47.5506,-17.078,-1.49414,1.34033,-156.907,212
1568039752,269.677,-47.5506,-17.078,-1.49414,1.34033,-156.907,212
1568039752,269.677,-47.5506,-17.078,-1.49414,1.34033,-156.907,212
1568039752,269.677,-47.5506,-17.078,-1.49414,1.34033,-156.907,212
1568039752,269.677,-47.5506,-17.078,-1.49414,1.34033,-156.907,212
1568039752,269.677,-47.5506,-17.078,-1.49414,1.34033,-156.907,212
1568039752,269.677,-47.5506,-17.078,-1.49414,1.34033,-156.907,212
1568039752,269.677,-47.5506,-17.078,-1.49414,1.34033,-156.907,212
1568039752,269.677,-47.5506,-17.078,-1.49414,1.34033,-156.907,212
1568039752,269.677,-47.5506,-17.078,-1.49414,1.34033,-156.929,212
1568039752,269.677,-47.5506,-17.078,-1.49414,1.34033,-156.929,212
1568039752,269.677,-47.5506,-17.078,-1.49414,1.34033,-156.929,212
1568039752,269.677,-47.5506,-17.078,-1.49414,1.34033,-156.929,212
1568039752,269.677,-47.5506,-17.078,-1.49414,1.34033,-156.929,212
1568039752,269.677,-47.5506,-17.078,-1.49414,1.34033,-156.929,212
1568039752,269.677,-47.5506,-17.078,-1.49414,1.34033,-156.929,212
1568039752,269.677,-47.5506,-17.078,-1.49414,1.34033,-156.929,212
1568039752,269.677,-47.5506,-17.078,-1.49414,1.34033,-156.929,212
1568039752,269.677,-47.5506,-17.078,-1.49414,1.34033,-156.929,212
1568039752,269.677,-47.5506,-17.078,-1.49414,1.34033,-156.929,212
1568039752,269.677,-47.5506,-17.1896,-1.49414,1.34033,-156.929,212
1568039752,269.677,-47.5506,-17.1896,-1.49414,1.34033,-156.929,208
1568039752,269.677,-47.5506,-17.1896,-1.49414,1.34033,-156.929,208
1568039752,269.677,-47.5506,-17.1896,-1.49414,1.34033,-156.929,208
1568039752,269.677,-47.5506,-17.078,-1.49414,1.34033,-156.929,208
1568039752,269.677,-47.5506,-17.078,-1.49414,1.34033,-156.929,208
1568039752,269.677,-47.5506,-17.078,-1.49414,1.34033,-156.929,204
1568039752,269.677,-47.5506,-17.078,-1.49414,1.34033,-156.929,204
1568039752,269.677,-47.5506,-17.078,-1.49414,1.34033,-156.929,204
1568039752,269.677,-47.5506,-17.078,-1.49414,1.34033,-156.929,204
1568039752,269.677,-47.5506,-17.078,-1.49414,1.34033,-156.929,204
1568039752,269.677,-47.5506,-17.078,-1.49414,1.34033,-156.929,204
1568039752,269.677,-47.5506,-17.078,-1.49414,1.34033,-156.929,204
1568039752,269.677,-47.5506,-17.078,-1.49414,1.34033,-156.929,204
1568039752,269.677,-47.5506,-17.078,-1.49414,1.34033,-156.929,204
1568039752,269.677,-47.5506,-17.078,-1.47217,1.34033,-156.929,204
1568039752,269.677,-47.5506,-17.078,-1.47217,1.34033,-156.929,204
1568039752,269.677,-47.5506,-17.078,-1.47217,1.34033,-156.929,208
1568039752,269.677,-47.5506,-17.078,-1.47217,1.34033,-156.929,208
1568039752,269.677,-47.5506,-17.078,-1.47217,1.34033,-156.929,208
1568039752,269.677,-47.5506,-17.078,-1.47217,1.34033,-156.929,208
1568039752,269.677,-47.5506,-17.078,-1.47217,1.34033,-156.929,208
1568039752,269.677,-47.5506,-17.078,-1.47217,1.34033,-156.929,208
1568039752,269.677,-47.5506,-17.078,-1.47217,1.34033,-156.929,208
1568039752,269.677,-47.5506,-17.078,-1.47217,1.34033,-156.929,208
1568039752,269.677,-47.5506,-17.078,-1.47217,1.34033,-156.929,208
1568039752,269.677,-47.5506,-17.078,-1.47217,1.34033,-156.929,208
1568039753,269.677,-47.5506,-17.078,-1.47217,1.34033,-156.929,208
1568039753,269.677,-47.5506,-17.078,-1.47217,1.34033,-156.929,208
1568039753,269.677,-47.5506,-17.078,-1.47217,1.34033,-156.929,212
1568039753,269.677,-47.5506,-17.078,-1.47217,1.34033,-156.929,212
1568039753,269.677,-47.5506,-17.078,-1.47217,1.34033,-156.929,212
1568039753,269.677,-47.5506,-17.078,-1.49414,1.34033,-156.929,212
1568039753,269.677,-47.5506,-17.078,-1.49414,1.34033,-156.929,212
1568039753,269.677,-47.5506,-17.078,-1.49414,1.34033,-156.929,212
1568039753,269.677,-47.5506,-17.078,-1.49414,1.34033,-156.929,212
1568039753,269.677,-47.5506,-17.078,-1.49414,1.34033,-156.929,212
1568039753,269.677,-47.5506,-17.078,-1.49414,1.34033,-156.929,212
1568039753,269.677,-47.5506,-17.078,-1.49414,1.31836,-156.929,212
1568039753,269.677,-47.5506,-17.078,-1.49414,1.31836,-156.907,212
1568039753,269.677,-47.5506,-17.078,-1.49414,1.31836,-156.907,212
1568039753,269.677,-47.5506,-17.078,-1.49414,1.31836,-156.907,212
1568039753,269.677,-47.5506,-17.078,-1.49414,1.31836,-156.907,212
1568039753,269.677,-47.5506,-17.078,-1.49414,1.31836,-156.907,212
1568039753,269.677,-47.5506,-17.078,-1.49414,1.31836,-156.907,212
1568039753,269.677,-47.5506,-17.078,-1.49414,1.31836,-156.907,212
1568039753,269.677,-47.5506,-17.078,-1.49414,1.31836,-156.907,212
1568039753,269.677,-47.5506,-17.078,-1.49414,1.31836,-156.929,212
1568039753,269.677,-47.5506,-17.078,-1.49414,1.31836,-156.929,212
1568039753,269.677,-47.5506,-17.078,-1.49414,1.31836,-156.929,212
1568039753,269.677,-47.5506,-17.078,-1.49414,1.31836,-156.929,212
1568039753,269.677,-47.5506,-17.078,-1.49414,1.31836,-156.929,212
1568039753,269.677,-47.5506,-17.078,-1.49414,1.31836,-156.929,212
1568039753,269.677,-47.5506,-17.078,-1.49414,1.31836,-156.929,208
1568039753,269.677,-47.5506,-17.078,-1.49414,1.31836,-156.929,208
1568039753,269.677,-47.5506,-17.078,-1.49414,1.31836,-156.929,208
1568039753,269.677,-47.5506,-17.078,-1.49414,1.31836,-156.929,208
1568039753,269.677,-47.5506,-17.078,-1.49414,1.31836,-156.929,208
1568039753,269.677,-47.5506,-17.078,-1.49414,1.31836,-156.929,208
1568039753,269.677,-47.5506,-17.078,-1.49414,1.31836,-156.929,208
1568039753,269.677,-47.5506,-17.078,-1.49414,1.31836,-156.929,208
1568039753,269.677,-47.5506,-17.078,-1.49414,1.31836,-156.929,208
1568039753,269.677,-47.5506,-17.078,-1.49414,1.31836,-156.929,204
1568039753,269.677,-47.5506,-17.078,-1.49414,1.31836,-156.929,204
1568039753,269.677,-47.5506,-17.078,-1.49414,1.31836,-156.929,204
1568039753,269.677,-47.5506,-17.078,-1.49414,1.31836,-156.929,204
1568039753,269.677,-47.5506,-17.078,-1.49414,1.31836,-156.929,204
1568039753,269.677,-47.5506,-17.078,-1.49414,1.31836,-156.929,204
1568039753,269.677,-47.5506,-17.078,-1.49414,1.31836,-156.929,204
1568039753,269.677,-47.5506,-17.078,-1.49414,1.31836,-156.929,204
1568039753,269.677,-47.5506,-17.078,-1.49414,1.31836,-156.929,204
1568039753,269.677,-47.5506,-17.078,-1.49414,1.31836,-156.929,204
1568039753,269.677,-47.5506,-17.078,-1.49414,1.31836,-156.929,204
1568039753,269.677,-47.5506,-17.078,-1.49414,1.31836,-156.929,208
1568039753,269.677,-47.5506,-17.078,-1.49414,1.31836,-156.929,208
1568039753,269.677,-47.5506,-17.078,-1.49414,1.31836,-156.929,208
1568039753,269.677,-47.5506,-17.078,-1.49414,1.31836,-156.929,208
1568039753,269.677,-47.5506,-17.078,-1.49414,1.31836,-156.929,208
1568039753,269.677,-47.5506,-17.078,-1.49414,1.31836,-156.929,208
1568039753,269.677,-47.5506,-17.078,-1.49414,1.31836,-156.929,208
1568039753,269.677,-47.5506,-17.078,-1.49414,1.31836,-156.929,208
1568039753,269.677,-47.5506,-17.078,-1.49414,1.31836,-156.929,208
1568039753,269.677,-47.5506,-17.078,-1.49414,1.31836,-156.929,208
1568039753,269.677,-47.5506,-17.078,-1.49414,1.31836,-156.929,208
1568039753,269.677,-47.5506,-17.078,-1.49414,1.31836,-156.929,208
1568039753,269.677,-47.5506,-17.078,-1.49414,1.31836,-156.929,208
1568039753,269.677,-47.5506,-17.078,-1.49414,1.31836,-156.929,208
1568039753,269.677,-47.5506,-17.078,-1.49414,1.31836,-156.929,208
1568039753,269.677,-47.5506,-17.078,-1.49414,1.31836,-156.929,208
1568039753,269.677,-47.5506,-17.078,-1.49414,1.31836,-156.929,208
1568039753,269.677,-47.5506,-17.078,-1.49414,1.31836,-156.929,208
1568039753,269.677,-47.5506,-17.078,-1.49414,1.31836,-156.929,208
1568039753,269.677,-47.5506,-17.078,-1.49414,1.31836,-156.929,208
1568039753,269.677,-47.5506,-17.078,-1.49414,1.31836,-156.929,208
1568039753,269.677,-47.5506,-17.078,-1.49414,1.31836,-156.929,212
1568039753,269.677,-47.5506,-17.078,-1.49414,1.31836,-156.929,212
1568039753,269.677,-47.5506,-17.078,-1.49414,1.31836,-156.929,212
1568039753,269.677,-47.5506,-17.078,-1.49414,1.31836,-156.929,212
1568039753,269.677,-47.5506,-17.078,-1.49414,1.31836,-156.929,212
1568039753,269.677,-47.5506,-17.078,-1.47217,1.31836,-156.929,212
1568039753,269.677,-47.5506,-17.078,-1.47217,1.31836,-156.929,212
1568039753,269.677,-47.5506,-17.078,-1.47217,1.31836,-156.929,212
1568039753,269.677,-47.5506,-17.078,-1.47217,1.31836,-156.929,212
1568039753,269.677,-47.5506,-17.078,-1.47217,1.31836,-156.929,212
1568039753,269.677,-47.5506,-17.078,-1.47217,1.31836,-156.929,212
1568039753,269.677,-47.5506,-17.078,-1.47217,1.31836,-156.929,212
1568039753,269.677,-47.5506,-17.078,-1.47217,1.31836,-156.929,212
1568039753,269.677,-47.5506,-17.078,-1.47217,1.31836,-156.929,212
1568039753,269.677,-47.5506,-17.078,-1.47217,1.31836,-156.929,212
1568039753,269.677,-47.5506,-17.078,-1.47217,1.31836,-156.929,212
1568039753,269.677,-47.5506,-17.078,-1.47217,1.31836,-156.929,212
1568039753,269.677,-47.5506,-17.078,-1.47217,1.31836,-156.929,212
1568039753,269.677,-47.5506,-17.078,-1.47217,1.31836,-156.929,212
1568039753,269.677,-47.5506,-17.078,-1.47217,1.31836,-156.929,212
1568039753,269.677,-47.5506,-17.078,-1.47217,1.31836,-156.929,212
1568039753,269.677,-47.5506,-17.078,-1.47217,1.31836,-156.929,212
1568039753,269.677,-47.5506,-17.078,-1.49414,1.31836,-156.929,212
1568039753,269.677,-47.5506,-17.078,-1.49414,1.31836,-156.929,212
1568039753,269.677,-47.5506,-17.078,-1.49414,1.31836,-156.929,212
1568039753,269.677,-47.5506,-17.078,-1.49414,1.31836,-156.929,212
1568039753,269.677,-47.5506,-17.078,-1.49414,1.31836,-156.929,212
1568039753,269.677,-47.5506,-17.078,-1.49414,1.31836,-156.929,212
1568039753,269.677,-47.5506,-17.078,-1.49414,1.31836,-156.929,216
1568039753,269.677,-47.5506,-17.078,-1.49414,1.31836,-156.929,216
1568039753,269.677,-47.5506,-17.078,-1.49414,1.31836,-156.929,216
1568039753,269.677,-47.5506,-17.078,-1.49414,1.31836,-156.929,216
1568039753,269.677,-47.5506,-17.078,-1.49414,1.31836,-156.929,216
1568039754,269.677,-47.5506,-17.078,-1.49414,1.31836,-156.929,216
1568039754,269.677,-47.5506,-17.078,-1.49414,1.31836,-156.929,216
1568039754,269.677,-47.5506,-17.078,-1.49414,1.31836,-156.929,216
1568039754,269.677,-47.5506,-17.078,-1.49414,1.31836,-156.929,216
1568039754,269.677,-47.5506,-17.078,-1.49414,1.31836,-156.929,216
1568039754,269.677,-47.5506,-17.078,-1.49414,1.31836,-156.929,216
1568039754,269.677,-47.5506,-17.078,-1.49414,1.31836,-156.929,216
1568039754,269.677,-47.5506,-17.078,-1.49414,1.31836,-156.929,216
1568039754,269.677,-47.5506,-17.078,-1.49414,1.31836,-156.929,212
1568039754,269.677,-47.5506,-17.078,-1.49414,1.31836,-156.929,212
1568039754,269.677,-47.5506,-17.078,-1.49414,1.31836,-156.929,212
1568039754,269.677,-47.5506,-17.078,-1.49414,1.31836,-156.929,212
1568039754,269.677,-47.5506,-17.078,-1.49414,1.31836,-156.929,212
1568039754,269.677,-47.5506,-17.078,-1.47217,1.31836,-156.929,212
1568039754,269.677,-47.5506,-17.078,-1.47217,1.31836,-156.929,212
1568039754,269.677,-47.5506,-17.078,-1.47217,1.31836,-156.929,212
1568039754,269.677,-47.5506,-17.078,-1.47217,1.31836,-156.929,212
1568039754,269.677,-47.5506,-17.078,-1.47217,1.31836,-156.929,212
1568039754,269.677,-47.5506,-17.078,-1.47217,1.31836,-156.929,212
1568039754,269.677,-47.5506,-17.078,-1.47217,1.31836,-156.929,212
1568039754,269.677,-47.5506,-17.078,-1.47217,1.31836,-156.929,212
1568039754,269.677,-47.5506,-17.078,-1.47217,1.31836,-156.929,212
1568039754,269.677,-47.5506,-17.078,-1.47217,1.31836,-156.929,212
1568039754,269.677,-47.5506,-17.078,-1.47217,1.31836,-156.929,212
1568039754,269.677,-47.5506,-17.078,-1.47217,1.31836,-156.929,212
1568039754,269.677,-47.5506,-17.078,-1.47217,1.31836,-156.929,212
1568039754,269.677,-47.5506,-17.078,-1.47217,1.31836,-156.929,216
1568039754,269.677,-47.5506,-17.078,-1.47217,1.31836,-156.929,216
1568039754,269.677,-47.5506,-17.078,-1.47217,1.31836,-156.929,216
1568039754,269.677,-47.5506,-17.078,-1.47217,1.31836,-156.929,216
1568039754,269.677,-47.5506,-17.078,-1.47217,1.31836,-156.929,216
1568039754,269.677,-47.5506,-17.078,-1.47217,1.31836,-156.929,216
1568039754,269.677,-47.5506,-17.078,-1.47217,1.31836,-156.929,220
1568039754,269.677,-47.5506,-17.078,-1.47217,1.31836,-156.929,220
1568039754,269.677,-47.5506,-17.078,-1.47217,1.31836,-156.929,220
1568039754,269.677,-47.5506,-17.078,-1.47217,1.31836,-156.929,220
1568039754,269.677,-47.5506,-17.078,-1.47217,1.31836,-156.929,220
1568039754,269.677,-47.5506,-17.078,-1.47217,1.31836,-156.929,220
1568039754,269.677,-47.5506,-17.078,-1.47217,1.31836,-156.929,220
1568039754,269.677,-47.5506,-17.078,-1.47217,1.31836,-156.929,220
1568039754,269.677,-47.5506,-17.078,-1.47217,1.31836,-156.929,220
1568039754,269.677,-47.5506,-17.078,-1.47217,1.31836,-156.929,224
1568039754,269.677,-47.5506,-17.078,-1.47217,1.31836,-156.929,224
1568039754,269.677,-47.5506,-17.078,-1.47217,1.31836,-156.929,224
1568039754,269.677,-47.5506,-17.078,-1.47217,1.31836,-156.929,224
1568039754,269.677,-47.5506,-17.078,-1.47217,1.31836,-156.929,224
1568039754,269.677,-47.5506,-17.078,-1.47217,1.31836,-156.929,224
1568039754,269.677,-47.5506,-17.078,-1.47217,1.31836,-156.929,224
1568039754,269.677,-47.5506,-17.078,-1.47217,1.31836,-156.929,224
1568039754,269.677,-47.5506,-17.078,-1.47217,1.31836,-156.929,220
1568039754,269.677,-47.5506,-17.078,-1.47217,1.31836,-156.929,220
1568039754,269.677,-47.5506,-17.078,-1.47217,1.31836,-156.929,220
1568039754,269.677,-47.5506,-17.078,-1.47217,1.31836,-156.929,220
1568039754,269.677,-47.5506,-17.078,-1.47217,1.31836,-156.929,220
1568039754,269.677,-47.5506,-17.078,-1.47217,1.31836,-156.929,220
1568039754,269.677,-47.5506,-17.078,-1.47217,1.31836,-156.929,220
1568039754,269.677,-47.5506,-17.078,-1.47217,1.31836,-156.929,220
1568039754,269.677,-47.5506,-17.078,-1.47217,1.31836,-156.929,220
1568039754,269.677,-47.5506,-17.078,-1.47217,1.31836,-156.929,220
1568039754,269.677,-47.5506,-17.078,-1.47217,1.31836,-156.929,220
1568039754,269.677,-47.5506,-17.078,-1.47217,1.31836,-156.929,220
1568039754,269.677,-47.5506,-17.078,-1.47217,1.31836,-156.929,220
1568039754,269.677,-47.5506,-17.078,-1.47217,1.31836,-156.907,220
1568039754,269.677,-47.5506,-17.078,-1.47217,1.31836,-156.907,220
1568039754,269.677,-47.5506,-17.078,-1.47217,1.31836,-156.907,220
1568039754,269.677,-47.5506,-17.078,-1.47217,1.31836,-156.907,220
1568039754,269.677,-47.5506,-17.078,-1.47217,1.31836,-156.929,220
1568039754,269.677,-47.5506,-17.078,-1.47217,1.31836,-156.929,220
1568039754,269.677,-47.5506,-17.078,-1.47217,1.31836,-156.929,220
1568039754,269.677,-47.5506,-17.078,-1.47217,1.31836,-156.929,220
1568039754,269.677,-47.5506,-17.078,-1.47217,1.31836,-156.929,220
1568039754,269.677,-47.5506,-17.078,-1.47217,1.31836,-156.929,220
1568039754,269.677,-47.5506,-17.078,-1.47217,1.31836,-156.929,220
1568039754,269.677,-47.5506,-17.078,-1.49414,1.31836,-156.929,220
1568039754,269.677,-47.5506,-17.078,-1.49414,1.31836,-156.929,220
1568039754,269.677,-47.5506,-17.078,-1.49414,1.31836,-156.929,220
1568039754,269.677,-47.5506,-17.078,-1.49414,1.31836,-156.929,220
1568039754,269.677,-47.5506,-17.078,-1.47217,1.31836,-156.907,220
1568039754,269.677,-47.5506,-17.078,-1.47217,1.31836,-156.907,220
1568039754,269.677,-47.5506,-17.078,-1.47217,1.31836,-156.907,220
1568039754,269.677,-47.5506,-17.078,-1.47217,1.31836,-156.907,220
1568039754,269.677,-47.5506,-17.078,-1.47217,1.31836,-156.907,220
1568039754,269.677,-47.5506,-17.078,-1.47217,1.31836,-156.907,220
1568039754,269.677,-47.5506,-17.078,-1.47217,1.31836,-156.929,220
1568039754,269.677,-47.5506,-17.078,-1.47217,1.31836,-156.929,220
1568039754,269.677,-47.5506,-17.078,-1.47217,1.31836,-156.929,216
1568039754,269.677,-47.5506,-17.078,-1.47217,1.31836,-156.929,216
1568039754,269.677,-47.5506,-17.078,-1.47217,1.31836,-156.929,216
1568039754,269.677,-47.5506,-17.078,-1.47217,1.31836,-156.929,216
1568039754,269.677,-47.5506,-17.078,-1.47217,1.31836,-156.929,216
1568039754,269.677,-47.5506,-17.078,-1.49414,1.31836,-156.929,216
1568039754,269.677,-47.5506,-17.078,-1.49414,1.31836,-156.929,216
1568039754,269.677,-47.5506,-17.078,-1.49414,1.31836,-156.929,216
1568039754,269.677,-47.5506,-17.078,-1.49414,1.31836,-156.929,216
1568039754,269.677,-47.5506,-17.078,-1.49414,1.31836,-156.929,216
1568039754,269.677,-47.5506,-17.078,-1.49414,1.31836,-156.929,216
1568039754,269.677,-47.5506,-17.078,-1.49414,1.31836,-156.929,216
1568039754,269.677,-47.5506,-17.078,-1.49414,1.31836,-156.929,216
1568039754,269.677,-47.5506,-17.078,-1.49414,1.31836,-156.929,212
1568039754,269.677,-47.5506,-17.078,-1.49414,1.31836,-156.929,212
1568039755,269.677,-47.5506,-17.078,-1.49414,1.31836,-156.929,212
1568039755,269.677,-47.5506,-17.078,-1.49414,1.31836,-156.929,212
1568039755,269.677,-47.5506,-17.078,-1.49414,1.31836,-156.929,212
1568039755,269.677,-47.5506,-17.078,-1.49414,1.31836,-156.929,212
1568039755,269.677,-47.5506,-17.078,-1.47217,1.31836,-156.929,212
1568039755,269.677,-47.5506,-17.078,-1.47217,1.31836,-156.929,212
1568039755,269.677,-47.5506,-17.078,-1.47217,1.31836,-156.929,212
1568039755,269.677,-47.5506,-17.078,-1.47217,1.31836,-156.929,212
1568039755,269.677,-47.5506,-17.078,-1.47217,1.31836,-156.929,212
1568039755,269.677,-47.5506,-17.078,-1.47217,1.31836,-156.929,212
1568039755,269.677,-47.5506,-17.078,-1.49414,1.31836,-156.929,212
1568039755,269.677,-47.5506,-17.078,-1.49414,1.31836,-156.929,212
1568039755,269.677,-47.5506,-17.078,-1.49414,1.31836,-156.929,212
1568039755,269.677,-47.5506,-17.078,-1.49414,1.31836,-156.929,212
1568039755,269.677,-47.5506,-17.078,-1.49414,1.31836,-156.929,212
1568039755,269.677,-47.5506,-17.078,-1.49414,1.31836,-156.929,212
1568039755,269.677,-47.5506,-17.078,-1.49414,1.31836,-156.929,212
1568039755,269.677,-47.5506,-17.078,-1.49414,1.31836,-156.929,212
1568039755,269.677,-47.5506,-17.078,-1.49414,1.31836,-156.929,212
1568039755,269.677,-47.5506,-17.078,-1.49414,1.31836,-156.929,212
1568039755,269.677,-47.5506,-17.078,-1.49414,1.31836,-156.929,212
1568039755,269.677,-47.5506,-17.078,-1.49414,1.31836,-156.929,212
1568039755,269.677,-47.5506,-17.078,-1.49414,1.31836,-156.929,212
1568039755,269.677,-47.5506,-17.078,-1.49414,1.34033,-156.929,212
1568039755,269.677,-47.5506,-17.078,-1.49414,1.34033,-156.929,212
1568039755,269.677,-47.5506,-17.078,-1.49414,1.34033,-156.929,212
1568039755,269.677,-47.5506,-17.078,-1.49414,1.34033,-156.929,212
1568039755,269.677,-47.5506,-17.078,-1.49414,1.34033,-156.929,212
1568039755,269.677,-47.5506,-17.078,-1.49414,1.34033,-156.929,212
1568039755,269.677,-47.5506,-17.078,-1.49414,1.34033,-156.929,212
1568039755,269.677,-47.5506,-17.078,-1.49414,1.34033,-156.929,212
1568039755,269.677,-47.5506,-17.078,-1.49414,1.34033,-156.929,212
1568039755,269.677,-47.5506,-17.078,-1.47217,1.34033,-156.929,212
1568039755,269.677,-47.5506,-17.078,-1.47217,1.34033,-156.929,212
1568039755,269.677,-47.5506,-17.078,-1.47217,1.34033,-156.929,212
1568039755,269.677,-47.5506,-17.078,-1.47217,1.34033,-156.929,212
1568039755,269.677,-47.5506,-17.078,-1.47217,1.34033,-156.929,212
1568039755,269.677,-47.5506,-17.078,-1.47217,1.34033,-156.929,212
1568039755,269.677,-47.5506,-17.078,-1.49414,1.34033,-156.929,212
1568039755,269.677,-47.5506,-17.078,-1.49414,1.34033,-156.929,212
1568039755,269.677,-47.5506,-17.078,-1.49414,1.34033,-156.929,212
1568039755,269.677,-47.5506,-17.078,-1.49414,1.34033,-156.929,216
1568039755,269.677,-47.5506,-17.078,-1.49414,1.34033,-156.929,216
1568039755,269.677,-47.5506,-17.078,-1.49414,1.34033,-156.929,216
1568039755,269.677,-47.5506,-17.078,-1.49414,1.34033,-156.929,216
1568039755,269.677,-47.5506,-17.078,-1.49414,1.34033,-156.907,216
1568039755,269.677,-47.5506,-17.078,-1.49414,1.34033,-156.907,216
1568039755,269.677,-47.5506,-17.078,-1.49414,1.34033,-156.907,216
1568039755,269.677,-47.5506,-17.078,-1.49414,1.34033,-156.907,216
1568039755,269.677,-47.5506,-17.078,-1.49414,1.34033,-156.907,216
1568039755,269.677,-47.5506,-17.078,-1.49414,1.34033,-156.907,216
1568039755,269.677,-47.5506,-17.078,-1.49414,1.34033,-156.907,216
1568039755,269.677,-47.5506,-17.078,-1.49414,1.34033,-156.907,216
1568039755,269.677,-47.5506,-17.078,-1.49414,1.34033,-156.907,216
1568039755,269.677,-47.5506,-17.078,-1.49414,1.34033,-156.907,216
1568039755,269.677,-47.5506,-17.078,-1.49414,1.34033,-156.907,216
1568039755,269.677,-47.5506,-17.078,-1.49414,1.34033,-156.929,212
1568039755,269.677,-47.5506,-17.078,-1.49414,1.34033,-156.929,212
1568039755,269.677,-47.5506,-17.078,-1.49414,1.34033,-156.929,212
1568039755,269.677,-47.5506,-17.078,-1.47217,1.34033,-156.929,212
1568039755,269.677,-47.5506,-17.078,-1.47217,1.34033,-156.929,212
1568039755,269.677,-47.5506,-17.078,-1.47217,1.34033,-156.929,212
1568039755,269.677,-47.5506,-17.078,-1.47217,1.34033,-156.929,212
1568039755,269.677,-47.5506,-17.078,-1.47217,1.34033,-156.929,212
1568039755,269.677,-47.5506,-17.078,-1.47217,1.34033,-156.929,212
1568039755,269.677,-47.5506,-17.078,-1.47217,1.34033,-156.929,212
1568039755,269.677,-47.5506,-17.078,-1.47217,1.34033,-156.929,212
1568039755,269.677,-47.5506,-17.078,-1.47217,1.34033,-156.929,212
1568039755,269.677,-47.5506,-17.078,-1.47217,1.34033,-156.929,212
1568039755,269.677,-47.5506,-17.078,-1.47217,1.34033,-156.907,212
1568039755,269.677,-47.5506,-17.078,-1.47217,1.34033,-156.907,212
1568039755,269.677,-47.5506,-17.078,-1.47217,1.34033,-156.907,212
1568039755,269.677,-47.5506,-17.078,-1.47217,1.34033,-156.907,212
1568039755,269.677,-47.5506,-17.078,-1.49414,1.34033,-156.907,212
1568039755,269.677,-47.5506,-17.078,-1.49414,1.34033,-156.907,212
1568039755,269.677,-47.5506,-17.078,-1.49414,1.34033,-156.907,212
1568039755,269.677,-47.5506,-17.078,-1.49414,1.31836,-156.907,212
1568039755,269.677,-47.5506,-17.078,-1.49414,1.31836,-156.907,212
1568039755,269.677,-47.5506,-17.078,-1.49414,1.31836,-156.907,212
1568039755,269.677,-47.5506,-17.078,-1.49414,1.31836,-156.907,212
1568039755,269.677,-47.5506,-17.078,-1.49414,1.31836,-156.907,212
1568039755,269.677,-47.5506,-17.078,-1.49414,1.31836,-156.907,212
1568039755,269.677,-47.5506,-17.078,-1.49414,1.31836,-156.907,212
1568039755,269.677,-47.5506,-17.078,-1.49414,1.31836,-156.907,212
1568039755,269.677,-47.5506,-17.078,-1.49414,1.31836,-156.907,212
1568039755,269.677,-47.5506,-17.078,-1.49414,1.31836,-156.907,212
1568039755,269.677,-47.5506,-17.078,-1.49414,1.31836,-156.907,216
1568039755,269.677,-47.5506,-17.078,-1.49414,1.31836,-156.907,216
1568039755,269.677,-47.5506,-17.078,-1.49414,1.31836,-156.907,216
1568039755,269.677,-47.5506,-17.078,-1.49414,1.31836,-156.907,216
1568039755,269.677,-47.5506,-17.078,-1.49414,1.34033,-156.929,216
1568039755,269.677,-47.5506,-17.078,-1.49414,1.34033,-156.929,216
1568039755,269.677,-47.5506,-17.078,-1.49414,1.34033,-156.929,216
1568039755,269.677,-47.5506,-17.078,-1.49414,1.34033,-156.929,216
1568039755,269.677,-47.5506,-17.078,-1.49414,1.34033,-156.929,216
1568039755,269.677,-47.5506,-17.078,-1.49414,1.31836,-156.929,216
1568039755,269.677,-47.5506,-17.078,-1.49414,1.31836,-156.929,216
1568039755,269.677,-47.5506,-17.078,-1.49414,1.31836,-156.929,216
1568039755,269.677,-47.5506,-17.078,-1.49414,1.31836,-156.929,216
1568039755,269.677,-47.5506,-17.078,-1.49414,1.31836,-156.929,216
1568039756,269.677,-47.5506,-17.078,-1.49414,1.31836,-156.929,216
1568039756,269.677,-47.5506,-17.078,-1.49414,1.31836,-156.929,216
1568039756,269.677,-47.5506,-17.078,-1.49414,1.31836,-156.929,216
1568039756,269.677,-47.5506,-17.078,-1.49414,1.31836,-156.929,216
1568039756,269.677,-47.5506,-17.078,-1.49414,1.31836,-156.929,216
1568039756,269.677,-47.5506,-17.078,-1.49414,1.31836,-156.929,216
1568039756,269.677,-47.5506,-17.078,-1.49414,1.31836,-156.929,216
1568039756,269.677,-47.5506,-17.078,-1.49414,1.31836,-156.929,216
1568039756,269.677,-47.5506,-17.078,-1.49414,1.31836,-156.929,216
1568039756,269.677,-47.5506,-17.078,-1.49414,1.31836,-156.929,212
1568039756,269.677,-47.5506,-17.078,-1.49414,1.31836,-156.929,212
1568039756,269.677,-47.5506,-17.078,-1.49414,1.34033,-156.929,212
1568039756,269.677,-47.5506,-17.078,-1.49414,1.34033,-156.929,212
1568039756,269.677,-47.5506,-17.078,-1.49414,1.34033,-156.929,212
1568039756,269.677,-47.5506,-17.078,-1.49414,1.31836,-156.929,212
1568039756,269.677,-47.5506,-17.078,-1.49414,1.31836,-156.929,216
1568039756,269.677,-47.5506,-17.078,-1.49414,1.31836,-156.929,216
1568039756,269.677,-47.5506,-17.078,-1.49414,1.31836,-156.929,216
1568039756,269.677,-47.5506,-17.078,-1.49414,1.31836,-156.929,216
1568039756,269.677,-47.5506,-17.078,-1.49414,1.31836,-156.929,216
1568039756,269.677,-47.5506,-17.078,-1.49414,1.31836,-156.929,216
1568039756,269.677,-47.5506,-17.078,-1.49414,1.31836,-156.929,216
1568039762,254.05,-31.2539,-17.1896,-1.53809,1.12061,-156.709,212
1568039762,254.05,-31.2539,-17.1896,-1.53809,1.12061,-156.709,212
1568039762,254.05,-31.2539,-17.078,-1.53809,1.12061,-156.709,212
1568039762,254.05,-31.2539,-17.078,-1.53809,1.12061,-156.709,212
1568039762,254.05,-31.2539,-17.078,-1.53809,1.12061,-156.709,212
1568039762,254.05,-31.2539,-17.078,-1.53809,1.12061,-156.709,212
1568039762,254.05,-31.2539,-17.078,-1.53809,1.12061,-156.709,216
1568039762,254.05,-31.2539,-17.078,-1.53809,1.12061,-156.709,216
1568039762,254.05,-31.2539,-17.078,-1.53809,1.12061,-156.709,216
1568039762,254.05,-31.2539,-17.078,-1.53809,1.12061,-156.709,216
1568039762,254.05,-31.2539,-17.078,-1.53809,1.12061,-156.709,216
1568039762,254.05,-31.2539,-17.078,-1.53809,1.12061,-156.709,216
1568039762,254.05,-31.2539,-17.078,-1.53809,1.12061,-156.709,216
1568039762,254.05,-31.2539,-17.078,-1.53809,1.09863,-156.709,216
1568039762,254.05,-31.2539,-17.078,-1.53809,1.09863,-156.709,216
1568039762,254.05,-31.2539,-17.1896,-1.53809,1.12061,-156.709,216
1568039762,254.05,-31.2539,-17.1896,-1.53809,1.12061,-156.709,216
1568039762,254.05,-31.2539,-17.1896,-1.53809,1.12061,-156.709,216
1568039762,254.05,-31.2539,-17.1896,-1.53809,1.12061,-156.709,216
1568039762,254.05,-31.2539,-17.1896,-1.51611,1.12061,-156.709,216
1568039762,254.05,-31.2539,-17.1896,-1.51611,1.12061,-156.709,216
1568039762,254.05,-31.2539,-17.078,-1.51611,1.12061,-156.709,216
1568039762,254.05,-31.2539,-17.078,-1.51611,1.12061,-156.709,216
1568039762,254.05,-31.2539,-17.078,-1.51611,1.09863,-156.709,216
1568039762,254.05,-31.2539,-17.078,-1.51611,1.09863,-156.709,216
1568039762,254.05,-31.2539,-17.078,-1.51611,1.09863,-156.709,216
1568039762,254.05,-31.2539,-17.078,-1.53809,1.09863,-156.709,216
1568039762,254.05,-31.2539,-17.078,-1.53809,1.09863,-156.709,216
1568039762,254.05,-31.2539,-17.078,-1.53809,1.09863,-156.709,216
1568039762,254.05,-31.2539,-17.078,-1.53809,1.09863,-156.709,220
1568039762,254.05,-31.2539,-17.078,-1.53809,1.09863,-156.709,220
1568039762,254.05,-31.2539,-17.078,-1.53809,1.09863,-156.709,220
1568039762,254.05,-31.2539,-17.078,-1.53809,1.09863,-156.709,220
1568039762,254.05,-31.2539,-17.078,-1.53809,1.09863,-156.709,220
1568039762,254.05,-31.2539,-17.078,-1.53809,1.09863,-156.709,220
1568039762,254.05,-31.2539,-17.078,-1.53809,1.09863,-156.709,220
1568039762,254.05,-31.2539,-17.078,-1.53809,1.09863,-156.709,220
1568039762,254.05,-31.2539,-17.078,-1.53809,1.09863,-156.709,220
1568039762,254.05,-31.2539,-17.078,-1.53809,1.09863,-156.709,220
1568039762,254.05,-31.2539,-17.078,-1.53809,1.09863,-156.709,220
1568039762,254.05,-31.2539,-17.078,-1.53809,1.09863,-156.709,216
1568039762,254.05,-31.2539,-17.078,-1.53809,1.12061,-156.709,216
1568039762,254.05,-31.2539,-17.1896,-1.53809,1.12061,-156.709,216
1568039762,254.05,-31.2539,-17.1896,-1.53809,1.12061,-156.709,216
1568039762,254.05,-31.2539,-17.1896,-1.53809,1.12061,-156.709,216
1568039762,254.05,-31.2539,-17.1896,-1.53809,1.09863,-156.709,216
1568039762,254.05,-31.2539,-17.1896,-1.51611,1.09863,-156.709,216
1568039762,254.05,-31.2539,-17.1896,-1.51611,1.09863,-156.709,216
1568039762,254.05,-31.2539,-17.1896,-1.51611,1.09863,-156.709,216
1568039762,254.05,-31.2539,-17.1896,-1.51611,1.09863,-156.709,216
1568039762,254.05,-31.2539,-17.1896,-1.51611,1.09863,-156.709,216
1568039762,254.05,-31.2539,-17.1896,-1.51611,1.09863,-156.709,216
1568039762,254.05,-31.2539,-17.1896,-1.51611,1.12061,-156.709,216
1568039762,254.05,-31.2539,-17.1896,-1.51611,1.12061,-156.709,216
1568039762,254.05,-31.2539,-17.1896,-1.51611,1.12061,-156.709,216
1568039762,254.05,-31.2539,-17.1896,-1.51611,1.12061,-156.709,216
1568039762,254.05,-31.2539,-17.1896,-1.51611,1.12061,-156.709,216
1568039762,254.05,-31.2539,-17.1896,-1.51611,1.12061,-156.709,216
1568039762,254.05,-31.2539,-17.1896,-1.51611,1.12061,-156.709,216
1568039762,254.05,-31.2539,-17.1896,-1.51611,1.12061,-156.709,216
1568039762,254.05,-31.2539,-17.1896,-1.51611,1.12061,-156.709,216
1568039762,254.05,-31.2539,-17.1896,-1.51611,1.12061,-156.709,216
1568039762,254.05,-31.2539,-17.1896,-1.51611,1.12061,-156.709,216
1568039762,254.05,-31.2539,-17.1896,-1.51611,1.12061,-156.709,216
1568039762,254.05,-31.2539,-17.1896,-1.51611,1.12061,-156.709,216
1568039762,254.05,-31.2539,-17.1896,-1.51611,1.12061,-156.709,216
1568039762,254.05,-31.2539,-17.1896,-1.51611,1.12061,-156.709,216
1568039762,254.05,-31.2539,-17.1896,-1.51611,1.12061,-156.709,216
1568039762,254.05,-31.2539,-17.1896,-1.51611,1.12061,-156.709,216
1568039762,254.05,-31.2539,-17.1896,-1.51611,1.12061,-156.709,216
1568039762,254.05,-31.2539,-17.1896,-1.53809,1.12061,-156.709,216
1568039762,254.05,-31.2539,-17.1896,-1.53809,1.12061,-156.709,216
1568039762,254.05,-31.2539,-17.1896,-1.53809,1.12061,-156.709,216
1568039762,254.05,-31.2539,-17.1896,-1.53809,1.12061,-156.709,216
1568039762,254.05,-31.2539,-17.1896,-1.53809,1.12061,-156.709,216
1568039762,254.05,-31.2539,-17.1896,-1.53809,1.12061,-156.709,216
1568039762,254.05,-31.2539,-17.1896,-1.53809,1.12061,-156.709,216
1568039762,254.05,-31.2539,-17.1896,-1.53809,1.12061,-156.709,216
1568039762,254.05,-31.2539,-17.1896,-1.53809,1.12061,-156.709,216
1568039762,254.05,-31.2539,-17.1896,-1.53809,1.12061,-156.709,216
1568039762,254.05,-31.2539,-17.1896,-1.53809,1.12061,-156.709,216
1568039762,254.05,-31.2539,-17.1896,-1.53809,1.12061,-156.709,216
1568039762,254.05,-31.2539,-17.1896,-1.53809,1.12061,-156.709,216
1568039762,254.05,-31.2539,-17.1896,-1.53809,1.12061,-156.709,216
1568039762,254.05,-31.2539,-17.1896,-1.53809,1.12061,-156.709,216
1568039762,254.05,-31.2539,-17.1896,-1.53809,1.12061,-156.709,216
1568039762,254.05,-31.2539,-17.1896,-1.53809,1.12061,-156.709,220
1568039762,254.05,-31.2539,-17.1896,-1.53809,1.12061,-156.709,220
1568039762,254.05,-31.2539,-17.1896,-1.53809,1.12061,-156.709,220
1568039762,254.05,-31.2539,-17.1896,-1.53809,1.12061,-156.709,220
1568039762,254.05,-31.2539,-17.1896,-1.53809,1.12061,-156.709,220
1568039762,254.05,-31.2539,-17.1896,-1.53809,1.12061,-156.709,220
1568039762,254.05,-31.2539,-17.1896,-1.53809,1.12061,-156.709,220
1568039763,254.05,-31.2539,-17.1896,-1.53809,1.12061,-156.709,220
1568039763,254.05,-31.2539,-17.1896,-1.53809,1.12061,-156.709,220
1568039763,254.05,-31.2539,-17.1896,-1.53809,1.12061,-156.709,220
1568039763,254.05,-31.2539,-17.1896,-1.53809,1.12061,-156.709,220
1568039763,254.05,-31.2539,-17.1896,-1.53809,1.12061,-156.709,220
1568039763,254.05,-31.2539,-17.1896,-1.53809,1.12061,-156.709,220
1568039763,254.05,-31.2539,-17.1896,-1.53809,1.12061,-156.709,220
1568039763,254.05,-31.2539,-17.1896,-1.53809,1.12061,-156.709,220
1568039763,254.05,-31.2539,-17.1896,-1.53809,1.12061,-156.709,220
1568039763,254.05,-31.2539,-17.1896,-1.53809,1.12061,-156.709,220
1568039763,254.05,-31.2539,-17.1896,-1.53809,1.12061,-156.709,220
1568039763,254.05,-31.2539,-17.1896,-1.53809,1.12061,-156.709,220
1568039763,254.05,-31.2539,-17.1896,-1.53809,1.09863,-156.709,220
1568039763,254.05,-31.2539,-17.078,-1.53809,1.09863,-156.709,220
1568039763,254.05,-31.2539,-17.078,-1.53809,1.09863,-156.709,220
1568039763,254.05,-31.2539,-17.078,-1.53809,1.09863,-156.709,220
1568039763,254.05,-31.2539,-17.078,-1.53809,1.09863,-156.709,220
1568039763,254.05,-31.2539,-17.078,-1.53809,1.09863,-156.709,216
1568039763,254.05,-31.2539,-17.078,-1.53809,1.09863,-156.709,216
1568039763,254.05,-31.2539,-17.078,-1.53809,1.09863,-156.709,216
1568039763,254.05,-31.2539,-17.078,-1.53809,1.09863,-156.709,216
1568039763,254.05,-31.2539,-17.078,-1.53809,1.09863,-156.709,216
1568039763,254.05,-31.2539,-17.078,-1.53809,1.09863,-156.709,216
1568039763,254.05,-31.2539,-17.078,-1.53809,1.09863,-156.709,216
1568039763,254.05,-31.2539,-17.1896,-1.53809,1.09863,-156.709,216
1568039763,254.05,-31.2539,-17.1896,-1.53809,1.09863,-156.709,216
1568039763,254.05,-31.2539,-17.1896,-1.53809,1.09863,-156.709,216
1568039763,254.05,-31.2539,-17.1896,-1.53809,1.09863,-156.709,216
1568039763,254.05,-31.2539,-17.1896,-1.53809,1.09863,-156.709,216
1568039763,254.05,-31.2539,-17.1896,-1.53809,1.09863,-156.709,216
1568039763,254.05,-31.2539,-17.078,-1.53809,1.09863,-156.687,216
1568039763,254.05,-31.2539,-17.078,-1.53809,1.09863,-156.687,216
1568039763,254.05,-31.2539,-17.078,-1.53809,1.09863,-156.687,216
1568039763,254.05,-31.2539,-17.078,-1.53809,1.09863,-156.687,216
1568039763,254.05,-31.2539,-17.078,-1.53809,1.09863,-156.687,216
1568039763,254.05,-31.2539,-17.078,-1.53809,1.09863,-156.687,220
1568039763,254.05,-31.2539,-17.078,-1.53809,1.09863,-156.687,220
1568039763,254.05,-31.2539,-17.078,-1.53809,1.09863,-156.687,220
1568039763,254.05,-31.2539,-17.078,-1.53809,1.09863,-156.687,220
1568039763,254.05,-31.2539,-17.078,-1.53809,1.09863,-156.687,220
1568039763,254.05,-31.2539,-17.078,-1.53809,1.09863,-156.687,220
1568039763,254.05,-31.2539,-17.078,-1.53809,1.09863,-156.687,220
1568039763,254.05,-31.2539,-17.1896,-1.53809,1.09863,-156.687,220
1568039763,254.05,-31.2539,-17.1896,-1.53809,1.09863,-156.687,220
1568039763,254.05,-31.2539,-17.1896,-1.53809,1.09863,-156.687,220
1568039763,254.05,-31.2539,-17.1896,-1.53809,1.12061,-156.687,220
1568039763,254.05,-31.2539,-17.1896,-1.53809,1.12061,-156.687,220
1568039763,254.05,-31.2539,-17.1896,-1.53809,1.12061,-156.687,220
1568039763,254.05,-31.2539,-17.1896,-1.53809,1.12061,-156.687,220
1568039763,254.05,-31.2539,-17.1896,-1.53809,1.12061,-156.687,220
1568039763,254.05,-31.2539,-17.1896,-1.53809,1.12061,-156.687,220
1568039763,254.05,-31.2539,-17.1896,-1.53809,1.12061,-156.709,216
1568039763,254.05,-31.2539,-17.1896,-1.53809,1.12061,-156.709,216
1568039763,254.05,-31.2539,-17.1896,-1.53809,1.12061,-156.709,216
1568039763,254.05,-31.2539,-17.1896,-1.53809,1.12061,-156.709,216
1568039763,254.05,-31.2539,-17.1896,-1.53809,1.12061,-156.709,216
1568039763,254.05,-31.2539,-17.1896,-1.53809,1.12061,-156.709,216
1568039763,254.05,-31.2539,-17.1896,-1.53809,1.12061,-156.709,216
1568039763,254.05,-31.2539,-17.1896,-1.53809,1.12061,-156.709,216
1568039763,254.05,-31.2539,-17.1896,-1.53809,1.12061,-156.709,216
1568039763,254.05,-31.2539,-17.1896,-1.53809,1.12061,-156.709,216
1568039763,254.05,-31.2539,-17.1896,-1.53809,1.12061,-156.709,216
1568039763,254.05,-31.2539,-17.1896,-1.53809,1.12061,-156.709,216
1568039763,254.05,-31.2539,-17.1896,-1.53809,1.12061,-156.709,216
1568039763,254.05,-31.2539,-17.1896,-1.53809,1.12061,-156.709,216
1568039763,254.05,-31.2539,-17.1896,-1.53809,1.12061,-156.709,216
1568039763,254.05,-31.2539,-17.1896,-1.53809,1.12061,-156.709,216
1568039763,254.05,-31.2539,-17.1896,-1.53809,1.12061,-156.709,216
1568039763,254.05,-31.2539,-17.1896,-1.53809,1.12061,-156.709,216
1568039763,254.05,-31.2539,-17.1896,-1.53809,1.12061,-156.709,216
1568039763,254.05,-31.2539,-17.1896,-1.53809,1.12061,-156.709,212
1568039763,254.05,-31.2539,-17.1896,-1.53809,1.12061,-156.687,212
1568039763,254.05,-31.2539,-17.1896,-1.53809,1.12061,-156.687,212
1568039763,254.05,-31.2539,-17.1896,-1.53809,1.12061,-156.687,212
1568039763,254.05,-31.2539,-17.1896,-1.53809,1.12061,-156.687,212
1568039763,254.05,-31.2539,-17.1896,-1.53809,1.12061,-156.687,212
1568039763,254.05,-31.2539,-17.1896,-1.53809,1.12061,-156.687,212
1568039763,254.05,-31.2539,-17.1896,-1.53809,1.12061,-156.687,212
1568039763,254.05,-31.2539,-17.1896,-1.53809,1.12061,-156.687,212
1568039763,254.05,-31.2539,-17.1896,-1.53809,1.12061,-156.687,212
1568039763,254.05,-31.2539,-17.1896,-1.53809,1.12061,-156.687,212
1568039763,254.05,-31.2539,-17.1896,-1.53809,1.12061,-156.687,212
1568039763,254.05,-31.2539,-17.1896,-1.53809,1.12061,-156.687,212
1568039763,254.05,-31.2539,-17.1896,-1.53809,1.12061,-156.687,212
1568039763,254.05,-31.2539,-17.1896,-1.53809,1.12061,-156.709,212
1568039763,254.05,-31.2539,-17.1896,-1.53809,1.12061,-156.709,212
1568039763,254.05,-31.2539,-17.1896,-1.53809,1.12061,-156.709,212
1568039763,254.05,-31.2539,-17.1896,-1.53809,1.12061,-156.709,212
1568039763,254.05,-31.2539,-17.1896,-1.53809,1.12061,-156.709,212
1568039763,254.05,-31.2539,-17.1896,-1.53809,1.12061,-156.709,212
1568039763,254.05,-31.2539,-17.1896,-1.53809,1.12061,-156.709,212
1568039763,254.05,-31.2539,-17.1896,-1.53809,1.12061,-156.709,212
1568039763,254.05,-31.2539,-17.1896,-1.53809,1.12061,-156.709,212
1568039763,254.05,-31.2539,-17.1896,-1.53809,1.12061,-156.709,212
1568039763,254.05,-31.2539,-17.1896,-1.53809,1.12061,-156.709,212
1568039763,254.05,-31.2539,-17.1896,-1.53809,1.12061,-156.709,212
1568039763,254.05,-31.2539,-17.1896,-1.53809,1.12061,-156.709,212
1568039763,254.05,-31.2539,-17.1896,-1.53809,1.12061,-156.709,212
1568039763,254.05,-31.2539,-17.1896,-1.53809,1.12061,-156.709,212
1568039763,254.05,-31.2539,-17.1896,-1.53809,1.12061,-156.709,212
1568039764,254.05,-31.2539,-17.1896,-1.51611,1.12061,-156.709,212
1568039764,254.05,-31.2539,-17.1896,-1.51611,1.12061,-156.709,212
1568039764,254.05,-31.2539,-17.1896,-1.51611,1.12061,-156.709,212
1568039764,254.05,-31.2539,-17.1896,-1.51611,1.12061,-156.709,212
1568039764,254.05,-31.2539,-17.1896,-1.51611,1.12061,-156.709,212
1568039764,254.05,-31.2539,-17.1896,-1.51611,1.12061,-156.709,212
1568039764,254.05,-31.2539,-17.1896,-1.51611,1.12061,-156.709,216
1568039764,254.05,-31.2539,-17.1896,-1.51611,1.12061,-156.709,216
1568039764,254.05,-31.2539,-17.1896,-1.51611,1.12061,-156.709,216
1568039764,254.05,-31.2539,-17.1896,-1.51611,1.12061,-156.709,216
1568039764,254.05,-31.2539,-17.1896,-1.51611,1.12061,-156.709,216
1568039764,254.05,-31.2539,-17.1896,-1.51611,1.12061,-156.709,216
1568039764,254.05,-31.2539,-17.1896,-1.51611,1.12061,-156.709,216
1568039764,254.05,-31.2539,-17.1896,-1.51611,1.12061,-156.709,216
1568039764,254.05,-31.2539,-17.078,-1.51611,1.12061,-156.709,216
1568039764,254.05,-31.2539,-17.078,-1.51611,1.12061,-156.709,216
1568039764,254.05,-31.2539,-17.078,-1.51611,1.12061,-156.709,216
1568039764,254.05,-31.2539,-17.078,-1.51611,1.09863,-156.709,216
1568039764,254.05,-31.2539,-17.078,-1.51611,1.09863,-156.709,216
1568039764,254.05,-31.2539,-17.078,-1.51611,1.09863,-156.709,216
1568039764,254.05,-31.2539,-17.078,-1.51611,1.09863,-156.709,216
1568039764,254.05,-31.2539,-17.078,-1.51611,1.09863,-156.709,216
1568039764,254.05,-31.2539,-17.078,-1.51611,1.09863,-156.709,216
1568039764,254.05,-31.2539,-17.078,-1.51611,1.12061,-156.709,216
1568039764,254.05,-31.2539,-17.078,-1.51611,1.12061,-156.709,216
1568039764,254.05,-31.2539,-17.078,-1.53809,1.12061,-156.709,216
1568039764,254.05,-31.2539,-17.078,-1.53809,1.12061,-156.709,216
1568039764,254.05,-31.2539,-17.1896,-1.53809,1.12061,-156.709,216
1568039764,254.05,-31.2539,-17.1896,-1.53809,1.12061,-156.709,216
1568039764,254.05,-31.2539,-17.1896,-1.53809,1.12061,-156.709,216
1568039764,254.05,-31.2539,-17.1896,-1.53809,1.12061,-156.709,216
1568039764,254.05,-31.2539,-17.1896,-1.53809,1.12061,-156.687,216
1568039764,254.05,-31.2539,-17.1896,-1.53809,1.12061,-156.687,216
1568039764,254.05,-31.2539,-17.1896,-1.53809,1.12061,-156.687,216
1568039764,254.05,-31.2539,-17.1896,-1.53809,1.12061,-156.687,216
1568039764,254.05,-31.2539,-17.1896,-1.53809,1.12061,-156.687,216
1568039764,254.05,-31.2539,-17.1896,-1.53809,1.12061,-156.687,216
1568039764,254.05,-31.2539,-17.1896,-1.53809,1.12061,-156.687,216
1568039764,254.05,-31.2539,-17.1896,-1.53809,1.12061,-156.687,216
1568039764,254.05,-31.2539,-17.1896,-1.53809,1.12061,-156.687,216
1568039764,254.05,-31.2539,-17.1896,-1.53809,1.12061,-156.687,216
1568039764,254.05,-31.2539,-17.1896,-1.53809,1.12061,-156.687,216
1568039764,254.05,-31.2539,-17.1896,-1.53809,1.12061,-156.687,216
1568039764,254.05,-31.2539,-17.1896,-1.53809,1.12061,-156.687,216
1568039764,254.05,-31.2539,-17.1896,-1.53809,1.12061,-156.687,216
1568039764,254.05,-31.2539,-17.1896,-1.53809,1.12061,-156.687,216
1568039764,254.05,-31.2539,-17.1896,-1.53809,1.12061,-156.687,216
1568039764,254.05,-31.2539,-17.1896,-1.53809,1.12061,-156.687,216
1568039764,254.05,-31.2539,-17.1896,-1.53809,1.12061,-156.687,216
1568039764,254.05,-31.2539,-17.1896,-1.53809,1.12061,-156.687,216
1568039764,254.05,-31.2539,-17.1896,-1.53809,1.12061,-156.687,216
1568039764,254.05,-31.2539,-17.1896,-1.53809,1.12061,-156.687,216
1568039764,254.05,-31.2539,-17.1896,-1.53809,1.12061,-156.687,216
1568039764,254.05,-31.2539,-17.1896,-1.53809,1.12061,-156.687,216
1568039764,254.05,-31.2539,-17.1896,-1.53809,1.12061,-156.687,216
1568039764,254.05,-31.2539,-17.1896,-1.53809,1.12061,-156.709,216
1568039764,254.05,-31.2539,-17.1896,-1.53809,1.12061,-156.709,216
1568039764,254.05,-31.2539,-17.1896,-1.53809,1.12061,-156.709,216
1568039764,254.05,-31.2539,-17.1896,-1.53809,1.12061,-156.709,216
1568039764,254.05,-31.2539,-17.1896,-1.53809,1.12061,-156.709,216
1568039764,254.05,-31.2539,-17.1896,-1.53809,1.12061,-156.709,216
1568039764,254.05,-31.2539,-17.1896,-1.53809,1.12061,-156.709,216
1568039764,254.05,-31.2539,-17.1896,-1.53809,1.09863,-156.709,216
1568039764,254.05,-31.2539,-17.1896,-1.53809,1.09863,-156.709,216
1568039764,254.05,-31.2539,-17.1896,-1.53809,1.09863,-156.687,216
1568039764,254.05,-31.2539,-17.1896,-1.53809,1.09863,-156.687,216
1568039764,254.05,-31.2539,-17.078,-1.53809,1.09863,-156.687,216
1568039764,254.05,-31.2539,-17.078,-1.53809,1.09863,-156.687,216
1568039764,254.05,-31.2539,-17.078,-1.53809,1.09863,-156.687,216
1568039764,254.05,-31.2539,-17.078,-1.53809,1.09863,-156.687,216
1568039764,254.05,-31.2539,-17.078,-1.53809,1.09863,-156.687,216
1568039764,254.05,-31.2539,-17.1896,-1.53809,1.09863,-156.687,216
1568039764,254.05,-31.2539,-17.1896,-1.53809,1.09863,-156.687,216
1568039764,254.05,-31.2539,-17.1896,-1.53809,1.09863,-156.687,216
1568039764,254.05,-31.2539,-17.1896,-1.53809,1.09863,-156.687,216
1568039764,254.05,-31.2539,-17.1896,-1.53809,1.12061,-156.687,216
1568039764,254.05,-31.2539,-17.1896,-1.53809,1.12061,-156.687,216
1568039764,254.05,-31.2539,-17.1896,-1.53809,1.12061,-156.687,216
1568039764,254.05,-31.2539,-17.1896,-1.53809,1.12061,-156.687,216
1568039764,254.05,-31.2539,-17.1896,-1.53809,1.12061,-156.687,216
1568039764,254.05,-31.2539,-17.1896,-1.53809,1.12061,-156.687,212
1568039764,254.05,-31.2539,-17.1896,-1.53809,1.12061,-156.687,212
1568039764,254.05,-31.2539,-17.1896,-1.53809,1.12061,-156.687,212
1568039764,254.05,-31.2539,-17.1896,-1.53809,1.12061,-156.687,212
1568039764,254.05,-31.2539,-17.1896,-1.53809,1.12061,-156.687,212
1568039764,254.05,-31.2539,-17.1896,-1.53809,1.12061,-156.687,212
1568039764,254.05,-31.2539,-17.1896,-1.53809,1.12061,-156.687,212
1568039764,254.05,-31.2539,-17.1896,-1.53809,1.12061,-156.687,212
1568039764,254.05,-31.2539,-17.1896,-1.53809,1.12061,-156.687,212
1568039764,254.05,-31.2539,-17.1896,-1.53809,1.12061,-156.687,212
1568039764,254.05,-31.2539,-17.1896,-1.53809,1.12061,-156.687,212
1568039764,254.05,-31.2539,-17.1896,-1.53809,1.12061,-156.687,212
1568039764,254.05,-31.2539,-17.1896,-1.53809,1.12061,-156.687,212
1568039764,254.05,-31.2539,-17.1896,-1.53809,1.12061,-156.687,212
1568039764,254.05,-31.2539,-17.1896,-1.53809,1.12061,-156.687,212
1568039764,254.05,-31.2539,-17.1896,-1.53809,1.12061,-156.687,212
1568039764,254.05,-31.2539,-17.1896,-1.53809,1.12061,-156.687,212
1568039764,254.05,-31.2539,-17.1896,-1.53809,1.12061,-156.687,212
1568039764,254.05,-31.2539,-17.1896,-1.53809,1.12061,-156.687,212
1568039764,254.05,-31.2539,-17.1896,-1.53809,1.12061,-156.687,212
1568039765,254.05,-31.2539,-17.1896,-1.53809,1.12061,-156.687,212
1568039765,254.05,-31.2539,-17.1896,-1.53809,1.12061,-156.687,212
1568039765,254.05,-31.2539,-17.1896,-1.53809,1.12061,-156.687,212
1568039765,254.05,-31.2539,-17.1896,-1.53809,1.12061,-156.687,216
1568039765,254.05,-31.2539,-17.1896,-1.53809,1.12061,-156.687,216
1568039765,254.05,-31.2539,-17.1896,-1.53809,1.12061,-156.687,216
1568039765,254.05,-31.2539,-17.1896,-1.53809,1.12061,-156.687,216
1568039765,254.05,-31.2539,-17.1896,-1.53809,1.12061,-156.687,216
1568039765,254.05,-31.2539,-17.1896,-1.53809,1.12061,-156.709,216
1568039765,254.05,-31.2539,-17.1896,-1.53809,1.12061,-156.709,216
1568039765,254.05,-31.2539,-17.1896,-1.53809,1.12061,-156.709,216
1568039765,254.05,-31.2539,-17.1896,-1.53809,1.12061,-156.709,216
1568039765,254.05,-31.2539,-17.1896,-1.53809,1.12061,-156.709,216
1568039765,254.05,-31.2539,-17.1896,-1.53809,1.12061,-156.709,216
1568039765,254.05,-31.2539,-17.1896,-1.53809,1.12061,-156.709,216
1568039765,254.05,-31.2539,-17.1896,-1.53809,1.12061,-156.709,216
1568039765,254.05,-31.2539,-17.1896,-1.53809,1.12061,-156.709,220
1568039765,254.05,-31.2539,-17.1896,-1.53809,1.12061,-156.709,220
1568039765,254.05,-31.2539,-17.1896,-1.53809,1.12061,-156.709,220
1568039765,254.05,-31.2539,-17.1896,-1.53809,1.12061,-156.709,220
1568039765,254.05,-31.2539,-17.1896,-1.53809,1.12061,-156.709,220
1568039765,254.05,-31.2539,-17.1896,-1.53809,1.12061,-156.709,220
1568039765,254.05,-31.2539,-17.1896,-1.53809,1.12061,-156.709,220
1568039765,254.05,-31.2539,-17.1896,-1.53809,1.12061,-156.709,220
1568039765,254.05,-31.2539,-17.1896,-1.53809,1.12061,-156.709,220
1568039765,254.05,-31.2539,-17.1896,-1.53809,1.12061,-156.709,220
1568039765,254.05,-31.2539,-17.1896,-1.53809,1.12061,-156.709,220
1568039765,254.05,-31.2539,-17.1896,-1.53809,1.12061,-156.709,220
1568039765,254.05,-31.2539,-17.1896,-1.53809,1.12061,-156.709,220
1568039765,254.05,-31.2539,-17.1896,-1.53809,1.12061,-156.709,220
1568039765,254.05,-31.2539,-17.1896,-1.53809,1.12061,-156.709,220
1568039765,254.05,-31.2539,-17.1896,-1.53809,1.12061,-156.709,220
1568039765,254.05,-31.2539,-17.1896,-1.53809,1.12061,-156.709,220
1568039765,254.05,-31.2539,-17.1896,-1.53809,1.12061,-156.709,220
1568039765,254.05,-31.2539,-17.1896,-1.53809,1.12061,-156.709,220
1568039765,254.05,-31.2539,-17.1896,-1.53809,1.12061,-156.709,220
1568039765,254.05,-31.2539,-17.1896,-1.51611,1.12061,-156.709,220
1568039765,254.05,-31.2539,-17.1896,-1.51611,1.12061,-156.709,220
1568039765,254.05,-31.2539,-17.1896,-1.51611,1.12061,-156.709,220
1568039765,254.05,-31.2539,-17.1896,-1.51611,1.12061,-156.709,220
1568039765,254.05,-31.2539,-17.1896,-1.51611,1.12061,-156.709,220
1568039765,254.05,-31.2539,-17.1896,-1.51611,1.12061,-156.709,220
1568039765,254.05,-31.2539,-17.1896,-1.51611,1.12061,-156.709,220
1568039765,254.05,-31.2539,-17.1896,-1.51611,1.12061,-156.709,220
1568039765,254.05,-31.2539,-17.1896,-1.51611,1.12061,-156.709,220
1568039765,254.05,-31.2539,-17.1896,-1.51611,1.12061,-156.709,220
1568039765,254.05,-31.2539,-17.1896,-1.51611,1.12061,-156.709,220
1568039765,254.05,-31.2539,-17.1896,-1.53809,1.12061,-156.709,220
1568039765,254.05,-31.2539,-17.1896,-1.53809,1.12061,-156.709,220
1568039765,254.05,-31.2539,-17.1896,-1.53809,1.12061,-156.709,220
1568039765,254.05,-31.2539,-17.1896,-1.53809,1.12061,-156.709,220
1568039765,254.05,-31.2539,-17.1896,-1.53809,1.12061,-156.709,216
1568039765,254.05,-31.2539,-17.1896,-1.53809,1.12061,-156.709,216
1568039765,254.05,-31.2539,-17.1896,-1.53809,1.12061,-156.709,216
1568039765,254.05,-31.2539,-17.1896,-1.53809,1.12061,-156.709,216
1568039765,254.05,-31.2539,-17.1896,-1.53809,1.12061,-156.709,216
1568039765,254.05,-31.2539,-17.1896,-1.53809,1.12061,-156.709,216
1568039765,254.05,-31.2539,-17.1896,-1.53809,1.12061,-156.709,216
1568039765,254.05,-31.2539,-17.1896,-1.53809,1.12061,-156.709,216
1568039765,254.05,-31.2539,-17.1896,-1.53809,1.12061,-156.709,216
1568039765,254.05,-31.2539,-17.1896,-1.53809,1.12061,-156.709,216
1568039765,254.05,-31.2539,-17.1896,-1.53809,1.12061,-156.709,216
1568039765,254.05,-31.2539,-17.078,-1.53809,1.09863,-156.709,216
1568039765,254.05,-31.2539,-17.078,-1.53809,1.09863,-156.709,216
1568039765,254.05,-31.2539,-17.078,-1.53809,1.09863,-156.709,216
1568039765,254.05,-31.2539,-17.078,-1.53809,1.09863,-156.709,216
1568039765,254.05,-31.2539,-17.078,-1.53809,1.09863,-156.709,212
1568039765,254.05,-31.2539,-17.078,-1.53809,1.09863,-156.709,212
1568039765,254.05,-31.2539,-17.078,-1.53809,1.09863,-156.709,212
1568039765,254.05,-31.2539,-17.078,-1.53809,1.09863,-156.709,212
1568039765,254.05,-31.2539,-17.078,-1.53809,1.09863,-156.709,212
1568039765,254.05,-31.2539,-17.078,-1.53809,1.09863,-156.709,212
1568039765,254.05,-31.2539,-17.078,-1.53809,1.09863,-156.709,212
1568039765,254.05,-31.2539,-17.078,-1.53809,1.09863,-156.709,212
1568039765,254.05,-31.2539,-17.078,-1.53809,1.09863,-156.709,212
1568039765,254.05,-31.2539,-17.078,-1.53809,1.09863,-156.709,212
1568039765,254.05,-31.2539,-17.078,-1.53809,1.09863,-156.709,212
1568039765,254.05,-31.2539,-17.078,-1.53809,1.09863,-156.709,212
1568039765,254.05,-31.2539,-17.078,-1.53809,1.09863,-156.709,212
1568039765,254.05,-31.2539,-17.078,-1.53809,1.09863,-156.709,212
1568039765,254.05,-31.2539,-17.078,-1.53809,1.09863,-156.709,212
1568039765,254.05,-31.2539,-17.078,-1.53809,1.09863,-156.709,212
1568039765,254.05,-31.2539,-17.078,-1.53809,1.09863,-156.709,212
1568039765,254.05,-31.2539,-17.078,-1.53809,1.09863,-156.709,212
1568039765,254.05,-31.2539,-17.078,-1.53809,1.09863,-156.709,212
1568039765,254.05,-31.2539,-17.078,-1.53809,1.09863,-156.709,212
1568039765,254.05,-31.2539,-17.078,-1.53809,1.09863,-156.709,212
1568039765,254.05,-31.2539,-17.078,-1.53809,1.09863,-156.709,212
1568039765,254.05,-31.2539,-17.078,-1.53809,1.09863,-156.709,212
1568039765,254.05,-31.2539,-17.078,-1.53809,1.09863,-156.709,212
1568039765,254.05,-31.2539,-17.078,-1.53809,1.09863,-156.709,212
1568039765,254.05,-31.2539,-17.078,-1.53809,1.09863,-156.709,212
1568039765,254.05,-31.2539,-17.1896,-1.53809,1.09863,-156.709,212
1568039765,254.05,-31.2539,-17.1896,-1.53809,1.09863,-156.709,212
1568039765,254.05,-31.2539,-17.1896,-1.53809,1.12061,-156.709,212
1568039765,254.05,-31.2539,-17.1896,-1.53809,1.12061,-156.709,212
1568039765,254.05,-31.2539,-17.1896,-1.53809,1.12061,-156.709,216
1568039765,254.05,-31.2539,-17.1896,-1.53809,1.12061,-156.709,216
1568039765,254.05,-31.2539,-17.1896,-1.53809,1.12061,-156.709,216
1568039766,254.05,-31.2539,-17.1896,-1.53809,1.12061,-156.709,216
1568039766,254.05,-31.2539,-17.1896,-1.53809,1.12061,-156.709,216
1568039766,254.05,-31.2539,-17.1896,-1.53809,1.12061,-156.709,216
1568039766,254.05,-31.2539,-17.1896,-1.53809,1.12061,-156.709,216
1568039766,254.05,-31.2539,-17.1896,-1.53809,1.12061,-156.709,216
1568039766,254.05,-31.2539,-17.1896,-1.53809,1.12061,-156.709,216
1568039766,254.05,-31.2539,-17.1896,-1.53809,1.12061,-156.709,216
1568039766,254.05,-31.2539,-17.1896,-1.53809,1.12061,-156.709,216
1568039766,254.05,-31.2539,-17.1896,-1.53809,1.12061,-156.709,216
1568039766,254.05,-31.2539,-17.1896,-1.53809,1.12061,-156.709,216
1568039766,254.05,-31.2539,-17.1896,-1.53809,1.12061,-156.709,216
1568039766,254.05,-31.2539,-17.1896,-1.53809,1.12061,-156.709,216
1568039766,254.05,-31.2539,-17.1896,-1.53809,1.12061,-156.709,216
1568039766,254.05,-31.2539,-17.1896,-1.53809,1.12061,-156.709,216
1568039766,254.05,-31.2539,-17.1896,-1.53809,1.12061,-156.709,216
1568039766,254.05,-31.2539,-17.1896,-1.53809,1.12061,-156.709,216
1568039766,254.05,-31.2539,-17.1896,-1.53809,1.12061,-156.709,216
1568039766,254.05,-31.2539,-17.1896,-1.53809,1.12061,-156.709,216
1568039766,254.05,-31.2539,-17.1896,-1.53809,1.12061,-156.709,216
1568039766,254.05,-31.2539,-17.1896,-1.53809,1.12061,-156.709,216
1568039766,254.05,-31.2539,-17.078,-1.53809,1.12061,-156.709,216
1568039766,254.05,-31.2539,-17.078,-1.53809,1.12061,-156.709,216
1568039766,254.05,-31.2539,-17.078,-1.53809,1.12061,-156.709,216
1568039766,254.05,-31.2539,-17.078,-1.53809,1.12061,-156.709,216
1568039766,254.05,-31.2539,-17.078,-1.53809,1.12061,-156.709,216
1568039766,254.05,-31.2539,-17.1896,-1.53809,1.12061,-156.709,216
1568039766,254.05,-31.2539,-17.1896,-1.53809,1.12061,-156.709,216
1568039766,254.05,-31.2539,-17.1896,-1.53809,1.12061,-156.709,216
1568039766,254.05,-31.2539,-17.1896,-1.53809,1.12061,-156.709,216
1568039766,254.05,-31.2539,-17.1896,-1.53809,1.12061,-156.709,216
1568039766,254.05,-31.2539,-17.1896,-1.53809,1.12061,-156.709,216
1568039766,254.05,-31.2539,-17.1896,-1.53809,1.12061,-156.709,216
1568039766,254.05,-31.2539,-17.1896,-1.53809,1.12061,-156.709,216
1568039766,254.05,-31.2539,-17.1896,-1.53809,1.12061,-156.709,216
1568039766,254.05,-31.2539,-17.1896,-1.53809,1.12061,-156.709,216
1568039766,254.05,-31.2539,-17.1896,-1.53809,1.12061,-156.709,216
1568039766,254.05,-31.2539,-17.1896,-1.53809,1.12061,-156.709,216
1568039766,254.05,-31.2539,-17.1896,-1.53809,1.12061,-156.709,216
1568039766,254.05,-31.2539,-17.1896,-1.53809,1.12061,-156.709,216
1568039766,254.05,-31.2539,-17.1896,-1.53809,1.12061,-156.709,216
1568039766,254.05,-31.2539,-17.1896,-1.53809,1.12061,-156.709,216
1568039766,254.05,-31.2539,-17.1896,-1.53809,1.12061,-156.709,216
1568039766,254.05,-31.2539,-17.1896,-1.53809,1.12061,-156.709,216
1568039766,254.05,-31.2539,-17.1896,-1.53809,1.12061,-156.709,216
1568039766,254.05,-31.2539,-17.1896,-1.53809,1.12061,-156.709,216
1568039766,254.05,-31.2539,-17.1896,-1.53809,1.12061,-156.709,216
1568039766,254.05,-31.2539,-17.1896,-1.53809,1.12061,-156.709,216
1568039766,254.05,-31.2539,-17.1896,-1.53809,1.12061,-156.709,216
1568039766,254.05,-31.2539,-17.1896,-1.53809,1.12061,-156.709,216
1568039766,254.05,-31.2539,-17.1896,-1.53809,1.12061,-156.709,216
1568039766,254.05,-31.2539,-17.1896,-1.53809,1.12061,-156.709,216
1568039766,254.05,-31.2539,-17.1896,-1.53809,1.12061,-156.709,216
1568039766,254.05,-31.2539,-17.1896,-1.53809,1.12061,-156.709,216
1568039766,254.05,-31.2539,-17.1896,-1.53809,1.12061,-156.709,216
1568039766,254.05,-31.2539,-17.1896,-1.53809,1.12061,-156.709,216
1568039766,254.05,-31.2539,-17.1896,-1.53809,1.12061,-156.709,216
1568039766,254.05,-31.2539,-17.1896,-1.53809,1.12061,-156.709,216
1568039766,254.05,-31.2539,-17.1896,-1.53809,1.12061,-156.709,216
1568039766,254.05,-31.2539,-17.1896,-1.53809,1.12061,-156.709,216
1568039766,254.05,-31.2539,-17.1896,-1.53809,1.12061,-156.709,216
1568039766,254.05,-31.2539,-17.1896,-1.53809,1.12061,-156.709,216
1568039766,254.05,-31.2539,-17.1896,-1.53809,1.12061,-156.709,216
1568039766,254.05,-31.2539,-17.1896,-1.53809,1.12061,-156.709,216
1568039766,254.05,-31.2539,-17.1896,-1.53809,1.12061,-156.709,216
1568039766,254.05,-31.2539,-17.1896,-1.53809,1.12061,-156.709,216
1568039766,254.05,-31.2539,-17.1896,-1.53809,1.12061,-156.709,216
1568039766,254.05,-31.2539,-17.1896,-1.53809,1.12061,-156.709,216
1568039766,254.05,-31.2539,-17.1896,-1.53809,1.12061,-156.709,216
1568039766,254.05,-31.2539,-17.1896,-1.53809,1.12061,-156.709,216
1568039766,254.05,-31.2539,-17.1896,-1.53809,1.12061,-156.709,216
1568039766,254.05,-31.2539,-17.1896,-1.53809,1.12061,-156.709,216
1568039766,254.05,-31.2539,-17.1896,-1.53809,1.12061,-156.709,216
1568039766,254.05,-31.2539,-17.1896,-1.53809,1.12061,-156.709,216
1568039766,254.05,-31.2539,-17.1896,-1.53809,1.12061,-156.709,216
1568039766,254.05,-31.2539,-17.1896,-1.53809,1.12061,-156.709,216
1568039766,254.05,-31.2539,-17.1896,-1.53809,1.12061,-156.709,216
1568039766,254.05,-31.2539,-17.1896,-1.53809,1.12061,-156.709,216
1568039766,254.05,-31.2539,-17.1896,-1.53809,1.12061,-156.709,216
1568039766,254.05,-31.2539,-17.1896,-1.53809,1.12061,-156.709,216
1568039766,254.05,-31.2539,-17.1896,-1.53809,1.12061,-156.709,220
1568039766,254.05,-31.2539,-17.1896,-1.53809,1.12061,-156.709,220
1568039766,254.05,-31.2539,-17.1896,-1.53809,1.12061,-156.709,220
1568039766,254.05,-31.2539,-17.1896,-1.53809,1.12061,-156.709,220
1568039766,254.05,-31.2539,-17.1896,-1.53809,1.12061,-156.709,220
1568039766,254.05,-31.2539,-17.1896,-1.53809,1.12061,-156.709,220
1568039766,254.05,-31.2539,-17.1896,-1.53809,1.12061,-156.709,220
1568039766,254.05,-31.2539,-17.1896,-1.53809,1.12061,-156.709,220
1568039766,254.05,-31.2539,-17.1896,-1.53809,1.12061,-156.709,220
1568039766,254.05,-31.2539,-17.1896,-1.53809,1.12061,-156.709,224
1568039766,254.05,-31.2539,-17.1896,-1.53809,1.12061,-156.709,224
1568039766,254.05,-31.2539,-17.1896,-1.53809,1.12061,-156.687,224
1568039766,254.05,-31.2539,-17.1896,-1.53809,1.12061,-156.687,224
1568039766,254.05,-31.2539,-17.1896,-1.53809,1.12061,-156.687,224
1568039766,254.05,-31.2539,-17.1896,-1.53809,1.12061,-156.687,224
1568039766,254.05,-31.2539,-17.1896,-1.53809,1.12061,-156.687,224
1568039766,254.05,-31.2539,-17.1896,-1.53809,1.12061,-156.687,224
1568039766,254.05,-31.2539,-17.1896,-1.53809,1.12061,-156.687,224
1568039766,254.05,-31.2539,-17.1896,-1.53809,1.12061,-156.687,224
1568039766,254.05,-31.2539,-17.1896,-1.53809,1.12061,-156.687,224
1568039766,254.05,-31.2539,-17.1896,-1.53809,1.12061,-156.687,224
1568039767,254.05,-31.2539,-17.1896,-1.53809,1.12061,-156.687,224
1568039767,254.05,-31.2539,-17.1896,-1.53809,1.12061,-156.687,224
1568039767,254.05,-31.2539,-17.1896,-1.53809,1.12061,-156.687,224
1568039767,254.05,-31.2539,-17.1896,-1.53809,1.12061,-156.687,224
1568039767,254.05,-31.2539,-17.1896,-1.53809,1.12061,-156.687,224
1568039767,254.05,-31.2539,-17.1896,-1.53809,1.12061,-156.687,224
1568039767,254.05,-31.2539,-17.1896,-1.53809,1.12061,-156.687,224
1568039767,254.05,-31.2539,-17.1896,-1.53809,1.12061,-156.687,224
1568039773,230.498,-7.14375,-17.078,-1.604,1.29639,-156.929,240
1568039773,230.498,-7.14375,-17.078,-1.604,1.29639,-156.929,240
1568039773,230.498,-7.14375,-17.078,-1.604,1.29639,-156.929,240
1568039773,230.498,-7.14375,-17.078,-1.604,1.29639,-156.929,240
1568039773,230.498,-7.14375,-17.078,-1.604,1.29639,-156.929,240
1568039773,230.498,-7.14375,-17.078,-1.604,1.29639,-156.929,240
1568039773,230.498,-7.14375,-17.078,-1.604,1.29639,-156.929,240
1568039773,230.498,-7.14375,-17.078,-1.604,1.29639,-156.929,240
1568039773,230.498,-7.14375,-17.078,-1.604,1.29639,-156.929,240
1568039773,230.498,-7.14375,-17.078,-1.604,1.29639,-156.929,240
1568039773,230.498,-7.14375,-17.078,-1.604,1.29639,-156.929,240
1568039773,230.498,-7.14375,-17.078,-1.604,1.29639,-156.929,240
1568039773,230.498,-7.14375,-17.078,-1.604,1.29639,-156.929,240
1568039773,230.498,-7.14375,-17.078,-1.604,1.29639,-156.929,240
1568039773,230.498,-7.14375,-17.078,-1.604,1.29639,-156.929,240
1568039773,230.498,-7.14375,-17.078,-1.604,1.29639,-156.929,240
1568039773,230.498,-7.14375,-17.078,-1.604,1.29639,-156.929,240
1568039773,230.498,-7.14375,-17.078,-1.604,1.29639,-156.929,240
1568039773,230.498,-7.14375,-17.078,-1.604,1.29639,-156.929,240
1568039773,230.498,-7.14375,-17.078,-1.604,1.29639,-156.929,240
1568039773,230.498,-7.14375,-17.078,-1.604,1.29639,-156.929,240
1568039773,230.498,-7.14375,-17.078,-1.604,1.29639,-156.929,240
1568039773,230.498,-7.14375,-17.078,-1.604,1.29639,-156.929,240
1568039773,230.498,-7.14375,-17.078,-1.604,1.29639,-156.929,240
1568039773,230.498,-7.14375,-17.078,-1.604,1.29639,-156.929,240
1568039773,230.498,-7.14375,-17.078,-1.604,1.29639,-156.929,240
1568039773,230.498,-7.14375,-17.078,-1.604,1.29639,-156.929,240
1568039773,230.498,-7.14375,-17.078,-1.604,1.29639,-156.929,240
1568039773,230.498,-7.14375,-17.078,-1.604,1.29639,-156.929,240
1568039773,230.498,-7.14375,-17.078,-1.604,1.29639,-156.929,240
1568039773,230.498,-7.14375,-17.078,-1.604,1.29639,-156.929,236
1568039773,230.498,-7.14375,-17.078,-1.604,1.29639,-156.929,236
1568039773,230.498,-7.14375,-17.078,-1.604,1.29639,-156.929,236
1568039773,230.498,-7.14375,-17.078,-1.604,1.29639,-156.929,236
1568039773,230.498,-7.14375,-17.078,-1.604,1.29639,-156.929,236
1568039773,230.498,-7.14375,-17.078,-1.604,1.29639,-156.929,236
1568039773,230.498,-7.14375,-17.078,-1.604,1.29639,-156.929,236
1568039773,230.498,-7.14375,-17.078,-1.604,1.29639,-156.929,236
1568039773,230.498,-7.14375,-17.078,-1.604,1.29639,-156.929,236
1568039773,230.498,-7.14375,-17.078,-1.604,1.29639,-156.929,236
1568039773,230.498,-7.14375,-17.078,-1.604,1.29639,-156.929,236
1568039773,230.498,-7.14375,-17.078,-1.604,1.29639,-156.929,236
1568039773,230.498,-7.14375,-17.078,-1.604,1.29639,-156.929,236
1568039773,230.498,-7.14375,-17.078,-1.604,1.29639,-156.929,236
1568039773,230.498,-7.14375,-17.078,-1.604,1.29639,-156.929,236
1568039773,230.498,-7.14375,-17.078,-1.604,1.27441,-156.929,236
1568039773,230.498,-7.14375,-17.078,-1.604,1.27441,-156.929,236
1568039773,230.498,-7.14375,-17.078,-1.604,1.27441,-156.929,236
1568039773,230.498,-7.14375,-17.078,-1.604,1.27441,-156.929,236
1568039773,230.498,-7.14375,-17.078,-1.604,1.27441,-156.929,236
1568039773,230.498,-7.14375,-17.078,-1.604,1.27441,-156.929,236
1568039773,230.498,-7.14375,-17.078,-1.604,1.27441,-156.929,236
1568039773,230.498,-7.14375,-17.078,-1.604,1.27441,-156.929,236
1568039773,230.498,-7.14375,-17.078,-1.604,1.29639,-156.929,236
1568039773,230.498,-7.14375,-17.078,-1.604,1.29639,-156.929,236
1568039773,230.498,-7.14375,-17.078,-1.604,1.29639,-156.929,236
1568039773,230.498,-7.14375,-17.078,-1.604,1.29639,-156.929,236
1568039773,230.498,-7.14375,-17.078,-1.604,1.29639,-156.929,236
1568039773,230.498,-7.14375,-17.078,-1.604,1.29639,-156.929,236
1568039773,230.498,-7.14375,-17.078,-1.604,1.29639,-156.929,236
1568039773,230.498,-7.14375,-17.078,-1.604,1.29639,-156.929,236
1568039773,230.498,-7.14375,-17.078,-1.604,1.29639,-156.929,236
1568039773,230.498,-7.14375,-17.078,-1.604,1.29639,-156.929,236
1568039773,230.498,-7.14375,-17.078,-1.604,1.27441,-156.929,236
1568039773,230.498,-7.14375,-17.078,-1.604,1.27441,-156.929,236
1568039773,230.498,-7.14375,-17.078,-1.604,1.27441,-156.929,236
1568039773,230.498,-7.14375,-17.078,-1.604,1.27441,-156.929,236
1568039773,230.498,-7.14375,-17.078,-1.604,1.27441,-156.929,236
1568039773,230.498,-7.14375,-17.078,-1.604,1.27441,-156.929,236
1568039773,230.498,-7.14375,-17.078,-1.604,1.27441,-156.929,236
1568039773,230.498,-7.14375,-17.078,-1.604,1.29639,-156.929,236
1568039773,230.498,-7.14375,-17.078,-1.604,1.29639,-156.929,236
1568039773,230.498,-7.14375,-17.078,-1.604,1.29639,-156.929,236
1568039773,230.498,-7.14375,-17.078,-1.604,1.29639,-156.929,236
1568039773,230.498,-7.14375,-17.078,-1.604,1.29639,-156.929,236
1568039773,230.498,-7.14375,-17.078,-1.604,1.29639,-156.929,240
1568039773,230.498,-7.14375,-17.078,-1.604,1.29639,-156.929,240
1568039773,230.498,-7.14375,-17.078,-1.604,1.29639,-156.929,240
1568039773,230.498,-7.14375,-17.078,-1.604,1.29639,-156.929,240
1568039773,230.498,-7.14375,-17.078,-1.604,1.29639,-156.929,240
1568039773,230.498,-7.14375,-17.078,-1.604,1.29639,-156.929,240
1568039773,230.498,-7.14375,-17.078,-1.604,1.29639,-156.929,240
1568039773,230.498,-7.14375,-17.078,-1.604,1.29639,-156.929,240
1568039773,230.498,-7.14375,-17.078,-1.604,1.29639,-156.929,240
1568039773,230.498,-7.14375,-17.078,-1.604,1.29639,-156.929,240
1568039773,230.498,-7.14375,-17.078,-1.604,1.29639,-156.929,240
1568039773,230.498,-7.14375,-17.078,-1.604,1.29639,-156.929,236
1568039773,230.498,-7.14375,-17.078,-1.604,1.29639,-156.929,236
1568039774,230.498,-7.14375,-17.078,-1.604,1.29639,-156.929,236
1568039774,230.498,-7.14375,-17.078,-1.604,1.29639,-156.929,236
1568039774,230.498,-7.14375,-17.078,-1.604,1.29639,-156.929,236
1568039774,230.498,-7.14375,-17.078,-1.604,1.29639,-156.929,236
1568039774,230.498,-7.14375,-17.078,-1.604,1.29639,-156.929,236
1568039774,230.498,-7.14375,-17.078,-1.604,1.29639,-156.929,236
1568039774,230.498,-7.14375,-17.078,-1.604,1.29639,-156.929,236
1568039774,230.498,-7.14375,-17.078,-1.604,1.29639,-156.929,236
1568039774,230.498,-7.14375,-17.078,-1.604,1.29639,-156.929,236
1568039774,230.498,-7.14375,-17.078,-1.604,1.29639,-156.929,236
1568039774,230.498,-7.14375,-17.078,-1.604,1.29639,-156.929,236
1568039774,230.498,-7.14375,-17.078,-1.604,1.29639,-156.929,236
1568039774,230.498,-7.14375,-17.078,-1.604,1.29639,-156.929,236
1568039774,230.498,-7.14375,-17.078,-1.604,1.29639,-156.929,236
1568039774,230.498,-7.14375,-17.078,-1.604,1.29639,-156.929,236
1568039774,230.498,-7.14375,-17.078,-1.604,1.29639,-156.929,236
1568039774,230.498,-7.14375,-17.078,-1.604,1.29639,-156.929,236
1568039774,230.498,-7.14375,-17.078,-1.604,1.29639,-156.929,236
1568039774,230.498,-7.14375,-17.078,-1.604,1.29639,-156.929,236
1568039774,230.498,-7.14375,-17.078,-1.604,1.29639,-156.929,236
1568039774,230.498,-7.14375,-17.078,-1.604,1.29639,-156.929,236
1568039774,230.498,-7.14375,-17.078,-1.604,1.29639,-156.929,236
1568039774,230.498,-7.03213,-17.078,-1.604,1.29639,-156.929,236
1568039774,230.498,-7.03213,-17.078,-1.604,1.29639,-156.929,236
1568039774,230.498,-7.03213,-17.078,-1.604,1.29639,-156.929,236
1568039774,230.498,-7.03213,-17.078,-1.604,1.29639,-156.929,236
1568039774,230.498,-7.03213,-17.078,-1.604,1.29639,-156.929,236
1568039774,230.498,-7.03213,-17.078,-1.604,1.29639,-156.929,236
1568039774,230.498,-7.03213,-17.078,-1.604,1.29639,-156.929,236
1568039774,230.498,-7.03213,-17.078,-1.604,1.29639,-156.929,236
1568039774,230.498,-7.14375,-17.078,-1.604,1.29639,-156.929,236
1568039774,230.498,-7.14375,-17.078,-1.604,1.29639,-156.929,236
1568039774,230.498,-7.14375,-17.078,-1.604,1.29639,-156.929,236
1568039774,230.498,-7.14375,-17.078,-1.604,1.29639,-156.929,236
1568039774,230.498,-7.14375,-17.078,-1.604,1.29639,-156.929,236
1568039774,230.498,-7.14375,-17.078,-1.604,1.29639,-156.929,236
1568039774,230.498,-7.14375,-17.078,-1.604,1.29639,-156.929,236
1568039774,230.498,-7.14375,-17.078,-1.604,1.29639,-156.929,236
1568039774,230.498,-7.14375,-17.078,-1.604,1.29639,-156.929,236
1568039774,230.498,-7.14375,-17.078,-1.604,1.29639,-156.929,236
1568039774,230.498,-7.14375,-17.078,-1.604,1.29639,-156.929,236
1568039774,230.498,-7.14375,-17.078,-1.604,1.29639,-156.929,236
1568039774,230.498,-7.14375,-17.078,-1.604,1.29639,-156.929,236
1568039774,230.498,-7.14375,-17.078,-1.604,1.29639,-156.929,236
1568039774,230.498,-7.14375,-17.078,-1.604,1.29639,-156.929,236
1568039774,230.498,-7.14375,-17.078,-1.604,1.29639,-156.929,236
1568039774,230.498,-7.14375,-17.078,-1.604,1.29639,-156.929,236
1568039774,230.498,-7.14375,-17.078,-1.604,1.29639,-156.929,236
1568039774,230.498,-7.14375,-17.078,-1.604,1.29639,-156.929,236
1568039774,230.498,-7.14375,-17.078,-1.604,1.29639,-156.929,240
1568039774,230.498,-7.14375,-17.078,-1.604,1.29639,-156.929,240
1568039774,230.498,-7.14375,-17.078,-1.604,1.29639,-156.929,240
1568039774,230.498,-7.14375,-17.078,-1.604,1.29639,-156.929,240
1568039774,230.498,-7.14375,-17.078,-1.604,1.29639,-156.929,240
1568039774,230.498,-7.14375,-17.078,-1.604,1.29639,-156.929,240
1568039774,230.498,-7.14375,-17.078,-1.604,1.29639,-156.929,240
1568039774,230.498,-7.14375,-17.078,-1.604,1.29639,-156.929,240
1568039774,230.498,-7.14375,-17.078,-1.604,1.29639,-156.929,240
1568039774,230.498,-7.14375,-17.078,-1.604,1.29639,-156.929,240
1568039774,230.498,-7.14375,-17.078,-1.604,1.29639,-156.929,240
1568039774,230.498,-7.14375,-17.078,-1.604,1.29639,-156.929,240
1568039774,230.498,-7.14375,-17.078,-1.604,1.29639,-156.929,240
1568039774,230.498,-7.14375,-17.078,-1.604,1.29639,-156.929,240
1568039774,230.498,-7.14375,-17.078,-1.604,1.29639,-156.929,240
1568039774,230.498,-7.14375,-17.078,-1.604,1.29639,-156.929,240
1568039774,230.498,-7.14375,-17.078,-1.604,1.29639,-156.929,240
1568039774,230.498,-7.14375,-17.078,-1.604,1.29639,-156.929,240
1568039774,230.498,-7.14375,-17.078,-1.604,1.29639,-156.929,240
1568039774,230.498,-7.14375,-17.078,-1.604,1.29639,-156.929,240
1568039774,230.498,-7.14375,-17.078,-1.604,1.29639,-156.929,240
1568039774,230.498,-7.14375,-17.078,-1.604,1.29639,-156.929,240
1568039774,230.498,-7.14375,-17.078,-1.604,1.29639,-156.929,240
1568039774,230.498,-7.14375,-17.078,-1.604,1.29639,-156.929,240
1568039774,230.498,-7.14375,-17.078,-1.604,1.29639,-156.929,240
1568039774,230.498,-7.14375,-17.078,-1.604,1.29639,-156.929,240
1568039774,230.498,-7.14375,-17.078,-1.604,1.29639,-156.929,240
1568039774,230.498,-7.14375,-17.078,-1.604,1.29639,-156.929,240
1568039774,230.498,-7.14375,-17.078,-1.604,1.29639,-156.929,240
1568039774,230.498,-7.14375,-17.078,-1.604,1.29639,-156.929,240
1568039774,230.498,-7.14375,-17.078,-1.604,1.29639,-156.929,240
1568039774,230.498,-7.14375,-17.078,-1.604,1.29639,-156.929,240
1568039774,230.498,-7.14375,-17.078,-1.604,1.29639,-156.929,240
1568039774,230.498,-7.14375,-17.078,-1.604,1.29639,-156.929,240
1568039774,230.498,-7.14375,-17.078,-1.604,1.29639,-156.929,240
1568039774,230.498,-7.14375,-17.078,-1.604,1.29639,-156.929,240
1568039774,230.498,-7.14375,-17.078,-1.604,1.29639,-156.929,240
1568039774,230.498,-7.14375,-17.078,-1.604,1.29639,-156.929,240
1568039774,230.498,-7.14375,-17.078,-1.604,1.29639,-156.929,240
1568039774,230.498,-7.14375,-17.078,-1.604,1.29639,-156.929,240
1568039774,230.498,-7.14375,-17.078,-1.604,1.29639,-156.929,240
1568039774,230.498,-7.14375,-17.078,-1.604,1.29639,-156.929,240
1568039774,230.498,-7.14375,-17.078,-1.604,1.27441,-156.929,240
1568039774,230.498,-7.14375,-17.078,-1.604,1.27441,-156.929,240
1568039774,230.498,-7.14375,-17.078,-1.604,1.27441,-156.929,240
1568039774,230.498,-7.14375,-17.078,-1.604,1.27441,-156.929,240
1568039774,230.498,-7.14375,-17.078,-1.604,1.27441,-156.929,240
1568039774,230.498,-7.14375,-17.078,-1.604,1.27441,-156.929,236
1568039774,230.498,-7.14375,-17.078,-1.604,1.27441,-156.929,236
1568039774,230.498,-7.14375,-17.078,-1.604,1.27441,-156.929,236
1568039774,230.498,-7.14375,-17.078,-1.604,1.27441,-156.929,236
1568039775,230.498,-7.14375,-17.078,-1.604,1.27441,-156.929,236
1568039775,230.498,-7.14375,-17.078,-1.604,1.27441,-156.929,236
1568039775,230.498,-7.14375,-17.078,-1.604,1.27441,-156.929,236
1568039775,230.498,-7.14375,-17.078,-1.604,1.27441,-156.929,236
1568039775,230.498,-7.14375,-17.078,-1.604,1.27441,-156.929,236
1568039775,230.498,-7.14375,-17.078,-1.604,1.27441,-156.929,236
1568039775,230.498,-7.14375,-17.078,-1.604,1.27441,-156.929,236
1568039775,230.498,-7.14375,-17.078,-1.604,1.27441,-156.929,236
1568039775,230.498,-7.14375,-17.078,-1.604,1.27441,-156.929,236
1568039775,230.498,-7.14375,-17.078,-1.604,1.27441,-156.929,236
1568039775,230.498,-7.14375,-17.078,-1.604,1.27441,-156.929,236
1568039775,230.498,-7.14375,-17.078,-1.604,1.29639,-156.929,236
1568039775,230.498,-7.14375,-17.078,-1.604,1.29639,-156.929,236
1568039775,230.498,-7.14375,-17.078,-1.604,1.29639,-156.929,236
1568039775,230.498,-7.14375,-17.078,-1.604,1.29639,-156.929,236
1568039775,230.498,-7.14375,-17.078,-1.604,1.29639,-156.929,236
1568039775,230.498,-7.14375,-17.078,-1.604,1.29639,-156.929,236
1568039775,230.498,-7.14375,-17.078,-1.604,1.29639,-156.929,236
1568039775,230.498,-7.14375,-17.078,-1.604,1.29639,-156.929,236
1568039775,230.498,-7.14375,-17.078,-1.604,1.29639,-156.929,236
1568039775,230.498,-7.14375,-17.078,-1.604,1.29639,-156.929,236
1568039775,230.498,-7.14375,-17.078,-1.604,1.29639,-156.929,236
1568039775,230.498,-7.14375,-17.078,-1.604,1.27441,-156.929,236
1568039775,230.498,-7.14375,-17.078,-1.604,1.27441,-156.929,236
1568039775,230.498,-7.14375,-17.078,-1.604,1.27441,-156.929,236
1568039775,230.498,-7.14375,-17.078,-1.604,1.27441,-156.929,236
1568039775,230.498,-7.14375,-17.078,-1.604,1.27441,-156.929,236
1568039775,230.498,-7.14375,-17.078,-1.604,1.27441,-156.929,236
1568039775,230.498,-7.14375,-17.078,-1.604,1.27441,-156.929,236
1568039775,230.498,-7.14375,-17.078,-1.604,1.27441,-156.929,236
1568039775,230.498,-7.14375,-17.078,-1.604,1.27441,-156.929,236
1568039775,230.498,-7.14375,-17.078,-1.604,1.27441,-156.929,236
1568039775,230.498,-7.14375,-17.078,-1.604,1.27441,-156.929,236
1568039775,230.498,-7.14375,-17.078,-1.604,1.27441,-156.929,236
1568039775,230.498,-7.14375,-17.078,-1.604,1.27441,-156.929,236
1568039775,230.498,-7.14375,-17.078,-1.604,1.29639,-156.929,236
1568039775,230.498,-7.14375,-17.078,-1.604,1.29639,-156.929,236
1568039775,230.498,-7.14375,-17.078,-1.604,1.29639,-156.929,236
1568039775,230.498,-7.14375,-17.078,-1.604,1.29639,-156.929,236
1568039775,230.498,-7.14375,-17.078,-1.604,1.29639,-156.929,236
1568039775,230.498,-7.14375,-17.078,-1.604,1.29639,-156.929,236
1568039775,230.498,-7.14375,-17.078,-1.604,1.29639,-156.929,236
1568039775,230.498,-7.14375,-17.078,-1.604,1.29639,-156.929,236
1568039775,230.498,-7.14375,-17.078,-1.604,1.29639,-156.929,236
1568039775,230.498,-7.14375,-17.078,-1.62598,1.29639,-156.929,236
1568039775,230.498,-7.14375,-17.078,-1.62598,1.29639,-156.929,236
1568039775,230.498,-7.14375,-17.078,-1.62598,1.29639,-156.929,236
1568039775,230.498,-7.14375,-17.078,-1.62598,1.29639,-156.929,236
1568039775,230.498,-7.14375,-17.078,-1.62598,1.29639,-156.929,236
1568039775,230.498,-7.14375,-17.078,-1.62598,1.29639,-156.929,236
1568039775,230.498,-7.14375,-17.078,-1.62598,1.29639,-156.929,236
1568039775,230.498,-7.14375,-17.078,-1.62598,1.29639,-156.929,236
1568039775,230.498,-7.14375,-17.078,-1.62598,1.29639,-156.929,236
1568039775,230.498,-7.14375,-17.078,-1.62598,1.29639,-156.929,236
1568039775,230.498,-7.14375,-17.078,-1.62598,1.29639,-156.929,236
1568039775,230.498,-7.14375,-17.078,-1.62598,1.29639,-156.929,236
1568039775,230.498,-7.14375,-17.078,-1.62598,1.29639,-156.929,236
1568039775,230.498,-7.14375,-17.078,-1.62598,1.29639,-156.929,236
1568039775,230.498,-7.14375,-17.078,-1.62598,1.29639,-156.929,236
1568039775,230.498,-7.14375,-17.078,-1.62598,1.29639,-156.929,236
1568039775,230.498,-7.14375,-17.078,-1.62598,1.29639,-156.929,236
1568039775,230.498,-7.14375,-17.078,-1.62598,1.29639,-156.929,236
1568039775,230.498,-7.14375,-17.078,-1.62598,1.29639,-156.929,236
1568039775,230.498,-7.14375,-17.078,-1.62598,1.29639,-156.929,236
1568039775,230.498,-7.14375,-17.078,-1.62598,1.29639,-156.929,236
1568039775,230.498,-7.14375,-17.078,-1.62598,1.29639,-156.929,236
1568039775,230.498,-7.14375,-17.078,-1.62598,1.29639,-156.929,236
1568039775,230.498,-7.14375,-17.078,-1.62598,1.29639,-156.929,236
1568039775,230.498,-7.14375,-17.078,-1.62598,1.29639,-156.929,236
1568039775,230.498,-7.14375,-17.078,-1.62598,1.29639,-156.929,236
1568039775,230.498,-7.14375,-17.078,-1.62598,1.29639,-156.929,236
1568039775,230.498,-7.14375,-17.078,-1.604,1.29639,-156.929,236
1568039775,230.498,-7.14375,-17.078,-1.604,1.29639,-156.929,236
1568039775,230.498,-7.14375,-17.078,-1.604,1.29639,-156.929,236
1568039775,230.498,-7.14375,-17.078,-1.604,1.29639,-156.929,236
1568039775,230.498,-7.14375,-17.078,-1.604,1.29639,-156.929,236
1568039775,230.498,-7.14375,-17.078,-1.604,1.29639,-156.929,236
1568039775,230.498,-7.14375,-17.078,-1.604,1.29639,-156.929,236
1568039775,230.498,-7.14375,-17.078,-1.604,1.29639,-156.929,236
1568039775,230.498,-7.14375,-17.078,-1.604,1.29639,-156.929,236
1568039775,230.498,-7.14375,-17.078,-1.604,1.29639,-156.929,236
1568039775,230.498,-7.14375,-17.078,-1.604,1.29639,-156.929,236
1568039775,230.498,-7.14375,-17.078,-1.604,1.29639,-156.929,236
1568039775,230.498,-7.14375,-17.078,-1.604,1.29639,-156.929,236
1568039775,230.498,-7.14375,-17.078,-1.604,1.29639,-156.929,236
1568039775,230.498,-7.14375,-17.078,-1.604,1.29639,-156.929,236
1568039775,230.498,-7.14375,-17.078,-1.604,1.29639,-156.929,236
1568039775,230.498,-7.14375,-17.078,-1.604,1.29639,-156.929,236
1568039775,230.498,-7.14375,-17.078,-1.604,1.29639,-156.929,236
1568039775,230.498,-7.14375,-17.078,-1.604,1.29639,-156.929,236
1568039775,230.498,-7.14375,-17.078,-1.604,1.29639,-156.929,236
1568039775,230.498,-7.14375,-17.078,-1.604,1.29639,-156.929,236
1568039775,230.498,-7.14375,-17.078,-1.604,1.29639,-156.929,236
1568039775,230.498,-7.14375,-17.078,-1.604,1.29639,-156.929,236
1568039775,230.498,-7.14375,-17.078,-1.604,1.29639,-156.929,236
1568039775,230.498,-7.14375,-17.078,-1.604,1.29639,-156.929,236
1568039775,230.498,-7.14375,-17.078,-1.604,1.29639,-156.929,236
1568039775,230.498,-7.14375,-17.078,-1.604,1.29639,-156.929,236
1568039775,230.498,-7.14375,-17.078,-1.604,1.29639,-156.929,236
1568039775,230.498,-7.14375,-17.078,-1.604,1.29639,-156.929,236
1568039776,230.498,-7.14375,-17.078,-1.604,1.29639,-156.929,236
1568039776,230.498,-7.14375,-17.078,-1.604,1.29639,-156.929,236
1568039776,230.498,-7.14375,-17.078,-1.604,1.29639,-156.929,236
1568039776,230.498,-7.14375,-17.078,-1.604,1.29639,-156.929,236
1568039776,230.498,-7.14375,-17.078,-1.604,1.29639,-156.929,236
1568039776,230.498,-7.14375,-17.078,-1.604,1.29639,-156.929,236
1568039776,230.498,-7.14375,-17.078,-1.604,1.29639,-156.929,236
1568039776,230.498,-7.14375,-17.078,-1.604,1.29639,-156.929,236
1568039776,230.498,-7.14375,-17.078,-1.604,1.29639,-156.929,236
1568039776,230.498,-7.14375,-17.078,-1.604,1.29639,-156.929,236
1568039776,230.498,-7.14375,-17.078,-1.604,1.29639,-156.929,236
1568039776,230.498,-7.14375,-17.078,-1.604,1.29639,-156.929,236
1568039776,230.498,-7.14375,-17.078,-1.604,1.29639,-156.929,236
1568039776,230.498,-7.14375,-17.078,-1.604,1.29639,-156.929,236
1568039776,230.498,-7.14375,-17.078,-1.604,1.29639,-156.929,240
1568039776,230.498,-7.14375,-17.078,-1.604,1.29639,-156.929,240
1568039776,230.498,-7.14375,-17.078,-1.604,1.29639,-156.929,240
1568039776,230.498,-7.14375,-17.078,-1.604,1.29639,-156.929,240
1568039776,230.498,-7.14375,-17.078,-1.604,1.29639,-156.929,240
1568039776,230.498,-7.14375,-17.078,-1.604,1.29639,-156.929,240
1568039776,230.498,-7.14375,-17.078,-1.604,1.29639,-156.929,240
1568039776,230.498,-7.14375,-17.078,-1.604,1.29639,-156.929,240
1568039776,230.498,-7.14375,-17.078,-1.604,1.29639,-156.929,240
1568039776,230.498,-7.14375,-17.078,-1.604,1.29639,-156.929,240
1568039776,230.498,-7.14375,-17.078,-1.604,1.29639,-156.929,240
1568039776,230.498,-7.14375,-17.078,-1.604,1.29639,-156.929,240
1568039776,230.498,-7.14375,-17.078,-1.604,1.29639,-156.929,240
1568039776,230.498,-7.14375,-17.078,-1.604,1.29639,-156.929,240
1568039776,230.498,-7.14375,-17.078,-1.604,1.29639,-156.929,240
1568039776,230.498,-7.14375,-17.078,-1.604,1.29639,-156.929,240
1568039776,230.498,-7.14375,-17.078,-1.604,1.29639,-156.929,240
1568039776,230.498,-7.14375,-17.078,-1.604,1.29639,-156.929,240
1568039776,230.498,-7.14375,-17.078,-1.604,1.29639,-156.929,236
1568039776,230.498,-7.14375,-17.078,-1.604,1.29639,-156.929,236
1568039776,230.498,-7.14375,-17.078,-1.604,1.29639,-156.929,236
1568039776,230.498,-7.14375,-17.078,-1.604,1.29639,-156.929,236
1568039776,230.498,-7.14375,-17.078,-1.604,1.29639,-156.929,236
1568039776,230.498,-7.14375,-17.078,-1.604,1.29639,-156.929,236
1568039776,230.498,-7.14375,-17.078,-1.604,1.29639,-156.929,236
1568039776,230.498,-7.14375,-17.078,-1.604,1.29639,-156.929,236
1568039776,230.498,-7.14375,-17.078,-1.604,1.29639,-156.929,236
1568039776,230.498,-7.14375,-17.078,-1.604,1.29639,-156.929,236
1568039776,230.498,-7.14375,-17.078,-1.604,1.29639,-156.929,236
1568039776,230.498,-7.14375,-17.078,-1.604,1.29639,-156.929,236
1568039776,230.498,-7.14375,-17.078,-1.604,1.29639,-156.929,236
1568039776,230.498,-7.14375,-17.078,-1.604,1.29639,-156.929,236
1568039776,230.498,-7.14375,-17.078,-1.604,1.29639,-156.929,236
1568039776,230.498,-7.14375,-17.078,-1.604,1.29639,-156.929,236
1568039776,230.498,-7.14375,-17.078,-1.604,1.29639,-156.929,236
1568039776,230.498,-7.14375,-17.078,-1.604,1.29639,-156.929,236
1568039776,230.498,-7.14375,-17.078,-1.604,1.29639,-156.929,236
1568039776,230.498,-7.14375,-17.078,-1.604,1.29639,-156.929,236
1568039776,230.498,-7.14375,-17.078,-1.604,1.29639,-156.929,236
1568039776,230.498,-7.14375,-17.078,-1.604,1.29639,-156.929,236
1568039776,230.498,-7.14375,-17.078,-1.604,1.29639,-156.929,236
1568039776,230.498,-7.14375,-17.078,-1.604,1.29639,-156.929,236
1568039776,230.498,-7.14375,-17.078,-1.604,1.29639,-156.929,236
1568039776,230.498,-7.14375,-17.078,-1.604,1.29639,-156.929,236
1568039776,230.498,-7.14375,-17.078,-1.604,1.29639,-156.929,236
1568039776,230.498,-7.14375,-17.078,-1.604,1.29639,-156.929,236
1568039776,230.498,-7.14375,-17.078,-1.604,1.29639,-156.929,236
1568039776,230.498,-7.14375,-17.078,-1.604,1.29639,-156.929,236
1568039776,230.498,-7.14375,-17.078,-1.604,1.29639,-156.929,236
1568039776,230.498,-7.14375,-17.078,-1.604,1.29639,-156.929,240
1568039776,230.498,-7.14375,-17.078,-1.604,1.29639,-156.929,240
1568039776,230.498,-7.14375,-17.078,-1.604,1.29639,-156.929,240
1568039776,230.498,-7.14375,-17.078,-1.604,1.29639,-156.929,240
1568039776,230.498,-7.14375,-17.078,-1.604,1.29639,-156.929,240
1568039776,230.498,-7.14375,-17.078,-1.604,1.29639,-156.929,240
1568039776,230.498,-7.14375,-17.078,-1.604,1.29639,-156.929,240
1568039776,230.498,-7.14375,-17.078,-1.604,1.29639,-156.929,240
1568039776,230.498,-7.14375,-17.078,-1.604,1.29639,-156.929,240
1568039776,230.498,-7.14375,-17.078,-1.604,1.29639,-156.929,240
1568039776,230.498,-7.14375,-17.078,-1.604,1.29639,-156.929,240
1568039776,230.498,-7.14375,-17.078,-1.604,1.29639,-156.929,240
1568039776,230.498,-7.14375,-17.078,-1.604,1.29639,-156.929,240
1568039776,230.498,-7.14375,-17.078,-1.604,1.29639,-156.929,240
1568039776,230.498,-7.14375,-17.078,-1.604,1.29639,-156.929,240
1568039776,230.498,-7.14375,-17.078,-1.604,1.29639,-156.929,240
1568039776,230.498,-7.14375,-17.078,-1.604,1.29639,-156.929,240
1568039776,230.498,-7.14375,-17.078,-1.604,1.29639,-156.929,240
1568039776,230.498,-7.14375,-17.078,-1.604,1.29639,-156.929,240
1568039776,230.498,-7.14375,-17.078,-1.604,1.29639,-156.929,240
1568039776,230.498,-7.14375,-17.078,-1.604,1.29639,-156.929,240
1568039776,230.498,-7.14375,-17.078,-1.604,1.29639,-156.929,240
1568039776,230.498,-7.14375,-17.078,-1.604,1.29639,-156.929,240
1568039776,230.498,-7.14375,-17.078,-1.604,1.29639,-156.929,240
1568039776,230.498,-7.14375,-17.078,-1.604,1.29639,-156.929,240
1568039776,230.498,-7.14375,-17.078,-1.604,1.29639,-156.929,240
1568039776,230.498,-7.14375,-17.078,-1.604,1.29639,-156.929,240
1568039776,230.498,-7.14375,-17.078,-1.604,1.29639,-156.929,240
1568039776,230.498,-7.14375,-17.078,-1.604,1.29639,-156.929,240
1568039776,230.498,-7.14375,-17.078,-1.604,1.29639,-156.929,240
1568039776,230.498,-7.14375,-17.078,-1.604,1.29639,-156.929,240
1568039776,230.498,-7.14375,-17.078,-1.604,1.29639,-156.929,240
1568039776,230.498,-7.14375,-17.078,-1.604,1.29639,-156.929,240
1568039776,230.498,-7.14375,-17.078,-1.604,1.29639,-156.929,240
1568039776,230.498,-7.14375,-17.078,-1.604,1.29639,-156.929,240
1568039776,230.498,-7.14375,-17.078,-1.604,1.29639,-156.929,240
1568039776,230.498,-7.14375,-17.078,-1.604,1.29639,-156.929,240
1568039777,230.498,-7.14375,-17.078,-1.604,1.29639,-156.929,236
1568039777,230.498,-7.14375,-17.078,-1.604,1.29639,-156.929,236
1568039777,230.498,-7.14375,-17.078,-1.604,1.29639,-156.929,236
1568039777,230.498,-7.14375,-17.078,-1.604,1.29639,-156.929,236
1568039777,230.498,-7.14375,-17.078,-1.604,1.29639,-156.929,236
1568039777,230.498,-7.14375,-17.078,-1.604,1.29639,-156.929,236
1568039777,230.498,-7.14375,-17.078,-1.604,1.29639,-156.929,236
1568039777,230.498,-7.14375,-17.078,-1.604,1.29639,-156.929,236
1568039777,230.498,-7.14375,-17.078,-1.604,1.29639,-156.929,236
1568039777,230.498,-7.14375,-17.078,-1.604,1.29639,-156.929,236
1568039777,230.498,-7.14375,-17.078,-1.604,1.29639,-156.929,236
1568039777,230.498,-7.14375,-17.078,-1.604,1.29639,-156.929,236
1568039777,230.498,-7.14375,-17.078,-1.604,1.29639,-156.929,236
1568039777,230.498,-7.14375,-17.078,-1.604,1.29639,-156.929,236
1568039777,230.498,-7.14375,-17.078,-1.604,1.29639,-156.929,236
1568039777,230.498,-7.14375,-17.078,-1.604,1.29639,-156.929,236
1568039777,230.498,-7.14375,-17.078,-1.604,1.29639,-156.929,236
1568039777,230.498,-7.14375,-17.078,-1.604,1.29639,-156.929,236
1568039777,230.498,-7.14375,-17.078,-1.604,1.29639,-156.929,236
1568039777,230.498,-7.14375,-17.078,-1.604,1.29639,-156.929,236
1568039777,230.498,-7.14375,-17.078,-1.604,1.29639,-156.929,236
1568039777,230.498,-7.14375,-17.078,-1.604,1.29639,-156.929,236
1568039777,230.498,-7.14375,-17.078,-1.604,1.29639,-156.929,236
1568039777,230.498,-7.14375,-17.078,-1.604,1.29639,-156.929,236
1568039777,230.498,-7.14375,-17.078,-1.604,1.29639,-156.929,236
1568039777,230.498,-7.14375,-17.078,-1.604,1.29639,-156.929,236
1568039777,230.498,-7.14375,-17.078,-1.604,1.29639,-156.929,236
1568039777,230.498,-7.14375,-17.078,-1.604,1.29639,-156.929,236
1568039777,230.498,-7.14375,-17.078,-1.62598,1.29639,-156.929,236
1568039777,230.498,-7.14375,-17.078,-1.62598,1.29639,-156.929,236
1568039777,230.498,-7.14375,-17.078,-1.62598,1.29639,-156.929,236
1568039777,230.498,-7.14375,-17.078,-1.604,1.29639,-156.929,236
1568039777,230.498,-7.14375,-17.078,-1.604,1.29639,-156.929,236
1568039777,230.498,-7.14375,-17.078,-1.604,1.29639,-156.929,236
1568039777,230.498,-7.14375,-17.078,-1.604,1.29639,-156.929,236
1568039777,230.498,-7.14375,-17.078,-1.604,1.29639,-156.929,236
1568039777,230.498,-7.14375,-17.078,-1.604,1.29639,-156.929,236
1568039777,230.498,-7.14375,-17.078,-1.604,1.29639,-156.929,236
1568039777,230.498,-7.14375,-17.078,-1.604,1.29639,-156.929,236
1568039777,230.498,-7.14375,-17.078,-1.604,1.29639,-156.929,236
1568039777,230.498,-7.14375,-17.078,-1.604,1.29639,-156.929,236
1568039777,230.498,-7.14375,-17.078,-1.604,1.29639,-156.929,236
1568039777,230.498,-7.14375,-17.078,-1.604,1.29639,-156.929,236
1568039777,230.498,-7.14375,-17.078,-1.604,1.29639,-156.929,236
1568039777,230.498,-7.14375,-17.078,-1.604,1.29639,-156.929,236
1568039777,230.498,-7.14375,-17.078,-1.604,1.29639,-156.929,236
1568039777,230.498,-7.14375,-17.078,-1.604,1.29639,-156.929,236
1568039777,230.498,-7.14375,-17.078,-1.604,1.29639,-156.929,236
1568039777,230.498,-7.14375,-17.078,-1.604,1.29639,-156.929,236
1568039777,230.498,-7.14375,-17.078,-1.604,1.29639,-156.929,236
1568039777,230.498,-7.14375,-17.078,-1.604,1.29639,-156.929,236
1568039777,230.498,-7.14375,-17.078,-1.604,1.29639,-156.929,236
1568039777,230.498,-7.14375,-17.078,-1.604,1.29639,-156.929,236
1568039777,230.498,-7.14375,-17.078,-1.604,1.29639,-156.929,236
1568039777,230.498,-7.14375,-17.078,-1.604,1.29639,-156.929,236
1568039777,230.498,-7.14375,-17.078,-1.604,1.29639,-156.929,236
1568039777,230.498,-7.14375,-17.078,-1.604,1.29639,-156.929,236
1568039777,230.498,-7.14375,-17.078,-1.604,1.29639,-156.929,236
1568039777,230.498,-7.14375,-17.078,-1.604,1.29639,-156.929,236
1568039777,230.498,-7.14375,-17.078,-1.604,1.29639,-156.929,236
1568039777,230.498,-7.14375,-17.078,-1.604,1.29639,-156.929,236
1568039777,230.498,-7.14375,-17.078,-1.604,1.29639,-156.929,236
1568039777,230.498,-7.14375,-17.078,-1.604,1.29639,-156.929,236
1568039777,230.498,-7.14375,-17.078,-1.604,1.29639,-156.929,236
1568039777,230.498,-7.14375,-17.078,-1.604,1.29639,-156.929,236
1568039777,230.498,-7.14375,-17.078,-1.604,1.29639,-156.929,236
1568039777,230.498,-7.14375,-17.078,-1.604,1.29639,-156.929,236
1568039777,230.498,-7.14375,-17.078,-1.604,1.29639,-156.929,236
1568039777,230.498,-7.14375,-17.078,-1.604,1.29639,-156.929,236
1568039777,230.498,-7.14375,-17.078,-1.604,1.29639,-156.929,236
1568039777,230.498,-7.14375,-17.078,-1.604,1.29639,-156.929,236
1568039777,230.498,-7.14375,-17.078,-1.604,1.29639,-156.929,236
1568039777,230.498,-7.14375,-17.078,-1.604,1.29639,-156.929,236
1568039777,230.498,-7.14375,-17.078,-1.604,1.29639,-156.929,236
1568039777,230.498,-7.14375,-17.078,-1.604,1.29639,-156.929,236
1568039777,230.498,-7.14375,-17.078,-1.604,1.29639,-156.929,236
1568039777,230.498,-7.14375,-17.078,-1.604,1.29639,-156.929,236
1568039777,230.498,-7.14375,-17.078,-1.604,1.29639,-156.929,236
1568039777,230.498,-7.14375,-17.078,-1.604,1.29639,-156.929,236
1568039777,230.498,-7.14375,-17.078,-1.604,1.29639,-156.929,236
1568039777,230.498,-7.14375,-17.078,-1.604,1.29639,-156.929,236
1568039777,230.498,-7.14375,-17.078,-1.604,1.29639,-156.929,236
1568039777,230.498,-7.14375,-17.078,-1.604,1.29639,-156.929,236
1568039777,230.498,-7.14375,-17.078,-1.604,1.29639,-156.929,236
1568039777,230.498,-7.14375,-17.078,-1.604,1.29639,-156.929,236
1568039777,230.498,-7.14375,-17.078,-1.604,1.29639,-156.929,236
1568039777,230.498,-7.14375,-17.078,-1.604,1.29639,-156.929,236
1568039777,230.498,-7.14375,-17.078,-1.604,1.29639,-156.929,236
1568039777,230.498,-7.14375,-17.078,-1.604,1.29639,-156.929,236
1568039777,230.498,-7.14375,-17.078,-1.604,1.29639,-156.929,236
1568039777,230.498,-7.14375,-17.078,-1.604,1.29639,-156.929,236
1568039777,230.498,-7.14375,-17.078,-1.604,1.29639,-156.929,236
1568039777,230.498,-7.14375,-17.078,-1.604,1.29639,-156.929,236
1568039777,230.498,-7.14375,-17.078,-1.604,1.29639,-156.929,236
1568039777,230.498,-7.14375,-17.078,-1.604,1.29639,-156.929,236
1568039777,230.498,-7.14375,-17.078,-1.604,1.29639,-156.929,236
1568039777,230.498,-7.14375,-17.078,-1.604,1.29639,-156.929,236
1568039777,230.498,-7.14375,-17.078,-1.604,1.29639,-156.929,236
1568039777,230.498,-7.14375,-17.078,-1.604,1.29639,-156.929,236
1568039777,230.498,-7.14375,-17.078,-1.604,1.29639,-156.929,236
1568039778,230.498,-7.14375,-17.078,-1.604,1.29639,-156.929,236
1568039778,230.498,-7.14375,-17.078,-1.604,1.29639,-156.929,236
1568039778,230.498,-7.14375,-17.078,-1.604,1.29639,-156.929,236
1568039778,230.498,-7.14375,-17.078,-1.604,1.29639,-156.929,236
1568039778,230.498,-7.14375,-17.078,-1.604,1.29639,-156.929,236
1568039778,230.498,-7.14375,-17.078,-1.604,1.29639,-156.929,236
1568039778,230.498,-7.14375,-17.078,-1.604,1.29639,-156.929,236
1568039778,230.498,-7.14375,-17.078,-1.604,1.29639,-156.929,236
1568039778,230.498,-7.14375,-17.078,-1.604,1.29639,-156.929,236
1568039778,230.498,-7.14375,-17.078,-1.604,1.29639,-156.929,236
1568039778,230.498,-7.14375,-17.078,-1.604,1.29639,-156.929,236
1568039778,230.498,-7.14375,-17.078,-1.604,1.29639,-156.929,236
1568039785,191.43,33.3747,-16.9664,-1.77979,1.56006,-157.017,204
1568039785,191.43,33.3747,-16.9664,-1.77979,1.56006,-157.017,204
1568039785,191.43,33.3747,-16.9664,-1.77979,1.56006,-157.017,204
1568039785,191.43,33.3747,-16.9664,-1.77979,1.56006,-157.017,204
1568039785,191.43,33.3747,-16.9664,-1.77979,1.56006,-157.017,204
1568039785,191.43,33.3747,-16.9664,-1.77979,1.56006,-157.017,204
1568039785,191.43,33.3747,-16.9664,-1.77979,1.56006,-157.017,204
1568039785,191.43,33.3747,-16.9664,-1.77979,1.56006,-157.017,204
1568039785,191.43,33.3747,-16.9664,-1.77979,1.56006,-157.017,204
1568039785,191.43,33.3747,-16.9664,-1.77979,1.56006,-157.017,204
1568039785,191.43,33.3747,-16.9664,-1.77979,1.56006,-157.017,204
1568039785,191.43,33.3747,-16.9664,-1.77979,1.56006,-157.017,204
1568039785,191.43,33.3747,-16.9664,-1.77979,1.56006,-157.017,204
1568039785,191.43,33.3747,-16.9664,-1.77979,1.56006,-157.017,200
1568039785,191.43,33.3747,-16.9664,-1.77979,1.56006,-157.017,200
1568039785,191.43,33.3747,-16.9664,-1.77979,1.56006,-157.017,200
1568039785,191.43,33.3747,-16.9664,-1.77979,1.56006,-157.017,200
1568039785,191.43,33.3747,-16.9664,-1.77979,1.56006,-157.017,200
1568039785,191.43,33.3747,-16.9664,-1.77979,1.56006,-157.017,200
1568039785,191.43,33.3747,-16.9664,-1.77979,1.56006,-157.017,200
1568039785,191.43,33.3747,-16.9664,-1.77979,1.56006,-157.017,200
1568039785,191.43,33.3747,-16.9664,-1.77979,1.56006,-157.017,200
1568039785,191.43,33.3747,-16.9664,-1.77979,1.56006,-157.017,200
1568039785,191.43,33.3747,-16.9664,-1.77979,1.56006,-157.017,200
1568039785,191.43,33.3747,-16.9664,-1.77979,1.56006,-157.017,200
1568039785,191.43,33.3747,-16.9664,-1.77979,1.56006,-157.017,200
1568039785,191.43,33.3747,-16.9664,-1.77979,1.56006,-157.017,200
1568039785,191.43,33.3747,-16.9664,-1.77979,1.56006,-157.017,200
1568039785,191.43,33.3747,-16.9664,-1.77979,1.56006,-157.017,200
1568039785,191.43,33.3747,-16.9664,-1.77979,1.56006,-157.017,200
1568039785,191.43,33.3747,-16.9664,-1.77979,1.56006,-157.017,200
1568039785,191.43,33.3747,-16.9664,-1.77979,1.56006,-157.017,200
1568039785,191.43,33.3747,-16.9664,-1.77979,1.56006,-157.017,200
1568039785,191.43,33.3747,-16.9664,-1.77979,1.56006,-157.017,200
1568039785,191.43,33.3747,-16.9664,-1.77979,1.56006,-157.017,200
1568039785,191.43,33.3747,-16.9664,-1.77979,1.56006,-157.017,200
1568039785,191.43,33.3747,-16.9664,-1.77979,1.56006,-157.017,200
1568039785,191.43,33.3747,-16.9664,-1.77979,1.56006,-157.017,200
1568039785,191.43,33.3747,-16.9664,-1.77979,1.56006,-157.017,200
1568039785,191.43,33.3747,-16.9664,-1.77979,1.56006,-157.017,200
1568039785,191.43,33.3747,-16.9664,-1.77979,1.56006,-157.017,200
1568039785,191.43,33.3747,-16.9664,-1.77979,1.56006,-157.017,200
1568039785,191.43,33.3747,-16.9664,-1.77979,1.56006,-157.017,200
1568039785,191.43,33.3747,-16.9664,-1.77979,1.56006,-157.017,200
1568039785,191.43,33.3747,-16.9664,-1.77979,1.56006,-157.017,200
1568039785,191.43,33.3747,-16.9664,-1.77979,1.56006,-157.017,200
1568039785,191.43,33.3747,-16.9664,-1.77979,1.56006,-157.017,200
1568039785,191.43,33.3747,-16.9664,-1.77979,1.56006,-157.017,200
1568039785,191.43,33.3747,-16.9664,-1.77979,1.56006,-157.017,200
1568039785,191.43,33.3747,-16.9664,-1.77979,1.56006,-157.017,200
1568039785,191.43,33.3747,-16.9664,-1.77979,1.56006,-157.017,200
1568039785,191.43,33.3747,-16.9664,-1.77979,1.56006,-157.017,200
1568039785,191.43,33.3747,-16.9664,-1.77979,1.56006,-157.017,200
1568039785,191.43,33.3747,-16.9664,-1.77979,1.56006,-157.017,200
1568039785,191.43,33.3747,-16.9664,-1.77979,1.56006,-157.017,200
1568039785,191.43,33.3747,-16.9664,-1.77979,1.56006,-157.017,200
1568039785,191.43,33.3747,-16.9664,-1.77979,1.56006,-157.017,200
1568039785,191.43,33.3747,-16.9664,-1.77979,1.56006,-157.017,204
1568039785,191.43,33.3747,-16.9664,-1.77979,1.56006,-157.017,204
1568039785,191.43,33.3747,-16.9664,-1.77979,1.56006,-157.017,204
1568039785,191.43,33.3747,-16.9664,-1.77979,1.56006,-157.017,204
1568039785,191.43,33.3747,-16.9664,-1.77979,1.56006,-157.017,204
1568039785,191.43,33.3747,-16.9664,-1.77979,1.56006,-157.017,204
1568039785,191.43,33.3747,-16.9664,-1.77979,1.56006,-157.017,204
1568039785,191.43,33.3747,-16.9664,-1.77979,1.56006,-157.017,204
1568039785,191.43,33.3747,-16.9664,-1.77979,1.56006,-157.017,204
1568039785,191.43,33.3747,-16.9664,-1.77979,1.56006,-157.017,204
1568039785,191.43,33.3747,-16.9664,-1.77979,1.56006,-157.017,204
1568039785,191.43,33.3747,-16.9664,-1.77979,1.56006,-157.017,204
1568039785,191.43,33.3747,-16.9664,-1.77979,1.56006,-157.017,204
1568039785,191.43,33.3747,-16.9664,-1.77979,1.56006,-157.017,204
1568039786,191.43,33.3747,-16.9664,-1.77979,1.56006,-157.017,204
1568039786,191.43,33.3747,-16.9664,-1.77979,1.56006,-157.017,204
1568039786,191.43,33.3747,-16.9664,-1.77979,1.56006,-157.017,204
1568039786,191.43,33.3747,-16.9664,-1.77979,1.56006,-157.017,204
1568039786,191.43,33.3747,-16.9664,-1.77979,1.56006,-157.017,204
1568039786,191.43,33.3747,-16.9664,-1.77979,1.56006,-157.017,204
1568039786,191.43,33.3747,-16.9664,-1.77979,1.56006,-157.017,204
1568039786,191.43,33.3747,-16.9664,-1.77979,1.56006,-157.017,204
1568039786,191.43,33.3747,-16.9664,-1.77979,1.56006,-157.017,204
1568039786,191.43,33.3747,-16.9664,-1.77979,1.56006,-157.017,204
1568039786,191.43,33.3747,-16.9664,-1.77979,1.56006,-157.017,204
1568039786,191.43,33.3747,-16.9664,-1.77979,1.56006,-157.017,204
1568039786,191.43,33.3747,-16.9664,-1.77979,1.56006,-157.017,204
1568039786,191.43,33.3747,-16.9664,-1.77979,1.56006,-157.017,204
1568039786,191.43,33.3747,-16.9664,-1.77979,1.56006,-157.017,204
1568039786,191.43,33.3747,-16.9664,-1.77979,1.56006,-157.017,204
1568039786,191.43,33.3747,-16.9664,-1.77979,1.56006,-157.017,204
1568039786,191.43,33.3747,-16.9664,-1.77979,1.56006,-157.017,204
1568039786,191.43,33.3747,-16.9664,-1.77979,1.56006,-157.017,204
1568039786,191.43,33.3747,-16.9664,-1.77979,1.56006,-157.017,204
1568039786,191.43,33.3747,-16.9664,-1.77979,1.56006,-157.017,204
1568039786,191.43,33.3747,-16.9664,-1.77979,1.56006,-157.017,204
1568039786,191.43,33.3747,-16.9664,-1.77979,1.56006,-157.017,204
1568039786,191.43,33.3747,-16.9664,-1.77979,1.56006,-157.017,204
1568039786,191.43,33.3747,-16.9664,-1.77979,1.56006,-157.017,204
1568039786,191.43,33.3747,-16.9664,-1.77979,1.56006,-157.017,204
1568039786,191.43,33.3747,-16.9664,-1.77979,1.56006,-157.017,204
1568039786,191.43,33.3747,-16.9664,-1.77979,1.56006,-157.017,204
1568039786,191.43,33.3747,-16.9664,-1.77979,1.56006,-157.017,208
1568039786,191.43,33.3747,-16.9664,-1.77979,1.56006,-157.017,208
1568039786,191.43,33.3747,-16.9664,-1.77979,1.56006,-157.017,208
1568039786,191.43,33.3747,-16.9664,-1.77979,1.56006,-157.017,208
1568039786,191.43,33.3747,-16.9664,-1.77979,1.56006,-157.017,208
1568039786,191.43,33.3747,-16.9664,-1.77979,1.56006,-157.017,208
1568039786,191.43,33.3747,-16.9664,-1.77979,1.56006,-157.017,208
1568039786,191.43,33.3747,-16.9664,-1.77979,1.56006,-157.017,208
1568039786,191.43,33.3747,-16.9664,-1.77979,1.56006,-157.017,208
1568039786,191.43,33.3747,-16.9664,-1.77979,1.56006,-157.017,208
1568039786,191.43,33.3747,-16.9664,-1.77979,1.56006,-157.017,208
1568039786,191.43,33.3747,-16.9664,-1.77979,1.56006,-157.017,208
1568039786,191.43,33.3747,-16.9664,-1.77979,1.56006,-157.017,208
1568039786,191.43,33.3747,-16.9664,-1.77979,1.56006,-157.017,208
1568039786,191.43,33.3747,-16.9664,-1.77979,1.56006,-157.017,208
1568039786,191.43,33.3747,-16.9664,-1.77979,1.56006,-157.017,204
1568039786,191.43,33.3747,-16.9664,-1.77979,1.56006,-157.017,204
1568039786,191.43,33.3747,-16.9664,-1.77979,1.56006,-157.017,204
1568039786,191.43,33.3747,-16.9664,-1.77979,1.56006,-157.017,208
1568039786,191.43,33.3747,-16.9664,-1.77979,1.56006,-157.017,208
1568039786,191.43,33.3747,-16.9664,-1.77979,1.56006,-157.017,208
1568039786,191.43,33.3747,-16.9664,-1.77979,1.56006,-157.017,208
1568039786,191.43,33.3747,-16.9664,-1.77979,1.56006,-157.017,208
1568039786,191.43,33.3747,-16.9664,-1.77979,1.56006,-157.017,204
1568039786,191.43,33.3747,-16.9664,-1.77979,1.56006,-157.017,204
1568039786,191.43,33.3747,-16.9664,-1.77979,1.56006,-157.017,204
1568039786,191.43,33.3747,-16.9664,-1.77979,1.56006,-157.017,204
1568039786,191.43,33.3747,-16.9664,-1.77979,1.56006,-157.017,204
1568039786,191.43,33.3747,-16.9664,-1.77979,1.56006,-157.017,204
1568039786,191.43,33.3747,-16.9664,-1.77979,1.56006,-157.017,204
1568039786,191.43,33.3747,-16.9664,-1.77979,1.56006,-157.017,204
1568039786,191.43,33.3747,-16.9664,-1.77979,1.56006,-157.017,204
1568039786,191.43,33.3747,-16.9664,-1.77979,1.56006,-157.017,204
1568039786,191.43,33.3747,-16.9664,-1.77979,1.56006,-157.017,204
1568039786,191.43,33.3747,-16.9664,-1.77979,1.56006,-157.017,204
1568039786,191.43,33.3747,-16.9664,-1.77979,1.56006,-157.017,204
1568039786,191.43,33.3747,-16.9664,-1.77979,1.56006,-157.017,204
1568039786,191.43,33.3747,-16.9664,-1.77979,1.56006,-157.017,204
1568039786,191.43,33.3747,-16.9664,-1.77979,1.56006,-157.017,204
1568039786,191.43,33.3747,-16.9664,-1.77979,1.56006,-157.017,204
1568039786,191.43,33.3747,-16.9664,-1.77979,1.56006,-157.017,204
1568039786,191.43,33.3747,-16.9664,-1.77979,1.56006,-157.017,204
1568039786,191.43,33.3747,-16.9664,-1.77979,1.56006,-157.017,204
1568039786,191.43,33.3747,-16.9664,-1.77979,1.56006,-157.017,204
1568039786,191.43,33.3747,-16.9664,-1.77979,1.56006,-157.017,204
1568039786,191.43,33.3747,-16.9664,-1.77979,1.56006,-157.017,204
1568039786,191.43,33.3747,-16.9664,-1.77979,1.56006,-157.017,204
1568039786,191.43,33.3747,-16.9664,-1.77979,1.56006,-157.017,204
1568039786,191.43,33.3747,-16.9664,-1.77979,1.56006,-157.017,204
1568039786,191.43,33.3747,-16.9664,-1.77979,1.56006,-157.017,204
1568039786,191.43,33.3747,-16.9664,-1.77979,1.56006,-157.017,204
1568039786,191.43,33.3747,-16.9664,-1.77979,1.56006,-157.017,204
1568039786,191.43,33.3747,-16.9664,-1.77979,1.56006,-157.017,204
1568039786,191.43,33.3747,-16.9664,-1.77979,1.56006,-157.017,204
1568039786,191.43,33.3747,-16.9664,-1.77979,1.56006,-157.017,204
1568039786,191.43,33.3747,-16.9664,-1.77979,1.56006,-157.017,204
1568039786,191.43,33.3747,-16.9664,-1.77979,1.56006,-157.017,204
1568039786,191.43,33.3747,-16.9664,-1.77979,1.56006,-157.017,204
1568039786,191.43,33.3747,-16.9664,-1.77979,1.56006,-157.017,204
1568039786,191.43,33.3747,-16.9664,-1.77979,1.56006,-157.017,204
1568039786,191.43,33.3747,-16.9664,-1.77979,1.56006,-157.017,204
1568039786,191.43,33.3747,-16.9664,-1.77979,1.56006,-157.017,204
1568039786,191.43,33.3747,-16.9664,-1.77979,1.56006,-157.017,204
1568039786,191.43,33.3747,-16.9664,-1.77979,1.56006,-157.017,204
1568039786,191.43,33.3747,-16.9664,-1.77979,1.56006,-157.017,204
1568039786,191.43,33.3747,-16.9664,-1.77979,1.56006,-157.017,204
1568039786,191.43,33.3747,-16.9664,-1.77979,1.56006,-157.017,204
1568039786,191.43,33.3747,-16.9664,-1.77979,1.56006,-157.017,204
1568039786,191.43,33.3747,-16.9664,-1.77979,1.56006,-157.017,204
1568039786,191.43,33.3747,-16.9664,-1.77979,1.56006,-157.017,204
1568039786,191.43,33.3747,-16.9664,-1.77979,1.56006,-157.017,204
1568039786,191.43,33.3747,-16.9664,-1.77979,1.56006,-157.017,204
1568039787,191.43,33.3747,-16.9664,-1.77979,1.56006,-157.017,204
1568039787,191.43,33.3747,-16.9664,-1.77979,1.56006,-157.017,204
1568039787,191.43,33.3747,-16.9664,-1.77979,1.56006,-157.017,204
1568039787,191.43,33.3747,-16.9664,-1.77979,1.56006,-157.017,204
1568039787,191.43,33.3747,-16.9664,-1.77979,1.56006,-157.017,204
1568039787,191.43,33.3747,-16.9664,-1.77979,1.56006,-157.017,204
1568039787,191.43,33.3747,-16.9664,-1.77979,1.56006,-157.017,204
1568039787,191.43,33.3747,-16.9664,-1.77979,1.56006,-157.017,204
1568039787,191.43,33.3747,-16.9664,-1.77979,1.56006,-157.017,204
1568039787,191.43,33.3747,-16.9664,-1.77979,1.56006,-157.017,204
1568039787,191.43,33.3747,-16.9664,-1.77979,1.56006,-157.017,204
1568039787,191.43,33.3747,-16.9664,-1.77979,1.56006,-157.017,204
1568039787,191.43,33.3747,-16.9664,-1.77979,1.56006,-157.017,204
1568039787,191.43,33.3747,-16.9664,-1.77979,1.56006,-157.017,204
1568039787,191.43,33.3747,-16.9664,-1.77979,1.56006,-157.017,204
1568039787,191.43,33.3747,-16.9664,-1.77979,1.56006,-157.017,204
1568039787,191.43,33.3747,-16.9664,-1.77979,1.56006,-157.017,204
1568039787,191.43,33.3747,-16.9664,-1.77979,1.56006,-157.017,204
1568039787,191.43,33.3747,-16.9664,-1.77979,1.56006,-157.017,204
1568039787,191.43,33.3747,-16.9664,-1.77979,1.56006,-157.017,204
1568039787,191.43,33.3747,-16.9664,-1.77979,1.56006,-157.017,204
1568039787,191.43,33.3747,-16.9664,-1.77979,1.56006,-157.017,204
1568039787,191.43,33.3747,-16.9664,-1.77979,1.56006,-157.017,204
1568039787,191.43,33.3747,-16.9664,-1.77979,1.56006,-157.017,204
1568039787,191.43,33.3747,-16.9664,-1.77979,1.56006,-157.017,204
1568039787,191.43,33.3747,-16.9664,-1.77979,1.56006,-157.017,204
1568039787,191.43,33.3747,-16.9664,-1.77979,1.56006,-157.017,204
1568039787,191.43,33.3747,-16.9664,-1.77979,1.56006,-157.017,204
1568039787,191.43,33.3747,-16.9664,-1.77979,1.56006,-157.017,204
1568039787,191.43,33.3747,-16.9664,-1.77979,1.56006,-157.017,204
1568039787,191.43,33.3747,-16.9664,-1.77979,1.56006,-157.017,204
1568039787,191.43,33.3747,-16.9664,-1.77979,1.56006,-157.017,204
1568039787,191.43,33.3747,-16.9664,-1.77979,1.56006,-157.017,204
1568039787,191.43,33.3747,-16.9664,-1.77979,1.56006,-157.017,204
1568039787,191.43,33.3747,-16.9664,-1.77979,1.56006,-157.017,204
1568039787,191.43,33.3747,-16.9664,-1.77979,1.56006,-157.017,204
1568039787,191.43,33.3747,-16.9664,-1.77979,1.56006,-157.017,204
1568039787,191.43,33.3747,-16.9664,-1.77979,1.56006,-157.017,204
1568039787,191.43,33.3747,-16.9664,-1.77979,1.56006,-157.017,204
1568039787,191.43,33.3747,-16.9664,-1.77979,1.56006,-157.017,204
1568039787,191.43,33.3747,-16.9664,-1.77979,1.56006,-157.017,204
1568039787,191.43,33.3747,-16.9664,-1.77979,1.56006,-157.017,204
1568039787,191.43,33.3747,-16.9664,-1.77979,1.56006,-157.017,204
1568039787,191.43,33.3747,-16.9664,-1.77979,1.56006,-157.017,204
1568039787,191.43,33.3747,-16.9664,-1.77979,1.56006,-157.017,204
1568039787,191.43,33.3747,-16.9664,-1.77979,1.56006,-157.017,204
1568039787,191.43,33.3747,-16.9664,-1.77979,1.56006,-157.017,204
1568039787,191.43,33.3747,-16.9664,-1.77979,1.56006,-157.017,204
1568039787,191.43,33.3747,-16.9664,-1.77979,1.56006,-157.017,204
1568039787,191.43,33.3747,-16.9664,-1.77979,1.56006,-157.017,204
1568039787,191.43,33.3747,-16.9664,-1.77979,1.56006,-157.017,204
1568039787,191.43,33.3747,-16.9664,-1.77979,1.56006,-157.017,204
1568039787,191.43,33.3747,-16.9664,-1.77979,1.56006,-157.017,204
1568039787,191.43,33.3747,-16.9664,-1.77979,1.56006,-157.017,204
1568039787,191.43,33.3747,-16.9664,-1.77979,1.56006,-157.017,204
1568039787,191.43,33.3747,-16.9664,-1.77979,1.56006,-157.017,204
1568039787,191.43,33.3747,-16.9664,-1.77979,1.56006,-157.017,204
1568039787,191.43,33.3747,-16.9664,-1.77979,1.56006,-157.017,204
1568039787,191.43,33.3747,-16.9664,-1.77979,1.56006,-157.017,204
1568039787,191.43,33.3747,-16.9664,-1.77979,1.56006,-157.017,200
1568039787,191.43,33.3747,-16.9664,-1.77979,1.56006,-157.017,200
1568039787,191.43,33.3747,-16.9664,-1.77979,1.56006,-157.017,200
1568039787,191.43,33.3747,-16.9664,-1.77979,1.56006,-157.017,200
1568039787,191.43,33.3747,-16.9664,-1.77979,1.56006,-157.017,200
1568039787,191.43,33.3747,-16.9664,-1.77979,1.56006,-157.017,200
1568039787,191.43,33.3747,-16.9664,-1.77979,1.56006,-157.017,200
1568039787,191.43,33.3747,-16.9664,-1.77979,1.56006,-157.017,204
1568039787,191.43,33.3747,-16.9664,-1.77979,1.56006,-157.017,204
1568039787,191.43,33.3747,-16.9664,-1.77979,1.56006,-157.017,204
1568039787,191.43,33.3747,-16.9664,-1.77979,1.56006,-157.017,204
1568039787,191.43,33.3747,-16.9664,-1.77979,1.56006,-157.017,204
1568039787,191.43,33.3747,-16.9664,-1.77979,1.56006,-157.017,204
1568039787,191.43,33.3747,-16.9664,-1.77979,1.56006,-157.017,204
1568039787,191.43,33.3747,-16.9664,-1.77979,1.56006,-157.017,204
1568039787,191.43,33.3747,-16.9664,-1.77979,1.56006,-157.017,204
1568039787,191.43,33.3747,-16.9664,-1.77979,1.56006,-157.017,204
1568039787,191.43,33.3747,-16.9664,-1.77979,1.56006,-157.017,204
1568039787,191.43,33.3747,-16.9664,-1.77979,1.56006,-157.017,204
1568039787,191.43,33.3747,-16.9664,-1.77979,1.56006,-157.017,204
1568039787,191.43,33.3747,-16.9664,-1.77979,1.56006,-157.017,204
1568039787,191.43,33.3747,-16.9664,-1.77979,1.56006,-157.017,204
1568039787,191.43,33.3747,-16.9664,-1.77979,1.56006,-157.017,204
1568039787,191.43,33.3747,-16.9664,-1.77979,1.56006,-157.017,204
1568039787,191.43,33.3747,-16.9664,-1.77979,1.56006,-157.017,204
1568039787,191.43,33.3747,-16.9664,-1.77979,1.56006,-157.017,204
1568039787,191.43,33.3747,-16.9664,-1.77979,1.56006,-157.017,204
1568039787,191.43,33.3747,-16.9664,-1.77979,1.56006,-157.017,204
1568039787,191.43,33.3747,-16.9664,-1.77979,1.56006,-157.017,204
1568039787,191.43,33.3747,-16.9664,-1.77979,1.56006,-157.017,204
1568039787,191.43,33.3747,-16.9664,-1.77979,1.56006,-157.017,204
1568039787,191.43,33.3747,-16.9664,-1.77979,1.56006,-157.017,204
1568039787,191.43,33.3747,-16.9664,-1.77979,1.56006,-157.017,204
1568039787,191.43,33.3747,-16.9664,-1.77979,1.56006,-157.017,204
1568039787,191.43,33.3747,-16.9664,-1.77979,1.56006,-157.017,204
1568039787,191.43,33.3747,-16.9664,-1.77979,1.56006,-157.017,204
1568039787,191.43,33.3747,-16.9664,-1.77979,1.56006,-157.017,204
1568039787,191.43,33.3747,-16.9664,-1.77979,1.56006,-157.017,204
1568039787,191.43,33.3747,-16.9664,-1.77979,1.56006,-157.017,204
1568039787,191.43,33.3747,-16.9664,-1.77979,1.56006,-157.017,204
1568039787,191.43,33.3747,-16.9664,-1.77979,1.56006,-157.017,204
1568039788,191.43,33.3747,-16.9664,-1.77979,1.56006,-157.017,204
1568039788,191.43,33.3747,-16.9664,-1.77979,1.56006,-157.017,204
1568039788,191.43,33.3747,-16.9664,-1.77979,1.56006,-157.017,200
1568039788,191.43,33.3747,-16.9664,-1.77979,1.56006,-157.017,200
1568039788,191.43,33.3747,-16.9664,-1.77979,1.56006,-157.017,200
1568039788,191.43,33.3747,-16.9664,-1.77979,1.56006,-157.017,200
1568039788,191.43,33.3747,-16.9664,-1.77979,1.56006,-157.017,200
1568039788,191.43,33.3747,-16.9664,-1.77979,1.56006,-157.017,200
1568039788,191.43,33.3747,-16.9664,-1.77979,1.56006,-157.017,200
1568039788,191.43,33.3747,-16.9664,-1.77979,1.56006,-157.017,200
1568039788,191.43,33.3747,-16.9664,-1.77979,1.56006,-157.017,200
1568039788,191.43,33.3747,-16.9664,-1.77979,1.56006,-157.017,200
1568039788,191.43,33.3747,-16.9664,-1.77979,1.56006,-157.017,200
1568039788,191.43,33.3747,-16.9664,-1.77979,1.56006,-157.017,200
1568039788,191.43,33.3747,-16.9664,-1.77979,1.56006,-157.017,200
1568039788,191.43,33.3747,-16.9664,-1.77979,1.56006,-157.017,200
1568039788,191.43,33.3747,-16.9664,-1.77979,1.56006,-157.017,200
1568039788,191.43,33.3747,-16.9664,-1.77979,1.56006,-157.017,200
1568039788,191.43,33.3747,-16.9664,-1.77979,1.56006,-157.017,200
1568039788,191.43,33.3747,-16.9664,-1.77979,1.56006,-157.017,200
1568039788,191.43,33.3747,-16.9664,-1.77979,1.56006,-157.017,200
1568039788,191.43,33.3747,-16.9664,-1.77979,1.56006,-157.017,200
1568039788,191.43,33.3747,-16.9664,-1.77979,1.56006,-157.017,200
1568039788,191.43,33.3747,-16.9664,-1.77979,1.56006,-157.017,200
1568039788,191.43,33.3747,-16.9664,-1.77979,1.56006,-157.017,200
1568039788,191.43,33.3747,-16.9664,-1.77979,1.56006,-157.017,200
1568039788,191.43,33.3747,-16.9664,-1.77979,1.56006,-157.017,200
1568039788,191.43,33.3747,-16.9664,-1.77979,1.56006,-157.017,200
1568039788,191.43,33.3747,-16.9664,-1.77979,1.56006,-157.017,200
1568039788,191.43,33.3747,-16.9664,-1.77979,1.56006,-157.017,200
1568039788,191.43,33.3747,-16.9664,-1.77979,1.56006,-157.017,200
1568039788,191.43,33.3747,-16.9664,-1.77979,1.56006,-157.017,200
1568039788,191.43,33.3747,-16.9664,-1.77979,1.56006,-157.017,200
1568039788,191.43,33.3747,-16.9664,-1.77979,1.56006,-157.017,200
1568039788,191.43,33.3747,-16.9664,-1.77979,1.56006,-157.017,200
1568039788,191.43,33.3747,-16.9664,-1.77979,1.56006,-157.017,200
1568039788,191.43,33.3747,-16.9664,-1.77979,1.56006,-157.017,200
1568039788,191.43,33.3747,-16.9664,-1.77979,1.56006,-157.017,200
1568039788,191.43,33.3747,-16.9664,-1.77979,1.56006,-157.017,200
