time,x,y,z,ax,ay,az,q
1570786676,284.634,29.2447,-13.2829,178.857,2.90039,-145.02,472
1570786676,284.634,29.2447,-13.2829,178.857,2.90039,-145.02,472
1570786676,284.634,29.2447,-13.2829,178.857,2.90039,-145.02,472
1570786676,284.634,29.2447,-13.2829,178.857,2.92236,-145.02,472
1570786676,284.634,29.2447,-13.2829,178.857,2.92236,-145.02,472
1570786676,284.634,29.2447,-13.2829,178.857,2.92236,-145.02,472
1570786676,284.634,29.2447,-13.2829,178.857,2.92236,-145.042,472
1570786676,284.634,29.2447,-13.2829,178.857,2.92236,-145.042,472
1570786676,284.634,29.2447,-13.2829,178.857,2.92236,-145.042,472
1570786676,284.634,29.2447,-13.2829,178.857,2.92236,-145.042,472
1570786676,284.634,29.2447,-13.2829,178.857,2.92236,-145.042,472
1570786676,284.634,29.2447,-13.2829,178.857,2.92236,-145.042,472
1570786676,284.634,29.2447,-13.2829,178.857,2.92236,-145.042,472
1570786676,284.634,29.2447,-13.2829,178.857,2.90039,-145.042,472
1570786676,284.522,29.2447,-13.2829,178.857,2.90039,-145.042,472
1570786676,284.522,29.2447,-13.2829,178.857,2.90039,-145.042,472
1570786676,284.522,29.2447,-13.2829,178.857,2.90039,-145.042,472
1570786676,284.522,29.2447,-13.2829,178.857,2.90039,-145.042,476
1570786676,284.522,29.2447,-13.2829,178.857,2.90039,-145.042,476
1570786676,284.522,29.2447,-13.2829,178.857,2.90039,-145.042,476
1570786676,284.522,29.2447,-13.2829,178.857,2.90039,-145.042,476
1570786676,284.522,29.2447,-13.2829,178.857,2.90039,-145.042,476
1570786676,284.522,29.2447,-13.2829,178.857,2.90039,-145.042,476
1570786676,284.522,29.2447,-13.2829,178.857,2.90039,-145.042,476
1570786676,284.522,29.2447,-13.2829,178.857,2.90039,-145.042,476
1570786676,284.522,29.2447,-13.2829,178.857,2.90039,-145.042,476
1570786676,284.522,29.2447,-13.2829,178.857,2.90039,-145.042,476
1570786676,284.522,29.2447,-13.2829,178.857,2.90039,-145.042,476
1570786676,284.522,29.2447,-13.2829,178.857,2.90039,-145.042,476
1570786676,284.522,29.2447,-13.2829,178.857,2.90039,-145.042,476
1570786676,284.522,29.2447,-13.2829,178.857,2.90039,-145.042,476
1570786676,284.522,29.2447,-13.2829,178.857,2.90039,-145.042,476
1570786676,284.522,29.2447,-13.2829,178.857,2.90039,-145.042,476
1570786676,284.522,29.2447,-13.2829,178.857,2.90039,-145.042,476
1570786676,284.522,29.2447,-13.2829,178.857,2.90039,-145.042,476
1570786676,284.522,29.2447,-13.2829,178.857,2.90039,-145.042,476
1570786676,284.522,29.2447,-13.2829,178.857,2.90039,-145.042,476
1570786676,284.522,29.2447,-13.2829,178.857,2.90039,-145.042,476
1570786676,284.522,29.2447,-13.2829,178.857,2.90039,-145.042,476
1570786676,284.522,29.2447,-13.2829,178.857,2.90039,-145.042,476
1570786676,284.522,29.2447,-13.2829,178.857,2.90039,-145.042,476
1570786676,284.522,29.2447,-13.2829,178.857,2.90039,-145.042,476
1570786677,284.522,29.2447,-13.2829,178.857,2.90039,-145.042,476
1570786677,284.522,29.2447,-13.2829,178.857,2.90039,-145.042,476
1570786677,284.522,29.2447,-13.2829,178.857,2.90039,-145.042,476
1570786677,284.522,29.2447,-13.2829,178.857,2.90039,-145.042,472
1570786677,284.522,29.2447,-13.2829,178.857,2.90039,-145.042,472
1570786677,284.634,29.2447,-13.2829,178.857,2.90039,-145.042,472
1570786677,284.634,29.2447,-13.2829,178.857,2.90039,-145.042,472
1570786677,284.634,29.2447,-13.2829,178.857,2.90039,-145.042,472
1570786677,284.634,29.2447,-13.2829,178.857,2.90039,-145.042,472
1570786677,284.634,29.2447,-13.2829,178.857,2.90039,-145.042,472
1570786677,284.634,29.2447,-13.2829,178.857,2.90039,-145.042,472
1570786677,284.634,29.2447,-13.2829,178.857,2.90039,-145.042,468
1570786677,284.634,29.2447,-13.2829,178.857,2.90039,-145.042,468
1570786677,284.634,29.2447,-13.2829,178.857,2.90039,-145.042,468
1570786677,284.634,29.3563,-13.2829,178.857,2.90039,-145.042,468
1570786677,284.634,29.3563,-13.2829,178.857,2.90039,-145.042,468
1570786677,284.634,29.3563,-13.2829,178.857,2.90039,-145.042,468
1570786677,284.634,29.3563,-13.2829,178.857,2.90039,-145.042,468
1570786677,284.634,29.3563,-13.2829,178.857,2.90039,-145.042,464
1570786677,284.634,29.3563,-13.2829,178.857,2.90039,-145.042,464
1570786677,284.634,29.2447,-13.2829,178.857,2.90039,-145.042,464
1570786677,284.634,29.2447,-13.2829,178.857,2.90039,-145.042,464
1570786677,284.634,29.2447,-13.2829,178.857,2.90039,-145.042,464
1570786677,284.634,29.2447,-13.2829,178.857,2.90039,-145.042,464
1570786677,284.634,29.2447,-13.2829,178.857,2.90039,-145.042,464
1570786677,284.634,29.2447,-13.2829,178.857,2.90039,-145.042,468
1570786677,284.634,29.2447,-13.2829,178.857,2.90039,-145.042,468
1570786677,284.634,29.2447,-13.2829,178.857,2.90039,-145.042,468
1570786677,284.634,29.2447,-13.2829,178.857,2.90039,-145.042,468
1570786677,284.634,29.2447,-13.2829,178.857,2.90039,-145.042,468
1570786677,284.634,29.2447,-13.2829,178.857,2.90039,-145.042,468
1570786677,284.634,29.2447,-13.2829,178.857,2.90039,-145.042,468
1570786677,284.634,29.2447,-13.2829,178.857,2.90039,-145.042,468
1570786677,284.634,29.2447,-13.2829,178.857,2.90039,-145.042,468
1570786677,284.634,29.2447,-13.2829,178.857,2.90039,-145.042,468
1570786677,284.634,29.2447,-13.2829,178.857,2.90039,-145.042,468
1570786677,284.634,29.2447,-13.2829,178.857,2.90039,-145.042,472
1570786677,284.634,29.2447,-13.2829,178.857,2.90039,-145.042,472
1570786677,284.634,29.2447,-13.2829,178.857,2.90039,-145.042,472
1570786677,284.634,29.2447,-13.2829,178.857,2.90039,-145.042,472
1570786677,284.634,29.2447,-13.2829,178.857,2.90039,-145.042,472
1570786677,284.634,29.2447,-13.2829,178.857,2.90039,-145.042,472
1570786677,284.634,29.2447,-13.2829,178.857,2.90039,-145.042,472
1570786677,284.634,29.2447,-13.2829,178.857,2.90039,-145.042,472
1570786677,284.634,29.2447,-13.2829,178.857,2.90039,-145.042,472
1570786677,284.634,29.2447,-13.2829,178.857,2.90039,-145.042,472
1570786677,284.634,29.2447,-13.2829,178.857,2.90039,-145.042,476
1570786677,284.634,29.2447,-13.2829,178.857,2.90039,-145.042,476
1570786677,284.634,29.2447,-13.2829,178.857,2.90039,-145.02,476
1570786677,284.634,29.2447,-13.2829,178.857,2.90039,-145.02,476
1570786677,284.634,29.2447,-13.2829,178.857,2.90039,-145.02,476
1570786677,284.634,29.2447,-13.2829,178.857,2.90039,-145.02,476
1570786677,284.634,29.2447,-13.2829,178.857,2.90039,-145.042,476
1570786677,284.634,29.2447,-13.2829,178.857,2.90039,-145.042,476
1570786677,284.634,29.2447,-13.2829,178.857,2.90039,-145.042,476
1570786677,284.634,29.2447,-13.2829,178.857,2.90039,-145.042,476
1570786677,284.634,29.2447,-13.2829,178.857,2.90039,-145.042,476
1570786677,284.634,29.2447,-13.2829,178.857,2.90039,-145.042,476
1570786677,284.634,29.2447,-13.2829,178.857,2.90039,-145.042,472
1570786677,284.634,29.2447,-13.2829,178.857,2.90039,-145.042,472
1570786677,284.634,29.2447,-13.2829,178.857,2.90039,-145.042,472
1570786677,284.634,29.2447,-13.2829,178.857,2.90039,-145.042,472
1570786677,284.634,29.2447,-13.2829,178.857,2.90039,-145.042,472
1570786677,284.634,29.2447,-13.2829,178.857,2.90039,-145.042,472
1570786677,284.634,29.2447,-13.2829,178.857,2.90039,-145.042,472
1570786677,284.634,29.2447,-13.2829,178.857,2.87842,-145.042,472
1570786677,284.634,29.2447,-13.2829,178.857,2.87842,-145.042,472
1570786677,284.634,29.2447,-13.2829,178.857,2.87842,-145.042,472
1570786677,284.634,29.2447,-13.2829,178.857,2.90039,-145.042,472
1570786677,284.634,29.2447,-13.2829,178.857,2.90039,-145.042,472
1570786677,284.634,29.2447,-13.2829,178.857,2.90039,-145.042,472
1570786677,284.634,29.2447,-13.2829,178.857,2.90039,-145.042,472
1570786677,284.634,29.2447,-13.2829,178.857,2.90039,-145.042,472
1570786677,284.634,29.2447,-13.2829,178.857,2.90039,-145.042,472
1570786677,284.634,29.2447,-13.2829,178.857,2.90039,-145.042,472
1570786677,284.634,29.2447,-13.2829,178.857,2.90039,-145.042,472
1570786677,284.634,29.2447,-13.2829,178.857,2.90039,-145.042,472
1570786677,284.634,29.2447,-13.2829,178.857,2.90039,-145.042,472
1570786677,284.634,29.2447,-13.2829,178.857,2.90039,-145.042,472
1570786677,284.634,29.2447,-13.2829,178.857,2.90039,-145.042,472
1570786677,284.634,29.2447,-13.2829,178.857,2.90039,-145.042,472
1570786677,284.634,29.2447,-13.2829,178.857,2.90039,-145.042,472
1570786677,284.634,29.2447,-13.2829,178.857,2.90039,-145.042,472
1570786677,284.634,29.2447,-13.2829,178.857,2.90039,-145.042,472
1570786677,284.634,29.2447,-13.2829,178.857,2.90039,-145.042,472
1570786677,284.634,29.2447,-13.2829,178.857,2.90039,-145.042,472
1570786677,284.634,29.2447,-13.2829,178.857,2.90039,-145.042,472
1570786677,284.634,29.2447,-13.2829,178.857,2.90039,-145.042,472
1570786677,284.634,29.2447,-13.2829,178.857,2.90039,-145.042,472
1570786677,284.634,29.2447,-13.2829,178.857,2.90039,-145.042,472
1570786677,284.634,29.2447,-13.2829,178.857,2.90039,-145.042,472
1570786677,284.634,29.2447,-13.2829,178.857,2.90039,-145.042,472
1570786677,284.634,29.2447,-13.2829,178.857,2.90039,-145.042,476
1570786677,284.634,29.2447,-13.2829,178.857,2.90039,-145.042,476
1570786677,284.634,29.2447,-13.2829,178.857,2.90039,-145.042,476
1570786677,284.634,29.2447,-13.2829,178.857,2.90039,-145.042,476
1570786677,284.634,29.2447,-13.2829,178.857,2.90039,-145.042,476
1570786677,284.634,29.2447,-13.2829,178.835,2.90039,-145.042,476
1570786677,284.634,29.2447,-13.2829,178.857,2.90039,-145.042,476
1570786677,284.634,29.2447,-13.2829,178.857,2.90039,-145.042,476
1570786678,284.634,29.2447,-13.2829,178.857,2.90039,-145.042,476
1570786678,284.634,29.2447,-13.2829,178.857,2.90039,-145.042,476
1570786678,284.634,29.2447,-13.2829,178.857,2.90039,-145.042,476
1570786678,284.634,29.2447,-13.2829,178.857,2.90039,-145.042,476
1570786678,284.634,29.2447,-13.2829,178.857,2.90039,-145.042,476
1570786678,284.634,29.2447,-13.2829,178.857,2.90039,-145.042,476
1570786678,284.634,29.2447,-13.2829,178.857,2.90039,-145.042,476
1570786678,284.634,29.2447,-13.2829,178.857,2.90039,-145.042,476
1570786678,284.634,29.2447,-13.2829,178.857,2.90039,-145.02,476
1570786678,284.634,29.2447,-13.2829,178.857,2.90039,-145.02,472
1570786678,284.634,29.2447,-13.2829,178.857,2.90039,-145.02,472
1570786678,284.634,29.2447,-13.2829,178.857,2.90039,-145.02,472
1570786678,284.634,29.2447,-13.2829,178.857,2.90039,-145.02,472
1570786678,284.634,29.2447,-13.2829,178.857,2.90039,-145.02,472
1570786678,284.634,29.2447,-13.2829,178.857,2.90039,-145.042,472
1570786678,284.634,29.2447,-13.2829,178.857,2.90039,-145.042,472
1570786678,284.634,29.2447,-13.2829,178.857,2.90039,-145.042,472
1570786678,284.522,29.2447,-13.2829,178.857,2.90039,-145.042,476
1570786678,284.522,29.2447,-13.2829,178.857,2.90039,-145.042,476
1570786678,284.522,29.2447,-13.2829,178.857,2.90039,-145.042,476
1570786678,284.522,29.2447,-13.2829,178.857,2.90039,-145.042,476
1570786678,284.522,29.2447,-13.2829,178.857,2.90039,-145.042,476
1570786678,284.522,29.2447,-13.2829,178.857,2.90039,-145.042,476
1570786678,284.522,29.2447,-13.2829,178.857,2.90039,-145.042,476
1570786678,284.522,29.2447,-13.2829,178.857,2.90039,-145.042,476
1570786678,284.522,29.2447,-13.2829,178.857,2.90039,-145.042,476
1570786678,284.522,29.2447,-13.2829,178.857,2.90039,-145.042,476
1570786678,284.522,29.2447,-13.2829,178.857,2.90039,-145.042,480
1570786678,284.522,29.2447,-13.2829,178.857,2.90039,-145.042,480
1570786678,284.522,29.2447,-13.2829,178.857,2.90039,-145.042,480
1570786678,284.522,29.2447,-13.2829,178.857,2.90039,-145.042,480
1570786678,284.522,29.2447,-13.2829,178.857,2.90039,-145.042,480
1570786678,284.522,29.2447,-13.2829,178.857,2.90039,-145.042,480
1570786678,284.522,29.2447,-13.2829,178.835,2.90039,-145.042,480
1570786678,284.522,29.2447,-13.2829,178.835,2.90039,-145.042,480
1570786678,284.522,29.2447,-13.2829,178.835,2.90039,-145.042,480
1570786678,284.522,29.2447,-13.2829,178.835,2.90039,-145.042,480
1570786678,284.522,29.2447,-13.2829,178.835,2.90039,-145.042,480
1570786678,284.522,29.2447,-13.2829,178.835,2.90039,-145.042,476
1570786678,284.522,29.2447,-13.2829,178.835,2.90039,-145.042,476
1570786678,284.522,29.2447,-13.2829,178.835,2.90039,-145.042,476
1570786678,284.522,29.2447,-13.2829,178.835,2.90039,-145.042,476
1570786678,284.522,29.2447,-13.2829,178.835,2.90039,-145.042,476
1570786678,284.522,29.2447,-13.2829,178.835,2.90039,-145.042,476
1570786678,284.522,29.2447,-13.2829,178.835,2.90039,-145.042,476
1570786678,284.522,29.2447,-13.2829,178.835,2.90039,-145.042,476
1570786678,284.522,29.2447,-13.2829,178.835,2.90039,-145.042,476
1570786678,284.522,29.2447,-13.2829,178.835,2.90039,-145.042,476
1570786678,284.522,29.2447,-13.2829,178.835,2.90039,-145.042,476
1570786678,284.634,29.2447,-13.2829,178.835,2.90039,-145.042,476
1570786678,284.634,29.2447,-13.2829,178.835,2.90039,-145.042,476
1570786678,284.634,29.2447,-13.2829,178.835,2.90039,-145.042,476
1570786678,284.634,29.2447,-13.2829,178.835,2.90039,-145.042,476
1570786678,284.634,29.2447,-13.2829,178.835,2.90039,-145.042,476
1570786678,284.634,29.2447,-13.2829,178.835,2.90039,-145.042,476
1570786678,284.634,29.2447,-13.2829,178.835,2.90039,-145.042,476
1570786678,284.634,29.2447,-13.2829,178.835,2.90039,-145.042,476
1570786678,284.634,29.2447,-13.2829,178.835,2.90039,-145.042,476
1570786678,284.634,29.2447,-13.2829,178.835,2.90039,-145.042,472
1570786678,284.634,29.2447,-13.2829,178.835,2.90039,-145.042,472
1570786678,284.634,29.2447,-13.2829,178.835,2.90039,-145.042,472
1570786678,284.634,29.2447,-13.2829,178.835,2.90039,-145.042,472
1570786678,284.634,29.2447,-13.2829,178.835,2.90039,-145.042,472
1570786678,284.634,29.2447,-13.2829,178.835,2.90039,-145.042,472
1570786678,284.634,29.2447,-13.2829,178.835,2.90039,-145.042,472
1570786678,284.634,29.2447,-13.2829,178.835,2.90039,-145.042,472
1570786678,284.634,29.2447,-13.2829,178.835,2.90039,-145.042,472
1570786678,284.634,29.2447,-13.2829,178.835,2.90039,-145.042,472
1570786678,284.634,29.2447,-13.2829,178.835,2.90039,-145.042,476
1570786678,284.634,29.2447,-13.2829,178.835,2.90039,-145.042,476
1570786678,284.634,29.2447,-13.2829,178.835,2.90039,-145.042,476
1570786678,284.634,29.2447,-13.2829,178.835,2.90039,-145.042,476
1570786678,284.634,29.2447,-13.2829,178.835,2.90039,-145.042,476
1570786678,284.634,29.2447,-13.2829,178.835,2.90039,-145.042,476
1570786678,284.634,29.2447,-13.2829,178.835,2.90039,-145.042,476
1570786678,284.634,29.2447,-13.2829,178.835,2.90039,-145.042,480
1570786678,284.634,29.2447,-13.2829,178.835,2.90039,-145.042,480
1570786678,284.634,29.2447,-13.2829,178.835,2.90039,-145.042,480
1570786678,284.634,29.2447,-13.2829,178.835,2.90039,-145.042,480
1570786678,284.634,29.2447,-13.2829,178.835,2.90039,-145.042,480
1570786678,284.634,29.2447,-13.2829,178.835,2.90039,-145.042,480
1570786678,284.634,29.2447,-13.2829,178.835,2.90039,-145.042,480
1570786678,284.634,29.2447,-13.2829,178.835,2.90039,-145.042,480
1570786678,284.634,29.2447,-13.2829,178.835,2.90039,-145.042,480
1570786678,284.634,29.2447,-13.2829,178.835,2.90039,-145.042,480
1570786678,284.634,29.2447,-13.2829,178.835,2.90039,-145.042,480
1570786678,284.634,29.2447,-13.2829,178.835,2.90039,-145.042,480
1570786678,284.634,29.2447,-13.2829,178.835,2.90039,-145.042,480
1570786678,284.634,29.2447,-13.2829,178.835,2.90039,-145.042,480
1570786678,284.634,29.2447,-13.2829,178.835,2.90039,-145.042,480
1570786678,284.634,29.2447,-13.2829,178.835,2.90039,-145.042,480
1570786678,284.634,29.2447,-13.2829,178.835,2.90039,-145.042,480
1570786678,284.634,29.2447,-13.2829,178.835,2.90039,-145.042,480
1570786678,284.522,29.2447,-13.2829,178.835,2.90039,-145.042,480
1570786678,284.634,29.2447,-13.2829,178.835,2.90039,-145.042,480
1570786678,284.634,29.2447,-13.2829,178.857,2.90039,-145.042,480
1570786678,284.634,29.2447,-13.2829,178.857,2.90039,-145.042,480
1570786678,284.634,29.2447,-13.2829,178.857,2.90039,-145.042,480
1570786678,284.634,29.2447,-13.2829,178.857,2.90039,-145.042,480
1570786678,284.634,29.2447,-13.2829,178.857,2.90039,-145.042,480
1570786679,284.634,29.2447,-13.2829,178.857,2.90039,-145.042,480
1570786679,284.634,29.2447,-13.2829,178.857,2.90039,-145.042,476
1570786679,284.634,29.2447,-13.2829,178.857,2.90039,-145.042,476
1570786679,284.634,29.2447,-13.2829,178.857,2.90039,-145.042,476
1570786679,284.634,29.2447,-13.2829,178.857,2.90039,-145.042,476
1570786679,284.634,29.2447,-13.2829,178.857,2.90039,-145.042,476
1570786679,284.634,29.2447,-13.2829,178.857,2.90039,-145.042,476
1570786679,284.634,29.2447,-13.2829,178.857,2.90039,-145.042,476
1570786679,284.634,29.2447,-13.2829,178.857,2.90039,-145.042,476
1570786679,284.634,29.2447,-13.2829,178.857,2.90039,-145.042,476
1570786679,284.634,29.2447,-13.2829,178.857,2.90039,-145.042,476
1570786679,284.634,29.2447,-13.2829,178.857,2.90039,-145.042,476
1570786679,284.634,29.2447,-13.2829,178.857,2.90039,-145.042,476
1570786679,284.634,29.2447,-13.2829,178.857,2.90039,-145.042,476
1570786679,284.634,29.2447,-13.2829,178.857,2.90039,-145.042,476
1570786679,284.634,29.2447,-13.2829,178.857,2.90039,-145.042,476
1570786679,284.634,29.2447,-13.2829,178.857,2.90039,-145.042,476
1570786679,284.634,29.2447,-13.2829,178.857,2.90039,-145.042,476
1570786679,284.634,29.2447,-13.2829,178.857,2.90039,-145.042,476
1570786679,284.634,29.2447,-13.2829,178.857,2.90039,-145.042,476
1570786679,284.634,29.2447,-13.2829,178.857,2.90039,-145.042,476
1570786679,284.634,29.2447,-13.2829,178.857,2.90039,-145.042,476
1570786679,284.634,29.2447,-13.2829,178.857,2.90039,-145.042,476
1570786679,284.634,29.2447,-13.2829,178.857,2.90039,-145.042,476
1570786679,284.634,29.2447,-13.2829,178.857,2.90039,-145.042,472
1570786679,284.634,29.2447,-13.2829,178.835,2.90039,-145.042,472
1570786679,284.634,29.2447,-13.2829,178.835,2.90039,-145.042,472
1570786679,284.634,29.2447,-13.2829,178.835,2.90039,-145.042,472
1570786679,284.634,29.2447,-13.2829,178.835,2.90039,-145.042,472
1570786679,284.634,29.2447,-13.2829,178.835,2.90039,-145.042,472
1570786679,284.634,29.2447,-13.2829,178.835,2.90039,-145.042,472
1570786679,284.634,29.2447,-13.2829,178.835,2.90039,-145.042,472
1570786679,284.634,29.2447,-13.2829,178.835,2.90039,-145.042,472
1570786679,284.634,29.2447,-13.2829,178.835,2.90039,-145.042,472
1570786679,284.634,29.2447,-13.2829,178.835,2.90039,-145.042,472
1570786679,284.634,29.2447,-13.2829,178.835,2.90039,-145.042,472
1570786679,284.634,29.2447,-13.2829,178.835,2.90039,-145.042,472
1570786679,284.634,29.2447,-13.2829,178.835,2.90039,-145.042,472
1570786679,284.634,29.2447,-13.2829,178.835,2.90039,-145.042,472
1570786679,284.634,29.2447,-13.2829,178.835,2.90039,-145.042,472
1570786679,284.634,29.2447,-13.2829,178.835,2.90039,-145.042,472
1570786679,284.634,29.2447,-13.2829,178.835,2.90039,-145.042,472
1570786679,284.634,29.2447,-13.2829,178.835,2.90039,-145.042,472
1570786679,284.634,29.2447,-13.2829,178.835,2.87842,-145.042,472
1570786679,284.634,29.2447,-13.2829,178.835,2.87842,-145.042,472
1570786679,284.634,29.2447,-13.2829,178.835,2.87842,-145.042,472
1570786679,284.634,29.2447,-13.2829,178.835,2.87842,-145.042,472
1570786679,284.634,29.2447,-13.2829,178.835,2.87842,-145.042,472
1570786679,284.634,29.2447,-13.2829,178.835,2.87842,-145.042,472
1570786679,284.634,29.2447,-13.2829,178.835,2.87842,-145.042,472
1570786679,284.634,29.2447,-13.2829,178.835,2.87842,-145.042,472
1570786679,284.634,29.2447,-13.2829,178.835,2.87842,-145.042,472
1570786679,284.634,29.2447,-13.2829,178.835,2.90039,-145.042,472
1570786679,284.634,29.2447,-13.2829,178.835,2.90039,-145.042,472
1570786679,284.634,29.2447,-13.2829,178.835,2.90039,-145.042,472
1570786679,284.634,29.2447,-13.2829,178.835,2.90039,-145.042,472
1570786679,284.634,29.2447,-13.2829,178.835,2.90039,-145.042,472
1570786679,284.634,29.2447,-13.2829,178.835,2.90039,-145.042,468
1570786679,284.634,29.2447,-13.2829,178.835,2.90039,-145.042,468
1570786679,284.634,29.2447,-13.2829,178.835,2.90039,-145.042,468
1570786679,284.634,29.2447,-13.2829,178.835,2.90039,-145.042,468
1570786679,284.634,29.2447,-13.2829,178.835,2.90039,-145.042,468
1570786679,284.634,29.2447,-13.2829,178.835,2.90039,-145.042,468
1570786679,284.634,29.2447,-13.2829,178.835,2.90039,-145.042,468
1570786679,284.634,29.2447,-13.2829,178.835,2.90039,-145.042,468
1570786679,284.634,29.2447,-13.2829,178.835,2.90039,-145.042,468
1570786679,284.634,29.2447,-13.2829,178.835,2.90039,-145.042,464
1570786679,284.634,29.2447,-13.2829,178.835,2.90039,-145.042,464
1570786679,284.634,29.2447,-13.2829,178.835,2.90039,-145.042,464
1570786679,284.634,29.2447,-13.2829,178.835,2.90039,-145.042,464
1570786679,284.634,29.2447,-13.2829,178.835,2.90039,-145.042,464
1570786679,284.634,29.2447,-13.2829,178.835,2.90039,-145.042,464
1570786679,284.634,29.2447,-13.2829,178.835,2.90039,-145.042,464
1570786679,284.634,29.2447,-13.2829,178.835,2.90039,-145.042,464
1570786679,284.634,29.2447,-13.2829,178.835,2.90039,-145.042,464
1570786679,284.634,29.2447,-13.2829,178.835,2.90039,-145.042,464
1570786679,284.634,29.2447,-13.2829,178.835,2.90039,-145.042,464
1570786679,284.634,29.2447,-13.2829,178.835,2.90039,-145.042,464
1570786679,284.634,29.2447,-13.2829,178.835,2.90039,-145.042,464
1570786679,284.634,29.2447,-13.2829,178.835,2.90039,-145.042,464
1570786679,284.634,29.2447,-13.2829,178.835,2.90039,-145.042,464
1570786679,284.634,29.2447,-13.2829,178.835,2.90039,-145.042,464
1570786679,284.634,29.2447,-13.2829,178.835,2.90039,-145.042,464
1570786679,284.634,29.2447,-13.2829,178.835,2.90039,-145.042,468
1570786679,284.634,29.2447,-13.2829,178.835,2.90039,-145.042,468
1570786679,284.634,29.2447,-13.2829,178.835,2.90039,-145.042,468
1570786679,284.634,29.2447,-13.2829,178.835,2.90039,-145.042,468
1570786679,284.634,29.2447,-13.2829,178.857,2.90039,-145.042,468
1570786679,284.634,29.2447,-13.2829,178.857,2.90039,-145.042,468
1570786679,284.634,29.2447,-13.2829,178.857,2.90039,-145.042,468
1570786679,284.634,29.2447,-13.2829,178.857,2.90039,-145.042,468
1570786679,284.634,29.2447,-13.2829,178.857,2.90039,-145.042,468
1570786679,284.634,29.2447,-13.2829,178.857,2.90039,-145.042,468
1570786679,284.634,29.2447,-13.2829,178.857,2.90039,-145.042,468
1570786679,284.634,29.2447,-13.2829,178.857,2.90039,-145.042,468
1570786679,284.634,29.2447,-13.2829,178.857,2.90039,-145.042,468
1570786679,284.522,29.2447,-13.2829,178.857,2.90039,-145.042,468
1570786679,284.522,29.2447,-13.2829,178.857,2.90039,-145.042,468
1570786679,284.522,29.2447,-13.2829,178.857,2.90039,-145.042,468
1570786679,284.522,29.2447,-13.2829,178.857,2.90039,-145.042,468
1570786680,284.522,29.2447,-13.2829,178.857,2.90039,-145.042,468
1570786680,284.522,29.2447,-13.2829,178.857,2.90039,-145.042,468
1570786680,284.522,29.2447,-13.2829,178.857,2.90039,-145.042,468
1570786680,284.634,29.2447,-13.2829,178.857,2.90039,-145.042,468
1570786680,284.634,29.2447,-13.2829,178.857,2.90039,-145.042,468
1570786680,284.634,29.2447,-13.2829,178.857,2.90039,-145.042,468
1570786680,284.634,29.2447,-13.2829,178.857,2.90039,-145.042,468
1570786680,284.634,29.2447,-13.2829,178.857,2.90039,-145.042,468
1570786680,284.634,29.2447,-13.2829,178.857,2.90039,-145.042,468
1570786680,284.634,29.2447,-13.2829,178.857,2.90039,-145.042,468
1570786680,284.634,29.2447,-13.2829,178.857,2.90039,-145.042,468
1570786680,284.634,29.2447,-13.2829,178.857,2.90039,-145.042,468
1570786680,284.634,29.2447,-13.2829,178.857,2.90039,-145.042,468
1570786680,284.634,29.2447,-13.2829,178.857,2.90039,-145.042,468
1570786680,284.634,29.2447,-13.2829,178.857,2.90039,-145.042,468
1570786680,284.634,29.2447,-13.2829,178.857,2.90039,-145.042,468
1570786680,284.634,29.2447,-13.2829,178.857,2.90039,-145.042,468
1570786680,284.634,29.2447,-13.2829,178.857,2.90039,-145.042,472
1570786680,284.634,29.2447,-13.2829,178.857,2.90039,-145.042,472
1570786680,284.634,29.2447,-13.2829,178.857,2.90039,-145.042,472
1570786680,284.634,29.2447,-13.2829,178.857,2.90039,-145.042,472
1570786680,284.634,29.2447,-13.2829,178.857,2.90039,-145.042,472
1570786680,284.634,29.2447,-13.2829,178.857,2.90039,-145.042,472
1570786680,284.634,29.2447,-13.2829,178.857,2.90039,-145.042,472
1570786680,284.634,29.2447,-13.2829,178.857,2.90039,-145.042,472
1570786680,284.634,29.2447,-13.2829,178.857,2.90039,-145.042,472
1570786680,284.634,29.2447,-13.2829,178.857,2.90039,-145.042,472
1570786680,284.634,29.2447,-13.2829,178.857,2.90039,-145.042,472
1570786680,284.634,29.2447,-13.2829,178.857,2.90039,-145.042,472
1570786680,284.634,29.2447,-13.2829,178.857,2.90039,-145.042,472
1570786680,284.634,29.2447,-13.2829,178.857,2.90039,-145.042,472
1570786680,284.634,29.2447,-13.2829,178.857,2.90039,-145.042,472
1570786680,284.634,29.2447,-13.2829,178.857,2.90039,-145.042,472
1570786680,284.634,29.2447,-13.2829,178.857,2.90039,-145.042,472
1570786680,284.634,29.2447,-13.2829,178.857,2.90039,-145.042,472
1570786680,284.634,29.2447,-13.2829,178.857,2.90039,-145.042,472
1570786680,284.634,29.2447,-13.2829,178.857,2.90039,-145.042,472
1570786680,284.634,29.2447,-13.2829,178.857,2.90039,-145.042,472
1570786680,284.634,29.2447,-13.2829,178.857,2.90039,-145.042,472
1570786680,284.634,29.2447,-13.2829,178.857,2.90039,-145.042,472
1570786680,284.634,29.2447,-13.2829,178.835,2.90039,-145.042,472
1570786680,284.634,29.2447,-13.2829,178.835,2.90039,-145.042,472
1570786680,284.634,29.2447,-13.2829,178.835,2.90039,-145.042,472
1570786680,284.634,29.2447,-13.2829,178.835,2.90039,-145.042,472
1570786680,284.634,29.2447,-13.2829,178.835,2.90039,-145.042,472
1570786680,284.634,29.2447,-13.2829,178.835,2.90039,-145.042,472
1570786680,284.634,29.2447,-13.2829,178.835,2.90039,-145.042,472
1570786680,284.634,29.2447,-13.2829,178.835,2.90039,-145.042,472
1570786680,284.634,29.2447,-13.2829,178.835,2.90039,-145.042,472
1570786680,284.634,29.2447,-13.2829,178.835,2.90039,-145.042,472
1570786680,284.634,29.2447,-13.2829,178.835,2.90039,-145.042,472
1570786680,284.634,29.2447,-13.2829,178.835,2.90039,-145.042,472
1570786680,284.634,29.2447,-13.2829,178.835,2.90039,-145.042,472
1570786680,284.634,29.2447,-13.2829,178.835,2.90039,-145.042,468
1570786680,284.634,29.2447,-13.2829,178.835,2.90039,-145.042,468
1570786680,284.522,29.2447,-13.2829,178.835,2.90039,-145.042,468
1570786680,284.522,29.2447,-13.2829,178.835,2.90039,-145.042,468
1570786680,284.522,29.2447,-13.2829,178.835,2.90039,-145.042,468
1570786680,284.522,29.2447,-13.2829,178.835,2.90039,-145.042,468
1570786680,284.522,29.2447,-13.2829,178.835,2.90039,-145.042,468
1570786680,284.522,29.2447,-13.2829,178.835,2.90039,-145.042,468
1570786680,284.522,29.2447,-13.2829,178.835,2.90039,-145.042,468
1570786680,284.522,29.2447,-13.2829,178.835,2.90039,-145.042,468
1570786680,284.522,29.2447,-13.2829,178.835,2.90039,-145.042,468
1570786680,284.522,29.2447,-13.2829,178.835,2.90039,-145.042,468
1570786680,284.522,29.2447,-13.2829,178.835,2.90039,-145.042,468
1570786680,284.522,29.2447,-13.2829,178.835,2.90039,-145.042,468
1570786680,284.522,29.2447,-13.2829,178.835,2.90039,-145.042,468
1570786680,284.522,29.2447,-13.2829,178.835,2.90039,-145.042,468
1570786680,284.522,29.2447,-13.2829,178.835,2.90039,-145.042,468
1570786680,284.522,29.2447,-13.2829,178.835,2.90039,-145.042,468
1570786680,284.634,29.2447,-13.2829,178.835,2.90039,-145.042,468
1570786680,284.634,29.2447,-13.2829,178.835,2.90039,-145.042,468
1570786680,284.634,29.2447,-13.2829,178.835,2.90039,-145.042,468
1570786680,284.634,29.2447,-13.2829,178.835,2.90039,-145.042,468
1570786680,284.634,29.2447,-13.2829,178.835,2.90039,-145.042,468
1570786680,284.634,29.2447,-13.2829,178.857,2.90039,-145.042,468
1570786680,284.634,29.2447,-13.2829,178.857,2.90039,-145.042,468
1570786680,284.634,29.2447,-13.2829,178.857,2.90039,-145.042,468
1570786680,284.634,29.2447,-13.2829,178.857,2.90039,-145.042,468
1570786680,284.634,29.2447,-13.2829,178.857,2.90039,-145.042,468
1570786680,284.634,29.2447,-13.2829,178.857,2.90039,-145.042,468
1570786680,284.634,29.2447,-13.2829,178.857,2.90039,-145.042,468
1570786680,284.634,29.2447,-13.2829,178.857,2.90039,-145.042,468
1570786680,284.634,29.2447,-13.2829,178.857,2.90039,-145.042,468
1570786680,284.634,29.2447,-13.2829,178.857,2.90039,-145.042,468
1570786680,284.634,29.2447,-13.2829,178.857,2.90039,-145.042,468
1570786680,284.634,29.2447,-13.2829,178.857,2.90039,-145.042,468
1570786680,284.634,29.2447,-13.2829,178.857,2.90039,-145.042,472
1570786680,284.634,29.2447,-13.2829,178.857,2.90039,-145.042,472
1570786680,284.634,29.2447,-13.2829,178.857,2.90039,-145.042,472
1570786680,284.634,29.2447,-13.2829,178.857,2.90039,-145.042,472
1570786680,284.634,29.2447,-13.2829,178.857,2.90039,-145.042,472
1570786680,284.634,29.2447,-13.2829,178.857,2.90039,-145.042,472
1570786680,284.634,29.2447,-13.2829,178.857,2.87842,-145.042,472
1570786680,284.634,29.2447,-13.2829,178.857,2.87842,-145.042,472
1570786680,284.634,29.2447,-13.2829,178.857,2.87842,-145.042,472
1570786680,284.634,29.2447,-13.2829,178.857,2.87842,-145.042,468
1570786680,284.634,29.2447,-13.2829,178.857,2.87842,-145.042,468
1570786680,284.634,29.2447,-13.2829,178.835,2.87842,-145.042,468
1570786681,284.634,29.2447,-13.2829,178.835,2.87842,-145.042,468
1570786681,284.634,29.2447,-13.2829,178.835,2.87842,-145.042,468
1570786681,284.634,29.2447,-13.2829,178.857,2.87842,-145.042,468
1570786681,284.634,29.2447,-13.2829,178.857,2.87842,-145.042,468
1570786681,284.634,29.2447,-13.2829,178.857,2.90039,-145.042,468
1570786681,284.634,29.2447,-13.2829,178.857,2.90039,-145.042,468
1570786681,284.634,29.2447,-13.2829,178.857,2.90039,-145.042,468
1570786681,284.522,29.2447,-13.2829,178.857,2.90039,-145.042,468
1570786681,284.522,29.2447,-13.2829,178.857,2.90039,-145.042,472
1570786681,284.522,29.2447,-13.2829,178.857,2.90039,-145.042,472
1570786681,284.522,29.2447,-13.2829,178.857,2.90039,-145.042,472
1570786681,284.522,29.2447,-13.2829,178.857,2.90039,-145.042,472
1570786681,284.522,29.2447,-13.2829,178.857,2.90039,-145.042,472
1570786681,284.522,29.2447,-13.2829,178.857,2.90039,-145.042,472
1570786681,284.522,29.2447,-13.2829,178.857,2.90039,-145.042,472
1570786681,284.522,29.2447,-13.2829,178.857,2.90039,-145.042,472
1570786681,284.522,29.2447,-13.2829,178.857,2.90039,-145.042,472
1570786681,284.522,29.2447,-13.2829,178.857,2.90039,-145.042,472
1570786681,284.522,29.2447,-13.2829,178.857,2.90039,-145.042,472
1570786681,284.522,29.2447,-13.2829,178.857,2.90039,-145.042,476
1570786681,284.522,29.2447,-13.2829,178.857,2.90039,-145.042,476
1570786681,284.522,29.3563,-13.2829,178.857,2.90039,-145.042,476
1570786681,284.522,29.3563,-13.2829,178.857,2.90039,-145.042,476
1570786681,284.522,29.3563,-13.2829,178.857,2.90039,-145.042,476
1570786681,284.522,29.3563,-13.2829,178.857,2.90039,-145.042,476
1570786681,284.522,29.3563,-13.2829,178.857,2.90039,-145.042,476
1570786681,284.522,29.3563,-13.2829,178.857,2.90039,-145.042,476
1570786681,284.522,29.2447,-13.2829,178.857,2.90039,-145.042,476
1570786681,284.522,29.2447,-13.2829,178.857,2.90039,-145.042,476
1570786681,284.522,29.2447,-13.2829,178.857,2.90039,-145.042,476
1570786681,284.522,29.2447,-13.2829,178.857,2.90039,-145.042,476
1570786681,284.522,29.2447,-13.2829,178.857,2.90039,-145.042,476
1570786681,284.522,29.2447,-13.2829,178.857,2.90039,-145.042,476
1570786681,284.522,29.2447,-13.2829,178.857,2.90039,-145.042,476
1570786681,284.522,29.2447,-13.2829,178.857,2.90039,-145.042,472
1570786681,284.522,29.2447,-13.2829,178.857,2.90039,-145.042,472
1570786681,284.522,29.2447,-13.2829,178.857,2.90039,-145.042,472
1570786681,284.522,29.2447,-13.2829,178.857,2.90039,-145.042,472
1570786681,284.522,29.2447,-13.2829,178.857,2.90039,-145.042,472
1570786681,284.522,29.2447,-13.2829,178.857,2.90039,-145.042,472
1570786681,284.522,29.2447,-13.2829,178.857,2.90039,-145.042,472
1570786681,284.522,29.2447,-13.2829,178.857,2.90039,-145.042,472
1570786681,284.522,29.2447,-13.2829,178.857,2.90039,-145.042,472
1570786681,284.522,29.2447,-13.2829,178.857,2.90039,-145.042,468
1570786681,284.522,29.2447,-13.2829,178.857,2.90039,-145.042,468
1570786681,284.522,29.2447,-13.2829,178.857,2.90039,-145.042,468
1570786681,284.522,29.2447,-13.2829,178.857,2.90039,-145.042,468
1570786681,284.522,29.2447,-13.2829,178.857,2.90039,-145.042,468
1570786681,284.522,29.2447,-13.2829,178.857,2.90039,-145.042,468
1570786681,284.634,29.2447,-13.2829,178.857,2.90039,-145.042,468
1570786681,284.634,29.2447,-13.2829,178.857,2.90039,-145.042,468
1570786681,284.634,29.2447,-13.2829,178.857,2.90039,-145.042,468
1570786681,284.634,29.2447,-13.2829,178.857,2.90039,-145.042,468
1570786681,284.634,29.2447,-13.2829,178.857,2.90039,-145.042,468
1570786681,284.522,29.2447,-13.2829,178.835,2.90039,-145.042,468
1570786681,284.522,29.2447,-13.2829,178.835,2.90039,-145.042,468
1570786681,284.522,29.2447,-13.2829,178.835,2.90039,-145.042,468
1570786681,284.522,29.2447,-13.2829,178.835,2.90039,-145.042,468
1570786685,299.926,13.0597,-12.5016,178.989,2.96631,-144.69,444
1570786685,299.926,13.0597,-12.5016,178.989,2.96631,-144.69,444
1570786685,299.926,13.0597,-12.5016,178.989,2.96631,-144.69,444
1570786685,299.926,13.0597,-12.5016,178.989,2.96631,-144.69,444
1570786685,299.926,13.0597,-12.5016,178.989,2.96631,-144.69,444
1570786685,299.926,13.0597,-12.5016,178.989,2.96631,-144.69,444
1570786685,299.926,13.0597,-12.5016,178.989,2.96631,-144.69,444
1570786685,299.926,13.0597,-12.5016,178.989,2.96631,-144.69,444
1570786685,299.926,13.0597,-12.5016,178.989,2.96631,-144.69,444
1570786685,299.926,13.0597,-12.5016,178.989,2.96631,-144.69,444
1570786685,299.926,13.0597,-12.5016,178.989,2.96631,-144.69,444
1570786685,299.814,13.0597,-12.5016,178.989,2.96631,-144.69,444
1570786685,299.814,13.0597,-12.5016,178.989,2.96631,-144.69,444
1570786685,299.814,13.0597,-12.5016,178.989,2.96631,-144.69,444
1570786685,299.814,13.0597,-12.5016,178.989,2.96631,-144.69,444
1570786685,299.814,13.0597,-12.5016,178.989,2.96631,-144.69,444
1570786685,299.814,13.0597,-12.5016,178.989,2.96631,-144.69,444
1570786685,299.814,13.0597,-12.5016,178.989,2.96631,-144.69,444
1570786685,299.814,13.0597,-12.5016,178.989,2.96631,-144.69,444
1570786685,299.814,13.0597,-12.5016,178.989,2.96631,-144.69,444
1570786685,299.814,13.0597,-12.5016,178.967,2.96631,-144.69,444
1570786685,299.814,13.0597,-12.5016,178.967,2.96631,-144.69,444
1570786685,299.814,13.0597,-12.5016,178.967,2.96631,-144.69,444
1570786685,299.814,13.0597,-12.5016,178.967,2.96631,-144.69,444
1570786685,299.814,13.0597,-12.5016,178.967,2.96631,-144.69,444
1570786685,299.814,13.0597,-12.5016,178.967,2.96631,-144.69,444
1570786685,299.814,13.0597,-12.5016,178.967,2.96631,-144.69,444
1570786685,299.814,13.0597,-12.5016,178.967,2.96631,-144.69,444
1570786685,299.814,13.0597,-12.5016,178.967,2.96631,-144.69,444
1570786685,299.814,13.0597,-12.5016,178.967,2.98828,-144.69,448
1570786685,299.814,13.0597,-12.5016,178.967,2.98828,-144.69,448
1570786685,299.814,13.0597,-12.5016,178.989,2.98828,-144.69,448
1570786685,299.814,13.0597,-12.5016,178.989,2.98828,-144.69,448
1570786685,299.814,13.0597,-12.5016,178.989,2.98828,-144.69,448
1570786685,299.814,13.0597,-12.5016,178.989,2.98828,-144.69,448
1570786685,299.814,13.0597,-12.5016,178.989,2.98828,-144.69,448
1570786685,299.814,13.0597,-12.5016,178.989,2.98828,-144.69,448
1570786685,299.814,13.0597,-12.5016,178.989,2.98828,-144.69,448
1570786685,299.814,13.0597,-12.5016,178.989,2.98828,-144.69,448
1570786685,299.814,13.0597,-12.5016,178.989,2.98828,-144.69,448
1570786685,299.926,13.0597,-12.5016,178.989,2.98828,-144.69,448
1570786685,299.926,13.0597,-12.5016,178.989,2.96631,-144.69,448
1570786685,299.926,13.0597,-12.5016,178.989,2.96631,-144.69,448
1570786685,299.814,13.0597,-12.5016,178.989,2.96631,-144.69,448
1570786685,299.814,13.0597,-12.5016,178.989,2.96631,-144.69,448
1570786685,299.814,13.0597,-12.5016,178.989,2.96631,-144.69,448
1570786685,299.814,13.0597,-12.5016,178.989,2.96631,-144.69,448
1570786685,299.814,13.0597,-12.5016,178.989,2.96631,-144.69,448
1570786685,299.814,13.0597,-12.5016,178.989,2.96631,-144.69,448
1570786685,299.814,13.0597,-12.5016,178.989,2.96631,-144.69,448
1570786685,299.814,13.0597,-12.5016,178.989,2.96631,-144.69,448
1570786685,299.814,13.0597,-12.5016,178.989,2.96631,-144.69,448
1570786685,299.814,13.0597,-12.5016,178.989,2.96631,-144.69,448
1570786685,299.814,13.0597,-12.5016,178.989,2.96631,-144.69,448
1570786685,299.814,13.0597,-12.5016,178.989,2.96631,-144.69,448
1570786685,299.814,13.0597,-12.5016,178.989,2.96631,-144.712,448
1570786685,299.814,13.0597,-12.6132,178.989,2.96631,-144.712,448
1570786685,299.814,13.0597,-12.6132,178.989,2.96631,-144.712,448
1570786685,299.814,13.0597,-12.6132,178.989,2.96631,-144.69,448
1570786685,299.814,13.0597,-12.6132,178.989,2.96631,-144.69,448
1570786685,299.814,13.0597,-12.6132,178.967,2.96631,-144.69,448
1570786685,299.814,13.0597,-12.6132,178.967,2.96631,-144.712,448
1570786685,299.814,13.0597,-12.6132,178.967,2.96631,-144.712,448
1570786685,299.814,13.0597,-12.6132,178.967,2.96631,-144.712,448
1570786685,299.814,13.0597,-12.6132,178.967,2.96631,-144.712,448
1570786686,299.814,13.0597,-12.6132,178.967,2.96631,-144.712,448
1570786686,299.814,13.0597,-12.6132,178.967,2.96631,-144.712,448
1570786686,299.814,13.0597,-12.5016,178.967,2.96631,-144.712,448
1570786686,299.814,13.0597,-12.5016,178.967,2.96631,-144.712,448
1570786686,299.814,13.0597,-12.5016,178.967,2.96631,-144.712,452
1570786686,299.814,13.0597,-12.5016,178.967,2.96631,-144.712,452
1570786686,299.814,13.0597,-12.5016,178.967,2.96631,-144.712,452
1570786686,299.926,13.0597,-12.5016,178.967,2.96631,-144.712,452
1570786686,299.926,13.0597,-12.5016,178.967,2.96631,-144.712,452
1570786686,299.926,13.0597,-12.5016,178.967,2.96631,-144.712,452
1570786686,299.926,13.0597,-12.5016,178.967,2.96631,-144.712,452
1570786686,299.926,13.0597,-12.5016,178.967,2.96631,-144.712,452
1570786686,299.926,13.0597,-12.5016,178.967,2.96631,-144.712,452
1570786686,299.926,13.0597,-12.5016,178.967,2.96631,-144.712,452
1570786686,299.926,13.0597,-12.5016,178.967,2.96631,-144.712,448
1570786686,299.926,13.0597,-12.5016,178.967,2.96631,-144.712,448
1570786686,299.926,13.0597,-12.5016,178.967,2.96631,-144.712,448
1570786686,299.926,12.948,-12.5016,178.967,2.96631,-144.712,448
1570786686,299.926,12.948,-12.5016,178.967,2.96631,-144.712,448
1570786686,299.926,12.948,-12.5016,178.967,2.96631,-144.712,448
1570786686,299.814,12.948,-12.5016,178.967,2.96631,-144.712,448
1570786686,299.814,12.948,-12.5016,178.967,2.96631,-144.712,448
1570786686,299.814,12.948,-12.5016,178.967,2.96631,-144.712,448
1570786686,299.814,12.948,-12.5016,178.967,2.98828,-144.712,448
1570786686,299.814,12.948,-12.5016,178.967,2.98828,-144.712,448
1570786686,299.814,13.0597,-12.5016,178.967,2.98828,-144.69,448
1570786686,299.814,13.0597,-12.5016,178.967,2.98828,-144.69,448
1570786686,299.814,13.0597,-12.5016,178.967,2.98828,-144.69,448
1570786686,299.814,13.0597,-12.5016,178.967,2.98828,-144.712,448
1570786686,299.814,13.0597,-12.5016,178.967,2.98828,-144.712,448
1570786686,299.814,13.0597,-12.5016,178.967,2.98828,-144.712,448
1570786686,299.814,13.0597,-12.5016,178.967,2.98828,-144.712,448
1570786686,299.814,13.0597,-12.5016,178.967,2.98828,-144.712,448
1570786686,299.814,13.0597,-12.5016,178.967,2.98828,-144.69,448
1570786686,299.814,13.0597,-12.5016,178.967,2.98828,-144.69,448
1570786686,299.814,13.0597,-12.5016,178.967,2.96631,-144.69,448
1570786686,299.814,13.0597,-12.5016,178.967,2.96631,-144.69,448
1570786686,299.814,13.0597,-12.5016,178.967,2.96631,-144.69,444
1570786686,299.926,13.0597,-12.5016,178.967,2.96631,-144.69,444
1570786686,299.926,13.0597,-12.5016,178.967,2.96631,-144.69,444
1570786686,299.926,13.0597,-12.5016,178.967,2.96631,-144.69,444
1570786686,299.926,13.0597,-12.5016,178.967,2.96631,-144.69,444
1570786686,299.926,13.0597,-12.5016,178.967,2.96631,-144.69,444
1570786686,299.926,13.0597,-12.5016,178.967,2.96631,-144.69,444
1570786686,299.926,13.0597,-12.5016,178.989,2.96631,-144.69,444
1570786686,299.926,13.0597,-12.5016,178.989,2.96631,-144.69,444
1570786686,299.926,13.0597,-12.5016,178.989,2.96631,-144.69,444
1570786686,299.926,13.0597,-12.5016,178.989,2.96631,-144.69,444
1570786686,299.926,13.0597,-12.5016,178.989,2.96631,-144.69,440
1570786686,299.926,13.0597,-12.5016,178.989,2.96631,-144.69,440
1570786686,299.926,13.0597,-12.5016,178.989,2.96631,-144.69,444
1570786686,299.926,13.0597,-12.5016,178.989,2.96631,-144.69,444
1570786686,299.926,13.0597,-12.5016,178.989,2.96631,-144.69,444
1570786686,299.926,13.0597,-12.5016,178.967,2.96631,-144.69,444
1570786686,299.926,13.0597,-12.5016,178.967,2.96631,-144.69,444
1570786686,299.926,13.0597,-12.5016,178.967,2.96631,-144.69,444
1570786686,299.926,13.0597,-12.5016,178.967,2.96631,-144.69,444
1570786686,299.926,13.0597,-12.5016,178.967,2.96631,-144.69,444
1570786686,299.926,13.0597,-12.5016,178.967,2.96631,-144.69,448
1570786686,299.926,13.0597,-12.5016,178.967,2.96631,-144.69,448
1570786686,299.926,13.0597,-12.5016,178.967,2.96631,-144.69,448
1570786686,299.814,13.0597,-12.5016,178.967,2.96631,-144.69,448
1570786686,299.814,13.0597,-12.5016,178.967,2.96631,-144.69,448
1570786686,299.814,13.0597,-12.5016,178.967,2.96631,-144.69,448
1570786686,299.814,13.0597,-12.5016,178.967,2.96631,-144.69,452
1570786686,299.926,13.0597,-12.5016,178.967,2.96631,-144.69,452
1570786686,299.926,13.0597,-12.5016,178.967,2.96631,-144.69,452
1570786686,299.926,13.0597,-12.5016,178.967,2.96631,-144.69,452
1570786686,299.926,13.0597,-12.5016,178.967,2.96631,-144.69,452
1570786686,299.926,13.0597,-12.5016,178.989,2.96631,-144.69,452
1570786686,299.926,13.0597,-12.5016,178.989,2.96631,-144.69,452
1570786686,299.926,13.0597,-12.5016,178.989,2.98828,-144.69,452
1570786686,299.926,13.0597,-12.5016,178.989,2.98828,-144.69,452
1570786686,299.926,13.0597,-12.5016,178.989,2.98828,-144.69,452
1570786686,299.926,13.0597,-12.5016,178.989,2.98828,-144.69,452
1570786686,299.926,13.0597,-12.5016,178.989,2.98828,-144.69,452
1570786686,299.926,13.0597,-12.5016,178.989,2.98828,-144.69,452
1570786686,299.926,13.0597,-12.5016,178.989,2.96631,-144.69,452
1570786686,299.926,13.0597,-12.5016,178.989,2.96631,-144.69,452
1570786686,299.926,13.0597,-12.5016,178.989,2.96631,-144.69,448
1570786686,299.926,13.0597,-12.5016,178.967,2.96631,-144.69,448
1570786686,299.926,13.0597,-12.5016,178.967,2.96631,-144.69,448
1570786686,299.926,13.0597,-12.5016,178.967,2.96631,-144.69,448
1570786686,299.926,13.0597,-12.5016,178.967,2.96631,-144.69,448
1570786686,299.926,13.0597,-12.5016,178.967,2.96631,-144.69,448
1570786686,299.926,13.0597,-12.5016,178.967,2.96631,-144.69,448
1570786686,299.926,13.0597,-12.5016,178.967,2.96631,-144.69,448
1570786686,299.926,13.0597,-12.5016,178.967,2.96631,-144.69,448
1570786686,299.926,13.0597,-12.5016,178.967,2.96631,-144.69,444
1570786686,299.926,13.0597,-12.5016,178.967,2.96631,-144.69,444
1570786686,299.926,13.0597,-12.5016,178.967,2.96631,-144.69,444
1570786686,299.926,13.0597,-12.5016,178.967,2.96631,-144.69,444
1570786686,299.926,13.0597,-12.5016,178.967,2.96631,-144.69,444
1570786686,299.926,13.0597,-12.5016,178.989,2.96631,-144.69,444
1570786686,299.926,13.0597,-12.5016,178.989,2.96631,-144.69,444
1570786686,299.926,13.0597,-12.5016,178.989,2.96631,-144.69,440
1570786686,299.926,13.0597,-12.6132,178.989,2.96631,-144.69,440
1570786686,299.926,13.0597,-12.6132,178.989,2.96631,-144.69,440
1570786686,299.926,13.0597,-12.6132,178.989,2.96631,-144.69,440
1570786686,299.926,13.0597,-12.6132,178.989,2.96631,-144.69,440
1570786687,299.926,13.0597,-12.6132,178.989,2.96631,-144.69,440
1570786687,299.926,13.0597,-12.6132,178.989,2.96631,-144.69,440
1570786687,299.926,13.0597,-12.6132,178.989,2.96631,-144.69,440
1570786687,299.926,13.0597,-12.6132,178.989,2.96631,-144.69,440
1570786687,299.926,13.0597,-12.6132,178.989,2.96631,-144.69,440
1570786687,299.926,13.0597,-12.6132,178.989,2.96631,-144.69,440
1570786687,299.814,13.0597,-12.6132,178.989,2.96631,-144.69,440
1570786687,299.814,13.0597,-12.6132,178.967,2.96631,-144.69,440
1570786687,299.814,13.0597,-12.5016,178.967,2.96631,-144.69,440
1570786687,299.814,13.0597,-12.5016,178.967,2.96631,-144.69,440
1570786687,299.814,13.0597,-12.5016,178.967,2.96631,-144.69,440
1570786687,299.814,13.0597,-12.5016,178.967,2.96631,-144.69,444
1570786687,299.814,13.0597,-12.5016,178.989,2.98828,-144.69,444
1570786687,299.814,13.0597,-12.5016,178.989,2.98828,-144.69,444
1570786687,299.814,13.0597,-12.5016,178.989,2.98828,-144.69,444
1570786687,299.814,13.0597,-12.5016,178.989,2.98828,-144.69,444
1570786687,299.814,13.0597,-12.5016,178.989,2.98828,-144.69,444
1570786687,299.814,13.0597,-12.5016,178.989,2.98828,-144.69,444
1570786687,299.814,13.0597,-12.5016,178.989,2.98828,-144.69,448
1570786687,299.814,13.0597,-12.5016,178.989,2.98828,-144.69,448
1570786687,299.814,13.0597,-12.5016,178.989,2.98828,-144.69,448
1570786687,299.814,13.0597,-12.5016,178.967,2.98828,-144.69,448
1570786687,299.814,13.0597,-12.5016,178.967,2.98828,-144.69,448
1570786687,299.814,13.0597,-12.5016,178.967,2.98828,-144.69,448
1570786687,299.814,13.0597,-12.5016,178.967,2.98828,-144.69,448
1570786687,299.814,13.0597,-12.5016,178.967,2.98828,-144.69,448
1570786687,299.814,13.0597,-12.5016,178.967,2.98828,-144.69,452
1570786687,299.814,13.0597,-12.5016,178.967,2.98828,-144.69,452
1570786687,299.814,13.0597,-12.5016,178.967,2.98828,-144.69,452
1570786687,299.814,13.0597,-12.5016,178.967,2.98828,-144.69,452
1570786687,299.814,13.0597,-12.5016,178.967,2.98828,-144.69,452
1570786687,299.814,13.0597,-12.5016,178.967,2.98828,-144.69,452
1570786687,299.814,13.0597,-12.5016,178.967,2.98828,-144.69,452
1570786687,299.814,13.0597,-12.5016,178.967,2.98828,-144.69,452
1570786687,299.814,13.0597,-12.5016,178.967,2.98828,-144.69,452
1570786687,299.814,13.0597,-12.5016,178.967,2.98828,-144.69,452
1570786687,299.814,13.0597,-12.5016,178.967,2.98828,-144.69,452
1570786687,299.814,13.0597,-12.5016,178.967,2.98828,-144.69,452
1570786687,299.814,13.0597,-12.5016,178.967,2.98828,-144.69,452
1570786687,299.814,13.0597,-12.5016,178.967,2.98828,-144.69,452
1570786687,299.814,13.0597,-12.5016,178.967,2.98828,-144.69,452
1570786687,299.814,13.0597,-12.5016,178.967,2.98828,-144.69,452
1570786687,299.814,13.0597,-12.5016,178.967,2.98828,-144.69,452
1570786687,299.814,13.0597,-12.5016,178.989,2.98828,-144.69,452
1570786687,299.814,13.0597,-12.5016,178.989,2.98828,-144.69,452
1570786687,299.814,13.0597,-12.5016,178.989,2.98828,-144.69,452
1570786687,299.814,13.0597,-12.5016,178.989,2.98828,-144.69,452
1570786687,299.814,13.0597,-12.5016,178.989,2.98828,-144.69,452
1570786687,299.814,13.0597,-12.5016,178.989,2.98828,-144.69,452
1570786687,299.814,13.0597,-12.5016,178.989,2.98828,-144.69,452
1570786687,299.814,13.0597,-12.5016,178.989,2.98828,-144.69,452
1570786687,299.814,13.0597,-12.5016,178.967,2.98828,-144.69,452
1570786687,299.814,13.0597,-12.5016,178.967,2.98828,-144.69,452
1570786687,299.814,12.948,-12.5016,178.967,2.98828,-144.69,452
1570786687,299.814,12.948,-12.5016,178.967,2.98828,-144.69,452
1570786687,299.814,12.948,-12.5016,178.967,2.98828,-144.69,452
1570786687,299.814,12.948,-12.5016,178.967,2.98828,-144.69,452
1570786687,299.814,13.0597,-12.5016,178.967,2.98828,-144.69,452
1570786687,299.814,13.0597,-12.5016,178.967,2.98828,-144.69,452
1570786687,299.814,13.0597,-12.5016,178.967,2.98828,-144.69,452
1570786687,299.814,13.0597,-12.5016,178.967,2.98828,-144.69,452
1570786687,299.814,13.0597,-12.5016,178.967,2.98828,-144.69,452
1570786687,299.814,12.948,-12.5016,178.967,2.98828,-144.69,452
1570786687,299.814,12.948,-12.5016,178.967,2.98828,-144.69,452
1570786687,299.814,12.948,-12.5016,178.967,2.98828,-144.69,452
1570786687,299.814,12.948,-12.5016,178.967,2.98828,-144.69,452
1570786687,299.814,12.948,-12.5016,178.967,2.98828,-144.69,452
1570786687,299.814,12.948,-12.5016,178.967,2.98828,-144.69,452
1570786687,299.814,12.948,-12.5016,178.967,2.98828,-144.69,452
1570786687,299.814,12.948,-12.5016,178.967,2.98828,-144.69,452
1570786687,299.814,12.948,-12.5016,178.967,2.98828,-144.69,452
1570786687,299.814,12.948,-12.5016,178.967,2.98828,-144.69,452
1570786687,299.814,12.948,-12.5016,178.967,2.98828,-144.69,452
1570786687,299.814,12.948,-12.5016,178.967,2.98828,-144.69,452
1570786687,299.814,12.948,-12.5016,178.967,2.98828,-144.69,452
1570786687,299.814,12.948,-12.5016,178.967,2.98828,-144.69,452
1570786687,299.814,12.948,-12.5016,178.967,2.98828,-144.712,452
1570786687,299.814,12.948,-12.5016,178.967,2.98828,-144.712,452
1570786687,299.814,12.948,-12.5016,178.967,2.96631,-144.712,452
1570786687,299.814,12.948,-12.5016,178.967,2.96631,-144.712,452
1570786687,299.814,12.948,-12.5016,178.967,2.96631,-144.712,452
1570786687,299.814,12.948,-12.5016,178.967,2.96631,-144.712,452
1570786687,299.814,12.948,-12.5016,178.967,2.96631,-144.712,452
1570786687,299.814,12.948,-12.5016,178.967,2.96631,-144.712,452
1570786687,299.814,12.948,-12.5016,178.967,2.96631,-144.712,452
1570786687,299.814,12.948,-12.5016,178.967,2.96631,-144.712,452
1570786687,299.814,12.948,-12.5016,178.967,2.96631,-144.712,452
1570786687,299.814,12.948,-12.5016,178.967,2.96631,-144.712,452
1570786687,299.814,12.948,-12.5016,178.967,2.96631,-144.712,452
1570786687,299.814,13.0597,-12.5016,178.967,2.96631,-144.712,452
1570786687,299.814,13.0597,-12.5016,178.967,2.98828,-144.712,452
1570786687,299.814,13.0597,-12.5016,178.967,2.98828,-144.712,452
1570786687,299.814,13.0597,-12.5016,178.967,2.98828,-144.69,452
1570786687,299.814,13.0597,-12.5016,178.967,2.98828,-144.69,452
1570786687,299.814,13.0597,-12.5016,178.967,2.98828,-144.69,452
1570786687,299.814,13.0597,-12.5016,178.967,2.98828,-144.69,452
1570786687,299.814,13.0597,-12.5016,178.967,2.98828,-144.69,452
1570786687,299.814,13.0597,-12.5016,178.967,2.98828,-144.69,452
1570786687,299.814,13.0597,-12.5016,178.967,2.98828,-144.69,448
1570786687,299.814,13.0597,-12.5016,178.967,2.98828,-144.69,448
1570786688,299.926,13.0597,-12.5016,178.967,2.98828,-144.69,448
1570786688,299.926,13.0597,-12.5016,178.967,2.98828,-144.712,448
1570786688,299.926,13.0597,-12.5016,178.967,2.98828,-144.712,448
1570786688,299.926,13.0597,-12.5016,178.967,2.98828,-144.712,448
1570786688,299.926,13.0597,-12.5016,178.967,2.98828,-144.712,448
1570786688,299.926,13.0597,-12.5016,178.967,2.98828,-144.712,448
1570786688,299.926,13.0597,-12.5016,178.967,2.98828,-144.712,448
1570786688,299.926,13.0597,-12.5016,178.967,2.98828,-144.712,448
1570786688,299.926,13.0597,-12.5016,178.967,2.98828,-144.69,448
1570786688,299.926,13.0597,-12.5016,178.967,2.98828,-144.69,448
1570786688,299.926,13.0597,-12.5016,178.967,2.98828,-144.69,448
1570786688,299.926,13.0597,-12.5016,178.967,2.98828,-144.69,448
1570786688,299.926,13.0597,-12.5016,178.967,2.98828,-144.69,448
1570786688,299.926,13.0597,-12.5016,178.967,2.98828,-144.69,448
1570786688,299.926,13.0597,-12.5016,178.967,2.98828,-144.69,448
1570786688,299.926,13.0597,-12.5016,178.967,2.98828,-144.69,448
1570786688,299.926,13.0597,-12.5016,178.967,2.98828,-144.69,448
1570786688,299.926,13.0597,-12.5016,178.967,2.98828,-144.69,448
1570786688,299.926,13.0597,-12.5016,178.967,2.98828,-144.69,448
1570786688,299.926,13.0597,-12.5016,178.967,2.98828,-144.69,448
1570786688,299.926,13.0597,-12.5016,178.967,2.98828,-144.69,448
1570786688,299.926,13.0597,-12.5016,178.967,2.98828,-144.69,448
1570786688,299.926,13.0597,-12.5016,178.967,2.98828,-144.69,448
1570786688,299.926,13.0597,-12.5016,178.967,2.98828,-144.69,448
1570786688,299.926,13.0597,-12.5016,178.967,2.98828,-144.69,448
1570786688,299.814,13.0597,-12.5016,178.967,2.98828,-144.69,448
1570786688,299.814,13.0597,-12.5016,178.967,2.98828,-144.69,448
1570786688,299.814,13.0597,-12.5016,178.967,2.98828,-144.69,448
1570786688,299.814,13.0597,-12.5016,178.967,2.98828,-144.69,448
1570786688,299.814,13.0597,-12.5016,178.967,2.98828,-144.69,448
1570786688,299.814,13.0597,-12.5016,178.967,2.98828,-144.69,448
1570786688,299.814,13.0597,-12.5016,178.967,2.98828,-144.69,452
1570786688,299.814,13.0597,-12.5016,178.967,2.98828,-144.69,452
1570786688,299.814,13.0597,-12.5016,178.967,2.98828,-144.69,452
1570786688,299.814,13.0597,-12.5016,178.967,2.98828,-144.69,452
1570786688,299.814,13.0597,-12.5016,178.967,2.98828,-144.69,452
1570786688,299.814,13.0597,-12.5016,178.967,2.98828,-144.69,452
1570786688,299.814,13.0597,-12.5016,178.967,2.98828,-144.69,452
1570786688,299.814,13.0597,-12.5016,178.967,2.98828,-144.69,452
1570786688,299.814,13.0597,-12.5016,178.967,2.98828,-144.69,452
1570786688,299.814,13.0597,-12.5016,178.967,2.98828,-144.69,452
1570786688,299.814,13.0597,-12.5016,178.967,2.98828,-144.69,452
1570786688,299.814,13.0597,-12.5016,178.967,2.98828,-144.69,452
1570786688,299.814,13.0597,-12.5016,178.967,2.98828,-144.69,452
1570786688,299.814,13.0597,-12.5016,178.967,2.98828,-144.69,452
1570786688,299.814,13.0597,-12.5016,178.967,2.98828,-144.69,448
1570786688,299.814,13.0597,-12.5016,178.967,2.98828,-144.69,448
1570786688,299.814,13.0597,-12.5016,178.967,2.98828,-144.69,448
1570786688,299.926,13.0597,-12.5016,178.967,2.98828,-144.69,448
1570786688,299.926,13.0597,-12.5016,178.967,2.98828,-144.69,448
1570786688,299.926,12.948,-12.5016,178.967,2.98828,-144.69,448
1570786688,299.926,12.948,-12.5016,178.967,2.98828,-144.69,448
1570786688,299.926,12.948,-12.5016,178.967,2.98828,-144.69,448
1570786688,299.926,12.948,-12.5016,178.967,2.96631,-144.69,448
1570786688,299.926,12.948,-12.5016,178.967,2.96631,-144.69,448
1570786688,299.926,12.948,-12.5016,178.967,2.96631,-144.69,448
1570786688,299.926,12.948,-12.5016,178.967,2.96631,-144.69,448
1570786688,299.926,12.948,-12.5016,178.967,2.96631,-144.69,448
1570786688,299.926,12.948,-12.5016,178.967,2.96631,-144.69,448
1570786688,299.926,12.948,-12.5016,178.967,2.96631,-144.69,448
1570786688,299.926,12.948,-12.5016,178.967,2.96631,-144.69,448
1570786688,299.926,12.948,-12.5016,178.967,2.96631,-144.69,448
1570786688,299.926,12.948,-12.5016,178.967,2.96631,-144.69,448
1570786688,299.926,12.948,-12.5016,178.967,2.96631,-144.69,448
1570786688,299.926,12.948,-12.5016,178.967,2.96631,-144.69,448
1570786688,299.926,12.948,-12.5016,178.967,2.96631,-144.69,448
1570786688,299.926,12.948,-12.5016,178.967,2.96631,-144.69,448
1570786688,299.926,12.948,-12.5016,178.967,2.96631,-144.69,448
1570786688,299.926,12.948,-12.5016,178.967,2.96631,-144.69,444
1570786688,299.926,12.948,-12.5016,178.967,2.96631,-144.69,444
1570786688,299.926,12.948,-12.5016,178.967,2.96631,-144.69,444
1570786688,299.926,12.948,-12.5016,178.967,2.96631,-144.69,444
1570786688,299.926,12.948,-12.5016,178.967,2.96631,-144.69,444
1570786688,299.926,12.948,-12.5016,178.967,2.96631,-144.69,444
1570786688,299.926,12.948,-12.5016,178.967,2.96631,-144.69,444
1570786688,299.926,12.948,-12.5016,178.967,2.96631,-144.69,444
1570786688,299.926,13.0597,-12.5016,178.967,2.96631,-144.69,440
1570786688,299.926,13.0597,-12.5016,178.967,2.96631,-144.69,440
1570786688,299.926,13.0597,-12.5016,178.967,2.96631,-144.69,440
1570786688,299.926,13.0597,-12.5016,178.967,2.96631,-144.69,440
1570786688,299.926,13.0597,-12.5016,178.967,2.96631,-144.69,440
1570786688,299.926,13.0597,-12.5016,178.967,2.96631,-144.69,440
1570786688,299.926,13.0597,-12.5016,178.967,2.96631,-144.69,440
1570786688,299.926,13.0597,-12.5016,178.967,2.96631,-144.69,440
1570786688,299.926,13.0597,-12.5016,178.967,2.96631,-144.69,440
1570786688,299.926,13.0597,-12.5016,178.967,2.96631,-144.69,440
1570786688,299.926,13.0597,-12.5016,178.967,2.96631,-144.69,440
1570786688,299.926,12.948,-12.5016,178.967,2.96631,-144.69,440
1570786688,299.926,12.948,-12.6132,178.967,2.96631,-144.69,440
1570786688,299.926,12.948,-12.6132,178.967,2.96631,-144.69,440
1570786688,299.926,12.948,-12.6132,178.967,2.96631,-144.69,444
1570786688,299.926,12.948,-12.6132,178.967,2.96631,-144.69,444
1570786688,299.926,12.948,-12.6132,178.967,2.96631,-144.69,444
1570786688,299.926,12.948,-12.6132,178.967,2.96631,-144.69,444
1570786688,299.926,12.948,-12.6132,178.967,2.96631,-144.69,444
1570786688,299.926,12.948,-12.6132,178.967,2.96631,-144.69,444
1570786688,299.926,12.948,-12.6132,178.967,2.96631,-144.69,444
1570786688,299.926,12.948,-12.6132,178.967,2.96631,-144.69,444
1570786688,299.926,13.0597,-12.6132,178.967,2.96631,-144.69,444
1570786688,299.926,13.0597,-12.6132,178.967,2.96631,-144.69,444
1570786689,299.926,13.0597,-12.6132,178.967,2.94434,-144.69,444
1570786689,299.926,13.0597,-12.6132,178.967,2.94434,-144.69,444
1570786689,299.926,13.0597,-12.6132,178.989,2.94434,-144.69,444
1570786689,299.926,13.0597,-12.6132,178.989,2.94434,-144.69,444
1570786689,299.926,13.0597,-12.6132,178.989,2.94434,-144.69,444
1570786689,299.926,13.0597,-12.6132,178.989,2.96631,-144.69,444
1570786689,299.926,13.0597,-12.6132,178.989,2.96631,-144.69,444
1570786689,299.926,13.0597,-12.6132,178.989,2.96631,-144.69,444
1570786689,299.926,13.0597,-12.6132,178.989,2.96631,-144.69,444
1570786689,299.926,13.0597,-12.6132,178.989,2.96631,-144.69,440
1570786689,299.926,13.0597,-12.6132,178.989,2.96631,-144.69,440
1570786689,299.926,13.0597,-12.6132,178.967,2.96631,-144.69,440
1570786689,299.926,13.0597,-12.5016,178.967,2.96631,-144.69,440
1570786689,299.926,13.0597,-12.5016,178.967,2.96631,-144.69,440
1570786689,299.926,13.0597,-12.5016,178.967,2.96631,-144.69,440
1570786689,299.926,13.0597,-12.5016,178.967,2.96631,-144.69,440
1570786689,299.926,13.0597,-12.5016,178.967,2.96631,-144.69,440
1570786689,299.926,13.0597,-12.5016,178.967,2.96631,-144.69,440
1570786689,299.926,13.0597,-12.5016,178.967,2.96631,-144.69,440
1570786689,299.814,13.0597,-12.5016,178.967,2.96631,-144.69,440
1570786689,299.814,12.948,-12.5016,178.967,2.96631,-144.69,440
1570786689,299.814,12.948,-12.5016,178.967,2.96631,-144.69,440
1570786689,299.814,12.948,-12.5016,178.967,2.96631,-144.69,440
1570786689,299.926,12.948,-12.5016,178.967,2.96631,-144.69,440
1570786689,299.926,12.948,-12.5016,178.967,2.96631,-144.69,440
1570786689,299.926,12.948,-12.5016,178.967,2.96631,-144.69,440
1570786689,299.926,12.948,-12.5016,178.967,2.96631,-144.69,440
1570786689,299.926,12.948,-12.5016,178.967,2.96631,-144.69,440
1570786689,299.926,12.948,-12.5016,178.967,2.96631,-144.69,440
1570786689,299.926,12.948,-12.5016,178.967,2.96631,-144.69,440
1570786689,299.926,12.948,-12.5016,178.967,2.96631,-144.69,440
1570786689,299.926,12.948,-12.5016,178.967,2.96631,-144.69,440
1570786689,299.926,12.948,-12.5016,178.967,2.96631,-144.69,440
1570786689,299.926,12.948,-12.5016,178.967,2.96631,-144.69,440
1570786689,299.926,12.948,-12.5016,178.967,2.96631,-144.69,440
1570786689,299.926,12.948,-12.5016,178.967,2.96631,-144.69,440
1570786689,299.926,12.948,-12.5016,178.967,2.96631,-144.69,440
1570786689,299.926,12.948,-12.5016,178.967,2.96631,-144.69,440
1570786689,299.926,12.948,-12.5016,178.945,2.96631,-144.69,440
1570786689,299.926,12.948,-12.5016,178.945,2.96631,-144.69,440
1570786689,299.926,12.948,-12.5016,178.945,2.96631,-144.69,440
1570786689,299.926,12.948,-12.5016,178.945,2.96631,-144.69,440
1570786689,299.926,12.948,-12.5016,178.945,2.96631,-144.69,440
1570786689,299.926,12.948,-12.5016,178.945,2.96631,-144.69,440
1570786689,299.926,12.948,-12.5016,178.945,2.98828,-144.69,440
1570786689,299.926,12.948,-12.5016,178.945,2.98828,-144.69,440
1570786689,299.926,12.948,-12.5016,178.945,2.98828,-144.69,440
1570786689,299.926,12.948,-12.5016,178.967,2.98828,-144.69,440
1570786689,299.926,12.948,-12.5016,178.967,2.98828,-144.69,440
1570786689,299.926,12.948,-12.5016,178.967,2.98828,-144.69,440
1570786689,299.926,12.948,-12.5016,178.967,2.98828,-144.69,440
1570786689,299.926,12.948,-12.5016,178.967,2.98828,-144.69,440
1570786689,299.926,12.948,-12.5016,178.967,2.98828,-144.69,444
1570786689,299.926,12.948,-12.5016,178.967,2.98828,-144.69,444
1570786689,299.926,12.948,-12.5016,178.967,2.98828,-144.69,444
1570786689,299.926,12.948,-12.5016,178.967,2.98828,-144.69,444
1570786689,299.926,12.948,-12.5016,178.967,2.98828,-144.69,444
1570786689,299.926,12.948,-12.5016,178.967,2.98828,-144.69,444
1570786689,299.814,12.948,-12.5016,178.967,2.98828,-144.69,444
1570786689,299.814,12.948,-12.5016,178.967,2.98828,-144.69,444
1570786689,299.814,12.948,-12.5016,178.967,2.98828,-144.69,444
1570786689,299.814,12.948,-12.5016,178.967,2.98828,-144.69,444
1570786689,299.814,12.948,-12.5016,178.967,2.98828,-144.69,444
1570786689,299.814,12.948,-12.5016,178.967,2.98828,-144.69,448
1570786689,299.814,12.948,-12.5016,178.967,2.98828,-144.69,448
1570786689,299.814,13.0597,-12.5016,178.967,2.98828,-144.69,448
1570786689,299.814,13.0597,-12.5016,178.967,2.98828,-144.69,448
1570786689,299.814,13.0597,-12.5016,178.967,2.98828,-144.69,448
1570786689,299.814,13.0597,-12.5016,178.967,2.98828,-144.69,448
1570786689,299.814,13.0597,-12.5016,178.967,2.98828,-144.69,448
1570786689,299.814,13.0597,-12.5016,178.967,2.98828,-144.69,448
1570786689,299.814,13.0597,-12.5016,178.967,2.98828,-144.69,448
1570786689,299.814,13.0597,-12.5016,178.967,2.98828,-144.69,448
1570786689,299.814,13.0597,-12.5016,178.967,2.98828,-144.69,448
1570786689,299.814,12.948,-12.5016,178.967,2.98828,-144.69,444
1570786689,299.814,12.948,-12.5016,178.967,2.98828,-144.69,444
1570786689,299.814,12.948,-12.5016,178.967,2.98828,-144.69,444
1570786689,299.814,12.948,-12.5016,178.967,2.98828,-144.69,444
1570786689,299.814,12.948,-12.5016,178.967,2.98828,-144.69,444
1570786689,299.814,12.948,-12.5016,178.967,2.98828,-144.69,444
1570786689,299.814,12.948,-12.5016,178.967,2.96631,-144.69,444
1570786689,299.814,12.948,-12.5016,178.967,2.96631,-144.69,444
1570786689,299.814,12.948,-12.5016,178.967,2.96631,-144.69,444
1570786689,299.814,12.948,-12.5016,178.967,2.96631,-144.69,444
1570786689,299.814,12.948,-12.5016,178.967,2.96631,-144.69,444
1570786689,299.814,12.948,-12.5016,178.967,2.96631,-144.69,444
1570786689,299.814,12.948,-12.5016,178.967,2.96631,-144.69,444
1570786689,299.814,12.948,-12.5016,178.967,2.96631,-144.69,444
1570786689,299.814,12.948,-12.5016,178.967,2.96631,-144.69,448
1570786689,299.814,12.948,-12.5016,178.967,2.96631,-144.69,448
1570786689,299.814,12.948,-12.5016,178.967,2.96631,-144.69,448
1570786689,299.814,12.948,-12.5016,178.967,2.96631,-144.69,448
1570786689,299.814,12.948,-12.5016,178.967,2.96631,-144.69,448
1570786689,299.814,12.948,-12.5016,178.967,2.96631,-144.69,448
1570786689,299.814,12.948,-12.5016,178.967,2.96631,-144.69,448
1570786689,299.814,12.948,-12.5016,178.967,2.96631,-144.69,448
1570786689,299.814,13.0597,-12.5016,178.967,2.96631,-144.69,448
1570786689,299.814,13.0597,-12.5016,178.967,2.96631,-144.69,448
1570786689,299.814,13.0597,-12.5016,178.967,2.96631,-144.69,448
1570786689,299.814,13.0597,-12.5016,178.967,2.96631,-144.69,448
1570786690,299.814,13.0597,-12.5016,178.967,2.96631,-144.69,448
1570786690,299.814,13.0597,-12.6132,178.967,2.96631,-144.69,448
1570786690,299.814,13.0597,-12.6132,178.967,2.96631,-144.69,448
1570786690,299.814,13.0597,-12.6132,178.967,2.96631,-144.69,448
1570786690,299.814,13.0597,-12.6132,178.967,2.96631,-144.69,448
1570786690,299.814,12.948,-12.6132,178.967,2.96631,-144.69,448
1570786690,299.814,12.948,-12.6132,178.967,2.96631,-144.69,448
1570786690,299.814,12.948,-12.6132,178.967,2.96631,-144.69,448
1570786690,299.814,12.948,-12.6132,178.967,2.96631,-144.69,448
1570786690,299.814,12.948,-12.6132,178.967,2.96631,-144.69,448
1570786690,299.814,12.948,-12.6132,178.967,2.96631,-144.69,448
1570786690,299.814,12.948,-12.6132,178.967,2.94434,-144.69,448
1570786690,299.814,12.948,-12.6132,178.967,2.94434,-144.69,448
1570786690,299.814,12.948,-12.6132,178.967,2.94434,-144.69,448
1570786690,299.814,12.948,-12.6132,178.967,2.94434,-144.69,448
1570786690,299.814,12.948,-12.6132,178.967,2.94434,-144.69,448
1570786690,299.814,12.948,-12.6132,178.967,2.94434,-144.69,448
1570786690,299.814,12.948,-12.6132,178.967,2.94434,-144.69,448
1570786690,299.926,12.948,-12.6132,178.967,2.96631,-144.69,448
1570786690,299.926,12.948,-12.6132,178.967,2.96631,-144.69,448
1570786690,299.926,12.948,-12.6132,178.967,2.96631,-144.69,448
1570786690,299.926,12.948,-12.6132,178.967,2.96631,-144.69,448
1570786690,299.926,12.948,-12.6132,178.967,2.96631,-144.69,448
1570786690,299.926,12.948,-12.6132,178.967,2.96631,-144.69,448
1570786690,299.926,12.948,-12.6132,178.967,2.96631,-144.69,448
1570786690,299.926,12.948,-12.6132,178.967,2.96631,-144.69,448
1570786690,299.926,12.948,-12.5016,178.967,2.96631,-144.69,448
1570786690,299.926,12.948,-12.5016,178.967,2.96631,-144.69,448
1570786690,299.926,12.948,-12.5016,178.967,2.96631,-144.69,448
1570786690,299.926,12.948,-12.5016,178.967,2.96631,-144.69,448
1570786690,299.926,12.948,-12.5016,178.967,2.96631,-144.69,448
1570786690,299.926,12.948,-12.6132,178.967,2.96631,-144.69,452
1570786690,299.926,12.948,-12.6132,178.967,2.96631,-144.69,452
1570786690,299.926,12.948,-12.6132,178.967,2.96631,-144.69,452
1570786690,299.926,12.948,-12.6132,178.967,2.96631,-144.69,452
1570786694,323.031,-11.0505,-10.9389,179.121,3.58154,-144.844,392
1570786694,323.031,-11.0505,-10.9389,179.121,3.58154,-144.844,392
1570786694,323.031,-11.0505,-10.9389,179.121,3.58154,-144.844,392
1570786694,323.031,-10.9389,-10.9389,179.121,3.58154,-144.844,392
1570786694,323.031,-10.9389,-10.9389,179.121,3.58154,-144.844,392
1570786694,323.031,-10.9389,-10.9389,179.121,3.58154,-144.844,392
1570786694,323.031,-10.9389,-10.9389,179.121,3.58154,-144.844,392
1570786694,323.031,-10.9389,-10.9389,179.121,3.58154,-144.844,392
1570786694,323.031,-10.9389,-10.9389,179.121,3.58154,-144.844,392
1570786694,323.031,-10.9389,-10.9389,179.121,3.58154,-144.844,392
1570786694,323.031,-10.9389,-10.9389,179.121,3.58154,-144.844,392
1570786694,323.031,-10.9389,-10.9389,179.121,3.58154,-144.844,392
1570786694,323.031,-10.9389,-10.9389,179.121,3.58154,-144.822,392
1570786694,323.031,-10.9389,-10.9389,179.121,3.58154,-144.822,392
1570786694,323.031,-11.0505,-10.9389,179.121,3.58154,-144.822,392
1570786694,323.031,-11.0505,-10.9389,179.121,3.58154,-144.822,392
1570786694,323.031,-11.0505,-10.9389,179.121,3.58154,-144.822,392
1570786694,323.143,-11.0505,-10.9389,179.121,3.58154,-144.822,392
1570786694,323.143,-11.0505,-10.9389,179.121,3.58154,-144.822,392
1570786694,323.143,-11.0505,-10.9389,179.121,3.58154,-144.822,392
1570786694,323.143,-11.0505,-10.9389,179.121,3.58154,-144.822,392
1570786694,323.143,-11.0505,-10.9389,179.121,3.58154,-144.822,392
1570786694,323.143,-11.0505,-10.9389,179.121,3.58154,-144.822,388
1570786694,323.143,-11.0505,-10.9389,179.121,3.58154,-144.822,388
1570786694,323.143,-11.0505,-10.9389,179.121,3.58154,-144.822,388
1570786694,323.143,-11.0505,-10.9389,179.121,3.58154,-144.822,388
1570786694,323.143,-11.0505,-10.9389,179.121,3.58154,-144.822,388
1570786694,323.143,-11.0505,-10.9389,179.121,3.58154,-144.822,388
1570786694,323.143,-11.0505,-10.9389,179.121,3.58154,-144.822,388
1570786694,323.143,-11.0505,-10.9389,179.121,3.58154,-144.822,388
1570786694,323.143,-11.0505,-10.9389,179.121,3.58154,-144.822,388
1570786694,323.143,-11.0505,-10.9389,179.121,3.58154,-144.822,388
1570786694,323.143,-11.0505,-10.9389,179.121,3.58154,-144.822,384
1570786694,323.143,-11.0505,-10.9389,179.121,3.58154,-144.822,384
1570786694,323.143,-11.0505,-10.9389,179.121,3.58154,-144.822,384
1570786694,323.143,-11.0505,-10.9389,179.121,3.58154,-144.822,384
1570786694,323.143,-11.0505,-10.9389,179.121,3.55957,-144.822,384
1570786694,323.143,-11.0505,-10.9389,179.121,3.55957,-144.8,384
1570786694,323.143,-11.0505,-10.9389,179.121,3.55957,-144.8,384
1570786694,323.143,-11.0505,-10.9389,179.121,3.55957,-144.8,384
1570786694,323.143,-11.0505,-10.9389,179.121,3.55957,-144.8,380
1570786694,323.143,-11.0505,-10.9389,179.121,3.55957,-144.8,380
1570786694,323.143,-11.0505,-10.9389,179.121,3.55957,-144.8,380
1570786694,323.143,-11.0505,-11.0505,179.121,3.55957,-144.8,380
1570786694,323.143,-11.0505,-11.0505,179.121,3.55957,-144.8,380
1570786694,323.143,-11.0505,-11.0505,179.121,3.55957,-144.822,380
1570786694,323.143,-11.0505,-10.9389,179.121,3.55957,-144.822,380
1570786694,323.143,-11.0505,-10.9389,179.121,3.55957,-144.822,380
1570786694,323.143,-11.0505,-10.9389,179.121,3.55957,-144.822,380
1570786694,323.143,-11.0505,-10.9389,179.121,3.55957,-144.822,380
1570786694,323.143,-11.0505,-10.9389,179.121,3.55957,-144.822,380
1570786694,323.143,-11.0505,-10.9389,179.121,3.55957,-144.822,380
1570786694,323.143,-11.0505,-10.9389,179.121,3.58154,-144.822,380
1570786694,323.143,-11.0505,-10.9389,179.121,3.58154,-144.822,380
1570786694,323.143,-11.0505,-10.9389,179.121,3.58154,-144.822,380
1570786694,323.143,-11.0505,-10.9389,179.121,3.58154,-144.822,380
1570786694,323.143,-11.0505,-10.9389,179.121,3.58154,-144.822,380
1570786694,323.143,-11.0505,-10.9389,179.121,3.58154,-144.822,380
1570786694,323.143,-11.0505,-10.9389,179.121,3.58154,-144.822,380
1570786694,323.143,-11.0505,-10.9389,179.121,3.58154,-144.822,380
1570786694,323.143,-11.0505,-10.9389,179.121,3.58154,-144.822,380
1570786694,323.143,-11.0505,-10.9389,179.121,3.58154,-144.822,380
1570786694,323.143,-11.0505,-10.9389,179.121,3.58154,-144.822,380
1570786694,323.143,-11.0505,-10.9389,179.121,3.58154,-144.822,380
1570786694,323.143,-11.0505,-10.9389,179.121,3.58154,-144.822,380
1570786694,323.143,-11.0505,-10.9389,179.121,3.58154,-144.822,380
1570786694,323.143,-11.0505,-10.9389,179.121,3.58154,-144.822,380
1570786694,323.143,-11.0505,-10.9389,179.121,3.58154,-144.822,380
1570786694,323.143,-11.0505,-10.9389,179.121,3.58154,-144.822,380
1570786694,323.143,-11.0505,-10.9389,179.121,3.58154,-144.822,380
1570786694,323.143,-11.0505,-10.9389,179.121,3.58154,-144.822,380
1570786694,323.143,-11.0505,-10.9389,179.121,3.58154,-144.822,380
1570786694,323.143,-11.0505,-10.9389,179.121,3.58154,-144.822,380
1570786694,323.143,-11.0505,-10.9389,179.121,3.58154,-144.822,380
1570786694,323.143,-11.0505,-10.9389,179.121,3.58154,-144.822,380
1570786694,323.143,-11.0505,-10.9389,179.121,3.58154,-144.822,380
1570786695,323.143,-11.0505,-10.9389,179.121,3.58154,-144.822,384
1570786695,323.143,-11.0505,-10.9389,179.121,3.58154,-144.822,384
1570786695,323.143,-11.0505,-10.9389,179.121,3.58154,-144.822,384
1570786695,323.143,-11.0505,-10.9389,179.121,3.58154,-144.822,384
1570786695,323.143,-11.0505,-10.9389,179.121,3.58154,-144.822,384
1570786695,323.143,-11.0505,-10.9389,179.121,3.58154,-144.822,384
1570786695,323.143,-11.0505,-10.9389,179.121,3.58154,-144.822,384
1570786695,323.143,-11.0505,-10.9389,179.121,3.58154,-144.822,384
1570786695,323.143,-11.0505,-10.9389,179.121,3.58154,-144.822,388
1570786695,323.143,-11.0505,-10.9389,179.121,3.58154,-144.822,388
1570786695,323.143,-11.0505,-10.9389,179.121,3.58154,-144.822,388
1570786695,323.143,-11.0505,-10.9389,179.121,3.58154,-144.822,388
1570786695,323.143,-11.0505,-10.9389,179.121,3.58154,-144.822,388
1570786695,323.143,-11.0505,-10.9389,179.121,3.58154,-144.822,388
1570786695,323.143,-11.0505,-10.9389,179.121,3.58154,-144.822,388
1570786695,323.143,-11.0505,-10.9389,179.121,3.58154,-144.822,388
1570786695,323.143,-11.0505,-10.9389,179.121,3.58154,-144.822,388
1570786695,323.143,-11.0505,-10.9389,179.121,3.60352,-144.822,388
1570786695,323.031,-11.0505,-10.9389,179.121,3.60352,-144.822,388
1570786695,323.031,-11.0505,-10.9389,179.121,3.60352,-144.822,388
1570786695,323.031,-11.0505,-10.9389,179.121,3.60352,-144.822,388
1570786695,323.031,-11.0505,-10.9389,179.121,3.60352,-144.822,388
1570786695,323.143,-11.0505,-10.9389,179.121,3.60352,-144.822,388
1570786695,323.143,-11.0505,-10.9389,179.121,3.60352,-144.822,388
1570786695,323.143,-10.9389,-10.9389,179.121,3.60352,-144.822,388
1570786695,323.143,-10.9389,-10.9389,179.121,3.60352,-144.822,388
1570786695,323.143,-10.9389,-10.9389,179.121,3.60352,-144.822,388
1570786695,323.143,-10.9389,-10.9389,179.121,3.60352,-144.822,388
1570786695,323.143,-10.9389,-10.9389,179.121,3.60352,-144.822,388
1570786695,323.143,-10.9389,-10.9389,179.121,3.60352,-144.822,384
1570786695,323.143,-10.9389,-10.9389,179.121,3.60352,-144.822,384
1570786695,323.143,-10.9389,-10.9389,179.121,3.60352,-144.822,384
1570786695,323.143,-10.9389,-10.9389,179.121,3.60352,-144.822,384
1570786695,323.143,-10.9389,-10.9389,179.121,3.60352,-144.822,384
1570786695,323.143,-11.0505,-10.8272,179.121,3.60352,-144.822,384
1570786695,323.143,-11.0505,-10.8272,179.121,3.60352,-144.822,384
1570786695,323.143,-11.0505,-10.8272,179.121,3.60352,-144.822,384
1570786695,323.143,-11.0505,-10.8272,179.121,3.60352,-144.822,384
1570786695,323.143,-11.0505,-10.8272,179.121,3.60352,-144.822,384
1570786695,323.143,-11.0505,-10.8272,179.121,3.60352,-144.822,384
1570786695,323.143,-11.0505,-10.8272,179.121,3.60352,-144.822,384
1570786695,323.031,-11.0505,-10.8272,179.121,3.60352,-144.822,384
1570786695,323.031,-11.0505,-10.9389,179.121,3.60352,-144.822,384
1570786695,323.031,-11.0505,-10.9389,179.121,3.60352,-144.822,388
1570786695,323.031,-11.0505,-10.9389,179.121,3.58154,-144.822,388
1570786695,323.031,-11.0505,-10.9389,179.121,3.58154,-144.822,388
1570786695,323.031,-11.0505,-10.9389,179.121,3.58154,-144.822,388
1570786695,323.031,-10.9389,-10.9389,179.121,3.58154,-144.822,388
1570786695,323.031,-10.9389,-10.9389,179.121,3.58154,-144.822,388
1570786695,323.031,-10.9389,-10.9389,179.121,3.58154,-144.822,388
1570786695,323.031,-10.9389,-10.9389,179.143,3.58154,-144.822,392
1570786695,323.031,-10.9389,-10.9389,179.143,3.58154,-144.822,392
1570786695,323.031,-10.9389,-10.9389,179.143,3.58154,-144.822,392
1570786695,323.031,-10.9389,-10.9389,179.143,3.58154,-144.822,392
1570786695,323.031,-10.9389,-10.9389,179.143,3.58154,-144.822,392
1570786695,323.031,-10.9389,-10.9389,179.143,3.58154,-144.822,392
1570786695,323.031,-10.9389,-10.9389,179.143,3.58154,-144.822,388
1570786695,323.031,-10.9389,-10.9389,179.143,3.58154,-144.822,388
1570786695,323.031,-10.9389,-10.9389,179.143,3.58154,-144.822,388
1570786695,323.031,-10.9389,-10.9389,179.121,3.58154,-144.822,388
1570786695,323.031,-10.9389,-10.9389,179.121,3.58154,-144.822,388
1570786695,323.143,-10.9389,-10.9389,179.121,3.58154,-144.822,388
1570786695,323.143,-10.9389,-10.9389,179.121,3.58154,-144.822,388
1570786695,323.143,-10.9389,-10.9389,179.121,3.58154,-144.822,388
1570786695,323.143,-10.9389,-10.9389,179.121,3.58154,-144.822,388
1570786695,323.143,-11.0505,-10.9389,179.121,3.58154,-144.822,388
1570786695,323.031,-11.0505,-10.9389,179.121,3.58154,-144.822,388
1570786695,323.031,-11.0505,-10.9389,179.121,3.58154,-144.822,388
1570786695,323.031,-11.0505,-10.9389,179.121,3.58154,-144.822,388
1570786695,323.031,-11.0505,-10.9389,179.121,3.58154,-144.822,388
1570786695,323.031,-11.0505,-10.9389,179.121,3.58154,-144.822,388
1570786695,323.031,-11.0505,-10.9389,179.121,3.58154,-144.822,388
1570786695,323.031,-11.0505,-10.9389,179.099,3.58154,-144.822,388
1570786695,323.143,-11.0505,-10.9389,179.099,3.58154,-144.822,388
1570786695,323.143,-11.0505,-10.9389,179.099,3.58154,-144.822,388
1570786695,323.143,-11.0505,-10.9389,179.099,3.58154,-144.822,388
1570786695,323.143,-11.0505,-10.9389,179.099,3.58154,-144.822,388
1570786695,323.143,-11.0505,-10.9389,179.099,3.58154,-144.822,388
1570786695,323.143,-11.0505,-10.9389,179.099,3.58154,-144.822,388
1570786695,323.143,-11.0505,-10.9389,179.099,3.58154,-144.822,388
1570786695,323.143,-11.0505,-10.9389,179.099,3.60352,-144.822,388
1570786695,323.143,-11.0505,-10.8272,179.099,3.60352,-144.822,388
1570786695,323.143,-11.0505,-10.8272,179.099,3.60352,-144.822,388
1570786695,323.143,-11.0505,-10.8272,179.099,3.60352,-144.822,388
1570786695,323.143,-11.0505,-10.8272,179.099,3.58154,-144.822,392
1570786695,323.143,-11.0505,-10.8272,179.099,3.58154,-144.822,392
1570786695,323.143,-11.0505,-10.9389,179.099,3.58154,-144.822,392
1570786695,323.143,-11.0505,-10.9389,179.099,3.58154,-144.822,392
1570786695,323.143,-11.0505,-10.9389,179.099,3.58154,-144.822,392
1570786695,323.143,-11.0505,-10.9389,179.099,3.58154,-144.822,392
1570786695,323.143,-11.0505,-10.9389,179.099,3.58154,-144.822,392
1570786695,323.143,-11.0505,-10.9389,179.099,3.58154,-144.822,392
1570786695,323.031,-11.0505,-10.9389,179.099,3.58154,-144.822,392
1570786695,323.031,-11.0505,-10.9389,179.099,3.58154,-144.822,392
1570786695,323.031,-11.0505,-10.9389,179.099,3.58154,-144.822,392
1570786695,323.031,-11.0505,-10.9389,179.099,3.58154,-144.822,396
1570786695,323.031,-11.0505,-10.9389,179.099,3.58154,-144.822,396
1570786695,323.031,-11.0505,-10.9389,179.099,3.58154,-144.822,396
1570786695,323.031,-11.0505,-10.9389,179.099,3.58154,-144.822,396
1570786695,323.031,-11.0505,-10.9389,179.099,3.58154,-144.822,396
1570786696,323.031,-11.0505,-10.9389,179.099,3.58154,-144.822,396
1570786696,323.031,-11.0505,-10.9389,179.099,3.58154,-144.822,396
1570786696,323.031,-11.0505,-10.9389,179.099,3.58154,-144.822,400
1570786696,323.031,-11.0505,-10.9389,179.099,3.58154,-144.822,400
1570786696,323.031,-11.0505,-10.9389,179.099,3.58154,-144.822,400
1570786696,323.031,-11.0505,-10.9389,179.099,3.58154,-144.822,400
1570786696,323.031,-11.0505,-10.9389,179.099,3.58154,-144.822,400
1570786696,323.031,-11.0505,-10.9389,179.099,3.58154,-144.822,400
1570786696,323.031,-11.0505,-10.9389,179.099,3.58154,-144.822,400
1570786696,323.031,-11.0505,-10.9389,179.099,3.58154,-144.822,400
1570786696,323.031,-11.0505,-10.9389,179.099,3.58154,-144.822,400
1570786696,323.031,-11.0505,-10.9389,179.099,3.58154,-144.822,400
1570786696,323.031,-11.0505,-10.9389,179.099,3.58154,-144.822,400
1570786696,323.031,-11.0505,-10.9389,179.099,3.58154,-144.822,400
1570786696,323.031,-11.0505,-10.9389,179.099,3.58154,-144.822,400
1570786696,323.031,-11.0505,-10.9389,179.099,3.58154,-144.822,396
1570786696,323.031,-11.0505,-10.9389,179.121,3.58154,-144.822,396
1570786696,323.031,-11.0505,-10.9389,179.121,3.58154,-144.822,396
1570786696,323.031,-11.0505,-10.9389,179.121,3.58154,-144.822,396
1570786696,323.031,-11.0505,-10.9389,179.121,3.58154,-144.822,396
1570786696,323.031,-11.0505,-10.9389,179.121,3.58154,-144.822,396
1570786696,323.031,-11.0505,-10.9389,179.121,3.58154,-144.822,396
1570786696,323.031,-11.0505,-10.9389,179.121,3.58154,-144.822,396
1570786696,323.031,-11.0505,-10.9389,179.121,3.58154,-144.822,396
1570786696,323.031,-11.0505,-10.9389,179.121,3.58154,-144.822,396
1570786696,323.143,-11.0505,-10.9389,179.121,3.58154,-144.822,396
1570786696,323.143,-11.0505,-10.9389,179.121,3.58154,-144.822,396
1570786696,323.143,-11.0505,-10.9389,179.121,3.58154,-144.822,396
1570786696,323.143,-10.9389,-10.8272,179.121,3.58154,-144.822,396
1570786696,323.143,-10.9389,-10.8272,179.121,3.58154,-144.822,396
1570786696,323.143,-10.9389,-10.8272,179.121,3.58154,-144.822,392
1570786696,323.143,-10.9389,-10.8272,179.121,3.58154,-144.822,392
1570786696,323.143,-10.9389,-10.8272,179.121,3.58154,-144.822,392
1570786696,323.143,-10.9389,-10.8272,179.121,3.58154,-144.822,392
1570786696,323.143,-10.9389,-10.8272,179.121,3.60352,-144.822,392
1570786696,323.143,-10.9389,-10.8272,179.121,3.60352,-144.822,392
1570786696,323.143,-10.9389,-10.8272,179.121,3.60352,-144.822,392
1570786696,323.143,-10.9389,-10.8272,179.121,3.58154,-144.822,388
1570786696,323.143,-11.0505,-10.8272,179.121,3.58154,-144.844,388
1570786696,323.031,-11.0505,-10.8272,179.121,3.58154,-144.844,388
1570786696,323.031,-11.0505,-10.9389,179.121,3.58154,-144.844,388
1570786696,323.031,-11.0505,-10.9389,179.121,3.58154,-144.844,388
1570786696,323.031,-11.0505,-10.9389,179.121,3.58154,-144.844,388
1570786696,323.031,-11.0505,-10.9389,179.121,3.58154,-144.844,388
1570786696,323.031,-11.0505,-10.9389,179.121,3.58154,-144.844,388
1570786696,323.031,-11.0505,-10.9389,179.121,3.58154,-144.844,388
1570786696,323.031,-11.0505,-10.9389,179.121,3.58154,-144.844,388
1570786696,323.031,-11.0505,-10.9389,179.121,3.58154,-144.844,388
1570786696,323.031,-11.0505,-10.9389,179.099,3.58154,-144.844,388
1570786696,323.031,-11.0505,-10.9389,179.099,3.58154,-144.822,388
1570786696,323.031,-11.0505,-10.9389,179.099,3.58154,-144.822,388
1570786696,323.031,-11.0505,-10.9389,179.099,3.58154,-144.822,388
1570786696,323.031,-11.0505,-10.9389,179.099,3.58154,-144.822,388
1570786696,323.031,-11.0505,-10.9389,179.099,3.58154,-144.822,392
1570786696,323.031,-11.0505,-10.9389,179.099,3.58154,-144.822,392
1570786696,323.031,-11.0505,-10.9389,179.099,3.58154,-144.822,392
1570786696,323.031,-11.0505,-10.9389,179.099,3.60352,-144.822,392
1570786696,323.031,-11.0505,-10.9389,179.099,3.60352,-144.822,392
1570786696,323.031,-11.0505,-10.9389,179.099,3.60352,-144.822,392
1570786696,323.031,-11.0505,-10.9389,179.099,3.60352,-144.822,392
1570786696,323.031,-11.0505,-10.9389,179.099,3.58154,-144.822,392
1570786696,323.031,-11.0505,-10.9389,179.099,3.58154,-144.822,392
1570786696,323.031,-11.0505,-10.9389,179.099,3.58154,-144.822,392
1570786696,323.031,-11.0505,-10.9389,179.099,3.58154,-144.822,392
1570786696,323.031,-11.0505,-10.9389,179.099,3.58154,-144.822,392
1570786696,323.031,-11.0505,-10.9389,179.099,3.58154,-144.822,392
1570786696,323.031,-11.0505,-10.9389,179.099,3.58154,-144.822,392
1570786696,323.031,-11.0505,-10.9389,179.099,3.58154,-144.822,392
1570786696,323.031,-11.0505,-10.9389,179.099,3.58154,-144.822,392
1570786696,323.031,-11.0505,-10.9389,179.099,3.58154,-144.822,392
1570786696,323.031,-11.0505,-10.9389,179.099,3.58154,-144.822,392
1570786696,323.031,-11.0505,-10.9389,179.099,3.58154,-144.822,392
1570786696,323.031,-11.0505,-10.9389,179.099,3.58154,-144.822,392
1570786696,323.031,-11.0505,-10.9389,179.099,3.58154,-144.822,392
1570786696,323.031,-11.0505,-10.9389,179.099,3.58154,-144.822,392
1570786696,323.031,-11.0505,-10.9389,179.099,3.58154,-144.822,392
1570786696,323.031,-11.0505,-10.9389,179.099,3.58154,-144.822,392
1570786696,323.031,-11.0505,-10.9389,179.099,3.58154,-144.822,392
1570786696,323.143,-11.0505,-10.9389,179.099,3.58154,-144.822,388
1570786696,323.143,-11.0505,-10.9389,179.099,3.58154,-144.822,388
1570786696,323.143,-11.0505,-10.9389,179.099,3.58154,-144.822,388
1570786696,323.143,-11.0505,-10.9389,179.099,3.58154,-144.822,388
1570786696,323.143,-11.0505,-10.9389,179.099,3.58154,-144.822,388
1570786696,323.143,-11.0505,-10.9389,179.099,3.58154,-144.822,388
1570786696,323.143,-11.0505,-10.9389,179.099,3.58154,-144.822,388
1570786696,323.143,-11.0505,-10.9389,179.099,3.58154,-144.822,388
1570786696,323.143,-11.0505,-10.9389,179.099,3.58154,-144.822,384
1570786696,323.143,-11.0505,-10.9389,179.099,3.58154,-144.822,384
1570786696,323.143,-11.0505,-10.9389,179.099,3.58154,-144.822,384
1570786696,323.143,-11.0505,-10.9389,179.099,3.58154,-144.822,388
1570786696,323.143,-11.0505,-10.9389,179.099,3.58154,-144.822,388
1570786696,323.143,-11.0505,-10.9389,179.099,3.58154,-144.822,388
1570786696,323.143,-11.0505,-10.9389,179.099,3.58154,-144.822,388
1570786696,323.143,-11.0505,-10.9389,179.099,3.58154,-144.822,388
1570786696,323.143,-11.0505,-10.9389,179.099,3.58154,-144.822,388
1570786696,323.143,-11.0505,-10.9389,179.099,3.58154,-144.822,388
1570786696,323.143,-11.0505,-10.9389,179.099,3.58154,-144.822,388
1570786696,323.143,-11.0505,-10.9389,179.099,3.58154,-144.822,388
1570786696,323.143,-11.0505,-10.9389,179.099,3.58154,-144.822,388
1570786696,323.143,-11.0505,-10.9389,179.099,3.58154,-144.822,388
1570786697,323.143,-11.0505,-10.9389,179.099,3.58154,-144.822,388
1570786697,323.143,-11.0505,-10.9389,179.099,3.58154,-144.822,388
1570786697,323.031,-11.0505,-10.9389,179.099,3.58154,-144.822,388
1570786697,323.031,-11.0505,-10.9389,179.121,3.58154,-144.822,388
1570786697,323.031,-11.0505,-10.9389,179.121,3.58154,-144.822,388
1570786697,323.031,-11.0505,-10.9389,179.121,3.60352,-144.822,388
1570786697,323.031,-11.0505,-10.9389,179.121,3.60352,-144.822,388
1570786697,323.031,-11.0505,-10.8272,179.121,3.60352,-144.822,388
1570786697,323.031,-11.0505,-10.8272,179.121,3.60352,-144.822,388
1570786697,323.031,-11.0505,-10.8272,179.121,3.60352,-144.822,388
1570786697,323.031,-11.0505,-10.8272,179.121,3.60352,-144.822,388
1570786697,323.031,-11.0505,-10.8272,179.121,3.60352,-144.822,388
1570786697,323.031,-11.0505,-10.9389,179.121,3.60352,-144.822,388
1570786697,323.031,-11.0505,-10.9389,179.121,3.60352,-144.822,388
1570786697,323.031,-11.0505,-10.9389,179.121,3.60352,-144.822,388
1570786697,323.031,-11.0505,-10.9389,179.121,3.60352,-144.822,388
1570786697,323.031,-11.0505,-10.9389,179.121,3.58154,-144.822,388
1570786697,323.031,-11.0505,-10.9389,179.121,3.58154,-144.822,388
1570786697,323.031,-11.0505,-10.9389,179.121,3.58154,-144.822,388
1570786697,323.031,-11.0505,-10.9389,179.121,3.58154,-144.822,388
1570786697,323.031,-11.0505,-10.9389,179.121,3.58154,-144.844,388
1570786697,323.031,-11.0505,-10.9389,179.121,3.58154,-144.844,388
1570786697,323.031,-11.0505,-10.9389,179.121,3.58154,-144.844,388
1570786697,323.031,-11.0505,-10.9389,179.121,3.58154,-144.844,388
1570786697,323.031,-10.9389,-10.9389,179.121,3.58154,-144.844,388
1570786697,323.031,-10.9389,-10.9389,179.121,3.58154,-144.844,388
1570786697,323.031,-10.9389,-10.9389,179.121,3.58154,-144.844,388
1570786697,323.031,-10.9389,-10.9389,179.121,3.58154,-144.844,388
1570786697,323.031,-10.9389,-10.9389,179.121,3.58154,-144.844,392
1570786697,323.031,-10.9389,-10.9389,179.121,3.58154,-144.822,392
1570786697,323.031,-10.9389,-10.9389,179.121,3.58154,-144.822,388
1570786697,323.031,-10.9389,-10.9389,179.121,3.58154,-144.822,388
1570786697,323.031,-10.9389,-10.9389,179.121,3.58154,-144.822,388
1570786697,323.031,-10.9389,-10.9389,179.121,3.58154,-144.822,388
1570786697,323.031,-10.9389,-10.9389,179.121,3.58154,-144.844,388
1570786697,323.031,-10.9389,-10.9389,179.121,3.58154,-144.844,388
1570786697,323.031,-10.9389,-10.9389,179.121,3.58154,-144.844,388
1570786697,323.031,-10.9389,-10.9389,179.121,3.58154,-144.844,388
1570786697,323.031,-10.9389,-10.9389,179.121,3.58154,-144.844,388
1570786697,323.031,-10.9389,-10.9389,179.121,3.58154,-144.844,388
1570786697,323.031,-10.9389,-10.9389,179.121,3.58154,-144.844,388
1570786697,323.031,-10.9389,-10.9389,179.121,3.58154,-144.844,388
1570786697,323.031,-10.9389,-10.9389,179.121,3.58154,-144.844,388
1570786697,323.031,-10.9389,-10.9389,179.121,3.58154,-144.844,388
1570786697,323.031,-10.9389,-10.9389,179.121,3.58154,-144.844,388
1570786697,323.031,-10.9389,-10.9389,179.121,3.58154,-144.844,388
1570786697,323.031,-10.9389,-10.9389,179.121,3.58154,-144.844,388
1570786697,323.031,-10.9389,-10.9389,179.121,3.58154,-144.844,388
1570786697,323.031,-11.0505,-10.9389,179.121,3.55957,-144.844,388
1570786697,323.031,-11.0505,-10.9389,179.121,3.55957,-144.844,388
1570786697,323.031,-11.0505,-10.9389,179.121,3.55957,-144.844,388
1570786697,323.031,-11.0505,-10.9389,179.121,3.55957,-144.844,388
1570786697,323.031,-11.0505,-10.9389,179.121,3.55957,-144.844,388
1570786697,323.031,-11.0505,-10.9389,179.121,3.55957,-144.844,388
1570786697,323.031,-11.0505,-10.9389,179.121,3.55957,-144.844,388
1570786697,323.031,-11.0505,-10.9389,179.121,3.55957,-144.844,388
1570786697,323.031,-11.0505,-10.9389,179.121,3.55957,-144.844,388
1570786697,323.031,-11.0505,-10.9389,179.121,3.55957,-144.844,388
1570786697,323.031,-11.0505,-10.9389,179.121,3.55957,-144.844,388
1570786697,323.031,-11.0505,-10.9389,179.121,3.55957,-144.844,388
1570786697,323.031,-11.0505,-10.9389,179.121,3.55957,-144.844,388
1570786697,323.031,-11.0505,-10.9389,179.121,3.55957,-144.844,388
1570786697,323.031,-10.9389,-10.9389,179.121,3.58154,-144.844,388
1570786697,323.031,-10.9389,-10.9389,179.121,3.58154,-144.844,388
1570786697,323.031,-10.9389,-10.9389,179.121,3.58154,-144.844,388
1570786697,323.031,-10.9389,-10.9389,179.121,3.58154,-144.844,388
1570786697,323.031,-10.9389,-10.9389,179.121,3.58154,-144.844,388
1570786697,323.031,-10.9389,-10.9389,179.121,3.58154,-144.844,388
1570786697,323.031,-10.9389,-10.9389,179.121,3.58154,-144.844,388
1570786697,323.031,-11.0505,-10.9389,179.121,3.58154,-144.844,388
1570786697,323.031,-11.0505,-10.9389,179.121,3.58154,-144.844,388
1570786697,323.031,-11.0505,-10.9389,179.121,3.58154,-144.844,388
1570786697,323.031,-11.0505,-10.9389,179.121,3.58154,-144.844,388
1570786697,323.031,-11.0505,-10.9389,179.121,3.58154,-144.844,388
1570786697,323.031,-11.0505,-10.9389,179.121,3.58154,-144.844,388
1570786697,323.031,-11.0505,-10.9389,179.121,3.58154,-144.844,388
1570786697,323.031,-11.0505,-10.9389,179.121,3.58154,-144.844,388
1570786697,323.031,-11.0505,-10.9389,179.121,3.58154,-144.844,388
1570786697,323.143,-11.0505,-10.9389,179.121,3.58154,-144.844,388
1570786697,323.143,-11.0505,-10.9389,179.121,3.58154,-144.844,388
1570786697,323.143,-10.9389,-10.9389,179.121,3.58154,-144.844,388
1570786697,323.143,-10.9389,-10.9389,179.121,3.58154,-144.844,388
1570786697,323.143,-10.9389,-10.9389,179.121,3.58154,-144.844,388
1570786697,323.143,-10.9389,-10.9389,179.121,3.58154,-144.844,388
1570786697,323.143,-10.9389,-10.9389,179.121,3.58154,-144.844,388
1570786697,323.143,-10.9389,-10.9389,179.121,3.58154,-144.844,388
1570786697,323.031,-10.9389,-10.9389,179.121,3.58154,-144.844,388
1570786697,323.031,-10.9389,-10.9389,179.121,3.58154,-144.844,388
1570786697,323.031,-10.9389,-10.9389,179.121,3.58154,-144.844,388
1570786697,323.031,-10.9389,-10.9389,179.121,3.58154,-144.844,388
1570786697,323.031,-10.9389,-10.9389,179.121,3.58154,-144.844,388
1570786697,323.031,-10.9389,-10.9389,179.121,3.60352,-144.844,388
1570786697,323.031,-10.9389,-10.9389,179.121,3.60352,-144.844,388
1570786697,323.031,-10.9389,-10.9389,179.121,3.60352,-144.844,388
1570786697,323.031,-10.9389,-10.9389,179.121,3.60352,-144.844,388
1570786697,323.031,-10.9389,-10.8272,179.121,3.60352,-144.844,388
1570786697,323.031,-11.0505,-10.8272,179.121,3.60352,-144.844,388
1570786697,323.031,-11.0505,-10.8272,179.121,3.60352,-144.844,388
1570786697,323.031,-11.0505,-10.8272,179.121,3.60352,-144.844,388
1570786697,323.031,-11.0505,-10.8272,179.099,3.60352,-144.844,388
1570786698,323.031,-11.0505,-10.8272,179.099,3.60352,-144.844,388
1570786698,323.031,-11.0505,-10.8272,179.099,3.60352,-144.844,388
1570786698,323.031,-11.0505,-10.8272,179.099,3.60352,-144.844,388
1570786698,323.031,-11.0505,-10.8272,179.099,3.60352,-144.844,388
1570786698,323.031,-11.0505,-10.8272,179.099,3.60352,-144.844,392
1570786698,323.031,-11.0505,-10.8272,179.099,3.60352,-144.844,392
1570786698,323.031,-11.0505,-10.8272,179.099,3.60352,-144.844,392
1570786698,323.031,-11.0505,-10.8272,179.099,3.60352,-144.844,392
1570786698,323.031,-11.0505,-10.8272,179.099,3.60352,-144.844,392
1570786698,323.031,-11.0505,-10.8272,179.099,3.60352,-144.822,392
1570786698,323.031,-11.0505,-10.9389,179.099,3.60352,-144.822,392
1570786698,323.031,-11.0505,-10.9389,179.099,3.60352,-144.822,396
1570786698,323.031,-11.0505,-10.9389,179.099,3.60352,-144.822,396
1570786698,323.031,-11.0505,-10.9389,179.099,3.60352,-144.844,396
1570786698,323.031,-11.0505,-10.9389,179.099,3.60352,-144.844,396
1570786698,323.031,-11.0505,-10.9389,179.099,3.60352,-144.844,396
1570786698,323.031,-11.0505,-10.9389,179.099,3.60352,-144.844,396
1570786698,323.031,-11.0505,-10.9389,179.099,3.60352,-144.844,396
1570786698,323.031,-11.0505,-10.9389,179.099,3.60352,-144.844,396
1570786698,323.031,-11.0505,-10.9389,179.099,3.60352,-144.844,396
1570786698,323.031,-11.0505,-10.9389,179.099,3.60352,-144.844,396
1570786698,323.031,-11.0505,-10.8272,179.099,3.60352,-144.844,400
1570786698,323.031,-11.0505,-10.8272,179.099,3.60352,-144.844,400
1570786698,323.031,-11.0505,-10.8272,179.099,3.60352,-144.822,400
1570786698,323.031,-11.0505,-10.8272,179.099,3.60352,-144.822,400
1570786698,323.031,-11.0505,-10.9389,179.099,3.60352,-144.822,400
1570786698,323.031,-11.0505,-10.9389,179.099,3.60352,-144.822,400
1570786698,323.031,-11.0505,-10.9389,179.099,3.60352,-144.822,400
1570786698,323.031,-11.0505,-10.9389,179.099,3.60352,-144.822,400
1570786698,323.031,-11.0505,-10.9389,179.099,3.60352,-144.822,400
1570786698,323.031,-11.0505,-10.9389,179.099,3.60352,-144.822,400
1570786698,323.031,-11.0505,-10.9389,179.099,3.60352,-144.822,400
1570786698,323.031,-11.0505,-10.9389,179.099,3.60352,-144.822,396
1570786698,323.031,-11.0505,-10.9389,179.099,3.58154,-144.822,396
1570786698,323.031,-11.0505,-10.9389,179.099,3.58154,-144.822,396
1570786698,323.031,-11.0505,-10.9389,179.099,3.58154,-144.822,396
1570786698,323.031,-11.0505,-10.9389,179.099,3.58154,-144.822,396
1570786698,323.031,-11.0505,-10.9389,179.099,3.58154,-144.822,396
1570786698,323.031,-11.0505,-10.9389,179.099,3.58154,-144.822,396
1570786698,323.031,-11.0505,-10.9389,179.099,3.58154,-144.822,396
1570786698,323.031,-11.0505,-10.9389,179.099,3.58154,-144.822,396
1570786698,323.031,-11.0505,-10.9389,179.099,3.58154,-144.822,396
1570786698,323.031,-11.0505,-10.9389,179.099,3.58154,-144.822,396
1570786698,323.031,-11.0505,-10.9389,179.099,3.58154,-144.822,396
1570786698,323.031,-11.0505,-10.9389,179.121,3.58154,-144.822,396
1570786698,323.031,-11.0505,-10.9389,179.121,3.58154,-144.822,396
1570786698,323.031,-11.0505,-10.9389,179.121,3.58154,-144.822,396
1570786698,323.031,-11.0505,-10.9389,179.121,3.58154,-144.822,396
1570786698,323.031,-11.0505,-10.9389,179.121,3.58154,-144.822,396
1570786698,323.031,-11.0505,-10.9389,179.121,3.58154,-144.822,396
1570786698,323.031,-11.0505,-10.9389,179.121,3.58154,-144.822,396
1570786698,323.031,-11.0505,-10.9389,179.121,3.58154,-144.822,396
1570786698,323.031,-11.0505,-10.9389,179.121,3.58154,-144.822,392
1570786698,323.031,-11.0505,-10.9389,179.121,3.58154,-144.822,392
1570786698,323.031,-11.0505,-10.9389,179.121,3.58154,-144.822,392
1570786698,323.143,-11.0505,-10.9389,179.121,3.58154,-144.822,392
1570786698,323.143,-11.0505,-10.9389,179.121,3.58154,-144.822,392
1570786698,323.143,-11.0505,-10.9389,179.121,3.58154,-144.822,392
1570786698,323.143,-11.0505,-10.9389,179.121,3.58154,-144.822,392
1570786698,323.143,-11.0505,-10.9389,179.121,3.58154,-144.822,392
1570786698,323.143,-11.0505,-10.9389,179.121,3.58154,-144.822,392
1570786698,323.143,-11.0505,-10.9389,179.121,3.58154,-144.822,392
1570786698,323.143,-11.0505,-10.9389,179.121,3.58154,-144.822,392
1570786698,323.143,-11.0505,-10.8272,179.121,3.60352,-144.822,392
1570786698,323.143,-11.0505,-10.8272,179.121,3.60352,-144.822,392
1570786698,323.143,-11.0505,-10.8272,179.121,3.60352,-144.822,392
1570786698,323.143,-11.0505,-10.9389,179.121,3.60352,-144.822,392
1570786698,323.031,-11.0505,-10.9389,179.121,3.60352,-144.822,392
1570786698,323.031,-11.0505,-10.9389,179.121,3.60352,-144.822,392
1570786698,323.031,-11.0505,-10.9389,179.121,3.58154,-144.822,392
1570786698,323.031,-11.0505,-10.9389,179.121,3.58154,-144.822,392
1570786698,323.031,-11.0505,-10.9389,179.121,3.58154,-144.822,392
1570786698,323.031,-11.0505,-10.9389,179.121,3.58154,-144.822,392
1570786698,323.031,-11.0505,-10.9389,179.121,3.58154,-144.822,392
1570786698,323.031,-11.0505,-10.9389,179.121,3.58154,-144.822,392
1570786698,323.031,-11.0505,-10.9389,179.121,3.58154,-144.822,396
1570786698,323.031,-11.0505,-10.9389,179.121,3.58154,-144.822,396
1570786698,323.031,-11.0505,-10.9389,179.121,3.58154,-144.822,396
1570786698,323.031,-11.0505,-10.9389,179.121,3.58154,-144.822,396
1570786698,323.031,-11.0505,-10.9389,179.121,3.58154,-144.822,396
1570786698,323.031,-11.0505,-10.9389,179.121,3.58154,-144.822,396
1570786698,323.031,-11.0505,-10.9389,179.121,3.58154,-144.822,396
1570786698,323.031,-11.0505,-10.9389,179.121,3.58154,-144.822,396
1570786698,323.031,-11.0505,-10.9389,179.121,3.58154,-144.822,396
1570786698,323.031,-11.0505,-10.9389,179.121,3.58154,-144.822,392
1570786698,323.031,-11.0505,-10.9389,179.121,3.58154,-144.822,392
1570786698,323.143,-11.0505,-10.9389,179.121,3.58154,-144.822,392
1570786698,323.143,-11.0505,-10.9389,179.121,3.58154,-144.822,392
1570786698,323.143,-11.0505,-10.9389,179.121,3.58154,-144.822,392
1570786698,323.143,-11.0505,-10.9389,179.121,3.58154,-144.822,392
1570786698,323.143,-11.0505,-10.9389,179.121,3.58154,-144.822,388
1570786698,323.143,-11.0505,-10.9389,179.121,3.58154,-144.822,388
1570786698,323.143,-11.0505,-10.9389,179.121,3.58154,-144.822,388
1570786698,323.143,-11.0505,-10.9389,179.099,3.58154,-144.822,388
1570786698,323.143,-11.0505,-10.9389,179.099,3.58154,-144.822,388
1570786698,323.143,-11.0505,-10.9389,179.099,3.58154,-144.822,388
1570786698,323.143,-11.0505,-10.9389,179.099,3.58154,-144.822,388
1570786698,323.143,-11.0505,-10.9389,179.099,3.58154,-144.822,388
1570786698,323.143,-11.0505,-10.9389,179.099,3.58154,-144.822,388
1570786698,323.031,-11.0505,-10.9389,179.099,3.58154,-144.822,388
1570786699,323.031,-11.0505,-10.9389,179.099,3.58154,-144.822,388
1570786699,323.031,-11.0505,-10.9389,179.099,3.58154,-144.822,388
1570786699,323.031,-11.0505,-10.9389,179.099,3.58154,-144.822,388
1570786699,323.031,-11.0505,-10.9389,179.099,3.58154,-144.822,388
1570786699,323.031,-11.0505,-10.9389,179.099,3.58154,-144.822,388
1570786699,323.031,-11.0505,-10.9389,179.099,3.58154,-144.822,388
1570786699,323.031,-11.0505,-10.9389,179.099,3.55957,-144.822,392
1570786699,323.031,-11.0505,-10.9389,179.099,3.55957,-144.822,392
1570786699,323.031,-11.0505,-10.9389,179.099,3.55957,-144.822,392
1570786699,323.031,-11.0505,-10.9389,179.099,3.55957,-144.822,392
1570786699,323.031,-11.0505,-10.9389,179.099,3.55957,-144.822,392
1570786699,323.031,-11.0505,-10.9389,179.099,3.55957,-144.822,392
1570786699,323.031,-11.0505,-10.9389,179.099,3.55957,-144.822,392
1570786699,323.031,-11.0505,-10.9389,179.099,3.55957,-144.822,392
1570786699,323.031,-11.0505,-10.9389,179.099,3.58154,-144.822,392
1570786699,323.031,-11.0505,-10.9389,179.099,3.58154,-144.822,392
1570786699,323.031,-11.0505,-10.9389,179.099,3.55957,-144.822,392
1570786699,323.031,-11.0505,-10.9389,179.099,3.55957,-144.822,392
1570786699,323.031,-11.0505,-10.9389,179.099,3.55957,-144.822,392
1570786699,323.031,-11.0505,-10.9389,179.099,3.55957,-144.822,392
1570786699,323.031,-11.0505,-10.9389,179.099,3.55957,-144.822,392
1570786699,323.031,-11.0505,-10.9389,179.099,3.55957,-144.822,392
1570786699,323.031,-11.0505,-10.9389,179.099,3.55957,-144.822,392
1570786699,323.031,-11.0505,-10.9389,179.099,3.55957,-144.822,392
1570786703,362.21,-50.8992,-7.9251,179.473,4.4165,-144.36,324
1570786703,362.21,-50.8992,-7.9251,179.495,4.4165,-144.36,324
1570786703,362.21,-50.8992,-7.9251,179.495,4.4165,-144.36,324
1570786703,362.21,-50.8992,-7.9251,179.495,4.4165,-144.36,324
1570786703,362.21,-50.8992,-7.9251,179.495,4.4165,-144.36,324
1570786703,362.21,-50.8992,-7.9251,179.495,4.4165,-144.36,324
1570786703,362.21,-50.8992,-7.9251,179.495,4.4165,-144.36,324
1570786703,362.21,-50.8992,-7.9251,179.495,4.4165,-144.36,324
1570786703,362.21,-50.8992,-7.9251,179.495,4.4165,-144.36,324
1570786703,362.21,-50.8992,-7.9251,179.495,4.4165,-144.36,324
1570786703,362.21,-50.8992,-7.9251,179.495,4.4165,-144.36,324
1570786703,362.21,-50.8992,-7.9251,179.495,4.4165,-144.36,324
1570786703,362.21,-50.8992,-7.9251,179.495,4.4165,-144.36,324
1570786703,362.21,-50.8992,-7.9251,179.495,4.4165,-144.36,320
1570786703,362.21,-50.8992,-7.9251,179.495,4.4165,-144.36,320
1570786703,362.21,-50.8992,-7.9251,179.495,4.4165,-144.36,320
1570786703,362.21,-50.8992,-7.9251,179.495,4.4165,-144.36,320
1570786703,362.21,-50.8992,-7.9251,179.495,4.4165,-144.36,320
1570786703,362.21,-50.8992,-7.9251,179.473,4.4165,-144.36,320
1570786703,362.21,-50.8992,-7.9251,179.473,4.4165,-144.36,320
1570786703,362.21,-50.8992,-7.9251,179.473,4.4165,-144.382,320
1570786703,362.21,-50.8992,-7.9251,179.473,4.4165,-144.382,320
1570786703,362.21,-50.8992,-7.9251,179.473,4.4165,-144.382,320
1570786703,362.21,-50.8992,-7.9251,179.473,4.4165,-144.382,320
1570786703,362.21,-50.8992,-7.9251,179.473,4.4165,-144.382,320
1570786703,362.21,-50.8992,-7.9251,179.473,4.4165,-144.382,320
1570786703,362.21,-50.8992,-7.9251,179.473,4.4165,-144.382,320
1570786703,362.21,-50.8992,-7.9251,179.473,4.4165,-144.382,320
1570786703,362.21,-50.8992,-7.9251,179.473,4.4165,-144.382,320
1570786703,362.21,-50.8992,-7.9251,179.473,4.4165,-144.382,324
1570786703,362.21,-51.0108,-7.9251,179.473,4.4165,-144.382,324
1570786703,362.21,-51.0108,-7.9251,179.473,4.4165,-144.382,324
1570786703,362.21,-51.0108,-7.9251,179.473,4.4165,-144.382,324
1570786703,362.21,-51.0108,-7.9251,179.473,4.4165,-144.36,324
1570786703,362.21,-51.0108,-7.9251,179.473,4.4165,-144.36,328
1570786703,362.21,-51.0108,-7.9251,179.473,4.4165,-144.36,328
1570786703,362.21,-51.0108,-7.9251,179.473,4.4165,-144.36,328
1570786703,362.21,-51.0108,-7.9251,179.473,4.4165,-144.36,328
1570786703,362.21,-51.0108,-7.9251,179.473,4.4165,-144.36,332
1570786703,362.21,-51.0108,-7.9251,179.451,4.4165,-144.36,332
1570786703,362.21,-51.0108,-7.9251,179.451,4.4165,-144.36,332
1570786703,362.21,-51.0108,-7.9251,179.451,4.4165,-144.382,332
1570786703,362.21,-51.0108,-7.9251,179.451,4.4165,-144.382,336
1570786703,362.21,-51.0108,-7.9251,179.451,4.4165,-144.382,336
1570786703,362.21,-51.0108,-7.9251,179.451,4.4165,-144.382,336
1570786703,362.21,-51.0108,-7.9251,179.451,4.39453,-144.382,336
1570786703,362.21,-51.0108,-7.9251,179.451,4.39453,-144.382,336
1570786703,362.21,-51.0108,-8.03672,179.451,4.39453,-144.36,336
1570786703,362.21,-51.0108,-8.03672,179.451,4.39453,-144.36,336
1570786703,362.21,-51.0108,-8.03672,179.451,4.39453,-144.36,336
1570786703,362.21,-51.0108,-8.03672,179.451,4.39453,-144.36,332
1570786703,362.21,-51.0108,-8.03672,179.451,4.39453,-144.36,332
1570786703,362.21,-51.0108,-8.03672,179.451,4.39453,-144.36,332
1570786703,362.21,-51.0108,-8.03672,179.451,4.39453,-144.36,332
1570786703,362.21,-51.0108,-8.03672,179.451,4.39453,-144.36,332
1570786703,362.21,-51.0108,-8.03672,179.451,4.39453,-144.36,328
1570786703,362.21,-51.0108,-8.03672,179.451,4.39453,-144.36,328
1570786703,362.21,-51.0108,-8.03672,179.451,4.39453,-144.36,328
1570786703,362.21,-51.0108,-8.03672,179.451,4.37256,-144.36,328
1570786703,362.21,-51.0108,-8.03672,179.451,4.37256,-144.36,328
1570786703,362.21,-51.0108,-8.03672,179.451,4.37256,-144.36,328
1570786703,362.21,-51.0108,-8.03672,179.451,4.37256,-144.36,324
1570786703,362.21,-51.0108,-8.03672,179.451,4.37256,-144.36,324
1570786703,362.21,-51.0108,-8.03672,179.451,4.37256,-144.36,324
1570786703,362.21,-51.0108,-8.03672,179.451,4.37256,-144.36,324
1570786703,362.21,-51.0108,-8.03672,179.451,4.37256,-144.36,324
1570786703,362.21,-51.0108,-8.03672,179.451,4.37256,-144.36,324
1570786703,362.21,-51.0108,-8.03672,179.451,4.37256,-144.36,324
1570786703,362.322,-51.0108,-8.03672,179.473,4.37256,-144.36,324
1570786703,362.322,-51.0108,-8.03672,179.473,4.37256,-144.36,324
1570786703,362.322,-51.0108,-8.03672,179.473,4.37256,-144.36,324
1570786703,362.322,-51.0108,-8.03672,179.473,4.37256,-144.36,324
1570786703,362.322,-51.0108,-8.03672,179.473,4.37256,-144.36,324
1570786703,362.322,-51.0108,-8.03672,179.473,4.37256,-144.36,320
1570786703,362.322,-51.0108,-8.03672,179.473,4.37256,-144.36,320
1570786703,362.322,-51.0108,-8.03672,179.473,4.37256,-144.36,320
1570786703,362.322,-51.0108,-8.03672,179.473,4.37256,-144.36,320
1570786703,362.322,-51.0108,-8.03672,179.473,4.37256,-144.36,320
1570786703,362.322,-51.0108,-8.03672,179.473,4.37256,-144.36,320
1570786703,362.322,-51.0108,-8.03672,179.473,4.37256,-144.36,316
1570786703,362.322,-51.0108,-8.03672,179.473,4.37256,-144.36,316
1570786703,362.322,-51.0108,-8.03672,179.473,4.39453,-144.36,316
1570786703,362.322,-51.0108,-8.03672,179.473,4.39453,-144.36,316
1570786703,362.322,-51.0108,-8.03672,179.473,4.39453,-144.36,312
1570786703,362.322,-51.0108,-8.03672,179.473,4.37256,-144.36,312
1570786703,362.322,-51.0108,-8.03672,179.473,4.37256,-144.36,312
1570786703,362.322,-51.0108,-8.03672,179.473,4.37256,-144.36,312
1570786703,362.322,-51.0108,-8.03672,179.473,4.37256,-144.36,312
1570786703,362.322,-51.0108,-8.03672,179.473,4.37256,-144.36,312
1570786703,362.322,-51.0108,-8.03672,179.473,4.37256,-144.36,312
1570786703,362.322,-51.0108,-8.03672,179.473,4.37256,-144.36,312
1570786703,362.21,-51.0108,-8.03672,179.473,4.37256,-144.36,312
1570786703,362.21,-51.0108,-8.03672,179.473,4.37256,-144.36,312
1570786704,362.21,-51.0108,-8.03672,179.473,4.37256,-144.36,312
1570786704,362.21,-50.8992,-8.03672,179.473,4.37256,-144.36,312
1570786704,362.21,-50.8992,-8.03672,179.473,4.39453,-144.36,312
1570786704,362.21,-50.8992,-8.03672,179.473,4.39453,-144.36,312
1570786704,362.21,-50.8992,-8.03672,179.495,4.39453,-144.382,312
1570786704,362.21,-50.8992,-8.03672,179.495,4.39453,-144.382,316
1570786704,362.21,-50.8992,-8.03672,179.495,4.39453,-144.382,316
1570786704,362.21,-50.8992,-8.03672,179.495,4.39453,-144.382,316
1570786704,362.21,-50.8992,-8.03672,179.495,4.39453,-144.382,316
1570786704,362.21,-50.8992,-8.03672,179.495,4.39453,-144.382,316
1570786704,362.21,-50.8992,-8.03672,179.495,4.39453,-144.382,316
1570786704,362.21,-51.0108,-8.03672,179.495,4.39453,-144.382,316
1570786704,362.21,-51.0108,-8.03672,179.473,4.39453,-144.382,316
1570786704,362.21,-51.0108,-8.03672,179.473,4.39453,-144.382,316
1570786704,362.21,-51.0108,-8.03672,179.473,4.39453,-144.382,316
1570786704,362.21,-51.0108,-8.03672,179.473,4.39453,-144.382,316
1570786704,362.21,-50.8992,-8.03672,179.473,4.39453,-144.382,316
1570786704,362.21,-50.8992,-8.03672,179.473,4.39453,-144.382,316
1570786704,362.21,-50.8992,-8.03672,179.473,4.39453,-144.382,316
1570786704,362.21,-50.8992,-8.03672,179.473,4.39453,-144.382,316
1570786704,362.21,-50.8992,-8.03672,179.473,4.39453,-144.382,316
1570786704,362.21,-50.8992,-8.03672,179.473,4.39453,-144.36,316
1570786704,362.21,-50.8992,-8.03672,179.473,4.39453,-144.36,316
1570786704,362.21,-50.8992,-8.03672,179.495,4.39453,-144.36,316
1570786704,362.21,-50.8992,-8.03672,179.495,4.39453,-144.36,316
1570786704,362.21,-50.8992,-8.03672,179.495,4.39453,-144.36,320
1570786704,362.21,-50.8992,-8.03672,179.495,4.39453,-144.36,320
1570786704,362.21,-50.8992,-8.03672,179.495,4.39453,-144.36,320
1570786704,362.21,-50.8992,-8.03672,179.495,4.39453,-144.36,320
1570786704,362.322,-50.8992,-8.03672,179.495,4.39453,-144.36,320
1570786704,362.322,-51.0108,-8.03672,179.495,4.39453,-144.36,316
1570786704,362.322,-51.0108,-8.03672,179.495,4.37256,-144.36,316
1570786704,362.322,-51.0108,-8.03672,179.495,4.37256,-144.36,316
1570786704,362.322,-51.0108,-8.03672,179.495,4.37256,-144.36,316
1570786704,362.322,-51.0108,-8.03672,179.473,4.37256,-144.36,316
1570786704,362.21,-51.0108,-8.03672,179.473,4.37256,-144.36,316
1570786704,362.21,-51.0108,-8.03672,179.473,4.37256,-144.36,316
1570786704,362.21,-51.0108,-8.03672,179.473,4.37256,-144.36,316
1570786704,362.21,-51.0108,-8.03672,179.473,4.37256,-144.36,316
1570786704,362.21,-51.0108,-8.03672,179.473,4.37256,-144.36,316
1570786704,362.21,-51.0108,-8.03672,179.473,4.39453,-144.36,316
1570786704,362.21,-51.0108,-8.03672,179.473,4.39453,-144.36,316
1570786704,362.21,-51.0108,-8.03672,179.473,4.39453,-144.36,316
1570786704,362.21,-51.0108,-7.9251,179.473,4.39453,-144.36,316
1570786704,362.322,-51.0108,-7.9251,179.473,4.39453,-144.36,316
1570786704,362.322,-51.0108,-7.9251,179.473,4.39453,-144.36,316
1570786704,362.322,-51.0108,-7.9251,179.473,4.39453,-144.36,316
1570786704,362.322,-51.0108,-7.9251,179.473,4.39453,-144.36,316
1570786704,362.322,-51.0108,-7.9251,179.473,4.39453,-144.382,316
1570786704,362.322,-51.0108,-8.03672,179.473,4.39453,-144.382,312
1570786704,362.322,-51.0108,-8.03672,179.473,4.39453,-144.382,312
1570786704,362.322,-51.0108,-8.03672,179.473,4.39453,-144.382,312
1570786704,362.322,-51.0108,-8.03672,179.473,4.39453,-144.382,312
1570786704,362.322,-51.0108,-8.03672,179.473,4.39453,-144.382,312
1570786704,362.322,-51.0108,-8.03672,179.473,4.39453,-144.382,312
1570786704,362.322,-51.0108,-8.03672,179.473,4.37256,-144.382,312
1570786704,362.322,-51.0108,-8.03672,179.473,4.37256,-144.382,312
1570786704,362.322,-51.0108,-8.03672,179.473,4.37256,-144.382,308
1570786704,362.434,-51.0108,-8.03672,179.473,4.37256,-144.382,308
1570786704,362.322,-51.0108,-8.03672,179.473,4.37256,-144.382,308
1570786704,362.322,-51.0108,-8.03672,179.451,4.37256,-144.382,308
1570786704,362.322,-51.0108,-8.03672,179.451,4.37256,-144.382,312
1570786704,362.322,-51.0108,-8.03672,179.451,4.37256,-144.382,312
1570786704,362.322,-51.0108,-8.03672,179.451,4.37256,-144.382,312
1570786704,362.322,-51.0108,-8.03672,179.473,4.37256,-144.36,312
1570786704,362.322,-51.0108,-8.03672,179.473,4.37256,-144.36,312
1570786704,362.322,-51.0108,-8.03672,179.473,4.39453,-144.36,312
1570786704,362.322,-51.0108,-8.03672,179.451,4.39453,-144.36,316
1570786704,362.322,-51.0108,-8.03672,179.451,4.39453,-144.36,316
1570786704,362.322,-51.0108,-8.03672,179.473,4.37256,-144.36,316
1570786704,362.322,-51.0108,-8.03672,179.473,4.37256,-144.36,316
1570786704,362.322,-51.0108,-8.03672,179.473,4.37256,-144.36,316
1570786704,362.322,-51.0108,-8.03672,179.451,4.37256,-144.36,320
1570786704,362.322,-51.0108,-8.03672,179.451,4.37256,-144.36,320
1570786704,362.322,-51.0108,-8.03672,179.451,4.37256,-144.36,320
1570786704,362.322,-51.0108,-8.03672,179.451,4.37256,-144.36,320
1570786704,362.322,-51.0108,-8.03672,179.451,4.37256,-144.36,320
1570786704,362.322,-51.0108,-8.03672,179.451,4.37256,-144.36,320
1570786704,362.322,-51.0108,-8.03672,179.473,4.37256,-144.36,320
1570786704,362.322,-51.0108,-8.03672,179.473,4.37256,-144.36,320
1570786704,362.322,-51.0108,-8.03672,179.473,4.37256,-144.36,320
1570786704,362.322,-51.0108,-8.03672,179.473,4.37256,-144.36,320
1570786704,362.322,-51.0108,-8.03672,179.473,4.37256,-144.36,320
1570786704,362.322,-51.0108,-8.03672,179.473,4.37256,-144.36,320
1570786704,362.322,-51.0108,-8.03672,179.473,4.37256,-144.36,320
1570786704,362.322,-51.0108,-8.03672,179.473,4.37256,-144.36,320
1570786704,362.322,-51.0108,-8.03672,179.473,4.37256,-144.36,320
1570786704,362.322,-51.0108,-8.03672,179.473,4.37256,-144.36,316
1570786704,362.322,-51.0108,-8.03672,179.473,4.37256,-144.36,316
1570786704,362.322,-51.0108,-8.03672,179.473,4.37256,-144.36,316
1570786704,362.322,-51.0108,-8.03672,179.473,4.37256,-144.36,316
1570786704,362.322,-51.0108,-8.03672,179.473,4.37256,-144.36,316
1570786704,362.322,-51.0108,-8.03672,179.473,4.37256,-144.36,316
1570786704,362.322,-51.0108,-8.03672,179.473,4.37256,-144.36,316
1570786704,362.322,-51.0108,-8.03672,179.473,4.37256,-144.36,316
1570786704,362.322,-51.0108,-8.03672,179.473,4.37256,-144.36,316
1570786704,362.322,-51.0108,-8.03672,179.473,4.37256,-144.36,316
1570786704,362.322,-51.0108,-8.03672,179.473,4.37256,-144.36,316
1570786704,362.322,-51.0108,-8.03672,179.473,4.37256,-144.36,316
1570786704,362.322,-51.0108,-8.03672,179.473,4.37256,-144.36,316
1570786705,362.322,-51.0108,-8.03672,179.473,4.37256,-144.36,316
1570786705,362.322,-51.0108,-8.03672,179.473,4.37256,-144.36,316
1570786705,362.322,-51.0108,-8.03672,179.473,4.37256,-144.36,316
1570786705,362.322,-51.0108,-8.03672,179.473,4.37256,-144.36,316
1570786705,362.322,-51.0108,-8.03672,179.473,4.37256,-144.36,316
1570786705,362.322,-51.0108,-8.03672,179.473,4.37256,-144.36,316
1570786705,362.322,-51.0108,-8.03672,179.473,4.37256,-144.36,316
1570786705,362.322,-51.0108,-8.03672,179.473,4.37256,-144.36,316
1570786705,362.322,-51.0108,-8.03672,179.473,4.37256,-144.36,312
1570786705,362.322,-51.0108,-8.03672,179.473,4.37256,-144.36,312
1570786705,362.322,-51.0108,-8.03672,179.473,4.37256,-144.36,312
1570786705,362.322,-51.0108,-8.03672,179.473,4.37256,-144.36,312
1570786705,362.322,-51.0108,-8.14834,179.473,4.37256,-144.36,312
1570786705,362.322,-51.0108,-8.14834,179.473,4.37256,-144.36,312
1570786705,362.322,-51.0108,-8.14834,179.473,4.35059,-144.36,312
1570786705,362.322,-51.0108,-8.14834,179.473,4.35059,-144.36,312
1570786705,362.322,-51.0108,-8.14834,179.473,4.35059,-144.36,312
1570786705,362.322,-51.0108,-8.14834,179.473,4.35059,-144.36,312
1570786705,362.322,-51.0108,-8.14834,179.473,4.35059,-144.36,312
1570786705,362.322,-51.0108,-8.14834,179.473,4.35059,-144.36,312
1570786705,362.322,-51.0108,-8.14834,179.473,4.35059,-144.36,312
1570786705,362.322,-51.0108,-8.14834,179.473,4.35059,-144.36,312
1570786705,362.322,-51.0108,-8.14834,179.473,4.35059,-144.36,312
1570786705,362.322,-51.0108,-8.14834,179.473,4.35059,-144.36,312
1570786705,362.322,-51.0108,-8.14834,179.451,4.35059,-144.36,312
1570786705,362.322,-51.0108,-8.14834,179.451,4.35059,-144.36,312
1570786705,362.322,-51.0108,-8.14834,179.451,4.35059,-144.36,312
1570786705,362.322,-51.0108,-8.14834,179.451,4.35059,-144.36,312
1570786705,362.322,-51.0108,-8.14834,179.451,4.35059,-144.36,312
1570786705,362.322,-51.0108,-8.14834,179.451,4.35059,-144.36,312
1570786705,362.322,-51.0108,-8.14834,179.451,4.37256,-144.36,312
1570786705,362.322,-51.0108,-8.14834,179.451,4.37256,-144.36,312
1570786705,362.322,-51.0108,-8.14834,179.451,4.37256,-144.36,312
1570786705,362.322,-51.0108,-8.03672,179.451,4.37256,-144.36,312
1570786705,362.322,-51.0108,-8.03672,179.451,4.37256,-144.36,312
1570786705,362.322,-51.0108,-8.03672,179.451,4.37256,-144.36,312
1570786705,362.322,-51.0108,-8.03672,179.451,4.37256,-144.36,312
1570786705,362.322,-51.0108,-8.03672,179.451,4.37256,-144.36,312
1570786705,362.322,-51.0108,-8.03672,179.451,4.37256,-144.36,312
1570786705,362.322,-51.0108,-8.03672,179.451,4.37256,-144.36,312
1570786705,362.322,-51.0108,-8.03672,179.451,4.37256,-144.36,312
1570786705,362.322,-51.0108,-8.03672,179.451,4.37256,-144.36,312
1570786705,362.322,-51.0108,-8.03672,179.451,4.37256,-144.36,312
1570786705,362.322,-51.0108,-8.03672,179.451,4.37256,-144.36,316
1570786705,362.322,-51.0108,-8.03672,179.451,4.37256,-144.36,316
1570786705,362.322,-51.0108,-8.03672,179.451,4.37256,-144.382,316
1570786705,362.322,-51.0108,-8.03672,179.451,4.37256,-144.382,316
1570786705,362.322,-51.0108,-8.03672,179.451,4.37256,-144.382,320
1570786705,362.322,-51.0108,-8.03672,179.451,4.37256,-144.382,320
1570786705,362.322,-51.0108,-8.03672,179.451,4.37256,-144.382,320
1570786705,362.322,-51.0108,-8.03672,179.451,4.37256,-144.382,324
1570786705,362.322,-51.0108,-8.03672,179.451,4.37256,-144.382,324
1570786705,362.322,-51.0108,-8.03672,179.451,4.37256,-144.382,324
1570786705,362.322,-51.0108,-8.03672,179.451,4.37256,-144.382,324
1570786705,362.322,-51.0108,-8.03672,179.451,4.37256,-144.382,324
1570786705,362.322,-51.0108,-8.03672,179.451,4.37256,-144.382,324
1570786705,362.322,-51.0108,-8.03672,179.451,4.37256,-144.382,324
1570786705,362.322,-51.0108,-8.03672,179.451,4.37256,-144.382,328
1570786705,362.322,-51.0108,-8.03672,179.451,4.37256,-144.382,328
1570786705,362.322,-51.0108,-8.03672,179.451,4.37256,-144.382,328
1570786705,362.322,-51.0108,-8.03672,179.451,4.39453,-144.382,328
1570786705,362.322,-51.0108,-8.03672,179.451,4.39453,-144.382,328
1570786705,362.322,-51.0108,-8.03672,179.451,4.39453,-144.382,328
1570786705,362.322,-51.0108,-8.03672,179.451,4.39453,-144.382,328
1570786705,362.322,-51.0108,-8.03672,179.451,4.39453,-144.382,328
1570786705,362.322,-51.1225,-8.03672,179.451,4.39453,-144.382,328
1570786705,362.322,-51.1225,-8.03672,179.451,4.39453,-144.382,328
1570786705,362.322,-51.1225,-8.03672,179.451,4.39453,-144.382,328
1570786705,362.322,-51.1225,-8.03672,179.451,4.39453,-144.382,328
1570786705,362.322,-51.1225,-8.03672,179.451,4.39453,-144.382,328
1570786705,362.322,-51.1225,-8.03672,179.451,4.39453,-144.382,328
1570786705,362.322,-51.1225,-8.03672,179.451,4.39453,-144.36,328
1570786705,362.322,-51.1225,-7.9251,179.451,4.39453,-144.36,328
1570786705,362.322,-51.1225,-7.9251,179.451,4.39453,-144.36,332
1570786705,362.322,-51.1225,-7.9251,179.451,4.39453,-144.36,332
1570786705,362.322,-51.1225,-7.9251,179.451,4.39453,-144.36,332
1570786705,362.322,-51.0108,-7.9251,179.451,4.4165,-144.36,332
1570786705,362.322,-51.0108,-7.9251,179.451,4.4165,-144.36,332
1570786705,362.322,-51.0108,-7.9251,179.451,4.39453,-144.36,332
1570786705,362.322,-51.0108,-7.9251,179.451,4.39453,-144.36,332
1570786705,362.322,-51.0108,-7.9251,179.451,4.39453,-144.36,332
1570786705,362.322,-51.0108,-7.9251,179.451,4.39453,-144.36,332
1570786705,362.322,-51.0108,-7.9251,179.451,4.4165,-144.36,328
1570786705,362.322,-51.0108,-7.9251,179.451,4.4165,-144.36,328
1570786705,362.322,-51.0108,-7.9251,179.451,4.4165,-144.36,328
1570786705,362.322,-51.0108,-7.9251,179.451,4.4165,-144.382,328
1570786705,362.322,-51.0108,-7.9251,179.451,4.4165,-144.382,328
1570786705,362.322,-51.0108,-7.9251,179.451,4.4165,-144.382,328
1570786705,362.322,-51.0108,-7.9251,179.451,4.4165,-144.382,328
1570786705,362.322,-51.0108,-7.9251,179.451,4.4165,-144.382,328
1570786705,362.322,-51.0108,-7.9251,179.451,4.4165,-144.382,328
1570786705,362.322,-51.0108,-7.9251,179.451,4.4165,-144.382,328
1570786705,362.322,-51.0108,-7.9251,179.473,4.39453,-144.382,324
1570786705,362.322,-51.0108,-8.03672,179.473,4.39453,-144.382,324
1570786705,362.322,-51.0108,-8.03672,179.473,4.39453,-144.382,324
1570786705,362.322,-51.0108,-8.03672,179.473,4.39453,-144.36,324
1570786705,362.322,-51.0108,-8.03672,179.473,4.39453,-144.36,324
1570786705,362.322,-51.0108,-8.03672,179.473,4.39453,-144.36,324
1570786705,362.322,-51.0108,-8.03672,179.473,4.39453,-144.36,324
1570786705,362.322,-51.0108,-8.03672,179.473,4.39453,-144.36,324
1570786706,362.322,-51.0108,-8.03672,179.473,4.39453,-144.36,320
1570786706,362.322,-51.0108,-8.03672,179.473,4.39453,-144.36,320
1570786706,362.322,-51.0108,-8.03672,179.473,4.39453,-144.36,320
1570786706,362.322,-51.0108,-8.03672,179.473,4.39453,-144.36,320
1570786706,362.322,-51.0108,-8.03672,179.473,4.39453,-144.36,316
1570786706,362.322,-51.0108,-8.03672,179.473,4.39453,-144.36,316
1570786706,362.322,-51.0108,-8.03672,179.473,4.39453,-144.36,316
1570786706,362.322,-51.0108,-8.03672,179.473,4.39453,-144.36,316
1570786706,362.322,-51.0108,-8.03672,179.473,4.39453,-144.36,316
1570786706,362.322,-51.0108,-8.03672,179.473,4.39453,-144.36,316
1570786706,362.322,-51.0108,-8.03672,179.473,4.39453,-144.36,312
1570786706,362.322,-51.0108,-8.03672,179.473,4.39453,-144.36,312
1570786706,362.322,-51.0108,-8.03672,179.473,4.39453,-144.36,312
1570786706,362.322,-51.0108,-8.03672,179.473,4.39453,-144.36,312
1570786706,362.322,-51.0108,-7.9251,179.473,4.4165,-144.36,312
1570786706,362.322,-51.0108,-7.9251,179.473,4.4165,-144.36,312
1570786706,362.322,-51.0108,-7.9251,179.473,4.4165,-144.36,312
1570786706,362.322,-51.0108,-7.9251,179.473,4.4165,-144.36,312
1570786706,362.322,-51.0108,-7.9251,179.473,4.4165,-144.36,312
1570786706,362.322,-51.0108,-7.9251,179.473,4.39453,-144.36,312
1570786706,362.322,-51.0108,-7.9251,179.473,4.39453,-144.36,312
1570786706,362.322,-51.0108,-7.9251,179.473,4.39453,-144.36,312
1570786706,362.322,-50.8992,-7.9251,179.473,4.39453,-144.36,316
1570786706,362.322,-50.8992,-7.9251,179.473,4.39453,-144.36,316
1570786706,362.322,-50.8992,-8.03672,179.473,4.39453,-144.36,316
1570786706,362.322,-51.0108,-8.03672,179.473,4.39453,-144.36,316
1570786706,362.322,-51.0108,-8.03672,179.473,4.39453,-144.36,316
1570786706,362.322,-51.0108,-8.03672,179.473,4.39453,-144.36,316
1570786706,362.21,-51.0108,-8.03672,179.473,4.39453,-144.36,316
