time,x,y,z,ax,ay,az,q
1569849117,286.085,26.5658,-4.12998,177.539,6.54785,-145.393,472
1569849117,286.085,26.5658,-4.12998,177.539,6.54785,-145.393,472
1569849117,286.085,26.5658,-4.12998,177.539,6.54785,-145.393,472
1569849117,286.085,26.5658,-4.12998,177.539,6.54785,-145.393,472
1569849117,286.085,26.5658,-4.12998,177.539,6.54785,-145.415,472
1569849117,286.085,26.5658,-4.12998,177.539,6.54785,-145.415,472
1569849117,286.085,26.5658,-4.12998,177.539,6.54785,-145.415,472
1569849117,286.085,26.5658,-4.12998,177.539,6.54785,-145.415,468
1569849117,286.085,26.5658,-4.12998,177.539,6.54785,-145.415,468
1569849117,286.085,26.5658,-4.12998,177.539,6.54785,-145.415,468
1569849117,286.085,26.5658,-4.12998,177.539,6.54785,-145.415,468
1569849117,286.085,26.5658,-4.12998,177.561,6.54785,-145.415,468
1569849117,286.085,26.5658,-4.12998,177.561,6.54785,-145.415,468
1569849117,286.085,26.5658,-4.12998,177.561,6.54785,-145.415,468
1569849117,286.085,26.5658,-4.12998,177.561,6.54785,-145.415,468
1569849117,286.085,26.5658,-4.12998,177.561,6.54785,-145.415,468
1569849117,286.085,26.5658,-4.12998,177.561,6.54785,-145.415,468
1569849117,286.085,26.5658,-4.12998,177.561,6.54785,-145.415,468
1569849117,286.085,26.5658,-4.12998,177.561,6.54785,-145.415,468
1569849118,286.085,26.5658,-4.12998,177.561,6.54785,-145.415,468
1569849118,286.085,26.5658,-4.12998,177.561,6.54785,-145.415,468
1569849118,286.085,26.5658,-4.12998,177.561,6.54785,-145.415,468
1569849118,286.085,26.5658,-4.12998,177.561,6.54785,-145.415,468
1569849118,286.085,26.5658,-4.12998,177.561,6.54785,-145.415,468
1569849118,286.085,26.5658,-4.12998,177.561,6.54785,-145.415,468
1569849118,286.085,26.5658,-4.12998,177.561,6.54785,-145.415,468
1569849118,286.085,26.5658,-4.12998,177.561,6.54785,-145.415,468
1569849118,286.085,26.5658,-4.12998,177.561,6.54785,-145.415,468
1569849118,286.085,26.5658,-4.12998,177.539,6.54785,-145.415,468
1569849118,286.085,26.5658,-4.12998,177.539,6.54785,-145.415,468
1569849118,286.085,26.5658,-4.12998,177.539,6.54785,-145.415,468
1569849118,286.085,26.5658,-4.12998,177.539,6.54785,-145.415,468
1569849118,286.085,26.5658,-4.12998,177.539,6.54785,-145.415,468
1569849118,286.085,26.5658,-4.12998,177.539,6.54785,-145.415,468
1569849118,286.085,26.5658,-4.12998,177.539,6.54785,-145.415,468
1569849118,286.085,26.5658,-4.12998,177.539,6.54785,-145.415,468
1569849118,286.085,26.5658,-4.12998,177.539,6.54785,-145.415,468
1569849118,286.085,26.5658,-4.12998,177.539,6.54785,-145.415,468
1569849118,286.085,26.5658,-4.12998,177.539,6.54785,-145.415,468
1569849118,286.085,26.5658,-4.12998,177.539,6.54785,-145.415,468
1569849118,286.085,26.5658,-4.12998,177.539,6.54785,-145.415,468
1569849118,286.085,26.5658,-4.12998,177.539,6.54785,-145.415,468
1569849118,286.085,26.5658,-4.12998,177.539,6.54785,-145.415,468
1569849118,286.085,26.5658,-4.12998,177.539,6.54785,-145.415,468
1569849118,286.085,26.5658,-4.12998,177.539,6.54785,-145.415,468
1569849118,286.085,26.5658,-4.12998,177.539,6.54785,-145.415,468
1569849118,286.085,26.5658,-4.12998,177.561,6.54785,-145.415,468
1569849118,286.085,26.5658,-4.12998,177.561,6.54785,-145.415,468
1569849118,286.085,26.5658,-4.12998,177.561,6.54785,-145.415,472
1569849118,286.085,26.5658,-4.12998,177.561,6.54785,-145.415,472
1569849118,286.085,26.5658,-4.12998,177.561,6.54785,-145.415,472
1569849118,286.085,26.5658,-4.12998,177.561,6.54785,-145.415,472
1569849118,286.085,26.5658,-4.12998,177.561,6.54785,-145.415,472
1569849118,286.085,26.5658,-4.12998,177.561,6.54785,-145.415,472
1569849118,286.085,26.5658,-4.12998,177.561,6.54785,-145.415,472
1569849118,286.085,26.5658,-4.12998,177.561,6.54785,-145.415,472
1569849118,286.085,26.5658,-4.12998,177.561,6.54785,-145.415,472
1569849118,286.085,26.5658,-4.12998,177.561,6.54785,-145.415,472
1569849118,286.085,26.5658,-4.12998,177.561,6.54785,-145.415,472
1569849118,286.085,26.5658,-4.12998,177.561,6.54785,-145.415,472
1569849118,286.085,26.5658,-4.12998,177.561,6.54785,-145.415,476
1569849118,286.085,26.5658,-4.12998,177.561,6.54785,-145.415,476
1569849118,286.085,26.5658,-4.12998,177.561,6.54785,-145.415,476
1569849118,286.085,26.5658,-4.12998,177.539,6.54785,-145.415,476
1569849118,286.085,26.5658,-4.12998,177.539,6.54785,-145.415,476
1569849118,286.085,26.5658,-4.12998,177.539,6.54785,-145.415,476
1569849118,286.085,26.5658,-4.12998,177.539,6.54785,-145.415,476
1569849118,286.085,26.5658,-4.12998,177.539,6.54785,-145.415,476
1569849118,286.085,26.5658,-4.12998,177.539,6.54785,-145.415,480
1569849118,286.085,26.5658,-4.12998,177.539,6.54785,-145.415,480
1569849118,286.085,26.5658,-4.12998,177.539,6.54785,-145.415,480
1569849118,286.085,26.5658,-4.12998,177.539,6.54785,-145.415,480
1569849118,286.085,26.5658,-4.12998,177.539,6.54785,-145.415,480
1569849118,286.085,26.5658,-4.12998,177.539,6.54785,-145.415,480
1569849118,286.085,26.5658,-4.12998,177.539,6.54785,-145.415,484
1569849118,286.085,26.5658,-4.12998,177.539,6.54785,-145.415,484
1569849118,286.085,26.5658,-4.12998,177.539,6.54785,-145.415,484
1569849118,286.085,26.5658,-4.12998,177.539,6.54785,-145.415,484
1569849118,286.085,26.5658,-4.12998,177.539,6.54785,-145.415,484
1569849118,286.085,26.5658,-4.12998,177.539,6.54785,-145.415,484
1569849118,286.085,26.5658,-4.12998,177.539,6.54785,-145.415,484
1569849118,286.085,26.5658,-4.12998,177.539,6.54785,-145.393,488
1569849118,286.085,26.5658,-4.12998,177.539,6.54785,-145.393,488
1569849118,286.085,26.5658,-4.12998,177.539,6.54785,-145.393,488
1569849118,286.085,26.5658,-4.12998,177.539,6.54785,-145.393,488
1569849118,286.085,26.5658,-4.12998,177.539,6.54785,-145.393,488
1569849118,286.085,26.5658,-4.12998,177.539,6.54785,-145.393,488
1569849118,286.085,26.5658,-4.12998,177.561,6.54785,-145.393,484
1569849118,286.085,26.5658,-4.12998,177.561,6.54785,-145.393,484
1569849118,286.085,26.5658,-4.12998,177.561,6.54785,-145.393,484
1569849118,286.085,26.5658,-4.12998,177.561,6.54785,-145.393,484
1569849118,286.085,26.5658,-4.12998,177.561,6.54785,-145.393,484
1569849118,286.085,26.5658,-4.12998,177.561,6.54785,-145.393,484
1569849118,286.085,26.6774,-4.12998,177.561,6.54785,-145.415,484
1569849118,286.085,26.6774,-4.12998,177.561,6.54785,-145.415,484
1569849118,286.085,26.6774,-4.12998,177.561,6.54785,-145.415,484
1569849118,286.085,26.6774,-4.12998,177.561,6.54785,-145.415,484
1569849118,286.085,26.6774,-4.12998,177.561,6.54785,-145.415,484
1569849118,286.085,26.6774,-4.12998,177.561,6.54785,-145.415,484
1569849118,286.085,26.6774,-4.12998,177.561,6.54785,-145.415,484
1569849118,286.085,26.6774,-4.12998,177.561,6.54785,-145.415,484
1569849118,286.085,26.6774,-4.12998,177.561,6.54785,-145.415,484
1569849118,286.085,26.6774,-4.12998,177.561,6.54785,-145.415,484
1569849118,286.085,26.6774,-4.12998,177.561,6.54785,-145.415,484
1569849118,286.085,26.6774,-4.12998,177.561,6.54785,-145.415,484
1569849118,286.085,26.6774,-4.12998,177.561,6.54785,-145.415,484
1569849118,286.085,26.6774,-4.12998,177.561,6.54785,-145.415,484
1569849118,286.085,26.6774,-4.12998,177.561,6.56982,-145.415,484
1569849118,286.085,26.6774,-4.01836,177.561,6.56982,-145.415,484
1569849118,286.085,26.6774,-4.01836,177.561,6.56982,-145.415,484
1569849118,286.085,26.6774,-4.01836,177.561,6.56982,-145.415,484
1569849118,286.085,26.6774,-4.01836,177.561,6.56982,-145.415,484
1569849118,286.085,26.6774,-4.01836,177.561,6.56982,-145.415,480
1569849118,286.085,26.5658,-4.01836,177.561,6.56982,-145.415,480
1569849118,286.085,26.5658,-4.01836,177.539,6.56982,-145.415,480
1569849118,286.085,26.5658,-4.01836,177.539,6.56982,-145.415,480
1569849118,286.085,26.5658,-4.01836,177.539,6.56982,-145.415,480
1569849118,286.085,26.5658,-4.01836,177.539,6.56982,-145.415,480
1569849118,286.085,26.5658,-4.01836,177.539,6.56982,-145.415,480
1569849119,286.085,26.5658,-4.01836,177.539,6.54785,-145.415,480
1569849119,286.085,26.5658,-4.12998,177.539,6.54785,-145.415,476
1569849119,286.085,26.5658,-4.12998,177.539,6.54785,-145.415,476
1569849119,286.085,26.5658,-4.12998,177.539,6.54785,-145.415,476
1569849119,286.085,26.5658,-4.12998,177.539,6.54785,-145.415,476
1569849119,286.085,26.5658,-4.01836,177.539,6.54785,-145.415,476
1569849119,286.085,26.5658,-4.01836,177.539,6.56982,-145.415,476
1569849119,286.085,26.5658,-4.01836,177.539,6.56982,-145.415,476
1569849119,286.085,26.5658,-4.01836,177.539,6.56982,-145.415,476
1569849119,286.085,26.5658,-4.01836,177.539,6.56982,-145.415,476
1569849119,286.085,26.5658,-4.01836,177.539,6.56982,-145.415,476
1569849119,286.085,26.5658,-4.01836,177.539,6.56982,-145.415,476
1569849119,286.085,26.5658,-4.01836,177.539,6.56982,-145.415,476
1569849119,286.085,26.5658,-4.01836,177.539,6.56982,-145.415,476
1569849119,286.085,26.5658,-4.01836,177.539,6.56982,-145.415,476
1569849119,286.085,26.5658,-4.01836,177.539,6.56982,-145.415,476
1569849119,286.085,26.5658,-4.01836,177.539,6.56982,-145.415,476
1569849119,286.085,26.5658,-4.01836,177.539,6.56982,-145.415,472
1569849119,286.085,26.5658,-4.01836,177.539,6.56982,-145.415,472
1569849119,286.085,26.5658,-4.01836,177.539,6.56982,-145.415,472
1569849119,286.085,26.5658,-4.01836,177.539,6.56982,-145.415,472
1569849119,286.085,26.5658,-4.01836,177.539,6.56982,-145.415,472
1569849119,286.085,26.5658,-4.01836,177.539,6.56982,-145.415,472
1569849119,286.085,26.5658,-4.01836,177.539,6.56982,-145.415,472
1569849119,286.085,26.5658,-4.01836,177.539,6.56982,-145.415,472
1569849119,286.085,26.5658,-4.12998,177.539,6.54785,-145.415,472
1569849119,286.085,26.5658,-4.12998,177.539,6.54785,-145.415,472
1569849119,286.085,26.5658,-4.12998,177.561,6.54785,-145.415,472
1569849119,286.085,26.5658,-4.12998,177.561,6.54785,-145.415,472
1569849119,286.085,26.5658,-4.12998,177.561,6.54785,-145.415,476
1569849119,286.085,26.5658,-4.12998,177.561,6.54785,-145.415,476
1569849119,286.085,26.5658,-4.12998,177.561,6.54785,-145.393,476
1569849119,286.085,26.5658,-4.12998,177.539,6.54785,-145.393,476
1569849119,286.085,26.5658,-4.12998,177.539,6.54785,-145.393,476
1569849119,286.085,26.5658,-4.12998,177.539,6.54785,-145.393,476
1569849119,286.085,26.5658,-4.12998,177.539,6.54785,-145.393,476
1569849119,286.085,26.5658,-4.12998,177.539,6.54785,-145.393,476
1569849119,286.085,26.5658,-4.12998,177.539,6.54785,-145.393,476
1569849119,286.085,26.5658,-4.12998,177.539,6.54785,-145.393,476
1569849119,286.085,26.5658,-4.12998,177.539,6.54785,-145.393,476
1569849119,286.085,26.5658,-4.12998,177.539,6.54785,-145.393,476
1569849119,286.085,26.5658,-4.12998,177.539,6.54785,-145.415,476
1569849119,286.085,26.5658,-4.12998,177.539,6.54785,-145.415,476
1569849119,286.085,26.5658,-4.12998,177.539,6.54785,-145.415,476
1569849119,286.085,26.5658,-4.12998,177.539,6.54785,-145.415,476
1569849119,286.085,26.5658,-4.12998,177.539,6.54785,-145.415,476
1569849119,286.085,26.5658,-4.12998,177.539,6.54785,-145.415,476
1569849119,286.085,26.5658,-4.12998,177.539,6.54785,-145.415,476
1569849119,286.085,26.5658,-4.12998,177.539,6.54785,-145.415,476
1569849119,286.085,26.5658,-4.12998,177.539,6.54785,-145.415,476
1569849119,286.085,26.5658,-4.12998,177.539,6.54785,-145.415,476
1569849119,286.085,26.5658,-4.12998,177.539,6.54785,-145.415,476
1569849119,286.085,26.5658,-4.12998,177.539,6.54785,-145.415,476
1569849119,286.085,26.5658,-4.12998,177.539,6.54785,-145.415,476
1569849119,286.085,26.5658,-4.12998,177.539,6.54785,-145.415,476
1569849119,286.085,26.5658,-4.12998,177.539,6.54785,-145.415,476
1569849119,286.085,26.5658,-4.12998,177.539,6.54785,-145.415,476
1569849119,286.085,26.5658,-4.12998,177.539,6.54785,-145.415,476
1569849119,286.085,26.5658,-4.12998,177.539,6.54785,-145.415,476
1569849119,286.085,26.5658,-4.01836,177.539,6.56982,-145.415,476
1569849119,286.085,26.5658,-4.01836,177.539,6.56982,-145.415,476
1569849119,286.085,26.5658,-4.01836,177.539,6.56982,-145.415,476
1569849119,286.085,26.5658,-4.01836,177.539,6.56982,-145.415,476
1569849119,286.085,26.5658,-4.01836,177.539,6.56982,-145.415,476
1569849119,286.085,26.5658,-4.01836,177.539,6.56982,-145.415,476
1569849119,286.085,26.5658,-4.01836,177.539,6.56982,-145.415,476
1569849119,286.085,26.5658,-4.01836,177.539,6.56982,-145.415,476
1569849119,286.085,26.5658,-4.01836,177.539,6.56982,-145.415,476
1569849119,286.085,26.5658,-4.01836,177.539,6.56982,-145.415,476
1569849119,286.085,26.5658,-4.01836,177.539,6.56982,-145.415,476
1569849119,286.085,26.5658,-4.01836,177.539,6.56982,-145.415,476
1569849119,286.085,26.5658,-4.12998,177.539,6.56982,-145.415,476
1569849119,286.085,26.5658,-4.12998,177.539,6.56982,-145.415,476
1569849119,286.085,26.5658,-4.12998,177.539,6.56982,-145.415,476
1569849119,286.085,26.5658,-4.12998,177.539,6.56982,-145.415,476
1569849119,286.085,26.5658,-4.12998,177.539,6.56982,-145.415,476
1569849119,286.085,26.5658,-4.12998,177.539,6.56982,-145.415,476
1569849119,286.085,26.5658,-4.12998,177.539,6.56982,-145.415,476
1569849119,286.085,26.5658,-4.12998,177.539,6.56982,-145.415,476
1569849119,286.085,26.5658,-4.12998,177.539,6.56982,-145.415,476
1569849119,286.085,26.5658,-4.12998,177.539,6.56982,-145.415,476
1569849119,286.085,26.5658,-4.12998,177.539,6.56982,-145.415,476
1569849119,286.085,26.5658,-4.12998,177.539,6.56982,-145.415,476
1569849119,286.085,26.5658,-4.12998,177.539,6.56982,-145.415,476
1569849119,286.085,26.5658,-4.12998,177.539,6.56982,-145.415,476
1569849119,286.085,26.5658,-4.12998,177.539,6.56982,-145.415,476
1569849119,286.085,26.5658,-4.12998,177.539,6.56982,-145.415,476
1569849119,286.085,26.5658,-4.01836,177.539,6.56982,-145.415,476
1569849119,286.085,26.5658,-4.01836,177.539,6.56982,-145.415,476
1569849119,286.085,26.5658,-4.01836,177.539,6.56982,-145.415,476
1569849119,286.085,26.5658,-4.01836,177.561,6.56982,-145.415,476
1569849119,286.085,26.5658,-4.12998,177.561,6.56982,-145.415,476
1569849119,286.085,26.5658,-4.12998,177.561,6.56982,-145.415,476
1569849119,286.085,26.5658,-4.12998,177.561,6.56982,-145.415,476
1569849119,286.085,26.5658,-4.12998,177.561,6.56982,-145.415,480
1569849119,286.085,26.5658,-4.12998,177.561,6.56982,-145.415,480
1569849119,286.085,26.5658,-4.12998,177.561,6.56982,-145.415,480
1569849119,286.085,26.5658,-4.12998,177.561,6.56982,-145.415,480
1569849119,286.085,26.5658,-4.12998,177.561,6.56982,-145.415,480
1569849119,286.085,26.5658,-4.12998,177.561,6.56982,-145.415,480
1569849120,286.085,26.5658,-4.12998,177.561,6.56982,-145.415,480
1569849120,286.085,26.5658,-4.12998,177.561,6.56982,-145.415,480
1569849120,286.085,26.5658,-4.12998,177.561,6.56982,-145.415,480
1569849120,286.085,26.5658,-4.12998,177.561,6.56982,-145.415,480
1569849120,286.085,26.5658,-4.12998,177.561,6.56982,-145.415,480
1569849120,286.085,26.5658,-4.12998,177.561,6.56982,-145.415,480
1569849120,286.085,26.5658,-4.12998,177.561,6.56982,-145.415,480
1569849120,286.085,26.6774,-4.12998,177.561,6.56982,-145.415,480
1569849120,286.085,26.6774,-4.12998,177.561,6.56982,-145.415,480
1569849120,286.085,26.6774,-4.12998,177.561,6.56982,-145.415,480
1569849120,286.085,26.6774,-4.12998,177.561,6.56982,-145.415,480
1569849120,286.085,26.6774,-4.12998,177.561,6.56982,-145.415,480
1569849120,286.085,26.6774,-4.12998,177.561,6.56982,-145.415,480
1569849120,286.085,26.6774,-4.12998,177.561,6.56982,-145.415,480
1569849120,286.085,26.6774,-4.12998,177.561,6.56982,-145.415,480
1569849120,286.085,26.6774,-4.12998,177.561,6.56982,-145.415,480
1569849120,286.085,26.6774,-4.12998,177.561,6.56982,-145.415,476
1569849120,286.085,26.5658,-4.12998,177.561,6.56982,-145.415,476
1569849120,286.085,26.5658,-4.12998,177.561,6.56982,-145.415,476
1569849120,286.085,26.5658,-4.12998,177.561,6.56982,-145.415,476
1569849120,286.085,26.5658,-4.12998,177.561,6.56982,-145.415,476
1569849120,286.085,26.5658,-4.12998,177.561,6.54785,-145.415,476
1569849120,286.085,26.5658,-4.12998,177.561,6.54785,-145.415,476
1569849120,286.085,26.5658,-4.12998,177.561,6.54785,-145.415,476
1569849120,286.085,26.5658,-4.12998,177.539,6.54785,-145.415,476
1569849120,286.085,26.5658,-4.12998,177.539,6.54785,-145.415,476
1569849120,286.085,26.5658,-4.12998,177.539,6.54785,-145.415,476
1569849120,286.085,26.5658,-4.12998,177.539,6.54785,-145.415,476
1569849120,286.085,26.5658,-4.12998,177.539,6.54785,-145.415,476
1569849120,286.085,26.5658,-4.12998,177.539,6.54785,-145.415,476
1569849120,286.085,26.5658,-4.12998,177.561,6.54785,-145.415,476
1569849120,286.085,26.5658,-4.12998,177.561,6.54785,-145.415,476
1569849120,286.085,26.5658,-4.12998,177.561,6.54785,-145.415,476
1569849120,286.085,26.5658,-4.12998,177.561,6.54785,-145.415,476
1569849120,286.085,26.5658,-4.12998,177.561,6.54785,-145.415,476
1569849120,286.085,26.5658,-4.12998,177.561,6.54785,-145.415,476
1569849120,286.085,26.5658,-4.12998,177.561,6.54785,-145.415,476
1569849120,286.085,26.5658,-4.12998,177.561,6.54785,-145.415,476
1569849120,286.085,26.5658,-4.12998,177.561,6.54785,-145.415,480
1569849120,286.085,26.5658,-4.12998,177.561,6.54785,-145.415,480
1569849120,286.085,26.5658,-4.12998,177.561,6.54785,-145.415,480
1569849120,286.085,26.5658,-4.12998,177.561,6.56982,-145.415,480
1569849120,286.085,26.5658,-4.01836,177.561,6.56982,-145.415,480
1569849120,286.085,26.5658,-4.01836,177.561,6.56982,-145.415,480
1569849120,286.085,26.5658,-4.01836,177.561,6.56982,-145.415,480
1569849120,286.085,26.5658,-4.01836,177.561,6.56982,-145.415,480
1569849120,286.085,26.5658,-4.01836,177.561,6.56982,-145.415,480
1569849120,286.085,26.5658,-4.01836,177.561,6.56982,-145.415,480
1569849120,286.085,26.5658,-4.01836,177.561,6.56982,-145.415,480
1569849120,286.085,26.5658,-4.01836,177.561,6.56982,-145.415,480
1569849120,286.085,26.5658,-4.01836,177.561,6.56982,-145.415,480
1569849120,286.085,26.5658,-4.01836,177.561,6.56982,-145.415,480
1569849120,286.085,26.5658,-4.12998,177.561,6.56982,-145.415,480
1569849120,286.085,26.5658,-4.12998,177.561,6.54785,-145.415,480
1569849120,286.085,26.5658,-4.12998,177.561,6.54785,-145.415,480
1569849120,286.085,26.5658,-4.12998,177.561,6.54785,-145.415,480
1569849120,286.085,26.5658,-4.12998,177.561,6.54785,-145.415,480
1569849120,286.085,26.5658,-4.12998,177.561,6.54785,-145.415,480
1569849120,286.085,26.5658,-4.12998,177.561,6.54785,-145.415,476
1569849120,286.085,26.5658,-4.12998,177.561,6.54785,-145.415,476
1569849120,286.085,26.5658,-4.12998,177.561,6.54785,-145.415,476
1569849120,286.085,26.5658,-4.12998,177.561,6.54785,-145.415,476
1569849120,286.085,26.5658,-4.12998,177.561,6.54785,-145.415,476
1569849120,286.085,26.5658,-4.12998,177.561,6.54785,-145.415,476
1569849120,286.085,26.5658,-4.12998,177.561,6.54785,-145.415,476
1569849120,286.085,26.5658,-4.12998,177.561,6.54785,-145.415,476
1569849120,286.085,26.5658,-4.12998,177.561,6.54785,-145.415,476
1569849120,286.085,26.5658,-4.12998,177.561,6.54785,-145.415,476
1569849120,286.085,26.5658,-4.12998,177.561,6.54785,-145.415,476
1569849120,286.085,26.5658,-4.12998,177.561,6.54785,-145.415,476
1569849120,286.085,26.5658,-4.12998,177.561,6.54785,-145.415,476
1569849120,286.085,26.5658,-4.12998,177.561,6.54785,-145.415,476
1569849120,286.085,26.5658,-4.12998,177.561,6.54785,-145.415,480
1569849120,286.085,26.5658,-4.12998,177.561,6.54785,-145.415,480
1569849120,286.085,26.5658,-4.12998,177.561,6.54785,-145.415,480
1569849120,286.085,26.5658,-4.12998,177.561,6.54785,-145.415,480
1569849120,286.085,26.5658,-4.12998,177.561,6.54785,-145.415,480
1569849120,286.085,26.5658,-4.12998,177.561,6.56982,-145.415,480
1569849120,286.085,26.5658,-4.12998,177.561,6.56982,-145.415,480
1569849120,286.085,26.5658,-4.12998,177.561,6.56982,-145.415,480
1569849120,286.085,26.5658,-4.12998,177.561,6.56982,-145.415,480
1569849120,286.085,26.5658,-4.12998,177.561,6.56982,-145.415,480
1569849120,286.085,26.5658,-4.12998,177.539,6.56982,-145.415,480
1569849120,286.085,26.5658,-4.12998,177.539,6.56982,-145.415,480
1569849120,286.085,26.5658,-4.12998,177.539,6.56982,-145.415,480
1569849120,286.085,26.5658,-4.12998,177.539,6.56982,-145.415,480
1569849120,286.085,26.5658,-4.12998,177.539,6.56982,-145.415,480
1569849120,286.085,26.5658,-4.12998,177.539,6.56982,-145.415,484
1569849120,286.085,26.5658,-4.12998,177.539,6.56982,-145.415,484
1569849120,286.085,26.5658,-4.12998,177.539,6.56982,-145.415,484
1569849120,286.085,26.5658,-4.12998,177.539,6.54785,-145.415,484
1569849120,286.085,26.5658,-4.12998,177.539,6.54785,-145.415,484
1569849120,286.085,26.5658,-4.12998,177.539,6.54785,-145.415,484
1569849120,286.085,26.5658,-4.12998,177.539,6.54785,-145.415,484
1569849120,286.085,26.5658,-4.12998,177.539,6.54785,-145.415,484
1569849120,286.085,26.5658,-4.12998,177.539,6.54785,-145.415,484
1569849120,286.085,26.5658,-4.12998,177.539,6.54785,-145.415,484
1569849120,286.085,26.5658,-4.12998,177.539,6.54785,-145.415,484
1569849120,286.085,26.5658,-4.12998,177.539,6.54785,-145.415,484
1569849120,286.085,26.5658,-4.12998,177.539,6.54785,-145.415,484
1569849121,286.085,26.5658,-4.12998,177.539,6.54785,-145.415,484
1569849121,286.085,26.5658,-4.12998,177.539,6.54785,-145.415,484
1569849121,286.085,26.5658,-4.12998,177.539,6.54785,-145.415,484
1569849121,286.085,26.5658,-4.12998,177.539,6.54785,-145.415,484
1569849121,286.085,26.5658,-4.12998,177.539,6.54785,-145.415,484
1569849121,286.085,26.5658,-4.12998,177.539,6.54785,-145.415,484
1569849121,286.085,26.5658,-4.12998,177.539,6.54785,-145.415,484
1569849121,286.085,26.5658,-4.12998,177.539,6.54785,-145.415,484
1569849121,286.085,26.5658,-4.12998,177.539,6.54785,-145.415,484
1569849121,286.085,26.5658,-4.12998,177.539,6.54785,-145.415,484
1569849121,286.085,26.5658,-4.12998,177.539,6.54785,-145.415,484
1569849121,286.085,26.5658,-4.12998,177.539,6.54785,-145.415,484
1569849121,286.085,26.5658,-4.12998,177.539,6.54785,-145.415,484
1569849121,286.085,26.5658,-4.12998,177.539,6.54785,-145.415,480
1569849121,286.085,26.5658,-4.12998,177.539,6.54785,-145.415,480
1569849121,286.085,26.5658,-4.12998,177.539,6.54785,-145.415,480
1569849121,286.085,26.5658,-4.12998,177.539,6.54785,-145.415,480
1569849121,286.085,26.5658,-4.12998,177.539,6.54785,-145.415,480
1569849121,286.085,26.5658,-4.12998,177.539,6.54785,-145.415,480
1569849121,286.085,26.5658,-4.12998,177.539,6.54785,-145.415,476
1569849121,286.085,26.5658,-4.12998,177.539,6.54785,-145.415,476
1569849121,286.085,26.5658,-4.12998,177.539,6.54785,-145.415,476
1569849121,286.085,26.5658,-4.12998,177.539,6.54785,-145.415,476
1569849121,286.085,26.5658,-4.12998,177.539,6.54785,-145.415,476
1569849121,286.085,26.5658,-4.12998,177.539,6.54785,-145.415,476
1569849121,286.085,26.5658,-4.12998,177.539,6.54785,-145.415,476
1569849121,286.085,26.5658,-4.12998,177.539,6.54785,-145.415,476
1569849121,286.085,26.5658,-4.12998,177.539,6.54785,-145.415,476
1569849121,286.085,26.5658,-4.12998,177.539,6.54785,-145.415,472
1569849121,286.085,26.5658,-4.12998,177.539,6.54785,-145.415,472
1569849121,286.085,26.5658,-4.12998,177.539,6.54785,-145.415,472
1569849121,286.085,26.5658,-4.12998,177.539,6.54785,-145.415,472
1569849121,286.085,26.5658,-4.12998,177.539,6.54785,-145.415,472
1569849121,286.085,26.5658,-4.12998,177.539,6.54785,-145.415,472
1569849121,286.085,26.5658,-4.12998,177.539,6.54785,-145.415,472
1569849121,286.085,26.5658,-4.12998,177.539,6.54785,-145.415,472
1569849121,286.085,26.5658,-4.12998,177.539,6.54785,-145.415,472
1569849121,286.085,26.5658,-4.12998,177.539,6.54785,-145.415,472
1569849121,286.085,26.5658,-4.12998,177.539,6.54785,-145.415,472
1569849121,286.085,26.5658,-4.12998,177.539,6.54785,-145.415,472
1569849121,286.085,26.5658,-4.12998,177.539,6.54785,-145.415,472
1569849121,286.085,26.5658,-4.12998,177.539,6.54785,-145.415,472
1569849121,286.085,26.5658,-4.12998,177.539,6.54785,-145.415,472
1569849121,286.085,26.5658,-4.12998,177.539,6.54785,-145.415,476
1569849121,286.085,26.5658,-4.12998,177.539,6.54785,-145.415,476
1569849121,286.085,26.5658,-4.12998,177.539,6.54785,-145.415,476
1569849121,286.085,26.5658,-4.12998,177.539,6.54785,-145.415,476
1569849121,286.085,26.5658,-4.12998,177.539,6.54785,-145.415,476
1569849121,286.085,26.5658,-4.12998,177.539,6.54785,-145.415,476
1569849121,286.085,26.5658,-4.12998,177.539,6.54785,-145.415,476
1569849121,286.085,26.5658,-4.12998,177.539,6.54785,-145.415,476
1569849121,286.085,26.5658,-4.12998,177.539,6.54785,-145.415,480
1569849121,286.085,26.5658,-4.12998,177.539,6.54785,-145.415,480
1569849121,286.085,26.5658,-4.12998,177.539,6.54785,-145.415,480
1569849121,286.085,26.5658,-4.12998,177.539,6.54785,-145.415,480
1569849121,286.085,26.5658,-4.12998,177.539,6.54785,-145.415,480
1569849121,286.085,26.5658,-4.12998,177.539,6.54785,-145.415,480
1569849121,286.085,26.5658,-4.12998,177.539,6.54785,-145.415,480
1569849121,286.085,26.5658,-4.12998,177.539,6.54785,-145.415,480
1569849121,286.085,26.5658,-4.12998,177.539,6.54785,-145.415,480
1569849121,286.085,26.5658,-4.12998,177.539,6.54785,-145.415,480
1569849121,286.085,26.5658,-4.12998,177.539,6.54785,-145.415,480
1569849121,286.085,26.5658,-4.12998,177.539,6.54785,-145.415,480
1569849121,286.085,26.5658,-4.12998,177.539,6.54785,-145.415,480
1569849121,286.085,26.5658,-4.12998,177.539,6.54785,-145.415,480
1569849121,286.085,26.5658,-4.12998,177.539,6.54785,-145.415,480
1569849121,286.085,26.5658,-4.12998,177.539,6.54785,-145.415,480
1569849121,286.085,26.5658,-4.12998,177.539,6.54785,-145.415,480
1569849121,286.085,26.5658,-4.12998,177.539,6.54785,-145.415,480
1569849121,286.085,26.5658,-4.12998,177.539,6.54785,-145.415,480
1569849121,286.085,26.5658,-4.12998,177.539,6.54785,-145.415,480
1569849121,286.085,26.5658,-4.12998,177.539,6.54785,-145.415,480
1569849121,286.085,26.5658,-4.12998,177.539,6.54785,-145.415,480
1569849121,286.085,26.5658,-4.12998,177.539,6.54785,-145.415,480
1569849121,286.085,26.5658,-4.12998,177.539,6.54785,-145.415,480
1569849121,286.085,26.5658,-4.12998,177.539,6.54785,-145.415,480
1569849121,286.085,26.5658,-4.01836,177.539,6.54785,-145.415,480
1569849121,286.085,26.5658,-4.01836,177.539,6.54785,-145.415,480
1569849121,286.085,26.5658,-4.01836,177.539,6.56982,-145.415,480
1569849121,286.085,26.5658,-4.01836,177.539,6.56982,-145.415,480
1569849121,286.085,26.5658,-4.01836,177.539,6.56982,-145.415,480
1569849121,286.085,26.5658,-4.01836,177.539,6.56982,-145.415,480
1569849121,286.085,26.5658,-4.01836,177.539,6.56982,-145.415,480
1569849121,286.085,26.5658,-4.01836,177.539,6.56982,-145.415,480
1569849121,286.085,26.5658,-4.01836,177.539,6.56982,-145.415,480
1569849121,286.085,26.5658,-4.01836,177.539,6.56982,-145.415,480
1569849121,286.085,26.5658,-4.01836,177.517,6.56982,-145.415,480
1569849121,286.085,26.5658,-4.01836,177.517,6.56982,-145.415,480
1569849121,286.085,26.5658,-4.01836,177.517,6.56982,-145.415,480
1569849121,286.085,26.5658,-4.01836,177.517,6.56982,-145.415,480
1569849121,286.085,26.5658,-4.01836,177.517,6.56982,-145.415,480
1569849121,286.085,26.5658,-4.01836,177.539,6.56982,-145.415,480
1569849121,286.085,26.5658,-4.01836,177.539,6.56982,-145.415,480
1569849121,286.085,26.5658,-4.01836,177.539,6.56982,-145.415,480
1569849121,286.085,26.5658,-4.01836,177.539,6.56982,-145.415,480
1569849121,286.085,26.5658,-4.01836,177.539,6.56982,-145.415,480
1569849121,286.085,26.5658,-4.01836,177.539,6.56982,-145.415,480
1569849121,286.085,26.5658,-4.01836,177.539,6.56982,-145.415,480
1569849121,286.085,26.5658,-4.01836,177.539,6.56982,-145.415,476
1569849121,286.085,26.5658,-4.01836,177.539,6.56982,-145.415,476
1569849122,286.085,26.5658,-4.01836,177.539,6.56982,-145.415,476
1569849122,286.085,26.5658,-4.01836,177.539,6.56982,-145.415,476
1569849122,286.085,26.5658,-4.01836,177.539,6.56982,-145.415,476
1569849122,286.085,26.5658,-4.01836,177.539,6.56982,-145.415,476
1569849122,286.085,26.5658,-4.01836,177.539,6.56982,-145.415,476
1569849122,286.085,26.5658,-4.01836,177.539,6.56982,-145.415,476
1569849122,286.085,26.5658,-4.01836,177.539,6.56982,-145.415,476
1569849122,286.085,26.5658,-4.01836,177.539,6.56982,-145.415,476
1569849122,286.085,26.5658,-4.01836,177.539,6.56982,-145.415,476
1569849122,286.085,26.5658,-4.01836,177.539,6.56982,-145.415,476
1569849122,286.085,26.5658,-4.01836,177.539,6.56982,-145.415,476
1569849122,286.085,26.5658,-4.01836,177.539,6.56982,-145.415,476
1569849122,286.085,26.5658,-4.01836,177.539,6.56982,-145.415,476
1569849122,286.085,26.5658,-4.01836,177.539,6.56982,-145.415,476
1569849122,286.085,26.5658,-4.01836,177.539,6.56982,-145.415,476
1569849122,286.085,26.5658,-4.01836,177.539,6.56982,-145.415,476
1569849122,286.085,26.5658,-4.01836,177.539,6.56982,-145.415,476
1569849122,286.085,26.5658,-4.01836,177.539,6.56982,-145.415,476
1569849122,286.085,26.5658,-4.01836,177.539,6.56982,-145.415,476
1569849122,286.085,26.5658,-4.01836,177.539,6.56982,-145.415,476
1569849122,286.085,26.5658,-4.01836,177.539,6.56982,-145.415,480
1569849122,286.085,26.5658,-4.01836,177.539,6.56982,-145.415,480
1569849122,286.085,26.5658,-4.01836,177.539,6.56982,-145.415,480
1569849122,286.085,26.5658,-4.01836,177.539,6.56982,-145.415,480
1569849122,286.085,26.5658,-4.01836,177.539,6.56982,-145.415,480
1569849122,286.085,26.5658,-4.01836,177.539,6.56982,-145.415,480
1569849122,286.085,26.5658,-4.01836,177.539,6.56982,-145.415,480
1569849122,286.085,26.5658,-4.01836,177.539,6.56982,-145.415,480
1569849122,286.085,26.5658,-4.01836,177.539,6.56982,-145.415,480
1569849122,286.085,26.5658,-4.01836,177.539,6.56982,-145.415,480
1569849122,286.085,26.5658,-4.01836,177.539,6.56982,-145.415,480
1569849122,286.085,26.5658,-4.01836,177.539,6.56982,-145.415,480
1569849122,286.085,26.5658,-4.01836,177.539,6.56982,-145.415,480
1569849122,286.085,26.5658,-4.01836,177.539,6.56982,-145.415,480
1569849122,286.085,26.5658,-4.01836,177.539,6.56982,-145.415,480
1569849122,286.085,26.5658,-4.01836,177.539,6.56982,-145.415,480
1569849122,286.085,26.5658,-4.01836,177.539,6.56982,-145.415,480
1569849122,286.085,26.5658,-4.01836,177.539,6.56982,-145.415,480
1569849122,286.085,26.5658,-4.01836,177.539,6.56982,-145.415,480
1569849122,286.085,26.5658,-4.01836,177.539,6.56982,-145.415,480
1569849122,286.085,26.5658,-4.01836,177.539,6.56982,-145.415,480
1569849122,286.085,26.5658,-4.01836,177.539,6.56982,-145.415,480
1569849122,286.085,26.5658,-4.01836,177.539,6.56982,-145.415,480
1569849122,286.085,26.5658,-4.01836,177.539,6.56982,-145.415,480
1569849122,286.085,26.5658,-4.01836,177.539,6.56982,-145.415,480
1569849122,286.085,26.5658,-4.01836,177.539,6.56982,-145.415,484
1569849122,286.085,26.5658,-4.01836,177.517,6.56982,-145.415,484
1569849122,286.085,26.5658,-4.01836,177.517,6.56982,-145.415,484
1569849122,286.085,26.5658,-4.01836,177.517,6.56982,-145.415,484
1569849122,286.085,26.5658,-4.01836,177.517,6.56982,-145.415,484
1569849122,286.085,26.5658,-4.01836,177.517,6.56982,-145.415,484
1569849122,286.085,26.5658,-4.01836,177.539,6.56982,-145.415,484
1569849122,286.085,26.5658,-4.01836,177.539,6.56982,-145.415,484
1569849122,286.085,26.5658,-4.01836,177.539,6.56982,-145.415,484
1569849122,286.085,26.5658,-4.01836,177.539,6.56982,-145.415,484
1569849122,286.085,26.5658,-4.01836,177.539,6.56982,-145.415,484
1569849122,286.085,26.5658,-4.01836,177.539,6.56982,-145.415,484
1569849122,286.085,26.5658,-4.01836,177.539,6.56982,-145.415,484
1569849122,286.085,26.5658,-4.01836,177.539,6.56982,-145.415,484
1569849122,286.085,26.5658,-4.01836,177.539,6.56982,-145.415,484
1569849122,286.085,26.5658,-4.01836,177.539,6.56982,-145.415,480
1569849122,286.085,26.5658,-4.01836,177.539,6.56982,-145.415,480
1569849122,286.085,26.5658,-4.01836,177.539,6.56982,-145.415,480
1569849122,286.085,26.5658,-4.01836,177.539,6.56982,-145.415,480
1569849122,286.085,26.5658,-4.01836,177.539,6.56982,-145.415,480
1569849122,286.085,26.5658,-4.01836,177.539,6.56982,-145.415,480
1569849122,286.085,26.5658,-4.01836,177.539,6.56982,-145.415,480
1569849122,286.085,26.5658,-4.12998,177.539,6.56982,-145.415,480
1569849122,286.085,26.5658,-4.12998,177.539,6.56982,-145.415,480
1569849122,286.085,26.5658,-4.12998,177.539,6.54785,-145.415,480
1569849122,286.085,26.5658,-4.12998,177.539,6.54785,-145.415,476
1569849122,286.085,26.5658,-4.12998,177.539,6.54785,-145.415,476
1569849122,286.085,26.5658,-4.12998,177.539,6.54785,-145.437,476
1569849122,286.085,26.5658,-4.12998,177.539,6.54785,-145.437,476
1569849122,286.085,26.5658,-4.12998,177.539,6.54785,-145.437,476
1569849122,286.085,26.5658,-4.12998,177.539,6.54785,-145.437,476
1569849122,286.085,26.5658,-4.12998,177.539,6.54785,-145.437,476
1569849122,286.085,26.5658,-4.12998,177.539,6.54785,-145.437,476
1569849122,286.085,26.5658,-4.12998,177.539,6.54785,-145.437,476
1569849122,286.085,26.5658,-4.12998,177.539,6.54785,-145.437,476
1569849122,286.085,26.5658,-4.12998,177.539,6.54785,-145.415,476
1569849127,301.823,10.3808,-3.01377,177.737,6.54785,-144.954,696
1569849127,301.823,10.3808,-3.01377,177.737,6.54785,-144.954,696
1569849127,301.823,10.3808,-3.01377,177.737,6.54785,-144.954,696
1569849127,301.823,10.3808,-3.01377,177.737,6.54785,-144.954,696
1569849127,301.823,10.3808,-3.01377,177.737,6.54785,-144.954,696
1569849127,301.823,10.3808,-3.01377,177.737,6.54785,-144.954,696
1569849127,301.823,10.3808,-3.01377,177.737,6.54785,-144.954,696
1569849127,301.823,10.3808,-3.01377,177.737,6.54785,-144.954,696
1569849127,301.823,10.3808,-3.01377,177.737,6.54785,-144.954,696
1569849127,301.823,10.3808,-3.01377,177.737,6.54785,-144.954,696
1569849127,301.823,10.3808,-3.01377,177.737,6.54785,-144.954,696
1569849127,301.823,10.3808,-3.01377,177.737,6.54785,-144.954,696
1569849127,301.823,10.4924,-3.01377,177.737,6.54785,-144.954,696
1569849127,301.823,10.4924,-3.01377,177.737,6.54785,-144.954,696
1569849127,301.823,10.4924,-3.01377,177.737,6.54785,-144.954,696
1569849127,301.823,10.4924,-3.01377,177.737,6.54785,-144.954,696
1569849127,301.823,10.4924,-3.01377,177.737,6.54785,-144.954,700
1569849127,301.823,10.4924,-3.01377,177.737,6.54785,-144.954,700
1569849127,301.823,10.4924,-3.01377,177.737,6.54785,-144.954,700
1569849127,301.823,10.4924,-3.01377,177.737,6.54785,-144.954,700
1569849127,301.823,10.4924,-3.01377,177.737,6.54785,-144.954,700
1569849127,301.823,10.4924,-3.01377,177.737,6.54785,-144.954,700
1569849127,301.823,10.4924,-3.01377,177.737,6.54785,-144.954,700
1569849127,301.823,10.4924,-3.01377,177.737,6.54785,-144.954,700
1569849127,301.823,10.4924,-3.01377,177.737,6.54785,-144.954,700
1569849127,301.823,10.4924,-3.01377,177.737,6.54785,-144.954,700
1569849127,301.823,10.4924,-3.01377,177.737,6.54785,-144.954,700
1569849127,301.823,10.4924,-3.01377,177.737,6.54785,-144.954,700
1569849127,301.823,10.4924,-3.01377,177.737,6.54785,-144.954,700
1569849127,301.823,10.3808,-3.01377,177.737,6.54785,-144.954,700
1569849127,301.823,10.3808,-3.01377,177.737,6.54785,-144.954,704
1569849127,301.823,10.3808,-3.01377,177.737,6.54785,-144.954,704
1569849127,301.823,10.3808,-3.01377,177.737,6.54785,-144.954,704
1569849127,301.823,10.3808,-3.12539,177.737,6.54785,-144.954,704
1569849127,301.823,10.3808,-3.12539,177.737,6.54785,-144.954,704
1569849127,301.823,10.3808,-3.12539,177.737,6.54785,-144.954,704
1569849127,301.935,10.3808,-3.12539,177.737,6.54785,-144.954,704
1569849127,301.935,10.3808,-3.12539,177.737,6.54785,-144.954,704
1569849127,301.935,10.3808,-3.12539,177.737,6.54785,-144.954,708
1569849127,301.935,10.3808,-3.12539,177.737,6.54785,-144.954,708
1569849127,301.935,10.3808,-3.12539,177.737,6.54785,-144.954,708
1569849127,301.935,10.3808,-3.12539,177.737,6.54785,-144.954,708
1569849127,301.935,10.3808,-3.12539,177.737,6.54785,-144.954,708
1569849127,301.935,10.3808,-3.12539,177.737,6.54785,-144.976,708
1569849127,301.935,10.3808,-3.12539,177.737,6.54785,-144.976,708
1569849127,301.935,10.3808,-3.12539,177.737,6.54785,-144.976,708
1569849127,301.935,10.3808,-3.12539,177.737,6.54785,-144.976,708
1569849127,301.935,10.3808,-3.12539,177.737,6.54785,-144.976,708
1569849127,301.935,10.3808,-3.12539,177.737,6.54785,-144.976,708
1569849127,301.935,10.3808,-3.12539,177.737,6.54785,-144.976,708
1569849127,301.935,10.3808,-3.12539,177.737,6.54785,-144.954,708
1569849127,301.935,10.3808,-3.12539,177.737,6.52588,-144.954,708
1569849127,301.935,10.3808,-3.12539,177.737,6.52588,-144.954,708
1569849127,301.935,10.3808,-3.12539,177.737,6.52588,-144.954,708
1569849127,301.935,10.3808,-3.12539,177.737,6.52588,-144.954,708
1569849127,301.935,10.3808,-3.12539,177.737,6.52588,-144.954,708
1569849127,301.935,10.3808,-3.12539,177.737,6.52588,-144.954,708
1569849127,301.935,10.3808,-3.12539,177.737,6.52588,-144.954,708
1569849127,301.935,10.3808,-3.12539,177.737,6.52588,-144.954,708
1569849127,301.935,10.3808,-3.12539,177.737,6.52588,-144.954,708
1569849127,301.935,10.3808,-3.12539,177.737,6.54785,-144.954,708
1569849127,301.823,10.4924,-3.12539,177.737,6.54785,-144.954,708
1569849127,301.823,10.4924,-3.12539,177.737,6.54785,-144.954,708
1569849127,301.823,10.4924,-3.12539,177.737,6.54785,-144.954,708
1569849127,301.823,10.4924,-3.12539,177.737,6.54785,-144.954,708
1569849127,301.823,10.4924,-3.12539,177.737,6.54785,-144.954,708
1569849127,301.823,10.3808,-3.12539,177.737,6.54785,-144.954,708
1569849127,301.823,10.3808,-3.12539,177.737,6.54785,-144.954,708
1569849127,301.823,10.3808,-3.12539,177.737,6.54785,-144.954,708
1569849127,301.823,10.3808,-3.12539,177.737,6.54785,-144.954,708
1569849127,301.823,10.4924,-3.12539,177.737,6.54785,-144.954,708
1569849127,301.823,10.4924,-3.12539,177.737,6.54785,-144.954,708
1569849128,301.823,10.4924,-3.12539,177.737,6.54785,-144.954,708
1569849128,301.935,10.4924,-3.12539,177.737,6.54785,-144.954,708
1569849128,301.935,10.4924,-3.12539,177.737,6.54785,-144.954,708
1569849128,301.935,10.4924,-3.12539,177.737,6.52588,-144.954,708
1569849128,301.935,10.4924,-3.12539,177.737,6.52588,-144.954,708
1569849128,301.935,10.4924,-3.12539,177.737,6.52588,-144.954,708
1569849128,301.935,10.4924,-3.12539,177.737,6.52588,-144.954,708
1569849128,301.935,10.4924,-3.12539,177.737,6.52588,-144.954,708
1569849128,301.935,10.4924,-3.12539,177.737,6.52588,-144.954,708
1569849128,301.935,10.4924,-3.12539,177.737,6.52588,-144.954,708
1569849128,301.935,10.4924,-3.12539,177.737,6.52588,-144.954,708
1569849128,301.935,10.4924,-3.12539,177.737,6.52588,-144.954,708
1569849128,301.935,10.4924,-3.12539,177.737,6.52588,-144.954,708
1569849128,301.935,10.4924,-3.12539,177.737,6.52588,-144.954,708
1569849128,301.935,10.4924,-3.12539,177.737,6.52588,-144.954,708
1569849128,301.935,10.4924,-3.12539,177.759,6.54785,-144.954,712
1569849128,301.935,10.4924,-3.12539,177.737,6.54785,-144.976,712
1569849128,301.935,10.4924,-3.12539,177.737,6.54785,-144.976,712
1569849128,301.935,10.4924,-3.12539,177.737,6.54785,-144.976,712
1569849128,301.935,10.4924,-3.12539,177.737,6.54785,-144.976,712
1569849128,301.935,10.4924,-3.12539,177.737,6.54785,-144.976,712
1569849128,301.935,10.4924,-3.12539,177.737,6.54785,-144.976,712
1569849128,301.935,10.4924,-3.12539,177.737,6.54785,-144.976,712
1569849128,301.935,10.4924,-3.12539,177.737,6.54785,-144.976,712
1569849128,301.823,10.4924,-3.12539,177.737,6.52588,-144.976,712
1569849128,301.823,10.4924,-3.12539,177.737,6.52588,-144.976,712
1569849128,301.823,10.4924,-3.12539,177.737,6.52588,-144.976,712
1569849128,301.823,10.4924,-3.12539,177.737,6.52588,-144.976,708
1569849128,301.823,10.4924,-3.12539,177.737,6.52588,-144.976,708
1569849128,301.823,10.4924,-3.12539,177.737,6.52588,-144.976,708
1569849128,301.823,10.4924,-3.12539,177.737,6.52588,-144.976,708
1569849128,301.823,10.4924,-3.12539,177.737,6.52588,-144.976,708
1569849128,301.823,10.4924,-3.12539,177.737,6.52588,-144.976,708
1569849128,301.823,10.4924,-3.12539,177.737,6.52588,-144.976,708
1569849128,301.823,10.4924,-3.12539,177.737,6.52588,-144.976,708
1569849128,301.823,10.4924,-3.12539,177.737,6.52588,-144.976,708
1569849128,301.823,10.4924,-3.12539,177.737,6.52588,-144.976,704
1569849128,301.823,10.4924,-3.12539,177.737,6.54785,-144.976,704
1569849128,301.823,10.4924,-3.12539,177.737,6.54785,-144.976,704
1569849128,301.823,10.4924,-3.12539,177.737,6.54785,-144.976,704
1569849128,301.823,10.4924,-3.12539,177.737,6.54785,-144.976,704
1569849128,301.823,10.4924,-3.12539,177.737,6.54785,-144.976,704
1569849128,301.823,10.4924,-3.12539,177.737,6.54785,-144.976,704
1569849128,301.823,10.4924,-3.12539,177.737,6.54785,-144.976,704
1569849128,301.823,10.4924,-3.12539,177.737,6.54785,-144.976,704
1569849128,301.823,10.4924,-3.12539,177.737,6.54785,-144.976,704
1569849128,301.823,10.4924,-3.12539,177.737,6.54785,-144.976,700
1569849128,301.823,10.4924,-3.12539,177.737,6.54785,-144.976,700
1569849128,301.823,10.4924,-3.12539,177.737,6.54785,-144.976,700
1569849128,301.823,10.4924,-3.12539,177.737,6.54785,-144.976,700
1569849128,301.823,10.4924,-3.12539,177.737,6.54785,-144.976,700
1569849128,301.823,10.4924,-3.12539,177.737,6.54785,-144.976,700
1569849128,301.823,10.4924,-3.12539,177.737,6.54785,-144.976,700
1569849128,301.823,10.4924,-3.12539,177.737,6.54785,-144.976,700
1569849128,301.823,10.4924,-3.12539,177.737,6.54785,-144.976,700
1569849128,301.823,10.4924,-3.12539,177.737,6.54785,-144.976,700
1569849128,301.823,10.4924,-3.12539,177.737,6.54785,-144.976,700
1569849128,301.823,10.4924,-3.12539,177.737,6.54785,-144.976,700
1569849128,301.823,10.4924,-3.12539,177.737,6.54785,-144.976,700
1569849128,301.823,10.4924,-3.12539,177.737,6.54785,-144.976,700
1569849128,301.823,10.4924,-3.12539,177.737,6.54785,-144.976,700
1569849128,301.823,10.4924,-3.12539,177.737,6.54785,-144.976,700
1569849128,301.823,10.4924,-3.12539,177.737,6.54785,-144.976,700
1569849128,301.823,10.4924,-3.12539,177.737,6.54785,-144.976,700
1569849128,301.823,10.4924,-3.12539,177.737,6.54785,-144.976,700
1569849128,301.823,10.4924,-3.12539,177.737,6.54785,-144.976,700
1569849128,301.823,10.4924,-3.12539,177.737,6.54785,-144.976,700
1569849128,301.823,10.4924,-3.12539,177.737,6.54785,-144.976,700
1569849128,301.823,10.4924,-3.01377,177.737,6.54785,-144.976,700
1569849128,301.823,10.4924,-3.01377,177.759,6.54785,-144.976,700
1569849128,301.823,10.4924,-3.01377,177.759,6.54785,-144.976,700
1569849128,301.823,10.4924,-3.01377,177.759,6.54785,-144.976,700
1569849128,301.823,10.4924,-3.01377,177.759,6.54785,-144.976,700
1569849128,301.823,10.4924,-3.01377,177.759,6.54785,-144.976,700
1569849128,301.823,10.4924,-3.01377,177.759,6.54785,-144.976,700
1569849128,301.823,10.4924,-3.01377,177.759,6.54785,-144.976,700
1569849128,301.823,10.4924,-3.12539,177.759,6.54785,-144.976,700
1569849128,301.823,10.4924,-3.12539,177.759,6.54785,-144.976,700
1569849128,301.823,10.4924,-3.12539,177.759,6.54785,-144.976,700
1569849128,301.823,10.4924,-3.12539,177.759,6.54785,-144.976,700
1569849128,301.823,10.4924,-3.12539,177.759,6.54785,-144.976,700
1569849128,301.823,10.4924,-3.12539,177.759,6.54785,-144.976,700
1569849128,301.823,10.4924,-3.12539,177.759,6.54785,-144.976,700
1569849128,301.823,10.4924,-3.12539,177.737,6.54785,-144.976,700
1569849128,301.823,10.4924,-3.12539,177.737,6.54785,-144.976,700
1569849128,301.823,10.4924,-3.12539,177.737,6.54785,-144.976,700
1569849128,301.823,10.4924,-3.12539,177.737,6.54785,-144.976,700
1569849128,301.823,10.4924,-3.12539,177.737,6.54785,-144.976,700
1569849128,301.823,10.4924,-3.12539,177.737,6.54785,-144.976,700
1569849128,301.823,10.4924,-3.12539,177.737,6.54785,-144.976,700
1569849128,301.823,10.4924,-3.12539,177.737,6.54785,-144.976,700
1569849128,301.823,10.4924,-3.12539,177.737,6.54785,-144.976,700
1569849128,301.823,10.4924,-3.12539,177.737,6.54785,-144.976,700
1569849128,301.823,10.4924,-3.12539,177.737,6.54785,-144.976,700
1569849128,301.935,10.4924,-3.12539,177.737,6.54785,-144.976,700
1569849128,301.935,10.4924,-3.12539,177.737,6.54785,-144.976,700
1569849128,301.935,10.4924,-3.12539,177.737,6.54785,-144.976,700
1569849128,301.935,10.4924,-3.12539,177.737,6.54785,-144.976,700
1569849128,301.935,10.4924,-3.12539,177.737,6.54785,-144.976,700
1569849128,301.935,10.4924,-3.12539,177.737,6.54785,-144.976,700
1569849129,301.935,10.4924,-3.12539,177.737,6.54785,-144.976,700
1569849129,301.935,10.4924,-3.12539,177.737,6.54785,-144.976,700
1569849129,301.935,10.4924,-3.12539,177.737,6.54785,-144.976,700
1569849129,301.935,10.4924,-3.12539,177.737,6.54785,-144.976,704
1569849129,301.935,10.4924,-3.12539,177.737,6.54785,-144.976,704
1569849129,301.935,10.4924,-3.12539,177.737,6.54785,-144.976,704
1569849129,301.935,10.4924,-3.12539,177.737,6.54785,-144.976,704
1569849129,301.935,10.4924,-3.12539,177.737,6.54785,-144.976,704
1569849129,301.935,10.4924,-3.12539,177.737,6.54785,-144.976,704
1569849129,301.935,10.4924,-3.12539,177.737,6.54785,-144.976,704
1569849129,301.935,10.4924,-3.12539,177.737,6.54785,-144.976,704
1569849129,301.935,10.4924,-3.12539,177.737,6.54785,-144.976,708
1569849129,301.935,10.4924,-3.12539,177.737,6.54785,-144.976,708
1569849129,301.935,10.4924,-3.12539,177.737,6.54785,-144.976,708
1569849129,301.935,10.4924,-3.12539,177.737,6.54785,-144.976,708
1569849129,301.935,10.4924,-3.12539,177.737,6.54785,-144.976,708
1569849129,301.935,10.4924,-3.12539,177.737,6.54785,-144.976,708
1569849129,301.935,10.4924,-3.12539,177.737,6.54785,-144.976,708
1569849129,301.935,10.4924,-3.12539,177.737,6.54785,-144.976,708
1569849129,301.935,10.4924,-3.12539,177.737,6.54785,-144.976,708
1569849129,301.935,10.4924,-3.12539,177.737,6.54785,-144.976,708
1569849129,301.935,10.4924,-3.12539,177.737,6.54785,-144.976,708
1569849129,301.935,10.4924,-3.12539,177.737,6.54785,-144.976,708
1569849129,301.935,10.4924,-3.12539,177.737,6.54785,-144.976,708
1569849129,301.935,10.4924,-3.12539,177.737,6.54785,-144.976,708
1569849129,301.823,10.4924,-3.12539,177.737,6.54785,-144.976,708
1569849129,301.823,10.4924,-3.12539,177.737,6.54785,-144.954,708
1569849129,301.823,10.4924,-3.12539,177.737,6.54785,-144.954,708
1569849129,301.823,10.4924,-3.12539,177.737,6.54785,-144.954,708
1569849129,301.823,10.4924,-3.12539,177.737,6.54785,-144.954,708
1569849129,301.823,10.4924,-3.01377,177.737,6.54785,-144.954,708
1569849129,301.823,10.4924,-3.01377,177.737,6.54785,-144.954,704
1569849129,301.823,10.4924,-3.01377,177.737,6.54785,-144.976,704
1569849129,301.823,10.4924,-3.01377,177.737,6.54785,-144.976,704
1569849129,301.823,10.4924,-3.01377,177.737,6.54785,-144.976,704
1569849129,301.823,10.4924,-3.01377,177.737,6.54785,-144.976,704
1569849129,301.823,10.4924,-3.01377,177.737,6.54785,-144.976,704
1569849129,301.823,10.4924,-3.01377,177.737,6.54785,-144.976,704
1569849129,301.823,10.4924,-3.01377,177.737,6.54785,-144.976,700
1569849129,301.823,10.4924,-3.01377,177.737,6.54785,-144.976,700
1569849129,301.823,10.4924,-3.01377,177.737,6.54785,-144.976,700
1569849129,301.823,10.4924,-3.01377,177.737,6.54785,-144.976,700
1569849129,301.823,10.4924,-3.01377,177.737,6.54785,-144.976,700
1569849129,301.823,10.3808,-3.01377,177.737,6.54785,-144.976,700
1569849129,301.823,10.3808,-3.01377,177.737,6.54785,-144.976,700
1569849129,301.823,10.3808,-3.01377,177.737,6.54785,-144.976,700
1569849129,301.823,10.3808,-3.01377,177.737,6.54785,-144.954,700
1569849129,301.823,10.3808,-3.01377,177.737,6.54785,-144.954,696
1569849129,301.823,10.3808,-3.01377,177.737,6.54785,-144.954,696
1569849129,301.823,10.3808,-3.01377,177.737,6.54785,-144.954,696
1569849129,301.823,10.3808,-3.01377,177.737,6.54785,-144.954,696
1569849129,301.823,10.3808,-3.01377,177.737,6.54785,-144.954,696
1569849129,301.823,10.3808,-3.01377,177.737,6.54785,-144.954,696
1569849129,301.823,10.3808,-3.01377,177.737,6.54785,-144.954,696
1569849129,301.823,10.3808,-3.01377,177.737,6.54785,-144.954,696
1569849129,301.823,10.3808,-3.01377,177.737,6.54785,-144.954,696
1569849129,301.823,10.3808,-3.01377,177.737,6.54785,-144.954,696
1569849129,301.823,10.3808,-3.12539,177.737,6.54785,-144.954,700
1569849129,301.823,10.3808,-3.12539,177.737,6.54785,-144.954,700
1569849129,301.823,10.3808,-3.12539,177.737,6.54785,-144.954,700
1569849129,301.823,10.3808,-3.12539,177.737,6.54785,-144.954,700
1569849129,301.823,10.3808,-3.12539,177.737,6.54785,-144.954,700
1569849129,301.823,10.3808,-3.12539,177.737,6.54785,-144.954,700
1569849129,301.823,10.3808,-3.12539,177.737,6.54785,-144.954,700
1569849129,301.823,10.3808,-3.12539,177.737,6.54785,-144.954,700
1569849129,301.823,10.3808,-3.12539,177.737,6.54785,-144.954,700
1569849129,301.823,10.3808,-3.12539,177.737,6.54785,-144.976,700
1569849129,301.823,10.3808,-3.12539,177.737,6.54785,-144.976,700
1569849129,301.823,10.3808,-3.12539,177.737,6.54785,-144.976,700
1569849129,301.823,10.3808,-3.12539,177.737,6.54785,-144.976,700
1569849129,301.823,10.3808,-3.12539,177.715,6.54785,-144.976,700
1569849129,301.823,10.3808,-3.12539,177.715,6.54785,-144.976,700
1569849129,301.823,10.3808,-3.12539,177.737,6.54785,-144.976,700
1569849129,301.823,10.3808,-3.12539,177.737,6.54785,-144.976,700
1569849129,301.823,10.3808,-3.12539,177.737,6.54785,-144.954,700
1569849129,301.823,10.3808,-3.12539,177.737,6.54785,-144.954,700
1569849129,301.823,10.3808,-3.12539,177.737,6.54785,-144.954,700
1569849129,301.823,10.3808,-3.12539,177.737,6.54785,-144.976,700
1569849129,301.823,10.3808,-3.12539,177.737,6.54785,-144.976,700
1569849129,301.823,10.3808,-3.12539,177.737,6.54785,-144.976,700
1569849129,301.823,10.3808,-3.12539,177.737,6.54785,-144.976,696
1569849129,301.823,10.3808,-3.12539,177.737,6.54785,-144.976,696
1569849129,301.823,10.3808,-3.12539,177.737,6.54785,-144.976,696
1569849129,301.823,10.3808,-3.12539,177.737,6.54785,-144.976,696
1569849129,301.823,10.3808,-3.12539,177.737,6.54785,-144.976,696
1569849129,301.823,10.3808,-3.12539,177.737,6.54785,-144.976,696
1569849129,301.823,10.3808,-3.12539,177.737,6.54785,-144.976,696
1569849129,301.823,10.3808,-3.12539,177.737,6.54785,-144.976,696
1569849129,301.823,10.3808,-3.01377,177.737,6.54785,-144.976,696
1569849129,301.823,10.4924,-3.01377,177.737,6.54785,-144.976,696
1569849129,301.823,10.4924,-3.01377,177.737,6.54785,-144.976,696
1569849129,301.823,10.4924,-3.01377,177.737,6.54785,-144.976,696
1569849129,301.823,10.4924,-3.01377,177.737,6.54785,-144.976,696
1569849129,301.823,10.4924,-3.01377,177.737,6.54785,-144.976,696
1569849129,301.823,10.4924,-3.01377,177.737,6.54785,-144.976,696
1569849129,301.823,10.4924,-3.01377,177.737,6.54785,-144.976,696
1569849129,301.823,10.4924,-3.01377,177.737,6.54785,-144.976,696
1569849129,301.823,10.4924,-3.01377,177.737,6.54785,-144.976,696
1569849129,301.823,10.4924,-3.01377,177.737,6.54785,-144.976,696
1569849129,301.823,10.4924,-3.12539,177.737,6.54785,-144.976,696
1569849130,301.823,10.3808,-3.12539,177.737,6.54785,-144.976,696
1569849130,301.823,10.3808,-3.12539,177.737,6.54785,-144.976,696
1569849130,301.823,10.3808,-3.12539,177.737,6.54785,-144.976,696
1569849130,301.823,10.3808,-3.01377,177.737,6.54785,-144.976,696
1569849130,301.823,10.3808,-3.01377,177.737,6.54785,-144.976,696
1569849130,301.823,10.3808,-3.01377,177.737,6.54785,-144.976,696
1569849130,301.823,10.3808,-3.01377,177.737,6.54785,-144.976,696
1569849130,301.823,10.3808,-3.01377,177.737,6.54785,-144.976,696
1569849130,301.823,10.3808,-3.01377,177.737,6.54785,-144.976,696
1569849130,301.823,10.3808,-3.01377,177.737,6.54785,-144.976,696
1569849130,301.823,10.3808,-3.01377,177.737,6.54785,-144.976,696
1569849130,301.823,10.3808,-3.01377,177.737,6.54785,-144.976,696
1569849130,301.823,10.3808,-3.01377,177.737,6.54785,-144.976,696
1569849130,301.823,10.3808,-3.12539,177.737,6.54785,-144.976,696
1569849130,301.823,10.3808,-3.12539,177.737,6.54785,-144.976,696
1569849130,301.823,10.3808,-3.12539,177.737,6.54785,-144.954,696
1569849130,301.823,10.3808,-3.12539,177.737,6.54785,-144.954,696
1569849130,301.823,10.4924,-3.12539,177.737,6.54785,-144.954,696
1569849130,301.823,10.4924,-3.12539,177.737,6.54785,-144.954,696
1569849130,301.823,10.4924,-3.12539,177.737,6.54785,-144.954,696
1569849130,301.823,10.4924,-3.12539,177.737,6.54785,-144.954,700
1569849130,301.823,10.4924,-3.12539,177.737,6.54785,-144.954,700
1569849130,301.823,10.4924,-3.12539,177.737,6.54785,-144.954,700
1569849130,301.823,10.4924,-3.12539,177.737,6.54785,-144.954,700
1569849130,301.823,10.4924,-3.12539,177.737,6.54785,-144.954,700
1569849130,301.823,10.4924,-3.12539,177.759,6.54785,-144.954,700
1569849130,301.823,10.4924,-3.12539,177.759,6.54785,-144.954,700
1569849130,301.823,10.4924,-3.12539,177.759,6.54785,-144.954,700
1569849130,301.823,10.4924,-3.12539,177.759,6.54785,-144.954,700
1569849130,301.823,10.4924,-3.12539,177.759,6.54785,-144.954,700
1569849130,301.823,10.4924,-3.12539,177.759,6.54785,-144.954,700
1569849130,301.823,10.4924,-3.12539,177.737,6.54785,-144.954,700
1569849130,301.823,10.4924,-3.12539,177.737,6.54785,-144.954,700
1569849130,301.823,10.4924,-3.12539,177.737,6.54785,-144.976,700
1569849130,301.823,10.4924,-3.12539,177.737,6.54785,-144.976,700
1569849130,301.823,10.4924,-3.12539,177.737,6.54785,-144.976,700
1569849130,301.823,10.4924,-3.12539,177.737,6.54785,-144.976,700
1569849130,301.823,10.4924,-3.12539,177.737,6.54785,-144.976,700
1569849130,301.823,10.4924,-3.12539,177.737,6.54785,-144.976,700
1569849130,301.823,10.4924,-3.12539,177.737,6.54785,-144.976,704
1569849130,301.823,10.4924,-3.01377,177.737,6.54785,-144.976,704
1569849130,301.823,10.4924,-3.01377,177.737,6.54785,-144.976,704
1569849130,301.823,10.4924,-3.01377,177.737,6.54785,-144.976,704
1569849130,301.823,10.4924,-3.01377,177.737,6.54785,-144.976,704
1569849130,301.823,10.4924,-3.01377,177.737,6.54785,-144.976,704
1569849130,301.823,10.3808,-3.01377,177.737,6.54785,-144.976,704
1569849130,301.823,10.3808,-3.01377,177.737,6.56982,-144.976,704
1569849130,301.823,10.3808,-3.01377,177.737,6.56982,-144.976,704
1569849130,301.823,10.3808,-3.01377,177.737,6.56982,-144.976,704
1569849130,301.823,10.3808,-3.01377,177.737,6.56982,-144.976,704
1569849130,301.823,10.3808,-3.01377,177.737,6.56982,-144.976,704
1569849130,301.823,10.3808,-3.01377,177.737,6.56982,-144.976,704
1569849130,301.823,10.3808,-3.01377,177.737,6.56982,-144.976,704
1569849130,301.823,10.3808,-3.01377,177.737,6.56982,-144.976,704
1569849130,301.823,10.3808,-3.01377,177.737,6.56982,-144.976,704
1569849130,301.823,10.3808,-3.01377,177.737,6.56982,-144.976,704
1569849130,301.823,10.3808,-3.01377,177.737,6.56982,-144.976,704
1569849130,301.823,10.3808,-3.01377,177.737,6.56982,-144.976,704
1569849130,301.823,10.3808,-3.01377,177.737,6.56982,-144.976,708
1569849130,301.823,10.3808,-3.01377,177.737,6.56982,-144.976,708
1569849130,301.823,10.3808,-3.01377,177.737,6.56982,-144.976,708
1569849130,301.823,10.3808,-3.01377,177.737,6.56982,-144.976,708
1569849130,301.823,10.3808,-3.01377,177.737,6.56982,-144.976,708
1569849130,301.823,10.3808,-3.01377,177.737,6.56982,-144.976,708
1569849130,301.823,10.3808,-3.01377,177.737,6.56982,-144.976,708
1569849130,301.823,10.3808,-3.01377,177.737,6.56982,-144.976,708
1569849130,301.823,10.3808,-3.01377,177.737,6.56982,-144.976,708
1569849130,301.823,10.3808,-3.01377,177.737,6.56982,-144.976,704
1569849130,301.823,10.3808,-3.01377,177.737,6.56982,-144.976,704
1569849130,301.823,10.3808,-3.01377,177.737,6.56982,-144.976,704
1569849130,301.823,10.3808,-3.01377,177.737,6.56982,-144.976,704
1569849130,301.823,10.3808,-3.01377,177.737,6.56982,-144.976,704
1569849130,301.823,10.3808,-3.01377,177.737,6.56982,-144.976,704
1569849130,301.823,10.4924,-3.01377,177.737,6.56982,-144.976,704
1569849130,301.823,10.4924,-3.01377,177.737,6.56982,-144.976,704
1569849130,301.823,10.4924,-3.01377,177.737,6.54785,-144.976,708
1569849130,301.935,10.4924,-3.01377,177.737,6.54785,-144.954,708
1569849130,301.935,10.4924,-3.01377,177.737,6.54785,-144.954,708
1569849130,301.935,10.4924,-3.01377,177.737,6.54785,-144.954,708
1569849130,301.935,10.4924,-3.12539,177.737,6.54785,-144.954,708
1569849130,301.935,10.4924,-3.12539,177.737,6.54785,-144.954,708
1569849130,301.935,10.4924,-3.12539,177.737,6.54785,-144.954,708
1569849130,301.935,10.4924,-3.12539,177.737,6.54785,-144.954,708
1569849130,301.935,10.4924,-3.12539,177.737,6.54785,-144.954,708
1569849130,301.935,10.4924,-3.12539,177.737,6.54785,-144.954,708
1569849130,301.823,10.4924,-3.12539,177.737,6.54785,-144.954,708
1569849130,301.823,10.4924,-3.12539,177.737,6.54785,-144.954,708
1569849130,301.823,10.3808,-3.12539,177.737,6.54785,-144.954,708
1569849130,301.823,10.3808,-3.12539,177.737,6.54785,-144.954,708
1569849130,301.823,10.3808,-3.12539,177.737,6.54785,-144.954,708
1569849130,301.823,10.4924,-3.12539,177.737,6.54785,-144.954,708
1569849130,301.823,10.4924,-3.12539,177.737,6.54785,-144.954,708
1569849130,301.823,10.4924,-3.12539,177.737,6.54785,-144.954,708
1569849130,301.935,10.4924,-3.12539,177.737,6.54785,-144.954,708
1569849130,301.935,10.4924,-3.12539,177.737,6.54785,-144.954,708
1569849130,301.935,10.4924,-3.12539,177.737,6.54785,-144.976,708
1569849130,301.935,10.4924,-3.12539,177.737,6.52588,-144.976,708
1569849130,301.935,10.4924,-3.12539,177.737,6.52588,-144.976,708
1569849130,301.935,10.4924,-3.12539,177.737,6.52588,-144.976,708
1569849130,301.935,10.4924,-3.12539,177.759,6.52588,-144.976,708
1569849131,301.935,10.4924,-3.12539,177.759,6.54785,-144.976,708
1569849131,301.935,10.4924,-3.12539,177.759,6.54785,-144.976,708
1569849131,301.935,10.4924,-3.12539,177.759,6.54785,-144.976,708
1569849131,301.823,10.4924,-3.12539,177.759,6.54785,-144.976,708
1569849131,301.823,10.4924,-3.12539,177.759,6.54785,-144.976,708
1569849131,301.823,10.4924,-3.12539,177.759,6.54785,-144.976,708
1569849131,301.823,10.4924,-3.12539,177.759,6.54785,-144.976,708
1569849131,301.823,10.4924,-3.12539,177.759,6.54785,-144.976,708
1569849131,301.823,10.4924,-3.12539,177.759,6.54785,-144.976,704
1569849131,301.823,10.4924,-3.12539,177.759,6.54785,-144.976,704
1569849131,301.823,10.4924,-3.12539,177.759,6.54785,-144.976,704
1569849131,301.823,10.4924,-3.12539,177.759,6.54785,-144.976,704
1569849131,301.823,10.4924,-3.12539,177.759,6.54785,-144.976,704
1569849131,301.823,10.4924,-3.01377,177.759,6.54785,-144.976,704
1569849131,301.823,10.4924,-3.01377,177.759,6.54785,-144.976,700
1569849131,301.823,10.4924,-3.01377,177.737,6.54785,-144.976,700
1569849131,301.823,10.4924,-3.01377,177.737,6.54785,-144.976,700
1569849131,301.823,10.4924,-3.01377,177.737,6.54785,-144.976,700
1569849131,301.823,10.4924,-3.01377,177.737,6.54785,-144.976,700
1569849131,301.823,10.4924,-3.01377,177.737,6.54785,-144.976,696
1569849131,301.823,10.4924,-3.01377,177.737,6.54785,-144.976,696
1569849131,301.823,10.4924,-3.01377,177.737,6.54785,-144.976,696
1569849131,301.823,10.4924,-3.01377,177.737,6.54785,-144.976,696
1569849131,301.823,10.4924,-3.01377,177.737,6.54785,-144.976,696
1569849131,301.823,10.4924,-3.01377,177.737,6.54785,-144.976,696
1569849131,301.823,10.4924,-3.01377,177.737,6.54785,-144.976,696
1569849131,301.823,10.4924,-3.01377,177.737,6.54785,-144.976,696
1569849131,301.823,10.4924,-3.01377,177.737,6.54785,-144.976,696
1569849131,301.823,10.4924,-3.01377,177.737,6.54785,-144.976,696
1569849131,301.823,10.4924,-3.01377,177.737,6.54785,-144.976,696
1569849131,301.823,10.4924,-3.01377,177.737,6.54785,-144.976,696
1569849131,301.823,10.4924,-3.01377,177.737,6.54785,-144.976,696
1569849131,301.823,10.4924,-3.01377,177.737,6.54785,-144.976,696
1569849131,301.823,10.4924,-3.01377,177.737,6.54785,-144.976,696
1569849131,301.823,10.4924,-3.01377,177.737,6.54785,-144.976,696
1569849131,301.823,10.4924,-3.01377,177.737,6.54785,-144.976,696
1569849131,301.823,10.4924,-3.01377,177.737,6.54785,-144.976,696
1569849131,301.823,10.4924,-3.01377,177.737,6.54785,-144.976,696
1569849131,301.823,10.4924,-3.01377,177.737,6.54785,-144.976,700
1569849131,301.823,10.4924,-3.01377,177.737,6.54785,-144.976,700
1569849131,301.823,10.4924,-3.01377,177.737,6.54785,-144.976,700
1569849131,301.823,10.4924,-3.01377,177.737,6.54785,-144.976,700
1569849131,301.823,10.4924,-3.01377,177.737,6.54785,-144.976,700
1569849131,301.823,10.4924,-3.01377,177.737,6.54785,-144.976,700
1569849131,301.823,10.4924,-3.01377,177.737,6.54785,-144.976,700
1569849131,301.823,10.4924,-3.01377,177.759,6.54785,-144.976,700
1569849131,301.823,10.4924,-3.01377,177.759,6.54785,-144.976,700
1569849131,301.823,10.4924,-3.01377,177.759,6.54785,-144.976,700
1569849131,301.823,10.4924,-3.01377,177.759,6.54785,-144.976,704
1569849131,301.823,10.4924,-3.01377,177.759,6.54785,-144.976,704
1569849131,301.823,10.4924,-3.01377,177.759,6.54785,-144.976,704
1569849131,301.823,10.4924,-3.01377,177.759,6.54785,-144.976,704
1569849131,301.823,10.4924,-3.01377,177.759,6.54785,-144.976,704
1569849131,301.823,10.4924,-3.01377,177.759,6.54785,-144.976,704
1569849131,301.823,10.4924,-3.01377,177.759,6.54785,-144.976,704
1569849131,301.823,10.4924,-3.01377,177.759,6.54785,-144.976,704
1569849131,301.823,10.4924,-3.01377,177.737,6.54785,-144.976,704
1569849131,301.823,10.4924,-3.01377,177.737,6.54785,-144.976,704
1569849131,301.823,10.4924,-3.01377,177.737,6.54785,-144.976,704
1569849131,301.823,10.4924,-3.01377,177.737,6.54785,-144.976,704
1569849131,301.823,10.4924,-3.01377,177.737,6.54785,-144.976,704
1569849131,301.823,10.4924,-3.12539,177.737,6.54785,-144.976,704
1569849131,301.823,10.4924,-3.12539,177.737,6.54785,-144.976,708
1569849131,301.823,10.4924,-3.12539,177.737,6.54785,-144.976,708
1569849131,301.823,10.4924,-3.12539,177.737,6.54785,-144.976,708
1569849131,301.823,10.4924,-3.12539,177.737,6.54785,-144.976,708
1569849131,301.823,10.4924,-3.12539,177.737,6.54785,-144.976,708
1569849131,301.823,10.4924,-3.12539,177.737,6.54785,-144.976,708
1569849131,301.823,10.4924,-3.12539,177.737,6.54785,-144.976,708
1569849131,301.823,10.4924,-3.12539,177.737,6.54785,-144.976,708
1569849131,301.823,10.4924,-3.12539,177.737,6.54785,-144.976,708
1569849131,301.823,10.3808,-3.12539,177.737,6.54785,-144.976,708
1569849131,301.823,10.3808,-3.12539,177.737,6.54785,-144.976,708
1569849131,301.823,10.3808,-3.12539,177.737,6.54785,-144.976,708
1569849131,301.823,10.3808,-3.12539,177.737,6.54785,-144.976,708
1569849131,301.823,10.3808,-3.12539,177.737,6.54785,-144.976,708
1569849131,301.823,10.3808,-3.12539,177.737,6.54785,-144.976,708
1569849131,301.823,10.3808,-3.12539,177.737,6.54785,-144.976,708
1569849131,301.823,10.3808,-3.12539,177.737,6.54785,-144.976,708
1569849131,301.823,10.3808,-3.12539,177.737,6.54785,-144.976,708
1569849131,301.823,10.3808,-3.12539,177.715,6.54785,-144.976,708
1569849131,301.823,10.3808,-3.12539,177.715,6.54785,-144.976,708
1569849131,301.823,10.3808,-3.12539,177.715,6.54785,-144.976,708
1569849131,301.823,10.3808,-3.12539,177.715,6.54785,-144.976,708
1569849131,301.823,10.3808,-3.12539,177.715,6.54785,-144.976,708
1569849131,301.823,10.3808,-3.12539,177.715,6.54785,-144.976,708
1569849131,301.823,10.3808,-3.12539,177.715,6.54785,-144.976,708
1569849131,301.823,10.3808,-3.12539,177.715,6.54785,-144.976,708
1569849131,301.823,10.3808,-3.12539,177.737,6.54785,-144.976,708
1569849131,301.823,10.3808,-3.12539,177.737,6.54785,-144.976,708
1569849131,301.823,10.3808,-3.12539,177.737,6.54785,-144.976,708
1569849131,301.823,10.3808,-3.12539,177.737,6.54785,-144.976,708
1569849131,301.823,10.3808,-3.12539,177.737,6.52588,-144.976,708
1569849131,301.823,10.3808,-3.12539,177.737,6.52588,-144.976,708
1569849131,301.823,10.3808,-3.12539,177.737,6.52588,-144.976,708
1569849131,301.823,10.4924,-3.12539,177.737,6.52588,-144.976,708
1569849131,301.823,10.4924,-3.12539,177.737,6.52588,-144.976,708
1569849131,301.823,10.4924,-3.12539,177.737,6.52588,-144.976,708
1569849131,301.823,10.4924,-3.12539,177.737,6.52588,-144.976,708
1569849131,301.823,10.4924,-3.12539,177.737,6.52588,-144.976,708
1569849132,301.823,10.4924,-3.12539,177.737,6.52588,-144.976,708
1569849132,301.823,10.4924,-3.12539,177.737,6.52588,-144.976,708
1569849132,301.823,10.4924,-3.12539,177.737,6.52588,-144.976,708
1569849132,301.823,10.4924,-3.12539,177.737,6.52588,-144.976,708
1569849132,301.823,10.4924,-3.12539,177.737,6.52588,-144.976,708
1569849132,301.823,10.4924,-3.12539,177.737,6.54785,-144.976,708
1569849132,301.823,10.4924,-3.12539,177.737,6.54785,-144.976,708
1569849132,301.823,10.4924,-3.12539,177.737,6.54785,-144.976,708
1569849132,301.823,10.4924,-3.12539,177.737,6.54785,-144.976,708
1569849132,301.823,10.4924,-3.12539,177.737,6.54785,-144.976,708
1569849132,301.823,10.4924,-3.12539,177.737,6.54785,-144.976,708
1569849132,301.823,10.4924,-3.12539,177.737,6.54785,-144.976,708
1569849132,301.823,10.4924,-3.12539,177.737,6.54785,-144.976,708
1569849132,301.823,10.4924,-3.12539,177.737,6.54785,-144.976,704
1569849132,301.823,10.4924,-3.12539,177.737,6.54785,-144.976,704
1569849132,301.823,10.4924,-3.12539,177.737,6.54785,-144.976,704
1569849132,301.823,10.4924,-3.12539,177.737,6.54785,-144.976,704
1569849132,301.823,10.4924,-3.12539,177.737,6.54785,-144.976,704
1569849132,301.823,10.4924,-3.12539,177.737,6.54785,-144.976,704
1569849132,301.823,10.4924,-3.12539,177.737,6.54785,-144.976,704
1569849132,301.823,10.4924,-3.12539,177.737,6.54785,-144.976,704
1569849132,301.823,10.4924,-3.12539,177.737,6.54785,-144.976,700
1569849132,301.823,10.4924,-3.12539,177.737,6.54785,-144.976,700
1569849132,301.823,10.4924,-3.12539,177.737,6.54785,-144.976,700
1569849132,301.823,10.4924,-3.12539,177.737,6.54785,-144.976,700
1569849132,301.823,10.3808,-3.12539,177.737,6.54785,-144.976,700
1569849132,301.823,10.3808,-3.12539,177.737,6.54785,-144.976,700
1569849132,301.823,10.3808,-3.12539,177.737,6.54785,-144.976,700
1569849134,326.045,-13.3945,-1.67432,178.11,6.67969,-144.91,1040
1569849134,326.045,-13.3945,-1.67432,178.11,6.67969,-144.91,1040
1569849134,326.045,-13.3945,-1.67432,178.11,6.67969,-144.91,1040
1569849134,326.045,-13.3945,-1.67432,178.11,6.67969,-144.91,1040
1569849134,326.045,-13.3945,-1.67432,178.11,6.67969,-144.91,1040
1569849134,326.045,-13.3945,-1.67432,178.11,6.67969,-144.888,1040
1569849134,326.045,-13.3945,-1.67432,178.11,6.67969,-144.888,1040
1569849134,326.045,-13.3945,-1.67432,178.11,6.67969,-144.888,1044
1569849134,326.045,-13.3945,-1.67432,178.11,6.67969,-144.888,1044
1569849134,326.045,-13.3945,-1.67432,178.11,6.67969,-144.888,1044
1569849134,326.045,-13.3945,-1.67432,178.11,6.67969,-144.888,1044
1569849134,326.045,-13.3945,-1.67432,178.11,6.67969,-144.888,1044
1569849135,326.045,-13.3945,-1.67432,178.11,6.67969,-144.888,1044
1569849135,326.045,-13.3945,-1.67432,178.11,6.67969,-144.888,1044
1569849135,326.045,-13.3945,-1.67432,178.11,6.67969,-144.888,1044
1569849135,326.045,-13.3945,-1.67432,178.088,6.67969,-144.888,1044
1569849135,326.045,-13.3945,-1.67432,178.088,6.67969,-144.888,1044
1569849135,326.045,-13.3945,-1.67432,178.088,6.67969,-144.888,1044
1569849135,326.045,-13.3945,-1.67432,178.088,6.67969,-144.888,1044
1569849135,326.045,-13.3945,-1.67432,178.088,6.67969,-144.888,1044
1569849135,326.045,-13.3945,-1.67432,178.088,6.67969,-144.888,1044
1569849135,326.045,-13.3945,-1.67432,178.088,6.67969,-144.888,1044
1569849135,326.045,-13.3945,-1.67432,178.088,6.67969,-144.888,1044
1569849135,326.045,-13.5062,-1.67432,178.088,6.67969,-144.888,1044
1569849135,326.045,-13.5062,-1.67432,178.088,6.67969,-144.888,1044
1569849135,326.045,-13.5062,-1.67432,178.088,6.67969,-144.888,1044
1569849135,326.045,-13.5062,-1.67432,178.088,6.67969,-144.888,1044
1569849135,326.045,-13.5062,-1.67432,178.088,6.67969,-144.888,1040
1569849135,326.045,-13.5062,-1.67432,178.088,6.67969,-144.888,1040
1569849135,326.045,-13.5062,-1.67432,178.088,6.67969,-144.888,1040
1569849135,326.045,-13.5062,-1.67432,178.088,6.67969,-144.888,1040
1569849135,326.045,-13.5062,-1.67432,178.088,6.67969,-144.888,1040
1569849135,326.045,-13.5062,-1.67432,178.088,6.67969,-144.888,1040
1569849135,326.045,-13.5062,-1.67432,178.088,6.67969,-144.888,1036
1569849135,326.045,-13.5062,-1.67432,178.088,6.67969,-144.888,1036
1569849135,326.045,-13.5062,-1.67432,178.088,6.67969,-144.888,1036
1569849135,326.045,-13.5062,-1.67432,178.088,6.67969,-144.888,1036
1569849135,326.045,-13.5062,-1.67432,178.088,6.67969,-144.888,1036
1569849135,326.045,-13.5062,-1.67432,178.066,6.67969,-144.888,1036
1569849135,326.045,-13.5062,-1.67432,178.066,6.67969,-144.888,1032
1569849135,326.045,-13.5062,-1.67432,178.066,6.67969,-144.888,1032
1569849135,326.045,-13.5062,-1.67432,178.066,6.67969,-144.888,1032
1569849135,326.045,-13.5062,-1.67432,178.066,6.67969,-144.888,1032
1569849135,326.045,-13.5062,-1.67432,178.066,6.67969,-144.888,1032
1569849135,326.045,-13.5062,-1.67432,178.066,6.67969,-144.888,1032
1569849135,326.045,-13.5062,-1.67432,178.066,6.67969,-144.888,1032
1569849135,326.045,-13.5062,-1.67432,178.066,6.67969,-144.888,1032
1569849135,326.045,-13.5062,-1.67432,178.088,6.67969,-144.888,1032
1569849135,326.045,-13.5062,-1.67432,178.088,6.67969,-144.888,1032
1569849135,326.045,-13.5062,-1.67432,178.088,6.67969,-144.888,1032
1569849135,326.045,-13.3945,-1.67432,178.088,6.67969,-144.888,1032
1569849135,326.045,-13.3945,-1.67432,178.088,6.67969,-144.888,1032
1569849135,326.045,-13.3945,-1.67432,178.088,6.67969,-144.888,1032
1569849135,326.045,-13.3945,-1.67432,178.088,6.67969,-144.888,1032
1569849135,326.045,-13.3945,-1.67432,178.088,6.67969,-144.888,1032
1569849135,326.045,-13.3945,-1.67432,178.088,6.67969,-144.888,1032
1569849135,326.045,-13.3945,-1.67432,178.088,6.67969,-144.888,1032
1569849135,326.045,-13.3945,-1.67432,178.088,6.67969,-144.888,1032
1569849135,326.045,-13.3945,-1.67432,178.088,6.67969,-144.888,1032
1569849135,326.045,-13.3945,-1.67432,178.088,6.67969,-144.888,1032
1569849135,326.045,-13.3945,-1.67432,178.088,6.67969,-144.888,1032
1569849135,326.045,-13.3945,-1.67432,178.088,6.67969,-144.888,1036
1569849135,326.045,-13.3945,-1.67432,178.088,6.67969,-144.888,1036
1569849135,326.045,-13.3945,-1.67432,178.088,6.65771,-144.888,1036
1569849135,326.045,-13.5062,-1.67432,178.088,6.65771,-144.888,1036
1569849135,326.045,-13.5062,-1.67432,178.088,6.65771,-144.888,1036
1569849135,326.045,-13.5062,-1.67432,178.088,6.65771,-144.91,1036
1569849135,326.045,-13.5062,-1.67432,178.088,6.65771,-144.91,1036
1569849135,326.045,-13.5062,-1.67432,178.088,6.65771,-144.91,1036
1569849135,326.045,-13.5062,-1.67432,178.088,6.65771,-144.91,1036
1569849135,326.045,-13.5062,-1.67432,178.088,6.65771,-144.91,1036
1569849135,326.045,-13.5062,-1.67432,178.088,6.65771,-144.91,1036
1569849135,326.045,-13.5062,-1.67432,178.088,6.65771,-144.91,1036
1569849135,326.045,-13.5062,-1.67432,178.088,6.65771,-144.91,1036
1569849135,326.045,-13.5062,-1.67432,178.088,6.65771,-144.91,1036
1569849135,326.045,-13.5062,-1.67432,178.088,6.65771,-144.91,1036
1569849135,326.045,-13.5062,-1.67432,178.088,6.65771,-144.91,1036
1569849135,326.045,-13.5062,-1.67432,178.088,6.65771,-144.91,1036
1569849135,326.045,-13.5062,-1.67432,178.088,6.65771,-144.91,1036
1569849135,326.045,-13.5062,-1.67432,178.088,6.65771,-144.91,1036
1569849135,326.045,-13.3945,-1.67432,178.088,6.67969,-144.91,1036
1569849135,326.045,-13.3945,-1.67432,178.088,6.67969,-144.91,1036
1569849135,326.045,-13.3945,-1.67432,178.088,6.67969,-144.91,1040
1569849135,326.045,-13.3945,-1.67432,178.088,6.67969,-144.91,1040
1569849135,326.045,-13.3945,-1.67432,178.088,6.67969,-144.91,1040
1569849135,326.045,-13.3945,-1.67432,178.088,6.67969,-144.91,1040
1569849135,326.045,-13.3945,-1.67432,178.088,6.67969,-144.91,1040
1569849135,326.045,-13.3945,-1.67432,178.088,6.67969,-144.91,1040
1569849135,326.045,-13.3945,-1.67432,178.088,6.67969,-144.91,1040
1569849135,326.045,-13.3945,-1.67432,178.088,6.65771,-144.91,1040
1569849135,326.045,-13.3945,-1.67432,178.088,6.65771,-144.91,1040
1569849135,326.045,-13.3945,-1.67432,178.088,6.65771,-144.91,1040
1569849135,326.045,-13.3945,-1.67432,178.088,6.65771,-144.91,1040
1569849135,326.045,-13.3945,-1.67432,178.088,6.65771,-144.91,1040
1569849135,326.045,-13.3945,-1.67432,178.088,6.65771,-144.91,1040
1569849135,326.045,-13.3945,-1.67432,178.088,6.65771,-144.91,1040
1569849135,326.045,-13.3945,-1.67432,178.088,6.65771,-144.91,1040
1569849135,326.045,-13.3945,-1.67432,178.088,6.65771,-144.91,1040
1569849135,326.045,-13.3945,-1.67432,178.088,6.65771,-144.91,1040
1569849135,326.045,-13.3945,-1.67432,178.088,6.65771,-144.91,1040
1569849135,326.045,-13.3945,-1.67432,178.088,6.65771,-144.91,1040
1569849135,326.045,-13.3945,-1.67432,178.088,6.65771,-144.91,1040
1569849135,326.045,-13.3945,-1.67432,178.088,6.65771,-144.91,1040
1569849135,326.045,-13.3945,-1.67432,178.088,6.65771,-144.91,1040
1569849135,326.045,-13.3945,-1.67432,178.088,6.65771,-144.91,1040
1569849135,326.045,-13.3945,-1.67432,178.088,6.65771,-144.91,1040
1569849135,326.045,-13.3945,-1.67432,178.088,6.65771,-144.91,1040
1569849135,326.045,-13.3945,-1.67432,178.088,6.65771,-144.91,1040
1569849135,326.045,-13.3945,-1.67432,178.088,6.65771,-144.91,1040
1569849135,326.045,-13.3945,-1.78594,178.088,6.65771,-144.91,1040
1569849135,326.045,-13.3945,-1.78594,178.11,6.65771,-144.91,1040
1569849135,326.045,-13.3945,-1.78594,178.11,6.65771,-144.91,1044
1569849136,326.045,-13.3945,-1.78594,178.11,6.65771,-144.91,1044
1569849136,326.045,-13.3945,-1.78594,178.11,6.65771,-144.91,1044
1569849136,326.045,-13.3945,-1.78594,178.11,6.65771,-144.91,1044
1569849136,326.045,-13.3945,-1.78594,178.11,6.65771,-144.91,1044
1569849136,326.045,-13.3945,-1.78594,178.11,6.65771,-144.91,1044
1569849136,326.045,-13.3945,-1.78594,178.11,6.65771,-144.91,1044
1569849136,326.045,-13.3945,-1.78594,178.11,6.65771,-144.91,1044
1569849136,326.045,-13.3945,-1.78594,178.11,6.65771,-144.91,1044
1569849136,326.045,-13.3945,-1.78594,178.088,6.65771,-144.91,1044
1569849136,326.045,-13.3945,-1.78594,178.088,6.65771,-144.91,1044
1569849136,326.045,-13.3945,-1.67432,178.088,6.65771,-144.91,1044
1569849136,326.045,-13.3945,-1.67432,178.088,6.65771,-144.91,1044
1569849136,326.045,-13.3945,-1.67432,178.088,6.65771,-144.91,1044
1569849136,326.045,-13.3945,-1.67432,178.088,6.65771,-144.91,1044
1569849136,326.045,-13.3945,-1.67432,178.088,6.65771,-144.91,1044
1569849136,326.045,-13.3945,-1.67432,178.088,6.65771,-144.91,1044
1569849136,326.045,-13.3945,-1.67432,178.088,6.65771,-144.91,1044
1569849136,326.045,-13.3945,-1.67432,178.088,6.65771,-144.91,1044
1569849136,326.045,-13.3945,-1.67432,178.088,6.65771,-144.91,1044
1569849136,326.045,-13.5062,-1.67432,178.088,6.65771,-144.91,1044
1569849136,326.045,-13.5062,-1.67432,178.088,6.65771,-144.91,1044
1569849136,326.045,-13.5062,-1.67432,178.088,6.65771,-144.91,1044
1569849136,326.045,-13.5062,-1.67432,178.088,6.65771,-144.91,1044
1569849136,326.045,-13.5062,-1.67432,178.088,6.65771,-144.91,1044
1569849136,326.045,-13.5062,-1.67432,178.088,6.65771,-144.91,1044
1569849136,326.045,-13.5062,-1.67432,178.088,6.65771,-144.91,1048
1569849136,326.045,-13.5062,-1.67432,178.066,6.65771,-144.91,1048
1569849136,326.045,-13.5062,-1.67432,178.066,6.65771,-144.91,1048
1569849136,326.045,-13.5062,-1.67432,178.066,6.67969,-144.91,1048
1569849136,326.045,-13.5062,-1.67432,178.066,6.67969,-144.91,1048
1569849136,326.045,-13.5062,-1.67432,178.066,6.67969,-144.91,1048
1569849136,326.045,-13.5062,-1.67432,178.066,6.67969,-144.91,1048
1569849136,326.045,-13.5062,-1.67432,178.066,6.67969,-144.91,1048
1569849136,326.045,-13.5062,-1.67432,178.066,6.67969,-144.91,1048
1569849136,326.045,-13.5062,-1.67432,178.066,6.67969,-144.91,1048
1569849136,326.045,-13.5062,-1.67432,178.066,6.67969,-144.91,1048
1569849136,326.045,-13.5062,-1.67432,178.066,6.67969,-144.91,1044
1569849136,326.045,-13.5062,-1.67432,178.066,6.67969,-144.91,1044
1569849136,326.045,-13.5062,-1.67432,178.066,6.67969,-144.91,1044
1569849136,326.045,-13.5062,-1.67432,178.066,6.67969,-144.91,1044
1569849136,326.045,-13.5062,-1.67432,178.066,6.67969,-144.91,1044
1569849136,326.045,-13.5062,-1.67432,178.066,6.67969,-144.91,1044
1569849136,326.045,-13.5062,-1.67432,178.088,6.67969,-144.91,1044
1569849136,326.045,-13.5062,-1.67432,178.088,6.65771,-144.91,1044
1569849136,326.045,-13.5062,-1.67432,178.088,6.65771,-144.91,1044
1569849136,326.045,-13.5062,-1.67432,178.088,6.65771,-144.91,1044
1569849136,326.045,-13.5062,-1.67432,178.088,6.65771,-144.91,1044
1569849136,326.045,-13.5062,-1.67432,178.088,6.65771,-144.91,1044
1569849136,326.045,-13.5062,-1.67432,178.088,6.65771,-144.91,1044
1569849136,326.045,-13.5062,-1.67432,178.088,6.65771,-144.91,1044
1569849136,326.045,-13.5062,-1.67432,178.088,6.65771,-144.91,1044
1569849136,326.045,-13.5062,-1.67432,178.088,6.67969,-144.888,1044
1569849136,326.045,-13.5062,-1.67432,178.088,6.67969,-144.888,1044
1569849136,326.045,-13.5062,-1.67432,178.088,6.67969,-144.888,1044
1569849136,326.045,-13.5062,-1.67432,178.088,6.67969,-144.888,1044
1569849136,326.045,-13.5062,-1.67432,178.088,6.67969,-144.91,1044
1569849136,326.045,-13.5062,-1.67432,178.088,6.67969,-144.91,1044
1569849136,326.045,-13.5062,-1.67432,178.088,6.67969,-144.91,1044
1569849136,326.045,-13.3945,-1.67432,178.088,6.67969,-144.91,1044
1569849136,326.045,-13.3945,-1.67432,178.088,6.67969,-144.91,1044
1569849136,326.045,-13.3945,-1.67432,178.088,6.67969,-144.91,1044
1569849136,326.045,-13.3945,-1.67432,178.088,6.67969,-144.91,1044
1569849136,326.045,-13.3945,-1.67432,178.088,6.67969,-144.91,1044
1569849136,326.045,-13.3945,-1.67432,178.088,6.67969,-144.91,1044
1569849136,326.045,-13.3945,-1.67432,178.088,6.67969,-144.91,1044
1569849136,326.045,-13.3945,-1.67432,178.088,6.67969,-144.91,1044
1569849136,326.045,-13.3945,-1.67432,178.088,6.67969,-144.91,1044
1569849136,326.045,-13.3945,-1.67432,178.088,6.67969,-144.91,1044
1569849136,326.045,-13.3945,-1.67432,178.088,6.67969,-144.91,1044
1569849136,326.045,-13.3945,-1.67432,178.088,6.67969,-144.91,1044
1569849136,326.045,-13.5062,-1.67432,178.088,6.67969,-144.91,1044
1569849136,326.045,-13.5062,-1.67432,178.088,6.67969,-144.91,1040
1569849136,326.045,-13.5062,-1.67432,178.088,6.67969,-144.91,1040
1569849136,326.045,-13.5062,-1.67432,178.088,6.67969,-144.91,1040
1569849136,326.045,-13.5062,-1.67432,178.088,6.67969,-144.91,1040
1569849136,326.045,-13.5062,-1.67432,178.088,6.67969,-144.91,1040
1569849136,326.045,-13.5062,-1.67432,178.088,6.67969,-144.91,1040
1569849136,326.045,-13.5062,-1.67432,178.088,6.67969,-144.91,1040
1569849136,326.045,-13.5062,-1.67432,178.088,6.67969,-144.91,1040
1569849136,326.045,-13.5062,-1.67432,178.088,6.67969,-144.91,1040
1569849136,326.045,-13.5062,-1.67432,178.088,6.67969,-144.91,1040
1569849136,326.045,-13.5062,-1.67432,178.088,6.67969,-144.91,1044
1569849136,326.045,-13.5062,-1.67432,178.088,6.67969,-144.91,1044
1569849136,326.045,-13.5062,-1.67432,178.088,6.67969,-144.91,1044
1569849136,326.045,-13.3945,-1.67432,178.088,6.67969,-144.91,1044
1569849136,326.045,-13.3945,-1.67432,178.088,6.67969,-144.91,1044
1569849136,326.045,-13.3945,-1.67432,178.088,6.67969,-144.91,1044
1569849136,326.045,-13.3945,-1.67432,178.088,6.67969,-144.91,1044
1569849136,326.045,-13.3945,-1.67432,178.088,6.67969,-144.91,1044
1569849136,326.045,-13.3945,-1.67432,178.088,6.67969,-144.91,1044
1569849136,326.045,-13.5062,-1.67432,178.088,6.67969,-144.91,1044
1569849136,326.045,-13.5062,-1.67432,178.088,6.67969,-144.91,1044
1569849136,326.045,-13.5062,-1.67432,178.088,6.67969,-144.91,1044
1569849136,326.045,-13.5062,-1.67432,178.088,6.67969,-144.91,1044
1569849136,326.045,-13.5062,-1.67432,178.088,6.67969,-144.91,1044
1569849136,326.045,-13.5062,-1.67432,178.088,6.67969,-144.91,1044
1569849136,326.045,-13.5062,-1.67432,178.088,6.67969,-144.91,1044
1569849136,326.045,-13.5062,-1.67432,178.088,6.67969,-144.91,1044
1569849136,326.045,-13.5062,-1.67432,178.088,6.67969,-144.91,1044
1569849136,326.045,-13.5062,-1.67432,178.088,6.67969,-144.91,1044
1569849137,326.045,-13.5062,-1.67432,178.088,6.67969,-144.91,1044
1569849137,326.045,-13.3945,-1.67432,178.088,6.67969,-144.91,1044
1569849137,326.045,-13.3945,-1.67432,178.088,6.67969,-144.91,1044
1569849137,326.045,-13.3945,-1.67432,178.088,6.67969,-144.91,1044
1569849137,326.045,-13.3945,-1.67432,178.088,6.67969,-144.91,1040
1569849137,326.045,-13.3945,-1.67432,178.088,6.67969,-144.91,1040
1569849137,326.045,-13.3945,-1.67432,178.088,6.67969,-144.91,1040
1569849137,326.045,-13.3945,-1.67432,178.088,6.67969,-144.91,1040
1569849137,326.045,-13.3945,-1.67432,178.088,6.67969,-144.91,1040
1569849137,326.045,-13.3945,-1.67432,178.088,6.67969,-144.91,1040
1569849137,326.045,-13.3945,-1.67432,178.088,6.67969,-144.91,1036
1569849137,326.045,-13.3945,-1.67432,178.088,6.67969,-144.91,1036
1569849137,326.045,-13.3945,-1.67432,178.088,6.67969,-144.91,1036
1569849137,326.045,-13.3945,-1.67432,178.088,6.67969,-144.91,1036
1569849137,326.045,-13.3945,-1.67432,178.088,6.67969,-144.91,1036
1569849137,326.045,-13.3945,-1.67432,178.11,6.67969,-144.91,1036
1569849137,326.045,-13.3945,-1.67432,178.11,6.67969,-144.91,1036
1569849137,326.045,-13.3945,-1.67432,178.11,6.67969,-144.91,1036
1569849137,326.045,-13.3945,-1.67432,178.11,6.67969,-144.91,1036
1569849137,326.045,-13.3945,-1.67432,178.11,6.67969,-144.91,1036
1569849137,326.045,-13.3945,-1.67432,178.11,6.67969,-144.91,1032
1569849137,326.045,-13.3945,-1.67432,178.11,6.67969,-144.91,1032
1569849137,326.045,-13.3945,-1.67432,178.11,6.67969,-144.91,1032
1569849137,325.934,-13.3945,-1.67432,178.11,6.67969,-144.91,1032
1569849137,325.934,-13.3945,-1.67432,178.088,6.67969,-144.91,1032
1569849137,325.934,-13.3945,-1.67432,178.088,6.67969,-144.91,1032
1569849137,325.934,-13.3945,-1.67432,178.088,6.67969,-144.91,1028
1569849137,325.934,-13.3945,-1.67432,178.088,6.67969,-144.91,1028
1569849137,325.934,-13.3945,-1.67432,178.088,6.67969,-144.91,1028
1569849137,326.045,-13.3945,-1.67432,178.088,6.67969,-144.91,1028
1569849137,326.045,-13.3945,-1.67432,178.088,6.67969,-144.91,1028
1569849137,326.045,-13.3945,-1.67432,178.088,6.67969,-144.91,1028
1569849137,326.045,-13.3945,-1.67432,178.088,6.67969,-144.91,1028
1569849137,326.045,-13.3945,-1.67432,178.088,6.65771,-144.91,1028
1569849137,326.045,-13.3945,-1.67432,178.088,6.65771,-144.91,1028
1569849137,326.045,-13.3945,-1.67432,178.088,6.67969,-144.91,1028
1569849137,326.045,-13.3945,-1.67432,178.088,6.67969,-144.91,1028
1569849137,326.045,-13.3945,-1.67432,178.088,6.67969,-144.91,1028
1569849137,326.045,-13.3945,-1.67432,178.088,6.67969,-144.91,1028
1569849137,326.045,-13.3945,-1.67432,178.088,6.67969,-144.91,1028
1569849137,326.045,-13.3945,-1.67432,178.088,6.67969,-144.91,1032
1569849137,326.045,-13.5062,-1.67432,178.088,6.67969,-144.91,1032
1569849137,326.045,-13.5062,-1.67432,178.088,6.67969,-144.91,1032
1569849137,326.045,-13.5062,-1.67432,178.088,6.67969,-144.91,1032
1569849137,326.045,-13.5062,-1.67432,178.088,6.67969,-144.91,1032
1569849137,326.045,-13.5062,-1.67432,178.088,6.67969,-144.91,1032
1569849137,326.045,-13.3945,-1.67432,178.088,6.67969,-144.91,1032
1569849137,326.045,-13.3945,-1.67432,178.088,6.67969,-144.91,1032
1569849137,326.045,-13.3945,-1.67432,178.088,6.67969,-144.91,1036
1569849137,326.045,-13.3945,-1.67432,178.088,6.67969,-144.91,1036
1569849137,326.045,-13.3945,-1.67432,178.11,6.67969,-144.91,1036
1569849137,326.045,-13.3945,-1.67432,178.11,6.67969,-144.91,1036
1569849137,326.045,-13.3945,-1.67432,178.11,6.67969,-144.91,1036
1569849137,326.045,-13.3945,-1.67432,178.11,6.67969,-144.91,1036
1569849137,326.045,-13.3945,-1.67432,178.11,6.67969,-144.91,1036
1569849137,326.045,-13.3945,-1.67432,178.11,6.67969,-144.91,1040
1569849137,326.045,-13.3945,-1.67432,178.11,6.67969,-144.91,1040
1569849137,326.045,-13.3945,-1.67432,178.11,6.67969,-144.91,1040
1569849137,326.045,-13.3945,-1.67432,178.11,6.67969,-144.91,1040
1569849137,326.045,-13.3945,-1.67432,178.11,6.67969,-144.91,1040
1569849137,326.045,-13.3945,-1.67432,178.11,6.67969,-144.91,1040
1569849137,326.045,-13.3945,-1.67432,178.11,6.67969,-144.91,1040
1569849137,326.045,-13.3945,-1.67432,178.11,6.67969,-144.91,1040
1569849137,326.045,-13.3945,-1.67432,178.11,6.67969,-144.91,1040
1569849137,326.045,-13.3945,-1.67432,178.11,6.67969,-144.91,1040
1569849137,326.045,-13.3945,-1.67432,178.11,6.67969,-144.91,1040
1569849137,326.045,-13.3945,-1.67432,178.11,6.67969,-144.91,1040
1569849137,326.045,-13.3945,-1.67432,178.11,6.67969,-144.91,1040
1569849137,326.045,-13.3945,-1.67432,178.11,6.67969,-144.91,1040
1569849137,326.045,-13.3945,-1.67432,178.11,6.67969,-144.91,1040
1569849137,326.045,-13.3945,-1.67432,178.11,6.67969,-144.91,1040
1569849137,326.045,-13.3945,-1.67432,178.11,6.67969,-144.91,1040
1569849137,326.045,-13.3945,-1.67432,178.11,6.67969,-144.91,1040
1569849137,326.045,-13.3945,-1.67432,178.11,6.67969,-144.91,1040
1569849137,326.045,-13.3945,-1.67432,178.11,6.67969,-144.91,1040
1569849137,326.045,-13.3945,-1.67432,178.11,6.67969,-144.91,1040
1569849137,326.045,-13.3945,-1.67432,178.11,6.67969,-144.91,1040
1569849137,326.045,-13.3945,-1.67432,178.11,6.67969,-144.91,1040
1569849137,326.045,-13.3945,-1.67432,178.11,6.67969,-144.91,1040
1569849137,326.045,-13.3945,-1.67432,178.11,6.67969,-144.91,1040
1569849137,326.045,-13.3945,-1.67432,178.11,6.67969,-144.91,1040
1569849137,326.045,-13.3945,-1.67432,178.11,6.67969,-144.91,1040
1569849137,326.045,-13.3945,-1.67432,178.11,6.67969,-144.91,1040
1569849137,326.045,-13.3945,-1.67432,178.088,6.67969,-144.91,1040
1569849137,326.045,-13.3945,-1.67432,178.088,6.67969,-144.91,1040
1569849137,326.045,-13.3945,-1.67432,178.088,6.67969,-144.91,1040
1569849137,326.045,-13.3945,-1.67432,178.088,6.67969,-144.91,1040
1569849137,326.045,-13.3945,-1.67432,178.088,6.67969,-144.91,1040
1569849137,326.045,-13.3945,-1.67432,178.088,6.67969,-144.91,1040
1569849137,326.045,-13.5062,-1.67432,178.088,6.67969,-144.91,1040
1569849137,326.045,-13.5062,-1.67432,178.088,6.67969,-144.91,1040
1569849137,326.045,-13.5062,-1.67432,178.088,6.67969,-144.91,1040
1569849137,326.045,-13.5062,-1.67432,178.088,6.67969,-144.91,1040
1569849137,326.045,-13.5062,-1.67432,178.088,6.67969,-144.91,1040
1569849137,326.045,-13.5062,-1.67432,178.088,6.67969,-144.91,1040
1569849137,326.045,-13.5062,-1.67432,178.088,6.67969,-144.91,1044
1569849137,326.045,-13.5062,-1.67432,178.088,6.67969,-144.91,1044
1569849137,326.045,-13.5062,-1.67432,178.088,6.67969,-144.91,1044
1569849137,326.045,-13.5062,-1.67432,178.088,6.67969,-144.91,1044
1569849137,326.045,-13.5062,-1.67432,178.088,6.67969,-144.91,1044
1569849138,326.045,-13.5062,-1.67432,178.088,6.67969,-144.91,1044
1569849138,326.045,-13.5062,-1.67432,178.088,6.67969,-144.91,1044
1569849138,326.045,-13.5062,-1.67432,178.088,6.67969,-144.91,1044
1569849138,326.045,-13.5062,-1.67432,178.088,6.67969,-144.91,1044
1569849138,326.045,-13.5062,-1.67432,178.088,6.67969,-144.91,1044
1569849138,326.045,-13.5062,-1.67432,178.088,6.67969,-144.91,1044
1569849138,326.045,-13.5062,-1.67432,178.088,6.67969,-144.91,1044
1569849138,326.045,-13.5062,-1.67432,178.088,6.67969,-144.91,1044
1569849138,326.045,-13.5062,-1.67432,178.066,6.67969,-144.91,1044
1569849138,326.045,-13.5062,-1.67432,178.066,6.67969,-144.91,1044
1569849138,326.045,-13.5062,-1.67432,178.066,6.67969,-144.91,1044
1569849138,326.045,-13.5062,-1.67432,178.066,6.67969,-144.91,1044
1569849138,326.045,-13.5062,-1.67432,178.066,6.67969,-144.91,1044
1569849138,326.045,-13.5062,-1.67432,178.066,6.67969,-144.91,1044
1569849138,326.045,-13.5062,-1.67432,178.066,6.67969,-144.91,1044
1569849138,326.045,-13.5062,-1.67432,178.066,6.67969,-144.91,1044
1569849138,326.045,-13.5062,-1.67432,178.066,6.67969,-144.91,1044
1569849138,326.045,-13.5062,-1.67432,178.066,6.67969,-144.91,1044
1569849138,326.045,-13.5062,-1.67432,178.066,6.67969,-144.91,1044
1569849138,326.045,-13.5062,-1.67432,178.066,6.67969,-144.91,1044
1569849138,326.045,-13.5062,-1.67432,178.066,6.67969,-144.91,1044
1569849138,326.045,-13.5062,-1.67432,178.066,6.67969,-144.91,1044
1569849138,326.045,-13.5062,-1.67432,178.066,6.67969,-144.91,1044
1569849138,326.045,-13.5062,-1.67432,178.066,6.67969,-144.91,1044
1569849138,326.045,-13.5062,-1.67432,178.088,6.67969,-144.91,1044
1569849138,326.045,-13.5062,-1.67432,178.088,6.67969,-144.91,1044
1569849138,326.045,-13.5062,-1.67432,178.088,6.67969,-144.91,1044
1569849138,326.045,-13.5062,-1.67432,178.088,6.67969,-144.91,1048
1569849138,326.045,-13.5062,-1.67432,178.088,6.67969,-144.91,1048
1569849138,326.045,-13.5062,-1.67432,178.088,6.67969,-144.91,1048
1569849138,326.045,-13.5062,-1.67432,178.088,6.67969,-144.91,1052
1569849138,326.045,-13.5062,-1.67432,178.088,6.67969,-144.91,1052
1569849138,326.045,-13.5062,-1.67432,178.088,6.67969,-144.91,1052
1569849138,326.045,-13.5062,-1.67432,178.088,6.67969,-144.91,1052
1569849138,326.045,-13.5062,-1.67432,178.088,6.67969,-144.91,1056
1569849138,326.045,-13.3945,-1.67432,178.088,6.67969,-144.91,1056
1569849138,326.045,-13.3945,-1.67432,178.088,6.67969,-144.91,1056
1569849138,326.045,-13.3945,-1.67432,178.088,6.67969,-144.91,1056
1569849138,326.045,-13.3945,-1.67432,178.088,6.67969,-144.91,1056
1569849138,326.045,-13.3945,-1.67432,178.088,6.67969,-144.91,1056
1569849138,326.045,-13.3945,-1.67432,178.088,6.67969,-144.91,1056
1569849138,326.045,-13.5062,-1.67432,178.088,6.67969,-144.91,1056
1569849138,326.045,-13.5062,-1.67432,178.088,6.70166,-144.91,1056
1569849138,326.045,-13.5062,-1.67432,178.088,6.70166,-144.91,1060
1569849138,326.045,-13.5062,-1.67432,178.088,6.70166,-144.91,1060
1569849138,326.045,-13.5062,-1.5627,178.088,6.70166,-144.91,1060
1569849138,326.045,-13.5062,-1.5627,178.088,6.70166,-144.91,1060
1569849138,326.045,-13.5062,-1.5627,178.088,6.70166,-144.91,1060
1569849138,326.045,-13.5062,-1.5627,178.088,6.70166,-144.91,1060
1569849138,326.045,-13.5062,-1.5627,178.088,6.70166,-144.91,1060
1569849138,326.045,-13.5062,-1.5627,178.088,6.70166,-144.91,1060
1569849138,326.045,-13.5062,-1.5627,178.088,6.70166,-144.91,1060
1569849138,326.045,-13.5062,-1.5627,178.088,6.70166,-144.91,1060
1569849138,326.045,-13.5062,-1.5627,178.088,6.70166,-144.91,1060
1569849138,326.045,-13.5062,-1.5627,178.088,6.70166,-144.91,1060
1569849138,326.157,-13.5062,-1.5627,178.088,6.70166,-144.91,1060
1569849138,326.157,-13.5062,-1.5627,178.088,6.70166,-144.91,1060
1569849138,326.157,-13.5062,-1.5627,178.088,6.70166,-144.91,1060
1569849138,326.157,-13.5062,-1.5627,178.088,6.70166,-144.91,1060
1569849138,326.157,-13.5062,-1.5627,178.088,6.70166,-144.91,1060
1569849138,326.157,-13.5062,-1.5627,178.066,6.70166,-144.91,1060
1569849138,326.157,-13.5062,-1.5627,178.066,6.70166,-144.91,1056
1569849138,326.157,-13.5062,-1.5627,178.066,6.70166,-144.91,1056
1569849138,326.157,-13.5062,-1.5627,178.066,6.70166,-144.91,1056
1569849138,326.157,-13.5062,-1.5627,178.066,6.70166,-144.91,1056
1569849138,326.157,-13.5062,-1.5627,178.066,6.70166,-144.91,1056
1569849138,326.157,-13.5062,-1.5627,178.066,6.70166,-144.91,1056
1569849138,326.157,-13.5062,-1.5627,178.066,6.70166,-144.91,1056
1569849138,326.157,-13.5062,-1.5627,178.066,6.70166,-144.91,1056
1569849138,326.157,-13.5062,-1.5627,178.066,6.70166,-144.91,1056
1569849138,326.045,-13.5062,-1.5627,178.066,6.70166,-144.91,1056
1569849138,326.045,-13.5062,-1.5627,178.066,6.70166,-144.91,1056
1569849138,326.045,-13.5062,-1.5627,178.066,6.70166,-144.91,1056
1569849138,326.045,-13.5062,-1.5627,178.066,6.70166,-144.91,1056
1569849138,326.045,-13.5062,-1.5627,178.066,6.70166,-144.91,1056
1569849138,326.045,-13.5062,-1.5627,178.066,6.70166,-144.91,1056
1569849138,326.045,-13.5062,-1.5627,178.066,6.70166,-144.91,1056
1569849138,326.045,-13.5062,-1.5627,178.066,6.70166,-144.91,1052
1569849138,326.045,-13.5062,-1.5627,178.066,6.70166,-144.91,1052
1569849138,326.045,-13.5062,-1.5627,178.066,6.70166,-144.91,1052
1569849138,326.045,-13.5062,-1.5627,178.066,6.70166,-144.91,1052
1569849138,326.045,-13.5062,-1.5627,178.066,6.70166,-144.91,1052
1569849138,326.045,-13.5062,-1.5627,178.066,6.70166,-144.91,1048
1569849138,326.045,-13.5062,-1.5627,178.066,6.70166,-144.91,1048
1569849138,326.045,-13.5062,-1.5627,178.066,6.70166,-144.91,1048
1569849138,326.045,-13.5062,-1.5627,178.066,6.70166,-144.91,1048
1569849138,326.045,-13.5062,-1.5627,178.066,6.70166,-144.888,1048
1569849138,326.045,-13.5062,-1.5627,178.066,6.70166,-144.888,1044
1569849138,326.045,-13.5062,-1.5627,178.066,6.70166,-144.888,1044
1569849138,326.045,-13.5062,-1.5627,178.066,6.70166,-144.888,1044
1569849138,326.045,-13.5062,-1.5627,178.066,6.70166,-144.888,1044
1569849138,326.045,-13.5062,-1.5627,178.066,6.70166,-144.888,1044
1569849138,326.045,-13.5062,-1.5627,178.088,6.70166,-144.888,1040
1569849138,326.045,-13.5062,-1.5627,178.088,6.70166,-144.888,1040
1569849138,326.045,-13.5062,-1.5627,178.088,6.70166,-144.888,1040
1569849138,326.045,-13.5062,-1.5627,178.088,6.70166,-144.888,1040
1569849138,326.045,-13.5062,-1.5627,178.088,6.70166,-144.888,1040
1569849138,326.045,-13.5062,-1.5627,178.088,6.70166,-144.888,1040
1569849138,326.045,-13.5062,-1.5627,178.088,6.70166,-144.91,1040
1569849138,326.045,-13.5062,-1.5627,178.088,6.70166,-144.91,1040
1569849139,326.045,-13.5062,-1.5627,178.088,6.70166,-144.91,1040
1569849139,326.045,-13.5062,-1.5627,178.088,6.70166,-144.91,1036
1569849139,326.045,-13.5062,-1.5627,178.088,6.70166,-144.91,1036
1569849139,326.045,-13.5062,-1.5627,178.088,6.70166,-144.91,1036
1569849139,326.045,-13.5062,-1.5627,178.088,6.70166,-144.91,1036
1569849139,326.045,-13.5062,-1.5627,178.088,6.70166,-144.91,1036
1569849139,326.045,-13.5062,-1.5627,178.088,6.70166,-144.91,1036
1569849139,326.045,-13.5062,-1.5627,178.088,6.70166,-144.91,1036
1569849139,326.045,-13.5062,-1.5627,178.088,6.70166,-144.91,1036
1569849139,326.045,-13.5062,-1.5627,178.088,6.70166,-144.91,1036
1569849139,326.045,-13.5062,-1.5627,178.088,6.70166,-144.91,1036
1569849139,326.045,-13.5062,-1.5627,178.066,6.70166,-144.91,1036
1569849139,326.045,-13.5062,-1.5627,178.066,6.70166,-144.91,1036
1569849139,326.045,-13.5062,-1.5627,178.066,6.70166,-144.91,1036
1569849139,326.045,-13.5062,-1.67432,178.066,6.70166,-144.91,1036
1569849139,326.045,-13.5062,-1.67432,178.066,6.70166,-144.91,1036
1569849139,326.045,-13.5062,-1.67432,178.066,6.70166,-144.91,1036
1569849139,326.045,-13.5062,-1.67432,178.066,6.70166,-144.91,1036
1569849139,326.045,-13.5062,-1.67432,178.066,6.70166,-144.91,1036
1569849139,326.045,-13.5062,-1.67432,178.066,6.70166,-144.91,1036
1569849139,326.045,-13.5062,-1.67432,178.066,6.70166,-144.91,1036
1569849139,326.045,-13.5062,-1.67432,178.066,6.67969,-144.91,1036
1569849139,326.045,-13.5062,-1.67432,178.066,6.67969,-144.91,1036
1569849139,326.045,-13.5062,-1.67432,178.066,6.67969,-144.91,1036
1569849139,326.045,-13.5062,-1.67432,178.066,6.67969,-144.91,1036
1569849139,326.045,-13.5062,-1.67432,178.066,6.67969,-144.91,1036
1569849139,326.045,-13.5062,-1.67432,178.066,6.67969,-144.91,1036
1569849139,326.045,-13.5062,-1.67432,178.066,6.67969,-144.91,1036
1569849139,326.045,-13.5062,-1.67432,178.088,6.67969,-144.91,1036
1569849139,326.045,-13.5062,-1.67432,178.088,6.67969,-144.91,1036
1569849139,326.045,-13.5062,-1.67432,178.088,6.67969,-144.91,1036
1569849139,326.045,-13.5062,-1.67432,178.088,6.67969,-144.91,1036
1569849139,326.045,-13.5062,-1.67432,178.088,6.67969,-144.91,1036
1569849139,326.045,-13.5062,-1.67432,178.088,6.67969,-144.91,1036
1569849139,326.045,-13.5062,-1.67432,178.088,6.67969,-144.91,1036
1569849139,326.045,-13.5062,-1.67432,178.088,6.67969,-144.91,1036
1569849139,326.045,-13.5062,-1.67432,178.088,6.67969,-144.91,1036
1569849139,326.045,-13.5062,-1.67432,178.088,6.67969,-144.91,1036
1569849139,326.045,-13.5062,-1.67432,178.088,6.67969,-144.91,1036
1569849139,326.045,-13.5062,-1.67432,178.088,6.67969,-144.91,1040
1569849139,326.045,-13.5062,-1.67432,178.088,6.67969,-144.91,1040
1569849139,326.045,-13.5062,-1.67432,178.088,6.67969,-144.91,1040
1569849139,326.045,-13.5062,-1.67432,178.088,6.67969,-144.91,1040
1569849139,326.045,-13.5062,-1.67432,178.088,6.67969,-144.91,1040
1569849139,326.045,-13.5062,-1.67432,178.088,6.67969,-144.91,1044
1569849139,326.045,-13.5062,-1.67432,178.088,6.67969,-144.91,1044
1569849139,326.045,-13.5062,-1.67432,178.088,6.67969,-144.91,1044
1569849139,326.045,-13.5062,-1.67432,178.088,6.67969,-144.91,1044
1569849139,326.045,-13.5062,-1.67432,178.088,6.67969,-144.91,1044
1569849139,326.045,-13.5062,-1.67432,178.088,6.67969,-144.91,1044
1569849139,326.045,-13.5062,-1.67432,178.088,6.67969,-144.91,1044
1569849139,326.045,-13.5062,-1.67432,178.088,6.67969,-144.91,1048
1569849139,326.045,-13.5062,-1.67432,178.088,6.67969,-144.91,1048
1569849139,326.045,-13.5062,-1.67432,178.088,6.67969,-144.91,1048
1569849139,326.045,-13.3945,-1.67432,178.088,6.67969,-144.91,1048
1569849139,326.045,-13.3945,-1.67432,178.088,6.67969,-144.91,1048
1569849139,326.045,-13.3945,-1.67432,178.088,6.67969,-144.91,1048
1569849139,326.045,-13.3945,-1.67432,178.088,6.67969,-144.91,1048
1569849139,326.045,-13.3945,-1.67432,178.088,6.67969,-144.91,1048
1569849139,326.045,-13.3945,-1.67432,178.088,6.67969,-144.91,1048
1569849139,326.045,-13.3945,-1.67432,178.088,6.67969,-144.91,1048
1569849139,326.045,-13.3945,-1.67432,178.088,6.67969,-144.91,1048
1569849139,326.045,-13.3945,-1.67432,178.088,6.67969,-144.91,1048
1569849139,326.045,-13.3945,-1.67432,178.088,6.67969,-144.91,1052
1569849139,326.045,-13.3945,-1.67432,178.088,6.67969,-144.91,1052
1569849139,326.045,-13.3945,-1.67432,178.088,6.67969,-144.91,1052
1569849139,326.045,-13.3945,-1.67432,178.088,6.67969,-144.91,1052
1569849139,326.045,-13.3945,-1.67432,178.088,6.67969,-144.91,1052
1569849139,326.045,-13.3945,-1.67432,178.088,6.67969,-144.91,1052
1569849139,326.045,-13.3945,-1.67432,178.088,6.67969,-144.91,1048
1569849139,326.045,-13.3945,-1.67432,178.088,6.67969,-144.91,1048
1569849139,326.045,-13.3945,-1.67432,178.088,6.67969,-144.91,1048
1569849139,326.045,-13.3945,-1.67432,178.088,6.70166,-144.91,1048
1569849139,326.045,-13.3945,-1.67432,178.088,6.70166,-144.91,1048
1569849139,326.045,-13.3945,-1.67432,178.088,6.70166,-144.91,1048
1569849139,326.045,-13.3945,-1.67432,178.088,6.70166,-144.91,1048
1569849139,326.045,-13.3945,-1.67432,178.088,6.70166,-144.91,1044
1569849139,326.045,-13.3945,-1.67432,178.088,6.70166,-144.91,1044
1569849139,326.045,-13.3945,-1.5627,178.088,6.70166,-144.91,1044
1569849139,326.045,-13.5062,-1.5627,178.088,6.70166,-144.91,1044
1569849139,326.045,-13.5062,-1.5627,178.088,6.70166,-144.91,1044
1569849139,326.045,-13.5062,-1.5627,178.088,6.70166,-144.91,1044
1569849139,326.045,-13.5062,-1.5627,178.088,6.70166,-144.91,1044
1569849139,326.045,-13.5062,-1.5627,178.088,6.70166,-144.91,1040
1569849139,326.045,-13.5062,-1.5627,178.088,6.70166,-144.91,1040
1569849139,326.045,-13.5062,-1.5627,178.088,6.70166,-144.91,1040
1569849139,326.045,-13.5062,-1.5627,178.088,6.70166,-144.91,1040
1569849139,326.045,-13.5062,-1.67432,178.088,6.70166,-144.91,1040
1569849142,367.01,-53.2433,-1.00459,178.835,6.06445,-144.25,1528
1569849142,367.01,-53.2433,-1.00459,178.835,6.06445,-144.25,1528
1569849142,366.899,-53.2433,-1.00459,178.835,6.06445,-144.25,1528
1569849142,366.899,-53.2433,-1.00459,178.835,6.06445,-144.25,1528
1569849142,366.899,-53.2433,-1.00459,178.813,6.06445,-144.25,1528
1569849142,366.899,-53.2433,-1.00459,178.813,6.06445,-144.25,1528
1569849142,366.899,-53.2433,-1.00459,178.813,6.06445,-144.25,1528
1569849142,366.899,-53.2433,-1.00459,178.813,6.06445,-144.25,1528
1569849142,366.899,-53.2433,-1.00459,178.813,6.06445,-144.25,1524
1569849142,366.899,-53.2433,-1.00459,178.813,6.06445,-144.25,1524
1569849142,366.899,-53.2433,-1.00459,178.813,6.06445,-144.25,1524
1569849142,366.899,-53.2433,-1.00459,178.813,6.06445,-144.25,1524
1569849142,366.899,-53.2433,-1.00459,178.813,6.06445,-144.25,1524
1569849142,366.899,-53.2433,-1.00459,178.813,6.06445,-144.25,1524
1569849142,366.899,-53.2433,-1.00459,178.813,6.06445,-144.25,1524
1569849142,366.899,-53.2433,-1.00459,178.813,6.06445,-144.25,1524
1569849142,366.899,-53.2433,-1.00459,178.813,6.06445,-144.25,1524
1569849142,366.899,-53.2433,-1.00459,178.813,6.06445,-144.25,1524
1569849142,366.899,-53.2433,-1.00459,178.813,6.06445,-144.272,1524
1569849142,367.01,-53.2433,-1.00459,178.813,6.06445,-144.272,1524
1569849142,367.01,-53.2433,-1.00459,178.813,6.06445,-144.272,1524
1569849142,367.01,-53.2433,-1.00459,178.813,6.06445,-144.272,1528
1569849142,367.01,-53.2433,-1.00459,178.813,6.06445,-144.272,1528
1569849142,367.01,-53.2433,-1.00459,178.813,6.06445,-144.272,1528
1569849142,367.01,-53.2433,-1.00459,178.813,6.06445,-144.272,1528
1569849142,367.01,-53.2433,-1.00459,178.813,6.06445,-144.272,1528
1569849142,367.01,-53.2433,-1.00459,178.813,6.06445,-144.272,1532
1569849142,367.01,-53.2433,-1.00459,178.813,6.06445,-144.272,1532
1569849142,367.01,-53.2433,-1.00459,178.813,6.06445,-144.272,1532
1569849142,367.01,-53.2433,-1.00459,178.813,6.06445,-144.272,1532
1569849142,366.899,-53.2433,-1.00459,178.813,6.06445,-144.272,1532
1569849142,366.899,-53.2433,-1.00459,178.813,6.06445,-144.272,1532
1569849142,366.899,-53.2433,-1.00459,178.813,6.06445,-144.272,1532
1569849142,366.899,-53.2433,-1.00459,178.813,6.06445,-144.272,1532
1569849142,366.899,-53.2433,-1.00459,178.813,6.06445,-144.272,1532
1569849142,366.899,-53.2433,-1.00459,178.835,6.06445,-144.272,1532
1569849142,366.899,-53.2433,-1.11621,178.835,6.06445,-144.272,1532
1569849142,366.899,-53.1316,-1.11621,178.835,6.06445,-144.272,1532
1569849142,366.899,-53.1316,-1.11621,178.835,6.06445,-144.272,1532
1569849142,367.01,-53.1316,-1.11621,178.835,6.04248,-144.272,1532
1569849142,367.01,-53.1316,-1.11621,178.857,6.04248,-144.272,1532
1569849142,367.01,-53.1316,-1.11621,178.857,6.04248,-144.272,1532
1569849142,367.01,-53.1316,-1.11621,178.857,6.04248,-144.272,1528
1569849142,367.01,-53.1316,-1.11621,178.857,6.04248,-144.272,1528
1569849142,367.01,-53.1316,-1.11621,178.857,6.04248,-144.272,1528
1569849142,367.01,-53.1316,-1.11621,178.835,6.04248,-144.272,1528
1569849142,367.01,-53.1316,-1.11621,178.835,6.04248,-144.272,1528
1569849142,367.01,-53.1316,-1.11621,178.835,6.04248,-144.272,1528
1569849142,367.01,-53.1316,-1.11621,178.835,6.04248,-144.272,1528
1569849142,367.01,-53.1316,-1.11621,178.835,6.04248,-144.272,1528
1569849143,366.899,-53.1316,-1.11621,178.835,6.04248,-144.272,1528
1569849143,366.899,-53.2433,-1.11621,178.835,6.04248,-144.272,1528
1569849143,366.899,-53.2433,-1.11621,178.835,6.04248,-144.272,1528
1569849143,366.899,-53.2433,-1.11621,178.813,6.04248,-144.272,1528
1569849143,366.899,-53.2433,-1.11621,178.813,6.04248,-144.272,1528
1569849143,366.899,-53.2433,-1.11621,178.813,6.04248,-144.272,1528
1569849143,366.899,-53.2433,-1.11621,178.813,6.04248,-144.272,1528
1569849143,366.899,-53.2433,-1.11621,178.813,6.04248,-144.272,1528
1569849143,366.899,-53.2433,-1.11621,178.813,6.04248,-144.272,1528
1569849143,366.899,-53.2433,-1.11621,178.813,6.04248,-144.272,1528
1569849143,366.899,-53.2433,-1.11621,178.813,6.04248,-144.272,1528
1569849143,366.899,-53.2433,-1.11621,178.813,6.04248,-144.272,1528
1569849143,366.899,-53.2433,-1.11621,178.813,6.04248,-144.272,1528
1569849143,366.899,-53.2433,-1.11621,178.813,6.04248,-144.272,1528
1569849143,366.899,-53.2433,-1.11621,178.813,6.04248,-144.272,1532
1569849143,366.899,-53.2433,-1.11621,178.813,6.04248,-144.272,1532
1569849143,366.899,-53.2433,-1.11621,178.813,6.04248,-144.272,1532
1569849143,366.899,-53.2433,-1.11621,178.813,6.04248,-144.272,1532
1569849143,366.899,-53.2433,-1.11621,178.835,6.04248,-144.272,1532
1569849143,366.899,-53.2433,-1.11621,178.813,6.04248,-144.272,1532
1569849143,366.899,-53.2433,-1.11621,178.813,6.04248,-144.272,1532
1569849143,366.899,-53.2433,-1.11621,178.813,6.06445,-144.272,1532
1569849143,366.899,-53.2433,-1.11621,178.813,6.06445,-144.272,1532
1569849143,366.899,-53.2433,-1.11621,178.813,6.06445,-144.272,1532
1569849143,366.899,-53.2433,-1.00459,178.813,6.06445,-144.272,1532
1569849143,366.899,-53.2433,-1.00459,178.813,6.06445,-144.272,1532
1569849143,366.899,-53.2433,-1.00459,178.813,6.06445,-144.272,1532
1569849143,366.899,-53.2433,-1.00459,178.813,6.06445,-144.272,1528
1569849143,367.01,-53.2433,-1.00459,178.813,6.06445,-144.272,1528
1569849143,367.01,-53.2433,-1.00459,178.813,6.06445,-144.272,1528
1569849143,367.01,-53.2433,-1.00459,178.813,6.06445,-144.272,1528
1569849143,367.01,-53.2433,-1.00459,178.813,6.06445,-144.272,1528
1569849143,367.01,-53.2433,-1.00459,178.813,6.06445,-144.272,1528
1569849143,367.01,-53.2433,-1.00459,178.813,6.06445,-144.272,1528
1569849143,367.01,-53.2433,-1.00459,178.813,6.06445,-144.272,1528
1569849143,366.899,-53.2433,-1.00459,178.813,6.06445,-144.294,1528
1569849143,366.899,-53.2433,-1.00459,178.813,6.06445,-144.294,1528
1569849143,366.899,-53.2433,-1.00459,178.813,6.06445,-144.272,1528
1569849143,366.899,-53.2433,-1.00459,178.813,6.06445,-144.272,1528
1569849143,366.899,-53.2433,-1.11621,178.813,6.06445,-144.272,1528
1569849143,366.899,-53.2433,-1.11621,178.813,6.06445,-144.272,1528
1569849143,366.899,-53.2433,-1.11621,178.813,6.06445,-144.272,1528
1569849143,366.899,-53.2433,-1.11621,178.813,6.06445,-144.272,1524
1569849143,366.899,-53.2433,-1.11621,178.813,6.06445,-144.272,1524
1569849143,366.899,-53.2433,-1.11621,178.813,6.06445,-144.272,1524
1569849143,366.899,-53.2433,-1.11621,178.813,6.06445,-144.272,1524
1569849143,366.899,-53.2433,-1.11621,178.813,6.06445,-144.272,1524
1569849143,366.899,-53.2433,-1.11621,178.813,6.06445,-144.272,1524
1569849143,366.899,-53.2433,-1.11621,178.792,6.06445,-144.272,1524
1569849143,366.899,-53.2433,-1.11621,178.792,6.06445,-144.272,1524
1569849143,366.899,-53.2433,-1.11621,178.792,6.06445,-144.272,1520
1569849143,366.899,-53.2433,-1.11621,178.792,6.06445,-144.272,1520
1569849143,366.899,-53.2433,-1.11621,178.792,6.06445,-144.272,1520
1569849143,366.899,-53.2433,-1.11621,178.792,6.06445,-144.272,1520
1569849143,366.899,-53.2433,-1.11621,178.792,6.06445,-144.272,1520
1569849143,366.899,-53.2433,-1.11621,178.792,6.06445,-144.272,1520
1569849143,366.899,-53.2433,-1.11621,178.792,6.06445,-144.272,1520
1569849143,366.899,-53.2433,-1.11621,178.792,6.06445,-144.272,1520
1569849143,366.899,-53.2433,-1.11621,178.792,6.06445,-144.272,1516
1569849143,366.899,-53.2433,-1.11621,178.792,6.06445,-144.272,1516
1569849143,366.899,-53.2433,-1.11621,178.813,6.06445,-144.272,1516
1569849143,366.899,-53.2433,-1.11621,178.813,6.06445,-144.272,1516
1569849143,366.899,-53.2433,-1.11621,178.813,6.06445,-144.272,1516
1569849143,366.899,-53.2433,-1.11621,178.813,6.06445,-144.272,1516
1569849143,366.899,-53.2433,-1.11621,178.813,6.06445,-144.272,1512
1569849143,366.899,-53.2433,-1.11621,178.813,6.06445,-144.272,1512
1569849143,366.899,-53.2433,-1.11621,178.813,6.06445,-144.272,1512
1569849143,366.899,-53.2433,-1.11621,178.813,6.06445,-144.272,1512
1569849143,366.899,-53.2433,-1.11621,178.813,6.06445,-144.272,1512
1569849143,366.899,-53.2433,-1.11621,178.813,6.06445,-144.272,1516
1569849143,366.899,-53.2433,-1.11621,178.813,6.06445,-144.272,1516
1569849143,366.899,-53.2433,-1.11621,178.813,6.06445,-144.272,1516
1569849143,366.899,-53.2433,-1.11621,178.813,6.06445,-144.272,1516
1569849143,367.01,-53.2433,-1.11621,178.813,6.06445,-144.272,1516
1569849143,367.01,-53.2433,-1.11621,178.813,6.06445,-144.272,1520
1569849143,367.01,-53.2433,-1.11621,178.813,6.06445,-144.272,1520
1569849143,367.01,-53.2433,-1.11621,178.813,6.06445,-144.272,1520
1569849143,367.01,-53.2433,-1.00459,178.813,6.06445,-144.272,1524
1569849143,366.899,-53.2433,-1.00459,178.813,6.06445,-144.272,1524
1569849143,366.899,-53.2433,-1.00459,178.813,6.08643,-144.272,1524
1569849143,366.899,-53.2433,-1.00459,178.813,6.08643,-144.272,1524
1569849143,366.899,-53.2433,-1.00459,178.813,6.08643,-144.272,1524
1569849143,366.899,-53.2433,-1.00459,178.813,6.08643,-144.272,1524
1569849143,366.899,-53.2433,-1.00459,178.813,6.08643,-144.272,1524
1569849143,366.899,-53.2433,-1.00459,178.835,6.08643,-144.272,1524
1569849143,366.899,-53.2433,-1.00459,178.835,6.08643,-144.272,1524
1569849143,367.01,-53.2433,-1.00459,178.835,6.08643,-144.25,1524
1569849143,367.01,-53.2433,-1.00459,178.835,6.08643,-144.25,1524
1569849143,367.01,-53.2433,-1.00459,178.835,6.08643,-144.25,1524
1569849143,367.01,-53.2433,-1.00459,178.835,6.08643,-144.25,1524
1569849143,367.01,-53.2433,-1.00459,178.835,6.06445,-144.25,1528
1569849143,367.01,-53.2433,-1.00459,178.835,6.06445,-144.25,1528
1569849143,367.01,-53.2433,-1.00459,178.835,6.06445,-144.25,1528
1569849143,367.01,-53.2433,-1.00459,178.835,6.06445,-144.272,1528
1569849143,367.01,-53.2433,-1.00459,178.835,6.06445,-144.272,1528
1569849143,366.899,-53.2433,-1.00459,178.835,6.06445,-144.272,1528
1569849143,366.899,-53.2433,-1.00459,178.835,6.06445,-144.272,1528
1569849143,366.899,-53.2433,-1.00459,178.835,6.06445,-144.272,1528
1569849143,366.899,-53.2433,-1.00459,178.835,6.06445,-144.272,1528
1569849143,366.899,-53.2433,-1.00459,178.835,6.06445,-144.272,1528
1569849144,366.899,-53.2433,-1.00459,178.813,6.06445,-144.272,1528
1569849144,366.899,-53.2433,-1.00459,178.813,6.08643,-144.272,1528
1569849144,366.899,-53.2433,-1.00459,178.813,6.08643,-144.272,1528
1569849144,366.899,-53.2433,-1.00459,178.813,6.08643,-144.272,1528
1569849144,366.899,-53.2433,-1.00459,178.813,6.08643,-144.272,1528
1569849144,366.899,-53.2433,-1.00459,178.813,6.08643,-144.272,1528
1569849144,366.899,-53.2433,-1.00459,178.813,6.08643,-144.272,1528
1569849144,366.899,-53.2433,-1.00459,178.813,6.08643,-144.272,1528
1569849144,367.01,-53.2433,-1.00459,178.813,6.08643,-144.272,1528
1569849144,367.01,-53.2433,-1.00459,178.835,6.08643,-144.272,1528
1569849144,367.01,-53.2433,-1.00459,178.835,6.08643,-144.272,1528
1569849144,367.01,-53.2433,-1.00459,178.835,6.06445,-144.272,1528
1569849144,367.01,-53.1316,-1.00459,178.835,6.06445,-144.272,1528
1569849144,367.01,-53.1316,-1.00459,178.835,6.06445,-144.272,1528
1569849144,367.01,-53.1316,-1.00459,178.835,6.06445,-144.272,1532
1569849144,367.01,-53.1316,-1.11621,178.835,6.06445,-144.272,1532
1569849144,367.01,-53.1316,-1.11621,178.835,6.06445,-144.272,1532
1569849144,367.01,-53.1316,-1.11621,178.835,6.06445,-144.272,1532
1569849144,367.01,-53.1316,-1.11621,178.835,6.06445,-144.272,1532
1569849144,367.01,-53.1316,-1.11621,178.835,6.06445,-144.272,1536
1569849144,367.01,-53.1316,-1.00459,178.835,6.06445,-144.272,1536
1569849144,367.01,-53.1316,-1.00459,178.857,6.06445,-144.272,1536
1569849144,367.01,-53.1316,-1.00459,178.857,6.06445,-144.272,1536
1569849144,367.01,-53.1316,-1.00459,178.857,6.06445,-144.272,1536
1569849144,367.01,-53.1316,-1.00459,178.857,6.06445,-144.272,1536
1569849144,367.01,-53.1316,-1.00459,178.857,6.06445,-144.25,1536
1569849144,367.01,-53.1316,-1.00459,178.857,6.06445,-144.25,1536
1569849144,367.01,-53.1316,-1.00459,178.857,6.06445,-144.25,1536
1569849144,367.01,-53.1316,-1.00459,178.857,6.06445,-144.25,1536
1569849144,367.01,-53.1316,-1.00459,178.835,6.06445,-144.25,1536
1569849144,367.01,-53.1316,-1.00459,178.835,6.08643,-144.25,1536
1569849144,367.01,-53.1316,-1.00459,178.835,6.08643,-144.25,1532
1569849144,367.01,-53.1316,-1.00459,178.835,6.08643,-144.25,1532
1569849144,367.01,-53.1316,-1.00459,178.835,6.08643,-144.25,1532
1569849144,366.899,-53.1316,-1.00459,178.835,6.08643,-144.25,1532
1569849144,366.899,-53.1316,-1.00459,178.835,6.08643,-144.25,1532
1569849144,366.899,-53.1316,-1.00459,178.835,6.08643,-144.272,1532
1569849144,366.899,-53.1316,-1.00459,178.835,6.08643,-144.272,1532
1569849144,367.01,-53.1316,-1.00459,178.835,6.08643,-144.272,1532
1569849144,367.01,-53.1316,-1.00459,178.835,6.08643,-144.272,1532
1569849144,367.01,-53.1316,-1.00459,178.835,6.08643,-144.272,1532
1569849144,367.01,-53.1316,-1.00459,178.835,6.08643,-144.272,1536
1569849144,367.01,-53.1316,-1.00459,178.835,6.08643,-144.272,1536
1569849144,367.01,-53.1316,-1.00459,178.835,6.08643,-144.272,1536
1569849144,367.01,-53.1316,-1.00459,178.835,6.08643,-144.25,1536
1569849144,367.01,-53.1316,-1.00459,178.835,6.08643,-144.25,1536
1569849144,367.01,-53.1316,-1.00459,178.835,6.08643,-144.25,1536
1569849144,367.01,-53.1316,-1.00459,178.835,6.08643,-144.25,1536
1569849144,367.01,-53.1316,-1.00459,178.835,6.06445,-144.25,1536
1569849144,367.01,-53.1316,-1.00459,178.835,6.06445,-144.25,1532
1569849144,367.01,-53.1316,-1.00459,178.835,6.06445,-144.25,1532
1569849144,366.899,-53.1316,-1.00459,178.857,6.06445,-144.25,1532
1569849144,366.899,-53.1316,-1.00459,178.857,6.06445,-144.25,1532
1569849144,366.899,-53.1316,-1.00459,178.857,6.06445,-144.272,1532
1569849144,366.899,-53.1316,-1.00459,178.857,6.06445,-144.272,1528
1569849144,366.899,-53.1316,-1.00459,178.857,6.06445,-144.272,1528
1569849144,366.899,-53.1316,-1.00459,178.857,6.06445,-144.272,1528
1569849144,366.899,-53.1316,-1.00459,178.857,6.06445,-144.272,1528
1569849144,366.899,-53.1316,-1.00459,178.857,6.06445,-144.272,1528
1569849144,366.899,-53.1316,-1.00459,178.857,6.08643,-144.272,1528
1569849144,366.899,-53.1316,-1.00459,178.857,6.08643,-144.272,1528
1569849144,366.899,-53.1316,-1.00459,178.857,6.08643,-144.272,1528
1569849144,366.899,-53.1316,-1.00459,178.857,6.08643,-144.272,1528
1569849144,366.899,-53.1316,-1.00459,178.857,6.08643,-144.272,1532
1569849144,366.899,-53.1316,-1.00459,178.857,6.08643,-144.272,1532
1569849144,366.899,-53.1316,-1.00459,178.857,6.08643,-144.272,1532
1569849144,366.899,-53.1316,-1.00459,178.857,6.06445,-144.272,1532
1569849144,366.899,-53.1316,-1.00459,178.857,6.06445,-144.272,1532
1569849144,366.899,-53.1316,-1.00459,178.857,6.06445,-144.272,1532
1569849144,366.899,-53.1316,-1.00459,178.857,6.06445,-144.272,1532
1569849144,366.899,-53.1316,-1.00459,178.857,6.06445,-144.25,1532
1569849144,366.899,-53.1316,-1.00459,178.857,6.06445,-144.25,1528
1569849144,366.899,-53.1316,-1.00459,178.857,6.06445,-144.25,1528
1569849144,366.899,-53.1316,-1.00459,178.857,6.06445,-144.25,1528
1569849144,366.899,-53.1316,-1.00459,178.857,6.06445,-144.25,1528
1569849144,366.899,-53.1316,-1.00459,178.857,6.06445,-144.25,1528
1569849144,366.899,-53.1316,-1.00459,178.857,6.06445,-144.25,1528
1569849144,366.899,-53.1316,-1.00459,178.835,6.06445,-144.25,1528
1569849144,366.899,-53.1316,-1.00459,178.835,6.08643,-144.25,1528
1569849144,366.899,-53.1316,-1.00459,178.835,6.06445,-144.25,1528
1569849144,366.899,-53.1316,-1.00459,178.835,6.06445,-144.25,1528
1569849144,366.899,-53.1316,-1.00459,178.835,6.06445,-144.25,1528
1569849144,366.899,-53.1316,-1.00459,178.835,6.06445,-144.25,1528
1569849144,366.899,-53.1316,-1.00459,178.835,6.06445,-144.272,1528
1569849144,366.899,-53.1316,-1.00459,178.835,6.08643,-144.272,1528
1569849144,366.899,-53.1316,-1.00459,178.835,6.08643,-144.272,1528
1569849144,366.899,-53.1316,-1.00459,178.835,6.08643,-144.272,1528
1569849144,366.899,-53.1316,-1.00459,178.835,6.08643,-144.272,1528
1569849144,367.01,-53.1316,-1.00459,178.835,6.08643,-144.272,1528
1569849144,367.01,-53.1316,-1.00459,178.835,6.08643,-144.272,1528
1569849144,367.01,-53.2433,-1.00459,178.835,6.08643,-144.272,1528
1569849144,367.01,-53.2433,-1.00459,178.835,6.08643,-144.272,1532
1569849144,367.01,-53.2433,-1.00459,178.835,6.08643,-144.272,1532
1569849144,367.01,-53.2433,-1.00459,178.835,6.08643,-144.272,1532
1569849144,367.01,-53.2433,-1.00459,178.835,6.08643,-144.272,1532
1569849144,367.01,-53.2433,-1.00459,178.835,6.08643,-144.272,1532
1569849144,367.01,-53.2433,-1.00459,178.835,6.08643,-144.272,1532
1569849144,367.01,-53.2433,-1.00459,178.835,6.08643,-144.272,1532
1569849144,367.01,-53.2433,-1.00459,178.835,6.08643,-144.272,1532
1569849144,367.01,-53.2433,-1.00459,178.835,6.08643,-144.272,1532
1569849145,367.01,-53.2433,-1.00459,178.835,6.08643,-144.272,1532
1569849145,367.01,-53.2433,-1.00459,178.835,6.08643,-144.272,1532
1569849145,367.01,-53.2433,-1.00459,178.835,6.08643,-144.272,1532
1569849145,367.01,-53.2433,-1.00459,178.835,6.08643,-144.272,1532
1569849145,367.01,-53.2433,-1.00459,178.835,6.08643,-144.272,1528
1569849145,367.01,-53.1316,-1.00459,178.835,6.08643,-144.272,1528
1569849145,366.899,-53.1316,-1.00459,178.835,6.08643,-144.272,1528
1569849145,366.899,-53.1316,-1.00459,178.835,6.08643,-144.272,1528
1569849145,366.899,-53.1316,-1.00459,178.835,6.08643,-144.272,1528
1569849145,366.899,-53.1316,-1.00459,178.835,6.06445,-144.272,1524
1569849145,366.899,-53.1316,-1.00459,178.835,6.06445,-144.272,1524
1569849145,366.899,-53.1316,-1.00459,178.835,6.06445,-144.272,1524
1569849145,366.899,-53.1316,-1.00459,178.835,6.06445,-144.272,1524
1569849145,366.899,-53.2433,-1.00459,178.835,6.06445,-144.272,1524
1569849145,367.01,-53.2433,-1.00459,178.835,6.06445,-144.272,1524
1569849145,367.01,-53.2433,-1.00459,178.835,6.06445,-144.272,1524
1569849145,366.899,-53.2433,-1.00459,178.835,6.06445,-144.272,1524
1569849145,366.899,-53.2433,-1.00459,178.835,6.06445,-144.272,1524
1569849145,366.899,-53.2433,-1.00459,178.835,6.06445,-144.272,1524
1569849145,366.899,-53.2433,-1.00459,178.835,6.06445,-144.272,1524
1569849145,366.899,-53.2433,-1.00459,178.835,6.06445,-144.272,1524
1569849145,366.899,-53.2433,-1.00459,178.835,6.08643,-144.272,1520
1569849145,366.899,-53.2433,-1.00459,178.835,6.08643,-144.272,1520
1569849145,366.899,-53.2433,-1.00459,178.835,6.08643,-144.272,1520
1569849145,367.01,-53.2433,-1.00459,178.835,6.08643,-144.272,1520
1569849145,367.01,-53.2433,-1.00459,178.835,6.08643,-144.272,1520
1569849145,367.01,-53.2433,-1.00459,178.835,6.08643,-144.272,1520
1569849145,367.01,-53.2433,-1.00459,178.835,6.08643,-144.272,1520
1569849145,367.01,-53.2433,-1.00459,178.835,6.08643,-144.272,1520
1569849145,367.01,-53.2433,-1.00459,178.835,6.08643,-144.272,1520
1569849145,367.01,-53.2433,-1.00459,178.835,6.08643,-144.272,1520
1569849145,367.01,-53.2433,-1.00459,178.835,6.08643,-144.272,1520
1569849145,367.01,-53.2433,-1.00459,178.835,6.08643,-144.272,1520
1569849145,367.01,-53.2433,-1.00459,178.835,6.08643,-144.272,1520
1569849145,367.01,-53.2433,-1.00459,178.835,6.08643,-144.272,1520
1569849145,367.01,-53.2433,-1.00459,178.835,6.08643,-144.272,1516
1569849145,366.899,-53.2433,-1.00459,178.835,6.08643,-144.272,1516
1569849145,366.899,-53.2433,-1.00459,178.835,6.08643,-144.272,1516
1569849145,366.899,-53.2433,-1.00459,178.835,6.08643,-144.272,1516
1569849145,366.899,-53.2433,-1.00459,178.835,6.08643,-144.25,1516
1569849145,366.899,-53.2433,-1.00459,178.835,6.08643,-144.25,1516
1569849145,366.899,-53.2433,-1.00459,178.835,6.08643,-144.25,1512
1569849145,366.899,-53.2433,-1.00459,178.835,6.08643,-144.25,1512
1569849145,366.899,-53.2433,-1.00459,178.835,6.08643,-144.25,1512
1569849145,366.899,-53.2433,-1.00459,178.835,6.08643,-144.25,1512
1569849145,366.899,-53.2433,-1.00459,178.835,6.08643,-144.25,1512
1569849145,366.899,-53.2433,-1.00459,178.835,6.08643,-144.25,1512
1569849145,366.899,-53.2433,-1.00459,178.835,6.08643,-144.25,1512
1569849145,366.899,-53.1316,-1.00459,178.835,6.08643,-144.25,1512
1569849145,367.01,-53.1316,-1.00459,178.835,6.08643,-144.272,1508
1569849145,367.01,-53.2433,-1.00459,178.835,6.06445,-144.272,1508
1569849145,367.01,-53.2433,-1.00459,178.835,6.06445,-144.272,1508
1569849145,367.01,-53.2433,-1.00459,178.835,6.06445,-144.272,1508
1569849145,367.01,-53.2433,-1.00459,178.835,6.06445,-144.272,1508
