time,x,y,z,ax,ay,az,q
1569922936,411.324,68.8702,-3.01377,177.385,4.74609,-145.547,1628
1569922936,411.324,68.8702,-3.01377,177.385,4.76807,-145.547,1628
1569922936,411.212,68.8702,-3.01377,177.385,4.76807,-145.547,1632
1569922936,411.212,68.8702,-3.01377,177.385,4.76807,-145.547,1632
1569922936,411.212,68.8702,-3.01377,177.385,4.76807,-145.525,1632
1569922936,411.212,68.8702,-3.01377,177.385,4.76807,-145.525,1632
1569922936,411.212,68.8702,-3.01377,177.385,4.76807,-145.525,1632
1569922936,411.212,68.8702,-3.01377,177.385,4.76807,-145.525,1632
1569922936,411.212,68.8702,-3.01377,177.385,4.76807,-145.525,1632
1569922936,411.212,68.8702,-3.01377,177.385,4.76807,-145.525,1628
1569922936,411.212,68.8702,-3.01377,177.385,4.76807,-145.525,1628
1569922936,411.212,68.8702,-3.01377,177.385,4.76807,-145.525,1628
1569922936,411.212,68.8702,-3.01377,177.385,4.76807,-145.525,1628
1569922936,411.212,68.8702,-3.01377,177.385,4.76807,-145.525,1628
1569922936,411.212,68.8702,-3.01377,177.385,4.76807,-145.525,1628
1569922936,411.212,68.8702,-3.01377,177.385,4.76807,-145.525,1628
1569922936,411.212,68.8702,-3.01377,177.385,4.76807,-145.525,1624
1569922936,411.212,68.8702,-3.01377,177.407,4.76807,-145.525,1624
1569922936,411.212,68.8702,-3.01377,177.407,4.76807,-145.525,1624
1569922936,411.212,68.8702,-3.01377,177.407,4.76807,-145.525,1624
1569922936,411.212,68.8702,-3.01377,177.407,4.74609,-145.525,1624
1569922936,411.212,68.8702,-3.01377,177.407,4.74609,-145.525,1620
1569922936,411.212,68.8702,-3.01377,177.407,4.74609,-145.525,1620
1569922936,411.212,68.8702,-3.01377,177.407,4.74609,-145.525,1620
1569922936,411.212,68.8702,-3.01377,177.407,4.74609,-145.525,1620
1569922936,411.212,68.8702,-3.01377,177.407,4.74609,-145.525,1620
1569922937,411.212,68.8702,-3.01377,177.407,4.74609,-145.525,1620
1569922937,411.212,68.8702,-3.01377,177.407,4.74609,-145.525,1620
1569922937,411.212,68.8702,-3.01377,177.407,4.74609,-145.525,1620
1569922937,411.1,68.8702,-3.01377,177.407,4.74609,-145.547,1620
1569922937,411.1,68.8702,-3.01377,177.407,4.74609,-145.547,1620
1569922937,411.1,68.8702,-3.01377,177.407,4.74609,-145.547,1620
1569922937,411.1,68.8702,-3.01377,177.407,4.74609,-145.547,1616
1569922937,411.1,68.8702,-3.01377,177.407,4.74609,-145.547,1616
1569922937,411.1,68.8702,-3.01377,177.407,4.74609,-145.547,1616
1569922937,411.1,68.8702,-3.01377,177.407,4.74609,-145.569,1616
1569922937,411.212,68.8702,-3.01377,177.407,4.74609,-145.569,1612
1569922937,411.212,68.8702,-3.01377,177.407,4.74609,-145.569,1612
1569922937,411.212,68.8702,-3.01377,177.407,4.74609,-145.569,1612
1569922937,411.212,68.8702,-3.01377,177.407,4.74609,-145.569,1612
1569922937,411.212,68.8702,-3.01377,177.385,4.76807,-145.569,1612
1569922937,411.212,68.8702,-3.01377,177.385,4.76807,-145.569,1612
1569922937,411.212,68.8702,-2.90215,177.385,4.76807,-145.569,1612
1569922937,411.212,68.8702,-2.90215,177.385,4.76807,-145.569,1612
1569922937,411.212,68.8702,-2.90215,177.385,4.79004,-145.569,1616
1569922937,411.212,68.8702,-2.90215,177.385,4.79004,-145.569,1616
1569922937,411.212,68.8702,-2.90215,177.385,4.79004,-145.569,1616
1569922937,411.212,68.7586,-2.90215,177.385,4.79004,-145.569,1616
1569922937,411.212,68.7586,-2.90215,177.385,4.79004,-145.547,1616
1569922937,411.212,68.7586,-2.90215,177.385,4.79004,-145.547,1616
1569922937,411.1,68.7586,-2.90215,177.385,4.79004,-145.547,1616
1569922937,411.1,68.7586,-2.79053,177.385,4.79004,-145.547,1616
1569922937,411.1,68.7586,-2.79053,177.385,4.79004,-145.547,1612
1569922937,411.1,68.7586,-2.79053,177.385,4.79004,-145.547,1612
1569922937,411.1,68.7586,-2.79053,177.385,4.79004,-145.547,1612
1569922937,411.1,68.7586,-2.79053,177.385,4.81201,-145.547,1612
1569922937,411.1,68.7586,-2.79053,177.385,4.81201,-145.547,1612
1569922937,411.1,68.7586,-2.79053,177.385,4.81201,-145.547,1612
1569922937,411.1,68.7586,-2.79053,177.385,4.81201,-145.547,1612
1569922937,411.1,68.7586,-2.79053,177.385,4.81201,-145.547,1608
1569922937,411.1,68.7586,-2.79053,177.385,4.81201,-145.547,1608
1569922937,411.1,68.7586,-2.79053,177.385,4.81201,-145.547,1608
1569922937,411.1,68.7586,-2.79053,177.385,4.81201,-145.569,1608
1569922937,411.1,68.7586,-2.79053,177.385,4.79004,-145.569,1608
1569922937,411.1,68.7586,-2.79053,177.385,4.79004,-145.569,1608
1569922937,411.1,68.7586,-2.79053,177.385,4.79004,-145.547,1608
1569922937,411.1,68.7586,-2.79053,177.385,4.79004,-145.547,1608
1569922937,411.1,68.7586,-2.90215,177.385,4.79004,-145.547,1608
1569922937,411.1,68.8702,-2.90215,177.385,4.79004,-145.547,1612
1569922937,411.1,68.8702,-2.90215,177.407,4.79004,-145.547,1612
1569922937,411.1,68.8702,-2.90215,177.407,4.79004,-145.547,1612
1569922937,411.1,68.8702,-2.90215,177.407,4.79004,-145.547,1612
1569922937,411.1,68.8702,-2.90215,177.407,4.79004,-145.547,1616
1569922937,411.1,68.8702,-2.90215,177.385,4.79004,-145.547,1616
1569922937,411.212,68.7586,-2.90215,177.385,4.79004,-145.547,1616
1569922937,411.212,68.7586,-2.90215,177.385,4.79004,-145.547,1616
1569922937,411.212,68.7586,-2.90215,177.385,4.79004,-145.525,1620
1569922937,411.212,68.7586,-2.90215,177.385,4.79004,-145.525,1620
1569922937,411.212,68.7586,-2.90215,177.385,4.79004,-145.525,1620
1569922937,411.212,68.7586,-2.90215,177.385,4.79004,-145.525,1620
1569922937,411.212,68.7586,-2.90215,177.385,4.79004,-145.525,1620
1569922937,411.1,68.7586,-2.90215,177.363,4.79004,-145.547,1620
1569922937,411.1,68.7586,-2.90215,177.363,4.79004,-145.547,1620
1569922937,411.1,68.7586,-2.90215,177.363,4.79004,-145.547,1624
1569922937,411.1,68.7586,-2.90215,177.363,4.79004,-145.547,1624
1569922937,411.1,68.7586,-2.90215,177.363,4.79004,-145.547,1624
1569922937,411.212,68.7586,-2.79053,177.363,4.79004,-145.547,1624
1569922937,411.212,68.7586,-2.79053,177.363,4.81201,-145.547,1624
1569922937,411.212,68.7586,-2.79053,177.363,4.81201,-145.547,1624
1569922937,411.212,68.7586,-2.79053,177.363,4.81201,-145.547,1620
1569922937,411.212,68.7586,-2.79053,177.363,4.81201,-145.547,1620
1569922937,411.212,68.7586,-2.79053,177.363,4.81201,-145.547,1620
1569922937,411.212,68.647,-2.79053,177.363,4.81201,-145.547,1620
1569922937,411.212,68.647,-2.79053,177.363,4.81201,-145.547,1620
1569922937,411.212,68.647,-2.79053,177.341,4.81201,-145.547,1620
1569922937,411.212,68.647,-2.79053,177.341,4.81201,-145.547,1620
1569922937,411.212,68.647,-2.79053,177.341,4.81201,-145.547,1620
1569922937,411.212,68.647,-2.79053,177.341,4.81201,-145.547,1620
1569922937,411.212,68.647,-2.79053,177.341,4.81201,-145.547,1616
1569922937,411.212,68.647,-2.79053,177.341,4.79004,-145.547,1616
1569922937,411.212,68.647,-2.79053,177.341,4.79004,-145.547,1616
1569922937,411.212,68.647,-2.79053,177.341,4.79004,-145.547,1616
1569922937,411.212,68.647,-2.79053,177.341,4.79004,-145.547,1616
1569922937,411.212,68.647,-2.79053,177.341,4.79004,-145.547,1616
1569922937,411.212,68.647,-2.79053,177.341,4.79004,-145.547,1612
1569922937,411.212,68.647,-2.90215,177.341,4.79004,-145.547,1612
1569922937,411.212,68.647,-2.90215,177.341,4.79004,-145.547,1612
1569922937,411.212,68.647,-2.90215,177.363,4.79004,-145.547,1616
1569922937,411.212,68.7586,-2.90215,177.363,4.79004,-145.547,1616
1569922937,411.212,68.7586,-2.90215,177.363,4.79004,-145.547,1616
1569922937,411.212,68.7586,-2.90215,177.363,4.79004,-145.547,1616
1569922937,411.212,68.7586,-2.90215,177.363,4.79004,-145.547,1616
1569922937,411.324,68.7586,-2.90215,177.363,4.79004,-145.547,1616
1569922937,411.212,68.7586,-2.90215,177.363,4.79004,-145.547,1616
1569922937,411.212,68.7586,-2.90215,177.363,4.79004,-145.547,1616
1569922937,411.212,68.7586,-2.90215,177.363,4.79004,-145.547,1616
1569922937,411.212,68.7586,-2.90215,177.385,4.79004,-145.547,1616
1569922937,411.212,68.7586,-2.90215,177.385,4.79004,-145.547,1616
1569922937,411.212,68.7586,-2.90215,177.385,4.79004,-145.547,1616
1569922937,411.212,68.7586,-2.90215,177.385,4.79004,-145.547,1616
1569922937,411.212,68.7586,-2.90215,177.385,4.79004,-145.569,1616
1569922937,411.212,68.7586,-2.90215,177.363,4.79004,-145.569,1616
1569922937,411.212,68.7586,-2.90215,177.363,4.79004,-145.569,1616
1569922937,411.212,68.7586,-2.90215,177.363,4.79004,-145.569,1616
1569922937,411.212,68.7586,-2.90215,177.363,4.79004,-145.569,1616
1569922937,411.212,68.7586,-2.90215,177.363,4.79004,-145.569,1616
1569922938,411.212,68.7586,-2.90215,177.363,4.79004,-145.569,1612
1569922938,411.212,68.7586,-2.90215,177.363,4.79004,-145.569,1612
1569922938,411.212,68.7586,-2.90215,177.363,4.76807,-145.569,1612
1569922938,411.212,68.7586,-2.90215,177.363,4.79004,-145.569,1612
1569922938,411.212,68.7586,-2.90215,177.363,4.79004,-145.569,1612
1569922938,411.212,68.7586,-2.90215,177.363,4.79004,-145.569,1612
1569922938,411.212,68.7586,-2.90215,177.385,4.79004,-145.569,1616
1569922938,411.212,68.7586,-2.90215,177.385,4.79004,-145.569,1616
1569922938,411.212,68.7586,-2.90215,177.363,4.79004,-145.569,1616
1569922938,411.212,68.7586,-2.90215,177.363,4.79004,-145.569,1616
1569922938,411.212,68.7586,-2.90215,177.363,4.79004,-145.569,1616
1569922938,411.212,68.7586,-2.90215,177.385,4.79004,-145.569,1616
1569922938,411.212,68.7586,-2.90215,177.385,4.79004,-145.569,1616
1569922938,411.212,68.7586,-2.90215,177.385,4.79004,-145.569,1616
1569922938,411.212,68.7586,-2.90215,177.385,4.79004,-145.569,1616
1569922938,411.212,68.7586,-2.90215,177.385,4.79004,-145.569,1612
1569922938,411.212,68.7586,-2.90215,177.385,4.79004,-145.569,1612
1569922938,411.212,68.7586,-2.90215,177.385,4.81201,-145.569,1612
1569922938,411.212,68.7586,-2.79053,177.385,4.81201,-145.569,1612
1569922938,411.212,68.7586,-2.79053,177.385,4.81201,-145.569,1608
1569922938,411.212,68.8702,-2.90215,177.385,4.81201,-145.569,1608
1569922938,411.212,68.8702,-2.90215,177.385,4.79004,-145.569,1608
1569922938,411.212,68.8702,-2.90215,177.385,4.79004,-145.569,1604
1569922938,411.212,68.8702,-2.90215,177.385,4.79004,-145.569,1604
1569922938,411.212,68.8702,-2.90215,177.407,4.79004,-145.569,1604
1569922938,411.212,68.8702,-2.90215,177.407,4.81201,-145.569,1604
1569922938,411.212,68.8702,-2.90215,177.407,4.81201,-145.569,1604
1569922938,411.212,68.8702,-2.90215,177.407,4.81201,-145.569,1604
1569922938,411.212,68.8702,-2.90215,177.407,4.81201,-145.569,1604
1569922938,411.212,68.8702,-2.90215,177.407,4.81201,-145.569,1604
1569922938,411.212,68.8702,-2.79053,177.407,4.81201,-145.569,1604
1569922938,411.212,68.9818,-2.79053,177.407,4.81201,-145.569,1604
1569922938,411.212,68.9818,-2.79053,177.429,4.81201,-145.569,1604
1569922938,411.212,68.9818,-2.79053,177.429,4.81201,-145.569,1608
1569922938,411.212,68.9818,-2.79053,177.429,4.81201,-145.569,1608
1569922938,411.212,68.9818,-2.79053,177.429,4.81201,-145.569,1608
1569922938,411.212,68.9818,-2.79053,177.429,4.81201,-145.569,1608
1569922938,411.212,68.9818,-2.79053,177.429,4.81201,-145.569,1612
1569922938,411.212,68.9818,-2.79053,177.429,4.81201,-145.569,1612
1569922938,411.212,68.9818,-2.79053,177.429,4.81201,-145.569,1612
1569922938,411.212,68.9818,-2.90215,177.429,4.81201,-145.569,1612
1569922938,411.1,68.9818,-2.90215,177.429,4.81201,-145.569,1612
1569922938,411.1,68.9818,-2.90215,177.429,4.81201,-145.569,1612
1569922938,411.1,68.9818,-2.90215,177.429,4.79004,-145.569,1612
1569922938,411.1,68.9818,-2.90215,177.429,4.79004,-145.569,1612
1569922938,411.1,68.9818,-2.90215,177.429,4.79004,-145.547,1616
1569922938,411.1,68.9818,-2.90215,177.429,4.79004,-145.547,1616
1569922938,411.1,68.9818,-2.90215,177.429,4.79004,-145.547,1616
1569922938,411.1,68.9818,-2.90215,177.429,4.79004,-145.547,1616
1569922938,411.1,68.9818,-2.90215,177.429,4.79004,-145.547,1616
1569922938,411.1,68.9818,-2.90215,177.429,4.79004,-145.569,1616
1569922938,411.1,68.9818,-2.90215,177.407,4.79004,-145.569,1616
1569922938,411.1,68.9818,-2.90215,177.407,4.79004,-145.569,1616
1569922938,411.1,68.8702,-2.90215,177.407,4.79004,-145.569,1616
1569922938,411.1,68.8702,-2.90215,177.407,4.79004,-145.569,1616
1569922938,411.1,68.8702,-2.90215,177.407,4.79004,-145.569,1616
1569922938,411.1,68.8702,-2.90215,177.407,4.79004,-145.569,1616
1569922938,411.1,68.8702,-2.90215,177.407,4.79004,-145.569,1612
1569922938,411.1,68.8702,-2.90215,177.407,4.79004,-145.569,1612
1569922938,411.1,68.8702,-2.90215,177.407,4.79004,-145.569,1612
1569922938,411.1,68.8702,-2.90215,177.407,4.79004,-145.569,1612
1569922938,411.1,68.8702,-2.90215,177.407,4.79004,-145.569,1612
1569922938,411.1,68.8702,-2.90215,177.385,4.79004,-145.569,1612
1569922938,411.1,68.7586,-2.90215,177.385,4.79004,-145.569,1612
1569922938,411.1,68.7586,-2.90215,177.385,4.79004,-145.569,1612
1569922938,411.1,68.7586,-2.90215,177.385,4.79004,-145.569,1616
1569922938,411.1,68.7586,-2.79053,177.385,4.79004,-145.569,1616
1569922938,411.212,68.7586,-2.79053,177.385,4.79004,-145.569,1616
1569922938,411.212,68.7586,-2.79053,177.385,4.79004,-145.569,1616
1569922938,411.212,68.7586,-2.79053,177.385,4.79004,-145.569,1616
1569922938,411.212,68.7586,-2.79053,177.385,4.79004,-145.569,1616
1569922938,411.212,68.7586,-2.79053,177.385,4.79004,-145.569,1616
1569922938,411.212,68.7586,-2.79053,177.385,4.81201,-145.591,1616
1569922938,411.212,68.7586,-2.79053,177.385,4.81201,-145.591,1616
1569922938,411.212,68.7586,-2.79053,177.385,4.81201,-145.591,1616
1569922938,411.212,68.7586,-2.79053,177.385,4.81201,-145.591,1616
1569922938,411.212,68.7586,-2.79053,177.385,4.81201,-145.591,1616
1569922938,411.212,68.7586,-2.79053,177.385,4.81201,-145.591,1616
1569922938,411.212,68.7586,-2.79053,177.385,4.81201,-145.591,1616
1569922938,411.212,68.7586,-2.79053,177.385,4.81201,-145.591,1616
1569922938,411.212,68.7586,-2.79053,177.385,4.81201,-145.591,1616
1569922938,411.212,68.8702,-2.79053,177.385,4.81201,-145.591,1616
1569922938,411.212,68.8702,-2.79053,177.385,4.81201,-145.591,1616
1569922938,411.212,68.8702,-2.79053,177.407,4.81201,-145.591,1612
1569922938,411.212,68.8702,-2.79053,177.407,4.81201,-145.591,1612
1569922938,411.212,68.8702,-2.79053,177.407,4.81201,-145.591,1612
1569922938,411.212,68.8702,-2.79053,177.407,4.81201,-145.591,1612
1569922938,411.212,68.8702,-2.79053,177.407,4.79004,-145.591,1612
1569922938,411.212,68.8702,-2.79053,177.407,4.79004,-145.591,1612
1569922938,411.1,68.8702,-2.79053,177.407,4.79004,-145.591,1616
1569922938,411.1,68.8702,-2.79053,177.407,4.79004,-145.591,1616
1569922938,411.1,68.8702,-2.79053,177.407,4.79004,-145.591,1616
1569922938,411.1,68.8702,-2.79053,177.407,4.79004,-145.591,1616
1569922938,411.1,68.8702,-2.79053,177.407,4.79004,-145.591,1616
1569922938,411.1,68.8702,-2.90215,177.407,4.79004,-145.591,1620
1569922938,411.1,68.8702,-2.90215,177.407,4.79004,-145.591,1620
1569922938,411.1,68.9818,-2.90215,177.429,4.79004,-145.591,1620
1569922938,411.1,68.9818,-2.90215,177.429,4.79004,-145.591,1624
1569922938,411.1,68.9818,-2.90215,177.429,4.79004,-145.569,1624
1569922938,411.1,68.9818,-2.90215,177.429,4.79004,-145.569,1624
1569922939,411.1,68.9818,-2.90215,177.429,4.79004,-145.569,1624
1569922939,411.1,68.9818,-2.90215,177.429,4.79004,-145.569,1624
1569922939,411.1,68.9818,-2.90215,177.429,4.79004,-145.569,1624
1569922939,411.1,68.8702,-2.90215,177.429,4.79004,-145.569,1624
1569922939,411.1,68.8702,-2.90215,177.429,4.76807,-145.569,1624
1569922939,411.1,68.8702,-2.90215,177.407,4.79004,-145.569,1620
1569922939,411.1,68.8702,-2.90215,177.407,4.79004,-145.569,1620
1569922939,411.1,68.8702,-2.90215,177.407,4.79004,-145.569,1620
1569922939,411.1,68.8702,-2.90215,177.407,4.79004,-145.569,1620
1569922939,411.1,68.8702,-2.90215,177.407,4.79004,-145.569,1620
1569922939,411.1,68.8702,-2.90215,177.407,4.79004,-145.569,1616
1569922939,411.1,68.8702,-2.90215,177.407,4.79004,-145.569,1616
1569922939,411.1,68.8702,-2.90215,177.407,4.79004,-145.569,1616
1569922939,411.1,68.8702,-2.90215,177.407,4.79004,-145.569,1616
1569922939,411.212,68.8702,-2.90215,177.407,4.79004,-145.569,1612
1569922939,411.212,68.8702,-2.90215,177.407,4.79004,-145.569,1612
1569922939,411.212,68.8702,-2.90215,177.407,4.79004,-145.569,1608
1569922939,411.212,68.8702,-2.90215,177.407,4.79004,-145.569,1608
1569922939,411.212,68.8702,-2.90215,177.407,4.79004,-145.569,1608
1569922939,411.212,68.8702,-2.90215,177.429,4.76807,-145.547,1604
1569922939,411.212,68.8702,-2.90215,177.429,4.76807,-145.547,1604
1569922939,411.212,68.8702,-2.90215,177.429,4.76807,-145.547,1604
1569922939,411.212,68.8702,-2.90215,177.429,4.79004,-145.547,1604
1569922939,411.212,68.8702,-2.90215,177.429,4.79004,-145.547,1604
1569922939,411.212,68.9818,-2.90215,177.429,4.79004,-145.547,1604
1569922939,411.212,68.9818,-2.90215,177.429,4.79004,-145.547,1604
1569922939,411.212,68.9818,-2.90215,177.429,4.79004,-145.547,1604
1569922939,411.212,68.9818,-2.90215,177.429,4.79004,-145.547,1604
1569922939,411.212,68.9818,-2.90215,177.429,4.79004,-145.547,1604
1569922939,411.212,68.9818,-2.90215,177.429,4.79004,-145.525,1608
1569922939,411.212,68.9818,-2.90215,177.429,4.79004,-145.525,1608
1569922939,411.212,68.9818,-2.90215,177.429,4.79004,-145.525,1608
1569922939,411.212,68.9818,-2.90215,177.429,4.79004,-145.525,1608
1569922939,411.212,68.9818,-2.90215,177.429,4.79004,-145.525,1608
1569922939,411.212,68.9818,-2.90215,177.429,4.79004,-145.525,1608
1569922939,411.212,68.8702,-2.90215,177.429,4.79004,-145.525,1612
1569922939,411.212,68.8702,-2.90215,177.429,4.79004,-145.525,1612
1569922939,411.212,68.8702,-2.90215,177.429,4.79004,-145.525,1612
1569922939,411.212,68.8702,-2.90215,177.429,4.79004,-145.525,1612
1569922939,411.212,68.8702,-2.90215,177.429,4.79004,-145.525,1612
1569922939,411.212,68.8702,-2.90215,177.429,4.79004,-145.525,1612
1569922939,411.212,68.8702,-2.90215,177.429,4.79004,-145.525,1612
1569922939,411.212,68.8702,-2.90215,177.429,4.76807,-145.525,1612
1569922939,411.212,68.8702,-2.90215,177.429,4.76807,-145.525,1612
1569922939,411.212,68.8702,-3.01377,177.429,4.76807,-145.525,1612
1569922939,411.212,68.8702,-3.01377,177.429,4.76807,-145.525,1612
1569922939,411.212,68.8702,-3.01377,177.429,4.76807,-145.525,1612
1569922939,411.212,68.8702,-3.01377,177.429,4.76807,-145.525,1612
1569922939,411.212,68.8702,-3.01377,177.429,4.74609,-145.525,1612
1569922939,411.212,68.8702,-3.01377,177.429,4.74609,-145.525,1612
1569922939,411.212,68.8702,-3.01377,177.429,4.74609,-145.525,1612
1569922939,411.212,68.8702,-3.01377,177.429,4.74609,-145.525,1612
1569922939,411.212,68.8702,-3.01377,177.429,4.74609,-145.525,1612
1569922939,411.212,68.8702,-3.01377,177.429,4.76807,-145.525,1612
1569922939,411.212,68.8702,-3.01377,177.429,4.76807,-145.525,1612
1569922939,411.212,68.8702,-2.90215,177.429,4.76807,-145.525,1608
1569922939,411.212,68.8702,-2.90215,177.429,4.76807,-145.525,1608
1569922939,411.212,68.8702,-2.90215,177.429,4.76807,-145.525,1608
1569922939,411.212,68.8702,-2.90215,177.407,4.79004,-145.525,1608
1569922939,411.212,68.8702,-2.90215,177.407,4.79004,-145.525,1608
1569922939,411.212,68.8702,-2.90215,177.407,4.79004,-145.525,1608
1569922939,411.212,68.8702,-2.90215,177.407,4.79004,-145.525,1608
1569922939,411.212,68.8702,-2.90215,177.407,4.79004,-145.525,1608
1569922939,411.212,68.8702,-2.90215,177.407,4.79004,-145.525,1608
1569922939,411.212,68.8702,-2.79053,177.407,4.79004,-145.525,1608
1569922939,411.212,68.8702,-2.79053,177.407,4.79004,-145.525,1608
1569922939,411.212,68.8702,-2.79053,177.407,4.79004,-145.525,1608
1569922939,411.212,68.8702,-2.79053,177.407,4.79004,-145.525,1608
1569922939,411.212,68.8702,-2.90215,177.407,4.79004,-145.525,1608
1569922939,411.212,68.8702,-2.90215,177.407,4.79004,-145.547,1608
1569922939,411.212,68.8702,-2.90215,177.407,4.79004,-145.547,1608
1569922939,411.212,68.8702,-2.90215,177.407,4.79004,-145.547,1608
1569922939,411.212,68.8702,-2.90215,177.407,4.79004,-145.547,1608
1569922939,411.212,68.8702,-2.90215,177.407,4.79004,-145.547,1608
1569922939,411.212,68.9818,-2.90215,177.407,4.76807,-145.547,1608
1569922939,411.212,68.8702,-2.90215,177.407,4.76807,-145.547,1608
1569922939,411.212,68.8702,-2.90215,177.407,4.76807,-145.547,1608
1569922939,411.212,68.8702,-2.90215,177.407,4.76807,-145.547,1612
1569922939,411.212,68.8702,-2.90215,177.407,4.76807,-145.547,1612
1569922939,411.212,68.8702,-2.90215,177.407,4.76807,-145.547,1612
1569922939,411.324,68.8702,-2.90215,177.407,4.76807,-145.547,1612
1569922939,411.324,68.8702,-2.90215,177.407,4.76807,-145.547,1612
1569922939,411.324,68.8702,-2.90215,177.385,4.76807,-145.547,1612
1569922939,411.324,68.8702,-2.90215,177.385,4.76807,-145.547,1616
1569922939,411.324,68.8702,-2.90215,177.385,4.79004,-145.547,1616
1569922939,411.324,68.8702,-2.90215,177.385,4.79004,-145.525,1616
1569922939,411.324,68.8702,-2.90215,177.385,4.79004,-145.525,1616
1569922939,411.324,68.8702,-2.90215,177.385,4.79004,-145.525,1616
1569922939,411.324,68.8702,-2.90215,177.385,4.79004,-145.525,1616
1569922939,411.324,68.7586,-2.90215,177.363,4.79004,-145.525,1616
1569922939,411.324,68.7586,-2.90215,177.363,4.79004,-145.525,1616
1569922939,411.324,68.7586,-2.90215,177.363,4.79004,-145.525,1616
1569922939,411.324,68.7586,-2.90215,177.363,4.79004,-145.547,1616
1569922939,411.324,68.7586,-2.90215,177.363,4.79004,-145.547,1616
1569922939,411.324,68.7586,-2.90215,177.363,4.79004,-145.547,1612
1569922939,411.324,68.7586,-2.90215,177.363,4.79004,-145.547,1612
1569922939,411.324,68.7586,-2.90215,177.385,4.79004,-145.525,1612
1569922939,411.212,68.7586,-2.90215,177.385,4.79004,-145.525,1612
1569922939,411.212,68.7586,-2.90215,177.385,4.79004,-145.525,1608
1569922939,411.212,68.7586,-2.90215,177.385,4.79004,-145.525,1608
1569922940,411.212,68.7586,-2.90215,177.385,4.79004,-145.525,1608
1569922940,411.212,68.7586,-2.90215,177.385,4.79004,-145.525,1604
1569922940,411.212,68.7586,-2.90215,177.385,4.79004,-145.525,1604
1569922940,411.212,68.7586,-2.90215,177.385,4.79004,-145.525,1604
1569922940,411.212,68.7586,-2.90215,177.385,4.79004,-145.525,1600
1569922940,411.212,68.8702,-2.90215,177.385,4.79004,-145.525,1600
1569922940,411.212,68.8702,-2.90215,177.385,4.79004,-145.547,1600
1569922940,411.212,68.8702,-2.90215,177.385,4.79004,-145.547,1600
1569922940,411.212,68.8702,-2.90215,177.385,4.79004,-145.547,1600
1569922940,411.212,68.8702,-2.90215,177.385,4.79004,-145.547,1600
1569922940,411.212,68.8702,-2.90215,177.385,4.79004,-145.547,1600
1569922940,411.212,68.8702,-2.90215,177.385,4.79004,-145.547,1600
1569922940,411.212,68.8702,-2.90215,177.385,4.79004,-145.547,1600
1569922940,411.212,68.8702,-2.90215,177.385,4.79004,-145.547,1600
1569922940,411.212,68.8702,-2.90215,177.385,4.79004,-145.547,1604
1569922940,411.212,68.8702,-2.90215,177.385,4.79004,-145.569,1604
1569922940,411.212,68.8702,-2.90215,177.385,4.79004,-145.569,1604
1569922940,411.212,68.8702,-2.90215,177.385,4.76807,-145.569,1604
1569922940,411.212,68.8702,-2.90215,177.385,4.76807,-145.569,1604
1569922940,411.212,68.8702,-3.01377,177.385,4.76807,-145.569,1604
1569922940,411.212,68.8702,-3.01377,177.385,4.76807,-145.569,1604
1569922940,411.212,68.8702,-3.01377,177.385,4.76807,-145.569,1608
1569922940,411.212,68.8702,-3.01377,177.407,4.76807,-145.569,1608
1569922940,411.212,68.8702,-3.01377,177.385,4.74609,-145.569,1608
1569922940,411.212,68.8702,-3.01377,177.385,4.74609,-145.569,1612
1569922940,411.212,68.8702,-3.01377,177.407,4.74609,-145.569,1612
1569922940,411.212,68.8702,-3.01377,177.407,4.74609,-145.569,1612
1569922940,411.212,68.8702,-3.01377,177.407,4.74609,-145.569,1616
1569922940,411.212,68.8702,-3.01377,177.407,4.74609,-145.569,1616
1569922940,411.212,68.8702,-3.01377,177.407,4.74609,-145.569,1616
1569922940,411.212,68.8702,-3.01377,177.407,4.74609,-145.569,1616
1569922940,411.212,68.8702,-3.01377,177.407,4.74609,-145.569,1616
1569922940,411.212,68.8702,-3.01377,177.407,4.74609,-145.569,1620
1569922940,411.212,68.8702,-3.01377,177.407,4.74609,-145.569,1620
1569922940,411.212,68.8702,-3.01377,177.407,4.74609,-145.569,1616
1569922940,411.212,68.8702,-3.12539,177.407,4.72412,-145.569,1616
1569922940,411.212,68.8702,-3.12539,177.407,4.72412,-145.569,1616
1569922940,411.212,68.8702,-3.12539,177.407,4.72412,-145.569,1616
1569922940,411.212,68.8702,-3.12539,177.407,4.72412,-145.569,1616
1569922940,411.212,68.8702,-3.12539,177.385,4.72412,-145.569,1616
1569922940,411.212,68.8702,-3.12539,177.385,4.74609,-145.569,1612
1569922940,411.212,68.8702,-3.12539,177.385,4.74609,-145.569,1612
1569922940,411.212,68.8702,-3.01377,177.385,4.74609,-145.569,1612
1569922940,411.212,68.8702,-3.01377,177.385,4.74609,-145.547,1612
1569922940,411.212,68.8702,-3.01377,177.385,4.74609,-145.547,1612
1569922940,411.212,68.8702,-3.01377,177.385,4.74609,-145.547,1612
1569922940,411.212,68.8702,-3.01377,177.385,4.76807,-145.547,1612
1569922940,411.212,68.7586,-3.01377,177.385,4.76807,-145.547,1612
1569922940,411.212,68.7586,-3.01377,177.385,4.76807,-145.547,1612
1569922940,411.212,68.7586,-3.01377,177.385,4.76807,-145.547,1612
1569922940,411.212,68.7586,-3.01377,177.385,4.76807,-145.547,1612
1569922940,411.212,68.7586,-3.01377,177.385,4.76807,-145.547,1612
1569922940,411.212,68.8702,-3.01377,177.385,4.76807,-145.547,1612
1569922940,411.212,68.8702,-3.01377,177.385,4.76807,-145.547,1612
1569922940,411.1,68.8702,-3.01377,177.407,4.76807,-145.547,1612
1569922940,411.1,68.8702,-3.01377,177.407,4.76807,-145.547,1612
1569922940,411.1,68.8702,-3.01377,177.407,4.76807,-145.547,1612
1569922940,411.1,68.8702,-3.01377,177.407,4.76807,-145.547,1612
1569922940,411.1,68.8702,-3.01377,177.407,4.76807,-145.547,1612
1569922940,411.1,68.8702,-3.01377,177.407,4.74609,-145.547,1612
1569922940,411.1,68.8702,-3.01377,177.407,4.74609,-145.547,1612
1569922940,411.1,68.8702,-3.01377,177.407,4.74609,-145.547,1612
1569922940,411.1,68.8702,-3.01377,177.385,4.74609,-145.547,1612
1569922940,411.1,68.8702,-3.01377,177.385,4.74609,-145.547,1612
1569922940,411.1,68.7586,-3.01377,177.385,4.74609,-145.547,1612
1569922940,411.1,68.7586,-3.01377,177.385,4.74609,-145.547,1612
1569922940,411.1,68.7586,-3.01377,177.385,4.74609,-145.547,1612
1569922940,411.1,68.7586,-3.01377,177.385,4.74609,-145.547,1612
1569922940,411.1,68.7586,-3.01377,177.385,4.74609,-145.547,1612
1569922940,411.1,68.7586,-3.01377,177.385,4.74609,-145.547,1612
1569922940,411.1,68.7586,-3.01377,177.385,4.74609,-145.547,1612
1569922940,411.1,68.7586,-3.01377,177.385,4.74609,-145.547,1612
1569922940,411.1,68.7586,-3.01377,177.385,4.74609,-145.547,1612
1569922940,411.1,68.7586,-3.01377,177.385,4.74609,-145.547,1612
1569922940,411.1,68.7586,-3.01377,177.385,4.74609,-145.547,1612
1569922940,411.1,68.7586,-3.01377,177.385,4.74609,-145.547,1612
1569922940,411.1,68.7586,-3.01377,177.385,4.76807,-145.547,1612
1569922940,411.1,68.8702,-3.01377,177.385,4.76807,-145.547,1612
1569922940,411.1,68.8702,-3.01377,177.385,4.76807,-145.547,1608
1569922940,411.1,68.8702,-3.01377,177.385,4.76807,-145.547,1608
1569922940,411.1,68.8702,-3.01377,177.385,4.76807,-145.547,1608
1569922940,411.1,68.8702,-2.90215,177.385,4.76807,-145.547,1608
1569922940,411.1,68.8702,-2.90215,177.385,4.76807,-145.547,1608
1569922940,411.1,68.8702,-2.90215,177.385,4.76807,-145.547,1608
1569922940,411.1,68.8702,-2.90215,177.385,4.79004,-145.525,1608
1569922940,411.1,68.8702,-2.90215,177.385,4.79004,-145.525,1608
1569922940,411.1,68.8702,-2.90215,177.385,4.79004,-145.525,1608
1569922940,411.1,68.7586,-2.90215,177.385,4.79004,-145.525,1604
1569922940,411.1,68.7586,-2.90215,177.385,4.79004,-145.525,1604
1569922940,411.1,68.7586,-2.90215,177.385,4.79004,-145.525,1604
1569922940,411.1,68.7586,-2.90215,177.385,4.79004,-145.525,1604
1569922940,411.1,68.7586,-2.90215,177.385,4.79004,-145.525,1604
1569922940,411.212,68.7586,-2.90215,177.385,4.79004,-145.525,1604
1569922940,411.212,68.8702,-2.90215,177.385,4.79004,-145.525,1604
1569922940,411.212,68.8702,-2.90215,177.385,4.79004,-145.525,1604
1569922940,411.212,68.8702,-2.90215,177.385,4.79004,-145.525,1604
1569922940,411.212,68.8702,-2.90215,177.385,4.79004,-145.525,1604
1569922940,411.212,68.8702,-2.90215,177.385,4.79004,-145.525,1604
1569922940,411.212,68.8702,-2.90215,177.385,4.79004,-145.525,1604
1569922940,411.212,68.8702,-2.90215,177.385,4.79004,-145.525,1608
1569922941,411.212,68.8702,-2.90215,177.407,4.79004,-145.525,1608
1569922941,411.212,68.8702,-2.90215,177.407,4.79004,-145.525,1608
1569922941,411.212,68.8702,-2.90215,177.407,4.79004,-145.525,1612
1569922941,411.212,68.8702,-2.90215,177.407,4.79004,-145.525,1612
1569922941,411.212,68.8702,-2.90215,177.407,4.79004,-145.525,1612
1569922941,411.212,68.9818,-2.90215,177.407,4.79004,-145.525,1612
1569922941,411.212,68.9818,-3.01377,177.407,4.79004,-145.525,1616
1569922941,411.212,68.9818,-3.01377,177.407,4.76807,-145.525,1616
1569922941,411.212,68.9818,-3.01377,177.429,4.76807,-145.525,1616
1569922941,411.212,68.9818,-3.01377,177.429,4.76807,-145.525,1616
1569922941,411.212,68.9818,-3.01377,177.429,4.76807,-145.525,1616
1569922941,411.212,68.9818,-3.01377,177.429,4.76807,-145.547,1616
1569922941,411.212,68.9818,-3.01377,177.429,4.76807,-145.547,1616
1569922941,411.212,68.9818,-3.01377,177.429,4.76807,-145.547,1616
1569922941,411.212,68.9818,-3.01377,177.429,4.76807,-145.547,1616
1569922941,411.1,68.9818,-3.01377,177.429,4.76807,-145.547,1616
1569922941,411.1,68.9818,-3.01377,177.429,4.76807,-145.547,1612
1569922941,411.1,68.9818,-3.01377,177.429,4.76807,-145.547,1612
1569922941,411.1,68.9818,-3.01377,177.429,4.76807,-145.547,1612
1569922941,411.1,68.9818,-3.01377,177.429,4.76807,-145.547,1612
1569922941,411.1,68.9818,-3.01377,177.429,4.76807,-145.547,1612
1569922941,411.1,68.9818,-3.01377,177.429,4.74609,-145.547,1608
1569922941,411.1,68.9818,-3.01377,177.429,4.74609,-145.525,1608
1569922941,411.1,68.9818,-3.01377,177.429,4.74609,-145.525,1608
1569922941,411.1,68.9818,-3.01377,177.429,4.74609,-145.525,1608
1569922941,411.1,68.9818,-3.01377,177.429,4.74609,-145.525,1608
1569922941,411.1,68.9818,-3.01377,177.429,4.74609,-145.525,1608
1569922941,411.1,68.9818,-3.01377,177.429,4.74609,-145.525,1608
1569922941,411.1,68.9818,-3.01377,177.429,4.76807,-145.525,1608
1569922941,411.1,68.9818,-3.01377,177.429,4.76807,-145.525,1612
1569922941,411.1,68.9818,-3.01377,177.429,4.76807,-145.525,1612
1569922941,411.1,68.9818,-3.01377,177.429,4.76807,-145.525,1612
1569922941,411.1,68.9818,-3.01377,177.429,4.76807,-145.525,1612
1569922941,411.1,68.9818,-3.01377,177.429,4.76807,-145.525,1612
1569922941,411.1,68.9818,-3.01377,177.429,4.76807,-145.525,1612
1569922941,411.1,68.9818,-3.01377,177.429,4.76807,-145.525,1612
1569922941,411.1,68.9818,-3.01377,177.429,4.79004,-145.525,1612
1569922941,411.1,68.9818,-2.90215,177.429,4.79004,-145.547,1612
1569922941,411.1,68.9818,-2.90215,177.429,4.79004,-145.547,1612
1569922941,411.1,68.9818,-2.90215,177.429,4.79004,-145.547,1612
1569922941,411.1,68.9818,-2.90215,177.429,4.79004,-145.547,1612
1569922941,411.1,68.9818,-2.90215,177.429,4.79004,-145.547,1612
1569922941,411.1,68.9818,-2.90215,177.429,4.79004,-145.547,1612
1569922941,411.1,68.9818,-2.90215,177.429,4.79004,-145.547,1608
1569922941,411.1,68.9818,-2.90215,177.407,4.79004,-145.569,1608
1569922941,411.1,68.9818,-2.90215,177.407,4.79004,-145.569,1608
1569922941,411.1,68.8702,-2.90215,177.407,4.79004,-145.569,1608
1569922941,411.1,68.8702,-2.90215,177.407,4.79004,-145.569,1604
1569922941,411.1,68.8702,-2.90215,177.407,4.81201,-145.569,1604
1569922941,411.1,68.8702,-2.90215,177.385,4.81201,-145.569,1604
1569922941,411.1,68.8702,-2.90215,177.385,4.81201,-145.569,1604
1569922941,411.1,68.8702,-2.90215,177.385,4.79004,-145.569,1604
1569922941,411.1,68.8702,-2.90215,177.385,4.79004,-145.569,1604
1569922941,411.1,68.8702,-2.90215,177.385,4.79004,-145.569,1604
1569922941,411.1,68.8702,-2.90215,177.385,4.79004,-145.569,1604
1569922941,411.1,68.8702,-2.90215,177.385,4.79004,-145.569,1608
1569922941,411.1,68.8702,-2.90215,177.385,4.79004,-145.569,1608
1569922941,411.1,68.8702,-2.90215,177.385,4.76807,-145.569,1608
1569922941,411.1,68.8702,-3.01377,177.385,4.76807,-145.569,1608
1569922941,411.1,68.8702,-3.01377,177.385,4.76807,-145.569,1608
1569922941,411.1,68.8702,-3.01377,177.385,4.76807,-145.569,1612
1569922941,411.1,68.8702,-3.01377,177.385,4.76807,-145.569,1612
1569922941,411.1,68.8702,-3.01377,177.385,4.76807,-145.569,1612
1569922941,411.1,68.8702,-3.01377,177.385,4.76807,-145.569,1612
1569922941,411.1,68.8702,-3.01377,177.385,4.76807,-145.569,1612
1569922941,411.1,68.8702,-3.01377,177.363,4.76807,-145.569,1612
1569922941,411.1,68.8702,-3.01377,177.363,4.76807,-145.569,1612
1569922941,411.1,68.7586,-3.01377,177.363,4.76807,-145.569,1612
1569922941,411.1,68.7586,-3.01377,177.363,4.76807,-145.569,1612
1569922941,411.1,68.7586,-3.01377,177.363,4.76807,-145.569,1612
1569922941,411.1,68.7586,-3.01377,177.363,4.76807,-145.569,1616
1569922941,411.1,68.7586,-3.01377,177.363,4.76807,-145.569,1616
1569922941,411.212,68.7586,-3.01377,177.363,4.76807,-145.569,1616
1569922941,411.212,68.7586,-3.01377,177.363,4.76807,-145.569,1616
1569922944,395.585,84.9436,-2.45566,177.166,5.18555,-146.316,1504
1569922944,395.585,84.9436,-2.45566,177.166,5.16357,-146.316,1504
1569922944,395.585,84.9436,-2.45566,177.166,5.16357,-146.316,1504
1569922944,395.585,84.9436,-2.45566,177.166,5.16357,-146.316,1504
1569922944,395.585,84.9436,-2.45566,177.144,5.16357,-146.316,1504
1569922944,395.585,84.9436,-2.45566,177.144,5.16357,-146.338,1504
1569922944,395.585,84.9436,-2.45566,177.144,5.16357,-146.338,1504
1569922944,395.585,84.9436,-2.45566,177.144,5.16357,-146.338,1504
1569922944,395.585,84.9436,-2.45566,177.144,5.16357,-146.338,1504
1569922944,395.585,84.9436,-2.45566,177.144,5.16357,-146.338,1504
1569922944,395.585,84.9436,-2.45566,177.144,5.16357,-146.338,1504
1569922944,395.585,84.9436,-2.45566,177.144,5.16357,-146.338,1504
1569922944,395.585,84.9436,-2.34404,177.144,5.16357,-146.338,1504
1569922944,395.585,84.9436,-2.34404,177.144,5.18555,-146.338,1504
1569922944,395.585,84.9436,-2.34404,177.144,5.18555,-146.338,1504
1569922944,395.585,84.9436,-2.34404,177.144,5.18555,-146.338,1500
1569922944,395.585,84.9436,-2.34404,177.144,5.18555,-146.338,1500
1569922944,395.585,84.9436,-2.34404,177.144,5.18555,-146.338,1500
1569922944,395.585,84.9436,-2.34404,177.144,5.18555,-146.338,1500
1569922944,395.585,84.9436,-2.34404,177.144,5.18555,-146.338,1500
1569922944,395.585,84.9436,-2.34404,177.144,5.20752,-146.338,1500
1569922944,395.585,84.9436,-2.34404,177.144,5.20752,-146.338,1500
1569922944,395.585,84.9436,-2.23242,177.144,5.20752,-146.338,1500
1569922944,395.585,84.9436,-2.23242,177.144,5.20752,-146.338,1500
1569922944,395.585,84.9436,-2.23242,177.144,5.20752,-146.338,1500
1569922944,395.585,84.9436,-2.34404,177.144,5.20752,-146.338,1500
1569922944,395.585,84.9436,-2.34404,177.144,5.20752,-146.338,1500
1569922944,395.585,84.9436,-2.34404,177.144,5.20752,-146.338,1500
1569922944,395.585,85.0553,-2.34404,177.144,5.20752,-146.316,1500
1569922944,395.585,85.0553,-2.34404,177.144,5.20752,-146.316,1500
1569922944,395.585,85.0553,-2.34404,177.166,5.20752,-146.316,1500
1569922944,395.585,85.0553,-2.34404,177.166,5.20752,-146.316,1500
1569922944,395.585,85.0553,-2.34404,177.166,5.20752,-146.316,1500
1569922944,395.585,85.0553,-2.34404,177.166,5.20752,-146.316,1500
1569922945,395.585,85.0553,-2.34404,177.166,5.20752,-146.316,1500
1569922945,395.585,85.0553,-2.34404,177.166,5.20752,-146.316,1500
1569922945,395.585,85.0553,-2.34404,177.166,5.20752,-146.316,1500
1569922945,395.585,85.0553,-2.34404,177.166,5.20752,-146.316,1500
1569922945,395.585,85.0553,-2.34404,177.166,5.20752,-146.316,1500
1569922945,395.585,85.0553,-2.34404,177.166,5.18555,-146.316,1500
1569922945,395.585,85.0553,-2.34404,177.166,5.18555,-146.316,1500
1569922945,395.585,85.0553,-2.34404,177.166,5.18555,-146.316,1500
1569922945,395.585,85.0553,-2.34404,177.166,5.18555,-146.294,1500
1569922945,395.585,85.0553,-2.34404,177.166,5.18555,-146.294,1500
1569922945,395.585,85.0553,-2.34404,177.166,5.18555,-146.294,1504
1569922945,395.585,85.0553,-2.34404,177.166,5.18555,-146.294,1504
1569922945,395.585,85.0553,-2.34404,177.166,5.18555,-146.294,1504
1569922945,395.585,85.0553,-2.34404,177.166,5.18555,-146.294,1504
1569922945,395.585,85.0553,-2.34404,177.166,5.18555,-146.294,1504
1569922945,395.585,85.0553,-2.34404,177.166,5.18555,-146.294,1508
1569922945,395.585,85.0553,-2.34404,177.166,5.18555,-146.294,1508
1569922945,395.585,85.0553,-2.34404,177.166,5.18555,-146.294,1508
1569922945,395.585,85.0553,-2.34404,177.166,5.18555,-146.294,1508
1569922945,395.585,85.0553,-2.34404,177.166,5.18555,-146.294,1508
1569922945,395.585,85.0553,-2.34404,177.166,5.18555,-146.294,1512
1569922945,395.585,85.0553,-2.34404,177.166,5.18555,-146.294,1512
1569922945,395.585,85.0553,-2.34404,177.166,5.18555,-146.294,1512
1569922945,395.585,85.0553,-2.34404,177.166,5.18555,-146.294,1512
1569922945,395.585,85.0553,-2.34404,177.166,5.18555,-146.294,1512
1569922945,395.585,85.0553,-2.34404,177.166,5.18555,-146.294,1512
1569922945,395.585,85.0553,-2.34404,177.144,5.18555,-146.294,1512
1569922945,395.585,84.9436,-2.34404,177.144,5.18555,-146.294,1512
1569922945,395.585,84.9436,-2.34404,177.144,5.18555,-146.294,1512
1569922945,395.585,84.9436,-2.34404,177.144,5.18555,-146.294,1512
1569922945,395.585,84.9436,-2.34404,177.144,5.18555,-146.294,1516
1569922945,395.585,84.9436,-2.34404,177.144,5.18555,-146.294,1516
1569922945,395.585,84.9436,-2.34404,177.144,5.18555,-146.294,1516
1569922945,395.585,85.0553,-2.34404,177.144,5.18555,-146.294,1516
1569922945,395.585,85.0553,-2.34404,177.166,5.18555,-146.294,1516
1569922945,395.585,85.0553,-2.34404,177.166,5.18555,-146.294,1516
1569922945,395.585,85.0553,-2.34404,177.166,5.18555,-146.294,1516
1569922945,395.585,85.0553,-2.34404,177.166,5.18555,-146.294,1520
1569922945,395.585,85.0553,-2.34404,177.166,5.18555,-146.316,1520
1569922945,395.585,85.0553,-2.34404,177.166,5.18555,-146.316,1520
1569922945,395.585,85.0553,-2.34404,177.166,5.18555,-146.316,1520
1569922945,395.585,85.0553,-2.34404,177.166,5.18555,-146.316,1520
1569922945,395.585,85.0553,-2.34404,177.166,5.18555,-146.316,1516
1569922945,395.585,85.0553,-2.34404,177.166,5.18555,-146.316,1516
1569922945,395.585,85.0553,-2.34404,177.166,5.18555,-146.316,1516
1569922945,395.585,85.0553,-2.34404,177.166,5.18555,-146.316,1516
1569922945,395.585,84.9436,-2.34404,177.166,5.18555,-146.316,1516
1569922945,395.585,84.9436,-2.34404,177.166,5.18555,-146.316,1516
1569922945,395.585,84.9436,-2.34404,177.166,5.18555,-146.316,1516
1569922945,395.585,84.9436,-2.34404,177.166,5.18555,-146.316,1516
1569922945,395.585,84.9436,-2.45566,177.166,5.18555,-146.316,1516
1569922945,395.585,85.0553,-2.45566,177.166,5.18555,-146.316,1516
1569922945,395.585,85.0553,-2.45566,177.166,5.18555,-146.316,1516
1569922945,395.585,85.0553,-2.45566,177.166,5.18555,-146.316,1516
1569922945,395.585,85.0553,-2.45566,177.166,5.18555,-146.316,1516
1569922945,395.585,85.0553,-2.45566,177.166,5.18555,-146.316,1516
1569922945,395.585,85.0553,-2.45566,177.166,5.18555,-146.316,1516
1569922945,395.585,85.0553,-2.45566,177.166,5.18555,-146.316,1516
1569922945,395.585,85.0553,-2.45566,177.166,5.18555,-146.316,1516
1569922945,395.585,85.0553,-2.45566,177.166,5.18555,-146.316,1516
1569922945,395.585,85.0553,-2.45566,177.166,5.18555,-146.316,1516
1569922945,395.585,85.0553,-2.34404,177.166,5.18555,-146.316,1516
1569922945,395.585,85.0553,-2.34404,177.188,5.18555,-146.316,1516
1569922945,395.585,85.0553,-2.34404,177.188,5.18555,-146.316,1516
1569922945,395.585,85.0553,-2.34404,177.188,5.18555,-146.316,1512
1569922945,395.585,85.0553,-2.34404,177.188,5.18555,-146.316,1512
1569922945,395.585,85.0553,-2.34404,177.188,5.18555,-146.316,1512
1569922945,395.585,85.0553,-2.34404,177.188,5.18555,-146.316,1512
1569922945,395.585,85.0553,-2.34404,177.188,5.18555,-146.316,1508
1569922945,395.585,85.0553,-2.34404,177.188,5.18555,-146.316,1508
1569922945,395.585,85.0553,-2.34404,177.188,5.18555,-146.316,1508
1569922945,395.585,85.0553,-2.34404,177.188,5.18555,-146.316,1508
1569922945,395.585,85.0553,-2.34404,177.188,5.18555,-146.316,1508
1569922945,395.585,85.0553,-2.34404,177.188,5.18555,-146.316,1508
1569922945,395.585,85.0553,-2.34404,177.188,5.18555,-146.316,1508
1569922945,395.585,85.0553,-2.34404,177.188,5.18555,-146.316,1508
1569922945,395.697,85.0553,-2.34404,177.188,5.18555,-146.316,1508
1569922945,395.697,85.0553,-2.34404,177.188,5.18555,-146.316,1512
1569922945,395.697,85.0553,-2.34404,177.166,5.18555,-146.316,1512
1569922945,395.697,85.0553,-2.34404,177.166,5.18555,-146.316,1512
1569922945,395.697,85.0553,-2.34404,177.166,5.18555,-146.316,1512
1569922945,395.697,85.0553,-2.34404,177.166,5.18555,-146.316,1516
1569922945,395.697,85.0553,-2.34404,177.166,5.20752,-146.316,1516
1569922945,395.697,85.0553,-2.34404,177.166,5.20752,-146.316,1516
1569922945,395.697,85.0553,-2.34404,177.166,5.20752,-146.316,1516
1569922945,395.697,85.0553,-2.34404,177.166,5.20752,-146.316,1516
1569922945,395.585,85.0553,-2.34404,177.166,5.20752,-146.316,1516
1569922945,395.585,85.0553,-2.34404,177.166,5.20752,-146.316,1516
1569922945,395.585,85.0553,-2.34404,177.166,5.20752,-146.316,1516
1569922945,395.585,85.0553,-2.34404,177.166,5.20752,-146.316,1516
1569922945,395.585,85.0553,-2.34404,177.166,5.20752,-146.316,1516
1569922945,395.585,85.0553,-2.34404,177.166,5.20752,-146.316,1516
1569922945,395.585,85.0553,-2.34404,177.166,5.20752,-146.316,1516
1569922945,395.585,85.0553,-2.34404,177.166,5.20752,-146.316,1516
1569922945,395.585,85.0553,-2.34404,177.166,5.20752,-146.316,1516
1569922945,395.585,85.0553,-2.34404,177.166,5.20752,-146.316,1516
1569922945,395.585,85.0553,-2.34404,177.166,5.20752,-146.316,1516
1569922945,395.474,85.0553,-2.34404,177.166,5.20752,-146.316,1516
1569922945,395.474,85.0553,-2.34404,177.188,5.18555,-146.316,1512
1569922945,395.474,85.0553,-2.34404,177.188,5.18555,-146.316,1512
1569922946,395.474,85.0553,-2.34404,177.188,5.18555,-146.316,1512
1569922946,395.474,85.0553,-2.34404,177.188,5.18555,-146.316,1512
1569922946,395.585,85.0553,-2.34404,177.188,5.18555,-146.316,1512
1569922946,395.585,85.0553,-2.34404,177.166,5.18555,-146.316,1512
1569922946,395.585,85.0553,-2.34404,177.166,5.18555,-146.316,1512
1569922946,395.585,85.0553,-2.34404,177.188,5.18555,-146.316,1512
1569922946,395.585,85.0553,-2.34404,177.166,5.18555,-146.316,1508
1569922946,395.585,85.0553,-2.34404,177.166,5.18555,-146.316,1508
1569922946,395.585,85.0553,-2.34404,177.166,5.18555,-146.316,1508
1569922946,395.585,85.0553,-2.34404,177.188,5.18555,-146.316,1508
1569922946,395.585,85.0553,-2.34404,177.188,5.18555,-146.316,1508
1569922946,395.585,85.0553,-2.34404,177.188,5.18555,-146.316,1508
1569922946,395.585,85.0553,-2.34404,177.188,5.18555,-146.316,1508
1569922946,395.585,85.0553,-2.34404,177.188,5.18555,-146.338,1508
1569922946,395.585,85.0553,-2.34404,177.188,5.18555,-146.338,1508
1569922946,395.585,85.0553,-2.34404,177.188,5.18555,-146.338,1508
1569922946,395.585,85.0553,-2.34404,177.188,5.16357,-146.338,1508
1569922946,395.585,85.0553,-2.34404,177.188,5.16357,-146.338,1508
1569922946,395.585,85.0553,-2.34404,177.188,5.16357,-146.338,1508
1569922946,395.585,85.0553,-2.34404,177.188,5.16357,-146.338,1508
1569922946,395.585,85.0553,-2.34404,177.188,5.16357,-146.338,1508
1569922946,395.585,85.0553,-2.34404,177.166,5.16357,-146.338,1508
1569922946,395.585,85.0553,-2.45566,177.166,5.16357,-146.338,1508
1569922946,395.585,85.0553,-2.45566,177.166,5.16357,-146.338,1508
1569922946,395.585,85.0553,-2.45566,177.166,5.16357,-146.338,1508
1569922946,395.585,85.0553,-2.45566,177.166,5.16357,-146.338,1508
1569922946,395.585,85.0553,-2.45566,177.166,5.16357,-146.338,1508
1569922946,395.585,85.0553,-2.45566,177.166,5.16357,-146.338,1508
1569922946,395.585,85.0553,-2.45566,177.166,5.16357,-146.338,1508
1569922946,395.585,85.0553,-2.45566,177.166,5.16357,-146.338,1508
1569922946,395.585,85.0553,-2.45566,177.166,5.16357,-146.338,1508
1569922946,395.585,85.0553,-2.45566,177.166,5.16357,-146.36,1508
1569922946,395.585,85.0553,-2.45566,177.166,5.16357,-146.36,1504
1569922946,395.585,85.0553,-2.45566,177.166,5.16357,-146.36,1504
1569922946,395.585,85.0553,-2.45566,177.166,5.16357,-146.36,1504
1569922946,395.585,85.0553,-2.45566,177.166,5.16357,-146.36,1500
1569922946,395.585,85.0553,-2.45566,177.166,5.16357,-146.36,1500
1569922946,395.585,85.0553,-2.45566,177.166,5.16357,-146.338,1500
1569922946,395.585,85.0553,-2.45566,177.166,5.16357,-146.338,1500
1569922946,395.585,85.0553,-2.45566,177.166,5.16357,-146.338,1500
1569922946,395.585,85.0553,-2.45566,177.166,5.16357,-146.338,1496
1569922946,395.585,85.0553,-2.45566,177.166,5.16357,-146.338,1496
1569922946,395.585,85.0553,-2.45566,177.166,5.16357,-146.338,1496
1569922946,395.585,85.0553,-2.34404,177.166,5.16357,-146.338,1496
1569922946,395.585,85.0553,-2.34404,177.166,5.16357,-146.338,1496
1569922946,395.585,85.0553,-2.34404,177.166,5.16357,-146.338,1496
1569922946,395.585,85.0553,-2.34404,177.166,5.16357,-146.338,1496
1569922946,395.585,85.0553,-2.34404,177.166,5.16357,-146.338,1500
1569922946,395.585,85.0553,-2.34404,177.166,5.18555,-146.338,1500
1569922946,395.585,85.0553,-2.34404,177.166,5.18555,-146.338,1500
1569922946,395.585,85.0553,-2.34404,177.166,5.18555,-146.338,1500
1569922946,395.585,85.0553,-2.34404,177.166,5.18555,-146.338,1500
1569922946,395.585,85.0553,-2.34404,177.166,5.18555,-146.338,1500
1569922946,395.585,85.0553,-2.34404,177.166,5.18555,-146.338,1504
1569922946,395.585,85.0553,-2.34404,177.166,5.18555,-146.338,1504
1569922946,395.585,85.0553,-2.34404,177.166,5.18555,-146.36,1504
1569922946,395.585,85.0553,-2.34404,177.166,5.18555,-146.36,1504
1569922946,395.585,85.0553,-2.34404,177.166,5.18555,-146.36,1504
1569922946,395.585,85.0553,-2.34404,177.166,5.18555,-146.36,1508
1569922946,395.585,85.0553,-2.34404,177.166,5.18555,-146.36,1508
1569922946,395.585,85.0553,-2.34404,177.166,5.18555,-146.36,1508
1569922946,395.585,85.0553,-2.34404,177.166,5.18555,-146.36,1508
1569922946,395.585,85.0553,-2.34404,177.166,5.18555,-146.36,1508
1569922946,395.585,85.0553,-2.34404,177.166,5.18555,-146.36,1508
1569922946,395.585,85.0553,-2.34404,177.166,5.18555,-146.36,1508
1569922946,395.585,85.0553,-2.34404,177.166,5.18555,-146.36,1508
1569922946,395.585,85.0553,-2.34404,177.166,5.18555,-146.36,1504
1569922946,395.585,85.0553,-2.34404,177.166,5.18555,-146.36,1504
1569922946,395.585,84.9436,-2.34404,177.166,5.18555,-146.36,1504
1569922946,395.585,84.9436,-2.34404,177.166,5.18555,-146.36,1504
1569922946,395.585,84.9436,-2.34404,177.166,5.18555,-146.36,1504
1569922946,395.585,84.9436,-2.34404,177.166,5.18555,-146.338,1504
1569922946,395.585,84.9436,-2.34404,177.166,5.18555,-146.338,1500
1569922946,395.585,84.9436,-2.34404,177.166,5.18555,-146.338,1500
1569922946,395.585,84.9436,-2.34404,177.166,5.18555,-146.338,1500
1569922946,395.585,84.9436,-2.34404,177.166,5.16357,-146.338,1500
1569922946,395.585,85.0553,-2.34404,177.166,5.16357,-146.338,1500
1569922946,395.585,85.0553,-2.34404,177.166,5.16357,-146.338,1500
1569922946,395.585,85.0553,-2.34404,177.166,5.16357,-146.338,1500
1569922946,395.585,85.0553,-2.34404,177.166,5.16357,-146.338,1500
1569922946,395.585,85.0553,-2.34404,177.166,5.16357,-146.338,1500
1569922946,395.585,85.0553,-2.34404,177.166,5.16357,-146.338,1500
1569922946,395.585,85.0553,-2.34404,177.166,5.16357,-146.338,1500
1569922946,395.585,85.0553,-2.34404,177.166,5.16357,-146.338,1500
1569922946,395.585,85.0553,-2.34404,177.166,5.16357,-146.338,1500
1569922946,395.585,85.0553,-2.34404,177.166,5.16357,-146.338,1500
1569922946,395.585,85.0553,-2.34404,177.166,5.16357,-146.338,1500
1569922946,395.585,85.0553,-2.34404,177.166,5.16357,-146.338,1500
1569922946,395.585,85.0553,-2.34404,177.166,5.16357,-146.338,1500
1569922946,395.585,85.0553,-2.34404,177.166,5.16357,-146.338,1500
1569922946,395.585,85.0553,-2.34404,177.166,5.18555,-146.338,1500
1569922946,395.585,85.0553,-2.34404,177.166,5.18555,-146.338,1500
1569922946,395.585,85.0553,-2.34404,177.166,5.18555,-146.338,1500
1569922946,395.585,85.0553,-2.34404,177.166,5.18555,-146.338,1500
1569922946,395.585,85.0553,-2.34404,177.166,5.18555,-146.338,1500
1569922946,395.585,85.0553,-2.34404,177.166,5.18555,-146.338,1500
1569922946,395.585,85.0553,-2.34404,177.166,5.18555,-146.338,1500
1569922946,395.585,85.0553,-2.34404,177.166,5.18555,-146.338,1500
1569922946,395.585,85.0553,-2.34404,177.166,5.18555,-146.338,1500
1569922946,395.585,85.0553,-2.23242,177.166,5.18555,-146.338,1500
1569922947,395.585,85.0553,-2.23242,177.166,5.18555,-146.338,1500
1569922947,395.585,85.0553,-2.34404,177.166,5.18555,-146.338,1500
1569922947,395.585,85.0553,-2.34404,177.166,5.18555,-146.338,1500
1569922947,395.585,85.0553,-2.34404,177.166,5.18555,-146.338,1500
1569922947,395.585,85.0553,-2.34404,177.166,5.18555,-146.338,1504
1569922947,395.585,85.0553,-2.34404,177.166,5.18555,-146.338,1504
1569922947,395.585,85.0553,-2.34404,177.166,5.18555,-146.338,1504
1569922947,395.585,85.0553,-2.34404,177.166,5.18555,-146.338,1504
1569922947,395.585,85.0553,-2.34404,177.166,5.18555,-146.338,1508
1569922947,395.585,85.0553,-2.34404,177.166,5.18555,-146.338,1508
1569922947,395.697,85.0553,-2.34404,177.166,5.18555,-146.338,1508
1569922947,395.697,85.0553,-2.34404,177.166,5.18555,-146.338,1508
1569922947,395.697,85.0553,-2.34404,177.166,5.18555,-146.338,1512
1569922947,395.697,85.0553,-2.34404,177.188,5.18555,-146.338,1512
1569922947,395.697,85.0553,-2.34404,177.188,5.18555,-146.338,1512
1569922947,395.585,85.1669,-2.34404,177.188,5.16357,-146.338,1512
1569922947,395.585,85.1669,-2.45566,177.188,5.16357,-146.338,1512
1569922947,395.585,85.1669,-2.45566,177.188,5.16357,-146.338,1512
1569922947,395.585,85.1669,-2.45566,177.188,5.16357,-146.338,1512
1569922947,395.697,85.1669,-2.45566,177.188,5.16357,-146.338,1512
1569922947,395.697,85.1669,-2.45566,177.188,5.1416,-146.338,1512
1569922947,395.697,85.1669,-2.56729,177.188,5.1416,-146.338,1512
1569922947,395.697,85.1669,-2.56729,177.188,5.1416,-146.338,1512
1569922947,395.697,85.1669,-2.56729,177.188,5.1416,-146.338,1512
1569922947,395.697,85.1669,-2.56729,177.188,5.1416,-146.316,1512
1569922947,395.697,85.1669,-2.56729,177.188,5.1416,-146.316,1512
1569922947,395.697,85.1669,-2.56729,177.188,5.1416,-146.316,1512
1569922947,395.697,85.1669,-2.56729,177.188,5.1416,-146.316,1512
1569922947,395.697,85.1669,-2.56729,177.188,5.1416,-146.316,1512
1569922947,395.697,85.0553,-2.56729,177.188,5.1416,-146.316,1516
1569922947,395.697,85.0553,-2.56729,177.188,5.1416,-146.316,1516
1569922947,395.697,85.0553,-2.56729,177.188,5.1416,-146.316,1516
1569922947,395.697,85.0553,-2.56729,177.188,5.11963,-146.316,1516
1569922947,395.697,85.0553,-2.56729,177.188,5.11963,-146.316,1516
1569922947,395.697,85.0553,-2.56729,177.188,5.11963,-146.316,1516
1569922947,395.697,85.0553,-2.56729,177.188,5.11963,-146.316,1516
1569922947,395.585,85.0553,-2.56729,177.188,5.11963,-146.316,1516
1569922947,395.585,85.0553,-2.56729,177.188,5.11963,-146.316,1516
1569922947,395.585,85.0553,-2.56729,177.188,5.1416,-146.338,1516
1569922947,395.585,85.0553,-2.56729,177.188,5.1416,-146.338,1516
1569922947,395.585,85.0553,-2.56729,177.188,5.1416,-146.338,1520
1569922947,395.585,85.0553,-2.56729,177.188,5.1416,-146.338,1520
1569922947,395.585,85.0553,-2.56729,177.188,5.1416,-146.338,1520
1569922947,395.585,85.0553,-2.56729,177.188,5.1416,-146.316,1520
1569922947,395.585,85.0553,-2.56729,177.188,5.1416,-146.316,1520
1569922947,395.585,85.0553,-2.56729,177.188,5.1416,-146.316,1524
1569922947,395.585,85.0553,-2.56729,177.188,5.1416,-146.316,1524
1569922947,395.585,85.0553,-2.56729,177.188,5.1416,-146.316,1524
1569922947,395.585,85.0553,-2.56729,177.188,5.1416,-146.316,1524
1569922947,395.585,85.0553,-2.56729,177.166,5.1416,-146.316,1524
1569922947,395.585,85.0553,-2.56729,177.166,5.1416,-146.316,1528
1569922947,395.585,85.0553,-2.56729,177.166,5.1416,-146.316,1528
1569922947,395.585,85.0553,-2.56729,177.166,5.1416,-146.316,1528
1569922947,395.585,85.0553,-2.56729,177.166,5.1416,-146.316,1528
1569922947,395.585,85.0553,-2.45566,177.166,5.16357,-146.316,1528
1569922947,395.585,85.0553,-2.45566,177.166,5.16357,-146.294,1528
1569922947,395.585,85.0553,-2.45566,177.166,5.16357,-146.294,1528
1569922947,395.585,85.0553,-2.45566,177.166,5.16357,-146.294,1528
1569922947,395.585,85.0553,-2.45566,177.166,5.16357,-146.294,1528
1569922947,395.585,85.0553,-2.45566,177.166,5.16357,-146.294,1528
1569922947,395.585,85.0553,-2.45566,177.166,5.16357,-146.294,1528
1569922947,395.585,85.0553,-2.45566,177.188,5.16357,-146.294,1524
1569922947,395.585,85.0553,-2.45566,177.188,5.16357,-146.294,1524
1569922947,395.585,85.0553,-2.45566,177.166,5.16357,-146.294,1524
1569922947,395.585,85.0553,-2.45566,177.166,5.16357,-146.294,1524
1569922947,395.585,85.0553,-2.45566,177.166,5.16357,-146.294,1520
1569922947,395.585,85.0553,-2.45566,177.166,5.16357,-146.294,1520
1569922947,395.585,85.0553,-2.45566,177.166,5.16357,-146.294,1520
1569922947,395.585,85.0553,-2.45566,177.166,5.16357,-146.294,1516
1569922947,395.585,85.0553,-2.45566,177.166,5.16357,-146.294,1516
1569922947,395.585,85.0553,-2.45566,177.166,5.16357,-146.294,1516
1569922947,395.585,85.0553,-2.45566,177.166,5.1416,-146.316,1516
1569922947,395.585,85.0553,-2.45566,177.166,5.1416,-146.316,1516
1569922947,395.585,85.0553,-2.45566,177.166,5.1416,-146.316,1516
1569922947,395.585,84.9436,-2.45566,177.166,5.1416,-146.316,1512
1569922947,395.585,84.9436,-2.45566,177.166,5.1416,-146.316,1512
1569922947,395.585,84.9436,-2.45566,177.166,5.1416,-146.316,1512
1569922947,395.585,84.9436,-2.45566,177.166,5.1416,-146.316,1512
1569922947,395.585,84.9436,-2.56729,177.144,5.1416,-146.316,1512
1569922947,395.585,84.9436,-2.56729,177.144,5.1416,-146.316,1512
1569922947,395.585,84.9436,-2.56729,177.144,5.1416,-146.316,1512
1569922947,395.585,84.9436,-2.56729,177.144,5.1416,-146.316,1512
1569922947,395.585,84.9436,-2.56729,177.144,5.1416,-146.316,1512
1569922947,395.585,84.9436,-2.56729,177.144,5.1416,-146.316,1512
1569922947,395.585,84.9436,-2.56729,177.144,5.1416,-146.316,1512
1569922947,395.585,84.9436,-2.56729,177.144,5.1416,-146.316,1512
1569922947,395.585,84.832,-2.45566,177.144,5.1416,-146.316,1512
1569922947,395.585,84.832,-2.45566,177.144,5.1416,-146.316,1512
1569922947,395.585,84.832,-2.45566,177.144,5.1416,-146.316,1512
1569922947,395.585,84.832,-2.45566,177.122,5.1416,-146.316,1512
1569922947,395.585,84.832,-2.45566,177.122,5.1416,-146.316,1512
1569922947,395.585,84.832,-2.45566,177.122,5.16357,-146.316,1508
1569922947,395.585,84.832,-2.45566,177.122,5.16357,-146.316,1508
1569922947,395.585,84.832,-2.45566,177.122,5.16357,-146.316,1508
1569922947,395.585,84.832,-2.45566,177.122,5.16357,-146.316,1508
1569922947,395.585,84.832,-2.45566,177.122,5.16357,-146.316,1504
1569922947,395.585,84.832,-2.45566,177.122,5.16357,-146.316,1504
1569922947,395.585,84.832,-2.45566,177.1,5.16357,-146.316,1504
1569922947,395.585,84.832,-2.45566,177.1,5.16357,-146.316,1504
1569922947,395.585,84.832,-2.45566,177.1,5.16357,-146.316,1504
1569922948,395.585,84.832,-2.45566,177.1,5.16357,-146.316,1500
1569922948,395.585,84.832,-2.45566,177.1,5.16357,-146.316,1500
1569922948,395.585,84.832,-2.34404,177.1,5.16357,-146.316,1500
1569922948,395.585,84.832,-2.34404,177.1,5.16357,-146.316,1504
1569922948,395.585,84.832,-2.34404,177.1,5.16357,-146.316,1504
1569922948,395.585,84.832,-2.34404,177.122,5.16357,-146.316,1504
1569922948,395.585,84.832,-2.34404,177.122,5.16357,-146.316,1504
1569922948,395.585,84.832,-2.34404,177.122,5.16357,-146.316,1504
1569922948,395.585,84.832,-2.34404,177.122,5.16357,-146.316,1504
1569922948,395.585,84.832,-2.34404,177.122,5.16357,-146.316,1504
1569922948,395.585,84.9436,-2.34404,177.122,5.16357,-146.316,1504
1569922948,395.585,84.9436,-2.34404,177.144,5.16357,-146.316,1504
1569922948,395.585,84.9436,-2.34404,177.144,5.16357,-146.316,1504
1569922948,395.585,84.9436,-2.34404,177.144,5.16357,-146.316,1504
1569922948,395.585,84.9436,-2.34404,177.144,5.16357,-146.316,1504
1569922948,395.585,84.9436,-2.34404,177.144,5.16357,-146.316,1504
1569922948,395.585,84.9436,-2.34404,177.144,5.16357,-146.316,1504
1569922948,395.585,84.9436,-2.34404,177.144,5.18555,-146.316,1504
1569922948,395.585,84.9436,-2.34404,177.144,5.18555,-146.316,1504
1569922948,395.585,84.9436,-2.34404,177.144,5.18555,-146.316,1504
1569922948,395.585,84.9436,-2.34404,177.144,5.18555,-146.316,1504
1569922948,395.585,84.9436,-2.34404,177.144,5.18555,-146.316,1504
1569922948,395.585,84.9436,-2.34404,177.144,5.18555,-146.316,1504
1569922948,395.585,84.9436,-2.34404,177.144,5.18555,-146.316,1504
1569922948,395.585,84.9436,-2.34404,177.144,5.18555,-146.316,1504
1569922948,395.585,84.9436,-2.34404,177.144,5.18555,-146.316,1504
1569922948,395.585,84.9436,-2.34404,177.144,5.18555,-146.316,1504
1569922948,395.585,84.9436,-2.34404,177.144,5.18555,-146.316,1504
1569922948,395.585,84.9436,-2.34404,177.144,5.18555,-146.316,1504
1569922948,395.585,84.9436,-2.34404,177.144,5.18555,-146.316,1504
1569922948,395.585,84.9436,-2.34404,177.144,5.18555,-146.316,1504
1569922948,395.585,84.9436,-2.34404,177.144,5.18555,-146.316,1508
1569922948,395.585,84.9436,-2.34404,177.144,5.18555,-146.316,1508
1569922948,395.585,84.9436,-2.34404,177.144,5.18555,-146.316,1508
1569922948,395.585,84.9436,-2.34404,177.144,5.18555,-146.316,1508
1569922948,395.585,84.9436,-2.34404,177.144,5.18555,-146.316,1508
1569922948,395.585,84.9436,-2.34404,177.144,5.18555,-146.316,1508
1569922948,395.585,84.9436,-2.34404,177.144,5.18555,-146.316,1508
1569922948,395.585,84.9436,-2.34404,177.166,5.18555,-146.316,1508
1569922948,395.585,84.9436,-2.34404,177.166,5.18555,-146.316,1508
1569922948,395.585,84.9436,-2.34404,177.166,5.18555,-146.316,1508
1569922948,395.585,84.9436,-2.34404,177.166,5.18555,-146.316,1508
1569922948,395.585,84.9436,-2.34404,177.166,5.18555,-146.316,1508
1569922948,395.585,84.9436,-2.34404,177.166,5.16357,-146.316,1508
1569922948,395.697,85.0553,-2.34404,177.166,5.16357,-146.316,1508
1569922948,395.697,85.0553,-2.34404,177.166,5.16357,-146.316,1512
1569922948,395.697,85.0553,-2.34404,177.166,5.16357,-146.316,1512
1569922948,395.697,85.0553,-2.34404,177.166,5.16357,-146.316,1512
1569922948,395.697,85.0553,-2.34404,177.166,5.16357,-146.316,1512
1569922948,395.697,85.0553,-2.34404,177.166,5.16357,-146.316,1512
1569922948,395.697,85.0553,-2.34404,177.166,5.16357,-146.316,1512
1569922948,395.697,85.0553,-2.34404,177.166,5.16357,-146.316,1512
1569922948,395.585,85.0553,-2.34404,177.166,5.16357,-146.316,1512
1569922948,395.585,84.9436,-2.34404,177.144,5.18555,-146.316,1512
1569922948,395.585,84.9436,-2.34404,177.144,5.18555,-146.316,1512
1569922948,395.585,84.9436,-2.34404,177.144,5.18555,-146.316,1512
1569922948,395.585,84.9436,-2.34404,177.144,5.18555,-146.316,1512
1569922948,395.585,84.9436,-2.34404,177.144,5.18555,-146.316,1508
1569922948,395.585,84.9436,-2.34404,177.122,5.18555,-146.316,1508
1569922948,395.585,84.9436,-2.34404,177.122,5.18555,-146.316,1508
1569922948,395.697,84.9436,-2.34404,177.122,5.18555,-146.316,1504
1569922948,395.697,84.9436,-2.34404,177.122,5.18555,-146.316,1504
1569922948,395.697,84.9436,-2.34404,177.122,5.18555,-146.316,1504
1569922948,395.697,84.9436,-2.34404,177.122,5.18555,-146.316,1500
1569922948,395.697,84.9436,-2.34404,177.144,5.18555,-146.316,1500
1569922948,395.697,84.9436,-2.34404,177.144,5.18555,-146.316,1500
1569922948,395.697,84.9436,-2.34404,177.144,5.18555,-146.316,1500
1569922948,395.697,84.9436,-2.34404,177.144,5.16357,-146.316,1496
1569922948,395.697,84.9436,-2.34404,177.144,5.16357,-146.316,1496
1569922948,395.697,84.9436,-2.34404,177.144,5.16357,-146.316,1496
1569922948,395.697,84.9436,-2.34404,177.144,5.16357,-146.316,1496
1569922948,395.697,84.9436,-2.34404,177.144,5.16357,-146.316,1496
1569922948,395.697,84.9436,-2.34404,177.144,5.16357,-146.316,1496
1569922948,395.697,85.0553,-2.34404,177.144,5.16357,-146.316,1492
1569922948,395.697,85.0553,-2.34404,177.144,5.16357,-146.316,1492
1569922948,395.697,85.0553,-2.34404,177.144,5.16357,-146.316,1492
1569922948,395.697,84.9436,-2.34404,177.144,5.16357,-146.316,1492
1569922948,395.697,84.9436,-2.34404,177.144,5.16357,-146.316,1492
1569922948,395.697,84.9436,-2.34404,177.144,5.16357,-146.316,1492
1569922948,395.697,84.9436,-2.34404,177.144,5.16357,-146.316,1492
1569922948,395.697,84.9436,-2.34404,177.144,5.18555,-146.338,1492
1569922948,395.585,84.9436,-2.34404,177.144,5.18555,-146.338,1492
1569922948,395.585,84.9436,-2.34404,177.144,5.18555,-146.338,1492
1569922948,395.585,84.9436,-2.34404,177.144,5.18555,-146.338,1496
1569922948,395.585,85.0553,-2.34404,177.144,5.18555,-146.338,1496
1569922948,395.585,85.0553,-2.34404,177.144,5.18555,-146.338,1496
1569922948,395.585,85.0553,-2.34404,177.144,5.18555,-146.338,1496
1569922948,395.585,85.0553,-2.34404,177.144,5.16357,-146.338,1496
1569922948,395.585,85.0553,-2.34404,177.144,5.16357,-146.338,1496
1569922948,395.585,85.0553,-2.34404,177.144,5.16357,-146.338,1496
1569922948,395.585,85.0553,-2.34404,177.144,5.16357,-146.338,1496
1569922948,395.585,85.0553,-2.34404,177.144,5.16357,-146.338,1496
1569922948,395.585,85.0553,-2.34404,177.144,5.16357,-146.338,1496
1569922948,395.585,85.0553,-2.34404,177.144,5.16357,-146.338,1500
1569922948,395.585,84.9436,-2.34404,177.144,5.16357,-146.338,1500
1569922948,395.585,84.9436,-2.34404,177.144,5.16357,-146.338,1500
1569922948,395.585,84.9436,-2.34404,177.144,5.16357,-146.338,1500
1569922948,395.585,84.9436,-2.45566,177.144,5.16357,-146.338,1500
1569922948,395.585,84.9436,-2.45566,177.144,5.1416,-146.338,1500
1569922948,395.585,84.9436,-2.45566,177.144,5.1416,-146.338,1500
1569922949,395.585,84.9436,-2.45566,177.144,5.1416,-146.338,1500
1569922949,395.585,84.9436,-2.45566,177.144,5.1416,-146.338,1500
1569922949,395.585,84.9436,-2.45566,177.144,5.1416,-146.338,1500
1569922949,395.585,84.9436,-2.45566,177.144,5.1416,-146.338,1500
1569922949,395.585,84.9436,-2.45566,177.144,5.1416,-146.338,1500
1569922949,395.585,84.9436,-2.45566,177.144,5.1416,-146.338,1500
1569922949,395.585,84.9436,-2.45566,177.144,5.1416,-146.338,1500
1569922949,395.585,84.9436,-2.45566,177.144,5.1416,-146.316,1500
1569922949,395.585,84.9436,-2.45566,177.144,5.1416,-146.316,1500
1569922949,395.585,84.9436,-2.45566,177.144,5.1416,-146.316,1500
1569922949,395.585,84.9436,-2.45566,177.144,5.1416,-146.316,1500
1569922949,395.585,84.9436,-2.45566,177.144,5.1416,-146.316,1500
1569922949,395.585,84.9436,-2.45566,177.144,5.1416,-146.316,1500
1569922949,395.585,84.9436,-2.45566,177.144,5.1416,-146.316,1500
1569922949,395.585,84.9436,-2.45566,177.144,5.1416,-146.316,1500
1569922949,395.585,84.9436,-2.45566,177.144,5.1416,-146.316,1500
1569922949,395.697,84.9436,-2.45566,177.122,5.16357,-146.316,1500
1569922949,395.697,84.9436,-2.34404,177.122,5.16357,-146.316,1500
1569922949,395.697,84.9436,-2.34404,177.122,5.16357,-146.316,1500
1569922949,395.697,84.9436,-2.34404,177.122,5.16357,-146.316,1500
1569922949,395.697,84.9436,-2.34404,177.122,5.18555,-146.316,1500
1569922949,395.697,84.9436,-2.34404,177.122,5.18555,-146.316,1500
1569922949,395.585,84.9436,-2.34404,177.122,5.18555,-146.316,1500
1569922949,395.585,84.9436,-2.34404,177.122,5.18555,-146.316,1500
1569922949,395.585,84.9436,-2.34404,177.122,5.18555,-146.316,1500
1569922949,395.585,84.9436,-2.34404,177.122,5.18555,-146.316,1500
1569922949,395.585,84.9436,-2.34404,177.122,5.18555,-146.316,1500
1569922949,395.585,84.9436,-2.34404,177.122,5.18555,-146.338,1500
1569922949,395.585,84.9436,-2.34404,177.122,5.16357,-146.338,1500
1569922949,395.585,84.9436,-2.34404,177.122,5.16357,-146.338,1500
1569922949,395.585,84.9436,-2.45566,177.122,5.16357,-146.338,1500
1569922949,395.585,84.9436,-2.45566,177.122,5.16357,-146.338,1500
1569922949,395.585,84.9436,-2.45566,177.144,5.16357,-146.338,1500
1569922949,395.585,84.9436,-2.45566,177.144,5.16357,-146.338,1500
1569922949,395.585,84.9436,-2.45566,177.144,5.16357,-146.338,1500
1569922949,395.585,84.9436,-2.45566,177.144,5.16357,-146.338,1496
1569922949,395.585,84.9436,-2.45566,177.144,5.16357,-146.338,1496
1569922949,395.585,84.9436,-2.45566,177.144,5.16357,-146.338,1496
1569922949,395.585,84.9436,-2.45566,177.144,5.16357,-146.338,1496
1569922949,395.474,84.9436,-2.45566,177.144,5.16357,-146.338,1496
1569922949,395.474,84.9436,-2.34404,177.144,5.16357,-146.338,1492
1569922949,395.474,84.9436,-2.34404,177.144,5.16357,-146.338,1492
1569922949,395.474,84.9436,-2.34404,177.144,5.16357,-146.338,1492
1569922949,395.474,84.9436,-2.34404,177.144,5.18555,-146.338,1492
1569922949,395.474,84.9436,-2.34404,177.144,5.18555,-146.338,1488
1569922949,395.474,84.9436,-2.34404,177.166,5.18555,-146.338,1488
1569922949,395.474,84.9436,-2.34404,177.166,5.18555,-146.338,1488
1569922949,395.474,84.9436,-2.34404,177.166,5.18555,-146.338,1488
1569922949,395.474,84.9436,-2.34404,177.166,5.18555,-146.338,1488
1569922949,395.474,84.9436,-2.34404,177.166,5.18555,-146.338,1484
1569922949,395.474,85.0553,-2.34404,177.166,5.18555,-146.338,1484
1569922949,395.474,85.0553,-2.34404,177.166,5.16357,-146.338,1484
1569922949,395.474,85.0553,-2.45566,177.166,5.16357,-146.338,1484
1569922949,395.474,85.0553,-2.45566,177.166,5.16357,-146.316,1484
1569922949,395.474,85.0553,-2.45566,177.166,5.16357,-146.316,1484
1569922949,395.474,85.0553,-2.45566,177.166,5.16357,-146.316,1484
1569922949,395.474,85.0553,-2.45566,177.166,5.1416,-146.316,1484
1569922949,395.474,85.0553,-2.56729,177.166,5.1416,-146.316,1484
1569922949,395.474,85.0553,-2.56729,177.166,5.1416,-146.316,1484
1569922949,395.474,85.0553,-2.56729,177.166,5.1416,-146.316,1484
1569922949,395.474,84.9436,-2.56729,177.166,5.1416,-146.316,1484
1569922949,395.474,84.9436,-2.56729,177.166,5.1416,-146.316,1480
1569922949,395.474,84.9436,-2.56729,177.166,5.1416,-146.316,1480
1569922949,395.474,84.9436,-2.56729,177.166,5.1416,-146.316,1480
1569922949,395.474,84.9436,-2.56729,177.166,5.1416,-146.316,1480
1569922949,395.474,84.9436,-2.56729,177.166,5.1416,-146.316,1480
1569922952,372.033,108.942,-2.45566,176.88,5.00977,-146.667,1300
1569922952,372.033,108.942,-2.45566,176.88,5.00977,-146.667,1300
1569922952,372.033,108.942,-2.45566,176.88,5.00977,-146.646,1300
1569922952,372.033,108.942,-2.45566,176.88,5.00977,-146.646,1300
1569922952,372.033,108.942,-2.45566,176.902,5.00977,-146.646,1300
1569922952,372.033,108.942,-2.45566,176.902,5.00977,-146.646,1300
1569922952,372.033,108.942,-2.45566,176.902,5.00977,-146.646,1300
1569922952,372.033,108.942,-2.45566,176.902,5.00977,-146.646,1300
1569922952,372.033,108.942,-2.34404,176.902,5.00977,-146.646,1296
1569922952,372.033,108.942,-2.34404,176.902,5.03174,-146.646,1296
1569922952,372.033,108.942,-2.34404,176.902,5.03174,-146.646,1296
1569922952,372.033,108.942,-2.34404,176.902,5.03174,-146.646,1296
1569922952,372.033,108.942,-2.45566,176.902,5.03174,-146.646,1296
1569922952,372.033,108.942,-2.45566,176.902,5.03174,-146.646,1296
1569922952,372.033,108.942,-2.45566,176.902,5.03174,-146.646,1296
1569922952,372.033,108.942,-2.45566,176.902,5.03174,-146.646,1296
1569922952,372.033,108.942,-2.45566,176.902,5.03174,-146.646,1296
1569922952,372.033,108.942,-2.45566,176.902,5.03174,-146.646,1296
1569922952,372.033,108.942,-2.45566,176.902,5.03174,-146.646,1296
1569922952,372.033,108.942,-2.45566,176.902,5.03174,-146.646,1296
1569922952,372.033,108.942,-2.45566,176.88,5.03174,-146.646,1296
1569922952,372.033,108.942,-2.34404,176.88,5.03174,-146.646,1296
1569922953,372.033,108.942,-2.34404,176.88,5.03174,-146.646,1296
1569922953,372.033,108.942,-2.34404,176.88,5.03174,-146.646,1296
1569922953,372.033,108.942,-2.34404,176.88,5.03174,-146.646,1296
1569922953,372.033,108.942,-2.34404,176.88,5.03174,-146.646,1296
1569922953,372.033,108.942,-2.34404,176.88,5.03174,-146.646,1296
1569922953,372.033,108.942,-2.34404,176.88,5.03174,-146.646,1296
1569922953,372.033,108.831,-2.34404,176.88,5.03174,-146.646,1296
1569922953,372.033,108.831,-2.34404,176.88,5.03174,-146.667,1296
1569922953,372.033,108.831,-2.34404,176.858,5.03174,-146.667,1296
1569922953,372.033,108.831,-2.34404,176.858,5.03174,-146.667,1296
1569922953,372.033,108.831,-2.34404,176.858,5.03174,-146.667,1296
1569922953,372.033,108.831,-2.34404,176.858,5.03174,-146.667,1296
1569922953,372.033,108.831,-2.34404,176.858,5.03174,-146.667,1296
1569922953,372.033,108.831,-2.34404,176.858,5.03174,-146.667,1296
1569922953,372.033,108.831,-2.34404,176.858,5.03174,-146.667,1296
1569922953,372.033,108.942,-2.34404,176.858,5.03174,-146.667,1296
1569922953,372.033,108.942,-2.34404,176.858,5.03174,-146.667,1296
1569922953,372.145,108.942,-2.34404,176.858,5.03174,-146.667,1296
1569922953,372.145,108.942,-2.34404,176.858,5.03174,-146.667,1296
1569922953,372.145,108.942,-2.45566,176.858,5.03174,-146.667,1296
1569922953,372.145,108.942,-2.45566,176.858,5.03174,-146.646,1296
1569922953,372.145,108.942,-2.45566,176.858,5.03174,-146.646,1296
1569922953,372.145,108.942,-2.45566,176.858,5.03174,-146.646,1296
1569922953,372.145,108.942,-2.45566,176.858,5.03174,-146.646,1300
1569922953,372.145,108.942,-2.45566,176.858,5.03174,-146.646,1300
1569922953,372.145,108.942,-2.45566,176.858,5.03174,-146.646,1300
1569922953,372.033,108.942,-2.45566,176.858,5.03174,-146.646,1300
1569922953,372.033,108.942,-2.45566,176.88,5.03174,-146.646,1300
1569922953,372.033,108.942,-2.45566,176.88,5.03174,-146.646,1300
1569922953,372.033,108.942,-2.45566,176.88,5.00977,-146.646,1300
1569922953,372.033,108.942,-2.45566,176.88,5.00977,-146.646,1300
1569922953,372.033,108.942,-2.45566,176.88,5.00977,-146.646,1300
1569922953,372.033,108.942,-2.45566,176.88,5.00977,-146.646,1300
1569922953,372.033,108.942,-2.45566,176.88,5.00977,-146.646,1300
1569922953,372.033,108.942,-2.45566,176.88,5.00977,-146.646,1300
1569922953,372.033,108.942,-2.45566,176.88,5.00977,-146.646,1300
1569922953,372.033,108.942,-2.45566,176.88,5.00977,-146.646,1300
1569922953,372.033,108.942,-2.45566,176.88,5.00977,-146.646,1300
1569922953,372.033,108.942,-2.45566,176.88,5.00977,-146.646,1300
1569922953,372.033,108.831,-2.45566,176.858,5.00977,-146.646,1300
1569922953,372.033,108.831,-2.45566,176.858,5.00977,-146.646,1300
1569922953,372.033,108.831,-2.45566,176.858,5.03174,-146.646,1300
1569922953,372.033,108.831,-2.45566,176.858,5.03174,-146.646,1300
1569922953,372.033,108.831,-2.34404,176.858,5.03174,-146.646,1300
1569922953,372.033,108.831,-2.34404,176.858,5.03174,-146.646,1300
1569922953,372.033,108.831,-2.34404,176.858,5.03174,-146.646,1300
1569922953,372.033,108.831,-2.34404,176.858,5.03174,-146.646,1304
1569922953,372.033,108.831,-2.34404,176.858,5.03174,-146.667,1304
1569922953,372.033,108.831,-2.34404,176.858,5.03174,-146.667,1304
1569922953,372.033,108.831,-2.34404,176.858,5.03174,-146.667,1304
1569922953,372.033,108.831,-2.34404,176.858,5.03174,-146.667,1304
1569922953,372.033,108.831,-2.34404,176.858,5.03174,-146.667,1304
1569922953,372.033,108.831,-2.34404,176.858,5.03174,-146.667,1304
1569922953,372.033,108.831,-2.34404,176.858,5.03174,-146.667,1304
1569922953,372.033,108.831,-2.34404,176.858,5.03174,-146.667,1300
1569922953,372.033,108.831,-2.34404,176.858,5.03174,-146.667,1300
1569922953,372.033,108.831,-2.34404,176.858,5.03174,-146.667,1300
1569922953,372.033,108.831,-2.34404,176.858,5.03174,-146.667,1300
1569922953,372.033,108.831,-2.34404,176.858,5.03174,-146.667,1300
1569922953,372.033,108.831,-2.34404,176.858,5.03174,-146.667,1300
1569922953,372.033,108.831,-2.34404,176.858,5.03174,-146.667,1300
1569922953,372.033,108.831,-2.34404,176.858,5.03174,-146.667,1300
1569922953,372.033,108.831,-2.34404,176.858,5.03174,-146.646,1300
1569922953,372.033,108.831,-2.34404,176.88,5.03174,-146.646,1300
1569922953,372.033,108.942,-2.34404,176.88,5.03174,-146.646,1300
1569922953,372.033,108.942,-2.34404,176.88,5.03174,-146.646,1300
1569922953,372.033,108.942,-2.34404,176.88,5.03174,-146.646,1300
1569922953,372.033,108.942,-2.34404,176.88,5.03174,-146.646,1300
1569922953,372.145,108.942,-2.34404,176.88,5.03174,-146.646,1300
1569922953,372.145,108.942,-2.34404,176.902,5.03174,-146.646,1300
1569922953,372.145,108.942,-2.34404,176.902,5.03174,-146.646,1300
1569922953,372.145,108.942,-2.34404,176.902,5.03174,-146.646,1304
1569922953,372.145,108.942,-2.34404,176.902,5.03174,-146.646,1304
1569922953,372.145,108.942,-2.34404,176.902,5.03174,-146.646,1304
1569922953,372.145,108.942,-2.45566,176.902,5.03174,-146.646,1304
1569922953,372.145,108.942,-2.45566,176.902,5.03174,-146.646,1304
1569922953,372.145,108.942,-2.45566,176.902,5.03174,-146.646,1304
1569922953,372.145,108.942,-2.45566,176.88,5.03174,-146.646,1304
1569922953,372.145,108.942,-2.45566,176.88,5.00977,-146.646,1304
1569922953,372.145,108.942,-2.45566,176.88,5.00977,-146.646,1304
1569922953,372.145,108.942,-2.45566,176.88,5.00977,-146.667,1304
1569922953,372.145,108.942,-2.45566,176.88,5.00977,-146.667,1304
1569922953,372.145,108.942,-2.45566,176.88,5.00977,-146.667,1304
1569922953,372.145,108.942,-2.34404,176.88,5.00977,-146.667,1300
1569922953,372.145,108.942,-2.34404,176.88,5.03174,-146.667,1300
1569922953,372.145,108.942,-2.34404,176.88,5.03174,-146.667,1300
1569922953,372.145,108.942,-2.34404,176.88,5.03174,-146.667,1300
1569922953,372.033,108.942,-2.34404,176.88,5.03174,-146.667,1300
1569922953,372.033,108.942,-2.34404,176.88,5.03174,-146.667,1300
1569922953,372.033,108.942,-2.34404,176.88,5.03174,-146.667,1300
1569922953,372.033,108.942,-2.34404,176.88,5.03174,-146.667,1300
1569922953,372.033,108.942,-2.34404,176.88,5.03174,-146.667,1300
1569922953,372.033,108.942,-2.34404,176.88,5.03174,-146.667,1296
1569922953,372.033,108.942,-2.34404,176.88,5.03174,-146.667,1296
1569922953,372.033,108.942,-2.34404,176.88,5.03174,-146.667,1296
1569922953,372.033,108.942,-2.34404,176.88,5.03174,-146.667,1296
1569922953,372.033,108.942,-2.34404,176.88,5.03174,-146.646,1296
1569922953,372.033,108.942,-2.34404,176.88,5.03174,-146.646,1296
1569922953,372.033,108.942,-2.34404,176.858,5.03174,-146.646,1296
1569922953,372.033,108.942,-2.34404,176.858,5.03174,-146.646,1292
1569922954,372.033,108.942,-2.34404,176.858,5.03174,-146.646,1292
1569922954,372.033,108.942,-2.34404,176.858,5.03174,-146.667,1292
1569922954,372.033,108.942,-2.34404,176.858,5.03174,-146.667,1292
1569922954,372.033,108.942,-2.34404,176.858,5.03174,-146.667,1292
1569922954,372.033,108.942,-2.34404,176.858,5.03174,-146.667,1292
1569922954,372.145,108.942,-2.34404,176.858,5.03174,-146.667,1292
1569922954,372.145,108.942,-2.34404,176.858,5.03174,-146.667,1296
1569922954,372.145,108.942,-2.34404,176.88,5.03174,-146.667,1296
1569922954,372.145,108.942,-2.34404,176.88,5.03174,-146.667,1296
1569922954,372.145,108.942,-2.34404,176.88,5.03174,-146.667,1296
1569922954,372.145,108.942,-2.34404,176.88,5.03174,-146.667,1296
1569922954,372.145,108.942,-2.34404,176.88,5.03174,-146.667,1300
1569922954,372.145,108.942,-2.34404,176.88,5.03174,-146.667,1300
1569922954,372.145,108.942,-2.34404,176.88,5.03174,-146.667,1300
1569922954,372.145,108.942,-2.34404,176.858,5.03174,-146.667,1300
1569922954,372.145,108.942,-2.34404,176.858,5.03174,-146.667,1300
1569922954,372.145,108.942,-2.34404,176.858,5.03174,-146.667,1300
1569922954,372.033,108.942,-2.34404,176.858,5.03174,-146.667,1300
1569922954,372.033,108.942,-2.34404,176.858,5.03174,-146.667,1296
1569922954,372.033,108.831,-2.34404,176.858,5.03174,-146.667,1296
1569922954,372.033,108.831,-2.34404,176.858,5.03174,-146.646,1296
1569922954,372.033,108.831,-2.34404,176.858,5.03174,-146.646,1296
1569922954,372.033,108.831,-2.34404,176.858,5.03174,-146.646,1292
1569922954,372.145,108.831,-2.34404,176.858,5.03174,-146.646,1292
1569922954,372.145,108.942,-2.34404,176.858,5.03174,-146.646,1292
1569922954,372.145,108.942,-2.34404,176.858,5.03174,-146.646,1292
1569922954,372.145,108.942,-2.34404,176.858,5.03174,-146.646,1292
1569922954,372.145,108.942,-2.34404,176.858,5.03174,-146.646,1292
1569922954,372.145,108.942,-2.34404,176.858,5.03174,-146.646,1292
1569922954,372.145,108.942,-2.34404,176.88,5.03174,-146.646,1292
1569922954,372.033,108.942,-2.34404,176.88,5.05371,-146.646,1292
1569922954,372.033,108.942,-2.34404,176.88,5.05371,-146.646,1292
1569922954,372.033,108.942,-2.34404,176.88,5.05371,-146.646,1292
1569922954,372.033,108.942,-2.34404,176.88,5.05371,-146.646,1296
1569922954,372.033,108.942,-2.34404,176.88,5.05371,-146.646,1296
1569922954,372.033,108.942,-2.34404,176.88,5.05371,-146.646,1296
1569922954,372.033,108.942,-2.34404,176.88,5.05371,-146.646,1296
1569922954,372.033,108.942,-2.34404,176.88,5.05371,-146.646,1296
1569922954,372.033,108.942,-2.34404,176.858,5.05371,-146.646,1300
1569922954,372.033,108.942,-2.34404,176.858,5.05371,-146.646,1300
1569922954,372.033,108.942,-2.34404,176.858,5.05371,-146.646,1300
1569922954,372.033,108.942,-2.34404,176.858,5.03174,-146.646,1300
1569922954,372.033,108.942,-2.34404,176.858,5.03174,-146.646,1300
1569922954,372.033,108.942,-2.34404,176.858,5.03174,-146.646,1304
1569922954,372.033,108.942,-2.34404,176.858,5.03174,-146.646,1304
1569922954,372.033,108.942,-2.34404,176.858,5.03174,-146.646,1304
1569922954,372.033,108.942,-2.34404,176.858,5.03174,-146.646,1304
1569922954,372.033,108.942,-2.34404,176.858,5.03174,-146.646,1304
1569922954,372.033,108.942,-2.34404,176.858,5.03174,-146.646,1308
1569922954,372.033,108.942,-2.34404,176.858,5.03174,-146.646,1308
1569922954,372.033,108.942,-2.34404,176.858,5.03174,-146.646,1308
1569922954,372.033,108.942,-2.34404,176.858,5.03174,-146.646,1308
1569922954,372.033,108.942,-2.34404,176.858,5.03174,-146.646,1308
1569922954,372.033,108.942,-2.34404,176.858,5.03174,-146.646,1308
1569922954,372.033,108.942,-2.34404,176.858,5.03174,-146.646,1312
1569922954,372.033,108.942,-2.34404,176.858,5.03174,-146.646,1312
1569922954,372.033,108.942,-2.34404,176.858,5.03174,-146.646,1312
1569922954,372.033,108.942,-2.34404,176.858,5.03174,-146.646,1312
1569922954,372.033,108.942,-2.45566,176.858,5.03174,-146.646,1312
1569922954,372.033,108.942,-2.45566,176.858,5.03174,-146.646,1312
1569922954,372.033,108.942,-2.45566,176.858,5.03174,-146.646,1312
1569922954,372.033,108.942,-2.45566,176.858,5.03174,-146.646,1312
1569922954,372.033,108.942,-2.45566,176.858,5.03174,-146.646,1312
1569922954,372.033,108.942,-2.45566,176.858,5.03174,-146.646,1312
1569922954,372.033,108.942,-2.45566,176.858,5.03174,-146.646,1312
1569922954,372.033,108.942,-2.45566,176.858,5.03174,-146.646,1312
1569922954,372.033,108.942,-2.45566,176.858,5.03174,-146.646,1312
1569922954,372.033,108.942,-2.45566,176.858,5.03174,-146.646,1312
1569922954,372.033,108.942,-2.45566,176.858,5.03174,-146.646,1312
1569922954,372.033,108.942,-2.45566,176.88,5.03174,-146.646,1312
1569922954,372.033,108.942,-2.45566,176.88,5.03174,-146.646,1312
1569922954,372.033,108.942,-2.45566,176.88,5.03174,-146.646,1312
1569922954,372.033,108.942,-2.45566,176.88,5.03174,-146.624,1312
1569922954,372.033,108.942,-2.45566,176.88,5.03174,-146.624,1312
1569922954,372.145,108.942,-2.45566,176.88,5.03174,-146.624,1316
1569922954,372.145,108.942,-2.45566,176.88,5.03174,-146.646,1316
1569922954,372.145,108.942,-2.45566,176.88,5.03174,-146.646,1316
1569922954,372.145,108.942,-2.45566,176.88,5.03174,-146.646,1316
1569922954,372.145,108.942,-2.45566,176.88,5.03174,-146.646,1316
1569922954,372.145,108.942,-2.45566,176.88,5.03174,-146.646,1316
1569922954,372.145,108.942,-2.45566,176.88,5.03174,-146.646,1316
1569922954,372.145,108.942,-2.45566,176.88,5.03174,-146.646,1316
1569922954,372.145,108.942,-2.45566,176.88,5.03174,-146.646,1316
1569922954,372.145,108.942,-2.45566,176.88,5.03174,-146.646,1312
1569922954,372.033,108.942,-2.45566,176.88,5.03174,-146.646,1312
1569922954,372.033,108.942,-2.45566,176.88,5.03174,-146.646,1312
1569922954,372.033,108.942,-2.45566,176.88,5.03174,-146.646,1312
1569922954,372.033,108.942,-2.45566,176.88,5.03174,-146.646,1312
1569922954,372.033,108.942,-2.34404,176.88,5.03174,-146.646,1312
1569922954,372.033,108.942,-2.34404,176.88,5.03174,-146.646,1312
1569922954,372.033,108.942,-2.34404,176.88,5.03174,-146.646,1312
1569922954,372.033,108.942,-2.34404,176.88,5.03174,-146.646,1312
1569922954,372.033,108.942,-2.34404,176.88,5.03174,-146.646,1312
1569922954,372.033,108.942,-2.34404,176.88,5.03174,-146.646,1312
1569922954,372.033,108.942,-2.34404,176.88,5.03174,-146.646,1312
1569922954,372.033,108.942,-2.45566,176.88,5.03174,-146.646,1312
1569922954,372.033,108.942,-2.45566,176.88,5.03174,-146.646,1312
1569922954,372.033,108.942,-2.45566,176.88,5.03174,-146.646,1312
1569922954,372.033,108.942,-2.45566,176.88,5.03174,-146.646,1312
1569922954,372.033,108.942,-2.45566,176.88,5.00977,-146.624,1312
1569922955,372.033,108.942,-2.45566,176.88,5.00977,-146.624,1312
1569922955,372.033,108.942,-2.45566,176.88,5.00977,-146.624,1312
1569922955,372.033,108.942,-2.45566,176.88,5.00977,-146.624,1312
1569922955,372.033,108.942,-2.45566,176.88,5.00977,-146.624,1312
1569922955,372.033,108.942,-2.45566,176.88,5.00977,-146.624,1312
1569922955,372.033,108.942,-2.45566,176.88,5.00977,-146.624,1312
1569922955,372.033,108.942,-2.45566,176.88,5.00977,-146.624,1312
1569922955,372.033,108.942,-2.45566,176.88,5.00977,-146.624,1312
1569922955,372.033,108.942,-2.45566,176.88,5.00977,-146.624,1312
1569922955,372.033,108.942,-2.45566,176.88,5.00977,-146.624,1312
1569922955,372.033,108.942,-2.45566,176.88,5.00977,-146.624,1312
1569922955,372.033,108.942,-2.45566,176.88,5.00977,-146.624,1312
1569922955,372.033,108.942,-2.45566,176.88,5.00977,-146.624,1312
1569922955,372.033,108.942,-2.45566,176.88,5.00977,-146.624,1312
1569922955,372.033,108.942,-2.45566,176.88,5.00977,-146.624,1312
1569922955,372.033,108.942,-2.45566,176.88,5.00977,-146.624,1312
1569922955,372.033,108.942,-2.45566,176.88,5.00977,-146.624,1308
1569922955,372.033,108.942,-2.45566,176.88,5.00977,-146.624,1308
1569922955,372.033,108.942,-2.45566,176.88,5.00977,-146.624,1308
1569922955,372.033,108.942,-2.45566,176.88,5.00977,-146.624,1308
1569922955,372.033,108.942,-2.45566,176.858,5.00977,-146.624,1308
1569922955,372.033,108.942,-2.45566,176.858,5.00977,-146.624,1308
1569922955,372.033,108.942,-2.45566,176.858,5.00977,-146.646,1308
1569922955,372.033,108.942,-2.45566,176.858,5.00977,-146.646,1308
1569922955,372.033,108.831,-2.45566,176.858,5.00977,-146.646,1308
1569922955,372.033,108.831,-2.45566,176.858,5.00977,-146.646,1308
1569922955,372.033,108.831,-2.45566,176.858,5.00977,-146.646,1308
1569922955,372.033,108.831,-2.45566,176.858,5.00977,-146.646,1312
1569922955,372.033,108.831,-2.45566,176.858,5.00977,-146.646,1312
1569922955,372.033,108.831,-2.45566,176.858,5.00977,-146.646,1312
1569922955,372.145,108.831,-2.45566,176.858,5.00977,-146.646,1312
1569922955,372.145,108.831,-2.45566,176.858,5.00977,-146.646,1312
1569922955,372.145,108.831,-2.45566,176.858,5.00977,-146.667,1312
1569922955,372.145,108.831,-2.45566,176.858,5.00977,-146.667,1316
1569922955,372.145,108.831,-2.45566,176.858,5.00977,-146.667,1316
1569922955,372.145,108.831,-2.45566,176.858,5.00977,-146.667,1316
1569922955,372.145,108.831,-2.45566,176.858,5.00977,-146.667,1316
1569922955,372.145,108.831,-2.45566,176.858,5.00977,-146.667,1316
1569922955,372.145,108.831,-2.45566,176.858,5.00977,-146.667,1316
1569922955,372.145,108.831,-2.45566,176.858,5.00977,-146.667,1316
1569922955,372.145,108.831,-2.45566,176.858,5.00977,-146.667,1316
1569922955,372.033,108.831,-2.45566,176.858,5.00977,-146.667,1312
1569922955,372.033,108.831,-2.45566,176.858,5.00977,-146.667,1312
1569922955,372.033,108.831,-2.45566,176.858,5.00977,-146.667,1312
1569922955,372.033,108.831,-2.45566,176.858,5.00977,-146.667,1312
1569922955,372.033,108.831,-2.45566,176.858,5.00977,-146.667,1312
1569922955,372.033,108.831,-2.45566,176.858,5.00977,-146.689,1308
1569922955,372.033,108.831,-2.45566,176.858,5.00977,-146.689,1308
1569922955,372.033,108.831,-2.45566,176.858,5.00977,-146.689,1308
1569922955,372.033,108.831,-2.45566,176.858,5.00977,-146.689,1308
1569922955,372.033,108.831,-2.45566,176.858,5.00977,-146.689,1308
1569922955,372.033,108.831,-2.45566,176.858,5.00977,-146.689,1308
1569922955,372.033,108.831,-2.45566,176.858,5.00977,-146.689,1304
1569922955,372.033,108.831,-2.45566,176.858,5.03174,-146.689,1304
1569922955,372.033,108.831,-2.45566,176.858,5.03174,-146.667,1304
1569922955,372.033,108.831,-2.34404,176.858,5.03174,-146.667,1304
1569922955,372.033,108.831,-2.34404,176.858,5.03174,-146.667,1304
1569922955,372.033,108.831,-2.34404,176.858,5.03174,-146.667,1304
1569922955,372.033,108.831,-2.34404,176.858,5.03174,-146.667,1304
1569922955,372.033,108.831,-2.34404,176.858,5.03174,-146.667,1304
1569922955,372.033,108.831,-2.34404,176.858,5.03174,-146.667,1304
1569922955,372.033,108.831,-2.34404,176.858,5.03174,-146.667,1300
1569922955,372.033,108.831,-2.34404,176.858,5.05371,-146.667,1300
1569922955,372.145,108.831,-2.34404,176.858,5.05371,-146.667,1300
1569922955,372.145,108.831,-2.34404,176.858,5.05371,-146.667,1300
1569922955,372.145,108.831,-2.34404,176.858,5.05371,-146.667,1300
1569922955,372.145,108.831,-2.34404,176.858,5.05371,-146.667,1300
1569922955,372.145,108.831,-2.34404,176.858,5.05371,-146.667,1296
1569922955,372.145,108.831,-2.34404,176.858,5.05371,-146.667,1296
1569922955,372.145,108.831,-2.34404,176.858,5.05371,-146.667,1296
1569922955,372.145,108.831,-2.34404,176.858,5.05371,-146.667,1296
1569922955,372.145,108.831,-2.34404,176.858,5.05371,-146.667,1296
1569922955,372.145,108.831,-2.34404,176.836,5.05371,-146.667,1296
1569922955,372.145,108.831,-2.34404,176.836,5.05371,-146.646,1296
1569922955,372.145,108.831,-2.34404,176.836,5.05371,-146.646,1296
1569922955,372.145,108.831,-2.34404,176.836,5.05371,-146.646,1296
1569922955,372.145,108.831,-2.34404,176.836,5.05371,-146.646,1296
1569922955,372.145,108.831,-2.34404,176.836,5.05371,-146.646,1296
1569922955,372.145,108.831,-2.34404,176.836,5.05371,-146.646,1296
1569922955,372.145,108.831,-2.34404,176.836,5.05371,-146.646,1300
1569922955,372.145,108.831,-2.34404,176.836,5.05371,-146.646,1300
1569922955,372.145,108.831,-2.34404,176.858,5.05371,-146.646,1300
1569922955,372.145,108.831,-2.34404,176.858,5.05371,-146.646,1300
1569922955,372.145,108.831,-2.34404,176.858,5.05371,-146.667,1300
1569922955,372.033,108.831,-2.34404,176.858,5.05371,-146.667,1300
1569922955,372.033,108.831,-2.34404,176.858,5.05371,-146.667,1300
1569922955,372.033,108.942,-2.34404,176.858,5.05371,-146.667,1304
1569922955,372.033,108.942,-2.34404,176.858,5.05371,-146.667,1304
1569922955,372.033,108.942,-2.34404,176.858,5.05371,-146.667,1304
1569922955,372.033,108.942,-2.34404,176.858,5.05371,-146.667,1304
1569922955,372.033,108.942,-2.34404,176.858,5.05371,-146.667,1304
1569922955,372.033,108.942,-2.34404,176.858,5.05371,-146.667,1304
1569922955,372.033,108.942,-2.34404,176.858,5.05371,-146.667,1304
1569922955,372.033,108.942,-2.34404,176.858,5.05371,-146.667,1304
1569922955,372.033,108.942,-2.34404,176.858,5.05371,-146.667,1304
1569922955,372.145,108.942,-2.34404,176.858,5.05371,-146.667,1304
1569922955,372.033,108.942,-2.34404,176.858,5.05371,-146.667,1304
1569922955,372.033,108.942,-2.34404,176.858,5.05371,-146.667,1304
1569922955,372.033,108.942,-2.34404,176.88,5.05371,-146.667,1304
1569922955,372.033,108.942,-2.34404,176.88,5.05371,-146.667,1304
1569922956,372.033,108.942,-2.34404,176.88,5.05371,-146.667,1304
1569922956,372.033,108.942,-2.34404,176.88,5.05371,-146.667,1304
1569922956,372.033,108.942,-2.34404,176.88,5.05371,-146.667,1304
1569922956,372.033,108.942,-2.34404,176.88,5.05371,-146.667,1304
1569922956,372.033,108.942,-2.34404,176.88,5.05371,-146.667,1304
1569922956,372.033,108.942,-2.34404,176.88,5.05371,-146.667,1304
1569922956,372.033,108.942,-2.34404,176.88,5.05371,-146.667,1308
1569922956,372.033,108.942,-2.34404,176.88,5.05371,-146.667,1308
1569922956,372.145,108.942,-2.34404,176.88,5.05371,-146.667,1308
1569922956,372.145,108.942,-2.34404,176.88,5.05371,-146.667,1308
1569922956,372.145,108.942,-2.34404,176.88,5.05371,-146.646,1308
1569922956,372.145,108.942,-2.34404,176.88,5.05371,-146.646,1312
1569922956,372.145,108.942,-2.34404,176.88,5.05371,-146.646,1312
1569922956,372.145,108.942,-2.34404,176.88,5.05371,-146.646,1312
1569922956,372.145,108.942,-2.34404,176.88,5.05371,-146.646,1312
1569922956,372.145,108.942,-2.34404,176.88,5.05371,-146.646,1316
1569922956,372.145,108.942,-2.34404,176.88,5.05371,-146.646,1316
1569922956,372.145,108.942,-2.34404,176.88,5.05371,-146.646,1316
1569922956,372.145,108.942,-2.34404,176.88,5.05371,-146.646,1316
1569922956,372.145,108.942,-2.34404,176.902,5.05371,-146.646,1316
1569922956,372.145,109.054,-2.34404,176.902,5.05371,-146.646,1316
1569922956,372.145,109.054,-2.34404,176.902,5.05371,-146.646,1316
1569922956,372.145,109.054,-2.34404,176.902,5.05371,-146.646,1316
1569922956,372.145,109.054,-2.34404,176.902,5.05371,-146.646,1316
1569922956,372.145,109.054,-2.34404,176.902,5.05371,-146.646,1316
1569922956,372.145,108.942,-2.34404,176.902,5.05371,-146.646,1316
1569922956,372.145,108.942,-2.34404,176.902,5.05371,-146.646,1316
1569922956,372.145,108.942,-2.34404,176.902,5.05371,-146.667,1316
1569922956,372.145,108.942,-2.34404,176.88,5.05371,-146.667,1316
1569922956,372.145,108.942,-2.34404,176.88,5.05371,-146.667,1316
1569922956,372.145,108.942,-2.34404,176.88,5.05371,-146.667,1316
1569922956,372.145,108.942,-2.34404,176.88,5.05371,-146.667,1316
1569922956,372.145,108.942,-2.34404,176.88,5.05371,-146.667,1316
1569922956,372.145,108.942,-2.34404,176.88,5.03174,-146.667,1316
1569922956,372.145,108.942,-2.34404,176.88,5.03174,-146.646,1316
1569922956,372.145,108.942,-2.34404,176.88,5.03174,-146.646,1316
1569922956,372.145,108.942,-2.34404,176.88,5.03174,-146.646,1316
1569922956,372.145,108.942,-2.45566,176.88,5.03174,-146.646,1316
1569922956,372.145,108.942,-2.45566,176.88,5.03174,-146.646,1316
1569922956,372.145,108.942,-2.45566,176.88,5.03174,-146.646,1316
1569922956,372.145,108.942,-2.45566,176.88,5.03174,-146.646,1316
1569922956,372.145,108.831,-2.45566,176.88,5.03174,-146.646,1316
1569922956,372.145,108.831,-2.45566,176.88,5.00977,-146.646,1316
1569922956,372.145,108.831,-2.45566,176.88,5.00977,-146.646,1316
1569922956,372.145,108.831,-2.45566,176.88,5.00977,-146.646,1316
1569922956,372.145,108.831,-2.45566,176.88,5.00977,-146.646,1316
1569922956,372.145,108.831,-2.45566,176.88,5.00977,-146.646,1316
1569922956,372.145,108.831,-2.45566,176.858,5.00977,-146.646,1316
1569922956,372.145,108.831,-2.45566,176.858,5.00977,-146.646,1316
1569922956,372.145,108.831,-2.45566,176.858,5.00977,-146.646,1316
1569922956,372.145,108.831,-2.45566,176.858,5.03174,-146.646,1316
1569922956,372.033,108.831,-2.45566,176.858,5.03174,-146.646,1316
1569922956,372.033,108.831,-2.45566,176.858,5.03174,-146.646,1312
1569922956,372.033,108.831,-2.34404,176.858,5.03174,-146.646,1312
1569922956,372.033,108.831,-2.34404,176.858,5.03174,-146.646,1312
1569922956,372.033,108.831,-2.34404,176.858,5.05371,-146.646,1312
1569922956,372.033,108.831,-2.34404,176.858,5.05371,-146.646,1312
1569922956,372.033,108.831,-2.34404,176.858,5.05371,-146.646,1308
1569922956,372.033,108.831,-2.34404,176.858,5.05371,-146.646,1308
1569922956,372.033,108.831,-2.34404,176.858,5.05371,-146.646,1308
1569922956,372.033,108.831,-2.34404,176.858,5.05371,-146.646,1308
1569922956,372.033,108.831,-2.34404,176.858,5.05371,-146.646,1304
1569922956,372.033,108.831,-2.34404,176.858,5.07568,-146.646,1304
1569922956,372.033,108.831,-2.34404,176.858,5.07568,-146.646,1304
1569922956,372.033,108.831,-2.34404,176.858,5.07568,-146.646,1304
1569922956,372.033,108.831,-2.34404,176.858,5.07568,-146.646,1304
1569922956,372.033,108.831,-2.34404,176.858,5.07568,-146.646,1304
1569922956,372.033,108.831,-2.34404,176.858,5.07568,-146.646,1304
1569922956,372.033,108.831,-2.34404,176.858,5.07568,-146.646,1304
1569922956,372.033,108.831,-2.34404,176.858,5.07568,-146.646,1304
1569922956,372.033,108.831,-2.23242,176.858,5.07568,-146.646,1304
1569922956,372.033,108.831,-2.23242,176.858,5.07568,-146.646,1304
1569922956,372.033,108.831,-2.23242,176.858,5.07568,-146.646,1304
1569922956,372.145,108.831,-2.23242,176.858,5.05371,-146.646,1304
1569922956,372.145,108.831,-2.34404,176.858,5.05371,-146.646,1304
1569922956,372.145,108.831,-2.34404,176.858,5.05371,-146.646,1308
1569922956,372.145,108.831,-2.34404,176.836,5.05371,-146.646,1308
1569922956,372.145,108.831,-2.34404,176.836,5.05371,-146.646,1308
1569922956,372.145,108.831,-2.34404,176.836,5.05371,-146.646,1308
1569922956,372.145,108.831,-2.34404,176.836,5.05371,-146.646,1308
1569922956,372.145,108.831,-2.34404,176.836,5.05371,-146.646,1312
1569922956,372.145,108.831,-2.34404,176.836,5.05371,-146.646,1312
1569922956,372.145,108.831,-2.34404,176.836,5.05371,-146.667,1312
1569922956,372.145,108.831,-2.34404,176.836,5.05371,-146.667,1312
1569922956,372.145,108.831,-2.34404,176.858,5.05371,-146.667,1312
1569922956,372.145,108.831,-2.34404,176.858,5.05371,-146.667,1312
1569922956,372.033,108.831,-2.34404,176.858,5.05371,-146.667,1312
1569922956,372.033,108.831,-2.34404,176.858,5.05371,-146.667,1312
1569922956,372.033,108.831,-2.34404,176.858,5.05371,-146.667,1312
1569922956,372.033,108.831,-2.34404,176.858,5.05371,-146.667,1312
1569922956,372.033,108.831,-2.34404,176.858,5.05371,-146.667,1312
1569922956,372.033,108.831,-2.34404,176.858,5.05371,-146.667,1312
1569922956,372.033,108.831,-2.34404,176.858,5.05371,-146.667,1312
1569922956,372.033,108.831,-2.34404,176.858,5.05371,-146.667,1312
1569922956,372.033,108.831,-2.34404,176.858,5.05371,-146.667,1308
1569922956,372.033,108.831,-2.34404,176.858,5.05371,-146.667,1308
1569922956,372.033,108.942,-2.34404,176.88,5.05371,-146.646,1308
1569922956,372.033,108.942,-2.34404,176.88,5.05371,-146.646,1308
1569922956,372.033,108.942,-2.34404,176.88,5.05371,-146.646,1304
1569922956,372.033,108.942,-2.34404,176.88,5.05371,-146.646,1304
1569922957,372.033,108.942,-2.34404,176.88,5.05371,-146.646,1304
1569922957,372.033,108.942,-2.34404,176.88,5.05371,-146.646,1304
1569922957,372.033,108.942,-2.34404,176.88,5.03174,-146.646,1300
1569922957,372.033,108.942,-2.34404,176.88,5.03174,-146.646,1300
1569922957,372.033,108.942,-2.34404,176.88,5.03174,-146.646,1300
1569922957,372.033,108.942,-2.34404,176.88,5.03174,-146.646,1300
1569922957,372.033,108.942,-2.45566,176.88,5.03174,-146.646,1300
1569922957,372.033,108.942,-2.45566,176.88,5.03174,-146.646,1300
1569922957,372.033,108.942,-2.45566,176.88,5.03174,-146.646,1304
1569922957,372.033,108.942,-2.45566,176.88,5.03174,-146.646,1304
1569922957,372.033,108.942,-2.45566,176.88,5.03174,-146.646,1304
1569922957,372.033,108.942,-2.45566,176.88,5.00977,-146.646,1304
1569922957,372.033,108.942,-2.45566,176.88,5.00977,-146.646,1304
1569922957,372.033,108.942,-2.45566,176.88,5.00977,-146.646,1308
1569922957,372.145,108.942,-2.45566,176.88,5.00977,-146.646,1308
1569922957,372.145,108.942,-2.45566,176.88,5.00977,-146.646,1308
1569922957,372.145,108.942,-2.45566,176.88,5.00977,-146.646,1308
1569922957,372.145,108.942,-2.45566,176.88,5.00977,-146.646,1312
1569922957,372.145,108.942,-2.45566,176.88,5.03174,-146.646,1312
1569922957,372.145,108.942,-2.45566,176.88,5.03174,-146.646,1312
1569922957,372.145,108.942,-2.45566,176.88,5.03174,-146.646,1312
1569922957,372.145,108.942,-2.45566,176.88,5.03174,-146.667,1316
1569922957,372.145,108.942,-2.34404,176.88,5.03174,-146.667,1316
1569922957,372.145,108.942,-2.34404,176.88,5.03174,-146.667,1316
1569922957,372.145,108.942,-2.34404,176.88,5.03174,-146.667,1316
1569922957,372.145,108.942,-2.34404,176.88,5.03174,-146.667,1316
1569922957,372.145,108.942,-2.34404,176.88,5.03174,-146.667,1316
1569922957,372.145,108.942,-2.34404,176.88,5.03174,-146.667,1316
1569922957,372.145,108.942,-2.34404,176.88,5.03174,-146.667,1320
1569922957,372.145,108.942,-2.34404,176.88,5.03174,-146.667,1320
1569922957,372.145,108.942,-2.34404,176.88,5.03174,-146.667,1320
1569922957,372.145,108.942,-2.34404,176.88,5.03174,-146.667,1320
1569922957,372.145,108.942,-2.34404,176.88,5.03174,-146.667,1320
1569922957,372.145,108.942,-2.34404,176.88,5.03174,-146.667,1320
1569922957,372.145,108.942,-2.34404,176.88,5.03174,-146.667,1320
1569922957,372.145,108.942,-2.34404,176.88,5.03174,-146.667,1320
1569922957,372.145,108.942,-2.34404,176.88,5.03174,-146.667,1320
1569922957,372.145,108.942,-2.34404,176.858,5.03174,-146.667,1320
1569922957,372.145,108.942,-2.34404,176.858,5.03174,-146.667,1320
1569922957,372.145,108.942,-2.34404,176.858,5.03174,-146.667,1320
1569922957,372.145,108.942,-2.34404,176.858,5.03174,-146.667,1320
1569922957,372.145,108.942,-2.34404,176.858,5.03174,-146.667,1320
1569922957,372.145,108.942,-2.34404,176.858,5.03174,-146.667,1320
1569922957,372.145,108.942,-2.45566,176.858,5.00977,-146.667,1320
1569922957,372.145,108.942,-2.45566,176.858,5.00977,-146.667,1320
1569922957,372.145,108.942,-2.45566,176.858,5.00977,-146.667,1324
1569922957,372.145,108.942,-2.45566,176.858,5.00977,-146.667,1324
1569922957,372.145,108.942,-2.45566,176.858,5.00977,-146.667,1324
1569922957,372.145,108.942,-2.45566,176.88,5.00977,-146.667,1324
1569922957,372.145,108.942,-2.45566,176.88,5.00977,-146.667,1324
1569922957,372.145,108.942,-2.45566,176.88,5.00977,-146.667,1324
1569922957,372.145,108.942,-2.45566,176.88,5.00977,-146.667,1324
1569922957,372.145,108.942,-2.45566,176.88,5.00977,-146.667,1324
1569922957,372.145,108.942,-2.45566,176.88,5.00977,-146.667,1324
1569922957,372.145,108.942,-2.45566,176.858,5.00977,-146.667,1324
1569922957,372.145,108.942,-2.45566,176.858,5.00977,-146.667,1324
1569922957,372.145,108.831,-2.45566,176.858,5.00977,-146.667,1324
1569922957,372.145,108.831,-2.45566,176.858,5.00977,-146.667,1320
1569922957,372.145,108.831,-2.45566,176.858,5.00977,-146.667,1320
1569922957,372.145,108.831,-2.45566,176.858,5.00977,-146.667,1320
1569922957,372.145,108.831,-2.45566,176.858,5.00977,-146.667,1320
1569922957,372.033,108.831,-2.45566,176.858,5.00977,-146.667,1316
1569922957,372.033,108.831,-2.45566,176.858,5.00977,-146.667,1316
1569922957,372.033,108.831,-2.45566,176.858,4.98779,-146.667,1316
1569922957,372.033,108.831,-2.45566,176.858,4.98779,-146.667,1312
1569922957,372.033,108.831,-2.45566,176.858,4.98779,-146.667,1312
1569922957,372.033,108.831,-2.45566,176.858,4.98779,-146.667,1312
1569922957,372.033,108.831,-2.45566,176.858,4.98779,-146.667,1308
1569922957,372.033,108.831,-2.45566,176.858,4.98779,-146.667,1308
1569922957,372.033,108.831,-2.45566,176.858,4.98779,-146.667,1308
1569922957,372.033,108.831,-2.45566,176.858,4.98779,-146.667,1308
1569922957,372.033,108.831,-2.45566,176.858,4.98779,-146.667,1308
1569922957,372.033,108.831,-2.45566,176.858,4.98779,-146.667,1304
1569922957,372.033,108.831,-2.45566,176.858,4.98779,-146.667,1304
1569922957,372.033,108.831,-2.45566,176.858,5.00977,-146.667,1304
1569922957,372.033,108.831,-2.45566,176.858,5.00977,-146.667,1304
1569922957,372.033,108.831,-2.45566,176.858,5.00977,-146.667,1304
1569922957,372.033,108.831,-2.45566,176.858,5.00977,-146.667,1300
1569922960,333.635,148.791,-2.90215,176.309,4.98779,-146.777,936
1569922960,333.635,148.791,-2.90215,176.309,4.98779,-146.777,936
1569922960,333.635,148.791,-2.90215,176.309,4.98779,-146.777,936
1569922960,333.635,148.791,-2.90215,176.309,4.98779,-146.777,932
1569922960,333.635,148.791,-2.90215,176.309,4.98779,-146.777,932
1569922960,333.635,148.791,-2.90215,176.309,4.98779,-146.777,932
1569922960,333.635,148.791,-2.90215,176.309,4.98779,-146.755,936
1569922960,333.635,148.791,-2.90215,176.309,4.98779,-146.755,936
1569922960,333.635,148.791,-2.90215,176.309,4.98779,-146.755,936
1569922960,333.635,148.679,-2.90215,176.309,4.98779,-146.755,936
1569922960,333.635,148.679,-2.90215,176.309,4.98779,-146.755,936
1569922960,333.635,148.679,-2.90215,176.287,4.98779,-146.755,936
1569922960,333.635,148.679,-2.90215,176.287,4.98779,-146.755,936
1569922960,333.635,148.679,-2.90215,176.287,4.98779,-146.755,936
1569922960,333.635,148.679,-2.90215,176.287,4.98779,-146.755,936
1569922961,333.635,148.679,-2.90215,176.287,5.00977,-146.777,936
1569922961,333.635,148.679,-2.90215,176.287,5.00977,-146.777,936
1569922961,333.635,148.679,-2.90215,176.309,5.00977,-146.777,936
1569922961,333.635,148.679,-2.90215,176.309,5.00977,-146.777,936
1569922961,333.635,148.679,-2.90215,176.309,5.00977,-146.777,936
1569922961,333.635,148.679,-2.90215,176.309,5.00977,-146.777,936
1569922961,333.635,148.679,-2.90215,176.309,5.00977,-146.777,936
1569922961,333.635,148.679,-2.90215,176.309,5.00977,-146.777,932
1569922961,333.635,148.679,-2.90215,176.309,5.00977,-146.777,932
1569922961,333.635,148.679,-2.90215,176.309,5.00977,-146.777,932
1569922961,333.635,148.679,-2.90215,176.309,5.00977,-146.777,932
1569922961,333.635,148.679,-2.90215,176.309,5.00977,-146.777,932
1569922961,333.635,148.679,-2.90215,176.309,5.00977,-146.777,932
1569922961,333.635,148.679,-2.90215,176.309,5.00977,-146.777,928
1569922961,333.635,148.791,-2.90215,176.309,5.00977,-146.777,928
1569922961,333.635,148.791,-2.90215,176.309,5.00977,-146.777,928
1569922961,333.635,148.791,-2.90215,176.309,5.00977,-146.777,928
1569922961,333.635,148.791,-2.90215,176.309,5.00977,-146.777,928
1569922961,333.635,148.791,-2.90215,176.309,5.00977,-146.777,928
1569922961,333.635,148.791,-2.90215,176.309,5.00977,-146.777,928
1569922961,333.635,148.791,-2.90215,176.309,5.00977,-146.777,928
1569922961,333.635,148.791,-2.90215,176.309,5.00977,-146.777,928
1569922961,333.635,148.791,-2.90215,176.309,5.00977,-146.777,928
1569922961,333.635,148.791,-2.90215,176.331,4.98779,-146.777,928
1569922961,333.635,148.791,-2.90215,176.309,4.98779,-146.755,928
1569922961,333.635,148.791,-2.90215,176.309,4.98779,-146.755,932
1569922961,333.635,148.791,-2.90215,176.309,4.98779,-146.755,932
1569922961,333.635,148.791,-2.90215,176.309,4.98779,-146.755,932
1569922961,333.635,148.791,-2.90215,176.309,4.98779,-146.777,932
1569922961,333.635,148.791,-2.90215,176.309,4.98779,-146.777,932
1569922961,333.635,148.791,-2.90215,176.309,4.98779,-146.777,932
1569922961,333.635,148.791,-2.90215,176.309,4.98779,-146.777,932
1569922961,333.635,148.679,-2.90215,176.309,4.98779,-146.777,932
1569922961,333.635,148.679,-2.90215,176.309,4.98779,-146.777,932
1569922961,333.635,148.679,-2.90215,176.309,4.98779,-146.777,932
1569922961,333.635,148.679,-2.90215,176.309,4.98779,-146.777,932
1569922961,333.635,148.679,-2.90215,176.309,4.98779,-146.777,928
1569922961,333.635,148.679,-2.90215,176.309,4.98779,-146.777,928
1569922961,333.635,148.679,-2.90215,176.309,4.98779,-146.777,928
1569922961,333.635,148.679,-2.90215,176.309,5.00977,-146.777,928
1569922961,333.635,148.679,-2.90215,176.309,5.00977,-146.777,928
1569922961,333.635,148.679,-2.90215,176.309,5.00977,-146.777,928
1569922961,333.635,148.679,-2.90215,176.309,5.00977,-146.777,928
1569922961,333.635,148.679,-2.79053,176.309,5.00977,-146.777,928
1569922961,333.635,148.679,-2.79053,176.309,5.00977,-146.777,928
1569922961,333.635,148.679,-2.79053,176.309,5.00977,-146.777,928
1569922961,333.635,148.679,-2.79053,176.309,5.00977,-146.777,928
1569922961,333.635,148.679,-2.79053,176.309,5.00977,-146.777,928
1569922961,333.635,148.679,-2.79053,176.309,5.00977,-146.777,928
1569922961,333.635,148.679,-2.79053,176.309,5.00977,-146.777,928
1569922961,333.635,148.679,-2.79053,176.309,5.00977,-146.777,928
1569922961,333.635,148.679,-2.79053,176.309,5.00977,-146.777,928
1569922961,333.635,148.679,-2.79053,176.309,5.00977,-146.777,928
1569922961,333.635,148.679,-2.79053,176.309,5.00977,-146.777,928
1569922961,333.635,148.679,-2.79053,176.309,5.00977,-146.777,928
1569922961,333.635,148.791,-2.79053,176.309,5.00977,-146.777,928
1569922961,333.635,148.791,-2.79053,176.309,4.98779,-146.777,932
1569922961,333.635,148.791,-2.79053,176.309,4.98779,-146.777,932
1569922961,333.635,148.791,-2.79053,176.309,4.98779,-146.777,932
1569922961,333.635,148.791,-2.79053,176.309,4.98779,-146.777,932
1569922961,333.635,148.791,-2.79053,176.309,4.98779,-146.777,932
1569922961,333.635,148.791,-2.90215,176.309,4.98779,-146.777,932
1569922961,333.635,148.791,-2.90215,176.309,4.98779,-146.777,932
1569922961,333.635,148.791,-2.90215,176.309,4.98779,-146.777,932
1569922961,333.635,148.791,-2.90215,176.309,4.98779,-146.777,932
1569922961,333.635,148.791,-2.90215,176.309,4.98779,-146.777,932
1569922961,333.635,148.791,-2.90215,176.309,4.98779,-146.777,932
1569922961,333.635,148.791,-2.90215,176.309,4.98779,-146.777,932
1569922961,333.635,148.679,-2.90215,176.309,4.98779,-146.777,928
1569922961,333.635,148.679,-2.90215,176.309,4.98779,-146.777,928
1569922961,333.635,148.679,-2.90215,176.309,4.98779,-146.777,928
1569922961,333.635,148.679,-2.90215,176.309,4.98779,-146.777,928
1569922961,333.635,148.679,-2.90215,176.309,4.98779,-146.777,928
1569922961,333.635,148.679,-2.90215,176.309,4.98779,-146.777,928
1569922961,333.635,148.679,-2.90215,176.309,4.98779,-146.777,928
1569922961,333.635,148.679,-2.90215,176.309,5.00977,-146.777,928
1569922961,333.635,148.679,-2.90215,176.309,5.00977,-146.777,928
1569922961,333.635,148.679,-2.90215,176.309,5.00977,-146.777,928
1569922961,333.635,148.679,-2.90215,176.309,5.00977,-146.777,928
1569922961,333.635,148.679,-2.90215,176.309,5.00977,-146.777,928
1569922961,333.635,148.679,-2.79053,176.287,5.00977,-146.777,928
1569922961,333.635,148.679,-2.79053,176.287,5.00977,-146.777,928
1569922961,333.635,148.679,-2.79053,176.287,5.00977,-146.777,928
1569922961,333.635,148.679,-2.79053,176.287,5.00977,-146.777,928
1569922961,333.635,148.679,-2.79053,176.287,5.00977,-146.777,928
1569922961,333.635,148.679,-2.79053,176.287,5.00977,-146.777,928
1569922961,333.635,148.679,-2.79053,176.287,5.00977,-146.777,928
1569922961,333.635,148.679,-2.79053,176.287,5.00977,-146.777,932
1569922961,333.635,148.679,-2.79053,176.287,5.00977,-146.777,932
1569922961,333.635,148.679,-2.79053,176.287,5.00977,-146.777,932
1569922961,333.635,148.679,-2.79053,176.287,5.00977,-146.777,932
1569922961,333.635,148.679,-2.79053,176.287,5.00977,-146.777,932
1569922961,333.635,148.679,-2.79053,176.287,5.00977,-146.777,932
1569922961,333.635,148.679,-2.79053,176.287,5.00977,-146.777,932
1569922961,333.635,148.679,-2.79053,176.287,5.00977,-146.777,932
1569922961,333.635,148.791,-2.79053,176.309,5.00977,-146.799,932
1569922961,333.635,148.791,-2.79053,176.309,5.00977,-146.799,932
1569922961,333.635,148.791,-2.79053,176.309,5.00977,-146.799,932
1569922961,333.635,148.791,-2.79053,176.309,5.00977,-146.799,932
1569922961,333.635,148.791,-2.79053,176.309,5.00977,-146.799,932
1569922962,333.635,148.791,-2.79053,176.309,5.00977,-146.799,932
1569922962,333.635,148.791,-2.79053,176.309,5.00977,-146.799,932
1569922962,333.635,148.791,-2.79053,176.309,5.00977,-146.799,932
1569922962,333.635,148.791,-2.90215,176.309,4.98779,-146.799,932
1569922962,333.635,148.791,-2.90215,176.309,4.98779,-146.799,932
1569922962,333.635,148.679,-2.90215,176.287,4.98779,-146.799,932
1569922962,333.635,148.679,-2.90215,176.287,4.98779,-146.799,932
1569922962,333.635,148.679,-2.90215,176.287,4.98779,-146.799,932
1569922962,333.635,148.679,-2.90215,176.287,4.98779,-146.799,932
1569922962,333.635,148.679,-2.90215,176.287,4.98779,-146.799,932
1569922962,333.635,148.679,-2.90215,176.287,4.98779,-146.799,932
1569922962,333.635,148.679,-2.90215,176.287,4.98779,-146.799,932
1569922962,333.635,148.679,-2.90215,176.287,4.98779,-146.799,932
1569922962,333.635,148.679,-2.90215,176.287,4.98779,-146.799,932
1569922962,333.635,148.679,-2.90215,176.287,4.98779,-146.799,932
1569922962,333.635,148.679,-2.90215,176.287,4.98779,-146.799,932
1569922962,333.635,148.679,-2.90215,176.287,4.98779,-146.799,932
1569922962,333.635,148.679,-2.90215,176.287,4.98779,-146.799,932
1569922962,333.635,148.679,-2.90215,176.287,4.98779,-146.799,932
1569922962,333.635,148.679,-2.90215,176.287,4.98779,-146.799,932
1569922962,333.635,148.679,-2.90215,176.287,4.98779,-146.799,932
1569922962,333.635,148.679,-2.90215,176.287,4.98779,-146.799,932
1569922962,333.635,148.679,-2.79053,176.287,4.98779,-146.799,932
1569922962,333.635,148.679,-2.79053,176.287,4.98779,-146.799,932
1569922962,333.635,148.679,-2.79053,176.287,4.98779,-146.799,932
1569922962,333.635,148.791,-2.79053,176.309,4.98779,-146.799,932
1569922962,333.635,148.791,-2.79053,176.309,5.00977,-146.799,932
1569922962,333.635,148.791,-2.79053,176.309,5.00977,-146.799,936
1569922962,333.635,148.791,-2.79053,176.309,5.00977,-146.799,936
1569922962,333.635,148.791,-2.79053,176.309,5.00977,-146.799,936
1569922962,333.635,148.791,-2.79053,176.309,5.00977,-146.799,936
1569922962,333.635,148.791,-2.79053,176.309,5.00977,-146.799,936
1569922962,333.635,148.791,-2.79053,176.309,5.00977,-146.799,936
1569922962,333.635,148.791,-2.79053,176.309,5.00977,-146.799,936
1569922962,333.635,148.791,-2.79053,176.309,5.00977,-146.799,936
1569922962,333.635,148.791,-2.79053,176.309,5.00977,-146.799,936
1569922962,333.635,148.791,-2.79053,176.309,5.00977,-146.799,932
1569922962,333.635,148.791,-2.79053,176.309,5.00977,-146.799,932
1569922962,333.524,148.791,-2.79053,176.309,5.00977,-146.799,932
1569922962,333.524,148.679,-2.79053,176.309,5.03174,-146.799,932
1569922962,333.524,148.679,-2.79053,176.309,5.03174,-146.799,932
1569922962,333.524,148.679,-2.67891,176.309,5.03174,-146.799,932
1569922962,333.524,148.679,-2.67891,176.309,5.03174,-146.799,928
1569922962,333.524,148.679,-2.67891,176.309,5.03174,-146.799,928
1569922962,333.635,148.679,-2.67891,176.309,5.03174,-146.799,928
1569922962,333.635,148.679,-2.67891,176.309,5.03174,-146.799,924
1569922962,333.635,148.679,-2.67891,176.309,5.03174,-146.799,924
1569922962,333.635,148.679,-2.67891,176.287,5.03174,-146.799,924
1569922962,333.635,148.679,-2.67891,176.287,5.03174,-146.799,924
1569922962,333.635,148.679,-2.67891,176.287,5.03174,-146.799,924
1569922962,333.635,148.679,-2.67891,176.287,5.00977,-146.799,924
1569922962,333.635,148.679,-2.67891,176.287,5.00977,-146.799,924
1569922962,333.635,148.679,-2.79053,176.287,5.00977,-146.799,920
1569922962,333.635,148.679,-2.79053,176.309,5.00977,-146.799,920
1569922962,333.635,148.791,-2.79053,176.309,5.00977,-146.799,920
1569922962,333.635,148.791,-2.79053,176.309,5.00977,-146.799,920
1569922962,333.635,148.791,-2.79053,176.309,5.00977,-146.799,920
1569922962,333.635,148.791,-2.79053,176.309,5.00977,-146.799,920
1569922962,333.635,148.791,-2.79053,176.309,5.00977,-146.799,920
1569922962,333.635,148.791,-2.79053,176.309,5.00977,-146.799,920
1569922962,333.635,148.791,-2.79053,176.309,5.00977,-146.799,920
1569922962,333.635,148.791,-2.79053,176.309,5.00977,-146.799,920
1569922962,333.635,148.791,-2.79053,176.309,5.00977,-146.799,920
1569922962,333.635,148.791,-2.79053,176.309,5.00977,-146.799,920
1569922962,333.635,148.791,-2.79053,176.309,5.00977,-146.799,916
1569922962,333.635,148.791,-2.79053,176.309,5.00977,-146.799,916
1569922962,333.635,148.791,-2.79053,176.309,5.00977,-146.799,916
1569922962,333.635,148.791,-2.79053,176.309,5.00977,-146.777,916
1569922962,333.635,148.791,-2.79053,176.309,5.00977,-146.777,916
1569922962,333.635,148.791,-2.79053,176.309,5.00977,-146.777,916
1569922962,333.635,148.791,-2.79053,176.309,5.00977,-146.777,916
1569922962,333.635,148.791,-2.79053,176.309,5.00977,-146.777,920
1569922962,333.635,148.791,-2.79053,176.309,5.00977,-146.777,920
1569922962,333.635,148.791,-2.79053,176.309,4.98779,-146.777,920
1569922962,333.635,148.791,-2.79053,176.309,4.98779,-146.777,920
1569922962,333.635,148.791,-2.79053,176.309,4.98779,-146.777,924
1569922962,333.635,148.791,-2.79053,176.309,4.98779,-146.777,924
1569922962,333.635,148.791,-2.90215,176.309,4.98779,-146.777,924
1569922962,333.635,148.791,-2.90215,176.309,4.98779,-146.777,924
1569922962,333.635,148.679,-2.90215,176.309,4.98779,-146.777,924
1569922962,333.635,148.679,-2.90215,176.309,4.98779,-146.777,928
1569922962,333.635,148.679,-2.90215,176.309,4.98779,-146.777,928
1569922962,333.635,148.679,-2.90215,176.309,4.98779,-146.777,928
1569922962,333.635,148.679,-2.90215,176.309,4.98779,-146.777,928
1569922962,333.635,148.679,-2.90215,176.309,4.98779,-146.777,928
1569922962,333.635,148.679,-2.90215,176.309,4.98779,-146.777,928
1569922962,333.635,148.679,-2.90215,176.309,4.98779,-146.777,928
1569922962,333.635,148.679,-2.90215,176.309,4.96582,-146.777,928
1569922962,333.635,148.679,-2.90215,176.309,4.96582,-146.777,928
1569922962,333.635,148.679,-2.90215,176.309,4.96582,-146.777,928
1569922962,333.635,148.679,-2.90215,176.309,4.96582,-146.777,928
1569922962,333.635,148.679,-2.90215,176.309,4.96582,-146.777,928
1569922962,333.635,148.679,-2.90215,176.287,4.96582,-146.799,928
1569922962,333.635,148.679,-2.90215,176.287,4.96582,-146.799,928
1569922962,333.635,148.679,-2.90215,176.287,4.96582,-146.799,928
1569922962,333.635,148.679,-2.90215,176.287,4.96582,-146.799,928
1569922962,333.635,148.679,-2.90215,176.287,4.96582,-146.799,928
1569922962,333.635,148.679,-2.90215,176.287,4.96582,-146.799,928
1569922962,333.635,148.679,-2.90215,176.287,4.96582,-146.799,928
1569922962,333.635,148.679,-2.90215,176.287,4.96582,-146.799,928
1569922963,333.635,148.679,-2.90215,176.287,4.98779,-146.799,932
1569922963,333.635,148.679,-2.90215,176.287,4.98779,-146.799,932
1569922963,333.635,148.679,-2.90215,176.287,4.98779,-146.777,932
1569922963,333.635,148.679,-2.90215,176.287,4.98779,-146.777,932
1569922963,333.635,148.679,-2.90215,176.287,4.98779,-146.777,932
1569922963,333.635,148.679,-2.90215,176.287,4.98779,-146.777,932
1569922963,333.635,148.679,-2.90215,176.287,4.98779,-146.777,932
1569922963,333.635,148.679,-2.90215,176.287,4.98779,-146.777,936
1569922963,333.635,148.679,-2.90215,176.287,4.98779,-146.777,936
1569922963,333.635,148.679,-2.90215,176.287,4.98779,-146.777,936
1569922963,333.635,148.679,-2.90215,176.287,4.98779,-146.777,936
1569922963,333.635,148.679,-2.90215,176.287,4.98779,-146.777,936
1569922963,333.635,148.679,-2.90215,176.287,4.98779,-146.777,936
1569922963,333.635,148.679,-2.79053,176.287,5.00977,-146.777,936
1569922963,333.635,148.568,-2.79053,176.287,5.00977,-146.777,936
1569922963,333.635,148.568,-2.79053,176.287,5.00977,-146.777,936
1569922963,333.635,148.568,-2.79053,176.265,5.00977,-146.777,936
1569922963,333.635,148.568,-2.79053,176.265,5.00977,-146.777,936
1569922963,333.635,148.568,-2.79053,176.265,5.00977,-146.777,936
1569922963,333.635,148.568,-2.79053,176.265,5.00977,-146.777,936
1569922963,333.635,148.568,-2.79053,176.265,5.00977,-146.777,936
1569922963,333.635,148.568,-2.79053,176.265,5.00977,-146.777,936
1569922963,333.635,148.568,-2.79053,176.265,5.00977,-146.799,932
1569922963,333.635,148.568,-2.79053,176.287,5.00977,-146.799,932
1569922963,333.635,148.568,-2.79053,176.287,5.00977,-146.799,932
1569922963,333.635,148.679,-2.79053,176.287,5.00977,-146.799,932
1569922963,333.635,148.679,-2.79053,176.287,5.03174,-146.799,932
1569922963,333.635,148.679,-2.79053,176.287,5.03174,-146.799,932
1569922963,333.635,148.679,-2.79053,176.287,5.03174,-146.799,928
1569922963,333.635,148.679,-2.79053,176.309,5.03174,-146.799,928
1569922963,333.635,148.679,-2.79053,176.309,5.03174,-146.799,928
1569922963,333.524,148.679,-2.79053,176.309,5.03174,-146.799,928
1569922963,333.524,148.679,-2.79053,176.309,5.03174,-146.799,924
1569922963,333.524,148.679,-2.79053,176.309,5.03174,-146.799,924
1569922963,333.524,148.679,-2.79053,176.309,5.03174,-146.799,924
1569922963,333.524,148.679,-2.79053,176.309,5.00977,-146.799,920
1569922963,333.524,148.679,-2.79053,176.287,5.00977,-146.799,920
1569922963,333.524,148.679,-2.79053,176.287,5.00977,-146.799,920
1569922963,333.635,148.679,-2.79053,176.287,5.00977,-146.799,920
1569922963,333.635,148.679,-2.79053,176.287,5.00977,-146.799,916
1569922963,333.635,148.679,-2.79053,176.287,5.00977,-146.799,916
1569922963,333.635,148.679,-2.79053,176.287,5.00977,-146.799,916
1569922963,333.635,148.679,-2.79053,176.287,5.00977,-146.799,916
1569922963,333.635,148.679,-2.79053,176.287,5.00977,-146.799,916
1569922963,333.635,148.679,-2.79053,176.287,5.00977,-146.799,916
1569922963,333.635,148.679,-2.79053,176.287,5.00977,-146.799,916
1569922963,333.635,148.679,-2.79053,176.287,5.00977,-146.799,916
1569922963,333.635,148.679,-2.79053,176.287,5.00977,-146.799,916
1569922963,333.635,148.679,-2.79053,176.287,5.00977,-146.799,916
1569922963,333.635,148.679,-2.79053,176.287,5.00977,-146.799,916
1569922963,333.635,148.679,-2.79053,176.287,5.00977,-146.799,916
1569922963,333.635,148.679,-2.79053,176.287,5.00977,-146.799,916
1569922963,333.635,148.679,-2.79053,176.287,5.00977,-146.799,916
1569922963,333.635,148.679,-2.79053,176.287,5.00977,-146.799,916
1569922963,333.635,148.679,-2.79053,176.287,5.00977,-146.799,912
1569922963,333.635,148.679,-2.79053,176.309,5.00977,-146.799,912
1569922963,333.635,148.679,-2.79053,176.309,5.00977,-146.799,912
1569922963,333.635,148.679,-2.79053,176.309,5.00977,-146.799,912
1569922963,333.635,148.679,-2.79053,176.309,5.00977,-146.799,912
1569922963,333.635,148.679,-2.79053,176.309,4.98779,-146.799,912
1569922963,333.635,148.679,-2.79053,176.309,4.98779,-146.799,912
1569922963,333.635,148.679,-2.79053,176.309,4.98779,-146.799,912
1569922963,333.635,148.679,-2.79053,176.287,4.98779,-146.799,912
1569922963,333.635,148.679,-2.79053,176.287,4.98779,-146.799,916
1569922963,333.635,148.679,-2.79053,176.287,4.98779,-146.799,916
1569922963,333.635,148.679,-2.79053,176.287,4.98779,-146.799,916
1569922963,333.635,148.679,-2.90215,176.287,4.98779,-146.799,916
1569922963,333.635,148.679,-2.90215,176.287,4.98779,-146.799,916
1569922963,333.635,148.679,-2.90215,176.287,4.98779,-146.799,916
1569922963,333.635,148.679,-2.90215,176.265,4.98779,-146.799,920
1569922963,333.635,148.679,-2.90215,176.265,4.98779,-146.799,920
1569922963,333.635,148.679,-2.90215,176.265,4.98779,-146.799,920
1569922963,333.635,148.679,-2.90215,176.265,4.98779,-146.799,920
1569922963,333.635,148.679,-2.90215,176.265,4.98779,-146.799,920
1569922963,333.635,148.679,-2.90215,176.265,4.98779,-146.799,924
1569922963,333.635,148.679,-2.90215,176.265,4.98779,-146.799,924
1569922963,333.635,148.679,-2.90215,176.265,4.98779,-146.799,924
1569922963,333.635,148.679,-2.90215,176.265,4.98779,-146.799,924
1569922963,333.635,148.679,-2.90215,176.265,4.98779,-146.799,924
1569922963,333.635,148.568,-2.90215,176.265,4.98779,-146.799,928
1569922963,333.635,148.568,-2.79053,176.265,4.98779,-146.799,928
1569922963,333.635,148.568,-2.79053,176.265,4.98779,-146.799,928
1569922963,333.635,148.568,-2.79053,176.265,4.98779,-146.799,928
1569922963,333.635,148.568,-2.79053,176.265,4.98779,-146.799,928
1569922963,333.635,148.568,-2.79053,176.265,4.98779,-146.799,928
1569922963,333.635,148.568,-2.79053,176.265,4.98779,-146.777,928
1569922963,333.635,148.568,-2.79053,176.265,4.98779,-146.777,932
1569922963,333.635,148.568,-2.79053,176.265,4.98779,-146.777,932
1569922963,333.635,148.568,-2.79053,176.265,4.98779,-146.777,932
1569922963,333.635,148.568,-2.90215,176.265,4.98779,-146.777,932
1569922963,333.635,148.568,-2.90215,176.265,4.98779,-146.777,932
