time,x,y,z,ax,ay,az,q
1569683737,284.634,29.8028,-15.7386,178.967,1.8457,-145.151,396
1569683737,284.634,29.8028,-15.7386,178.967,1.8457,-145.151,400
1569683737,284.634,29.8028,-15.7386,178.967,1.8457,-145.151,400
1569683737,284.634,29.8028,-15.7386,178.967,1.8457,-145.151,400
1569683737,284.634,29.8028,-15.7386,178.967,1.8457,-145.151,400
1569683737,284.634,29.8028,-15.7386,178.967,1.8457,-145.151,400
1569683737,284.634,29.8028,-15.7386,178.967,1.8457,-145.151,400
1569683737,284.634,29.8028,-15.7386,178.967,1.8457,-145.151,400
1569683737,284.634,29.8028,-15.7386,178.967,1.8457,-145.151,400
1569683737,284.634,29.8028,-15.7386,178.967,1.8457,-145.151,400
1569683737,284.634,29.8028,-15.7386,178.967,1.8457,-145.151,400
1569683737,284.634,29.8028,-15.7386,178.967,1.8457,-145.151,400
1569683737,284.634,29.8028,-15.7386,178.967,1.8457,-145.151,400
1569683737,284.634,29.8028,-15.7386,178.967,1.8457,-145.151,400
1569683737,284.634,29.8028,-15.7386,178.967,1.8457,-145.151,400
1569683737,284.634,29.8028,-15.7386,178.967,1.8457,-145.151,400
1569683737,284.634,29.6912,-15.7386,178.967,1.8457,-145.151,400
1569683737,284.634,29.6912,-15.7386,178.967,1.8457,-145.151,400
1569683737,284.634,29.6912,-15.7386,178.945,1.8457,-145.151,400
1569683737,284.634,29.6912,-15.7386,178.945,1.8457,-145.151,400
1569683737,284.634,29.6912,-15.7386,178.945,1.8457,-145.151,400
1569683737,284.634,29.6912,-15.7386,178.945,1.8457,-145.151,400
1569683737,284.634,29.6912,-15.7386,178.945,1.8457,-145.151,400
1569683737,284.634,29.6912,-15.7386,178.967,1.8457,-145.151,400
1569683737,284.634,29.8028,-15.7386,178.967,1.8457,-145.151,400
1569683737,284.634,29.8028,-15.7386,178.967,1.8457,-145.151,400
1569683737,284.634,29.8028,-15.7386,178.967,1.8457,-145.151,400
1569683737,284.634,29.8028,-15.7386,178.967,1.8457,-145.151,400
1569683737,284.634,29.8028,-15.7386,178.967,1.8457,-145.151,400
1569683737,284.634,29.8028,-15.7386,178.967,1.8457,-145.151,400
1569683737,284.634,29.8028,-15.7386,178.967,1.8457,-145.151,400
1569683737,284.634,29.8028,-15.7386,178.967,1.8457,-145.151,400
1569683737,284.634,29.8028,-15.7386,178.967,1.8457,-145.151,400
1569683737,284.634,29.8028,-15.7386,178.967,1.8457,-145.151,400
1569683737,284.634,29.8028,-15.7386,178.967,1.8457,-145.151,400
1569683737,284.634,29.8028,-15.7386,178.967,1.8457,-145.151,400
1569683737,284.634,29.8028,-15.7386,178.967,1.8457,-145.151,400
1569683737,284.634,29.8028,-15.7386,178.967,1.8457,-145.151,400
1569683737,284.634,29.8028,-15.7386,178.967,1.8457,-145.151,400
1569683737,284.634,29.8028,-15.7386,178.967,1.82373,-145.151,400
1569683737,284.634,29.8028,-15.7386,178.967,1.82373,-145.151,400
1569683737,284.634,29.8028,-15.7386,178.967,1.82373,-145.151,400
1569683737,284.634,29.8028,-15.7386,178.967,1.82373,-145.151,396
1569683737,284.634,29.8028,-15.7386,178.967,1.82373,-145.151,396
1569683737,284.634,29.8028,-15.7386,178.967,1.82373,-145.151,396
1569683737,284.634,29.8028,-15.7386,178.967,1.82373,-145.151,396
1569683737,284.634,29.8028,-15.7386,178.967,1.82373,-145.151,396
1569683737,284.634,29.8028,-15.7386,178.967,1.82373,-145.151,396
1569683737,284.634,29.8028,-15.7386,178.967,1.82373,-145.151,396
1569683737,284.634,29.8028,-15.7386,178.967,1.82373,-145.151,396
1569683737,284.634,29.8028,-15.7386,178.967,1.82373,-145.151,396
1569683737,284.634,29.8028,-15.7386,178.967,1.82373,-145.151,396
1569683737,284.634,29.8028,-15.7386,178.967,1.82373,-145.151,396
1569683737,284.634,29.8028,-15.7386,178.967,1.82373,-145.151,396
1569683737,284.634,29.8028,-15.7386,178.967,1.82373,-145.151,396
1569683737,284.634,29.8028,-15.7386,178.967,1.82373,-145.151,396
1569683737,284.634,29.8028,-15.7386,178.967,1.82373,-145.151,400
1569683737,284.634,29.8028,-15.7386,178.967,1.82373,-145.151,400
1569683737,284.634,29.8028,-15.7386,178.967,1.82373,-145.151,400
1569683737,284.634,29.8028,-15.7386,178.967,1.82373,-145.151,400
1569683737,284.634,29.8028,-15.7386,178.967,1.82373,-145.151,400
1569683737,284.634,29.8028,-15.7386,178.967,1.82373,-145.151,400
1569683737,284.634,29.8028,-15.7386,178.967,1.82373,-145.151,400
1569683737,284.634,29.8028,-15.7386,178.967,1.82373,-145.151,404
1569683737,284.634,29.8028,-15.7386,178.967,1.82373,-145.151,404
1569683737,284.634,29.8028,-15.7386,178.967,1.82373,-145.151,404
1569683737,284.634,29.8028,-15.7386,178.967,1.82373,-145.151,404
1569683737,284.634,29.8028,-15.7386,178.967,1.82373,-145.151,404
1569683737,284.634,29.8028,-15.7386,178.967,1.82373,-145.151,404
1569683737,284.634,29.8028,-15.7386,178.967,1.82373,-145.151,404
1569683737,284.634,29.8028,-15.7386,178.967,1.82373,-145.151,404
1569683737,284.634,29.8028,-15.7386,178.967,1.82373,-145.151,404
1569683737,284.634,29.8028,-15.7386,178.967,1.82373,-145.151,404
1569683737,284.634,29.8028,-15.7386,178.967,1.82373,-145.151,404
1569683737,284.634,29.8028,-15.7386,178.967,1.82373,-145.151,404
1569683737,284.634,29.8028,-15.7386,178.967,1.82373,-145.151,404
1569683737,284.634,29.8028,-15.7386,178.967,1.82373,-145.151,404
1569683737,284.634,29.8028,-15.7386,178.967,1.82373,-145.151,404
1569683737,284.634,29.8028,-15.7386,178.967,1.82373,-145.151,404
1569683737,284.634,29.8028,-15.7386,178.967,1.82373,-145.151,404
1569683737,284.634,29.8028,-15.7386,178.967,1.82373,-145.151,404
1569683737,284.634,29.8028,-15.7386,178.967,1.82373,-145.151,404
1569683737,284.634,29.8028,-15.7386,178.967,1.82373,-145.151,404
1569683737,284.634,29.8028,-15.7386,178.967,1.82373,-145.151,404
1569683737,284.634,29.8028,-15.7386,178.967,1.82373,-145.151,404
1569683737,284.634,29.8028,-15.7386,178.967,1.82373,-145.151,404
1569683737,284.634,29.8028,-15.7386,178.967,1.82373,-145.151,404
1569683737,284.634,29.8028,-15.7386,178.967,1.82373,-145.151,404
1569683737,284.634,29.8028,-15.7386,178.967,1.82373,-145.151,404
1569683737,284.634,29.8028,-15.7386,178.967,1.82373,-145.151,404
1569683737,284.634,29.8028,-15.7386,178.967,1.82373,-145.151,404
1569683737,284.634,29.8028,-15.7386,178.967,1.82373,-145.151,404
1569683737,284.634,29.8028,-15.7386,178.967,1.82373,-145.151,404
1569683737,284.634,29.8028,-15.7386,178.967,1.82373,-145.151,404
1569683737,284.634,29.8028,-15.7386,178.967,1.82373,-145.151,404
1569683737,284.634,29.8028,-15.7386,178.967,1.82373,-145.151,404
1569683737,284.634,29.8028,-15.7386,178.967,1.82373,-145.151,404
1569683737,284.634,29.8028,-15.7386,178.967,1.82373,-145.151,404
1569683737,284.634,29.8028,-15.7386,178.989,1.8457,-145.151,400
1569683737,284.634,29.8028,-15.7386,178.989,1.8457,-145.151,400
1569683738,284.634,29.8028,-15.7386,178.989,1.8457,-145.151,400
1569683738,284.634,29.8028,-15.7386,178.989,1.8457,-145.151,400
1569683738,284.634,29.8028,-15.7386,178.989,1.8457,-145.151,400
1569683738,284.634,29.8028,-15.7386,178.989,1.8457,-145.151,400
1569683738,284.634,29.8028,-15.7386,178.989,1.8457,-145.151,400
1569683738,284.634,29.8028,-15.7386,178.989,1.8457,-145.151,400
1569683738,284.634,29.8028,-15.7386,178.989,1.8457,-145.151,400
1569683738,284.634,29.8028,-15.7386,178.989,1.8457,-145.151,400
1569683738,284.634,29.8028,-15.7386,178.989,1.8457,-145.151,400
1569683738,284.634,29.8028,-15.7386,178.989,1.8457,-145.151,400
1569683738,284.634,29.8028,-15.7386,178.989,1.8457,-145.151,400
1569683738,284.634,29.8028,-15.7386,178.989,1.8457,-145.151,400
1569683738,284.634,29.8028,-15.7386,178.967,1.8457,-145.151,400
1569683738,284.634,29.8028,-15.7386,178.967,1.8457,-145.151,400
1569683738,284.634,29.8028,-15.7386,178.967,1.8457,-145.151,404
1569683738,284.634,29.8028,-15.7386,178.967,1.8457,-145.151,404
1569683738,284.634,29.8028,-15.7386,178.967,1.8457,-145.151,404
1569683738,284.634,29.8028,-15.7386,178.967,1.8457,-145.151,404
1569683738,284.634,29.8028,-15.7386,178.967,1.8457,-145.151,404
1569683738,284.634,29.8028,-15.7386,178.967,1.8457,-145.151,404
1569683738,284.634,29.8028,-15.7386,178.967,1.8457,-145.151,404
1569683738,284.634,29.8028,-15.7386,178.967,1.8457,-145.151,404
1569683738,284.634,29.8028,-15.7386,178.967,1.8457,-145.151,404
1569683738,284.634,29.8028,-15.7386,178.967,1.82373,-145.151,404
1569683738,284.634,29.8028,-15.7386,178.967,1.82373,-145.151,404
1569683738,284.634,29.8028,-15.7386,178.967,1.82373,-145.151,404
1569683738,284.634,29.8028,-15.7386,178.967,1.82373,-145.151,404
1569683738,284.634,29.8028,-15.7386,178.967,1.82373,-145.151,404
1569683738,284.634,29.8028,-15.7386,178.967,1.82373,-145.151,404
1569683738,284.634,29.8028,-15.7386,178.967,1.82373,-145.151,404
1569683738,284.634,29.8028,-15.7386,178.967,1.82373,-145.151,404
1569683738,284.634,29.8028,-15.7386,178.967,1.82373,-145.151,404
1569683738,284.634,29.8028,-15.7386,178.967,1.82373,-145.151,404
1569683738,284.634,29.8028,-15.7386,178.967,1.82373,-145.151,404
1569683738,284.634,29.8028,-15.7386,178.967,1.82373,-145.151,404
1569683738,284.634,29.8028,-15.7386,178.967,1.8457,-145.151,404
1569683738,284.634,29.8028,-15.7386,178.967,1.8457,-145.151,404
1569683738,284.634,29.8028,-15.7386,178.967,1.8457,-145.151,404
1569683738,284.634,29.8028,-15.7386,178.967,1.8457,-145.151,404
1569683738,284.634,29.8028,-15.7386,178.967,1.8457,-145.151,404
1569683738,284.634,29.8028,-15.7386,178.967,1.8457,-145.151,404
1569683738,284.634,29.8028,-15.7386,178.967,1.8457,-145.151,404
1569683738,284.634,29.8028,-15.7386,178.967,1.8457,-145.151,404
1569683738,284.634,29.8028,-15.7386,178.967,1.8457,-145.129,404
1569683738,284.634,29.8028,-15.7386,178.967,1.82373,-145.129,404
1569683738,284.634,29.8028,-15.7386,178.967,1.82373,-145.129,404
1569683738,284.634,29.8028,-15.7386,178.967,1.82373,-145.129,404
1569683738,284.634,29.8028,-15.7386,178.967,1.82373,-145.129,404
1569683738,284.634,29.8028,-15.7386,178.967,1.82373,-145.129,404
1569683738,284.634,29.8028,-15.7386,178.967,1.82373,-145.129,404
1569683738,284.634,29.8028,-15.7386,178.967,1.82373,-145.129,404
1569683738,284.634,29.8028,-15.7386,178.967,1.82373,-145.129,404
1569683738,284.634,29.8028,-15.7386,178.967,1.82373,-145.129,404
1569683738,284.634,29.8028,-15.7386,178.967,1.82373,-145.129,404
1569683738,284.634,29.8028,-15.7386,178.967,1.82373,-145.129,404
1569683738,284.634,29.8028,-15.7386,178.967,1.82373,-145.129,404
1569683738,284.634,29.8028,-15.7386,178.967,1.82373,-145.129,404
1569683738,284.634,29.8028,-15.7386,178.967,1.82373,-145.129,404
1569683738,284.634,29.8028,-15.7386,178.967,1.82373,-145.129,404
1569683738,284.634,29.8028,-15.7386,178.967,1.82373,-145.129,404
1569683738,284.634,29.8028,-15.7386,178.967,1.82373,-145.129,404
1569683738,284.634,29.8028,-15.7386,178.967,1.82373,-145.129,404
1569683738,284.634,29.8028,-15.7386,178.967,1.82373,-145.129,404
1569683738,284.634,29.8028,-15.7386,178.967,1.82373,-145.129,404
1569683738,284.634,29.8028,-15.7386,178.967,1.82373,-145.129,404
1569683738,284.634,29.8028,-15.7386,178.967,1.82373,-145.129,404
1569683738,284.634,29.8028,-15.7386,178.967,1.82373,-145.129,404
1569683738,284.634,29.8028,-15.7386,178.967,1.82373,-145.129,404
1569683738,284.634,29.8028,-15.7386,178.967,1.82373,-145.129,404
1569683738,284.634,29.8028,-15.7386,178.967,1.8457,-145.129,404
1569683738,284.634,29.8028,-15.7386,178.967,1.8457,-145.129,404
1569683738,284.634,29.8028,-15.7386,178.967,1.8457,-145.129,404
1569683738,284.634,29.8028,-15.7386,178.967,1.8457,-145.129,404
1569683738,284.634,29.8028,-15.7386,178.967,1.8457,-145.129,404
1569683738,284.634,29.8028,-15.7386,178.967,1.8457,-145.129,404
1569683738,284.634,29.8028,-15.7386,178.967,1.8457,-145.129,404
1569683738,284.634,29.8028,-15.7386,178.967,1.8457,-145.129,404
1569683738,284.634,29.8028,-15.7386,178.967,1.82373,-145.129,404
1569683738,284.634,29.8028,-15.7386,178.967,1.82373,-145.129,404
1569683738,284.634,29.8028,-15.7386,178.967,1.82373,-145.129,404
1569683738,284.634,29.6912,-15.7386,178.967,1.82373,-145.129,404
1569683738,284.634,29.6912,-15.7386,178.967,1.82373,-145.129,404
1569683738,284.634,29.6912,-15.7386,178.967,1.82373,-145.129,404
1569683738,284.634,29.6912,-15.7386,178.967,1.82373,-145.129,404
1569683738,284.634,29.6912,-15.7386,178.967,1.82373,-145.129,404
1569683738,284.634,29.6912,-15.7386,178.967,1.82373,-145.129,404
1569683738,284.634,29.6912,-15.7386,178.967,1.82373,-145.129,404
1569683738,284.634,29.6912,-15.7386,178.967,1.82373,-145.129,404
1569683738,284.634,29.8028,-15.7386,178.967,1.82373,-145.151,404
1569683738,284.634,29.8028,-15.7386,178.967,1.82373,-145.151,404
1569683738,284.634,29.8028,-15.7386,178.967,1.82373,-145.151,404
1569683738,284.634,29.8028,-15.7386,178.967,1.82373,-145.151,400
1569683738,284.634,29.8028,-15.7386,178.967,1.82373,-145.151,400
1569683738,284.634,29.8028,-15.7386,178.967,1.82373,-145.151,400
1569683738,284.634,29.8028,-15.7386,178.967,1.82373,-145.151,400
1569683738,284.634,29.8028,-15.7386,178.967,1.82373,-145.151,400
1569683738,284.634,29.8028,-15.7386,178.967,1.82373,-145.151,400
1569683738,284.634,29.8028,-15.7386,178.967,1.82373,-145.151,400
1569683738,284.634,29.8028,-15.7386,178.967,1.82373,-145.151,400
1569683738,284.634,29.8028,-15.7386,178.967,1.82373,-145.151,400
1569683739,284.634,29.8028,-15.7386,178.967,1.82373,-145.151,400
1569683739,284.634,29.8028,-15.7386,178.967,1.82373,-145.151,400
1569683739,284.634,29.8028,-15.7386,178.967,1.82373,-145.151,400
1569683739,284.634,29.8028,-15.7386,178.967,1.82373,-145.151,400
1569683739,284.634,29.8028,-15.7386,178.967,1.82373,-145.151,400
1569683739,284.634,29.8028,-15.7386,178.967,1.82373,-145.151,400
1569683739,284.634,29.8028,-15.7386,178.967,1.82373,-145.151,400
1569683739,284.634,29.8028,-15.7386,178.967,1.82373,-145.151,400
1569683739,284.634,29.8028,-15.7386,178.967,1.82373,-145.151,400
1569683739,284.634,29.8028,-15.7386,178.967,1.82373,-145.151,400
1569683739,284.634,29.8028,-15.7386,178.967,1.82373,-145.151,400
1569683739,284.634,29.8028,-15.7386,178.967,1.82373,-145.151,400
1569683739,284.634,29.8028,-15.7386,178.967,1.82373,-145.151,400
1569683739,284.634,29.8028,-15.7386,178.967,1.82373,-145.151,400
1569683739,284.634,29.8028,-15.7386,178.967,1.82373,-145.151,400
1569683739,284.634,29.8028,-15.7386,178.967,1.82373,-145.151,396
1569683739,284.634,29.8028,-15.7386,178.967,1.82373,-145.151,396
1569683739,284.634,29.8028,-15.7386,178.967,1.82373,-145.151,396
1569683739,284.634,29.8028,-15.7386,178.967,1.82373,-145.151,400
1569683739,284.634,29.8028,-15.7386,178.967,1.82373,-145.151,400
1569683739,284.634,29.8028,-15.7386,178.967,1.82373,-145.151,400
1569683739,284.634,29.8028,-15.7386,178.967,1.82373,-145.151,400
1569683739,284.634,29.8028,-15.7386,178.967,1.82373,-145.151,400
1569683739,284.634,29.8028,-15.7386,178.967,1.82373,-145.151,400
1569683739,284.634,29.8028,-15.7386,178.967,1.82373,-145.151,400
1569683739,284.634,29.8028,-15.7386,178.967,1.82373,-145.151,400
1569683739,284.634,29.6912,-15.7386,178.967,1.8457,-145.151,400
1569683739,284.634,29.6912,-15.7386,178.967,1.8457,-145.151,400
1569683739,284.634,29.6912,-15.7386,178.967,1.8457,-145.151,404
1569683739,284.634,29.6912,-15.7386,178.967,1.8457,-145.151,404
1569683739,284.634,29.6912,-15.7386,178.967,1.8457,-145.151,404
1569683739,284.634,29.8028,-15.7386,178.967,1.8457,-145.151,404
1569683739,284.634,29.8028,-15.7386,178.967,1.8457,-145.151,404
1569683739,284.634,29.8028,-15.7386,178.967,1.8457,-145.151,404
1569683739,284.634,29.8028,-15.7386,178.967,1.8457,-145.151,404
1569683739,284.634,29.8028,-15.627,178.967,1.8457,-145.151,404
1569683739,284.634,29.8028,-15.627,178.967,1.8457,-145.151,404
1569683739,284.634,29.8028,-15.627,178.967,1.8457,-145.151,404
1569683739,284.634,29.8028,-15.627,178.967,1.8457,-145.151,404
1569683739,284.634,29.8028,-15.627,178.967,1.8457,-145.151,400
1569683739,284.634,29.8028,-15.627,178.967,1.8457,-145.151,400
1569683739,284.634,29.8028,-15.627,178.967,1.8457,-145.151,404
1569683739,284.634,29.8028,-15.627,178.967,1.8457,-145.151,404
1569683739,284.634,29.8028,-15.627,178.967,1.8457,-145.151,404
1569683739,284.634,29.8028,-15.627,178.967,1.8457,-145.151,404
1569683739,284.634,29.8028,-15.627,178.967,1.8457,-145.151,404
1569683739,284.634,29.8028,-15.627,178.967,1.8457,-145.151,404
1569683739,284.634,29.8028,-15.627,178.967,1.8457,-145.151,404
1569683739,284.634,29.8028,-15.7386,178.967,1.8457,-145.151,404
1569683739,284.634,29.8028,-15.7386,178.967,1.8457,-145.151,404
1569683739,284.634,29.8028,-15.7386,178.967,1.8457,-145.151,404
1569683739,284.634,29.8028,-15.7386,178.967,1.8457,-145.151,404
1569683739,284.634,29.8028,-15.627,178.967,1.8457,-145.151,404
1569683739,284.634,29.8028,-15.627,178.967,1.8457,-145.151,404
1569683739,284.634,29.8028,-15.627,178.967,1.8457,-145.151,404
1569683739,284.634,29.8028,-15.627,178.967,1.8457,-145.151,404
1569683739,284.634,29.8028,-15.627,178.967,1.8457,-145.151,404
1569683739,284.634,29.8028,-15.627,178.967,1.8457,-145.151,404
1569683739,284.634,29.8028,-15.627,178.967,1.8457,-145.151,404
1569683739,284.634,29.8028,-15.627,178.989,1.8457,-145.151,404
1569683739,284.634,29.8028,-15.7386,178.989,1.8457,-145.151,404
1569683739,284.634,29.8028,-15.7386,178.989,1.8457,-145.151,404
1569683739,284.634,29.8028,-15.7386,178.989,1.8457,-145.151,404
1569683739,284.634,29.8028,-15.7386,178.989,1.8457,-145.151,404
1569683739,284.634,29.8028,-15.627,178.989,1.8457,-145.151,404
1569683739,284.634,29.8028,-15.627,178.989,1.8457,-145.151,404
1569683739,284.634,29.8028,-15.627,178.989,1.8457,-145.151,404
1569683739,284.634,29.8028,-15.627,178.989,1.8457,-145.151,404
1569683739,284.634,29.8028,-15.627,178.989,1.8457,-145.151,404
1569683739,284.634,29.8028,-15.627,178.989,1.8457,-145.151,404
1569683739,284.634,29.8028,-15.627,178.989,1.8457,-145.151,404
1569683739,284.634,29.8028,-15.627,178.989,1.8457,-145.151,404
1569683739,284.634,29.8028,-15.627,178.989,1.8457,-145.151,404
1569683739,284.634,29.8028,-15.627,178.989,1.8457,-145.151,404
1569683739,284.634,29.8028,-15.627,178.989,1.8457,-145.151,404
1569683739,284.634,29.8028,-15.627,178.989,1.8457,-145.151,404
1569683739,284.634,29.8028,-15.627,178.989,1.8457,-145.151,400
1569683739,284.634,29.8028,-15.627,178.989,1.8457,-145.151,400
1569683739,284.634,29.8028,-15.627,178.989,1.8457,-145.151,400
1569683739,284.634,29.8028,-15.627,178.989,1.8457,-145.151,400
1569683739,284.634,29.8028,-15.627,178.989,1.8457,-145.151,400
1569683739,284.634,29.8028,-15.627,178.967,1.8457,-145.151,400
1569683739,284.634,29.8028,-15.627,178.967,1.8457,-145.151,400
1569683739,284.634,29.8028,-15.7386,178.967,1.8457,-145.151,400
1569683739,284.634,29.8028,-15.7386,178.967,1.8457,-145.151,400
1569683739,284.634,29.8028,-15.7386,178.967,1.8457,-145.151,400
1569683739,284.634,29.8028,-15.7386,178.967,1.8457,-145.151,400
1569683739,284.634,29.8028,-15.7386,178.967,1.8457,-145.151,400
1569683739,284.634,29.8028,-15.7386,178.967,1.8457,-145.151,400
1569683739,284.634,29.8028,-15.7386,178.967,1.8457,-145.151,400
1569683739,284.634,29.8028,-15.7386,178.967,1.8457,-145.151,400
1569683739,284.634,29.8028,-15.7386,178.967,1.8457,-145.151,400
1569683739,284.634,29.8028,-15.7386,178.967,1.8457,-145.151,400
1569683739,284.634,29.8028,-15.7386,178.967,1.8457,-145.151,400
1569683739,284.634,29.8028,-15.7386,178.967,1.8457,-145.151,400
1569683739,284.634,29.8028,-15.7386,178.967,1.8457,-145.151,400
1569683739,284.634,29.8028,-15.7386,178.989,1.8457,-145.151,400
1569683739,284.634,29.8028,-15.7386,178.989,1.8457,-145.151,400
1569683739,284.634,29.8028,-15.7386,178.989,1.8457,-145.151,400
1569683739,284.634,29.8028,-15.7386,178.989,1.8457,-145.151,400
1569683740,284.634,29.8028,-15.7386,178.989,1.8457,-145.151,400
1569683740,284.634,29.8028,-15.627,178.989,1.8457,-145.151,400
1569683740,284.634,29.8028,-15.627,178.989,1.8457,-145.151,400
1569683740,284.634,29.8028,-15.627,178.989,1.8457,-145.151,400
1569683740,284.634,29.8028,-15.627,178.989,1.8457,-145.151,400
1569683740,284.634,29.8028,-15.627,178.989,1.8457,-145.151,400
1569683740,284.634,29.8028,-15.627,178.989,1.8457,-145.151,400
1569683740,284.634,29.8028,-15.627,178.989,1.8457,-145.151,400
1569683740,284.634,29.8028,-15.627,178.989,1.8457,-145.151,400
1569683740,284.634,29.8028,-15.627,178.989,1.8457,-145.151,400
1569683740,284.634,29.8028,-15.627,178.989,1.8457,-145.151,400
1569683740,284.634,29.8028,-15.627,178.967,1.8457,-145.151,400
1569683740,284.634,29.8028,-15.627,178.967,1.8457,-145.151,404
1569683740,284.634,29.8028,-15.627,178.967,1.8457,-145.151,404
1569683740,284.634,29.8028,-15.627,178.967,1.8457,-145.129,404
1569683740,284.634,29.8028,-15.627,178.967,1.8457,-145.129,404
1569683740,284.634,29.8028,-15.627,178.967,1.8457,-145.129,404
1569683740,284.634,29.8028,-15.627,178.967,1.8457,-145.129,404
1569683740,284.634,29.8028,-15.7386,178.967,1.8457,-145.129,404
1569683740,284.634,29.8028,-15.7386,178.967,1.8457,-145.129,404
1569683740,284.634,29.8028,-15.7386,178.967,1.8457,-145.129,404
1569683740,284.634,29.8028,-15.7386,178.967,1.8457,-145.129,404
1569683740,284.634,29.8028,-15.7386,178.967,1.8457,-145.129,404
1569683740,284.634,29.8028,-15.7386,178.967,1.8457,-145.151,404
1569683740,284.634,29.8028,-15.7386,178.967,1.8457,-145.151,404
1569683740,284.634,29.8028,-15.7386,178.967,1.8457,-145.151,404
1569683740,284.634,29.8028,-15.7386,178.967,1.8457,-145.151,404
1569683740,284.634,29.8028,-15.7386,178.967,1.8457,-145.151,404
1569683740,284.634,29.8028,-15.7386,178.967,1.8457,-145.151,404
1569683740,284.634,29.8028,-15.7386,178.967,1.8457,-145.151,404
1569683740,284.634,29.8028,-15.7386,178.967,1.8457,-145.151,404
1569683740,284.634,29.8028,-15.7386,178.967,1.8457,-145.151,404
1569683740,284.634,29.8028,-15.7386,178.967,1.8457,-145.151,404
1569683740,284.634,29.8028,-15.7386,178.967,1.8457,-145.151,404
1569683740,284.634,29.8028,-15.7386,178.967,1.8457,-145.151,404
1569683740,284.634,29.8028,-15.7386,178.967,1.82373,-145.151,404
1569683740,284.634,29.8028,-15.7386,178.967,1.82373,-145.151,404
1569683740,284.634,29.8028,-15.7386,178.967,1.82373,-145.151,404
1569683740,284.634,29.8028,-15.7386,178.967,1.82373,-145.151,404
1569683740,284.634,29.8028,-15.7386,178.967,1.82373,-145.151,404
1569683740,284.634,29.8028,-15.7386,178.967,1.82373,-145.151,404
1569683740,284.634,29.8028,-15.7386,178.967,1.82373,-145.151,404
1569683740,284.634,29.8028,-15.7386,178.967,1.82373,-145.151,404
1569683740,284.634,29.8028,-15.7386,178.967,1.82373,-145.151,404
1569683740,284.634,29.8028,-15.7386,178.967,1.82373,-145.151,404
1569683740,284.634,29.8028,-15.7386,178.967,1.82373,-145.151,404
1569683740,284.634,29.8028,-15.7386,178.967,1.82373,-145.151,404
1569683740,284.634,29.8028,-15.7386,178.967,1.82373,-145.151,404
1569683740,284.634,29.8028,-15.7386,178.967,1.82373,-145.151,404
1569683740,284.634,29.8028,-15.7386,178.967,1.82373,-145.151,404
1569683740,284.634,29.8028,-15.7386,178.967,1.82373,-145.151,404
1569683740,284.634,29.8028,-15.7386,178.967,1.82373,-145.151,404
1569683740,284.634,29.8028,-15.7386,178.967,1.82373,-145.151,404
1569683740,284.634,29.8028,-15.7386,178.967,1.82373,-145.151,404
1569683740,284.634,29.8028,-15.7386,178.967,1.82373,-145.151,404
1569683740,284.634,29.8028,-15.7386,178.967,1.82373,-145.151,404
1569683740,284.634,29.8028,-15.7386,178.989,1.82373,-145.151,404
1569683740,284.634,29.8028,-15.7386,178.989,1.82373,-145.151,404
1569683740,284.634,29.8028,-15.7386,178.989,1.82373,-145.151,404
1569683740,284.634,29.8028,-15.7386,178.989,1.82373,-145.151,404
1569683740,284.634,29.8028,-15.7386,178.989,1.82373,-145.151,404
1569683740,284.634,29.8028,-15.7386,178.989,1.82373,-145.151,404
1569683740,284.634,29.8028,-15.7386,178.989,1.82373,-145.151,404
1569683740,284.634,29.8028,-15.7386,178.989,1.82373,-145.151,408
1569683740,284.634,29.8028,-15.7386,178.989,1.82373,-145.151,408
1569683740,284.634,29.8028,-15.7386,178.967,1.82373,-145.151,408
1569683740,284.634,29.8028,-15.7386,178.967,1.82373,-145.151,408
1569683740,284.634,29.8028,-15.7386,178.967,1.82373,-145.151,408
1569683740,284.634,29.8028,-15.7386,178.967,1.82373,-145.151,408
1569683740,284.634,29.8028,-15.7386,178.967,1.82373,-145.151,408
1569683740,284.634,29.8028,-15.7386,178.967,1.82373,-145.151,408
1569683740,284.634,29.8028,-15.7386,178.967,1.82373,-145.151,408
1569683740,284.634,29.8028,-15.7386,178.967,1.82373,-145.151,408
1569683740,284.634,29.8028,-15.7386,178.967,1.82373,-145.151,408
1569683740,284.634,29.8028,-15.7386,178.967,1.82373,-145.151,408
1569683740,284.634,29.8028,-15.7386,178.967,1.82373,-145.151,408
1569683740,284.634,29.8028,-15.7386,178.967,1.82373,-145.151,408
1569683740,284.634,29.8028,-15.7386,178.967,1.82373,-145.151,408
1569683740,284.634,29.8028,-15.7386,178.967,1.8457,-145.151,408
1569683740,284.634,29.8028,-15.7386,178.967,1.8457,-145.151,408
1569683740,284.634,29.8028,-15.7386,178.967,1.8457,-145.151,408
1569683740,284.634,29.8028,-15.7386,178.967,1.8457,-145.151,408
1569683740,284.634,29.8028,-15.7386,178.967,1.8457,-145.151,408
1569683740,284.634,29.8028,-15.7386,178.967,1.8457,-145.151,404
1569683740,284.634,29.8028,-15.7386,178.967,1.8457,-145.151,404
1569683740,284.634,29.8028,-15.7386,178.967,1.8457,-145.151,404
1569683740,284.634,29.8028,-15.7386,178.967,1.8457,-145.151,404
1569683740,284.634,29.8028,-15.7386,178.967,1.8457,-145.151,404
1569683740,284.634,29.8028,-15.7386,178.967,1.8457,-145.151,404
1569683740,284.634,29.8028,-15.7386,178.967,1.8457,-145.151,404
1569683740,284.634,29.8028,-15.7386,178.967,1.8457,-145.151,404
1569683740,284.634,29.8028,-15.7386,178.967,1.8457,-145.151,404
1569683740,284.634,29.8028,-15.7386,178.967,1.8457,-145.151,404
1569683740,284.634,29.8028,-15.7386,178.967,1.8457,-145.151,404
1569683740,284.634,29.8028,-15.7386,178.967,1.8457,-145.151,404
1569683740,284.634,29.8028,-15.7386,178.967,1.8457,-145.151,404
1569683740,284.634,29.8028,-15.7386,178.967,1.8457,-145.151,404
1569683740,284.634,29.8028,-15.7386,178.967,1.8457,-145.151,404
1569683740,284.634,29.8028,-15.7386,178.967,1.8457,-145.151,404
1569683740,284.634,29.8028,-15.7386,178.967,1.8457,-145.151,404
1569683741,284.634,29.8028,-15.7386,178.989,1.8457,-145.151,404
1569683741,284.634,29.8028,-15.7386,178.989,1.8457,-145.151,404
1569683741,284.634,29.8028,-15.7386,178.989,1.8457,-145.151,404
1569683741,284.634,29.8028,-15.7386,178.989,1.8457,-145.129,400
1569683741,284.634,29.8028,-15.7386,178.989,1.8457,-145.129,400
1569683741,284.634,29.8028,-15.7386,178.989,1.8457,-145.129,400
1569683741,284.634,29.8028,-15.7386,178.989,1.8457,-145.129,400
1569683741,284.634,29.8028,-15.7386,178.989,1.8457,-145.151,400
1569683741,284.634,29.8028,-15.7386,178.967,1.8457,-145.151,400
1569683741,284.634,29.8028,-15.7386,178.967,1.8457,-145.151,400
1569683741,284.634,29.8028,-15.7386,178.967,1.8457,-145.151,400
1569683741,284.634,29.8028,-15.7386,178.967,1.8457,-145.151,400
1569683741,284.634,29.8028,-15.7386,178.967,1.8457,-145.151,400
1569683741,284.634,29.8028,-15.7386,178.967,1.8457,-145.151,400
1569683741,284.634,29.8028,-15.7386,178.967,1.8457,-145.151,400
1569683741,284.634,29.8028,-15.7386,178.967,1.8457,-145.151,400
1569683741,284.634,29.8028,-15.7386,178.967,1.8457,-145.151,400
1569683741,284.634,29.8028,-15.7386,178.967,1.8457,-145.151,400
1569683741,284.634,29.8028,-15.7386,178.967,1.8457,-145.151,400
1569683741,284.634,29.8028,-15.7386,178.967,1.8457,-145.151,400
1569683741,284.634,29.8028,-15.7386,178.989,1.8457,-145.151,400
1569683741,284.634,29.8028,-15.7386,178.989,1.8457,-145.151,400
1569683741,284.634,29.8028,-15.7386,178.989,1.8457,-145.151,400
1569683741,284.634,29.8028,-15.7386,178.989,1.8457,-145.151,400
1569683741,284.634,29.8028,-15.7386,178.989,1.8457,-145.151,400
1569683741,284.634,29.8028,-15.7386,178.989,1.8457,-145.151,404
1569683741,284.634,29.8028,-15.7386,178.989,1.8457,-145.151,404
1569683741,284.634,29.8028,-15.7386,178.989,1.8457,-145.151,404
1569683741,284.634,29.8028,-15.7386,178.989,1.82373,-145.151,404
1569683741,284.634,29.8028,-15.7386,178.989,1.82373,-145.129,404
1569683741,284.634,29.8028,-15.7386,178.989,1.82373,-145.129,404
1569683741,284.634,29.8028,-15.7386,178.989,1.82373,-145.129,404
1569683741,284.634,29.8028,-15.7386,178.989,1.82373,-145.129,404
1569683741,284.634,29.8028,-15.7386,178.989,1.82373,-145.129,404
1569683741,284.634,29.8028,-15.7386,178.989,1.82373,-145.129,404
1569683741,284.634,29.8028,-15.7386,178.989,1.82373,-145.129,404
1569683741,284.634,29.8028,-15.7386,178.989,1.82373,-145.129,404
1569683741,284.634,29.8028,-15.7386,178.989,1.82373,-145.129,404
1569683741,284.634,29.8028,-15.7386,178.989,1.82373,-145.129,404
1569683741,284.634,29.8028,-15.7386,178.989,1.82373,-145.129,404
1569683741,284.634,29.8028,-15.7386,178.989,1.82373,-145.129,404
1569683741,284.634,29.8028,-15.7386,178.989,1.82373,-145.129,404
1569683741,284.634,29.8028,-15.7386,178.967,1.82373,-145.129,404
1569683741,284.634,29.8028,-15.7386,178.967,1.82373,-145.129,404
1569683741,284.634,29.8028,-15.7386,178.967,1.82373,-145.129,404
1569683741,284.634,29.8028,-15.7386,178.967,1.82373,-145.129,404
1569683741,284.634,29.8028,-15.7386,178.967,1.82373,-145.129,404
1569683741,284.634,29.8028,-15.7386,178.967,1.82373,-145.129,404
1569683741,284.634,29.8028,-15.7386,178.967,1.82373,-145.129,404
1569683741,284.634,29.8028,-15.7386,178.967,1.82373,-145.129,404
1569683741,284.634,29.8028,-15.7386,178.967,1.82373,-145.129,404
1569683741,284.634,29.8028,-15.7386,178.967,1.82373,-145.129,404
1569683741,284.634,29.8028,-15.7386,178.967,1.82373,-145.129,404
1569683741,284.634,29.8028,-15.7386,178.967,1.82373,-145.151,404
1569683741,284.634,29.8028,-15.7386,178.967,1.8457,-145.151,404
1569683741,284.634,29.8028,-15.7386,178.967,1.8457,-145.151,404
1569683741,284.634,29.8028,-15.7386,178.967,1.8457,-145.151,404
1569683741,284.634,29.8028,-15.7386,178.967,1.8457,-145.151,404
1569683741,284.634,29.8028,-15.7386,178.967,1.8457,-145.151,404
1569683741,284.634,29.8028,-15.7386,178.967,1.8457,-145.151,404
1569683741,284.634,29.8028,-15.7386,178.967,1.8457,-145.151,404
1569683741,284.634,29.8028,-15.7386,178.967,1.8457,-145.151,404
1569683741,284.634,29.8028,-15.7386,178.967,1.8457,-145.151,404
1569683741,284.634,29.8028,-15.7386,178.967,1.8457,-145.151,404
1569683741,284.634,29.8028,-15.7386,178.967,1.8457,-145.151,404
1569683741,284.634,29.8028,-15.7386,178.967,1.8457,-145.151,404
1569683741,284.634,29.6912,-15.7386,178.967,1.8457,-145.151,404
1569683741,284.634,29.6912,-15.7386,178.967,1.8457,-145.151,404
1569683741,284.634,29.6912,-15.7386,178.967,1.8457,-145.151,404
1569683741,284.634,29.6912,-15.7386,178.967,1.8457,-145.151,404
1569683741,284.634,29.6912,-15.7386,178.967,1.8457,-145.151,404
1569683741,284.634,29.6912,-15.7386,178.967,1.8457,-145.151,404
1569683741,284.634,29.8028,-15.7386,178.967,1.8457,-145.151,404
1569683741,284.634,29.8028,-15.7386,178.967,1.8457,-145.151,404
1569683741,284.634,29.8028,-15.7386,178.967,1.8457,-145.151,404
1569683741,284.634,29.8028,-15.7386,178.967,1.8457,-145.151,400
1569683741,284.634,29.8028,-15.7386,178.967,1.8457,-145.151,400
1569683741,284.634,29.8028,-15.7386,178.967,1.8457,-145.151,400
1569683741,284.634,29.8028,-15.7386,178.967,1.8457,-145.151,400
1569683741,284.634,29.8028,-15.7386,178.967,1.8457,-145.151,400
1569683741,284.634,29.8028,-15.7386,178.967,1.8457,-145.151,400
1569683741,284.634,29.8028,-15.7386,178.967,1.8457,-145.151,400
1569683741,284.634,29.8028,-15.7386,178.967,1.8457,-145.151,400
1569683741,284.634,29.8028,-15.7386,178.967,1.8457,-145.151,400
1569683741,284.634,29.8028,-15.7386,178.967,1.8457,-145.151,400
1569683741,284.634,29.8028,-15.7386,178.967,1.8457,-145.151,400
1569683741,284.634,29.8028,-15.7386,178.967,1.8457,-145.151,400
1569683741,284.634,29.8028,-15.7386,178.967,1.8457,-145.151,400
1569683741,284.634,29.8028,-15.7386,178.967,1.8457,-145.151,400
1569683741,284.634,29.8028,-15.7386,178.967,1.8457,-145.151,400
1569683741,284.634,29.8028,-15.7386,178.967,1.8457,-145.151,400
1569683741,284.634,29.8028,-15.7386,178.989,1.8457,-145.151,404
1569683741,284.634,29.8028,-15.7386,178.989,1.8457,-145.151,404
1569683741,284.634,29.8028,-15.7386,178.989,1.8457,-145.151,404
1569683741,284.634,29.8028,-15.7386,178.989,1.8457,-145.151,404
1569683741,284.634,29.8028,-15.7386,178.989,1.8457,-145.151,404
1569683741,284.634,29.8028,-15.7386,178.989,1.8457,-145.151,404
1569683741,284.634,29.8028,-15.7386,178.989,1.8457,-145.151,404
1569683741,284.634,29.8028,-15.7386,178.989,1.8457,-145.151,404
1569683741,284.634,29.8028,-15.7386,178.989,1.82373,-145.151,408
1569683748,299.926,13.3945,-15.5153,179.099,1.66992,-144.69,416
1569683748,299.926,13.3945,-15.5153,179.121,1.66992,-144.668,416
1569683748,299.926,13.3945,-15.5153,179.099,1.66992,-144.668,420
1569683748,299.926,13.3945,-15.5153,179.099,1.66992,-144.668,420
1569683748,299.926,13.3945,-15.627,179.099,1.66992,-144.668,420
1569683748,299.926,13.3945,-15.627,179.099,1.66992,-144.668,420
1569683748,299.926,13.3945,-15.627,179.099,1.66992,-144.668,420
1569683748,299.926,13.3945,-15.627,179.099,1.66992,-144.668,420
1569683748,299.926,13.3945,-15.627,179.099,1.66992,-144.668,420
1569683749,299.926,13.3945,-15.627,179.099,1.66992,-144.668,420
1569683749,299.926,13.3945,-15.627,179.099,1.66992,-144.668,420
1569683749,299.926,13.3945,-15.627,179.099,1.66992,-144.668,420
1569683749,299.926,13.3945,-15.627,179.099,1.66992,-144.668,420
1569683749,299.926,13.3945,-15.627,179.099,1.66992,-144.668,420
1569683749,299.926,13.3945,-15.5153,179.099,1.66992,-144.668,420
1569683749,299.926,13.3945,-15.5153,179.099,1.69189,-144.668,420
1569683749,299.926,13.3945,-15.5153,179.099,1.69189,-144.668,420
1569683749,299.926,13.3945,-15.5153,179.099,1.69189,-144.668,420
1569683749,299.926,13.3945,-15.5153,179.099,1.69189,-144.668,420
1569683749,299.926,13.3945,-15.5153,179.099,1.69189,-144.668,420
1569683749,299.926,13.3945,-15.5153,179.099,1.69189,-144.668,416
1569683749,299.926,13.3945,-15.5153,179.099,1.69189,-144.668,416
1569683749,299.926,13.3945,-15.5153,179.099,1.69189,-144.668,416
1569683749,299.926,13.3945,-15.5153,179.099,1.69189,-144.668,416
1569683749,299.926,13.3945,-15.5153,179.099,1.69189,-144.668,416
1569683749,299.926,13.3945,-15.5153,179.099,1.69189,-144.668,416
1569683749,299.926,13.3945,-15.5153,179.099,1.69189,-144.668,420
1569683749,299.926,13.3945,-15.5153,179.099,1.69189,-144.668,420
1569683749,299.926,13.3945,-15.5153,179.099,1.69189,-144.668,420
1569683749,299.926,13.3945,-15.5153,179.099,1.69189,-144.668,420
1569683749,299.926,13.3945,-15.5153,179.099,1.66992,-144.668,420
1569683749,299.926,13.3945,-15.5153,179.099,1.66992,-144.668,420
1569683749,299.926,13.3945,-15.5153,179.099,1.66992,-144.668,420
1569683749,299.814,13.3945,-15.5153,179.099,1.66992,-144.668,420
1569683749,299.814,13.3945,-15.5153,179.099,1.66992,-144.668,420
1569683749,299.814,13.3945,-15.5153,179.099,1.66992,-144.668,420
1569683749,299.814,13.3945,-15.5153,179.099,1.66992,-144.668,420
1569683749,299.814,13.3945,-15.5153,179.099,1.66992,-144.668,420
1569683749,299.814,13.3945,-15.5153,179.099,1.66992,-144.668,420
1569683749,299.814,13.3945,-15.5153,179.099,1.66992,-144.668,420
1569683749,299.814,13.3945,-15.5153,179.099,1.66992,-144.668,420
1569683749,299.814,13.3945,-15.5153,179.099,1.66992,-144.668,420
1569683749,299.814,13.3945,-15.5153,179.121,1.69189,-144.668,420
1569683749,299.814,13.3945,-15.5153,179.121,1.69189,-144.668,420
1569683749,299.814,13.3945,-15.5153,179.121,1.69189,-144.668,420
1569683749,299.814,13.3945,-15.5153,179.121,1.69189,-144.668,420
1569683749,299.814,13.3945,-15.5153,179.121,1.69189,-144.668,420
1569683749,299.814,13.3945,-15.5153,179.121,1.69189,-144.668,420
1569683749,299.814,13.5062,-15.5153,179.121,1.69189,-144.668,420
1569683749,299.814,13.5062,-15.5153,179.121,1.69189,-144.668,420
1569683749,299.814,13.5062,-15.5153,179.121,1.69189,-144.668,420
1569683749,299.926,13.5062,-15.5153,179.121,1.69189,-144.668,420
1569683749,299.926,13.5062,-15.5153,179.121,1.69189,-144.668,420
1569683749,299.926,13.5062,-15.5153,179.121,1.69189,-144.668,420
1569683749,299.926,13.5062,-15.5153,179.121,1.69189,-144.668,420
1569683749,299.926,13.5062,-15.5153,179.121,1.69189,-144.668,420
1569683749,299.926,13.5062,-15.5153,179.121,1.69189,-144.668,420
1569683749,299.926,13.5062,-15.5153,179.121,1.69189,-144.668,420
1569683749,299.926,13.3945,-15.5153,179.121,1.69189,-144.668,416
1569683749,299.926,13.3945,-15.5153,179.121,1.69189,-144.668,416
1569683749,299.926,13.3945,-15.5153,179.121,1.69189,-144.668,416
1569683749,299.926,13.3945,-15.5153,179.121,1.69189,-144.668,416
1569683749,299.926,13.3945,-15.5153,179.121,1.69189,-144.668,416
1569683749,299.926,13.3945,-15.5153,179.121,1.69189,-144.668,416
1569683749,299.926,13.3945,-15.5153,179.121,1.69189,-144.668,416
1569683749,299.926,13.3945,-15.5153,179.121,1.69189,-144.668,416
1569683749,299.926,13.3945,-15.5153,179.121,1.69189,-144.668,416
1569683749,299.926,13.3945,-15.5153,179.121,1.69189,-144.668,416
1569683749,299.926,13.3945,-15.5153,179.121,1.69189,-144.668,416
1569683749,299.926,13.3945,-15.5153,179.121,1.69189,-144.668,412
1569683749,299.926,13.3945,-15.5153,179.121,1.69189,-144.668,412
1569683749,299.926,13.3945,-15.5153,179.121,1.69189,-144.668,412
1569683749,299.926,13.3945,-15.5153,179.121,1.69189,-144.668,412
1569683749,299.926,13.3945,-15.5153,179.121,1.69189,-144.668,412
1569683749,299.926,13.3945,-15.5153,179.121,1.69189,-144.668,412
1569683749,299.926,13.3945,-15.5153,179.121,1.69189,-144.668,412
1569683749,299.926,13.3945,-15.5153,179.121,1.69189,-144.668,412
1569683749,299.926,13.3945,-15.5153,179.121,1.69189,-144.668,412
1569683749,299.926,13.3945,-15.5153,179.099,1.69189,-144.668,412
1569683749,299.926,13.3945,-15.5153,179.099,1.69189,-144.668,412
1569683749,299.926,13.3945,-15.5153,179.099,1.69189,-144.668,412
1569683749,299.926,13.3945,-15.5153,179.099,1.69189,-144.668,412
1569683749,299.926,13.3945,-15.5153,179.099,1.69189,-144.668,412
1569683749,299.926,13.3945,-15.5153,179.099,1.69189,-144.668,408
1569683749,299.926,13.3945,-15.5153,179.099,1.69189,-144.668,408
1569683749,299.926,13.3945,-15.5153,179.099,1.69189,-144.668,408
1569683749,299.926,13.3945,-15.5153,179.099,1.69189,-144.668,412
1569683749,299.926,13.3945,-15.5153,179.099,1.69189,-144.668,412
1569683749,299.926,13.3945,-15.5153,179.099,1.69189,-144.668,412
1569683749,299.926,13.3945,-15.5153,179.099,1.66992,-144.668,412
1569683749,299.926,13.3945,-15.5153,179.099,1.66992,-144.668,412
1569683749,299.926,13.3945,-15.5153,179.099,1.66992,-144.668,412
1569683749,299.926,13.3945,-15.5153,179.099,1.66992,-144.668,412
1569683749,299.926,13.3945,-15.5153,179.099,1.66992,-144.668,412
1569683749,299.926,13.3945,-15.5153,179.099,1.66992,-144.668,412
1569683749,299.926,13.3945,-15.5153,179.099,1.69189,-144.668,412
1569683749,299.926,13.3945,-15.5153,179.099,1.69189,-144.668,412
1569683749,299.926,13.3945,-15.5153,179.099,1.69189,-144.668,412
1569683749,299.926,13.3945,-15.5153,179.099,1.69189,-144.668,412
1569683749,299.926,13.3945,-15.5153,179.099,1.69189,-144.668,416
1569683749,299.926,13.3945,-15.5153,179.099,1.69189,-144.668,416
1569683749,299.926,13.3945,-15.5153,179.099,1.69189,-144.668,416
1569683749,299.926,13.3945,-15.5153,179.099,1.69189,-144.668,416
1569683749,299.926,13.3945,-15.5153,179.099,1.69189,-144.668,416
1569683749,299.926,13.3945,-15.5153,179.099,1.69189,-144.668,412
1569683749,299.926,13.3945,-15.5153,179.099,1.69189,-144.668,412
1569683749,299.926,13.3945,-15.5153,179.099,1.69189,-144.668,412
1569683749,299.926,13.3945,-15.5153,179.099,1.69189,-144.668,412
1569683749,299.926,13.3945,-15.5153,179.099,1.69189,-144.668,416
1569683750,299.926,13.3945,-15.5153,179.099,1.69189,-144.668,416
1569683750,299.926,13.3945,-15.5153,179.099,1.69189,-144.668,416
1569683750,299.926,13.3945,-15.5153,179.099,1.69189,-144.668,416
1569683750,299.926,13.3945,-15.5153,179.099,1.66992,-144.668,416
1569683750,299.926,13.3945,-15.5153,179.099,1.66992,-144.668,416
1569683750,299.926,13.3945,-15.5153,179.099,1.66992,-144.668,416
1569683750,299.926,13.3945,-15.5153,179.099,1.66992,-144.668,416
1569683750,299.926,13.3945,-15.5153,179.099,1.66992,-144.668,416
1569683750,299.926,13.3945,-15.5153,179.099,1.66992,-144.668,416
1569683750,299.926,13.3945,-15.5153,179.099,1.66992,-144.668,416
1569683750,299.926,13.3945,-15.5153,179.099,1.66992,-144.668,416
1569683750,299.926,13.3945,-15.5153,179.099,1.66992,-144.668,416
1569683750,299.926,13.3945,-15.5153,179.099,1.66992,-144.668,416
1569683750,299.926,13.3945,-15.5153,179.099,1.66992,-144.668,416
1569683750,299.926,13.3945,-15.5153,179.099,1.69189,-144.668,416
1569683750,299.926,13.3945,-15.5153,179.099,1.69189,-144.668,416
1569683750,299.926,13.3945,-15.5153,179.099,1.69189,-144.668,416
1569683750,299.926,13.3945,-15.5153,179.099,1.69189,-144.668,416
1569683750,299.926,13.3945,-15.5153,179.099,1.69189,-144.668,416
1569683750,299.926,13.3945,-15.5153,179.099,1.69189,-144.668,416
1569683750,299.926,13.3945,-15.5153,179.099,1.69189,-144.668,416
1569683750,299.926,13.3945,-15.5153,179.099,1.69189,-144.668,416
1569683750,299.926,13.3945,-15.5153,179.099,1.69189,-144.668,420
1569683750,299.926,13.3945,-15.5153,179.099,1.69189,-144.668,420
1569683750,299.926,13.3945,-15.5153,179.099,1.69189,-144.668,420
1569683750,299.926,13.3945,-15.5153,179.099,1.69189,-144.668,420
1569683750,299.926,13.3945,-15.5153,179.099,1.69189,-144.668,420
1569683750,299.926,13.3945,-15.5153,179.099,1.69189,-144.668,420
1569683750,299.926,13.3945,-15.5153,179.099,1.69189,-144.668,420
1569683750,299.926,13.3945,-15.5153,179.099,1.69189,-144.668,420
1569683750,299.926,13.3945,-15.5153,179.099,1.69189,-144.668,420
1569683750,299.926,13.3945,-15.5153,179.099,1.69189,-144.668,424
1569683750,299.926,13.3945,-15.5153,179.099,1.69189,-144.668,424
1569683750,299.926,13.3945,-15.5153,179.099,1.69189,-144.668,424
1569683750,299.926,13.3945,-15.5153,179.099,1.69189,-144.668,424
1569683750,299.814,13.3945,-15.5153,179.099,1.69189,-144.668,424
1569683750,299.814,13.3945,-15.5153,179.099,1.69189,-144.668,424
1569683750,299.814,13.3945,-15.5153,179.099,1.69189,-144.668,424
1569683750,299.814,13.3945,-15.5153,179.099,1.69189,-144.668,424
1569683750,299.814,13.3945,-15.5153,179.099,1.69189,-144.668,424
1569683750,299.814,13.3945,-15.5153,179.099,1.69189,-144.668,424
1569683750,299.814,13.3945,-15.5153,179.099,1.69189,-144.668,424
1569683750,299.814,13.3945,-15.5153,179.099,1.69189,-144.668,424
1569683750,299.814,13.3945,-15.5153,179.099,1.69189,-144.668,424
1569683750,299.814,13.3945,-15.5153,179.099,1.69189,-144.668,424
1569683750,299.814,13.3945,-15.5153,179.099,1.69189,-144.668,420
1569683750,299.814,13.3945,-15.5153,179.099,1.69189,-144.668,420
1569683750,299.814,13.3945,-15.5153,179.099,1.69189,-144.668,420
1569683750,299.814,13.3945,-15.5153,179.099,1.69189,-144.668,420
1569683750,299.814,13.3945,-15.5153,179.099,1.69189,-144.668,420
1569683750,299.814,13.3945,-15.5153,179.099,1.69189,-144.668,420
1569683750,299.814,13.3945,-15.5153,179.099,1.69189,-144.668,420
1569683750,299.814,13.3945,-15.5153,179.099,1.69189,-144.668,420
1569683750,299.814,13.3945,-15.5153,179.099,1.69189,-144.668,420
1569683750,299.814,13.3945,-15.5153,179.099,1.69189,-144.668,420
1569683750,299.814,13.3945,-15.5153,179.099,1.69189,-144.668,420
1569683750,299.814,13.3945,-15.5153,179.099,1.69189,-144.668,420
1569683750,299.814,13.3945,-15.5153,179.099,1.69189,-144.668,420
1569683750,299.814,13.3945,-15.5153,179.099,1.66992,-144.668,420
1569683750,299.814,13.3945,-15.5153,179.099,1.66992,-144.668,420
1569683750,299.814,13.3945,-15.5153,179.099,1.69189,-144.668,420
1569683750,299.926,13.3945,-15.5153,179.099,1.69189,-144.668,420
1569683750,299.926,13.3945,-15.5153,179.099,1.66992,-144.668,420
1569683750,299.926,13.3945,-15.5153,179.099,1.66992,-144.668,420
1569683750,299.926,13.3945,-15.5153,179.099,1.66992,-144.668,420
1569683750,299.926,13.3945,-15.5153,179.099,1.66992,-144.668,420
1569683750,299.926,13.3945,-15.5153,179.099,1.66992,-144.668,420
1569683750,299.926,13.3945,-15.5153,179.099,1.66992,-144.668,420
1569683750,299.926,13.3945,-15.5153,179.099,1.66992,-144.668,420
1569683750,299.926,13.3945,-15.5153,179.099,1.66992,-144.668,420
1569683750,299.926,13.3945,-15.5153,179.099,1.66992,-144.668,420
1569683750,299.926,13.3945,-15.5153,179.099,1.66992,-144.668,416
1569683750,299.926,13.3945,-15.5153,179.099,1.66992,-144.668,416
1569683750,299.926,13.3945,-15.5153,179.099,1.66992,-144.668,416
1569683750,299.926,13.3945,-15.5153,179.099,1.66992,-144.668,416
1569683750,299.926,13.3945,-15.5153,179.099,1.66992,-144.668,416
1569683750,299.926,13.3945,-15.5153,179.099,1.66992,-144.668,416
1569683750,299.926,13.3945,-15.5153,179.099,1.66992,-144.668,412
1569683750,299.814,13.3945,-15.5153,179.099,1.66992,-144.668,412
1569683750,299.814,13.3945,-15.5153,179.099,1.66992,-144.668,412
1569683750,299.814,13.3945,-15.5153,179.099,1.66992,-144.668,412
1569683750,299.814,13.3945,-15.5153,179.099,1.66992,-144.668,412
1569683750,299.814,13.3945,-15.5153,179.099,1.66992,-144.668,416
1569683750,299.814,13.3945,-15.5153,179.099,1.66992,-144.668,416
1569683750,299.814,13.3945,-15.5153,179.099,1.66992,-144.668,416
1569683750,299.814,13.3945,-15.5153,179.099,1.66992,-144.69,416
1569683750,299.814,13.3945,-15.5153,179.099,1.66992,-144.69,416
1569683750,299.814,13.3945,-15.5153,179.099,1.66992,-144.69,416
1569683750,299.814,13.3945,-15.5153,179.099,1.66992,-144.69,416
1569683750,299.814,13.3945,-15.5153,179.099,1.66992,-144.69,416
1569683750,299.814,13.3945,-15.5153,179.099,1.66992,-144.69,416
1569683750,299.814,13.3945,-15.5153,179.099,1.66992,-144.69,420
1569683750,299.814,13.3945,-15.5153,179.099,1.69189,-144.69,420
1569683750,299.814,13.3945,-15.5153,179.099,1.69189,-144.69,420
1569683750,299.814,13.3945,-15.5153,179.099,1.69189,-144.69,420
1569683750,299.814,13.3945,-15.5153,179.099,1.69189,-144.668,420
1569683750,299.814,13.3945,-15.5153,179.099,1.69189,-144.668,420
1569683750,299.814,13.3945,-15.5153,179.099,1.69189,-144.668,420
1569683750,299.814,13.3945,-15.5153,179.099,1.69189,-144.668,416
1569683750,299.814,13.3945,-15.5153,179.099,1.69189,-144.668,416
1569683751,299.926,13.3945,-15.5153,179.099,1.69189,-144.668,416
1569683751,299.926,13.3945,-15.5153,179.099,1.69189,-144.668,416
1569683751,299.926,13.3945,-15.5153,179.099,1.69189,-144.668,416
1569683751,299.926,13.3945,-15.5153,179.099,1.69189,-144.668,416
1569683751,299.926,13.3945,-15.5153,179.099,1.66992,-144.668,416
1569683751,299.926,13.3945,-15.5153,179.099,1.66992,-144.668,416
1569683751,299.926,13.3945,-15.5153,179.099,1.66992,-144.668,416
1569683751,299.926,13.3945,-15.5153,179.099,1.66992,-144.668,416
1569683751,299.814,13.3945,-15.5153,179.099,1.66992,-144.668,416
1569683751,299.814,13.3945,-15.5153,179.099,1.66992,-144.668,416
1569683751,299.814,13.3945,-15.5153,179.099,1.66992,-144.668,416
1569683751,299.814,13.3945,-15.5153,179.099,1.66992,-144.668,416
1569683751,299.814,13.3945,-15.5153,179.099,1.66992,-144.668,416
1569683751,299.814,13.3945,-15.5153,179.099,1.66992,-144.668,416
1569683751,299.814,13.3945,-15.5153,179.099,1.66992,-144.668,416
1569683751,299.814,13.3945,-15.5153,179.099,1.66992,-144.668,416
1569683751,299.814,13.3945,-15.5153,179.099,1.66992,-144.668,416
1569683751,299.814,13.3945,-15.5153,179.099,1.69189,-144.668,416
1569683751,299.814,13.3945,-15.5153,179.099,1.69189,-144.668,416
1569683751,299.814,13.3945,-15.5153,179.099,1.69189,-144.668,416
1569683751,299.814,13.3945,-15.5153,179.099,1.69189,-144.668,416
1569683751,299.814,13.3945,-15.5153,179.099,1.69189,-144.668,416
1569683751,299.814,13.3945,-15.5153,179.099,1.69189,-144.668,416
1569683751,299.814,13.3945,-15.5153,179.099,1.69189,-144.668,416
1569683751,299.814,13.3945,-15.5153,179.099,1.69189,-144.668,416
1569683751,299.814,13.3945,-15.5153,179.099,1.69189,-144.668,416
1569683751,299.814,13.3945,-15.5153,179.099,1.69189,-144.668,416
1569683751,299.814,13.3945,-15.5153,179.099,1.69189,-144.668,416
1569683751,299.814,13.3945,-15.5153,179.099,1.69189,-144.668,416
1569683751,299.814,13.3945,-15.5153,179.099,1.69189,-144.668,416
1569683751,299.814,13.3945,-15.5153,179.099,1.69189,-144.668,416
1569683751,299.814,13.3945,-15.5153,179.099,1.69189,-144.668,420
1569683751,299.814,13.3945,-15.5153,179.099,1.69189,-144.668,420
1569683751,299.814,13.3945,-15.5153,179.099,1.69189,-144.668,420
1569683751,299.814,13.3945,-15.5153,179.099,1.69189,-144.668,420
1569683751,299.814,13.3945,-15.5153,179.099,1.69189,-144.668,420
1569683751,299.814,13.3945,-15.5153,179.099,1.69189,-144.668,420
1569683751,299.814,13.3945,-15.5153,179.099,1.69189,-144.668,420
1569683751,299.814,13.3945,-15.5153,179.099,1.69189,-144.668,420
1569683751,299.814,13.3945,-15.5153,179.099,1.69189,-144.668,420
1569683751,299.814,13.3945,-15.5153,179.099,1.69189,-144.668,424
1569683751,299.814,13.3945,-15.5153,179.099,1.66992,-144.668,424
1569683751,299.814,13.3945,-15.5153,179.099,1.66992,-144.668,424
1569683751,299.814,13.3945,-15.5153,179.121,1.66992,-144.668,424
1569683751,299.814,13.3945,-15.5153,179.121,1.66992,-144.668,424
1569683751,299.814,13.3945,-15.5153,179.121,1.66992,-144.668,424
1569683751,299.814,13.3945,-15.5153,179.121,1.66992,-144.668,424
1569683751,299.814,13.3945,-15.5153,179.121,1.66992,-144.668,424
1569683751,299.814,13.3945,-15.5153,179.121,1.66992,-144.668,424
1569683751,299.814,13.3945,-15.5153,179.121,1.66992,-144.668,424
1569683751,299.814,13.3945,-15.5153,179.121,1.66992,-144.668,424
1569683751,299.814,13.3945,-15.627,179.121,1.66992,-144.668,424
1569683751,299.926,13.3945,-15.627,179.121,1.66992,-144.668,424
1569683751,299.926,13.3945,-15.627,179.121,1.66992,-144.668,424
1569683751,299.926,13.3945,-15.627,179.121,1.66992,-144.668,424
1569683751,299.926,13.3945,-15.627,179.121,1.66992,-144.668,424
1569683751,299.814,13.3945,-15.627,179.121,1.66992,-144.668,424
1569683751,299.814,13.3945,-15.627,179.121,1.66992,-144.668,424
1569683751,299.814,13.3945,-15.627,179.121,1.66992,-144.668,420
1569683751,299.814,13.3945,-15.627,179.121,1.66992,-144.668,420
1569683751,299.814,13.3945,-15.627,179.121,1.66992,-144.668,420
1569683751,299.814,13.3945,-15.627,179.121,1.66992,-144.668,420
1569683751,299.814,13.3945,-15.627,179.121,1.66992,-144.668,424
1569683751,299.814,13.3945,-15.627,179.121,1.66992,-144.668,424
1569683751,299.814,13.3945,-15.627,179.121,1.66992,-144.668,424
1569683751,299.814,13.3945,-15.627,179.121,1.66992,-144.668,424
1569683751,299.814,13.3945,-15.5153,179.121,1.66992,-144.668,424
1569683751,299.814,13.3945,-15.5153,179.121,1.66992,-144.668,424
1569683751,299.814,13.3945,-15.5153,179.121,1.66992,-144.668,424
1569683751,299.814,13.3945,-15.5153,179.121,1.66992,-144.668,424
1569683751,299.814,13.3945,-15.5153,179.121,1.66992,-144.668,428
1569683751,299.814,13.3945,-15.5153,179.121,1.66992,-144.668,428
1569683751,299.814,13.3945,-15.5153,179.121,1.66992,-144.668,428
1569683751,299.814,13.3945,-15.5153,179.121,1.66992,-144.668,428
1569683751,299.814,13.3945,-15.5153,179.121,1.66992,-144.668,428
1569683751,299.814,13.3945,-15.5153,179.121,1.66992,-144.668,428
1569683751,299.814,13.3945,-15.5153,179.121,1.66992,-144.668,428
1569683751,299.814,13.3945,-15.5153,179.121,1.66992,-144.668,428
1569683751,299.814,13.3945,-15.5153,179.121,1.66992,-144.668,428
1569683751,299.814,13.3945,-15.5153,179.121,1.66992,-144.668,428
1569683751,299.814,13.3945,-15.5153,179.121,1.66992,-144.668,428
1569683751,299.814,13.3945,-15.5153,179.121,1.66992,-144.668,428
1569683751,299.814,13.3945,-15.5153,179.121,1.66992,-144.668,428
1569683751,299.814,13.3945,-15.5153,179.121,1.66992,-144.668,428
1569683751,299.814,13.3945,-15.5153,179.121,1.66992,-144.668,428
1569683751,299.814,13.3945,-15.5153,179.121,1.66992,-144.668,428
1569683751,299.814,13.3945,-15.5153,179.121,1.66992,-144.668,424
1569683751,299.814,13.3945,-15.5153,179.121,1.66992,-144.668,424
1569683751,299.814,13.3945,-15.5153,179.121,1.69189,-144.668,424
1569683751,299.814,13.3945,-15.5153,179.121,1.69189,-144.668,424
1569683751,299.814,13.3945,-15.5153,179.121,1.69189,-144.668,424
1569683751,299.814,13.3945,-15.5153,179.121,1.69189,-144.668,424
1569683751,299.814,13.3945,-15.5153,179.121,1.69189,-144.668,424
1569683751,299.814,13.3945,-15.5153,179.121,1.69189,-144.668,424
1569683751,299.814,13.3945,-15.5153,179.121,1.69189,-144.668,424
1569683751,299.814,13.3945,-15.5153,179.121,1.66992,-144.668,424
1569683751,299.814,13.3945,-15.627,179.121,1.66992,-144.668,424
1569683751,299.814,13.3945,-15.627,179.121,1.66992,-144.668,424
1569683751,299.814,13.3945,-15.627,179.121,1.66992,-144.668,424
1569683751,299.814,13.3945,-15.627,179.099,1.66992,-144.668,424
1569683751,299.814,13.3945,-15.5153,179.099,1.66992,-144.668,424
1569683752,299.814,13.3945,-15.5153,179.099,1.66992,-144.668,424
1569683752,299.814,13.3945,-15.5153,179.099,1.66992,-144.668,424
1569683752,299.814,13.3945,-15.5153,179.099,1.66992,-144.668,424
1569683752,299.814,13.3945,-15.5153,179.099,1.66992,-144.668,424
1569683752,299.814,13.3945,-15.627,179.099,1.66992,-144.668,424
1569683752,299.814,13.3945,-15.627,179.099,1.66992,-144.668,424
1569683752,299.926,13.3945,-15.627,179.099,1.66992,-144.668,424
1569683752,299.926,13.3945,-15.627,179.099,1.66992,-144.668,424
1569683752,299.926,13.3945,-15.627,179.099,1.66992,-144.668,424
1569683752,299.926,13.3945,-15.627,179.099,1.66992,-144.668,424
1569683752,299.926,13.3945,-15.627,179.099,1.66992,-144.668,424
1569683752,299.926,13.3945,-15.627,179.099,1.66992,-144.668,424
1569683752,299.926,13.3945,-15.627,179.099,1.66992,-144.668,424
1569683752,299.926,13.3945,-15.5153,179.099,1.66992,-144.668,424
1569683752,299.926,13.3945,-15.5153,179.099,1.66992,-144.668,420
1569683752,299.814,13.3945,-15.5153,179.099,1.66992,-144.668,420
1569683752,299.814,13.3945,-15.5153,179.099,1.66992,-144.668,420
1569683752,299.814,13.3945,-15.5153,179.099,1.66992,-144.668,420
1569683752,299.814,13.3945,-15.5153,179.099,1.66992,-144.668,420
1569683752,299.814,13.3945,-15.5153,179.099,1.66992,-144.668,420
1569683752,299.814,13.3945,-15.5153,179.099,1.66992,-144.668,420
1569683752,299.814,13.3945,-15.5153,179.099,1.66992,-144.668,420
1569683752,299.814,13.3945,-15.5153,179.099,1.66992,-144.668,420
1569683752,299.814,13.3945,-15.5153,179.099,1.66992,-144.668,416
1569683752,299.814,13.3945,-15.5153,179.099,1.66992,-144.668,416
1569683752,299.814,13.3945,-15.5153,179.099,1.66992,-144.668,416
1569683752,299.814,13.3945,-15.5153,179.099,1.66992,-144.668,416
1569683752,299.814,13.3945,-15.5153,179.099,1.66992,-144.668,416
1569683752,299.814,13.3945,-15.5153,179.099,1.66992,-144.668,416
1569683752,299.814,13.3945,-15.5153,179.099,1.66992,-144.668,416
1569683752,299.814,13.3945,-15.5153,179.099,1.66992,-144.668,416
1569683752,299.814,13.3945,-15.5153,179.099,1.66992,-144.668,416
1569683752,299.814,13.3945,-15.5153,179.099,1.66992,-144.668,416
1569683752,299.814,13.3945,-15.5153,179.099,1.66992,-144.668,416
1569683752,299.814,13.3945,-15.5153,179.099,1.66992,-144.668,416
1569683752,299.814,13.3945,-15.5153,179.099,1.66992,-144.668,416
1569683752,299.814,13.3945,-15.5153,179.099,1.69189,-144.668,416
1569683752,299.814,13.3945,-15.5153,179.099,1.69189,-144.668,416
1569683752,299.814,13.3945,-15.5153,179.099,1.69189,-144.668,416
1569683752,299.814,13.3945,-15.5153,179.099,1.69189,-144.668,416
1569683752,299.814,13.3945,-15.5153,179.099,1.66992,-144.668,416
1569683752,299.814,13.3945,-15.5153,179.099,1.66992,-144.668,412
1569683752,299.814,13.3945,-15.5153,179.099,1.66992,-144.668,412
1569683752,299.814,13.3945,-15.5153,179.099,1.69189,-144.668,412
1569683752,299.814,13.3945,-15.5153,179.099,1.69189,-144.668,412
1569683752,299.814,13.3945,-15.5153,179.099,1.69189,-144.668,412
1569683752,299.814,13.3945,-15.5153,179.099,1.69189,-144.668,412
1569683752,299.814,13.3945,-15.5153,179.099,1.69189,-144.668,412
1569683752,299.814,13.3945,-15.5153,179.099,1.69189,-144.668,412
1569683752,299.814,13.3945,-15.5153,179.099,1.69189,-144.668,412
1569683752,299.926,13.3945,-15.5153,179.099,1.69189,-144.668,412
1569683752,299.926,13.3945,-15.5153,179.099,1.69189,-144.668,412
1569683752,299.926,13.3945,-15.5153,179.099,1.69189,-144.668,412
1569683752,299.926,13.3945,-15.5153,179.099,1.69189,-144.668,412
1569683752,299.926,13.3945,-15.5153,179.099,1.69189,-144.668,412
1569683752,299.926,13.3945,-15.5153,179.099,1.69189,-144.668,412
1569683752,299.926,13.3945,-15.5153,179.099,1.69189,-144.668,412
1569683752,299.814,13.3945,-15.5153,179.099,1.69189,-144.668,412
1569683752,299.814,13.3945,-15.5153,179.099,1.69189,-144.668,412
1569683752,299.814,13.3945,-15.5153,179.099,1.69189,-144.668,412
1569683752,299.814,13.3945,-15.5153,179.099,1.69189,-144.668,412
1569683752,299.814,13.3945,-15.5153,179.099,1.69189,-144.668,412
1569683752,299.814,13.3945,-15.5153,179.121,1.69189,-144.668,412
1569683752,299.814,13.3945,-15.5153,179.121,1.69189,-144.668,416
1569683752,299.814,13.3945,-15.5153,179.121,1.69189,-144.668,416
1569683752,299.814,13.3945,-15.5153,179.121,1.69189,-144.668,416
1569683752,299.814,13.3945,-15.5153,179.121,1.69189,-144.668,416
1569683752,299.814,13.3945,-15.5153,179.121,1.69189,-144.668,416
1569683752,299.814,13.3945,-15.5153,179.121,1.69189,-144.668,416
1569683752,299.814,13.3945,-15.5153,179.121,1.69189,-144.668,416
1569683752,299.814,13.3945,-15.5153,179.121,1.69189,-144.668,416
1569683752,299.814,13.3945,-15.5153,179.121,1.69189,-144.668,416
1569683752,299.814,13.3945,-15.5153,179.121,1.69189,-144.668,416
1569683752,299.814,13.3945,-15.5153,179.121,1.69189,-144.668,416
1569683752,299.814,13.3945,-15.5153,179.121,1.69189,-144.668,416
1569683752,299.814,13.3945,-15.5153,179.121,1.69189,-144.668,416
1569683752,299.814,13.3945,-15.5153,179.121,1.69189,-144.668,416
1569683752,299.814,13.3945,-15.5153,179.121,1.69189,-144.668,416
1569683752,299.814,13.3945,-15.5153,179.121,1.69189,-144.668,416
1569683752,299.814,13.3945,-15.5153,179.121,1.69189,-144.668,416
1569683752,299.814,13.3945,-15.5153,179.121,1.69189,-144.668,416
1569683752,299.814,13.3945,-15.5153,179.121,1.69189,-144.668,416
1569683752,299.814,13.3945,-15.5153,179.121,1.69189,-144.668,416
1569683752,299.814,13.3945,-15.5153,179.121,1.69189,-144.668,416
1569683752,299.814,13.3945,-15.5153,179.121,1.69189,-144.668,416
1569683752,299.814,13.3945,-15.5153,179.121,1.69189,-144.668,416
1569683752,299.814,13.3945,-15.5153,179.121,1.69189,-144.668,416
1569683752,299.814,13.3945,-15.5153,179.121,1.69189,-144.668,416
1569683752,299.814,13.3945,-15.5153,179.121,1.69189,-144.668,416
1569683752,299.814,13.3945,-15.5153,179.121,1.69189,-144.668,416
1569683752,299.814,13.3945,-15.5153,179.121,1.69189,-144.668,416
1569683752,299.814,13.3945,-15.5153,179.121,1.66992,-144.668,416
1569683752,299.814,13.3945,-15.5153,179.121,1.66992,-144.668,412
1569683752,299.814,13.3945,-15.5153,179.121,1.66992,-144.668,412
1569683752,299.814,13.3945,-15.5153,179.121,1.66992,-144.668,412
1569683752,299.814,13.3945,-15.5153,179.121,1.66992,-144.668,412
1569683752,299.814,13.3945,-15.627,179.121,1.66992,-144.668,412
1569683752,299.814,13.3945,-15.627,179.121,1.66992,-144.668,412
1569683752,299.814,13.3945,-15.627,179.121,1.66992,-144.668,412
1569683753,299.814,13.3945,-15.5153,179.121,1.66992,-144.668,412
1569683753,299.814,13.3945,-15.5153,179.121,1.66992,-144.668,412
1569683753,299.814,13.3945,-15.5153,179.121,1.66992,-144.668,412
1569683753,299.814,13.3945,-15.5153,179.121,1.66992,-144.668,412
1569683753,299.814,13.3945,-15.5153,179.121,1.66992,-144.668,412
1569683753,299.814,13.3945,-15.5153,179.121,1.66992,-144.668,412
1569683753,299.814,13.3945,-15.5153,179.121,1.66992,-144.668,412
1569683753,299.814,13.3945,-15.5153,179.121,1.66992,-144.668,412
1569683753,299.814,13.3945,-15.5153,179.121,1.66992,-144.668,412
1569683753,299.814,13.3945,-15.5153,179.121,1.66992,-144.668,412
1569683753,299.814,13.3945,-15.5153,179.121,1.66992,-144.668,412
1569683753,299.814,13.3945,-15.5153,179.121,1.66992,-144.668,412
1569683753,299.814,13.3945,-15.5153,179.121,1.66992,-144.668,412
1569683753,299.814,13.3945,-15.627,179.121,1.66992,-144.668,412
1569683753,299.814,13.3945,-15.627,179.121,1.66992,-144.668,412
1569683753,299.814,13.3945,-15.627,179.121,1.66992,-144.668,412
1569683753,299.814,13.3945,-15.627,179.121,1.66992,-144.668,412
1569683753,299.814,13.3945,-15.627,179.121,1.66992,-144.668,412
1569683753,299.814,13.3945,-15.627,179.121,1.66992,-144.668,412
1569683753,299.814,13.3945,-15.627,179.121,1.66992,-144.668,412
1569683753,299.814,13.3945,-15.627,179.121,1.66992,-144.668,412
1569683753,299.814,13.3945,-15.627,179.121,1.66992,-144.668,412
1569683753,299.814,13.3945,-15.627,179.121,1.66992,-144.668,412
1569683753,299.814,13.3945,-15.627,179.121,1.66992,-144.668,412
1569683753,299.814,13.3945,-15.627,179.121,1.66992,-144.668,412
1569683753,299.814,13.3945,-15.627,179.121,1.66992,-144.668,412
1569683753,299.814,13.3945,-15.627,179.121,1.66992,-144.668,412
1569683753,299.814,13.3945,-15.627,179.121,1.66992,-144.668,416
1569683753,299.814,13.3945,-15.627,179.121,1.66992,-144.668,416
1569683753,299.814,13.3945,-15.627,179.121,1.66992,-144.668,416
1569683753,299.814,13.3945,-15.627,179.121,1.66992,-144.668,416
1569683753,299.814,13.3945,-15.627,179.121,1.66992,-144.668,416
1569683753,299.814,13.3945,-15.627,179.121,1.66992,-144.668,416
1569683753,299.814,13.3945,-15.627,179.121,1.66992,-144.668,416
1569683753,299.814,13.3945,-15.627,179.121,1.66992,-144.668,416
1569683753,299.814,13.3945,-15.627,179.121,1.64795,-144.668,416
1569683753,299.814,13.3945,-15.627,179.121,1.64795,-144.668,416
1569683753,299.814,13.3945,-15.627,179.121,1.64795,-144.668,420
1569683753,299.814,13.3945,-15.627,179.121,1.64795,-144.668,420
1569683753,299.814,13.3945,-15.627,179.121,1.64795,-144.668,420
1569683753,299.814,13.3945,-15.627,179.121,1.64795,-144.668,420
1569683753,299.814,13.3945,-15.627,179.121,1.64795,-144.668,420
1569683753,299.814,13.3945,-15.627,179.121,1.66992,-144.668,420
1569683753,299.926,13.3945,-15.627,179.121,1.66992,-144.668,420
1569683753,299.926,13.3945,-15.627,179.121,1.66992,-144.668,420
1569683753,299.926,13.3945,-15.627,179.121,1.66992,-144.668,420
1569683753,299.926,13.3945,-15.627,179.121,1.66992,-144.668,420
1569683753,299.926,13.3945,-15.627,179.121,1.66992,-144.668,420
1569683753,299.926,13.3945,-15.627,179.121,1.66992,-144.668,420
1569683753,299.926,13.3945,-15.627,179.099,1.66992,-144.668,420
1569683753,299.926,13.3945,-15.627,179.099,1.66992,-144.668,420
1569683753,299.926,13.3945,-15.627,179.099,1.66992,-144.668,420
1569683753,299.926,13.3945,-15.627,179.099,1.66992,-144.668,420
1569683753,299.926,13.3945,-15.627,179.099,1.66992,-144.668,420
1569683753,299.926,13.3945,-15.627,179.099,1.66992,-144.668,420
1569683753,299.926,13.3945,-15.627,179.099,1.66992,-144.668,420
1569683753,299.926,13.3945,-15.627,179.099,1.66992,-144.668,420
1569683753,299.926,13.3945,-15.627,179.099,1.66992,-144.668,420
1569683753,299.926,13.3945,-15.627,179.099,1.66992,-144.668,420
1569683753,299.926,13.3945,-15.627,179.099,1.66992,-144.668,420
1569683753,299.926,13.3945,-15.627,179.121,1.66992,-144.668,420
1569683753,299.926,13.3945,-15.627,179.121,1.66992,-144.668,420
1569683753,299.926,13.3945,-15.627,179.121,1.66992,-144.668,420
1569683753,299.926,13.3945,-15.627,179.121,1.66992,-144.668,420
1569683753,299.926,13.3945,-15.627,179.121,1.66992,-144.668,420
1569683753,299.926,13.3945,-15.627,179.121,1.66992,-144.668,420
1569683753,299.814,13.3945,-15.627,179.121,1.66992,-144.668,420
1569683753,299.814,13.3945,-15.627,179.121,1.66992,-144.668,420
1569683753,299.814,13.3945,-15.627,179.121,1.66992,-144.668,420
1569683753,299.814,13.3945,-15.627,179.121,1.66992,-144.668,420
1569683753,299.814,13.3945,-15.627,179.121,1.66992,-144.668,420
1569683753,299.814,13.3945,-15.627,179.121,1.66992,-144.668,420
1569683753,299.814,13.3945,-15.627,179.121,1.66992,-144.668,420
1569683753,299.814,13.3945,-15.5153,179.121,1.66992,-144.668,420
1569683753,299.814,13.3945,-15.5153,179.121,1.66992,-144.668,420
1569683753,299.814,13.3945,-15.5153,179.121,1.69189,-144.668,424
1569683753,299.814,13.3945,-15.5153,179.121,1.69189,-144.668,424
1569683753,299.814,13.3945,-15.5153,179.121,1.69189,-144.668,424
1569683753,299.814,13.3945,-15.5153,179.121,1.69189,-144.668,424
1569683753,299.814,13.3945,-15.5153,179.121,1.69189,-144.668,424
1569683753,299.814,13.3945,-15.5153,179.121,1.69189,-144.668,424
1569683753,299.814,13.3945,-15.5153,179.121,1.69189,-144.668,424
1569683753,299.814,13.3945,-15.5153,179.121,1.69189,-144.668,424
1569683753,299.814,13.3945,-15.5153,179.121,1.69189,-144.668,424
1569683753,299.814,13.3945,-15.5153,179.099,1.69189,-144.668,424
1569683753,299.814,13.3945,-15.5153,179.099,1.69189,-144.668,424
1569683753,299.926,13.3945,-15.5153,179.099,1.69189,-144.668,424
1569683753,299.926,13.3945,-15.5153,179.099,1.69189,-144.668,424
1569683753,299.926,13.3945,-15.5153,179.099,1.69189,-144.668,424
1569683753,299.926,13.3945,-15.5153,179.099,1.69189,-144.668,424
1569683753,299.926,13.3945,-15.5153,179.099,1.69189,-144.668,424
1569683759,322.808,-10.7156,-14.8456,179.187,1.88965,-145.063,464
1569683759,322.808,-10.7156,-14.8456,179.187,1.88965,-145.063,464
1569683759,322.808,-10.7156,-14.8456,179.187,1.88965,-145.063,468
1569683759,322.808,-10.7156,-14.8456,179.187,1.88965,-145.063,468
1569683759,322.808,-10.7156,-14.8456,179.209,1.88965,-145.063,468
1569683759,322.808,-10.7156,-14.8456,179.187,1.88965,-145.063,468
1569683759,322.808,-10.7156,-14.8456,179.187,1.88965,-145.063,468
1569683759,322.808,-10.7156,-14.8456,179.209,1.88965,-145.063,468
1569683759,322.808,-10.7156,-14.8456,179.209,1.88965,-145.063,468
1569683759,322.808,-10.7156,-14.9572,179.209,1.88965,-145.063,468
1569683759,322.808,-10.7156,-14.9572,179.209,1.88965,-145.063,468
1569683759,322.808,-10.7156,-14.9572,179.209,1.88965,-145.063,468
1569683759,322.808,-10.7156,-14.9572,179.209,1.88965,-145.063,468
1569683759,322.808,-10.7156,-14.9572,179.187,1.88965,-145.085,468
1569683759,322.92,-10.7156,-14.9572,179.187,1.88965,-145.085,468
1569683759,322.92,-10.7156,-14.9572,179.209,1.88965,-145.085,468
1569683759,322.92,-10.7156,-14.9572,179.209,1.88965,-145.085,468
1569683759,322.92,-10.7156,-14.9572,179.209,1.88965,-145.085,468
1569683759,322.92,-10.7156,-14.9572,179.209,1.88965,-145.085,468
1569683759,322.92,-10.7156,-14.9572,179.209,1.88965,-145.085,464
1569683759,322.92,-10.7156,-14.9572,179.209,1.88965,-145.085,464
1569683759,322.92,-10.7156,-14.9572,179.209,1.88965,-145.085,464
1569683759,322.92,-10.7156,-14.9572,179.209,1.88965,-145.085,464
1569683759,322.92,-10.7156,-14.9572,179.209,1.88965,-145.085,464
1569683759,322.92,-10.7156,-14.9572,179.209,1.88965,-145.085,464
1569683759,322.92,-10.7156,-14.9572,179.209,1.88965,-145.085,464
1569683759,322.92,-10.7156,-14.9572,179.209,1.88965,-145.085,464
1569683759,322.92,-10.7156,-14.9572,179.209,1.88965,-145.085,464
1569683759,322.92,-10.7156,-14.9572,179.209,1.88965,-145.085,464
1569683759,322.92,-10.604,-14.9572,179.209,1.88965,-145.085,464
1569683759,322.92,-10.604,-14.9572,179.209,1.88965,-145.085,464
1569683759,322.92,-10.604,-14.9572,179.209,1.88965,-145.085,464
1569683759,322.92,-10.604,-14.9572,179.209,1.88965,-145.085,464
1569683759,322.92,-10.604,-14.9572,179.209,1.88965,-145.085,464
1569683759,322.92,-10.604,-14.9572,179.209,1.88965,-145.085,464
1569683759,322.92,-10.604,-14.9572,179.209,1.88965,-145.085,464
1569683759,322.92,-10.604,-14.9572,179.209,1.88965,-145.085,464
1569683759,322.92,-10.7156,-14.9572,179.209,1.88965,-145.085,464
1569683759,322.92,-10.7156,-14.9572,179.209,1.88965,-145.085,464
1569683759,322.92,-10.7156,-14.9572,179.209,1.88965,-145.085,464
1569683759,322.92,-10.7156,-14.9572,179.209,1.88965,-145.085,464
1569683759,322.92,-10.7156,-14.9572,179.209,1.88965,-145.085,464
1569683759,322.92,-10.7156,-14.9572,179.209,1.88965,-145.063,464
1569683759,322.92,-10.7156,-14.9572,179.209,1.88965,-145.063,464
1569683759,322.92,-10.7156,-14.9572,179.209,1.88965,-145.063,468
1569683759,322.92,-10.7156,-14.9572,179.209,1.88965,-145.063,468
1569683759,322.92,-10.7156,-14.9572,179.209,1.88965,-145.085,468
1569683759,322.92,-10.7156,-14.9572,179.209,1.88965,-145.085,468
1569683759,322.92,-10.7156,-14.9572,179.209,1.88965,-145.085,468
1569683759,322.92,-10.7156,-14.9572,179.209,1.88965,-145.085,468
1569683759,322.92,-10.7156,-14.9572,179.209,1.86768,-145.085,468
1569683759,322.92,-10.7156,-14.9572,179.209,1.86768,-145.085,468
1569683759,322.92,-10.7156,-14.9572,179.209,1.86768,-145.085,468
1569683759,322.92,-10.604,-14.9572,179.209,1.86768,-145.085,468
1569683759,322.92,-10.604,-14.9572,179.231,1.86768,-145.085,468
1569683759,322.92,-10.604,-14.9572,179.231,1.86768,-145.085,464
1569683759,322.92,-10.604,-14.9572,179.231,1.86768,-145.085,464
1569683759,322.92,-10.604,-14.9572,179.231,1.86768,-145.085,464
1569683759,322.92,-10.604,-14.9572,179.231,1.86768,-145.085,464
1569683759,322.92,-10.604,-14.9572,179.231,1.86768,-145.085,464
1569683759,322.92,-10.604,-14.9572,179.231,1.86768,-145.085,464
1569683759,322.92,-10.604,-14.9572,179.231,1.86768,-145.085,464
1569683759,322.92,-10.604,-14.9572,179.231,1.86768,-145.085,464
1569683759,322.92,-10.604,-14.9572,179.231,1.86768,-145.085,464
1569683759,322.92,-10.604,-14.9572,179.231,1.86768,-145.085,460
1569683759,322.92,-10.604,-14.9572,179.231,1.88965,-145.085,460
1569683760,322.92,-10.604,-14.9572,179.231,1.88965,-145.085,460
1569683760,322.92,-10.604,-14.9572,179.231,1.88965,-145.085,460
1569683760,322.92,-10.604,-14.9572,179.231,1.88965,-145.085,460
1569683760,322.92,-10.604,-14.9572,179.231,1.88965,-145.085,460
1569683760,322.92,-10.604,-14.9572,179.231,1.88965,-145.085,460
1569683760,322.92,-10.604,-14.9572,179.231,1.88965,-145.085,460
1569683760,322.92,-10.604,-14.9572,179.231,1.88965,-145.085,460
1569683760,322.92,-10.604,-14.9572,179.231,1.88965,-145.085,460
1569683760,322.92,-10.604,-14.9572,179.231,1.88965,-145.085,460
1569683760,322.92,-10.604,-14.9572,179.231,1.88965,-145.085,460
1569683760,322.92,-10.604,-14.9572,179.231,1.88965,-145.063,460
1569683760,322.92,-10.604,-14.9572,179.231,1.88965,-145.063,460
1569683760,322.92,-10.604,-14.9572,179.231,1.88965,-145.063,460
1569683760,322.92,-10.604,-14.9572,179.231,1.88965,-145.063,460
1569683760,322.92,-10.604,-14.9572,179.231,1.88965,-145.063,460
1569683760,322.92,-10.604,-14.9572,179.231,1.88965,-145.063,460
1569683760,322.92,-10.604,-14.9572,179.231,1.88965,-145.063,460
1569683760,322.92,-10.604,-14.9572,179.231,1.88965,-145.063,460
1569683760,322.92,-10.604,-14.9572,179.231,1.88965,-145.063,460
1569683760,322.92,-10.604,-14.9572,179.231,1.88965,-145.063,460
1569683760,322.808,-10.604,-14.8456,179.231,1.88965,-145.063,460
1569683760,322.808,-10.604,-14.8456,179.231,1.88965,-145.063,460
1569683760,322.808,-10.604,-14.8456,179.231,1.88965,-145.063,464
1569683760,322.808,-10.604,-14.8456,179.253,1.91162,-145.063,464
1569683760,322.808,-10.604,-14.8456,179.253,1.91162,-145.063,464
1569683760,322.808,-10.604,-14.8456,179.253,1.91162,-145.063,464
1569683760,322.808,-10.604,-14.8456,179.253,1.91162,-145.063,464
1569683760,322.808,-10.604,-14.8456,179.253,1.91162,-145.063,468
1569683760,322.808,-10.604,-14.8456,179.253,1.91162,-145.063,468
1569683760,322.808,-10.604,-14.8456,179.231,1.91162,-145.063,468
1569683760,322.808,-10.604,-14.8456,179.231,1.91162,-145.063,468
1569683760,322.808,-10.604,-14.8456,179.231,1.91162,-145.085,468
1569683760,322.808,-10.604,-14.8456,179.231,1.91162,-145.085,472
1569683760,322.808,-10.604,-14.8456,179.231,1.91162,-145.085,472
1569683760,322.808,-10.604,-14.8456,179.231,1.91162,-145.085,472
1569683760,322.808,-10.604,-14.8456,179.231,1.91162,-145.085,472
1569683760,322.808,-10.604,-14.8456,179.231,1.91162,-145.085,472
1569683760,322.808,-10.604,-14.8456,179.231,1.91162,-145.085,472
1569683760,322.808,-10.604,-14.8456,179.231,1.91162,-145.085,472
1569683760,322.92,-10.604,-14.8456,179.231,1.91162,-145.085,472
1569683760,322.92,-10.604,-14.8456,179.231,1.91162,-145.085,472
1569683760,322.92,-10.604,-14.8456,179.231,1.91162,-145.085,472
1569683760,322.92,-10.604,-14.8456,179.231,1.91162,-145.085,468
1569683760,322.92,-10.604,-14.8456,179.231,1.91162,-145.085,468
1569683760,322.92,-10.604,-14.8456,179.231,1.91162,-145.085,468
1569683760,322.92,-10.604,-14.8456,179.231,1.91162,-145.085,468
1569683760,322.92,-10.604,-14.8456,179.231,1.91162,-145.085,468
1569683760,322.92,-10.604,-14.8456,179.231,1.91162,-145.085,468
1569683760,322.92,-10.604,-14.8456,179.231,1.91162,-145.085,468
1569683760,322.92,-10.604,-14.8456,179.231,1.91162,-145.085,468
1569683760,322.92,-10.604,-14.8456,179.231,1.91162,-145.085,464
1569683760,322.92,-10.604,-14.8456,179.231,1.91162,-145.085,464
1569683760,322.92,-10.604,-14.8456,179.209,1.91162,-145.085,464
1569683760,322.92,-10.604,-14.8456,179.209,1.91162,-145.085,464
1569683760,322.92,-10.7156,-14.8456,179.209,1.91162,-145.085,464
1569683760,322.92,-10.7156,-14.8456,179.209,1.91162,-145.063,464
1569683760,322.92,-10.7156,-14.8456,179.209,1.91162,-145.063,464
1569683760,322.92,-10.7156,-14.8456,179.209,1.91162,-145.063,464
1569683760,322.92,-10.7156,-14.8456,179.209,1.91162,-145.063,464
1569683760,322.92,-10.7156,-14.8456,179.209,1.91162,-145.063,464
1569683760,322.92,-10.7156,-14.8456,179.209,1.91162,-145.063,464
1569683760,322.92,-10.7156,-14.8456,179.209,1.91162,-145.063,464
1569683760,322.92,-10.7156,-14.8456,179.209,1.91162,-145.063,464
1569683760,322.92,-10.7156,-14.8456,179.209,1.91162,-145.063,464
1569683760,322.92,-10.7156,-14.8456,179.209,1.91162,-145.063,464
1569683760,322.92,-10.7156,-14.8456,179.209,1.91162,-145.063,464
1569683760,322.92,-10.7156,-14.8456,179.209,1.91162,-145.063,464
1569683760,322.92,-10.7156,-14.8456,179.209,1.91162,-145.063,464
1569683760,322.92,-10.7156,-14.8456,179.209,1.91162,-145.063,464
1569683760,322.92,-10.7156,-14.8456,179.209,1.91162,-145.063,464
1569683760,322.92,-10.7156,-14.8456,179.187,1.91162,-145.063,464
1569683760,322.92,-10.7156,-14.8456,179.187,1.91162,-145.085,464
1569683760,322.92,-10.7156,-14.8456,179.187,1.91162,-145.085,464
1569683760,322.92,-10.7156,-14.8456,179.187,1.91162,-145.085,464
1569683760,322.92,-10.7156,-14.8456,179.187,1.91162,-145.085,464
1569683760,322.92,-10.7156,-14.8456,179.187,1.91162,-145.085,464
1569683760,322.92,-10.7156,-14.8456,179.187,1.91162,-145.085,464
1569683760,322.92,-10.7156,-14.8456,179.187,1.91162,-145.085,464
1569683760,322.92,-10.7156,-14.8456,179.187,1.91162,-145.085,464
1569683760,322.92,-10.7156,-14.8456,179.187,1.91162,-145.085,468
1569683760,322.92,-10.7156,-14.8456,179.187,1.91162,-145.085,468
1569683760,322.808,-10.7156,-14.8456,179.187,1.91162,-145.085,468
1569683760,322.808,-10.7156,-14.8456,179.187,1.91162,-145.085,468
1569683760,322.808,-10.7156,-14.8456,179.187,1.91162,-145.085,468
1569683760,322.808,-10.7156,-14.8456,179.187,1.91162,-145.085,468
1569683760,322.808,-10.7156,-14.8456,179.187,1.91162,-145.085,468
1569683760,322.808,-10.7156,-14.8456,179.209,1.91162,-145.085,468
1569683760,322.808,-10.7156,-14.8456,179.209,1.91162,-145.085,472
1569683760,322.808,-10.7156,-14.8456,179.209,1.91162,-145.085,472
1569683760,322.808,-10.7156,-14.8456,179.209,1.91162,-145.085,472
1569683760,322.808,-10.7156,-14.8456,179.209,1.91162,-145.085,472
1569683760,322.808,-10.7156,-14.8456,179.209,1.91162,-145.085,472
1569683760,322.808,-10.7156,-14.8456,179.209,1.91162,-145.085,472
1569683760,322.808,-10.7156,-14.8456,179.209,1.91162,-145.085,472
1569683760,322.92,-10.7156,-14.8456,179.209,1.91162,-145.085,472
1569683760,322.92,-10.7156,-14.8456,179.209,1.91162,-145.063,472
1569683760,322.92,-10.7156,-14.8456,179.209,1.91162,-145.063,472
1569683760,322.92,-10.7156,-14.8456,179.209,1.91162,-145.063,472
1569683760,322.92,-10.7156,-14.8456,179.209,1.91162,-145.063,472
1569683760,322.92,-10.7156,-14.8456,179.209,1.91162,-145.063,472
1569683761,322.92,-10.7156,-14.8456,179.209,1.91162,-145.063,472
1569683761,322.92,-10.7156,-14.8456,179.209,1.91162,-145.063,472
1569683761,322.92,-10.7156,-14.8456,179.209,1.91162,-145.063,468
1569683761,322.92,-10.7156,-14.8456,179.209,1.91162,-145.063,468
1569683761,322.92,-10.7156,-14.8456,179.209,1.91162,-145.063,468
1569683761,322.92,-10.7156,-14.8456,179.209,1.91162,-145.063,464
1569683761,322.92,-10.7156,-14.8456,179.209,1.91162,-145.063,464
1569683761,322.92,-10.7156,-14.8456,179.209,1.91162,-145.063,464
1569683761,322.92,-10.7156,-14.8456,179.209,1.91162,-145.063,464
1569683761,322.92,-10.7156,-14.8456,179.209,1.91162,-145.063,460
1569683761,322.92,-10.7156,-14.8456,179.209,1.88965,-145.063,460
1569683761,322.92,-10.7156,-14.8456,179.209,1.88965,-145.063,460
1569683761,322.92,-10.7156,-14.8456,179.209,1.88965,-145.063,460
1569683761,322.92,-10.7156,-14.8456,179.209,1.91162,-145.063,456
1569683761,322.92,-10.7156,-14.8456,179.209,1.91162,-145.063,456
1569683761,322.92,-10.7156,-14.8456,179.209,1.91162,-145.063,456
1569683761,322.92,-10.7156,-14.8456,179.209,1.91162,-145.063,456
1569683761,322.92,-10.7156,-14.8456,179.209,1.91162,-145.063,456
1569683761,322.92,-10.7156,-14.8456,179.209,1.88965,-145.063,456
1569683761,322.92,-10.7156,-14.8456,179.209,1.88965,-145.063,456
1569683761,322.92,-10.7156,-14.8456,179.209,1.88965,-145.063,456
1569683761,322.92,-10.7156,-14.8456,179.209,1.88965,-145.063,456
1569683761,322.92,-10.7156,-14.8456,179.209,1.88965,-145.063,456
1569683761,322.92,-10.7156,-14.9572,179.209,1.88965,-145.063,460
1569683761,322.92,-10.7156,-14.9572,179.209,1.88965,-145.063,460
1569683761,322.92,-10.7156,-14.9572,179.209,1.88965,-145.063,460
1569683761,322.92,-10.7156,-14.9572,179.209,1.88965,-145.063,460
1569683761,322.92,-10.7156,-14.9572,179.209,1.88965,-145.063,460
1569683761,322.92,-10.7156,-14.9572,179.209,1.88965,-145.063,460
1569683761,322.92,-10.7156,-14.9572,179.209,1.88965,-145.063,460
1569683761,322.92,-10.7156,-14.9572,179.209,1.88965,-145.063,460
1569683761,322.92,-10.7156,-14.9572,179.209,1.88965,-145.063,460
1569683761,322.92,-10.7156,-14.9572,179.209,1.88965,-145.085,460
1569683761,322.92,-10.7156,-14.9572,179.209,1.88965,-145.085,460
1569683761,322.92,-10.7156,-14.9572,179.209,1.88965,-145.085,460
1569683761,322.92,-10.7156,-14.9572,179.209,1.88965,-145.085,460
1569683761,322.808,-10.7156,-14.9572,179.209,1.88965,-145.085,460
1569683761,322.808,-10.7156,-14.9572,179.209,1.88965,-145.085,464
1569683761,322.808,-10.7156,-14.9572,179.209,1.88965,-145.085,464
1569683761,322.808,-10.7156,-14.9572,179.209,1.88965,-145.085,464
1569683761,322.808,-10.7156,-14.9572,179.209,1.88965,-145.085,464
1569683761,322.808,-10.7156,-14.9572,179.209,1.88965,-145.085,464
1569683761,322.808,-10.7156,-14.9572,179.209,1.88965,-145.085,464
1569683761,322.808,-10.7156,-14.9572,179.209,1.88965,-145.085,464
1569683761,322.808,-10.7156,-14.9572,179.209,1.88965,-145.085,468
1569683761,322.808,-10.7156,-14.9572,179.209,1.88965,-145.085,468
1569683761,322.808,-10.7156,-14.9572,179.209,1.88965,-145.085,468
1569683761,322.808,-10.7156,-14.9572,179.209,1.88965,-145.085,468
1569683761,322.808,-10.7156,-14.9572,179.209,1.88965,-145.085,468
1569683761,322.92,-10.7156,-14.9572,179.209,1.88965,-145.085,464
1569683761,322.92,-10.7156,-14.9572,179.209,1.88965,-145.085,464
1569683761,322.92,-10.7156,-14.9572,179.209,1.88965,-145.085,464
1569683761,322.92,-10.7156,-14.9572,179.209,1.88965,-145.085,464
1569683761,322.92,-10.604,-14.9572,179.209,1.88965,-145.085,464
1569683761,322.92,-10.604,-14.9572,179.209,1.88965,-145.063,464
1569683761,322.92,-10.604,-14.9572,179.209,1.88965,-145.063,464
1569683761,322.92,-10.604,-14.9572,179.209,1.88965,-145.063,464
1569683761,322.92,-10.604,-14.9572,179.209,1.88965,-145.063,464
1569683761,322.92,-10.604,-14.9572,179.209,1.88965,-145.063,464
1569683761,322.808,-10.604,-14.8456,179.209,1.88965,-145.063,464
1569683761,322.808,-10.604,-14.8456,179.209,1.88965,-145.063,464
1569683761,322.808,-10.604,-14.8456,179.209,1.88965,-145.063,468
1569683761,322.808,-10.604,-14.8456,179.209,1.88965,-145.063,468
1569683761,322.808,-10.604,-14.8456,179.209,1.88965,-145.063,468
1569683761,322.808,-10.7156,-14.8456,179.209,1.88965,-145.063,468
1569683761,322.808,-10.7156,-14.8456,179.209,1.88965,-145.063,468
1569683761,322.808,-10.7156,-14.8456,179.209,1.88965,-145.063,468
1569683761,322.808,-10.7156,-14.8456,179.209,1.88965,-145.063,468
1569683761,322.808,-10.7156,-14.8456,179.209,1.88965,-145.063,472
1569683761,322.808,-10.7156,-14.8456,179.209,1.91162,-145.063,472
1569683761,322.808,-10.7156,-14.8456,179.209,1.91162,-145.085,472
1569683761,322.808,-10.604,-14.8456,179.209,1.91162,-145.085,472
1569683761,322.808,-10.604,-14.8456,179.209,1.91162,-145.085,472
1569683761,322.92,-10.604,-14.8456,179.209,1.91162,-145.085,472
1569683761,322.92,-10.604,-14.8456,179.209,1.91162,-145.085,472
1569683761,322.808,-10.604,-14.8456,179.209,1.91162,-145.085,468
1569683761,322.808,-10.604,-14.8456,179.209,1.91162,-145.085,468
1569683761,322.808,-10.604,-14.8456,179.209,1.91162,-145.085,468
1569683761,322.808,-10.604,-14.8456,179.231,1.91162,-145.085,468
1569683761,322.808,-10.604,-14.8456,179.231,1.91162,-145.085,468
1569683761,322.808,-10.604,-14.8456,179.231,1.91162,-145.085,468
1569683761,322.92,-10.604,-14.8456,179.231,1.91162,-145.085,468
1569683761,322.92,-10.604,-14.8456,179.231,1.91162,-145.085,468
1569683761,322.92,-10.604,-14.8456,179.231,1.91162,-145.085,468
1569683761,322.92,-10.604,-14.8456,179.231,1.91162,-145.085,464
1569683761,322.92,-10.604,-14.8456,179.231,1.91162,-145.085,464
1569683761,322.92,-10.604,-14.8456,179.231,1.91162,-145.085,464
1569683761,322.92,-10.604,-14.8456,179.231,1.88965,-145.085,464
1569683761,322.92,-10.604,-14.8456,179.231,1.88965,-145.085,464
1569683761,322.92,-10.604,-14.8456,179.231,1.88965,-145.085,464
1569683761,322.92,-10.604,-14.8456,179.231,1.88965,-145.085,460
1569683761,322.92,-10.604,-14.8456,179.231,1.91162,-145.085,460
1569683761,322.92,-10.604,-14.8456,179.231,1.91162,-145.085,460
1569683761,322.92,-10.604,-14.8456,179.231,1.91162,-145.085,460
1569683761,322.92,-10.604,-14.8456,179.231,1.91162,-145.085,460
1569683761,322.92,-10.604,-14.8456,179.231,1.91162,-145.085,460
1569683761,322.92,-10.604,-14.8456,179.231,1.91162,-145.085,460
1569683761,322.92,-10.604,-14.8456,179.209,1.91162,-145.085,460
1569683761,322.92,-10.604,-14.8456,179.209,1.91162,-145.085,460
1569683761,322.92,-10.604,-14.8456,179.209,1.91162,-145.085,460
1569683762,322.92,-10.604,-14.8456,179.209,1.91162,-145.085,460
1569683762,322.92,-10.604,-14.8456,179.209,1.91162,-145.085,460
1569683762,322.92,-10.604,-14.8456,179.209,1.91162,-145.085,460
1569683762,322.92,-10.604,-14.8456,179.209,1.91162,-145.085,460
1569683762,322.92,-10.7156,-14.8456,179.209,1.91162,-145.085,460
1569683762,322.92,-10.7156,-14.8456,179.209,1.91162,-145.085,460
1569683762,322.92,-10.7156,-14.8456,179.209,1.91162,-145.085,460
1569683762,322.92,-10.7156,-14.8456,179.209,1.91162,-145.085,460
1569683762,322.92,-10.7156,-14.8456,179.209,1.91162,-145.085,460
1569683762,322.92,-10.7156,-14.8456,179.209,1.91162,-145.085,460
1569683762,322.92,-10.604,-14.8456,179.209,1.91162,-145.085,460
1569683762,322.92,-10.604,-14.8456,179.209,1.91162,-145.085,460
1569683762,322.92,-10.604,-14.8456,179.209,1.91162,-145.085,456
1569683762,322.92,-10.604,-14.8456,179.209,1.91162,-145.085,456
1569683762,322.92,-10.604,-14.8456,179.209,1.91162,-145.085,456
1569683762,322.92,-10.604,-14.8456,179.209,1.91162,-145.085,456
1569683762,322.92,-10.604,-14.8456,179.209,1.91162,-145.085,456
1569683762,322.92,-10.604,-14.8456,179.209,1.91162,-145.085,456
1569683762,322.92,-10.604,-14.8456,179.209,1.91162,-145.085,456
1569683762,322.92,-10.604,-14.8456,179.209,1.91162,-145.085,456
1569683762,322.92,-10.604,-14.8456,179.209,1.91162,-145.085,456
1569683762,322.92,-10.604,-14.8456,179.209,1.91162,-145.085,456
1569683762,322.92,-10.604,-14.8456,179.231,1.91162,-145.085,456
1569683762,322.92,-10.604,-14.8456,179.231,1.91162,-145.085,456
1569683762,322.92,-10.604,-14.8456,179.231,1.91162,-145.085,456
1569683762,322.92,-10.604,-14.8456,179.231,1.91162,-145.085,456
1569683762,322.92,-10.604,-14.8456,179.231,1.91162,-145.085,456
1569683762,322.92,-10.604,-14.8456,179.209,1.91162,-145.063,456
1569683762,322.92,-10.604,-14.8456,179.209,1.88965,-145.063,456
1569683762,322.92,-10.604,-14.8456,179.209,1.88965,-145.063,456
1569683762,322.92,-10.604,-14.8456,179.209,1.88965,-145.063,456
1569683762,322.92,-10.7156,-14.8456,179.209,1.88965,-145.063,456
1569683762,322.92,-10.7156,-14.9572,179.209,1.88965,-145.063,460
1569683762,322.92,-10.7156,-14.9572,179.209,1.88965,-145.063,460
1569683762,322.92,-10.7156,-14.9572,179.209,1.88965,-145.063,460
1569683762,322.92,-10.7156,-14.9572,179.209,1.88965,-145.063,460
1569683762,322.92,-10.7156,-14.9572,179.209,1.88965,-145.063,460
1569683762,322.92,-10.7156,-14.9572,179.209,1.88965,-145.063,460
1569683762,322.92,-10.7156,-14.9572,179.209,1.88965,-145.063,460
1569683762,322.92,-10.7156,-14.9572,179.209,1.88965,-145.063,460
1569683762,322.92,-10.7156,-14.9572,179.209,1.88965,-145.063,460
1569683762,322.92,-10.7156,-14.9572,179.209,1.88965,-145.063,460
1569683762,322.92,-10.7156,-14.9572,179.209,1.88965,-145.063,460
1569683762,322.92,-10.7156,-14.9572,179.209,1.88965,-145.063,460
1569683762,322.92,-10.7156,-14.9572,179.209,1.88965,-145.063,460
1569683762,322.92,-10.7156,-14.9572,179.209,1.88965,-145.063,460
1569683762,322.92,-10.7156,-14.9572,179.209,1.88965,-145.063,460
1569683762,322.92,-10.7156,-14.9572,179.209,1.88965,-145.063,460
1569683762,322.92,-10.7156,-14.9572,179.209,1.88965,-145.063,460
1569683762,322.92,-10.7156,-14.9572,179.209,1.88965,-145.063,460
1569683762,322.92,-10.7156,-14.9572,179.209,1.88965,-145.063,460
1569683762,322.92,-10.7156,-14.9572,179.209,1.88965,-145.063,460
1569683762,322.92,-10.7156,-14.9572,179.209,1.88965,-145.063,464
1569683762,322.92,-10.7156,-14.9572,179.209,1.88965,-145.063,464
1569683762,322.92,-10.7156,-14.9572,179.209,1.88965,-145.063,464
1569683762,322.92,-10.7156,-14.9572,179.209,1.88965,-145.063,464
1569683762,322.92,-10.7156,-14.8456,179.209,1.88965,-145.063,464
1569683762,322.92,-10.7156,-14.8456,179.209,1.88965,-145.063,464
1569683762,322.92,-10.7156,-14.8456,179.209,1.88965,-145.063,464
1569683762,322.92,-10.7156,-14.8456,179.209,1.88965,-145.063,464
1569683762,322.92,-10.7156,-14.8456,179.209,1.88965,-145.063,464
1569683762,322.92,-10.7156,-14.8456,179.209,1.88965,-145.063,464
1569683762,322.92,-10.7156,-14.8456,179.209,1.88965,-145.063,464
1569683762,322.92,-10.7156,-14.8456,179.209,1.88965,-145.063,464
1569683762,322.92,-10.7156,-14.8456,179.209,1.88965,-145.063,464
1569683762,322.92,-10.7156,-14.8456,179.209,1.88965,-145.063,464
1569683762,322.92,-10.7156,-14.8456,179.209,1.88965,-145.063,464
1569683762,322.92,-10.7156,-14.9572,179.209,1.88965,-145.063,464
1569683762,322.92,-10.7156,-14.9572,179.209,1.88965,-145.063,464
1569683762,322.92,-10.7156,-14.9572,179.209,1.88965,-145.063,468
1569683762,322.92,-10.7156,-14.9572,179.209,1.88965,-145.063,468
1569683762,322.92,-10.7156,-14.8456,179.209,1.88965,-145.063,468
1569683762,322.92,-10.7156,-14.8456,179.209,1.88965,-145.063,468
1569683762,322.92,-10.7156,-14.8456,179.209,1.88965,-145.063,468
1569683762,322.92,-10.7156,-14.8456,179.209,1.88965,-145.063,468
1569683762,322.92,-10.604,-14.8456,179.209,1.88965,-145.063,468
1569683762,322.92,-10.604,-14.8456,179.209,1.88965,-145.063,468
1569683762,322.92,-10.604,-14.8456,179.231,1.88965,-145.063,468
1569683762,322.92,-10.604,-14.9572,179.231,1.88965,-145.085,468
1569683762,322.92,-10.604,-14.9572,179.231,1.88965,-145.085,468
1569683762,322.92,-10.604,-14.9572,179.231,1.88965,-145.085,468
1569683762,322.92,-10.604,-14.9572,179.231,1.88965,-145.085,468
1569683762,322.92,-10.604,-14.9572,179.231,1.88965,-145.085,468
1569683762,322.92,-10.604,-14.9572,179.231,1.88965,-145.085,468
1569683762,322.92,-10.604,-14.9572,179.231,1.88965,-145.085,468
1569683762,322.92,-10.604,-14.9572,179.231,1.88965,-145.085,468
1569683762,322.92,-10.604,-14.9572,179.231,1.88965,-145.085,468
1569683762,322.92,-10.604,-14.9572,179.231,1.88965,-145.085,468
1569683762,322.92,-10.604,-14.9572,179.231,1.88965,-145.085,468
1569683762,322.92,-10.604,-14.9572,179.231,1.88965,-145.085,468
1569683762,322.92,-10.604,-14.9572,179.231,1.88965,-145.085,468
1569683762,322.92,-10.604,-14.9572,179.209,1.88965,-145.085,468
1569683762,322.92,-10.604,-14.9572,179.209,1.88965,-145.085,468
1569683762,322.92,-10.604,-14.9572,179.209,1.88965,-145.085,468
1569683762,322.92,-10.7156,-14.9572,179.209,1.88965,-145.085,468
1569683762,322.92,-10.7156,-14.9572,179.209,1.88965,-145.085,468
1569683762,322.92,-10.7156,-14.9572,179.209,1.88965,-145.085,468
1569683762,322.92,-10.7156,-14.9572,179.209,1.88965,-145.085,464
1569683762,322.92,-10.7156,-14.9572,179.209,1.88965,-145.085,464
1569683762,322.92,-10.604,-14.9572,179.209,1.88965,-145.085,464
1569683763,322.92,-10.604,-14.9572,179.209,1.88965,-145.085,464
1569683763,322.92,-10.604,-14.9572,179.209,1.88965,-145.085,464
1569683763,322.92,-10.604,-14.9572,179.209,1.88965,-145.085,464
1569683763,322.92,-10.604,-14.9572,179.231,1.88965,-145.085,464
1569683763,322.92,-10.604,-14.9572,179.231,1.88965,-145.085,464
1569683763,322.92,-10.604,-14.9572,179.231,1.88965,-145.085,464
1569683763,322.92,-10.604,-14.9572,179.231,1.88965,-145.085,464
1569683763,322.92,-10.604,-14.9572,179.231,1.88965,-145.085,464
1569683763,322.92,-10.604,-14.9572,179.231,1.88965,-145.085,464
1569683763,322.92,-10.604,-14.9572,179.231,1.88965,-145.085,464
1569683763,322.92,-10.604,-14.9572,179.231,1.88965,-145.085,464
1569683763,322.92,-10.604,-14.9572,179.231,1.88965,-145.085,464
1569683763,322.92,-10.604,-14.9572,179.231,1.88965,-145.085,464
1569683763,322.92,-10.604,-14.9572,179.231,1.88965,-145.085,464
1569683763,322.92,-10.604,-14.9572,179.231,1.88965,-145.085,464
1569683763,322.92,-10.604,-14.9572,179.231,1.88965,-145.085,464
1569683763,322.92,-10.604,-14.9572,179.231,1.88965,-145.085,464
1569683763,322.92,-10.604,-14.9572,179.231,1.88965,-145.085,464
1569683763,322.92,-10.604,-14.9572,179.231,1.88965,-145.085,464
1569683763,322.92,-10.604,-14.9572,179.231,1.88965,-145.085,464
1569683763,322.92,-10.604,-14.9572,179.231,1.88965,-145.085,464
1569683763,322.92,-10.604,-14.9572,179.231,1.88965,-145.063,464
1569683763,322.92,-10.604,-14.9572,179.231,1.88965,-145.063,464
1569683763,322.808,-10.604,-14.9572,179.231,1.88965,-145.063,464
1569683763,322.808,-10.604,-14.8456,179.231,1.88965,-145.063,464
1569683763,322.808,-10.604,-14.8456,179.231,1.88965,-145.085,464
1569683763,322.808,-10.604,-14.8456,179.231,1.88965,-145.085,464
1569683763,322.808,-10.604,-14.8456,179.231,1.88965,-145.085,464
1569683763,322.808,-10.604,-14.8456,179.231,1.88965,-145.085,464
1569683763,322.808,-10.604,-14.8456,179.231,1.88965,-145.085,464
1569683763,322.808,-10.604,-14.8456,179.231,1.88965,-145.085,464
1569683763,322.808,-10.604,-14.8456,179.231,1.88965,-145.085,464
1569683763,322.808,-10.604,-14.8456,179.231,1.88965,-145.085,464
1569683763,322.808,-10.604,-14.8456,179.231,1.91162,-145.085,464
1569683763,322.808,-10.604,-14.8456,179.231,1.91162,-145.085,464
1569683763,322.808,-10.604,-14.8456,179.231,1.91162,-145.085,464
1569683763,322.808,-10.604,-14.8456,179.231,1.91162,-145.085,464
1569683763,322.808,-10.604,-14.8456,179.231,1.91162,-145.085,464
1569683763,322.808,-10.604,-14.8456,179.231,1.91162,-145.085,464
1569683763,322.808,-10.604,-14.8456,179.231,1.91162,-145.085,464
1569683763,322.808,-10.604,-14.8456,179.231,1.91162,-145.085,464
1569683763,322.808,-10.604,-14.8456,179.209,1.91162,-145.085,464
1569683763,322.808,-10.604,-14.8456,179.209,1.91162,-145.085,464
1569683763,322.808,-10.604,-14.8456,179.209,1.91162,-145.085,464
1569683763,322.808,-10.604,-14.8456,179.209,1.91162,-145.085,464
1569683763,322.808,-10.7156,-14.8456,179.209,1.91162,-145.085,464
1569683763,322.808,-10.7156,-14.8456,179.209,1.88965,-145.085,464
1569683763,322.808,-10.7156,-14.8456,179.209,1.88965,-145.085,464
1569683763,322.808,-10.7156,-14.8456,179.209,1.88965,-145.085,464
1569683763,322.808,-10.7156,-14.8456,179.209,1.88965,-145.085,464
1569683763,322.808,-10.7156,-14.8456,179.209,1.88965,-145.085,464
1569683763,322.808,-10.7156,-14.8456,179.209,1.88965,-145.085,464
1569683763,322.808,-10.7156,-14.8456,179.209,1.88965,-145.085,464
1569683763,322.808,-10.7156,-14.8456,179.209,1.88965,-145.085,464
1569683763,322.808,-10.7156,-14.8456,179.209,1.88965,-145.085,464
1569683763,322.808,-10.7156,-14.8456,179.187,1.91162,-145.085,464
1569683763,322.808,-10.7156,-14.8456,179.187,1.91162,-145.085,464
1569683763,322.808,-10.7156,-14.8456,179.187,1.91162,-145.063,464
1569683763,322.808,-10.7156,-14.8456,179.187,1.91162,-145.063,464
1569683763,322.808,-10.7156,-14.8456,179.187,1.91162,-145.063,464
1569683763,322.808,-10.7156,-14.8456,179.187,1.91162,-145.063,468
1569683763,322.808,-10.7156,-14.8456,179.187,1.91162,-145.063,468
1569683763,322.808,-10.7156,-14.8456,179.187,1.91162,-145.085,468
1569683763,322.808,-10.7156,-14.8456,179.209,1.91162,-145.085,468
1569683763,322.808,-10.7156,-14.8456,179.209,1.91162,-145.085,468
1569683763,322.808,-10.7156,-14.8456,179.209,1.88965,-145.085,468
1569683763,322.808,-10.7156,-14.8456,179.209,1.88965,-145.085,468
1569683763,322.808,-10.7156,-14.8456,179.209,1.88965,-145.085,468
1569683763,322.808,-10.7156,-14.8456,179.209,1.88965,-145.085,468
1569683763,322.808,-10.7156,-14.8456,179.209,1.88965,-145.085,468
1569683763,322.808,-10.7156,-14.8456,179.209,1.88965,-145.085,468
1569683763,322.808,-10.7156,-14.8456,179.209,1.88965,-145.085,468
1569683763,322.808,-10.7156,-14.8456,179.209,1.88965,-145.085,468
1569683763,322.808,-10.604,-14.8456,179.209,1.88965,-145.085,468
1569683763,322.808,-10.604,-14.8456,179.209,1.88965,-145.085,468
1569683763,322.808,-10.604,-14.8456,179.209,1.88965,-145.085,468
1569683763,322.808,-10.604,-14.8456,179.209,1.88965,-145.085,468
1569683763,322.808,-10.604,-14.8456,179.209,1.88965,-145.085,468
1569683763,322.808,-10.604,-14.8456,179.209,1.88965,-145.085,472
1569683763,322.92,-10.604,-14.8456,179.209,1.88965,-145.085,472
1569683763,322.92,-10.604,-14.8456,179.209,1.88965,-145.085,472
1569683763,322.92,-10.604,-14.8456,179.209,1.88965,-145.085,472
1569683763,322.92,-10.604,-14.8456,179.209,1.88965,-145.085,472
1569683763,322.92,-10.604,-14.8456,179.209,1.88965,-145.085,472
1569683763,322.92,-10.604,-14.8456,179.209,1.88965,-145.085,472
1569683763,322.92,-10.604,-14.8456,179.209,1.88965,-145.063,472
1569683763,322.92,-10.604,-14.8456,179.209,1.88965,-145.063,472
1569683763,322.92,-10.604,-14.8456,179.209,1.88965,-145.063,476
1569683763,322.92,-10.604,-14.8456,179.209,1.88965,-145.063,476
1569683763,322.92,-10.604,-14.8456,179.209,1.88965,-145.063,476
1569683763,322.92,-10.7156,-14.8456,179.209,1.88965,-145.063,472
1569683763,322.92,-10.7156,-14.8456,179.209,1.88965,-145.063,472
1569683763,322.92,-10.7156,-14.8456,179.209,1.88965,-145.063,472
1569683763,322.92,-10.7156,-14.8456,179.209,1.88965,-145.063,472
1569683763,322.92,-10.7156,-14.8456,179.209,1.88965,-145.063,472
1569683763,322.92,-10.7156,-14.8456,179.209,1.88965,-145.063,472
1569683763,322.92,-10.7156,-14.8456,179.209,1.88965,-145.063,472
1569683763,322.92,-10.7156,-14.8456,179.209,1.88965,-145.063,472
1569683763,322.92,-10.7156,-14.8456,179.209,1.88965,-145.063,472
1569683763,322.92,-10.7156,-14.8456,179.209,1.88965,-145.063,468
1569683764,322.92,-10.7156,-14.8456,179.209,1.88965,-145.063,468
1569683764,322.92,-10.7156,-14.8456,179.209,1.88965,-145.063,468
1569683764,322.92,-10.7156,-14.8456,179.209,1.88965,-145.063,468
1569683764,322.92,-10.7156,-14.8456,179.209,1.88965,-145.063,468
1569683764,322.92,-10.7156,-14.8456,179.209,1.88965,-145.063,468
1569683764,322.92,-10.7156,-14.9572,179.209,1.88965,-145.063,468
1569683764,322.92,-10.7156,-14.9572,179.209,1.88965,-145.085,468
1569683764,322.92,-10.604,-14.9572,179.209,1.88965,-145.085,464
1569683764,322.92,-10.604,-14.9572,179.209,1.88965,-145.085,464
1569683764,322.92,-10.604,-14.9572,179.209,1.88965,-145.085,464
1569683764,322.92,-10.604,-14.9572,179.209,1.88965,-145.085,464
1569683764,322.92,-10.604,-14.9572,179.209,1.88965,-145.085,464
1569683764,322.92,-10.604,-14.9572,179.209,1.88965,-145.085,460
1569683764,322.92,-10.604,-14.9572,179.209,1.88965,-145.085,460
1569683764,322.92,-10.604,-14.9572,179.209,1.88965,-145.085,460
1569683764,322.92,-10.604,-14.9572,179.231,1.88965,-145.085,460
1569683764,322.92,-10.604,-14.9572,179.231,1.88965,-145.085,460
1569683764,322.92,-10.604,-14.9572,179.231,1.88965,-145.085,456
1569683764,322.92,-10.604,-14.9572,179.209,1.88965,-145.085,456
1569683764,322.92,-10.604,-14.9572,179.209,1.88965,-145.085,456
1569683764,322.92,-10.604,-14.9572,179.231,1.88965,-145.085,456
1569683764,322.92,-10.604,-14.9572,179.231,1.88965,-145.085,456
1569683764,322.92,-10.604,-14.9572,179.231,1.88965,-145.085,456
1569683764,322.92,-10.604,-14.9572,179.231,1.88965,-145.085,456
1569683764,322.92,-10.604,-14.9572,179.231,1.88965,-145.085,456
1569683764,322.92,-10.604,-14.9572,179.231,1.88965,-145.085,456
1569683764,322.92,-10.604,-14.9572,179.231,1.88965,-145.085,456
1569683764,322.92,-10.604,-14.9572,179.231,1.88965,-145.085,456
1569683764,322.92,-10.604,-14.9572,179.231,1.88965,-145.085,456
1569683764,322.92,-10.604,-14.9572,179.231,1.88965,-145.085,456
1569683764,322.92,-10.604,-14.9572,179.231,1.88965,-145.085,456
1569683764,322.92,-10.604,-14.9572,179.231,1.88965,-145.085,456
1569683764,322.92,-10.604,-14.9572,179.231,1.88965,-145.085,456
1569683764,322.92,-10.604,-14.9572,179.231,1.88965,-145.085,456
1569683768,361.541,-51.0108,-13.3945,179.495,2.50488,-144.866,512
1569683768,361.541,-51.0108,-13.3945,179.495,2.50488,-144.866,512
1569683768,361.541,-51.0108,-13.2829,179.495,2.52686,-144.866,512
1569683768,361.541,-51.0108,-13.2829,179.495,2.52686,-144.866,512
1569683768,361.541,-51.0108,-13.2829,179.495,2.52686,-144.866,512
1569683768,361.541,-51.0108,-13.2829,179.495,2.52686,-144.866,516
1569683768,361.541,-51.0108,-13.2829,179.495,2.52686,-144.866,516
1569683768,361.541,-51.0108,-13.2829,179.495,2.52686,-144.866,516
1569683768,361.541,-51.0108,-13.2829,179.495,2.52686,-144.866,516
1569683768,361.541,-51.0108,-13.2829,179.495,2.52686,-144.866,516
1569683768,361.541,-51.0108,-13.2829,179.495,2.52686,-144.866,516
1569683768,361.541,-51.0108,-13.2829,179.495,2.52686,-144.866,516
1569683768,361.541,-51.0108,-13.2829,179.495,2.52686,-144.866,512
1569683768,361.541,-51.0108,-13.2829,179.495,2.54883,-144.888,512
1569683768,361.541,-51.0108,-13.2829,179.495,2.54883,-144.888,512
1569683768,361.541,-51.0108,-13.2829,179.495,2.54883,-144.888,512
1569683768,361.541,-51.0108,-13.2829,179.495,2.54883,-144.888,512
1569683768,361.541,-51.0108,-13.2829,179.495,2.54883,-144.888,512
1569683768,361.541,-51.0108,-13.2829,179.495,2.54883,-144.888,512
1569683768,361.541,-51.0108,-13.2829,179.495,2.54883,-144.888,512
1569683768,361.541,-51.0108,-13.2829,179.495,2.54883,-144.888,512
1569683768,361.541,-51.0108,-13.2829,179.495,2.52686,-144.888,512
1569683768,361.541,-51.0108,-13.2829,179.495,2.52686,-144.888,512
1569683768,361.541,-51.0108,-13.2829,179.495,2.52686,-144.888,512
1569683768,361.541,-51.0108,-13.2829,179.495,2.52686,-144.888,512
1569683768,361.541,-51.0108,-13.2829,179.473,2.52686,-144.888,512
1569683768,361.541,-51.0108,-13.2829,179.473,2.52686,-144.888,512
1569683768,361.541,-51.0108,-13.2829,179.473,2.52686,-144.888,512
1569683768,361.541,-51.0108,-13.3945,179.473,2.52686,-144.888,512
1569683768,361.541,-51.0108,-13.3945,179.473,2.52686,-144.888,516
1569683768,361.541,-51.0108,-13.3945,179.473,2.50488,-144.888,516
1569683768,361.541,-51.0108,-13.3945,179.473,2.50488,-144.888,516
1569683768,361.541,-51.0108,-13.3945,179.473,2.50488,-144.888,516
1569683768,361.541,-51.0108,-13.3945,179.473,2.50488,-144.888,520
1569683768,361.541,-51.0108,-13.3945,179.473,2.50488,-144.888,520
1569683768,361.541,-51.0108,-13.3945,179.473,2.50488,-144.888,520
1569683768,361.541,-51.0108,-13.3945,179.495,2.52686,-144.888,520
1569683768,361.541,-51.0108,-13.3945,179.495,2.52686,-144.888,520
1569683768,361.541,-51.0108,-13.3945,179.495,2.52686,-144.888,520
1569683768,361.541,-51.0108,-13.3945,179.495,2.52686,-144.888,520
1569683768,361.541,-51.0108,-13.3945,179.495,2.52686,-144.888,520
1569683768,361.541,-51.0108,-13.3945,179.495,2.52686,-144.888,520
1569683768,361.541,-50.8992,-13.3945,179.495,2.50488,-144.888,524
1569683768,361.541,-50.8992,-13.3945,179.495,2.50488,-144.888,524
1569683768,361.541,-50.8992,-13.3945,179.495,2.50488,-144.888,524
1569683768,361.541,-50.8992,-13.3945,179.495,2.50488,-144.888,524
1569683768,361.541,-50.8992,-13.3945,179.495,2.50488,-144.888,524
1569683768,361.541,-50.8992,-13.3945,179.495,2.50488,-144.888,524
1569683768,361.541,-50.8992,-13.3945,179.495,2.50488,-144.888,524
1569683768,361.541,-50.8992,-13.3945,179.495,2.50488,-144.888,524
1569683768,361.541,-50.8992,-13.3945,179.495,2.50488,-144.888,524
1569683768,361.541,-50.8992,-13.3945,179.495,2.48291,-144.888,524
1569683768,361.541,-50.8992,-13.5062,179.495,2.48291,-144.888,524
1569683768,361.541,-50.8992,-13.5062,179.495,2.48291,-144.888,524
1569683768,361.541,-50.8992,-13.5062,179.495,2.48291,-144.888,524
1569683768,361.541,-50.8992,-13.5062,179.495,2.48291,-144.888,520
1569683768,361.541,-50.8992,-13.5062,179.495,2.48291,-144.888,520
1569683768,361.541,-50.8992,-13.5062,179.495,2.46094,-144.888,520
1569683768,361.541,-50.8992,-13.5062,179.495,2.46094,-144.888,516
1569683768,361.541,-50.8992,-13.5062,179.495,2.46094,-144.888,516
1569683768,361.541,-50.8992,-13.5062,179.495,2.46094,-144.888,516
1569683769,361.541,-50.8992,-13.5062,179.495,2.46094,-144.888,512
1569683769,361.541,-50.8992,-13.5062,179.495,2.48291,-144.866,512
1569683769,361.541,-50.8992,-13.5062,179.495,2.48291,-144.866,512
1569683769,361.541,-50.8992,-13.5062,179.517,2.48291,-144.866,512
1569683769,361.541,-50.8992,-13.5062,179.517,2.48291,-144.866,512
1569683769,361.541,-50.8992,-13.5062,179.517,2.48291,-144.866,508
1569683769,361.541,-50.8992,-13.5062,179.517,2.48291,-144.888,508
1569683769,361.541,-50.8992,-13.5062,179.517,2.48291,-144.888,508
1569683769,361.541,-50.8992,-13.5062,179.517,2.48291,-144.888,508
1569683769,361.541,-50.8992,-13.5062,179.517,2.48291,-144.888,508
1569683769,361.541,-50.8992,-13.3945,179.495,2.48291,-144.888,508
1569683769,361.541,-50.8992,-13.3945,179.495,2.48291,-144.888,508
1569683769,361.541,-50.8992,-13.3945,179.495,2.48291,-144.888,508
1569683769,361.541,-50.8992,-13.3945,179.495,2.50488,-144.888,508
1569683769,361.541,-51.0108,-13.3945,179.495,2.50488,-144.888,508
1569683769,361.541,-51.0108,-13.3945,179.495,2.50488,-144.888,508
1569683769,361.541,-51.0108,-13.3945,179.473,2.50488,-144.888,512
1569683769,361.541,-51.0108,-13.3945,179.473,2.50488,-144.888,512
1569683769,361.541,-51.0108,-13.3945,179.473,2.48291,-144.888,512
1569683769,361.541,-51.0108,-13.5062,179.473,2.48291,-144.888,512
1569683769,361.541,-51.0108,-13.5062,179.473,2.48291,-144.888,512
1569683769,361.541,-51.0108,-13.5062,179.473,2.48291,-144.866,508
1569683769,361.541,-51.0108,-13.5062,179.473,2.48291,-144.866,508
1569683769,361.541,-51.0108,-13.5062,179.473,2.48291,-144.866,508
1569683769,361.541,-51.0108,-13.5062,179.473,2.48291,-144.866,508
1569683769,361.541,-51.0108,-13.5062,179.473,2.48291,-144.866,508
1569683769,361.541,-51.0108,-13.5062,179.473,2.48291,-144.866,508
1569683769,361.541,-51.0108,-13.5062,179.473,2.48291,-144.866,508
1569683769,361.541,-51.0108,-13.5062,179.473,2.48291,-144.866,508
1569683769,361.541,-51.0108,-13.5062,179.473,2.48291,-144.866,508
1569683769,361.541,-51.0108,-13.5062,179.473,2.48291,-144.866,508
1569683769,361.541,-51.0108,-13.5062,179.473,2.48291,-144.866,508
1569683769,361.541,-51.0108,-13.5062,179.473,2.48291,-144.866,508
1569683769,361.541,-51.0108,-13.5062,179.495,2.48291,-144.866,508
1569683769,361.541,-51.0108,-13.5062,179.495,2.48291,-144.866,508
1569683769,361.541,-50.8992,-13.5062,179.495,2.48291,-144.866,508
1569683769,361.541,-50.8992,-13.5062,179.495,2.48291,-144.866,508
1569683769,361.541,-50.8992,-13.5062,179.495,2.48291,-144.866,508
1569683769,361.541,-50.8992,-13.5062,179.495,2.48291,-144.866,508
1569683769,361.541,-50.8992,-13.5062,179.495,2.48291,-144.866,508
1569683769,361.541,-50.8992,-13.5062,179.495,2.48291,-144.866,508
1569683769,361.541,-50.8992,-13.5062,179.495,2.48291,-144.866,508
1569683769,361.541,-50.8992,-13.5062,179.495,2.48291,-144.866,508
1569683769,361.541,-50.8992,-13.5062,179.495,2.48291,-144.866,512
1569683769,361.541,-50.8992,-13.5062,179.495,2.48291,-144.866,512
1569683769,361.541,-50.8992,-13.5062,179.495,2.48291,-144.866,512
1569683769,361.541,-50.8992,-13.5062,179.495,2.48291,-144.866,516
1569683769,361.541,-50.8992,-13.5062,179.495,2.48291,-144.866,516
1569683769,361.541,-50.8992,-13.5062,179.495,2.50488,-144.866,516
1569683769,361.541,-50.8992,-13.5062,179.495,2.50488,-144.866,516
1569683769,361.541,-50.8992,-13.5062,179.495,2.50488,-144.866,516
1569683769,361.541,-50.8992,-13.5062,179.495,2.50488,-144.866,516
1569683769,361.541,-50.8992,-13.5062,179.495,2.50488,-144.866,516
1569683769,361.541,-50.8992,-13.3945,179.495,2.50488,-144.866,516
1569683769,361.541,-50.8992,-13.3945,179.495,2.50488,-144.866,516
1569683769,361.541,-50.8992,-13.3945,179.495,2.50488,-144.866,516
1569683769,361.541,-50.8992,-13.3945,179.495,2.50488,-144.866,516
1569683769,361.541,-51.0108,-13.3945,179.495,2.50488,-144.866,512
1569683769,361.541,-51.0108,-13.3945,179.495,2.50488,-144.866,512
1569683769,361.541,-51.0108,-13.3945,179.495,2.50488,-144.866,512
1569683769,361.541,-51.0108,-13.3945,179.495,2.52686,-144.866,512
1569683769,361.541,-51.0108,-13.3945,179.495,2.52686,-144.866,508
1569683769,361.541,-51.0108,-13.3945,179.495,2.52686,-144.866,508
1569683769,361.541,-51.0108,-13.3945,179.495,2.52686,-144.866,508
1569683769,361.541,-51.0108,-13.3945,179.495,2.52686,-144.866,508
1569683769,361.541,-51.0108,-13.3945,179.495,2.52686,-144.866,504
1569683769,361.541,-51.0108,-13.3945,179.495,2.52686,-144.866,504
1569683769,361.541,-51.0108,-13.3945,179.473,2.52686,-144.866,504
1569683769,361.541,-51.0108,-13.3945,179.473,2.50488,-144.866,504
1569683769,361.541,-51.0108,-13.3945,179.473,2.50488,-144.866,504
1569683769,361.541,-51.0108,-13.3945,179.473,2.50488,-144.866,504
1569683769,361.541,-51.0108,-13.3945,179.495,2.50488,-144.866,504
1569683769,361.541,-51.0108,-13.3945,179.495,2.52686,-144.866,504
1569683769,361.541,-51.0108,-13.3945,179.495,2.52686,-144.866,504
1569683769,361.541,-51.0108,-13.3945,179.495,2.52686,-144.866,504
1569683769,361.541,-51.0108,-13.3945,179.495,2.50488,-144.866,504
1569683769,361.541,-51.0108,-13.3945,179.495,2.50488,-144.866,504
1569683769,361.541,-51.0108,-13.3945,179.495,2.50488,-144.866,504
1569683769,361.541,-51.0108,-13.3945,179.495,2.50488,-144.866,504
1569683769,361.541,-51.0108,-13.3945,179.495,2.50488,-144.866,504
1569683769,361.541,-51.0108,-13.3945,179.495,2.50488,-144.866,504
1569683769,361.541,-51.0108,-13.3945,179.495,2.50488,-144.866,500
1569683769,361.541,-51.0108,-13.3945,179.495,2.50488,-144.866,500
1569683769,361.541,-51.0108,-13.3945,179.495,2.50488,-144.866,500
1569683769,361.541,-51.0108,-13.3945,179.495,2.50488,-144.866,500
1569683769,361.541,-51.0108,-13.3945,179.495,2.50488,-144.866,500
1569683769,361.541,-51.0108,-13.3945,179.495,2.48291,-144.866,500
1569683769,361.541,-51.0108,-13.3945,179.495,2.48291,-144.866,500
1569683769,361.541,-51.0108,-13.3945,179.495,2.48291,-144.866,500
1569683769,361.541,-51.0108,-13.5062,179.495,2.48291,-144.866,500
1569683769,361.541,-51.0108,-13.5062,179.495,2.48291,-144.888,500
1569683769,361.541,-51.0108,-13.5062,179.495,2.48291,-144.888,500
1569683769,361.541,-51.0108,-13.5062,179.495,2.48291,-144.888,500
1569683769,361.541,-51.0108,-13.5062,179.495,2.48291,-144.888,500
1569683769,361.541,-51.0108,-13.5062,179.495,2.48291,-144.888,500
1569683769,361.541,-51.0108,-13.3945,179.495,2.48291,-144.888,500
1569683769,361.541,-50.8992,-13.3945,179.495,2.48291,-144.888,500
1569683769,361.541,-50.8992,-13.3945,179.495,2.48291,-144.888,500
1569683769,361.541,-50.8992,-13.3945,179.495,2.48291,-144.888,500
1569683769,361.541,-50.8992,-13.3945,179.517,2.48291,-144.888,500
1569683770,361.541,-50.8992,-13.3945,179.517,2.50488,-144.866,500
1569683770,361.541,-50.8992,-13.3945,179.517,2.48291,-144.866,500
1569683770,361.541,-50.8992,-13.3945,179.517,2.48291,-144.866,504
1569683770,361.541,-50.8992,-13.3945,179.517,2.48291,-144.866,504
1569683770,361.541,-50.8992,-13.3945,179.517,2.48291,-144.866,504
1569683770,361.541,-50.8992,-13.5062,179.517,2.48291,-144.866,504
1569683770,361.541,-50.8992,-13.5062,179.517,2.48291,-144.866,504
1569683770,361.541,-50.8992,-13.5062,179.517,2.48291,-144.866,504
1569683770,361.541,-50.8992,-13.5062,179.517,2.48291,-144.866,508
1569683770,361.541,-50.8992,-13.5062,179.517,2.48291,-144.866,508
1569683770,361.541,-50.8992,-13.5062,179.517,2.48291,-144.866,508
1569683770,361.541,-50.8992,-13.5062,179.517,2.48291,-144.866,508
1569683770,361.541,-50.8992,-13.5062,179.517,2.48291,-144.866,508
1569683770,361.541,-50.8992,-13.5062,179.517,2.48291,-144.866,508
1569683770,361.541,-50.8992,-13.5062,179.517,2.48291,-144.866,508
1569683770,361.541,-50.8992,-13.5062,179.517,2.48291,-144.866,508
1569683770,361.541,-50.8992,-13.5062,179.517,2.48291,-144.866,508
1569683770,361.541,-50.8992,-13.3945,179.517,2.48291,-144.866,512
1569683770,361.541,-50.8992,-13.3945,179.517,2.48291,-144.866,512
1569683770,361.541,-50.8992,-13.3945,179.517,2.48291,-144.866,512
1569683770,361.541,-50.8992,-13.3945,179.517,2.48291,-144.866,516
1569683770,361.541,-50.8992,-13.3945,179.517,2.50488,-144.866,516
1569683770,361.541,-50.8992,-13.3945,179.495,2.50488,-144.866,520
1569683770,361.541,-50.8992,-13.3945,179.495,2.50488,-144.866,520
1569683770,361.541,-50.8992,-13.3945,179.495,2.50488,-144.866,520
1569683770,361.541,-50.8992,-13.3945,179.495,2.50488,-144.866,524
1569683770,361.541,-50.8992,-13.3945,179.495,2.50488,-144.866,524
1569683770,361.541,-50.8992,-13.3945,179.495,2.50488,-144.866,524
1569683770,361.541,-50.8992,-13.3945,179.495,2.50488,-144.866,524
1569683770,361.541,-50.8992,-13.3945,179.495,2.50488,-144.866,524
1569683770,361.541,-50.8992,-13.3945,179.495,2.52686,-144.866,528
1569683770,361.541,-50.8992,-13.3945,179.495,2.52686,-144.866,528
1569683770,361.541,-50.8992,-13.3945,179.495,2.52686,-144.866,528
1569683770,361.541,-50.8992,-13.3945,179.495,2.52686,-144.866,528
1569683770,361.429,-50.8992,-13.3945,179.495,2.52686,-144.866,528
1569683770,361.429,-50.8992,-13.3945,179.495,2.52686,-144.866,528
1569683770,361.429,-50.8992,-13.3945,179.495,2.52686,-144.888,528
1569683770,361.429,-50.8992,-13.3945,179.517,2.52686,-144.888,532
1569683770,361.429,-50.8992,-13.3945,179.517,2.52686,-144.888,532
1569683770,361.429,-50.8992,-13.3945,179.517,2.52686,-144.888,532
1569683770,361.429,-50.8992,-13.3945,179.517,2.52686,-144.888,532
1569683770,361.429,-50.8992,-13.3945,179.517,2.52686,-144.888,532
1569683770,361.429,-50.8992,-13.3945,179.517,2.52686,-144.888,532
1569683770,361.429,-50.8992,-13.3945,179.517,2.52686,-144.888,532
1569683770,361.429,-50.8992,-13.3945,179.517,2.52686,-144.888,532
1569683770,361.429,-50.8992,-13.3945,179.517,2.52686,-144.888,532
1569683770,361.429,-50.8992,-13.3945,179.517,2.52686,-144.888,532
1569683770,361.429,-50.8992,-13.3945,179.517,2.52686,-144.888,532
1569683770,361.429,-50.8992,-13.3945,179.517,2.52686,-144.888,532
1569683770,361.429,-50.8992,-13.3945,179.517,2.50488,-144.888,532
1569683770,361.429,-50.8992,-13.3945,179.517,2.50488,-144.888,532
1569683770,361.429,-50.8992,-13.3945,179.517,2.50488,-144.888,536
1569683770,361.429,-50.8992,-13.3945,179.517,2.50488,-144.888,536
1569683770,361.429,-50.8992,-13.3945,179.517,2.50488,-144.888,536
1569683770,361.429,-50.8992,-13.3945,179.517,2.50488,-144.888,536
1569683770,361.429,-50.8992,-13.3945,179.517,2.50488,-144.888,536
1569683770,361.429,-50.8992,-13.3945,179.517,2.50488,-144.888,536
1569683770,361.429,-50.8992,-13.3945,179.517,2.50488,-144.888,536
1569683770,361.429,-50.8992,-13.3945,179.517,2.50488,-144.888,536
1569683770,361.429,-50.8992,-13.3945,179.517,2.50488,-144.888,536
1569683770,361.429,-50.8992,-13.3945,179.517,2.50488,-144.888,536
1569683770,361.429,-50.8992,-13.3945,179.517,2.52686,-144.888,536
1569683770,361.429,-50.8992,-13.3945,179.517,2.52686,-144.888,536
1569683770,361.429,-50.8992,-13.3945,179.517,2.50488,-144.888,536
1569683770,361.429,-50.8992,-13.3945,179.517,2.50488,-144.888,536
1569683770,361.429,-50.8992,-13.3945,179.517,2.50488,-144.888,536
1569683770,361.429,-50.8992,-13.3945,179.517,2.50488,-144.888,536
1569683770,361.429,-50.8992,-13.3945,179.517,2.52686,-144.888,536
1569683770,361.429,-50.8992,-13.3945,179.517,2.52686,-144.888,536
1569683770,361.429,-50.8992,-13.3945,179.517,2.52686,-144.888,536
1569683770,361.429,-50.8992,-13.3945,179.517,2.52686,-144.888,536
1569683770,361.429,-50.8992,-13.3945,179.517,2.50488,-144.888,536
1569683770,361.429,-50.8992,-13.3945,179.517,2.50488,-144.888,536
1569683770,361.429,-50.8992,-13.3945,179.517,2.50488,-144.888,536
1569683770,361.429,-50.8992,-13.3945,179.517,2.50488,-144.888,536
1569683770,361.429,-50.8992,-13.3945,179.517,2.50488,-144.888,532
1569683770,361.429,-50.8992,-13.3945,179.517,2.50488,-144.888,532
1569683770,361.429,-50.8992,-13.3945,179.495,2.50488,-144.888,532
1569683770,361.429,-50.8992,-13.3945,179.495,2.50488,-144.888,532
1569683770,361.429,-50.8992,-13.3945,179.495,2.50488,-144.888,532
1569683770,361.429,-50.8992,-13.3945,179.495,2.50488,-144.888,532
1569683770,361.429,-50.8992,-13.3945,179.495,2.50488,-144.888,532
1569683770,361.429,-50.8992,-13.3945,179.495,2.50488,-144.888,532
1569683770,361.429,-50.8992,-13.3945,179.495,2.50488,-144.888,532
1569683770,361.429,-51.0108,-13.3945,179.495,2.50488,-144.888,532
1569683770,361.429,-51.0108,-13.3945,179.495,2.50488,-144.866,532
1569683770,361.429,-51.0108,-13.3945,179.495,2.50488,-144.866,532
1569683770,361.429,-51.0108,-13.3945,179.495,2.50488,-144.866,532
1569683770,361.429,-51.0108,-13.3945,179.495,2.50488,-144.866,532
1569683770,361.429,-51.0108,-13.3945,179.495,2.50488,-144.866,532
1569683770,361.429,-51.0108,-13.3945,179.495,2.50488,-144.866,532
1569683770,361.429,-50.8992,-13.3945,179.495,2.50488,-144.866,532
1569683770,361.429,-50.8992,-13.3945,179.495,2.50488,-144.866,532
1569683770,361.429,-50.8992,-13.3945,179.495,2.50488,-144.866,532
1569683770,361.429,-50.8992,-13.3945,179.495,2.50488,-144.866,536
1569683770,361.429,-50.8992,-13.3945,179.517,2.50488,-144.866,536
1569683770,361.429,-50.8992,-13.3945,179.517,2.50488,-144.866,536
1569683770,361.429,-50.8992,-13.3945,179.517,2.50488,-144.888,536
1569683770,361.429,-50.8992,-13.3945,179.517,2.50488,-144.888,536
1569683771,361.429,-50.8992,-13.3945,179.517,2.50488,-144.888,536
1569683771,361.429,-50.8992,-13.3945,179.517,2.50488,-144.888,536
1569683771,361.429,-50.8992,-13.3945,179.517,2.50488,-144.888,536
1569683771,361.429,-50.8992,-13.3945,179.517,2.52686,-144.888,536
1569683771,361.429,-50.8992,-13.3945,179.517,2.52686,-144.888,536
1569683771,361.429,-50.8992,-13.3945,179.517,2.52686,-144.888,536
1569683771,361.429,-50.8992,-13.3945,179.517,2.52686,-144.888,536
1569683771,361.429,-50.8992,-13.3945,179.517,2.52686,-144.888,536
1569683771,361.429,-50.8992,-13.3945,179.517,2.52686,-144.888,532
1569683771,361.429,-50.8992,-13.3945,179.517,2.52686,-144.888,532
1569683771,361.541,-50.8992,-13.3945,179.517,2.52686,-144.888,532
1569683771,361.541,-50.8992,-13.3945,179.517,2.52686,-144.888,532
1569683771,361.541,-50.8992,-13.3945,179.517,2.52686,-144.888,532
1569683771,361.541,-50.8992,-13.3945,179.517,2.52686,-144.888,532
1569683771,361.541,-50.8992,-13.3945,179.517,2.52686,-144.888,532
1569683771,361.541,-50.8992,-13.3945,179.517,2.52686,-144.888,532
1569683771,361.541,-50.8992,-13.3945,179.517,2.52686,-144.888,532
1569683771,361.541,-50.8992,-13.3945,179.517,2.52686,-144.888,532
1569683771,361.541,-50.8992,-13.3945,179.517,2.52686,-144.888,532
1569683771,361.541,-50.8992,-13.3945,179.517,2.52686,-144.888,532
1569683771,361.541,-50.8992,-13.3945,179.517,2.52686,-144.888,532
1569683771,361.541,-50.8992,-13.3945,179.517,2.50488,-144.888,532
1569683771,361.541,-50.8992,-13.3945,179.517,2.50488,-144.888,532
1569683771,361.541,-50.8992,-13.3945,179.517,2.50488,-144.888,532
1569683771,361.541,-50.8992,-13.3945,179.517,2.50488,-144.888,532
1569683771,361.541,-50.8992,-13.3945,179.517,2.50488,-144.888,532
1569683771,361.541,-50.8992,-13.3945,179.517,2.50488,-144.888,532
1569683771,361.541,-50.8992,-13.3945,179.517,2.50488,-144.888,532
1569683771,361.541,-50.8992,-13.3945,179.517,2.50488,-144.888,532
1569683771,361.541,-50.8992,-13.3945,179.517,2.50488,-144.888,532
1569683771,361.541,-50.8992,-13.3945,179.517,2.50488,-144.888,532
1569683771,361.541,-50.8992,-13.3945,179.517,2.50488,-144.888,532
1569683771,361.541,-50.8992,-13.3945,179.517,2.50488,-144.888,532
1569683771,361.541,-50.8992,-13.3945,179.517,2.50488,-144.888,532
1569683771,361.541,-50.8992,-13.3945,179.517,2.50488,-144.888,532
1569683771,361.541,-50.8992,-13.3945,179.517,2.50488,-144.888,532
1569683771,361.541,-50.8992,-13.3945,179.517,2.50488,-144.888,532
1569683771,361.541,-50.8992,-13.3945,179.517,2.50488,-144.888,532
1569683771,361.541,-50.8992,-13.3945,179.517,2.52686,-144.888,532
1569683771,361.541,-50.8992,-13.3945,179.517,2.52686,-144.888,532
1569683771,361.541,-50.8992,-13.3945,179.517,2.52686,-144.888,528
1569683771,361.541,-50.8992,-13.3945,179.517,2.52686,-144.888,528
1569683771,361.541,-50.8992,-13.3945,179.517,2.52686,-144.888,528
1569683771,361.541,-50.8992,-13.3945,179.517,2.52686,-144.888,528
1569683771,361.541,-50.8992,-13.3945,179.517,2.52686,-144.888,528
1569683771,361.541,-50.8992,-13.3945,179.517,2.52686,-144.888,528
1569683771,361.541,-50.8992,-13.3945,179.517,2.52686,-144.888,528
1569683771,361.541,-50.8992,-13.3945,179.517,2.52686,-144.888,528
1569683771,361.541,-50.8992,-13.3945,179.517,2.52686,-144.888,528
1569683771,361.541,-50.8992,-13.3945,179.517,2.52686,-144.888,528
1569683771,361.541,-50.8992,-13.3945,179.517,2.52686,-144.888,524
1569683771,361.541,-50.8992,-13.3945,179.517,2.52686,-144.866,524
1569683771,361.541,-50.8992,-13.3945,179.517,2.52686,-144.866,524
1569683771,361.541,-50.8992,-13.3945,179.517,2.52686,-144.866,520
1569683771,361.541,-50.8992,-13.3945,179.517,2.52686,-144.866,520
1569683771,361.541,-50.8992,-13.3945,179.517,2.52686,-144.866,520
1569683771,361.541,-50.8992,-13.3945,179.517,2.52686,-144.866,520
1569683771,361.541,-50.8992,-13.3945,179.517,2.52686,-144.866,516
1569683771,361.541,-50.8992,-13.3945,179.517,2.52686,-144.866,516
1569683771,361.541,-50.8992,-13.3945,179.517,2.52686,-144.866,516
1569683771,361.541,-50.8992,-13.3945,179.517,2.52686,-144.888,512
