time,x,y,z,ax,ay,az,q
1569923869,384.646,15.627,-2.00918,177.913,5.55908,-145.283,1528
1569923869,384.646,15.627,-2.00918,177.913,5.55908,-145.283,1528
1569923869,384.646,15.627,-2.00918,177.913,5.55908,-145.283,1528
1569923869,384.646,15.627,-2.00918,177.913,5.55908,-145.283,1528
1569923869,384.646,15.627,-2.00918,177.913,5.55908,-145.283,1528
1569923869,384.646,15.627,-2.00918,177.935,5.55908,-145.283,1532
1569923869,384.646,15.627,-2.00918,177.935,5.55908,-145.283,1532
1569923869,384.646,15.627,-2.00918,177.935,5.55908,-145.283,1532
1569923869,384.646,15.627,-2.00918,177.935,5.55908,-145.283,1532
1569923869,384.646,15.627,-2.00918,177.913,5.55908,-145.283,1532
1569923869,384.646,15.627,-2.00918,177.913,5.53711,-145.283,1536
1569923869,384.646,15.627,-2.00918,177.913,5.53711,-145.283,1536
1569923869,384.646,15.627,-2.00918,177.913,5.55908,-145.283,1536
1569923869,384.646,15.627,-2.00918,177.913,5.55908,-145.283,1536
1569923869,384.646,15.5153,-2.00918,177.913,5.55908,-145.283,1536
1569923869,384.646,15.5153,-2.00918,177.891,5.53711,-145.283,1536
1569923869,384.646,15.5153,-2.00918,177.891,5.53711,-145.283,1536
1569923869,384.646,15.5153,-2.00918,177.891,5.53711,-145.283,1536
1569923869,384.646,15.5153,-2.00918,177.891,5.53711,-145.261,1536
1569923869,384.646,15.5153,-2.00918,177.891,5.53711,-145.261,1536
1569923869,384.646,15.5153,-2.00918,177.891,5.53711,-145.283,1536
1569923869,384.646,15.5153,-2.00918,177.869,5.53711,-145.283,1536
1569923869,384.646,15.5153,-2.00918,177.869,5.53711,-145.283,1532
1569923869,384.646,15.5153,-2.00918,177.869,5.53711,-145.283,1532
1569923869,384.646,15.4037,-2.00918,177.869,5.53711,-145.283,1532
1569923869,384.646,15.4037,-2.00918,177.869,5.53711,-145.283,1532
1569923869,384.646,15.4037,-2.00918,177.869,5.53711,-145.283,1528
1569923869,384.646,15.4037,-2.00918,177.869,5.53711,-145.283,1528
1569923869,384.646,15.4037,-2.00918,177.869,5.53711,-145.283,1528
1569923869,384.646,15.4037,-2.00918,177.869,5.53711,-145.283,1528
1569923869,384.646,15.4037,-2.00918,177.869,5.53711,-145.283,1524
1569923869,384.646,15.4037,-2.00918,177.869,5.53711,-145.283,1524
1569923869,384.646,15.4037,-2.00918,177.869,5.53711,-145.283,1524
1569923869,384.646,15.4037,-2.00918,177.869,5.53711,-145.283,1520
1569923869,384.646,15.4037,-2.00918,177.869,5.53711,-145.283,1520
1569923869,384.646,15.4037,-2.00918,177.869,5.53711,-145.283,1520
1569923869,384.646,15.4037,-2.00918,177.869,5.53711,-145.283,1520
1569923869,384.646,15.5153,-2.00918,177.869,5.53711,-145.283,1520
1569923869,384.646,15.5153,-2.00918,177.869,5.55908,-145.283,1520
1569923869,384.646,15.5153,-2.00918,177.869,5.55908,-145.283,1520
1569923870,384.646,15.5153,-2.00918,177.869,5.55908,-145.283,1520
1569923870,384.646,15.5153,-2.00918,177.869,5.55908,-145.283,1520
1569923870,384.646,15.4037,-2.00918,177.869,5.55908,-145.283,1520
1569923870,384.646,15.4037,-2.00918,177.869,5.55908,-145.283,1520
1569923870,384.646,15.4037,-2.00918,177.869,5.55908,-145.283,1524
1569923870,384.646,15.4037,-2.00918,177.869,5.55908,-145.283,1524
1569923870,384.646,15.4037,-2.00918,177.847,5.55908,-145.283,1524
1569923870,384.646,15.4037,-2.00918,177.847,5.55908,-145.283,1524
1569923870,384.646,15.4037,-2.00918,177.847,5.55908,-145.283,1528
1569923870,384.646,15.4037,-2.00918,177.869,5.55908,-145.283,1528
1569923870,384.646,15.4037,-2.00918,177.869,5.55908,-145.283,1528
1569923870,384.646,15.4037,-1.89756,177.869,5.55908,-145.283,1528
1569923870,384.646,15.5153,-1.89756,177.869,5.55908,-145.283,1528
1569923870,384.646,15.5153,-1.89756,177.869,5.58105,-145.283,1532
1569923870,384.646,15.5153,-1.89756,177.869,5.58105,-145.283,1532
1569923870,384.646,15.5153,-1.89756,177.891,5.58105,-145.283,1532
1569923870,384.646,15.5153,-1.89756,177.891,5.58105,-145.283,1532
1569923870,384.646,15.5153,-1.89756,177.891,5.58105,-145.283,1536
1569923870,384.646,15.5153,-1.89756,177.891,5.58105,-145.283,1536
1569923870,384.646,15.5153,-1.89756,177.891,5.58105,-145.283,1536
1569923870,384.646,15.5153,-1.89756,177.891,5.58105,-145.283,1540
1569923870,384.646,15.5153,-1.89756,177.891,5.58105,-145.283,1540
1569923870,384.646,15.5153,-1.89756,177.891,5.58105,-145.283,1540
1569923870,384.646,15.5153,-1.89756,177.891,5.58105,-145.283,1540
1569923870,384.646,15.5153,-1.89756,177.891,5.58105,-145.283,1540
1569923870,384.646,15.5153,-1.89756,177.891,5.58105,-145.283,1544
1569923870,384.646,15.5153,-1.89756,177.891,5.58105,-145.283,1544
1569923870,384.646,15.5153,-1.89756,177.891,5.58105,-145.283,1544
1569923870,384.646,15.5153,-1.89756,177.869,5.58105,-145.283,1544
1569923870,384.646,15.5153,-1.89756,177.869,5.58105,-145.283,1544
1569923870,384.646,15.5153,-1.89756,177.869,5.58105,-145.283,1544
1569923870,384.646,15.5153,-1.89756,177.869,5.58105,-145.283,1544
1569923870,384.646,15.4037,-1.89756,177.869,5.55908,-145.283,1544
1569923870,384.646,15.4037,-1.89756,177.869,5.55908,-145.283,1544
1569923870,384.646,15.4037,-1.89756,177.869,5.55908,-145.283,1544
1569923870,384.646,15.4037,-2.00918,177.869,5.55908,-145.283,1544
1569923870,384.646,15.4037,-2.00918,177.847,5.55908,-145.283,1544
1569923870,384.646,15.4037,-2.00918,177.847,5.55908,-145.283,1544
1569923870,384.646,15.4037,-2.00918,177.847,5.55908,-145.283,1544
1569923870,384.646,15.4037,-2.00918,177.847,5.55908,-145.283,1544
1569923870,384.646,15.4037,-2.00918,177.847,5.55908,-145.283,1544
1569923870,384.646,15.4037,-2.00918,177.847,5.55908,-145.305,1544
1569923870,384.646,15.4037,-2.00918,177.847,5.55908,-145.305,1544
1569923870,384.646,15.4037,-2.00918,177.847,5.55908,-145.305,1544
1569923870,384.646,15.4037,-2.00918,177.847,5.55908,-145.305,1540
1569923870,384.646,15.4037,-1.89756,177.847,5.55908,-145.305,1540
1569923870,384.646,15.4037,-1.89756,177.847,5.55908,-145.305,1540
1569923870,384.646,15.4037,-1.89756,177.847,5.55908,-145.305,1540
1569923870,384.646,15.4037,-1.89756,177.847,5.55908,-145.305,1540
1569923870,384.646,15.4037,-1.89756,177.847,5.55908,-145.305,1540
1569923870,384.646,15.4037,-1.89756,177.847,5.58105,-145.305,1540
1569923870,384.646,15.4037,-1.89756,177.847,5.58105,-145.305,1540
1569923870,384.646,15.4037,-1.89756,177.847,5.58105,-145.283,1540
1569923870,384.646,15.4037,-1.89756,177.869,5.58105,-145.283,1540
1569923870,384.646,15.5153,-1.89756,177.869,5.58105,-145.283,1540
1569923870,384.646,15.5153,-1.89756,177.869,5.55908,-145.283,1540
1569923870,384.646,15.5153,-1.89756,177.869,5.55908,-145.283,1540
1569923870,384.646,15.5153,-1.89756,177.869,5.55908,-145.283,1540
1569923870,384.646,15.5153,-1.89756,177.869,5.55908,-145.283,1540
1569923870,384.646,15.5153,-1.89756,177.869,5.55908,-145.283,1540
1569923870,384.646,15.5153,-2.00918,177.869,5.55908,-145.283,1536
1569923870,384.646,15.5153,-2.00918,177.869,5.55908,-145.283,1536
1569923870,384.646,15.5153,-2.00918,177.869,5.55908,-145.283,1536
1569923870,384.646,15.5153,-2.00918,177.869,5.55908,-145.283,1536
1569923870,384.646,15.5153,-2.00918,177.891,5.55908,-145.283,1536
1569923870,384.646,15.5153,-2.00918,177.891,5.55908,-145.283,1536
1569923870,384.646,15.5153,-2.00918,177.891,5.55908,-145.283,1536
1569923870,384.646,15.5153,-2.00918,177.891,5.55908,-145.283,1536
1569923870,384.646,15.5153,-2.00918,177.891,5.55908,-145.283,1536
1569923870,384.646,15.5153,-2.00918,177.891,5.55908,-145.283,1532
1569923870,384.646,15.5153,-2.00918,177.891,5.55908,-145.283,1532
1569923870,384.646,15.5153,-2.00918,177.891,5.55908,-145.283,1532
1569923870,384.646,15.5153,-2.00918,177.891,5.55908,-145.283,1532
1569923870,384.646,15.5153,-2.00918,177.891,5.55908,-145.283,1532
1569923870,384.646,15.5153,-1.89756,177.891,5.55908,-145.283,1532
1569923870,384.646,15.5153,-1.89756,177.891,5.55908,-145.283,1532
1569923870,384.646,15.5153,-1.89756,177.891,5.55908,-145.283,1532
1569923870,384.646,15.5153,-1.89756,177.891,5.55908,-145.283,1528
1569923870,384.646,15.5153,-1.89756,177.891,5.55908,-145.283,1528
1569923870,384.646,15.5153,-1.89756,177.891,5.55908,-145.283,1528
1569923870,384.646,15.5153,-1.89756,177.891,5.55908,-145.283,1528
1569923870,384.646,15.5153,-1.89756,177.891,5.55908,-145.283,1528
1569923870,384.646,15.5153,-1.89756,177.891,5.55908,-145.283,1528
1569923870,384.646,15.5153,-2.00918,177.891,5.55908,-145.283,1528
1569923870,384.646,15.5153,-2.00918,177.891,5.55908,-145.283,1528
1569923870,384.646,15.5153,-2.00918,177.891,5.55908,-145.283,1524
1569923870,384.646,15.5153,-2.00918,177.891,5.55908,-145.283,1524
1569923870,384.646,15.5153,-2.00918,177.891,5.55908,-145.283,1524
1569923870,384.646,15.5153,-2.00918,177.891,5.55908,-145.283,1524
1569923870,384.646,15.5153,-2.00918,177.891,5.55908,-145.283,1524
1569923870,384.646,15.5153,-2.00918,177.891,5.55908,-145.283,1524
1569923870,384.646,15.5153,-2.00918,177.891,5.55908,-145.283,1524
1569923870,384.646,15.5153,-2.00918,177.891,5.55908,-145.283,1524
1569923870,384.646,15.5153,-2.00918,177.891,5.55908,-145.283,1524
1569923870,384.646,15.5153,-2.00918,177.891,5.55908,-145.283,1524
1569923870,384.646,15.5153,-2.00918,177.891,5.55908,-145.283,1524
1569923870,384.646,15.5153,-2.00918,177.891,5.55908,-145.283,1524
1569923870,384.646,15.5153,-2.00918,177.891,5.55908,-145.283,1524
1569923870,384.646,15.5153,-2.00918,177.891,5.55908,-145.283,1520
1569923870,384.646,15.5153,-2.00918,177.891,5.55908,-145.283,1520
1569923871,384.646,15.5153,-2.00918,177.891,5.55908,-145.283,1520
1569923871,384.646,15.5153,-2.00918,177.891,5.55908,-145.283,1520
1569923871,384.646,15.5153,-2.00918,177.891,5.55908,-145.283,1520
1569923871,384.646,15.5153,-2.00918,177.891,5.55908,-145.283,1520
1569923871,384.646,15.5153,-2.00918,177.891,5.55908,-145.283,1524
1569923871,384.646,15.5153,-2.00918,177.891,5.55908,-145.283,1524
1569923871,384.646,15.5153,-2.00918,177.869,5.55908,-145.283,1524
1569923871,384.646,15.5153,-2.00918,177.869,5.55908,-145.283,1524
1569923871,384.646,15.5153,-2.00918,177.869,5.53711,-145.283,1528
1569923871,384.646,15.5153,-2.00918,177.869,5.53711,-145.283,1528
1569923871,384.646,15.5153,-2.00918,177.869,5.53711,-145.283,1528
1569923871,384.646,15.5153,-2.00918,177.869,5.53711,-145.283,1528
1569923871,384.758,15.5153,-2.00918,177.869,5.55908,-145.283,1532
1569923871,384.646,15.4037,-2.00918,177.869,5.55908,-145.283,1532
1569923871,384.646,15.4037,-2.00918,177.869,5.55908,-145.283,1532
1569923871,384.646,15.4037,-2.00918,177.869,5.55908,-145.283,1532
1569923871,384.646,15.4037,-2.00918,177.869,5.55908,-145.283,1532
1569923871,384.646,15.4037,-2.00918,177.869,5.55908,-145.283,1532
1569923871,384.646,15.4037,-2.00918,177.869,5.55908,-145.283,1532
1569923871,384.646,15.4037,-2.00918,177.869,5.55908,-145.283,1532
1569923871,384.646,15.4037,-2.00918,177.869,5.55908,-145.283,1532
1569923871,384.646,15.4037,-2.00918,177.869,5.55908,-145.261,1532
1569923871,384.646,15.4037,-2.00918,177.869,5.55908,-145.261,1532
1569923871,384.646,15.4037,-2.00918,177.869,5.55908,-145.261,1532
1569923871,384.646,15.4037,-2.00918,177.869,5.55908,-145.261,1532
1569923871,384.646,15.4037,-2.00918,177.869,5.55908,-145.261,1536
1569923871,384.646,15.5153,-2.00918,177.869,5.55908,-145.261,1536
1569923871,384.646,15.5153,-2.00918,177.869,5.55908,-145.261,1536
1569923871,384.646,15.4037,-2.00918,177.869,5.55908,-145.261,1536
1569923871,384.646,15.4037,-2.00918,177.869,5.55908,-145.261,1536
1569923871,384.646,15.4037,-2.00918,177.869,5.55908,-145.261,1536
1569923871,384.646,15.4037,-2.00918,177.869,5.55908,-145.261,1536
1569923871,384.646,15.4037,-2.00918,177.869,5.55908,-145.261,1536
1569923871,384.646,15.4037,-2.00918,177.869,5.55908,-145.261,1536
1569923871,384.646,15.4037,-2.00918,177.869,5.55908,-145.283,1536
1569923871,384.646,15.4037,-2.00918,177.869,5.55908,-145.283,1536
1569923871,384.646,15.4037,-2.00918,177.869,5.55908,-145.283,1536
1569923871,384.646,15.4037,-2.00918,177.869,5.55908,-145.283,1536
1569923871,384.646,15.4037,-2.00918,177.869,5.55908,-145.283,1536
1569923871,384.646,15.4037,-2.00918,177.869,5.55908,-145.283,1536
1569923871,384.646,15.4037,-1.89756,177.869,5.55908,-145.283,1536
1569923871,384.646,15.4037,-1.89756,177.869,5.55908,-145.283,1536
1569923871,384.646,15.4037,-2.00918,177.869,5.55908,-145.283,1536
1569923871,384.646,15.5153,-2.00918,177.869,5.55908,-145.283,1536
1569923871,384.646,15.5153,-2.00918,177.869,5.55908,-145.283,1536
1569923871,384.646,15.5153,-2.00918,177.869,5.55908,-145.283,1536
1569923871,384.646,15.5153,-2.00918,177.891,5.55908,-145.283,1536
1569923871,384.646,15.5153,-2.00918,177.869,5.55908,-145.283,1536
1569923871,384.646,15.5153,-2.00918,177.869,5.55908,-145.283,1536
1569923871,384.646,15.5153,-2.00918,177.869,5.55908,-145.283,1536
1569923871,384.646,15.5153,-2.00918,177.869,5.55908,-145.283,1536
1569923871,384.646,15.5153,-2.00918,177.891,5.55908,-145.283,1536
1569923871,384.646,15.5153,-2.00918,177.891,5.55908,-145.283,1536
1569923871,384.646,15.5153,-2.00918,177.891,5.55908,-145.283,1536
1569923871,384.646,15.5153,-1.89756,177.891,5.55908,-145.283,1532
1569923871,384.646,15.5153,-1.89756,177.891,5.55908,-145.283,1532
1569923871,384.646,15.5153,-1.89756,177.891,5.55908,-145.283,1532
1569923871,384.646,15.5153,-1.89756,177.891,5.55908,-145.283,1532
1569923871,384.646,15.5153,-1.89756,177.891,5.55908,-145.305,1532
1569923871,384.646,15.5153,-1.89756,177.891,5.55908,-145.305,1532
1569923871,384.646,15.5153,-1.89756,177.891,5.55908,-145.305,1532
1569923871,384.646,15.5153,-1.89756,177.891,5.55908,-145.305,1536
1569923871,384.646,15.5153,-1.89756,177.891,5.55908,-145.305,1536
1569923871,384.646,15.5153,-2.00918,177.891,5.55908,-145.305,1536
1569923871,384.646,15.5153,-2.00918,177.891,5.55908,-145.305,1536
1569923871,384.646,15.5153,-2.00918,177.891,5.55908,-145.305,1536
1569923871,384.646,15.5153,-2.00918,177.891,5.55908,-145.305,1536
1569923871,384.646,15.5153,-2.00918,177.891,5.55908,-145.305,1536
1569923871,384.646,15.5153,-2.00918,177.869,5.55908,-145.305,1536
1569923871,384.646,15.5153,-2.00918,177.869,5.55908,-145.305,1536
1569923871,384.646,15.5153,-2.00918,177.869,5.55908,-145.305,1536
1569923871,384.646,15.5153,-2.00918,177.869,5.55908,-145.305,1536
1569923871,384.646,15.5153,-2.00918,177.869,5.55908,-145.305,1540
1569923871,384.646,15.5153,-2.00918,177.869,5.55908,-145.305,1540
1569923871,384.646,15.5153,-2.00918,177.891,5.55908,-145.305,1540
1569923871,384.646,15.5153,-1.89756,177.891,5.55908,-145.305,1540
1569923871,384.646,15.5153,-1.89756,177.891,5.55908,-145.327,1540
1569923871,384.646,15.5153,-1.89756,177.891,5.55908,-145.327,1540
1569923871,384.646,15.5153,-2.00918,177.891,5.55908,-145.327,1540
1569923871,384.646,15.5153,-2.00918,177.891,5.55908,-145.327,1540
1569923871,384.646,15.5153,-2.00918,177.891,5.55908,-145.327,1540
1569923871,384.646,15.5153,-2.00918,177.891,5.55908,-145.327,1540
1569923871,384.646,15.5153,-2.00918,177.891,5.55908,-145.327,1536
1569923871,384.646,15.5153,-2.00918,177.891,5.55908,-145.327,1536
1569923871,384.646,15.5153,-2.00918,177.891,5.55908,-145.327,1536
1569923871,384.646,15.5153,-2.00918,177.891,5.55908,-145.305,1536
1569923871,384.646,15.5153,-2.00918,177.891,5.55908,-145.305,1536
1569923871,384.646,15.5153,-2.00918,177.891,5.55908,-145.305,1536
1569923871,384.646,15.5153,-2.00918,177.891,5.55908,-145.305,1532
1569923871,384.646,15.5153,-1.89756,177.891,5.55908,-145.305,1532
1569923871,384.646,15.5153,-1.89756,177.891,5.55908,-145.305,1532
1569923871,384.646,15.5153,-1.89756,177.891,5.55908,-145.305,1532
1569923871,384.535,15.5153,-1.89756,177.891,5.55908,-145.305,1532
1569923871,384.535,15.5153,-1.89756,177.891,5.55908,-145.305,1532
1569923871,384.535,15.5153,-1.89756,177.891,5.55908,-145.305,1532
1569923871,384.535,15.5153,-1.89756,177.891,5.55908,-145.305,1532
1569923871,384.535,15.5153,-1.89756,177.891,5.55908,-145.305,1532
1569923871,384.535,15.5153,-1.89756,177.891,5.55908,-145.305,1532
1569923871,384.535,15.5153,-1.89756,177.891,5.55908,-145.305,1528
1569923871,384.535,15.5153,-1.89756,177.891,5.55908,-145.305,1528
1569923872,384.535,15.5153,-2.00918,177.891,5.55908,-145.305,1528
1569923872,384.535,15.5153,-2.00918,177.891,5.55908,-145.305,1528
1569923872,384.535,15.5153,-2.00918,177.891,5.53711,-145.305,1528
1569923872,384.535,15.5153,-2.00918,177.891,5.53711,-145.305,1528
1569923872,384.535,15.5153,-2.00918,177.891,5.53711,-145.305,1528
1569923872,384.535,15.5153,-2.00918,177.891,5.53711,-145.305,1528
1569923872,384.535,15.5153,-2.00918,177.891,5.53711,-145.305,1528
1569923872,384.535,15.5153,-2.00918,177.891,5.53711,-145.305,1528
1569923872,384.535,15.5153,-2.00918,177.891,5.53711,-145.305,1528
1569923872,384.535,15.5153,-2.00918,177.891,5.53711,-145.305,1528
1569923872,384.535,15.4037,-2.00918,177.891,5.51514,-145.305,1528
1569923872,384.535,15.4037,-2.00918,177.891,5.51514,-145.305,1524
1569923872,384.535,15.4037,-2.00918,177.891,5.53711,-145.305,1524
1569923872,384.535,15.4037,-2.00918,177.891,5.53711,-145.305,1524
1569923872,384.535,15.4037,-2.00918,177.869,5.53711,-145.305,1524
1569923872,384.535,15.4037,-2.00918,177.869,5.53711,-145.305,1520
1569923872,384.535,15.4037,-2.00918,177.869,5.53711,-145.305,1520
1569923872,384.535,15.4037,-2.00918,177.869,5.53711,-145.305,1520
1569923872,384.535,15.4037,-2.00918,177.869,5.53711,-145.305,1520
1569923872,384.535,15.4037,-2.00918,177.869,5.53711,-145.283,1520
1569923872,384.535,15.4037,-2.00918,177.869,5.53711,-145.283,1516
1569923872,384.535,15.4037,-2.00918,177.869,5.53711,-145.283,1516
1569923872,384.535,15.4037,-2.00918,177.869,5.53711,-145.283,1516
1569923872,384.535,15.4037,-2.00918,177.869,5.53711,-145.283,1516
1569923872,384.535,15.4037,-2.00918,177.869,5.53711,-145.283,1516
1569923872,384.535,15.4037,-2.00918,177.869,5.53711,-145.283,1516
1569923872,384.646,15.4037,-2.00918,177.869,5.53711,-145.283,1516
1569923872,384.646,15.4037,-2.00918,177.869,5.53711,-145.283,1516
1569923872,384.646,15.4037,-2.00918,177.869,5.53711,-145.283,1516
1569923872,384.646,15.4037,-2.00918,177.869,5.53711,-145.283,1516
1569923872,384.646,15.4037,-2.00918,177.869,5.53711,-145.283,1520
1569923872,384.646,15.4037,-2.00918,177.869,5.55908,-145.283,1520
1569923872,384.646,15.4037,-2.00918,177.869,5.53711,-145.283,1524
1569923872,384.646,15.4037,-2.00918,177.869,5.53711,-145.283,1524
1569923872,384.646,15.4037,-2.00918,177.869,5.53711,-145.261,1524
1569923872,384.646,15.4037,-2.00918,177.869,5.53711,-145.261,1528
1569923872,384.646,15.4037,-2.00918,177.869,5.53711,-145.261,1528
1569923872,384.646,15.4037,-2.00918,177.847,5.53711,-145.261,1532
1569923872,384.646,15.4037,-2.00918,177.847,5.53711,-145.261,1532
1569923872,384.646,15.4037,-2.00918,177.847,5.53711,-145.261,1532
1569923872,384.646,15.4037,-2.00918,177.869,5.53711,-145.261,1532
1569923872,384.646,15.4037,-2.00918,177.869,5.53711,-145.261,1536
1569923872,384.646,15.4037,-2.00918,177.869,5.53711,-145.261,1536
1569923872,384.646,15.4037,-2.00918,177.869,5.55908,-145.261,1536
1569923872,384.646,15.4037,-2.00918,177.869,5.55908,-145.261,1536
1569923872,384.646,15.4037,-2.00918,177.869,5.55908,-145.261,1536
1569923872,384.646,15.4037,-2.00918,177.869,5.55908,-145.261,1536
1569923872,384.646,15.4037,-1.89756,177.869,5.55908,-145.283,1536
1569923872,384.646,15.4037,-1.89756,177.869,5.55908,-145.283,1536
1569923872,384.646,15.4037,-1.89756,177.869,5.55908,-145.283,1536
1569923872,384.646,15.4037,-1.89756,177.869,5.55908,-145.283,1540
1569923872,384.646,15.5153,-1.89756,177.869,5.55908,-145.283,1540
1569923872,384.646,15.5153,-1.89756,177.869,5.55908,-145.283,1540
1569923872,384.646,15.5153,-1.89756,177.891,5.55908,-145.283,1540
1569923872,384.646,15.5153,-1.89756,177.891,5.55908,-145.283,1540
1569923872,384.646,15.5153,-1.89756,177.891,5.55908,-145.305,1540
1569923872,384.646,15.5153,-1.89756,177.891,5.55908,-145.305,1540
1569923872,384.646,15.5153,-1.89756,177.891,5.55908,-145.305,1544
1569923872,384.646,15.5153,-1.89756,177.891,5.58105,-145.305,1544
1569923872,384.646,15.5153,-1.89756,177.891,5.58105,-145.305,1544
1569923872,384.646,15.5153,-1.89756,177.891,5.58105,-145.305,1544
1569923872,384.646,15.5153,-1.89756,177.891,5.58105,-145.283,1544
1569923872,384.646,15.5153,-1.89756,177.891,5.58105,-145.283,1544
1569923872,384.646,15.5153,-1.89756,177.891,5.58105,-145.283,1544
1569923872,384.646,15.5153,-1.89756,177.891,5.58105,-145.283,1544
1569923872,384.646,15.5153,-1.89756,177.891,5.58105,-145.283,1544
1569923872,384.646,15.5153,-1.89756,177.891,5.58105,-145.283,1544
1569923872,384.646,15.5153,-1.89756,177.891,5.58105,-145.283,1544
1569923872,384.646,15.5153,-1.89756,177.891,5.58105,-145.283,1544
1569923872,384.535,15.5153,-1.89756,177.891,5.58105,-145.283,1544
1569923872,384.535,15.5153,-1.89756,177.891,5.58105,-145.283,1540
1569923872,384.535,15.5153,-1.89756,177.891,5.58105,-145.283,1540
1569923872,384.535,15.5153,-1.89756,177.891,5.55908,-145.283,1540
1569923872,384.535,15.5153,-1.89756,177.891,5.55908,-145.283,1536
1569923872,384.535,15.5153,-1.89756,177.891,5.55908,-145.283,1536
1569923872,384.535,15.5153,-2.00918,177.891,5.55908,-145.283,1536
1569923872,384.535,15.5153,-2.00918,177.891,5.55908,-145.283,1532
1569923872,384.646,15.5153,-2.00918,177.891,5.55908,-145.283,1532
1569923872,384.646,15.5153,-2.00918,177.891,5.55908,-145.261,1532
1569923872,384.646,15.5153,-2.00918,177.891,5.55908,-145.261,1532
1569923872,384.646,15.5153,-2.00918,177.891,5.55908,-145.261,1528
1569923872,384.646,15.5153,-2.00918,177.891,5.55908,-145.283,1528
1569923872,384.646,15.5153,-2.00918,177.869,5.55908,-145.283,1528
1569923872,384.646,15.5153,-2.00918,177.869,5.55908,-145.283,1528
1569923872,384.646,15.5153,-2.00918,177.869,5.55908,-145.283,1524
1569923872,384.646,15.5153,-2.00918,177.869,5.55908,-145.283,1524
1569923872,384.646,15.4037,-2.00918,177.869,5.55908,-145.283,1524
1569923872,384.646,15.4037,-2.00918,177.869,5.55908,-145.283,1524
1569923872,384.646,15.4037,-2.00918,177.869,5.55908,-145.283,1524
1569923872,384.646,15.4037,-2.00918,177.869,5.55908,-145.283,1524
1569923872,384.646,15.5153,-2.00918,177.869,5.55908,-145.283,1524
1569923872,384.646,15.5153,-2.00918,177.869,5.55908,-145.283,1524
1569923872,384.646,15.5153,-2.00918,177.869,5.55908,-145.283,1524
1569923872,384.646,15.5153,-2.00918,177.869,5.55908,-145.283,1524
1569923872,384.646,15.5153,-2.00918,177.869,5.55908,-145.283,1524
1569923872,384.646,15.5153,-2.00918,177.869,5.55908,-145.283,1524
1569923872,384.646,15.5153,-2.00918,177.869,5.55908,-145.283,1524
1569923872,384.646,15.5153,-2.00918,177.869,5.55908,-145.283,1524
1569923872,384.646,15.5153,-2.00918,177.869,5.55908,-145.283,1524
1569923872,384.646,15.5153,-2.00918,177.869,5.55908,-145.283,1524
1569923873,384.646,15.5153,-2.00918,177.869,5.55908,-145.283,1524
1569923873,384.646,15.5153,-2.00918,177.869,5.55908,-145.283,1524
1569923873,384.646,15.5153,-2.00918,177.869,5.55908,-145.283,1524
1569923873,384.646,15.5153,-2.00918,177.869,5.55908,-145.283,1524
1569923873,384.646,15.5153,-2.00918,177.869,5.55908,-145.283,1524
1569923873,384.646,15.5153,-2.00918,177.869,5.55908,-145.283,1524
1569923873,384.646,15.5153,-2.00918,177.869,5.55908,-145.283,1524
1569923873,384.646,15.5153,-2.00918,177.869,5.55908,-145.283,1524
1569923873,384.646,15.5153,-2.00918,177.869,5.55908,-145.283,1524
1569923873,384.646,15.5153,-2.00918,177.891,5.55908,-145.283,1524
1569923873,384.646,15.5153,-2.00918,177.891,5.55908,-145.283,1524
1569923873,384.646,15.5153,-2.00918,177.891,5.55908,-145.283,1524
1569923873,384.646,15.5153,-2.00918,177.891,5.55908,-145.283,1524
1569923873,384.646,15.5153,-2.00918,177.891,5.55908,-145.283,1524
1569923873,384.646,15.5153,-2.00918,177.891,5.55908,-145.283,1524
1569923873,384.646,15.5153,-2.00918,177.891,5.55908,-145.283,1524
1569923873,384.646,15.5153,-2.00918,177.891,5.55908,-145.283,1524
1569923873,384.646,15.5153,-2.00918,177.891,5.55908,-145.283,1524
1569923873,384.646,15.5153,-2.00918,177.891,5.55908,-145.283,1524
1569923873,384.646,15.5153,-2.00918,177.891,5.55908,-145.261,1528
1569923873,384.646,15.5153,-2.00918,177.891,5.55908,-145.261,1528
1569923873,384.646,15.5153,-2.00918,177.891,5.55908,-145.261,1528
1569923873,384.646,15.5153,-2.00918,177.891,5.55908,-145.261,1528
1569923873,384.758,15.5153,-2.00918,177.891,5.55908,-145.261,1528
1569923873,384.758,15.5153,-2.00918,177.891,5.55908,-145.261,1532
1569923873,384.758,15.5153,-2.00918,177.891,5.55908,-145.261,1532
1569923873,384.758,15.5153,-2.00918,177.891,5.55908,-145.261,1532
1569923873,384.758,15.5153,-2.00918,177.891,5.55908,-145.261,1532
1569923873,384.758,15.5153,-2.00918,177.891,5.55908,-145.261,1532
1569923873,384.758,15.5153,-2.00918,177.891,5.55908,-145.261,1532
1569923873,384.758,15.5153,-2.00918,177.891,5.55908,-145.261,1532
1569923873,384.758,15.5153,-2.00918,177.891,5.55908,-145.261,1532
1569923873,384.758,15.5153,-2.00918,177.891,5.55908,-145.261,1532
1569923873,384.758,15.5153,-2.00918,177.891,5.55908,-145.261,1532
1569923873,384.758,15.5153,-2.00918,177.913,5.55908,-145.261,1532
1569923873,384.646,15.5153,-2.00918,177.913,5.55908,-145.261,1532
1569923873,384.646,15.5153,-2.00918,177.913,5.55908,-145.261,1532
1569923873,384.646,15.5153,-2.00918,177.913,5.55908,-145.261,1532
1569923873,384.646,15.5153,-2.00918,177.913,5.55908,-145.261,1532
1569923873,384.646,15.5153,-2.00918,177.913,5.58105,-145.261,1532
1569923873,384.646,15.5153,-2.00918,177.913,5.58105,-145.239,1532
1569923873,384.646,15.5153,-2.00918,177.913,5.58105,-145.239,1532
1569923873,384.646,15.5153,-2.00918,177.913,5.58105,-145.239,1532
1569923873,384.646,15.5153,-2.00918,177.913,5.58105,-145.239,1532
1569923873,384.646,15.5153,-2.00918,177.913,5.58105,-145.239,1528
1569923873,384.646,15.5153,-2.00918,177.913,5.55908,-145.239,1528
1569923873,384.646,15.5153,-2.00918,177.913,5.55908,-145.239,1528
1569923873,384.646,15.5153,-2.00918,177.913,5.55908,-145.239,1528
1569923873,384.646,15.5153,-2.00918,177.891,5.55908,-145.239,1524
1569923873,384.646,15.5153,-2.00918,177.891,5.55908,-145.239,1524
1569923873,384.646,15.5153,-2.00918,177.891,5.55908,-145.239,1524
1569923873,384.535,15.5153,-2.00918,177.891,5.55908,-145.239,1520
1569923873,384.535,15.5153,-2.00918,177.891,5.55908,-145.239,1520
1569923873,384.535,15.5153,-2.00918,177.891,5.55908,-145.239,1520
1569923873,384.535,15.5153,-2.00918,177.891,5.55908,-145.239,1520
1569923873,384.535,15.5153,-2.00918,177.891,5.55908,-145.239,1516
1569923873,384.535,15.4037,-2.00918,177.891,5.55908,-145.239,1516
1569923873,384.646,15.4037,-2.00918,177.891,5.55908,-145.261,1516
1569923873,384.646,15.4037,-2.00918,177.891,5.55908,-145.261,1516
1569923873,384.646,15.4037,-2.00918,177.891,5.55908,-145.261,1516
1569923873,384.646,15.4037,-2.00918,177.891,5.58105,-145.261,1516
1569923873,384.646,15.4037,-2.00918,177.869,5.58105,-145.261,1516
1569923873,384.646,15.4037,-2.00918,177.869,5.58105,-145.261,1516
1569923873,384.646,15.4037,-1.89756,177.869,5.58105,-145.261,1516
1569923873,384.646,15.4037,-1.89756,177.869,5.58105,-145.261,1516
1569923873,384.646,15.4037,-1.89756,177.869,5.58105,-145.261,1516
1569923873,384.646,15.4037,-1.89756,177.869,5.58105,-145.261,1516
1569923873,384.646,15.4037,-2.00918,177.869,5.58105,-145.261,1516
1569923873,384.646,15.4037,-2.00918,177.869,5.58105,-145.261,1516
1569923873,384.646,15.4037,-2.00918,177.869,5.55908,-145.261,1516
1569923873,384.646,15.4037,-2.00918,177.869,5.55908,-145.261,1516
1569923873,384.646,15.4037,-2.00918,177.869,5.55908,-145.261,1516
1569923873,384.646,15.4037,-2.00918,177.869,5.55908,-145.261,1520
1569923873,384.646,15.4037,-2.00918,177.869,5.55908,-145.261,1520
1569923873,384.646,15.4037,-2.00918,177.869,5.55908,-145.261,1520
1569923873,384.646,15.4037,-2.00918,177.869,5.55908,-145.261,1520
1569923873,384.646,15.4037,-2.00918,177.869,5.55908,-145.261,1520
1569923873,384.646,15.4037,-2.00918,177.869,5.58105,-145.261,1524
1569923873,384.646,15.4037,-1.89756,177.869,5.58105,-145.261,1524
1569923873,384.646,15.4037,-1.89756,177.869,5.58105,-145.261,1524
1569923873,384.646,15.4037,-1.89756,177.869,5.58105,-145.261,1524
1569923873,384.646,15.4037,-1.89756,177.869,5.58105,-145.261,1524
1569923873,384.646,15.4037,-1.89756,177.869,5.58105,-145.261,1524
1569923873,384.646,15.4037,-1.89756,177.869,5.58105,-145.261,1524
1569923873,384.646,15.4037,-1.89756,177.869,5.58105,-145.261,1524
1569923873,384.646,15.4037,-1.89756,177.869,5.58105,-145.261,1524
1569923873,384.646,15.4037,-1.89756,177.869,5.58105,-145.261,1524
1569923873,384.646,15.4037,-1.89756,177.869,5.58105,-145.261,1524
1569923873,384.646,15.4037,-1.89756,177.869,5.58105,-145.261,1524
1569923873,384.646,15.4037,-1.89756,177.869,5.58105,-145.261,1524
1569923873,384.646,15.4037,-1.89756,177.869,5.58105,-145.261,1524
1569923873,384.646,15.4037,-1.89756,177.869,5.58105,-145.261,1524
1569923873,384.646,15.4037,-1.89756,177.869,5.58105,-145.261,1524
1569923873,384.646,15.4037,-1.89756,177.869,5.58105,-145.283,1524
1569923873,384.646,15.4037,-1.89756,177.869,5.58105,-145.283,1524
1569923873,384.646,15.4037,-1.89756,177.869,5.58105,-145.283,1524
1569923873,384.646,15.4037,-1.89756,177.869,5.58105,-145.283,1524
1569923873,384.646,15.4037,-1.89756,177.869,5.58105,-145.283,1524
1569923873,384.646,15.4037,-1.89756,177.869,5.58105,-145.283,1524
1569923874,384.646,15.4037,-1.89756,177.869,5.55908,-145.283,1528
1569923874,384.646,15.4037,-1.89756,177.869,5.55908,-145.283,1528
1569923874,384.646,15.4037,-1.89756,177.869,5.55908,-145.283,1528
1569923874,384.646,15.4037,-1.89756,177.869,5.55908,-145.283,1528
1569923874,384.646,15.4037,-1.89756,177.869,5.55908,-145.283,1528
1569923874,384.646,15.4037,-1.89756,177.869,5.55908,-145.283,1528
1569923874,384.646,15.4037,-1.89756,177.869,5.55908,-145.283,1528
1569923874,384.646,15.4037,-1.89756,177.869,5.55908,-145.283,1532
1569923874,384.646,15.4037,-1.89756,177.869,5.55908,-145.283,1532
1569923874,384.646,15.4037,-1.89756,177.869,5.55908,-145.283,1532
1569923874,384.646,15.4037,-1.89756,177.869,5.55908,-145.283,1532
1569923874,384.646,15.4037,-1.89756,177.869,5.55908,-145.283,1532
1569923874,384.646,15.4037,-1.89756,177.869,5.58105,-145.283,1532
1569923874,384.646,15.4037,-1.89756,177.869,5.58105,-145.283,1532
1569923874,384.646,15.5153,-1.89756,177.869,5.58105,-145.283,1532
1569923874,384.646,15.5153,-1.89756,177.869,5.58105,-145.283,1536
1569923874,384.646,15.5153,-1.89756,177.869,5.58105,-145.283,1536
1569923874,384.646,15.5153,-1.89756,177.869,5.58105,-145.283,1536
1569923874,384.646,15.5153,-1.89756,177.869,5.58105,-145.283,1536
1569923874,384.646,15.5153,-1.89756,177.869,5.58105,-145.283,1536
1569923874,384.646,15.5153,-1.89756,177.869,5.58105,-145.283,1536
1569923874,384.646,15.5153,-1.89756,177.869,5.58105,-145.283,1536
1569923874,384.646,15.5153,-1.89756,177.869,5.58105,-145.283,1536
1569923874,384.646,15.5153,-1.89756,177.869,5.55908,-145.283,1536
1569923874,384.646,15.5153,-1.89756,177.891,5.55908,-145.261,1540
1569923874,384.758,15.5153,-1.89756,177.891,5.55908,-145.261,1540
1569923874,384.758,15.5153,-1.89756,177.891,5.55908,-145.261,1540
1569923874,384.758,15.5153,-1.89756,177.891,5.55908,-145.261,1540
1569923874,384.758,15.5153,-1.89756,177.891,5.55908,-145.261,1540
1569923874,384.758,15.5153,-1.89756,177.891,5.55908,-145.261,1540
1569923874,384.758,15.5153,-1.89756,177.891,5.55908,-145.261,1540
1569923874,384.758,15.5153,-1.89756,177.891,5.55908,-145.261,1544
1569923874,384.758,15.5153,-1.89756,177.891,5.55908,-145.261,1544
1569923874,384.758,15.5153,-1.89756,177.891,5.58105,-145.261,1544
1569923874,384.758,15.5153,-1.89756,177.891,5.58105,-145.261,1544
1569923874,384.758,15.5153,-1.89756,177.891,5.58105,-145.261,1544
1569923874,384.758,15.5153,-1.89756,177.891,5.58105,-145.261,1544
1569923874,384.758,15.5153,-1.89756,177.891,5.58105,-145.261,1544
1569923874,384.758,15.5153,-1.89756,177.869,5.58105,-145.261,1544
1569923874,384.758,15.5153,-1.89756,177.869,5.58105,-145.261,1544
1569923874,384.758,15.5153,-1.89756,177.869,5.58105,-145.283,1544
1569923874,384.758,15.5153,-1.89756,177.869,5.58105,-145.283,1544
1569923874,384.646,15.5153,-1.89756,177.869,5.58105,-145.283,1544
1569923874,384.646,15.5153,-1.89756,177.869,5.58105,-145.283,1544
1569923874,384.646,15.5153,-1.89756,177.891,5.55908,-145.283,1544
1569923874,384.646,15.5153,-1.89756,177.891,5.55908,-145.283,1544
1569923874,384.646,15.5153,-1.89756,177.891,5.55908,-145.283,1544
1569923874,384.646,15.5153,-1.89756,177.891,5.55908,-145.283,1544
1569923874,384.646,15.5153,-1.89756,177.891,5.55908,-145.283,1544
1569923874,384.646,15.5153,-1.89756,177.891,5.55908,-145.283,1544
1569923874,384.646,15.5153,-1.89756,177.891,5.55908,-145.283,1544
1569923874,384.646,15.5153,-1.89756,177.891,5.55908,-145.261,1544
1569923874,384.646,15.5153,-1.89756,177.891,5.55908,-145.261,1544
1569923874,384.646,15.5153,-1.89756,177.891,5.55908,-145.261,1544
1569923874,384.646,15.5153,-2.00918,177.891,5.55908,-145.261,1544
1569923874,384.646,15.5153,-2.00918,177.891,5.55908,-145.261,1544
1569923874,384.646,15.5153,-2.00918,177.891,5.55908,-145.261,1544
1569923874,384.646,15.5153,-2.00918,177.891,5.55908,-145.261,1544
1569923874,384.646,15.5153,-2.00918,177.891,5.53711,-145.261,1544
1569923874,384.646,15.5153,-2.00918,177.891,5.53711,-145.261,1544
1569923874,384.646,15.5153,-2.00918,177.891,5.53711,-145.261,1544
1569923877,368.796,31.5888,-1.67432,177.627,6.04248,-145.898,1388
1569923877,368.796,31.5888,-1.67432,177.627,6.04248,-145.898,1388
1569923877,368.796,31.5888,-1.67432,177.649,6.04248,-145.898,1388
1569923877,368.796,31.5888,-1.67432,177.649,6.04248,-145.898,1388
1569923877,368.796,31.5888,-1.67432,177.649,6.06445,-145.898,1388
1569923877,368.796,31.5888,-1.5627,177.649,6.06445,-145.898,1388
1569923877,368.796,31.5888,-1.5627,177.649,6.06445,-145.898,1392
1569923877,368.796,31.5888,-1.5627,177.649,6.06445,-145.898,1392
1569923878,368.796,31.5888,-1.5627,177.649,6.06445,-145.898,1392
1569923878,368.796,31.5888,-1.5627,177.649,6.06445,-145.898,1392
1569923878,368.796,31.5888,-1.5627,177.649,6.06445,-145.898,1392
1569923878,368.796,31.5888,-1.5627,177.649,6.06445,-145.898,1392
1569923878,368.796,31.5888,-1.5627,177.649,6.06445,-145.898,1396
1569923878,368.796,31.5888,-1.5627,177.649,6.06445,-145.898,1396
1569923878,368.796,31.5888,-1.5627,177.649,6.06445,-145.898,1396
1569923878,368.796,31.7004,-1.5627,177.649,6.06445,-145.898,1396
1569923878,368.796,31.7004,-1.5627,177.649,6.06445,-145.898,1396
1569923878,368.796,31.7004,-1.5627,177.649,6.06445,-145.898,1396
1569923878,368.796,31.7004,-1.5627,177.649,6.06445,-145.898,1396
1569923878,368.796,31.7004,-1.5627,177.649,6.06445,-145.876,1392
1569923878,368.796,31.7004,-1.5627,177.649,6.06445,-145.876,1392
1569923878,368.796,31.7004,-1.5627,177.649,6.06445,-145.876,1392
1569923878,368.796,31.7004,-1.5627,177.649,6.06445,-145.876,1392
1569923878,368.796,31.7004,-1.5627,177.649,6.06445,-145.876,1392
1569923878,368.796,31.7004,-1.5627,177.649,6.06445,-145.876,1392
1569923878,368.796,31.7004,-1.5627,177.649,6.06445,-145.876,1392
1569923878,368.796,31.7004,-1.5627,177.649,6.06445,-145.876,1392
1569923878,368.796,31.7004,-1.5627,177.671,6.06445,-145.876,1392
1569923878,368.796,31.7004,-1.5627,177.671,6.06445,-145.876,1392
1569923878,368.796,31.7004,-1.5627,177.671,6.06445,-145.876,1392
1569923878,368.796,31.7004,-1.5627,177.671,6.06445,-145.876,1392
1569923878,368.796,31.7004,-1.5627,177.671,6.06445,-145.876,1396
1569923878,368.796,31.7004,-1.5627,177.671,6.06445,-145.876,1396
1569923878,368.796,31.7004,-1.5627,177.649,6.06445,-145.876,1396
1569923878,368.796,31.7004,-1.5627,177.649,6.06445,-145.876,1396
1569923878,368.796,31.7004,-1.5627,177.649,6.06445,-145.876,1396
1569923878,368.796,31.5888,-1.5627,177.649,6.06445,-145.876,1396
1569923878,368.796,31.5888,-1.5627,177.649,6.06445,-145.876,1396
1569923878,368.796,31.5888,-1.5627,177.649,6.06445,-145.876,1396
1569923878,368.796,31.5888,-1.5627,177.649,6.06445,-145.876,1396
1569923878,368.796,31.5888,-1.5627,177.649,6.06445,-145.876,1400
1569923878,368.796,31.5888,-1.5627,177.649,6.06445,-145.876,1400
1569923878,368.796,31.5888,-1.5627,177.627,6.06445,-145.876,1400
1569923878,368.796,31.5888,-1.5627,177.627,6.06445,-145.876,1396
1569923878,368.796,31.5888,-1.5627,177.627,6.06445,-145.876,1396
1569923878,368.796,31.5888,-1.5627,177.627,6.06445,-145.876,1396
1569923878,368.796,31.5888,-1.5627,177.627,6.06445,-145.876,1396
1569923878,368.796,31.5888,-1.5627,177.627,6.06445,-145.876,1396
1569923878,368.796,31.5888,-1.5627,177.627,6.06445,-145.876,1396
1569923878,368.796,31.5888,-1.5627,177.627,6.06445,-145.876,1396
1569923878,368.796,31.5888,-1.5627,177.627,6.06445,-145.876,1396
1569923878,368.796,31.5888,-1.5627,177.627,6.06445,-145.876,1396
1569923878,368.796,31.5888,-1.5627,177.627,6.06445,-145.898,1396
1569923878,368.796,31.5888,-1.5627,177.627,6.08643,-145.898,1396
1569923878,368.796,31.5888,-1.5627,177.627,6.08643,-145.898,1396
1569923878,368.796,31.5888,-1.5627,177.627,6.08643,-145.898,1400
1569923878,368.796,31.5888,-1.5627,177.627,6.08643,-145.898,1400
1569923878,368.796,31.5888,-1.5627,177.627,6.08643,-145.898,1400
1569923878,368.796,31.5888,-1.5627,177.627,6.08643,-145.898,1400
1569923878,368.796,31.5888,-1.5627,177.627,6.08643,-145.876,1400
1569923878,368.796,31.5888,-1.5627,177.627,6.08643,-145.876,1400
1569923878,368.796,31.5888,-1.5627,177.627,6.08643,-145.876,1400
1569923878,368.796,31.5888,-1.5627,177.627,6.08643,-145.876,1400
1569923878,368.796,31.5888,-1.5627,177.627,6.08643,-145.876,1400
1569923878,368.796,31.5888,-1.5627,177.627,6.06445,-145.876,1400
1569923878,368.796,31.5888,-1.5627,177.649,6.06445,-145.876,1400
1569923878,368.796,31.7004,-1.5627,177.649,6.06445,-145.876,1400
1569923878,368.796,31.7004,-1.5627,177.649,6.06445,-145.876,1400
1569923878,368.796,31.7004,-1.5627,177.649,6.06445,-145.876,1400
1569923878,368.796,31.7004,-1.5627,177.649,6.06445,-145.876,1400
1569923878,368.796,31.7004,-1.5627,177.649,6.06445,-145.876,1400
1569923878,368.796,31.7004,-1.5627,177.649,6.06445,-145.876,1400
1569923878,368.796,31.7004,-1.5627,177.627,6.06445,-145.876,1400
1569923878,368.796,31.5888,-1.5627,177.627,6.06445,-145.876,1400
1569923878,368.796,31.5888,-1.5627,177.627,6.06445,-145.876,1400
1569923878,368.796,31.5888,-1.5627,177.627,6.06445,-145.876,1400
1569923878,368.796,31.5888,-1.5627,177.627,6.06445,-145.876,1400
1569923878,368.796,31.5888,-1.5627,177.627,6.06445,-145.876,1400
1569923878,368.796,31.5888,-1.5627,177.627,6.06445,-145.876,1404
1569923878,368.796,31.5888,-1.5627,177.627,6.06445,-145.876,1404
1569923878,368.796,31.5888,-1.5627,177.627,6.06445,-145.876,1404
1569923878,368.796,31.5888,-1.5627,177.627,6.06445,-145.876,1404
1569923878,368.796,31.5888,-1.5627,177.627,6.06445,-145.876,1404
1569923878,368.796,31.5888,-1.5627,177.627,6.06445,-145.876,1404
1569923878,368.796,31.5888,-1.5627,177.627,6.06445,-145.876,1404
1569923878,368.796,31.5888,-1.5627,177.627,6.06445,-145.876,1404
1569923878,368.796,31.7004,-1.5627,177.627,6.06445,-145.876,1400
1569923878,368.796,31.7004,-1.5627,177.627,6.06445,-145.876,1400
1569923878,368.796,31.5888,-1.5627,177.627,6.06445,-145.876,1400
1569923878,368.796,31.5888,-1.5627,177.627,6.06445,-145.876,1400
1569923878,368.796,31.5888,-1.5627,177.627,6.06445,-145.876,1400
1569923878,368.796,31.5888,-1.5627,177.627,6.08643,-145.876,1396
1569923878,368.796,31.5888,-1.5627,177.627,6.08643,-145.876,1396
1569923878,368.796,31.5888,-1.5627,177.627,6.08643,-145.876,1396
1569923878,368.796,31.5888,-1.5627,177.627,6.08643,-145.876,1396
1569923878,368.796,31.5888,-1.5627,177.627,6.08643,-145.876,1396
1569923878,368.796,31.5888,-1.5627,177.627,6.08643,-145.876,1392
1569923878,368.796,31.5888,-1.5627,177.649,6.08643,-145.876,1392
1569923878,368.796,31.5888,-1.5627,177.649,6.08643,-145.876,1392
1569923878,368.796,31.5888,-1.5627,177.649,6.08643,-145.876,1392
1569923878,368.796,31.5888,-1.5627,177.649,6.08643,-145.876,1388
1569923878,368.796,31.5888,-1.5627,177.649,6.08643,-145.876,1388
1569923878,368.796,31.5888,-1.5627,177.649,6.08643,-145.876,1388
1569923878,368.796,31.5888,-1.5627,177.649,6.08643,-145.876,1388
1569923878,368.796,31.5888,-1.5627,177.649,6.06445,-145.876,1388
1569923878,368.796,31.5888,-1.5627,177.649,6.06445,-145.876,1388
1569923878,368.796,31.5888,-1.5627,177.627,6.06445,-145.876,1388
1569923878,368.796,31.5888,-1.5627,177.627,6.06445,-145.876,1388
1569923879,368.796,31.5888,-1.5627,177.627,6.06445,-145.876,1388
1569923879,368.796,31.5888,-1.5627,177.627,6.06445,-145.854,1388
1569923879,368.796,31.5888,-1.5627,177.627,6.06445,-145.876,1388
1569923879,368.796,31.5888,-1.5627,177.627,6.06445,-145.876,1388
1569923879,368.796,31.5888,-1.5627,177.627,6.06445,-145.876,1388
1569923879,368.796,31.5888,-1.5627,177.627,6.06445,-145.876,1388
1569923879,368.796,31.5888,-1.5627,177.627,6.06445,-145.876,1388
1569923879,368.796,31.5888,-1.5627,177.627,6.06445,-145.876,1388
1569923879,368.796,31.5888,-1.5627,177.627,6.06445,-145.876,1388
1569923879,368.796,31.5888,-1.5627,177.627,6.06445,-145.876,1388
1569923879,368.796,31.5888,-1.5627,177.627,6.06445,-145.876,1388
1569923879,368.796,31.5888,-1.5627,177.627,6.06445,-145.876,1388
1569923879,368.796,31.5888,-1.5627,177.627,6.06445,-145.876,1388
1569923879,368.796,31.5888,-1.5627,177.627,6.06445,-145.876,1388
1569923879,368.796,31.5888,-1.5627,177.627,6.06445,-145.876,1388
1569923879,368.796,31.5888,-1.5627,177.627,6.06445,-145.876,1392
1569923879,368.908,31.5888,-1.5627,177.627,6.06445,-145.876,1392
1569923879,368.908,31.5888,-1.5627,177.627,6.06445,-145.876,1392
1569923879,368.908,31.5888,-1.5627,177.627,6.06445,-145.876,1392
1569923879,368.908,31.5888,-1.5627,177.627,6.06445,-145.876,1392
1569923879,368.908,31.5888,-1.5627,177.627,6.06445,-145.876,1392
1569923879,368.796,31.5888,-1.5627,177.627,6.06445,-145.876,1396
1569923879,368.796,31.5888,-1.5627,177.627,6.06445,-145.876,1396
1569923879,368.796,31.5888,-1.5627,177.627,6.06445,-145.876,1396
1569923879,368.796,31.5888,-1.5627,177.627,6.06445,-145.876,1396
1569923879,368.796,31.5888,-1.5627,177.627,6.06445,-145.876,1396
1569923879,368.796,31.5888,-1.5627,177.627,6.06445,-145.876,1400
1569923879,368.796,31.5888,-1.5627,177.627,6.06445,-145.876,1400
1569923879,368.796,31.5888,-1.5627,177.627,6.06445,-145.876,1400
1569923879,368.796,31.5888,-1.5627,177.627,6.06445,-145.876,1400
1569923879,368.796,31.5888,-1.5627,177.627,6.06445,-145.876,1400
1569923879,368.796,31.5888,-1.5627,177.605,6.06445,-145.876,1400
1569923879,368.796,31.4771,-1.5627,177.605,6.06445,-145.876,1400
1569923879,368.796,31.4771,-1.5627,177.605,6.06445,-145.876,1400
1569923879,368.796,31.4771,-1.5627,177.605,6.06445,-145.876,1400
1569923879,368.796,31.4771,-1.5627,177.605,6.06445,-145.876,1400
1569923879,368.796,31.4771,-1.5627,177.605,6.06445,-145.876,1400
1569923879,368.796,31.4771,-1.5627,177.605,6.06445,-145.876,1400
1569923879,368.796,31.4771,-1.5627,177.605,6.06445,-145.876,1400
1569923879,368.796,31.4771,-1.5627,177.605,6.06445,-145.876,1400
1569923879,368.796,31.4771,-1.5627,177.605,6.06445,-145.876,1400
1569923879,368.796,31.4771,-1.5627,177.605,6.06445,-145.876,1400
1569923879,368.796,31.4771,-1.5627,177.605,6.06445,-145.876,1400
1569923879,368.796,31.4771,-1.5627,177.605,6.06445,-145.876,1400
1569923879,368.796,31.4771,-1.5627,177.605,6.08643,-145.876,1400
1569923879,368.796,31.4771,-1.5627,177.605,6.08643,-145.876,1400
1569923879,368.796,31.4771,-1.5627,177.605,6.08643,-145.876,1400
1569923879,368.796,31.4771,-1.5627,177.605,6.08643,-145.876,1400
1569923879,368.796,31.4771,-1.5627,177.605,6.08643,-145.876,1400
1569923879,368.796,31.4771,-1.5627,177.605,6.06445,-145.876,1400
1569923879,368.796,31.4771,-1.5627,177.627,6.06445,-145.876,1400
1569923879,368.796,31.4771,-1.5627,177.627,6.06445,-145.876,1404
1569923879,368.796,31.5888,-1.5627,177.627,6.06445,-145.876,1404
1569923879,368.796,31.5888,-1.5627,177.627,6.06445,-145.876,1404
1569923879,368.796,31.5888,-1.5627,177.627,6.06445,-145.876,1404
1569923879,368.796,31.5888,-1.5627,177.627,6.06445,-145.876,1404
1569923879,368.796,31.5888,-1.5627,177.627,6.06445,-145.876,1404
1569923879,368.796,31.5888,-1.5627,177.627,6.06445,-145.876,1404
1569923879,368.796,31.5888,-1.5627,177.627,6.06445,-145.876,1404
1569923879,368.796,31.5888,-1.5627,177.627,6.06445,-145.876,1404
1569923879,368.796,31.5888,-1.5627,177.627,6.06445,-145.876,1400
1569923879,368.796,31.5888,-1.5627,177.627,6.06445,-145.876,1400
1569923879,368.796,31.4771,-1.5627,177.627,6.08643,-145.876,1400
1569923879,368.796,31.4771,-1.5627,177.627,6.06445,-145.876,1400
1569923879,368.796,31.5888,-1.5627,177.627,6.06445,-145.876,1400
1569923879,368.796,31.5888,-1.5627,177.627,6.08643,-145.876,1400
1569923879,368.796,31.5888,-1.5627,177.627,6.08643,-145.854,1396
1569923879,368.796,31.5888,-1.5627,177.627,6.08643,-145.854,1396
1569923879,368.796,31.5888,-1.5627,177.627,6.08643,-145.854,1396
1569923879,368.796,31.5888,-1.5627,177.627,6.08643,-145.854,1396
1569923879,368.796,31.5888,-1.5627,177.627,6.08643,-145.854,1396
1569923879,368.796,31.5888,-1.5627,177.627,6.06445,-145.854,1396
1569923879,368.796,31.5888,-1.5627,177.627,6.06445,-145.854,1392
1569923879,368.796,31.5888,-1.5627,177.627,6.06445,-145.854,1392
1569923879,368.796,31.5888,-1.5627,177.627,6.06445,-145.854,1392
1569923879,368.796,31.5888,-1.5627,177.627,6.06445,-145.854,1392
1569923879,368.796,31.5888,-1.5627,177.627,6.06445,-145.854,1392
1569923879,368.796,31.5888,-1.5627,177.627,6.06445,-145.854,1392
1569923879,368.796,31.5888,-1.5627,177.627,6.06445,-145.854,1392
1569923879,368.796,31.5888,-1.5627,177.627,6.06445,-145.854,1392
1569923879,368.796,31.5888,-1.5627,177.627,6.06445,-145.854,1388
1569923879,368.796,31.5888,-1.5627,177.627,6.06445,-145.854,1392
1569923879,368.796,31.5888,-1.5627,177.627,6.06445,-145.854,1392
1569923879,368.796,31.5888,-1.5627,177.627,6.06445,-145.854,1392
1569923879,368.796,31.5888,-1.5627,177.627,6.06445,-145.854,1392
1569923879,368.796,31.5888,-1.5627,177.627,6.06445,-145.854,1392
1569923879,368.796,31.5888,-1.5627,177.627,6.06445,-145.854,1392
1569923879,368.796,31.5888,-1.5627,177.627,6.06445,-145.854,1392
1569923879,368.796,31.5888,-1.5627,177.627,6.06445,-145.854,1392
1569923879,368.796,31.5888,-1.5627,177.627,6.06445,-145.854,1392
1569923879,368.796,31.5888,-1.5627,177.627,6.06445,-145.854,1392
1569923879,368.796,31.5888,-1.5627,177.627,6.06445,-145.854,1396
1569923879,368.796,31.5888,-1.5627,177.627,6.06445,-145.854,1396
1569923879,368.796,31.5888,-1.5627,177.627,6.06445,-145.854,1396
1569923879,368.796,31.5888,-1.5627,177.627,6.06445,-145.854,1396
1569923879,368.796,31.5888,-1.5627,177.627,6.06445,-145.854,1396
1569923879,368.796,31.5888,-1.5627,177.627,6.06445,-145.854,1400
1569923879,368.796,31.5888,-1.5627,177.627,6.06445,-145.854,1400
1569923879,368.796,31.5888,-1.5627,177.627,6.06445,-145.854,1400
1569923879,368.796,31.5888,-1.5627,177.627,6.06445,-145.854,1400
1569923880,368.796,31.5888,-1.5627,177.627,6.06445,-145.854,1404
1569923880,368.796,31.5888,-1.5627,177.627,6.06445,-145.876,1404
1569923880,368.796,31.5888,-1.5627,177.627,6.06445,-145.876,1404
1569923880,368.796,31.5888,-1.5627,177.627,6.06445,-145.876,1404
1569923880,368.796,31.5888,-1.5627,177.627,6.06445,-145.876,1404
1569923880,368.796,31.5888,-1.5627,177.627,6.06445,-145.876,1404
1569923880,368.796,31.5888,-1.5627,177.627,6.06445,-145.876,1404
1569923880,368.796,31.5888,-1.5627,177.627,6.06445,-145.876,1404
1569923880,368.796,31.5888,-1.5627,177.627,6.06445,-145.876,1404
1569923880,368.796,31.5888,-1.5627,177.627,6.06445,-145.876,1404
1569923880,368.796,31.5888,-1.5627,177.627,6.06445,-145.876,1404
1569923880,368.796,31.5888,-1.5627,177.649,6.06445,-145.876,1404
1569923880,368.796,31.5888,-1.5627,177.649,6.06445,-145.876,1404
1569923880,368.796,31.5888,-1.5627,177.649,6.06445,-145.876,1404
1569923880,368.796,31.5888,-1.5627,177.649,6.06445,-145.876,1404
1569923880,368.796,31.5888,-1.5627,177.649,6.06445,-145.876,1404
1569923880,368.796,31.7004,-1.5627,177.649,6.06445,-145.876,1404
1569923880,368.796,31.7004,-1.67432,177.649,6.06445,-145.876,1404
1569923880,368.796,31.7004,-1.67432,177.649,6.06445,-145.876,1404
1569923880,368.796,31.7004,-1.5627,177.649,6.06445,-145.876,1404
1569923880,368.796,31.7004,-1.5627,177.649,6.06445,-145.876,1404
1569923880,368.796,31.7004,-1.5627,177.649,6.06445,-145.876,1404
1569923880,368.796,31.7004,-1.5627,177.649,6.06445,-145.876,1404
1569923880,368.796,31.7004,-1.5627,177.649,6.06445,-145.876,1404
1569923880,368.796,31.7004,-1.5627,177.649,6.06445,-145.876,1404
1569923880,368.796,31.7004,-1.5627,177.649,6.06445,-145.876,1404
1569923880,368.796,31.7004,-1.5627,177.649,6.06445,-145.898,1404
1569923880,368.796,31.7004,-1.5627,177.649,6.06445,-145.898,1404
1569923880,368.796,31.7004,-1.5627,177.649,6.06445,-145.898,1404
1569923880,368.796,31.7004,-1.5627,177.649,6.06445,-145.898,1404
1569923880,368.796,31.7004,-1.5627,177.649,6.06445,-145.898,1404
1569923880,368.796,31.7004,-1.5627,177.649,6.06445,-145.898,1404
1569923880,368.796,31.7004,-1.5627,177.649,6.06445,-145.898,1404
1569923880,368.796,31.7004,-1.5627,177.649,6.06445,-145.898,1404
1569923880,368.796,31.5888,-1.5627,177.649,6.06445,-145.898,1404
1569923880,368.796,31.5888,-1.5627,177.649,6.06445,-145.898,1404
1569923880,368.796,31.5888,-1.5627,177.649,6.06445,-145.898,1404
1569923880,368.796,31.5888,-1.5627,177.649,6.06445,-145.898,1400
1569923880,368.796,31.5888,-1.5627,177.649,6.06445,-145.898,1400
1569923880,368.796,31.5888,-1.5627,177.649,6.06445,-145.898,1400
1569923880,368.796,31.5888,-1.5627,177.627,6.06445,-145.876,1400
1569923880,368.796,31.5888,-1.5627,177.627,6.06445,-145.876,1400
1569923880,368.796,31.5888,-1.5627,177.627,6.06445,-145.876,1396
1569923880,368.796,31.5888,-1.5627,177.627,6.06445,-145.876,1396
1569923880,368.796,31.5888,-1.5627,177.627,6.06445,-145.876,1396
1569923880,368.796,31.5888,-1.5627,177.627,6.06445,-145.876,1396
1569923880,368.796,31.5888,-1.5627,177.627,6.06445,-145.876,1392
1569923880,368.796,31.5888,-1.5627,177.627,6.06445,-145.876,1392
1569923880,368.796,31.5888,-1.5627,177.627,6.06445,-145.876,1392
1569923880,368.796,31.5888,-1.5627,177.627,6.06445,-145.876,1392
1569923880,368.796,31.5888,-1.5627,177.627,6.06445,-145.876,1388
1569923880,368.796,31.5888,-1.5627,177.627,6.06445,-145.876,1388
1569923880,368.796,31.5888,-1.5627,177.627,6.06445,-145.876,1388
1569923880,368.796,31.5888,-1.5627,177.627,6.06445,-145.876,1388
1569923880,368.796,31.5888,-1.5627,177.627,6.06445,-145.876,1388
1569923880,368.796,31.5888,-1.5627,177.627,6.06445,-145.876,1388
1569923880,368.796,31.5888,-1.5627,177.605,6.06445,-145.876,1388
1569923880,368.796,31.5888,-1.5627,177.605,6.06445,-145.876,1384
1569923880,368.796,31.5888,-1.5627,177.605,6.06445,-145.876,1384
1569923880,368.796,31.5888,-1.5627,177.605,6.06445,-145.876,1384
1569923880,368.796,31.5888,-1.5627,177.605,6.06445,-145.876,1384
1569923880,368.796,31.5888,-1.5627,177.605,6.06445,-145.854,1384
1569923880,368.796,31.5888,-1.5627,177.627,6.06445,-145.854,1384
1569923880,368.796,31.5888,-1.5627,177.627,6.06445,-145.854,1384
1569923880,368.796,31.5888,-1.5627,177.627,6.06445,-145.854,1384
1569923880,368.796,31.5888,-1.5627,177.627,6.06445,-145.854,1384
1569923880,368.796,31.5888,-1.5627,177.627,6.06445,-145.854,1384
1569923880,368.796,31.5888,-1.5627,177.627,6.06445,-145.854,1384
1569923880,368.796,31.5888,-1.5627,177.627,6.06445,-145.854,1388
1569923880,368.796,31.5888,-1.5627,177.627,6.06445,-145.854,1388
1569923880,368.796,31.5888,-1.5627,177.627,6.06445,-145.854,1388
1569923880,368.796,31.5888,-1.5627,177.627,6.06445,-145.854,1388
1569923880,368.796,31.5888,-1.5627,177.627,6.06445,-145.854,1388
1569923880,368.796,31.4771,-1.5627,177.627,6.06445,-145.854,1388
1569923880,368.796,31.4771,-1.5627,177.627,6.06445,-145.854,1392
1569923880,368.796,31.4771,-1.5627,177.627,6.06445,-145.854,1392
1569923880,368.796,31.4771,-1.5627,177.605,6.06445,-145.854,1392
1569923880,368.796,31.4771,-1.5627,177.605,6.06445,-145.854,1392
1569923880,368.796,31.4771,-1.5627,177.605,6.06445,-145.854,1392
1569923880,368.796,31.4771,-1.5627,177.605,6.06445,-145.854,1392
1569923880,368.796,31.4771,-1.5627,177.605,6.06445,-145.854,1392
1569923880,368.796,31.4771,-1.5627,177.605,6.06445,-145.854,1396
1569923880,368.796,31.4771,-1.5627,177.605,6.06445,-145.854,1396
1569923880,368.796,31.4771,-1.5627,177.605,6.06445,-145.854,1396
1569923880,368.796,31.4771,-1.5627,177.627,6.06445,-145.854,1396
1569923880,368.796,31.4771,-1.5627,177.627,6.06445,-145.854,1396
1569923880,368.796,31.4771,-1.5627,177.627,6.06445,-145.854,1400
1569923880,368.796,31.4771,-1.5627,177.627,6.06445,-145.854,1400
1569923880,368.796,31.4771,-1.5627,177.627,6.06445,-145.854,1400
1569923880,368.796,31.4771,-1.5627,177.627,6.06445,-145.876,1400
1569923880,368.796,31.4771,-1.5627,177.627,6.06445,-145.876,1404
1569923880,368.796,31.4771,-1.5627,177.627,6.06445,-145.876,1404
1569923880,368.796,31.4771,-1.5627,177.627,6.06445,-145.876,1404
1569923880,368.796,31.4771,-1.5627,177.627,6.06445,-145.876,1404
1569923880,368.796,31.4771,-1.5627,177.627,6.06445,-145.876,1404
1569923880,368.796,31.4771,-1.5627,177.627,6.06445,-145.876,1404
1569923880,368.796,31.4771,-1.5627,177.627,6.06445,-145.876,1404
1569923880,368.796,31.4771,-1.5627,177.627,6.06445,-145.876,1404
1569923880,368.796,31.5888,-1.5627,177.627,6.06445,-145.876,1404
1569923880,368.796,31.5888,-1.5627,177.627,6.06445,-145.876,1404
1569923881,368.796,31.5888,-1.5627,177.627,6.06445,-145.876,1404
1569923881,368.796,31.5888,-1.5627,177.627,6.06445,-145.876,1404
1569923881,368.796,31.5888,-1.5627,177.627,6.06445,-145.876,1404
1569923881,368.796,31.5888,-1.67432,177.627,6.06445,-145.876,1404
1569923881,368.796,31.5888,-1.67432,177.627,6.06445,-145.876,1404
1569923881,368.796,31.5888,-1.67432,177.627,6.04248,-145.876,1404
1569923881,368.796,31.5888,-1.67432,177.627,6.04248,-145.876,1404
1569923881,368.796,31.5888,-1.67432,177.627,6.04248,-145.876,1404
1569923881,368.796,31.5888,-1.67432,177.627,6.04248,-145.876,1404
1569923881,368.796,31.5888,-1.67432,177.627,6.04248,-145.876,1404
1569923881,368.796,31.5888,-1.67432,177.627,6.04248,-145.876,1404
1569923881,368.796,31.5888,-1.67432,177.627,6.04248,-145.876,1404
1569923881,368.796,31.5888,-1.67432,177.627,6.04248,-145.876,1404
1569923881,368.796,31.5888,-1.67432,177.627,6.04248,-145.876,1404
1569923881,368.796,31.5888,-1.67432,177.627,6.04248,-145.876,1404
1569923881,368.796,31.5888,-1.67432,177.627,6.04248,-145.876,1400
1569923881,368.796,31.5888,-1.67432,177.627,6.04248,-145.876,1400
1569923881,368.796,31.5888,-1.67432,177.627,6.04248,-145.876,1400
1569923881,368.796,31.5888,-1.67432,177.627,6.04248,-145.876,1404
1569923881,368.796,31.4771,-1.67432,177.627,6.04248,-145.854,1404
1569923881,368.796,31.4771,-1.67432,177.627,6.04248,-145.854,1404
1569923881,368.796,31.4771,-1.67432,177.627,6.04248,-145.854,1404
1569923881,368.796,31.4771,-1.67432,177.627,6.04248,-145.854,1404
1569923881,368.908,31.5888,-1.67432,177.627,6.04248,-145.854,1404
1569923881,368.908,31.5888,-1.67432,177.627,6.04248,-145.854,1404
1569923881,368.796,31.5888,-1.67432,177.627,6.04248,-145.854,1404
1569923881,368.796,31.5888,-1.67432,177.627,6.04248,-145.854,1404
1569923881,368.796,31.5888,-1.67432,177.627,6.04248,-145.854,1404
1569923881,368.796,31.5888,-1.67432,177.627,6.04248,-145.854,1404
1569923881,368.796,31.5888,-1.67432,177.627,6.04248,-145.854,1404
1569923881,368.796,31.5888,-1.67432,177.627,6.04248,-145.854,1404
1569923881,368.796,31.5888,-1.67432,177.627,6.04248,-145.854,1404
1569923881,368.796,31.5888,-1.67432,177.627,6.04248,-145.854,1404
1569923881,368.796,31.5888,-1.67432,177.627,6.04248,-145.854,1404
1569923881,368.796,31.5888,-1.67432,177.627,6.04248,-145.854,1404
1569923881,368.796,31.4771,-1.67432,177.627,6.04248,-145.854,1404
1569923881,368.796,31.4771,-1.67432,177.627,6.04248,-145.854,1404
1569923881,368.796,31.4771,-1.67432,177.627,6.04248,-145.854,1404
1569923881,368.796,31.4771,-1.67432,177.627,6.04248,-145.876,1404
1569923881,368.796,31.4771,-1.67432,177.605,6.04248,-145.876,1404
1569923881,368.796,31.4771,-1.67432,177.605,6.04248,-145.876,1404
1569923881,368.796,31.4771,-1.67432,177.605,6.06445,-145.876,1404
1569923881,368.796,31.4771,-1.67432,177.605,6.06445,-145.876,1404
1569923881,368.796,31.4771,-1.67432,177.627,6.06445,-145.876,1404
1569923881,368.796,31.4771,-1.67432,177.627,6.06445,-145.876,1404
1569923881,368.796,31.4771,-1.67432,177.627,6.06445,-145.876,1404
1569923881,368.796,31.4771,-1.67432,177.627,6.06445,-145.876,1404
1569923881,368.796,31.4771,-1.67432,177.627,6.06445,-145.876,1404
1569923881,368.796,31.5888,-1.67432,177.627,6.04248,-145.876,1404
1569923881,368.796,31.5888,-1.67432,177.627,6.04248,-145.876,1404
1569923881,368.796,31.5888,-1.67432,177.627,6.04248,-145.876,1404
1569923881,368.796,31.5888,-1.67432,177.627,6.04248,-145.876,1404
1569923881,368.796,31.5888,-1.67432,177.627,6.04248,-145.876,1404
1569923881,368.796,31.5888,-1.67432,177.627,6.04248,-145.876,1404
1569923881,368.796,31.5888,-1.67432,177.627,6.04248,-145.876,1404
1569923881,368.796,31.5888,-1.67432,177.627,6.04248,-145.876,1404
1569923881,368.796,31.5888,-1.67432,177.627,6.04248,-145.876,1404
1569923881,368.796,31.5888,-1.67432,177.627,6.04248,-145.876,1404
1569923881,368.796,31.5888,-1.67432,177.627,6.06445,-145.876,1404
1569923881,368.796,31.5888,-1.67432,177.627,6.06445,-145.876,1404
1569923881,368.796,31.5888,-1.67432,177.627,6.06445,-145.876,1404
1569923881,368.796,31.5888,-1.67432,177.627,6.06445,-145.876,1404
1569923881,368.796,31.5888,-1.67432,177.627,6.06445,-145.876,1404
1569923881,368.796,31.5888,-1.67432,177.627,6.06445,-145.876,1404
1569923881,368.796,31.5888,-1.67432,177.627,6.06445,-145.876,1404
1569923881,368.796,31.5888,-1.67432,177.627,6.06445,-145.876,1404
1569923881,368.796,31.5888,-1.67432,177.627,6.04248,-145.876,1404
1569923881,368.796,31.5888,-1.67432,177.627,6.04248,-145.876,1404
1569923881,368.796,31.5888,-1.67432,177.627,6.04248,-145.876,1408
1569923881,368.796,31.5888,-1.67432,177.627,6.04248,-145.876,1408
1569923881,368.796,31.5888,-1.67432,177.627,6.04248,-145.876,1408
1569923881,368.796,31.5888,-1.67432,177.627,6.04248,-145.854,1408
1569923881,368.796,31.5888,-1.67432,177.627,6.04248,-145.854,1408
1569923881,368.796,31.5888,-1.67432,177.627,6.04248,-145.854,1408
1569923881,368.796,31.5888,-1.67432,177.627,6.04248,-145.854,1408
1569923881,368.796,31.5888,-1.67432,177.627,6.04248,-145.854,1408
1569923881,368.796,31.5888,-1.67432,177.627,6.04248,-145.854,1404
1569923881,368.796,31.5888,-1.67432,177.627,6.04248,-145.854,1404
1569923881,368.796,31.5888,-1.67432,177.627,6.04248,-145.854,1404
1569923881,368.796,31.5888,-1.67432,177.627,6.04248,-145.854,1404
1569923881,368.796,31.5888,-1.67432,177.627,6.04248,-145.854,1404
1569923881,368.796,31.5888,-1.67432,177.627,6.04248,-145.854,1404
1569923881,368.796,31.5888,-1.67432,177.627,6.04248,-145.854,1404
1569923881,368.796,31.5888,-1.67432,177.627,6.04248,-145.854,1400
1569923881,368.796,31.5888,-1.67432,177.627,6.04248,-145.854,1400
1569923881,368.796,31.5888,-1.67432,177.627,6.04248,-145.854,1400
1569923881,368.796,31.5888,-1.67432,177.627,6.06445,-145.854,1396
1569923881,368.796,31.5888,-1.67432,177.627,6.06445,-145.854,1396
1569923881,368.796,31.5888,-1.5627,177.627,6.06445,-145.854,1392
1569923881,368.796,31.5888,-1.5627,177.627,6.06445,-145.854,1392
1569923881,368.796,31.5888,-1.5627,177.627,6.06445,-145.854,1392
1569923881,368.796,31.5888,-1.5627,177.627,6.06445,-145.854,1388
1569923881,368.796,31.5888,-1.5627,177.627,6.06445,-145.854,1388
1569923881,368.796,31.5888,-1.5627,177.627,6.06445,-145.854,1388
1569923881,368.796,31.5888,-1.5627,177.627,6.06445,-145.854,1384
1569923881,368.796,31.5888,-1.5627,177.627,6.08643,-145.854,1384
1569923881,368.796,31.5888,-1.5627,177.627,6.08643,-145.854,1384
1569923881,368.796,31.5888,-1.5627,177.627,6.08643,-145.876,1384
1569923881,368.796,31.5888,-1.5627,177.627,6.08643,-145.876,1380
1569923881,368.796,31.5888,-1.5627,177.627,6.08643,-145.876,1380
1569923882,368.796,31.5888,-1.5627,177.627,6.08643,-145.876,1380
1569923882,368.796,31.5888,-1.5627,177.627,6.08643,-145.876,1380
1569923882,368.796,31.5888,-1.5627,177.627,6.08643,-145.876,1380
1569923882,368.796,31.5888,-1.5627,177.627,6.08643,-145.876,1380
1569923882,368.796,31.5888,-1.5627,177.627,6.08643,-145.876,1384
1569923882,368.796,31.5888,-1.5627,177.627,6.08643,-145.876,1384
1569923882,368.796,31.5888,-1.5627,177.627,6.08643,-145.876,1384
1569923882,368.796,31.5888,-1.5627,177.627,6.08643,-145.876,1384
1569923882,368.796,31.5888,-1.5627,177.649,6.08643,-145.876,1384
1569923882,368.796,31.5888,-1.5627,177.649,6.08643,-145.876,1384
1569923882,368.796,31.5888,-1.5627,177.649,6.08643,-145.876,1388
1569923882,368.796,31.5888,-1.5627,177.649,6.08643,-145.876,1388
1569923882,368.796,31.5888,-1.5627,177.649,6.08643,-145.876,1388
1569923882,368.796,31.5888,-1.5627,177.649,6.08643,-145.876,1388
1569923882,368.796,31.7004,-1.5627,177.649,6.08643,-145.876,1388
1569923882,368.796,31.7004,-1.5627,177.671,6.08643,-145.876,1388
1569923882,368.796,31.7004,-1.5627,177.671,6.08643,-145.876,1388
1569923882,368.796,31.7004,-1.5627,177.671,6.08643,-145.876,1388
1569923882,368.796,31.7004,-1.5627,177.671,6.08643,-145.876,1388
1569923882,368.796,31.7004,-1.5627,177.671,6.08643,-145.876,1388
1569923882,368.796,31.7004,-1.5627,177.671,6.08643,-145.876,1388
1569923882,368.796,31.7004,-1.5627,177.671,6.08643,-145.876,1388
1569923882,368.796,31.7004,-1.5627,177.671,6.06445,-145.876,1388
1569923882,368.796,31.7004,-1.5627,177.671,6.06445,-145.876,1388
1569923882,368.796,31.7004,-1.5627,177.649,6.06445,-145.876,1388
1569923882,368.796,31.7004,-1.5627,177.649,6.06445,-145.876,1388
1569923882,368.796,31.7004,-1.67432,177.649,6.06445,-145.876,1388
1569923882,368.796,31.7004,-1.67432,177.649,6.06445,-145.876,1388
1569923882,368.796,31.5888,-1.67432,177.649,6.06445,-145.876,1388
1569923882,368.796,31.5888,-1.67432,177.649,6.04248,-145.876,1388
1569923882,368.796,31.5888,-1.67432,177.649,6.04248,-145.876,1388
1569923882,368.796,31.5888,-1.67432,177.649,6.04248,-145.876,1388
1569923882,368.796,31.5888,-1.67432,177.649,6.04248,-145.876,1388
1569923882,368.796,31.5888,-1.67432,177.649,6.04248,-145.876,1388
1569923882,368.796,31.5888,-1.67432,177.649,6.04248,-145.876,1388
1569923882,368.796,31.5888,-1.67432,177.649,6.04248,-145.876,1388
1569923882,368.796,31.5888,-1.67432,177.649,6.04248,-145.876,1388
1569923882,368.796,31.5888,-1.67432,177.649,6.04248,-145.876,1388
1569923882,368.796,31.5888,-1.67432,177.649,6.04248,-145.876,1388
1569923882,368.796,31.5888,-1.67432,177.649,6.04248,-145.876,1388
1569923882,368.796,31.5888,-1.67432,177.649,6.04248,-145.876,1388
1569923882,368.796,31.5888,-1.67432,177.649,6.04248,-145.876,1384
1569923882,368.796,31.5888,-1.67432,177.649,6.06445,-145.876,1384
1569923882,368.796,31.5888,-1.5627,177.649,6.06445,-145.876,1384
1569923882,368.796,31.5888,-1.5627,177.649,6.06445,-145.876,1384
1569923882,368.796,31.5888,-1.5627,177.649,6.06445,-145.876,1384
1569923882,368.796,31.5888,-1.5627,177.649,6.06445,-145.876,1384
1569923882,368.796,31.5888,-1.5627,177.649,6.06445,-145.876,1384
1569923882,368.796,31.5888,-1.5627,177.649,6.06445,-145.876,1388
1569923882,368.796,31.5888,-1.5627,177.649,6.08643,-145.876,1388
1569923882,368.796,31.5888,-1.5627,177.649,6.08643,-145.876,1388
1569923882,368.796,31.5888,-1.5627,177.627,6.08643,-145.876,1388
1569923882,368.796,31.5888,-1.5627,177.627,6.08643,-145.876,1388
1569923882,368.796,31.5888,-1.5627,177.627,6.08643,-145.876,1388
1569923882,368.796,31.5888,-1.5627,177.627,6.08643,-145.876,1388
1569923882,368.796,31.5888,-1.5627,177.627,6.08643,-145.876,1388
1569923882,368.796,31.5888,-1.5627,177.627,6.08643,-145.876,1388
1569923882,368.796,31.5888,-1.5627,177.627,6.08643,-145.876,1388
1569923882,368.796,31.5888,-1.5627,177.627,6.08643,-145.876,1388
1569923882,368.796,31.5888,-1.5627,177.627,6.08643,-145.876,1388
1569923882,368.796,31.5888,-1.5627,177.627,6.08643,-145.876,1388
1569923882,368.796,31.5888,-1.5627,177.627,6.08643,-145.876,1388
1569923882,368.796,31.5888,-1.5627,177.627,6.08643,-145.876,1388
1569923882,368.796,31.5888,-1.5627,177.627,6.08643,-145.876,1388
1569923882,368.796,31.5888,-1.5627,177.627,6.08643,-145.876,1388
1569923882,368.796,31.5888,-1.5627,177.627,6.08643,-145.876,1388
1569923882,368.796,31.5888,-1.5627,177.627,6.08643,-145.876,1388
1569923882,368.796,31.5888,-1.5627,177.627,6.08643,-145.876,1388
1569923882,368.796,31.5888,-1.5627,177.627,6.08643,-145.876,1388
1569923882,368.796,31.5888,-1.5627,177.627,6.08643,-145.876,1388
1569923882,368.796,31.5888,-1.5627,177.627,6.08643,-145.876,1388
1569923882,368.796,31.5888,-1.5627,177.627,6.08643,-145.876,1388
1569923882,368.796,31.5888,-1.5627,177.627,6.08643,-145.876,1388
1569923882,368.796,31.5888,-1.5627,177.627,6.08643,-145.876,1388
1569923882,368.796,31.5888,-1.5627,177.627,6.08643,-145.876,1392
1569923882,368.796,31.5888,-1.5627,177.627,6.08643,-145.876,1392
1569923882,368.796,31.5888,-1.5627,177.627,6.08643,-145.876,1392
1569923882,368.796,31.5888,-1.5627,177.627,6.06445,-145.876,1392
1569923882,368.796,31.5888,-1.5627,177.627,6.06445,-145.876,1392
1569923882,368.796,31.5888,-1.5627,177.627,6.06445,-145.876,1392
1569923882,368.796,31.5888,-1.5627,177.627,6.06445,-145.876,1392
1569923882,368.908,31.5888,-1.5627,177.627,6.06445,-145.876,1392
1569923882,368.908,31.5888,-1.5627,177.627,6.06445,-145.876,1392
1569923882,368.908,31.5888,-1.5627,177.627,6.06445,-145.876,1392
1569923882,368.908,31.5888,-1.5627,177.627,6.06445,-145.876,1392
1569923882,368.908,31.5888,-1.5627,177.627,6.06445,-145.854,1392
1569923882,368.908,31.5888,-1.5627,177.627,6.06445,-145.854,1392
1569923882,368.908,31.5888,-1.5627,177.627,6.06445,-145.854,1396
1569923882,368.908,31.5888,-1.5627,177.627,6.06445,-145.854,1396
1569923882,368.908,31.5888,-1.5627,177.627,6.06445,-145.854,1396
1569923882,368.908,31.5888,-1.5627,177.627,6.06445,-145.854,1396
1569923882,368.908,31.5888,-1.5627,177.627,6.06445,-145.854,1396
1569923885,344.798,55.4757,-1.89756,177.275,6.02051,-146.228,1128
1569923885,344.798,55.4757,-1.89756,177.275,6.02051,-146.228,1128
1569923885,344.798,55.4757,-2.00918,177.275,6.02051,-146.228,1128
1569923885,344.798,55.4757,-2.00918,177.275,6.02051,-146.228,1128
1569923885,344.798,55.4757,-2.00918,177.275,6.02051,-146.228,1128
1569923885,344.798,55.4757,-2.00918,177.275,6.02051,-146.228,1128
1569923885,344.798,55.4757,-2.00918,177.275,6.02051,-146.228,1128
1569923885,344.798,55.4757,-2.00918,177.275,6.02051,-146.228,1128
1569923885,344.798,55.4757,-2.00918,177.297,6.02051,-146.228,1128
1569923885,344.798,55.4757,-2.00918,177.297,6.02051,-146.228,1128
1569923885,344.798,55.4757,-2.00918,177.297,6.02051,-146.228,1128
1569923885,344.798,55.4757,-2.00918,177.275,6.02051,-146.228,1128
1569923885,344.798,55.4757,-2.00918,177.275,6.02051,-146.228,1132
1569923885,344.798,55.4757,-2.00918,177.275,6.02051,-146.228,1132
1569923885,344.798,55.4757,-2.00918,177.275,6.02051,-146.228,1132
1569923885,344.798,55.4757,-2.00918,177.275,6.02051,-146.228,1132
1569923885,344.798,55.4757,-2.00918,177.275,6.02051,-146.25,1132
1569923885,344.798,55.4757,-2.00918,177.275,6.02051,-146.25,1136
1569923885,344.798,55.4757,-2.00918,177.275,6.02051,-146.25,1136
1569923886,344.798,55.4757,-2.00918,177.275,6.02051,-146.25,1136
1569923886,344.798,55.4757,-2.00918,177.275,6.02051,-146.25,1136
1569923886,344.798,55.4757,-2.00918,177.275,6.02051,-146.25,1136
1569923886,344.798,55.4757,-2.00918,177.275,6.02051,-146.25,1136
1569923886,344.798,55.4757,-2.00918,177.275,6.02051,-146.25,1140
1569923886,344.798,55.4757,-2.00918,177.275,6.02051,-146.25,1140
1569923886,344.798,55.4757,-2.00918,177.275,6.02051,-146.25,1140
1569923886,344.798,55.4757,-2.00918,177.275,6.02051,-146.25,1140
1569923886,344.798,55.4757,-2.00918,177.275,6.02051,-146.25,1140
1569923886,344.798,55.4757,-2.00918,177.275,6.02051,-146.25,1140
1569923886,344.798,55.4757,-2.00918,177.275,6.02051,-146.228,1144
1569923886,344.798,55.4757,-2.00918,177.275,6.02051,-146.228,1144
1569923886,344.798,55.4757,-2.00918,177.275,6.02051,-146.228,1144
1569923886,344.798,55.4757,-2.00918,177.275,6.02051,-146.228,1144
1569923886,344.798,55.4757,-2.00918,177.275,6.02051,-146.228,1144
1569923886,344.798,55.4757,-2.00918,177.275,6.02051,-146.228,1144
1569923886,344.798,55.4757,-2.00918,177.275,6.02051,-146.228,1144
1569923886,344.798,55.4757,-2.00918,177.275,6.02051,-146.228,1144
1569923886,344.798,55.4757,-2.00918,177.275,6.02051,-146.228,1144
1569923886,344.798,55.4757,-2.00918,177.275,6.02051,-146.228,1148
1569923886,344.798,55.4757,-2.00918,177.275,6.02051,-146.228,1148
1569923886,344.798,55.4757,-2.00918,177.275,6.02051,-146.228,1148
1569923886,344.798,55.4757,-2.00918,177.275,6.02051,-146.228,1148
1569923886,344.909,55.4757,-2.00918,177.275,6.02051,-146.228,1148
1569923886,344.909,55.4757,-2.00918,177.275,5.99854,-146.228,1148
1569923886,344.909,55.4757,-2.00918,177.275,5.99854,-146.228,1148
1569923886,344.909,55.4757,-2.00918,177.275,5.99854,-146.228,1148
1569923886,344.909,55.4757,-2.00918,177.275,5.99854,-146.25,1152
1569923886,344.909,55.4757,-2.00918,177.275,5.99854,-146.25,1152
1569923886,344.909,55.4757,-2.00918,177.275,5.99854,-146.25,1152
1569923886,344.909,55.4757,-2.00918,177.275,5.99854,-146.25,1152
1569923886,344.909,55.4757,-2.00918,177.275,5.99854,-146.25,1152
1569923886,344.909,55.4757,-2.00918,177.275,5.99854,-146.25,1152
1569923886,344.798,55.4757,-2.00918,177.297,5.99854,-146.25,1152
1569923886,344.798,55.5873,-2.00918,177.297,5.99854,-146.25,1152
1569923886,344.798,55.5873,-2.00918,177.297,5.99854,-146.25,1152
1569923886,344.798,55.5873,-2.00918,177.297,5.99854,-146.25,1152
1569923886,344.798,55.5873,-2.00918,177.297,5.99854,-146.25,1152
1569923886,344.798,55.5873,-2.00918,177.297,5.99854,-146.25,1152
1569923886,344.798,55.5873,-2.00918,177.297,5.99854,-146.25,1152
1569923886,344.798,55.4757,-2.00918,177.297,5.99854,-146.25,1156
1569923886,344.798,55.4757,-2.00918,177.297,5.99854,-146.25,1156
1569923886,344.798,55.4757,-2.00918,177.297,5.99854,-146.25,1156
1569923886,344.798,55.4757,-2.00918,177.297,5.99854,-146.25,1156
1569923886,344.798,55.4757,-2.00918,177.297,5.99854,-146.25,1156
1569923886,344.798,55.4757,-2.00918,177.297,6.02051,-146.25,1156
1569923886,344.798,55.4757,-2.00918,177.297,6.02051,-146.25,1156
1569923886,344.798,55.5873,-2.00918,177.297,6.02051,-146.25,1156
1569923886,344.909,55.5873,-2.00918,177.297,6.02051,-146.25,1156
1569923886,344.909,55.5873,-2.00918,177.297,6.02051,-146.25,1156
1569923886,344.909,55.5873,-2.00918,177.297,6.02051,-146.25,1156
1569923886,344.909,55.5873,-2.00918,177.297,5.99854,-146.25,1156
1569923886,344.909,55.5873,-2.00918,177.297,5.99854,-146.25,1156
1569923886,344.909,55.5873,-2.00918,177.297,6.02051,-146.25,1156
1569923886,344.909,55.5873,-2.00918,177.297,6.02051,-146.25,1156
1569923886,344.909,55.5873,-2.00918,177.297,6.02051,-146.25,1156
1569923886,344.909,55.5873,-2.00918,177.297,6.02051,-146.25,1156
1569923886,344.909,55.4757,-2.00918,177.297,6.02051,-146.25,1156
1569923886,344.909,55.4757,-2.00918,177.297,6.02051,-146.25,1156
1569923886,344.909,55.4757,-2.00918,177.297,6.02051,-146.25,1156
1569923886,344.909,55.4757,-2.00918,177.297,6.02051,-146.25,1156
1569923886,344.909,55.4757,-2.00918,177.297,6.02051,-146.25,1156
1569923886,344.909,55.4757,-2.00918,177.297,6.02051,-146.25,1156
1569923886,344.909,55.4757,-2.00918,177.297,6.02051,-146.25,1156
1569923886,344.909,55.4757,-2.00918,177.297,6.02051,-146.25,1156
1569923886,344.909,55.4757,-2.00918,177.297,5.99854,-146.25,1156
1569923886,344.909,55.4757,-2.00918,177.297,5.99854,-146.25,1156
1569923886,344.909,55.4757,-2.00918,177.297,5.99854,-146.25,1156
1569923886,344.909,55.4757,-2.00918,177.297,5.99854,-146.25,1156
1569923886,344.909,55.4757,-2.00918,177.297,5.99854,-146.25,1156
1569923886,344.909,55.4757,-2.00918,177.275,5.99854,-146.25,1156
1569923886,344.909,55.4757,-2.00918,177.275,5.99854,-146.25,1156
1569923886,344.909,55.4757,-2.00918,177.275,5.99854,-146.25,1156
1569923886,344.909,55.4757,-2.00918,177.275,5.99854,-146.25,1152
1569923886,344.909,55.4757,-2.00918,177.275,5.99854,-146.25,1152
1569923886,344.909,55.4757,-2.00918,177.275,5.99854,-146.25,1152
1569923886,344.909,55.4757,-2.00918,177.275,5.99854,-146.25,1152
1569923886,344.909,55.4757,-2.00918,177.275,5.99854,-146.25,1152
1569923886,344.909,55.4757,-2.00918,177.275,5.99854,-146.25,1152
1569923886,344.909,55.4757,-2.00918,177.275,6.02051,-146.25,1148
1569923886,344.909,55.4757,-2.00918,177.275,6.02051,-146.25,1148
1569923886,344.909,55.4757,-2.00918,177.275,6.02051,-146.25,1148
1569923886,344.798,55.4757,-2.00918,177.275,6.02051,-146.25,1148
1569923886,344.798,55.4757,-2.00918,177.275,6.02051,-146.25,1144
1569923886,344.798,55.4757,-2.00918,177.275,6.02051,-146.25,1144
1569923886,344.798,55.4757,-2.00918,177.275,6.02051,-146.25,1144
1569923886,344.798,55.4757,-2.00918,177.275,6.02051,-146.25,1144
1569923886,344.798,55.4757,-2.00918,177.275,6.02051,-146.25,1140
1569923886,344.798,55.4757,-2.00918,177.275,6.02051,-146.25,1140
1569923886,344.798,55.4757,-2.00918,177.275,6.02051,-146.25,1140
1569923886,344.909,55.4757,-2.00918,177.275,6.02051,-146.25,1140
1569923886,344.909,55.4757,-2.00918,177.275,6.02051,-146.25,1140
1569923886,344.909,55.4757,-2.00918,177.275,6.02051,-146.25,1140
1569923886,344.909,55.4757,-2.00918,177.275,6.02051,-146.25,1140
1569923886,344.909,55.4757,-2.00918,177.275,6.02051,-146.25,1140
1569923886,344.909,55.4757,-2.00918,177.275,6.02051,-146.25,1140
1569923886,344.909,55.4757,-2.00918,177.275,6.02051,-146.25,1140
1569923886,344.909,55.4757,-2.00918,177.275,6.02051,-146.25,1136
1569923886,344.909,55.4757,-2.00918,177.275,6.02051,-146.25,1136
1569923886,344.909,55.4757,-2.00918,177.275,6.02051,-146.25,1136
1569923886,344.909,55.4757,-2.00918,177.275,6.02051,-146.25,1136
1569923887,344.909,55.4757,-2.00918,177.275,6.02051,-146.25,1136
1569923887,344.909,55.4757,-2.00918,177.275,6.02051,-146.25,1136
1569923887,344.909,55.4757,-2.00918,177.275,6.04248,-146.25,1136
1569923887,344.909,55.4757,-2.00918,177.275,6.04248,-146.25,1136
1569923887,344.909,55.4757,-2.00918,177.275,6.04248,-146.25,1136
1569923887,344.909,55.4757,-2.00918,177.297,6.04248,-146.228,1136
1569923887,344.909,55.5873,-2.00918,177.297,6.04248,-146.228,1136
1569923887,344.909,55.5873,-2.00918,177.297,6.04248,-146.228,1136
1569923887,344.909,55.5873,-2.00918,177.297,6.04248,-146.228,1136
1569923887,344.909,55.5873,-2.00918,177.297,6.04248,-146.228,1136
1569923887,344.909,55.5873,-2.00918,177.297,6.04248,-146.25,1136
1569923887,344.798,55.5873,-2.00918,177.319,6.04248,-146.25,1136
1569923887,344.909,55.5873,-2.00918,177.319,6.04248,-146.25,1136
1569923887,344.909,55.5873,-2.00918,177.319,6.04248,-146.25,1136
1569923887,344.909,55.5873,-2.00918,177.319,6.04248,-146.25,1136
1569923887,344.909,55.5873,-2.00918,177.319,6.02051,-146.25,1136
1569923887,344.909,55.5873,-2.00918,177.319,6.02051,-146.25,1136
1569923887,344.909,55.5873,-2.00918,177.319,6.02051,-146.25,1136
1569923887,344.909,55.5873,-2.00918,177.319,6.02051,-146.25,1140
1569923887,344.909,55.5873,-2.00918,177.319,6.02051,-146.25,1140
1569923887,344.909,55.5873,-2.00918,177.319,6.02051,-146.25,1140
1569923887,344.798,55.5873,-2.00918,177.319,6.02051,-146.25,1136
1569923887,344.798,55.5873,-2.00918,177.319,6.02051,-146.25,1136
1569923887,344.798,55.5873,-2.00918,177.319,6.02051,-146.25,1136
1569923887,344.798,55.5873,-2.00918,177.319,6.02051,-146.25,1136
1569923887,344.798,55.5873,-2.00918,177.319,6.02051,-146.25,1136
1569923887,344.798,55.5873,-1.89756,177.297,6.02051,-146.25,1136
1569923887,344.798,55.5873,-1.89756,177.297,6.02051,-146.25,1136
1569923887,344.798,55.5873,-1.89756,177.297,6.02051,-146.25,1136
1569923887,344.798,55.5873,-1.89756,177.297,6.02051,-146.25,1132
1569923887,344.798,55.5873,-1.89756,177.297,6.02051,-146.25,1132
1569923887,344.798,55.5873,-1.89756,177.297,6.02051,-146.25,1132
1569923887,344.798,55.5873,-1.89756,177.297,6.02051,-146.25,1132
1569923887,344.798,55.5873,-1.89756,177.297,6.02051,-146.25,1132
1569923887,344.798,55.5873,-1.89756,177.297,6.02051,-146.25,1132
1569923887,344.798,55.4757,-1.89756,177.297,6.02051,-146.25,1132
1569923887,344.798,55.4757,-1.89756,177.297,6.02051,-146.25,1132
1569923887,344.798,55.4757,-1.89756,177.297,6.02051,-146.25,1132
1569923887,344.798,55.4757,-1.89756,177.297,6.02051,-146.25,1132
1569923887,344.798,55.4757,-1.89756,177.297,6.02051,-146.25,1128
1569923887,344.798,55.4757,-1.89756,177.297,6.02051,-146.25,1128
1569923887,344.798,55.4757,-1.89756,177.275,6.04248,-146.25,1128
1569923887,344.798,55.4757,-1.89756,177.275,6.04248,-146.25,1128
1569923887,344.798,55.4757,-1.89756,177.275,6.04248,-146.25,1128
1569923887,344.798,55.4757,-1.89756,177.275,6.02051,-146.25,1128
1569923887,344.798,55.4757,-1.89756,177.275,6.02051,-146.25,1128
1569923887,344.798,55.4757,-1.89756,177.275,6.02051,-146.25,1128
1569923887,344.798,55.4757,-1.89756,177.275,6.02051,-146.25,1128
1569923887,344.798,55.4757,-1.89756,177.275,6.02051,-146.25,1132
1569923887,344.909,55.4757,-1.89756,177.275,6.02051,-146.25,1132
1569923887,344.909,55.4757,-1.89756,177.275,6.02051,-146.25,1132
1569923887,344.909,55.4757,-2.00918,177.275,6.02051,-146.25,1132
1569923887,344.909,55.4757,-2.00918,177.275,6.02051,-146.25,1132
1569923887,344.909,55.4757,-2.00918,177.275,6.02051,-146.25,1132
1569923887,344.909,55.4757,-1.89756,177.275,6.02051,-146.25,1132
1569923887,344.909,55.4757,-1.89756,177.275,6.02051,-146.25,1132
1569923887,344.909,55.4757,-1.89756,177.275,6.04248,-146.25,1132
1569923887,344.909,55.4757,-1.89756,177.275,6.04248,-146.25,1132
1569923887,344.909,55.4757,-1.89756,177.275,6.04248,-146.25,1132
1569923887,344.909,55.4757,-1.89756,177.275,6.04248,-146.25,1132
1569923887,344.909,55.4757,-1.89756,177.275,6.04248,-146.25,1136
1569923887,344.909,55.4757,-1.89756,177.275,6.04248,-146.25,1136
1569923887,344.909,55.4757,-1.89756,177.275,6.04248,-146.25,1136
1569923887,344.909,55.4757,-1.89756,177.275,6.04248,-146.25,1136
1569923887,344.909,55.4757,-1.89756,177.275,6.04248,-146.25,1136
1569923887,344.909,55.4757,-1.89756,177.275,6.04248,-146.25,1136
1569923887,344.909,55.4757,-1.89756,177.275,6.04248,-146.25,1136
1569923887,344.909,55.4757,-1.89756,177.275,6.04248,-146.25,1136
1569923887,344.909,55.4757,-2.00918,177.275,6.02051,-146.25,1140
1569923887,344.909,55.4757,-2.00918,177.275,6.02051,-146.25,1140
1569923887,344.909,55.4757,-2.00918,177.275,6.02051,-146.25,1140
1569923887,344.909,55.4757,-2.00918,177.275,6.02051,-146.25,1140
1569923887,344.909,55.4757,-2.00918,177.275,6.02051,-146.25,1140
1569923887,344.909,55.4757,-2.00918,177.275,6.02051,-146.25,1140
1569923887,344.909,55.4757,-2.00918,177.275,6.02051,-146.25,1140
1569923887,344.909,55.4757,-2.00918,177.275,6.02051,-146.25,1140
1569923887,344.909,55.4757,-2.00918,177.275,6.02051,-146.25,1140
1569923887,344.909,55.4757,-2.00918,177.275,6.02051,-146.25,1140
1569923887,344.909,55.4757,-2.00918,177.275,6.02051,-146.25,1144
1569923887,344.909,55.4757,-2.00918,177.275,6.02051,-146.25,1144
1569923887,344.909,55.4757,-2.00918,177.275,6.02051,-146.25,1144
1569923887,344.909,55.4757,-2.00918,177.275,6.02051,-146.25,1144
1569923887,344.909,55.4757,-2.00918,177.275,6.02051,-146.25,1144
1569923887,344.909,55.4757,-2.00918,177.275,6.02051,-146.25,1144
1569923887,344.909,55.4757,-2.00918,177.275,5.99854,-146.25,1144
1569923887,344.909,55.4757,-2.00918,177.275,5.99854,-146.25,1144
1569923887,344.909,55.4757,-2.00918,177.275,5.99854,-146.25,1144
1569923887,344.909,55.4757,-2.00918,177.275,5.99854,-146.25,1148
1569923887,344.909,55.4757,-2.00918,177.275,5.99854,-146.25,1148
1569923887,344.909,55.4757,-2.00918,177.275,5.99854,-146.25,1148
1569923887,344.909,55.4757,-2.00918,177.275,5.99854,-146.25,1148
1569923887,344.909,55.4757,-2.00918,177.275,5.99854,-146.25,1148
1569923887,344.909,55.4757,-2.00918,177.275,5.99854,-146.25,1148
1569923887,344.909,55.4757,-2.00918,177.275,5.99854,-146.25,1148
1569923887,344.909,55.4757,-2.00918,177.275,5.99854,-146.228,1148
1569923887,344.909,55.4757,-2.00918,177.275,5.99854,-146.228,1148
1569923887,344.909,55.4757,-2.00918,177.275,5.99854,-146.228,1148
1569923887,344.909,55.4757,-2.00918,177.275,5.99854,-146.25,1148
1569923887,344.909,55.4757,-2.00918,177.275,5.99854,-146.25,1148
1569923887,344.909,55.4757,-2.00918,177.275,5.99854,-146.25,1148
1569923888,344.909,55.4757,-2.00918,177.275,5.99854,-146.25,1144
1569923888,344.909,55.4757,-2.00918,177.275,5.99854,-146.25,1144
1569923888,344.798,55.4757,-2.00918,177.275,5.99854,-146.25,1144
1569923888,344.798,55.4757,-2.00918,177.275,5.99854,-146.25,1144
1569923888,344.798,55.4757,-2.00918,177.275,5.99854,-146.25,1144
1569923888,344.798,55.4757,-2.00918,177.275,5.99854,-146.25,1144
1569923888,344.798,55.4757,-2.00918,177.275,5.99854,-146.25,1144
1569923888,344.798,55.4757,-2.00918,177.275,5.99854,-146.25,1144
1569923888,344.798,55.4757,-2.00918,177.275,5.99854,-146.25,1144
1569923888,344.798,55.4757,-2.00918,177.275,5.99854,-146.25,1144
1569923888,344.798,55.4757,-2.00918,177.275,5.99854,-146.25,1144
1569923888,344.798,55.4757,-2.00918,177.275,5.99854,-146.25,1140
1569923888,344.798,55.4757,-2.00918,177.275,5.99854,-146.25,1140
1569923888,344.798,55.4757,-2.00918,177.275,5.99854,-146.25,1140
1569923888,344.798,55.4757,-2.00918,177.275,5.99854,-146.25,1140
1569923888,344.798,55.4757,-2.00918,177.275,5.99854,-146.25,1140
1569923888,344.798,55.4757,-2.00918,177.275,5.99854,-146.25,1140
1569923888,344.798,55.4757,-2.00918,177.275,5.99854,-146.25,1136
1569923888,344.798,55.4757,-2.00918,177.275,5.99854,-146.25,1136
1569923888,344.798,55.4757,-2.00918,177.275,5.99854,-146.25,1136
1569923888,344.798,55.4757,-2.00918,177.275,5.99854,-146.25,1136
1569923888,344.909,55.4757,-2.00918,177.275,5.99854,-146.25,1136
1569923888,344.909,55.4757,-2.00918,177.275,6.02051,-146.25,1136
1569923888,344.909,55.4757,-2.00918,177.275,6.02051,-146.25,1136
1569923888,344.909,55.4757,-2.00918,177.275,6.02051,-146.25,1136
1569923888,344.909,55.4757,-2.00918,177.275,6.02051,-146.25,1136
1569923888,344.909,55.4757,-2.00918,177.275,6.02051,-146.25,1136
1569923888,344.909,55.4757,-2.00918,177.275,6.02051,-146.25,1140
1569923888,344.909,55.4757,-2.00918,177.275,6.02051,-146.25,1140
1569923888,344.909,55.4757,-2.00918,177.275,6.02051,-146.25,1140
1569923888,344.909,55.4757,-2.00918,177.275,6.02051,-146.25,1140
1569923888,344.909,55.4757,-2.00918,177.275,6.02051,-146.25,1140
1569923888,344.909,55.4757,-2.00918,177.275,6.02051,-146.25,1140
1569923888,344.909,55.4757,-2.00918,177.275,6.02051,-146.25,1140
1569923888,344.909,55.4757,-2.00918,177.275,6.02051,-146.25,1140
1569923888,344.909,55.4757,-2.00918,177.275,6.02051,-146.25,1140
1569923888,344.909,55.4757,-2.00918,177.275,5.99854,-146.25,1140
1569923888,344.909,55.4757,-2.00918,177.275,5.99854,-146.228,1140
1569923888,344.909,55.4757,-2.00918,177.275,5.99854,-146.228,1140
1569923888,344.909,55.4757,-2.00918,177.275,5.99854,-146.228,1144
1569923888,344.909,55.4757,-2.00918,177.275,5.99854,-146.228,1144
1569923888,344.909,55.4757,-2.00918,177.275,5.99854,-146.228,1144
1569923888,344.909,55.4757,-2.00918,177.275,5.99854,-146.228,1144
1569923888,344.909,55.4757,-2.00918,177.275,5.99854,-146.228,1144
1569923888,344.909,55.4757,-2.00918,177.275,6.02051,-146.228,1144
1569923888,344.909,55.4757,-2.00918,177.275,6.02051,-146.228,1144
1569923888,344.909,55.4757,-2.00918,177.275,6.02051,-146.228,1144
1569923888,344.798,55.4757,-2.00918,177.275,6.02051,-146.228,1144
1569923888,344.798,55.4757,-2.00918,177.275,6.02051,-146.25,1140
1569923888,344.798,55.4757,-2.00918,177.275,6.02051,-146.25,1140
1569923888,344.798,55.4757,-2.00918,177.275,6.02051,-146.25,1140
1569923888,344.798,55.4757,-2.00918,177.275,6.02051,-146.25,1140
1569923888,344.798,55.4757,-2.00918,177.275,6.02051,-146.25,1140
1569923888,344.798,55.4757,-2.00918,177.275,6.02051,-146.25,1144
1569923888,344.798,55.4757,-2.00918,177.275,6.02051,-146.25,1144
1569923888,344.798,55.4757,-2.00918,177.275,6.02051,-146.25,1144
1569923888,344.909,55.4757,-2.00918,177.275,6.02051,-146.25,1144
1569923888,344.909,55.4757,-2.00918,177.275,6.02051,-146.25,1144
1569923888,344.909,55.4757,-2.00918,177.275,6.02051,-146.25,1144
1569923888,344.909,55.4757,-2.00918,177.275,6.02051,-146.25,1144
1569923888,344.909,55.4757,-2.00918,177.275,6.02051,-146.25,1144
1569923888,344.909,55.4757,-2.00918,177.275,6.02051,-146.25,1144
1569923888,344.909,55.4757,-2.00918,177.275,6.02051,-146.25,1144
1569923888,344.909,55.4757,-2.00918,177.275,6.02051,-146.25,1148
1569923888,344.909,55.4757,-2.00918,177.275,6.02051,-146.25,1148
1569923888,344.909,55.4757,-2.00918,177.275,6.02051,-146.25,1148
1569923888,344.909,55.4757,-2.00918,177.275,6.02051,-146.25,1148
1569923888,344.909,55.4757,-2.00918,177.275,6.02051,-146.25,1148
1569923888,344.909,55.4757,-2.00918,177.275,6.02051,-146.25,1148
1569923888,344.909,55.4757,-2.00918,177.275,6.02051,-146.25,1148
1569923888,344.909,55.4757,-2.00918,177.275,6.02051,-146.25,1148
1569923888,344.909,55.4757,-2.00918,177.275,6.02051,-146.25,1148
1569923888,344.909,55.4757,-2.00918,177.275,6.02051,-146.25,1148
1569923888,344.909,55.4757,-2.00918,177.275,6.02051,-146.25,1148
1569923888,344.909,55.4757,-2.00918,177.275,6.02051,-146.25,1148
1569923888,344.909,55.4757,-2.00918,177.275,6.02051,-146.25,1148
1569923888,344.909,55.4757,-2.00918,177.275,6.02051,-146.25,1148
1569923888,344.909,55.4757,-2.00918,177.275,5.99854,-146.25,1148
1569923888,344.909,55.4757,-2.00918,177.275,5.99854,-146.25,1148
1569923888,344.909,55.4757,-2.00918,177.275,5.99854,-146.25,1148
1569923888,344.909,55.4757,-2.00918,177.275,5.99854,-146.25,1148
1569923888,344.909,55.4757,-2.00918,177.275,5.99854,-146.25,1148
1569923888,344.909,55.4757,-2.00918,177.275,5.99854,-146.25,1148
1569923888,344.909,55.4757,-2.00918,177.275,5.99854,-146.25,1148
1569923888,344.909,55.4757,-2.00918,177.275,5.99854,-146.25,1148
1569923888,344.909,55.4757,-2.00918,177.275,5.99854,-146.25,1148
1569923888,344.909,55.4757,-2.00918,177.275,5.99854,-146.25,1148
1569923888,344.909,55.4757,-2.00918,177.275,5.99854,-146.25,1148
1569923888,344.909,55.4757,-2.00918,177.275,5.99854,-146.25,1148
1569923888,344.909,55.4757,-2.00918,177.275,5.99854,-146.25,1148
1569923888,344.909,55.4757,-2.1208,177.297,5.97656,-146.25,1148
1569923888,344.909,55.4757,-2.1208,177.297,5.97656,-146.25,1144
1569923888,344.909,55.4757,-2.1208,177.297,5.97656,-146.25,1144
1569923888,344.909,55.4757,-2.1208,177.297,5.97656,-146.25,1144
1569923888,344.909,55.4757,-2.1208,177.297,5.97656,-146.25,1144
1569923888,344.909,55.4757,-2.1208,177.297,5.97656,-146.25,1144
1569923888,344.909,55.4757,-2.1208,177.297,5.97656,-146.25,1144
1569923888,344.909,55.4757,-2.1208,177.297,5.97656,-146.25,1144
1569923888,344.909,55.4757,-2.1208,177.297,5.99854,-146.25,1144
1569923888,344.909,55.4757,-2.00918,177.297,5.99854,-146.25,1144
1569923889,344.909,55.4757,-2.00918,177.297,5.99854,-146.25,1144
1569923889,344.909,55.4757,-2.00918,177.297,5.99854,-146.25,1144
1569923889,344.909,55.4757,-2.00918,177.297,5.99854,-146.25,1144
1569923889,344.909,55.4757,-2.00918,177.297,5.99854,-146.25,1144
1569923889,344.909,55.4757,-2.00918,177.297,5.99854,-146.25,1144
1569923889,344.909,55.4757,-2.00918,177.297,5.99854,-146.25,1144
1569923889,344.909,55.4757,-2.00918,177.297,5.99854,-146.25,1140
1569923889,344.909,55.4757,-2.00918,177.297,5.99854,-146.25,1140
1569923889,344.909,55.4757,-2.00918,177.297,5.99854,-146.25,1140
1569923889,344.909,55.4757,-2.00918,177.297,5.99854,-146.25,1140
1569923889,344.909,55.4757,-2.00918,177.297,5.99854,-146.25,1140
1569923889,344.909,55.4757,-2.00918,177.297,5.99854,-146.228,1140
1569923889,344.909,55.5873,-2.00918,177.297,6.02051,-146.228,1140
1569923889,344.909,55.5873,-2.00918,177.297,6.02051,-146.228,1140
1569923889,344.909,55.5873,-2.00918,177.297,6.02051,-146.228,1140
1569923889,344.909,55.5873,-2.00918,177.297,6.02051,-146.228,1140
1569923889,344.909,55.5873,-2.00918,177.297,6.02051,-146.228,1140
1569923889,344.909,55.5873,-2.00918,177.297,6.02051,-146.228,1136
1569923889,344.909,55.5873,-2.00918,177.297,6.02051,-146.228,1136
1569923889,344.909,55.5873,-2.00918,177.297,6.02051,-146.228,1136
1569923889,344.909,55.4757,-2.00918,177.297,6.02051,-146.228,1136
1569923889,344.909,55.4757,-2.00918,177.297,6.02051,-146.228,1136
1569923889,344.909,55.4757,-2.00918,177.297,6.02051,-146.228,1136
1569923889,344.909,55.4757,-2.00918,177.297,6.02051,-146.228,1136
1569923889,344.909,55.4757,-2.00918,177.297,6.02051,-146.228,1136
1569923889,344.909,55.4757,-2.00918,177.297,6.02051,-146.228,1136
1569923889,344.909,55.4757,-2.00918,177.275,6.02051,-146.25,1136
1569923889,344.909,55.4757,-2.00918,177.275,6.02051,-146.25,1136
1569923889,344.909,55.4757,-2.00918,177.275,6.02051,-146.25,1136
1569923889,344.909,55.4757,-2.00918,177.275,6.02051,-146.25,1136
1569923889,344.909,55.4757,-2.00918,177.275,6.02051,-146.25,1136
1569923889,344.909,55.4757,-2.00918,177.275,6.02051,-146.25,1136
1569923889,344.909,55.4757,-2.00918,177.275,6.02051,-146.25,1136
1569923889,344.798,55.4757,-2.00918,177.297,6.02051,-146.25,1136
1569923889,344.798,55.4757,-2.00918,177.297,6.02051,-146.25,1136
1569923889,344.798,55.4757,-2.00918,177.297,6.02051,-146.25,1132
1569923889,344.798,55.4757,-2.00918,177.297,6.02051,-146.25,1132
1569923889,344.798,55.4757,-2.00918,177.297,6.02051,-146.25,1132
1569923889,344.798,55.4757,-2.00918,177.297,6.02051,-146.25,1132
1569923889,344.798,55.4757,-2.00918,177.297,6.02051,-146.25,1132
1569923889,344.798,55.4757,-2.00918,177.297,6.02051,-146.25,1132
1569923889,344.798,55.5873,-2.00918,177.297,6.02051,-146.25,1132
1569923889,344.798,55.5873,-2.00918,177.297,6.02051,-146.25,1132
1569923889,344.798,55.5873,-2.00918,177.297,6.02051,-146.25,1132
1569923889,344.798,55.5873,-2.00918,177.297,6.02051,-146.25,1132
1569923889,344.798,55.5873,-2.00918,177.297,6.02051,-146.25,1132
1569923889,344.798,55.5873,-2.00918,177.297,6.02051,-146.25,1132
1569923889,344.798,55.5873,-2.00918,177.297,6.02051,-146.25,1132
1569923889,344.798,55.5873,-2.00918,177.297,6.02051,-146.25,1136
1569923889,344.798,55.5873,-2.00918,177.297,6.02051,-146.25,1136
1569923889,344.798,55.5873,-2.00918,177.297,6.02051,-146.25,1136
1569923889,344.798,55.5873,-2.00918,177.297,6.02051,-146.25,1136
1569923889,344.798,55.5873,-2.00918,177.297,6.02051,-146.25,1136
1569923889,344.798,55.5873,-2.00918,177.297,6.02051,-146.25,1140
1569923889,344.798,55.5873,-2.00918,177.297,6.02051,-146.25,1140
1569923889,344.798,55.5873,-2.00918,177.297,6.02051,-146.25,1140
1569923889,344.798,55.5873,-2.00918,177.297,6.02051,-146.25,1140
1569923889,344.798,55.5873,-2.00918,177.297,6.02051,-146.25,1140
1569923889,344.798,55.5873,-2.00918,177.297,6.02051,-146.25,1144
1569923889,344.798,55.5873,-2.00918,177.297,6.02051,-146.25,1144
1569923889,344.798,55.5873,-2.00918,177.297,6.02051,-146.25,1144
1569923889,344.798,55.5873,-2.00918,177.297,6.02051,-146.25,1144
1569923889,344.798,55.5873,-2.00918,177.319,6.02051,-146.25,1144
1569923889,344.798,55.5873,-2.00918,177.319,6.02051,-146.25,1144
1569923889,344.798,55.5873,-2.00918,177.319,5.99854,-146.25,1144
1569923889,344.798,55.5873,-2.00918,177.319,5.99854,-146.25,1144
1569923889,344.798,55.5873,-2.00918,177.319,5.99854,-146.228,1144
1569923889,344.798,55.5873,-2.00918,177.319,5.99854,-146.228,1144
1569923889,344.798,55.5873,-2.00918,177.319,5.99854,-146.228,1144
1569923889,344.798,55.5873,-2.00918,177.319,5.99854,-146.228,1144
1569923889,344.798,55.5873,-2.00918,177.319,5.99854,-146.228,1144
1569923889,344.798,55.5873,-2.00918,177.319,5.99854,-146.228,1144
1569923889,344.798,55.5873,-2.00918,177.319,5.99854,-146.228,1144
1569923889,344.798,55.5873,-2.00918,177.319,5.99854,-146.228,1144
1569923889,344.798,55.5873,-2.00918,177.319,5.99854,-146.228,1148
1569923889,344.798,55.5873,-2.00918,177.319,5.99854,-146.228,1148
1569923889,344.798,55.5873,-2.00918,177.319,5.99854,-146.228,1148
1569923889,344.909,55.5873,-2.00918,177.319,5.99854,-146.228,1148
1569923889,344.909,55.5873,-2.00918,177.319,5.99854,-146.228,1148
1569923889,344.909,55.5873,-2.00918,177.297,5.99854,-146.228,1148
1569923889,344.909,55.5873,-2.00918,177.297,5.99854,-146.228,1148
1569923889,344.909,55.5873,-2.00918,177.297,5.99854,-146.228,1148
1569923889,344.909,55.5873,-2.00918,177.297,5.99854,-146.228,1148
1569923889,344.909,55.5873,-2.00918,177.297,5.99854,-146.228,1148
1569923889,344.909,55.5873,-2.00918,177.297,5.99854,-146.228,1148
1569923889,344.909,55.5873,-2.00918,177.297,5.99854,-146.228,1148
1569923889,344.909,55.5873,-2.00918,177.297,5.99854,-146.228,1148
1569923889,344.909,55.5873,-2.00918,177.297,5.99854,-146.228,1148
1569923889,344.909,55.5873,-2.00918,177.297,5.99854,-146.228,1148
1569923889,344.909,55.5873,-2.00918,177.297,5.99854,-146.228,1148
1569923889,344.909,55.5873,-2.00918,177.297,5.99854,-146.228,1148
1569923889,344.909,55.5873,-2.00918,177.297,5.99854,-146.228,1148
1569923889,344.909,55.4757,-2.00918,177.297,5.99854,-146.228,1144
1569923889,344.798,55.4757,-2.00918,177.297,5.99854,-146.228,1144
1569923889,344.798,55.4757,-2.00918,177.297,5.99854,-146.228,1144
1569923889,344.798,55.4757,-2.00918,177.297,5.99854,-146.228,1144
1569923889,344.798,55.4757,-2.00918,177.297,5.99854,-146.228,1144
1569923889,344.798,55.4757,-2.00918,177.297,5.99854,-146.228,1144
1569923889,344.798,55.4757,-2.00918,177.297,5.99854,-146.228,1140
1569923889,344.798,55.4757,-2.00918,177.297,5.99854,-146.228,1140
1569923890,344.798,55.4757,-2.00918,177.297,5.99854,-146.228,1140
1569923890,344.798,55.4757,-2.00918,177.297,5.99854,-146.228,1140
1569923890,344.798,55.4757,-2.00918,177.297,5.97656,-146.228,1140
1569923890,344.798,55.4757,-2.00918,177.297,5.97656,-146.228,1140
1569923890,344.798,55.4757,-2.1208,177.297,5.97656,-146.228,1140
1569923890,344.798,55.5873,-2.1208,177.297,5.97656,-146.228,1140
1569923890,344.798,55.5873,-2.1208,177.297,5.97656,-146.228,1140
1569923890,344.798,55.5873,-2.1208,177.297,5.97656,-146.228,1136
1569923890,344.798,55.5873,-2.1208,177.297,5.97656,-146.228,1136
1569923890,344.798,55.5873,-2.1208,177.297,5.97656,-146.228,1136
1569923890,344.798,55.5873,-2.1208,177.297,5.97656,-146.228,1136
1569923890,344.798,55.5873,-2.1208,177.297,5.97656,-146.228,1136
1569923890,344.798,55.5873,-2.1208,177.297,5.97656,-146.228,1136
1569923890,344.798,55.5873,-2.00918,177.297,5.97656,-146.228,1140
1569923890,344.798,55.5873,-2.00918,177.297,5.99854,-146.228,1140
1569923890,344.798,55.5873,-2.00918,177.297,5.99854,-146.228,1140
1569923890,344.798,55.5873,-2.00918,177.297,5.99854,-146.228,1140
1569923890,344.798,55.5873,-2.00918,177.297,5.99854,-146.228,1140
1569923890,344.798,55.5873,-2.00918,177.297,5.99854,-146.228,1140
1569923890,344.798,55.5873,-2.00918,177.297,5.99854,-146.228,1140
1569923890,344.798,55.5873,-2.00918,177.297,5.99854,-146.228,1140
1569923890,344.798,55.5873,-2.00918,177.297,5.99854,-146.228,1140
1569923890,344.798,55.5873,-2.00918,177.297,5.99854,-146.228,1144
1569923890,344.798,55.5873,-2.00918,177.297,5.99854,-146.228,1144
1569923890,344.798,55.5873,-2.00918,177.319,5.99854,-146.228,1144
1569923890,344.798,55.5873,-2.00918,177.319,5.99854,-146.228,1144
1569923890,344.798,55.5873,-2.00918,177.319,5.99854,-146.25,1144
1569923890,344.798,55.5873,-2.00918,177.319,5.99854,-146.25,1144
1569923890,344.798,55.5873,-2.00918,177.319,5.99854,-146.25,1144
1569923890,344.798,55.5873,-2.00918,177.319,5.99854,-146.25,1144
1569923890,344.798,55.5873,-2.00918,177.319,5.99854,-146.25,1144
1569923890,344.798,55.5873,-2.00918,177.319,5.99854,-146.25,1144
1569923890,344.798,55.5873,-2.00918,177.319,5.99854,-146.25,1144
1569923890,344.798,55.5873,-2.00918,177.319,6.02051,-146.25,1144
1569923890,344.798,55.5873,-2.00918,177.319,6.02051,-146.25,1144
1569923890,344.798,55.5873,-2.00918,177.319,6.02051,-146.25,1144
1569923890,344.798,55.5873,-2.00918,177.319,6.02051,-146.25,1144
1569923890,344.798,55.5873,-2.00918,177.297,6.02051,-146.25,1144
1569923890,344.798,55.5873,-2.00918,177.297,6.02051,-146.25,1144
1569923890,344.798,55.5873,-2.00918,177.297,6.02051,-146.25,1144
1569923890,344.798,55.5873,-2.00918,177.297,6.02051,-146.25,1144
1569923890,344.798,55.5873,-2.00918,177.297,6.02051,-146.25,1144
1569923890,344.798,55.5873,-2.00918,177.297,5.99854,-146.25,1144
1569923890,344.909,55.5873,-2.00918,177.297,5.99854,-146.25,1144
1569923890,344.909,55.5873,-2.00918,177.297,5.99854,-146.25,1144
1569923890,344.909,55.5873,-2.00918,177.297,5.99854,-146.25,1148
1569923890,344.909,55.5873,-2.00918,177.297,6.02051,-146.25,1148
1569923890,344.909,55.5873,-2.00918,177.297,6.02051,-146.25,1148
1569923890,344.909,55.5873,-2.00918,177.297,6.02051,-146.25,1152
1569923890,344.909,55.5873,-2.00918,177.297,6.02051,-146.25,1152
1569923890,344.909,55.5873,-2.00918,177.319,6.02051,-146.25,1152
1569923890,344.909,55.5873,-2.00918,177.319,6.02051,-146.25,1152
1569923890,344.909,55.5873,-2.00918,177.319,6.02051,-146.25,1156
1569923890,344.909,55.5873,-2.00918,177.319,6.02051,-146.25,1156
1569923890,344.909,55.5873,-2.00918,177.319,6.02051,-146.25,1156
1569923890,344.909,55.5873,-2.00918,177.297,6.02051,-146.25,1156
1569923890,344.909,55.5873,-2.00918,177.297,6.02051,-146.25,1156
1569923890,344.909,55.5873,-2.00918,177.297,6.02051,-146.25,1156
1569923890,344.909,55.5873,-2.00918,177.297,6.02051,-146.25,1156
1569923890,344.909,55.5873,-2.00918,177.297,6.02051,-146.25,1156
1569923890,344.909,55.4757,-2.00918,177.297,6.02051,-146.25,1156
1569923890,344.909,55.4757,-2.00918,177.297,6.02051,-146.25,1156
1569923890,344.909,55.4757,-2.00918,177.297,6.02051,-146.25,1156
1569923890,344.798,55.4757,-2.00918,177.297,6.02051,-146.25,1160
1569923890,344.798,55.4757,-2.00918,177.297,6.02051,-146.25,1160
1569923890,344.798,55.4757,-2.00918,177.297,5.99854,-146.25,1160
1569923890,344.798,55.4757,-2.00918,177.297,5.99854,-146.228,1156
1569923890,344.798,55.4757,-2.00918,177.297,5.99854,-146.228,1156
1569923890,344.798,55.4757,-2.00918,177.297,5.99854,-146.228,1156
1569923890,344.798,55.4757,-2.00918,177.297,5.99854,-146.228,1156
1569923890,344.798,55.4757,-2.00918,177.297,6.02051,-146.228,1156
1569923890,344.798,55.4757,-2.00918,177.297,6.02051,-146.228,1156
1569923890,344.798,55.4757,-2.00918,177.297,6.02051,-146.228,1156
1569923890,344.798,55.4757,-2.00918,177.297,6.02051,-146.228,1156
1569923890,344.798,55.5873,-2.00918,177.297,6.02051,-146.228,1156
1569923890,344.798,55.5873,-2.00918,177.297,6.02051,-146.228,1156
1569923890,344.798,55.5873,-2.00918,177.297,6.02051,-146.228,1152
1569923890,344.798,55.5873,-2.00918,177.297,6.02051,-146.228,1152
1569923890,344.798,55.5873,-2.00918,177.297,6.02051,-146.228,1152
1569923890,344.798,55.5873,-2.00918,177.297,6.02051,-146.228,1152
1569923896,305.73,95.436,-3.46025,176.704,5.77881,-146.558,676
1569923896,305.73,95.3244,-3.46025,176.704,5.77881,-146.558,676
1569923896,305.73,95.3244,-3.46025,176.704,5.77881,-146.558,676
1569923896,305.73,95.3244,-3.46025,176.704,5.77881,-146.558,676
1569923896,305.73,95.436,-3.46025,176.704,5.77881,-146.558,676
1569923896,305.73,95.436,-3.46025,176.704,5.77881,-146.558,676
1569923896,305.73,95.3244,-3.46025,176.704,5.77881,-146.558,676
1569923896,305.73,95.3244,-3.46025,176.704,5.77881,-146.558,676
1569923896,305.73,95.3244,-3.46025,176.704,5.77881,-146.558,676
1569923896,305.73,95.3244,-3.46025,176.704,5.77881,-146.558,676
1569923896,305.73,95.3244,-3.46025,176.704,5.77881,-146.558,676
1569923896,305.73,95.3244,-3.46025,176.704,5.77881,-146.558,676
1569923896,305.73,95.3244,-3.46025,176.704,5.77881,-146.558,676
1569923896,305.73,95.3244,-3.46025,176.704,5.77881,-146.558,676
1569923896,305.842,95.3244,-3.46025,176.704,5.77881,-146.558,676
1569923896,305.842,95.3244,-3.46025,176.704,5.77881,-146.558,676
1569923896,305.842,95.3244,-3.46025,176.682,5.77881,-146.558,676
1569923896,305.842,95.3244,-3.46025,176.682,5.77881,-146.558,676
1569923896,305.842,95.3244,-3.46025,176.682,5.77881,-146.558,680
1569923896,305.842,95.3244,-3.46025,176.682,5.77881,-146.558,680
1569923896,305.842,95.3244,-3.46025,176.682,5.77881,-146.558,680
1569923896,305.842,95.3244,-3.46025,176.682,5.77881,-146.558,680
1569923896,305.842,95.3244,-3.46025,176.682,5.77881,-146.558,680
1569923896,305.842,95.3244,-3.46025,176.682,5.77881,-146.558,684
1569923896,305.842,95.3244,-3.46025,176.682,5.77881,-146.558,684
1569923896,305.842,95.3244,-3.46025,176.682,5.77881,-146.558,684
1569923896,305.842,95.3244,-3.46025,176.682,5.77881,-146.558,684
1569923896,305.842,95.3244,-3.46025,176.682,5.77881,-146.558,684
1569923896,305.842,95.3244,-3.46025,176.682,5.77881,-146.558,684
1569923896,305.842,95.3244,-3.46025,176.682,5.77881,-146.558,688
1569923896,305.842,95.3244,-3.46025,176.682,5.77881,-146.558,688
1569923896,305.842,95.3244,-3.46025,176.704,5.77881,-146.558,688
1569923896,305.842,95.3244,-3.46025,176.704,5.77881,-146.558,688
1569923896,305.842,95.3244,-3.46025,176.682,5.77881,-146.558,688
1569923896,305.842,95.3244,-3.46025,176.682,5.77881,-146.558,688
1569923896,305.842,95.3244,-3.46025,176.704,5.77881,-146.558,688
1569923896,305.842,95.3244,-3.46025,176.704,5.77881,-146.558,688
1569923896,305.842,95.3244,-3.46025,176.704,5.77881,-146.558,688
1569923896,305.842,95.3244,-3.46025,176.682,5.77881,-146.558,688
1569923896,305.842,95.3244,-3.46025,176.682,5.77881,-146.558,688
1569923896,305.842,95.3244,-3.46025,176.682,5.77881,-146.558,688
1569923896,305.842,95.3244,-3.46025,176.682,5.77881,-146.558,688
1569923896,305.842,95.3244,-3.46025,176.682,5.77881,-146.558,688
1569923896,305.842,95.3244,-3.46025,176.682,5.77881,-146.558,688
1569923896,305.842,95.3244,-3.46025,176.682,5.77881,-146.558,688
1569923896,305.842,95.3244,-3.46025,176.682,5.77881,-146.558,688
1569923896,305.842,95.3244,-3.46025,176.682,5.77881,-146.558,688
1569923896,305.842,95.3244,-3.46025,176.682,5.77881,-146.558,688
1569923896,305.842,95.3244,-3.46025,176.682,5.77881,-146.558,688
1569923896,305.842,95.3244,-3.46025,176.682,5.77881,-146.558,688
1569923896,305.842,95.3244,-3.46025,176.682,5.77881,-146.558,688
1569923896,305.842,95.3244,-3.46025,176.682,5.77881,-146.558,688
1569923896,305.842,95.3244,-3.46025,176.682,5.77881,-146.558,684
1569923896,305.842,95.3244,-3.46025,176.682,5.77881,-146.558,684
1569923896,305.842,95.3244,-3.46025,176.682,5.77881,-146.558,684
1569923896,305.842,95.3244,-3.46025,176.682,5.75684,-146.58,684
1569923896,305.842,95.3244,-3.46025,176.682,5.75684,-146.58,684
1569923896,305.842,95.3244,-3.46025,176.682,5.75684,-146.58,684
1569923896,305.842,95.3244,-3.46025,176.682,5.75684,-146.58,684
1569923896,305.842,95.3244,-3.46025,176.682,5.75684,-146.58,684
1569923896,305.842,95.3244,-3.46025,176.682,5.75684,-146.58,684
1569923896,305.842,95.3244,-3.46025,176.682,5.75684,-146.58,684
1569923896,305.842,95.3244,-3.46025,176.682,5.75684,-146.58,684
1569923896,305.842,95.3244,-3.46025,176.682,5.75684,-146.58,680
1569923896,305.842,95.3244,-3.46025,176.682,5.75684,-146.58,680
1569923896,305.842,95.3244,-3.46025,176.66,5.75684,-146.58,680
1569923897,305.842,95.3244,-3.46025,176.66,5.75684,-146.58,680
1569923897,305.842,95.3244,-3.46025,176.66,5.75684,-146.58,680
1569923897,305.842,95.3244,-3.46025,176.66,5.75684,-146.58,680
1569923897,305.842,95.3244,-3.46025,176.66,5.75684,-146.58,680
1569923897,305.842,95.3244,-3.46025,176.66,5.75684,-146.58,676
1569923897,305.842,95.3244,-3.46025,176.66,5.75684,-146.58,676
1569923897,305.842,95.3244,-3.46025,176.66,5.75684,-146.58,676
1569923897,305.842,95.3244,-3.46025,176.66,5.75684,-146.58,676
1569923897,305.842,95.3244,-3.46025,176.66,5.75684,-146.58,676
1569923897,305.842,95.3244,-3.46025,176.66,5.75684,-146.58,672
1569923897,305.842,95.3244,-3.46025,176.682,5.75684,-146.58,672
1569923897,305.842,95.3244,-3.46025,176.682,5.75684,-146.58,672
1569923897,305.842,95.3244,-3.46025,176.682,5.75684,-146.58,672
1569923897,305.842,95.3244,-3.46025,176.682,5.75684,-146.58,672
1569923897,305.842,95.3244,-3.46025,176.66,5.75684,-146.58,672
1569923897,305.842,95.3244,-3.46025,176.66,5.75684,-146.58,672
1569923897,305.842,95.3244,-3.46025,176.66,5.75684,-146.558,672
1569923897,305.842,95.3244,-3.46025,176.66,5.75684,-146.558,672
1569923897,305.842,95.3244,-3.46025,176.66,5.77881,-146.558,672
1569923897,305.842,95.3244,-3.46025,176.66,5.77881,-146.58,672
1569923897,305.842,95.3244,-3.46025,176.66,5.77881,-146.58,672
1569923897,305.842,95.3244,-3.46025,176.66,5.77881,-146.58,672
1569923897,305.842,95.3244,-3.46025,176.66,5.77881,-146.58,672
1569923897,305.842,95.3244,-3.46025,176.66,5.77881,-146.58,672
1569923897,305.842,95.3244,-3.46025,176.66,5.77881,-146.58,672
1569923897,305.842,95.3244,-3.46025,176.66,5.77881,-146.58,672
1569923897,305.842,95.3244,-3.46025,176.66,5.77881,-146.58,672
1569923897,305.842,95.3244,-3.46025,176.66,5.77881,-146.58,672
1569923897,305.842,95.3244,-3.46025,176.682,5.77881,-146.58,676
1569923897,305.842,95.3244,-3.46025,176.682,5.77881,-146.58,676
1569923897,305.842,95.3244,-3.46025,176.682,5.77881,-146.58,676
1569923897,305.842,95.3244,-3.46025,176.682,5.77881,-146.58,676
1569923897,305.842,95.3244,-3.46025,176.682,5.77881,-146.58,680
1569923897,305.842,95.3244,-3.46025,176.682,5.77881,-146.58,680
1569923897,305.842,95.3244,-3.46025,176.682,5.77881,-146.558,680
1569923897,305.842,95.3244,-3.46025,176.682,5.77881,-146.558,680
1569923897,305.842,95.3244,-3.46025,176.682,5.77881,-146.558,684
1569923897,305.842,95.3244,-3.46025,176.682,5.77881,-146.558,684
1569923897,305.842,95.3244,-3.46025,176.682,5.77881,-146.558,684
1569923897,305.842,95.3244,-3.46025,176.682,5.77881,-146.558,684
1569923897,305.842,95.3244,-3.34863,176.682,5.77881,-146.558,684
1569923897,305.842,95.3244,-3.34863,176.682,5.80078,-146.558,688
1569923897,305.842,95.3244,-3.34863,176.682,5.80078,-146.558,688
1569923897,305.842,95.3244,-3.34863,176.682,5.80078,-146.558,688
1569923897,305.842,95.3244,-3.34863,176.682,5.80078,-146.558,688
1569923897,305.842,95.3244,-3.34863,176.682,5.80078,-146.558,688
1569923897,305.842,95.3244,-3.34863,176.682,5.80078,-146.558,688
1569923897,305.842,95.3244,-3.34863,176.682,5.80078,-146.558,688
1569923897,305.842,95.3244,-3.34863,176.682,5.80078,-146.558,688
1569923897,305.842,95.3244,-3.34863,176.682,5.80078,-146.558,688
1569923897,305.842,95.3244,-3.34863,176.682,5.80078,-146.558,684
1569923897,305.842,95.3244,-3.34863,176.682,5.77881,-146.558,684
1569923897,305.842,95.3244,-3.34863,176.682,5.77881,-146.558,684
1569923897,305.842,95.3244,-3.46025,176.682,5.77881,-146.558,684
1569923897,305.842,95.3244,-3.46025,176.682,5.77881,-146.558,684
1569923897,305.842,95.3244,-3.46025,176.682,5.77881,-146.558,684
1569923897,305.842,95.3244,-3.46025,176.682,5.77881,-146.558,680
1569923897,305.842,95.3244,-3.46025,176.682,5.77881,-146.558,680
1569923897,305.842,95.3244,-3.46025,176.682,5.77881,-146.558,680
1569923897,305.842,95.3244,-3.46025,176.682,5.77881,-146.558,680
1569923897,305.842,95.3244,-3.46025,176.682,5.77881,-146.558,680
1569923897,305.842,95.3244,-3.46025,176.682,5.77881,-146.58,680
1569923897,305.842,95.3244,-3.46025,176.682,5.77881,-146.58,676
1569923897,305.842,95.3244,-3.46025,176.682,5.77881,-146.58,676
1569923897,305.842,95.3244,-3.46025,176.682,5.77881,-146.58,676
1569923897,305.842,95.3244,-3.46025,176.682,5.77881,-146.58,676
1569923897,305.842,95.3244,-3.46025,176.682,5.77881,-146.58,676
1569923897,305.842,95.3244,-3.46025,176.682,5.77881,-146.558,676
1569923897,305.842,95.3244,-3.46025,176.682,5.77881,-146.558,676
1569923897,305.842,95.3244,-3.46025,176.682,5.77881,-146.558,676
1569923897,305.842,95.3244,-3.46025,176.682,5.77881,-146.558,676
1569923897,305.842,95.3244,-3.46025,176.682,5.77881,-146.558,676
1569923897,305.842,95.3244,-3.46025,176.682,5.77881,-146.558,676
1569923897,305.842,95.3244,-3.46025,176.682,5.77881,-146.558,676
1569923897,305.842,95.3244,-3.46025,176.682,5.77881,-146.558,676
1569923897,305.842,95.3244,-3.46025,176.682,5.77881,-146.558,680
1569923897,305.842,95.3244,-3.46025,176.682,5.77881,-146.558,680
1569923897,305.842,95.3244,-3.46025,176.682,5.77881,-146.558,680
1569923897,305.842,95.3244,-3.46025,176.682,5.77881,-146.558,680
1569923897,305.842,95.3244,-3.34863,176.682,5.77881,-146.558,680
1569923897,305.842,95.3244,-3.34863,176.682,5.77881,-146.558,680
1569923897,305.842,95.3244,-3.34863,176.682,5.77881,-146.558,680
1569923897,305.842,95.3244,-3.34863,176.682,5.77881,-146.558,680
1569923897,305.842,95.3244,-3.34863,176.682,5.77881,-146.558,676
1569923897,305.842,95.3244,-3.34863,176.682,5.77881,-146.558,676
1569923897,305.842,95.3244,-3.34863,176.682,5.77881,-146.558,676
1569923897,305.842,95.3244,-3.34863,176.682,5.77881,-146.558,676
1569923897,305.842,95.3244,-3.34863,176.682,5.77881,-146.558,676
1569923897,305.842,95.3244,-3.34863,176.682,5.77881,-146.558,676
1569923897,305.842,95.3244,-3.34863,176.682,5.77881,-146.558,676
1569923897,305.842,95.3244,-3.34863,176.682,5.77881,-146.558,676
1569923897,305.842,95.3244,-3.46025,176.682,5.77881,-146.558,676
1569923897,305.842,95.3244,-3.46025,176.682,5.77881,-146.558,676
1569923897,305.842,95.3244,-3.46025,176.682,5.77881,-146.558,676
1569923897,305.842,95.3244,-3.46025,176.682,5.77881,-146.558,676
1569923897,305.842,95.3244,-3.46025,176.682,5.77881,-146.558,676
1569923897,305.842,95.3244,-3.46025,176.682,5.77881,-146.558,676
1569923897,305.842,95.3244,-3.46025,176.682,5.77881,-146.558,676
1569923897,305.73,95.3244,-3.46025,176.682,5.77881,-146.558,676
1569923897,305.73,95.3244,-3.46025,176.682,5.77881,-146.558,676
1569923898,305.73,95.3244,-3.46025,176.682,5.77881,-146.558,676
1569923898,305.73,95.3244,-3.46025,176.682,5.77881,-146.558,676
1569923898,305.73,95.3244,-3.46025,176.682,5.77881,-146.558,676
1569923898,305.73,95.3244,-3.46025,176.682,5.77881,-146.558,676
1569923898,305.73,95.3244,-3.46025,176.682,5.77881,-146.558,676
1569923898,305.73,95.3244,-3.46025,176.682,5.77881,-146.558,676
1569923898,305.73,95.3244,-3.46025,176.682,5.75684,-146.558,676
1569923898,305.73,95.3244,-3.46025,176.682,5.75684,-146.558,676
1569923898,305.73,95.3244,-3.46025,176.66,5.75684,-146.558,676
1569923898,305.73,95.3244,-3.46025,176.66,5.75684,-146.558,676
1569923898,305.73,95.3244,-3.46025,176.66,5.75684,-146.558,676
1569923898,305.73,95.3244,-3.46025,176.66,5.75684,-146.558,676
1569923898,305.73,95.3244,-3.46025,176.682,5.75684,-146.558,676
1569923898,305.73,95.3244,-3.46025,176.682,5.75684,-146.558,676
1569923898,305.73,95.3244,-3.46025,176.682,5.75684,-146.558,676
1569923898,305.73,95.3244,-3.46025,176.682,5.75684,-146.558,676
1569923898,305.842,95.3244,-3.46025,176.682,5.75684,-146.558,676
1569923898,305.842,95.3244,-3.46025,176.682,5.75684,-146.558,676
1569923898,305.842,95.3244,-3.46025,176.682,5.75684,-146.558,676
1569923898,305.842,95.3244,-3.46025,176.682,5.75684,-146.558,672
1569923898,305.842,95.3244,-3.46025,176.66,5.75684,-146.558,672
1569923898,305.842,95.3244,-3.46025,176.66,5.75684,-146.558,672
1569923898,305.842,95.2128,-3.46025,176.66,5.77881,-146.558,672
1569923898,305.842,95.2128,-3.46025,176.66,5.77881,-146.558,672
1569923898,305.842,95.2128,-3.46025,176.66,5.77881,-146.558,672
1569923898,305.842,95.2128,-3.46025,176.66,5.77881,-146.558,672
1569923898,305.842,95.3244,-3.46025,176.66,5.77881,-146.558,672
1569923898,305.842,95.3244,-3.46025,176.66,5.77881,-146.558,672
1569923898,305.842,95.3244,-3.46025,176.66,5.77881,-146.558,668
1569923898,305.842,95.3244,-3.46025,176.682,5.77881,-146.558,668
1569923898,305.842,95.3244,-3.46025,176.682,5.77881,-146.558,668
1569923898,305.73,95.3244,-3.46025,176.682,5.77881,-146.558,668
1569923898,305.73,95.3244,-3.46025,176.682,5.77881,-146.558,668
1569923898,305.73,95.3244,-3.46025,176.682,5.77881,-146.558,668
1569923898,305.73,95.3244,-3.46025,176.682,5.77881,-146.558,668
1569923898,305.73,95.3244,-3.46025,176.682,5.77881,-146.558,668
1569923898,305.73,95.3244,-3.46025,176.682,5.77881,-146.558,668
1569923898,305.73,95.3244,-3.46025,176.682,5.77881,-146.558,668
1569923898,305.73,95.3244,-3.46025,176.682,5.77881,-146.558,668
1569923898,305.73,95.3244,-3.46025,176.682,5.77881,-146.558,668
1569923898,305.73,95.3244,-3.46025,176.682,5.77881,-146.558,668
1569923898,305.73,95.3244,-3.46025,176.682,5.77881,-146.558,668
1569923898,305.73,95.3244,-3.46025,176.682,5.77881,-146.558,664
1569923898,305.73,95.3244,-3.46025,176.682,5.77881,-146.558,664
1569923898,305.73,95.3244,-3.46025,176.682,5.77881,-146.558,664
1569923898,305.73,95.3244,-3.46025,176.682,5.77881,-146.558,664
1569923898,305.73,95.3244,-3.46025,176.682,5.77881,-146.558,664
1569923898,305.73,95.3244,-3.46025,176.682,5.77881,-146.558,664
1569923898,305.73,95.3244,-3.46025,176.682,5.77881,-146.558,664
1569923898,305.73,95.3244,-3.46025,176.682,5.77881,-146.558,664
1569923898,305.73,95.3244,-3.46025,176.682,5.77881,-146.558,664
1569923898,305.73,95.3244,-3.46025,176.682,5.77881,-146.558,664
1569923898,305.73,95.3244,-3.46025,176.682,5.77881,-146.558,664
1569923898,305.73,95.3244,-3.46025,176.682,5.77881,-146.558,664
1569923898,305.73,95.3244,-3.46025,176.682,5.77881,-146.558,664
1569923898,305.73,95.3244,-3.46025,176.682,5.77881,-146.558,668
1569923898,305.73,95.3244,-3.46025,176.682,5.77881,-146.558,668
1569923898,305.73,95.3244,-3.46025,176.682,5.77881,-146.558,668
1569923898,305.73,95.3244,-3.46025,176.682,5.77881,-146.558,668
1569923898,305.73,95.3244,-3.46025,176.682,5.77881,-146.558,668
1569923898,305.73,95.3244,-3.46025,176.682,5.77881,-146.558,668
1569923898,305.73,95.3244,-3.46025,176.682,5.77881,-146.558,668
1569923898,305.73,95.3244,-3.46025,176.682,5.77881,-146.558,668
1569923898,305.73,95.3244,-3.46025,176.682,5.77881,-146.558,668
1569923898,305.73,95.3244,-3.46025,176.682,5.77881,-146.558,668
1569923898,305.73,95.3244,-3.46025,176.682,5.77881,-146.558,668
1569923898,305.73,95.3244,-3.46025,176.682,5.77881,-146.558,668
1569923898,305.73,95.3244,-3.46025,176.682,5.77881,-146.558,668
1569923898,305.73,95.3244,-3.46025,176.682,5.77881,-146.558,668
1569923898,305.73,95.3244,-3.46025,176.682,5.77881,-146.558,668
1569923898,305.73,95.3244,-3.46025,176.682,5.77881,-146.558,668
1569923898,305.842,95.3244,-3.46025,176.682,5.77881,-146.558,672
1569923898,305.842,95.3244,-3.46025,176.682,5.77881,-146.558,672
1569923898,305.842,95.3244,-3.46025,176.682,5.77881,-146.558,672
1569923898,305.842,95.3244,-3.46025,176.682,5.77881,-146.558,672
1569923898,305.842,95.3244,-3.46025,176.682,5.77881,-146.558,672
1569923898,305.842,95.3244,-3.46025,176.682,5.77881,-146.558,672
1569923898,305.842,95.3244,-3.46025,176.682,5.77881,-146.558,672
1569923898,305.842,95.3244,-3.46025,176.682,5.77881,-146.558,672
1569923898,305.842,95.3244,-3.46025,176.682,5.77881,-146.558,672
1569923898,305.842,95.3244,-3.46025,176.682,5.77881,-146.558,672
1569923898,305.842,95.3244,-3.34863,176.682,5.77881,-146.558,672
1569923898,305.842,95.3244,-3.34863,176.682,5.77881,-146.558,672
1569923898,305.842,95.3244,-3.34863,176.682,5.77881,-146.558,672
1569923898,305.842,95.3244,-3.34863,176.682,5.77881,-146.558,672
1569923898,305.842,95.3244,-3.34863,176.704,5.77881,-146.558,672
1569923898,305.842,95.3244,-3.34863,176.704,5.77881,-146.558,672
1569923898,305.842,95.3244,-3.34863,176.704,5.77881,-146.558,672
1569923898,305.73,95.3244,-3.34863,176.704,5.77881,-146.558,672
1569923898,305.73,95.3244,-3.34863,176.682,5.77881,-146.558,672
1569923898,305.73,95.3244,-3.34863,176.682,5.77881,-146.558,672
1569923898,305.73,95.3244,-3.34863,176.682,5.77881,-146.558,672
1569923898,305.73,95.3244,-3.34863,176.682,5.77881,-146.558,672
1569923898,305.73,95.3244,-3.34863,176.682,5.77881,-146.558,672
1569923898,305.73,95.3244,-3.34863,176.682,5.77881,-146.558,672
1569923898,305.73,95.3244,-3.34863,176.682,5.77881,-146.558,672
1569923898,305.73,95.3244,-3.34863,176.682,5.77881,-146.558,672
1569923898,305.73,95.3244,-3.34863,176.682,5.77881,-146.558,672
1569923898,305.73,95.3244,-3.34863,176.682,5.77881,-146.558,672
1569923898,305.73,95.3244,-3.46025,176.682,5.77881,-146.558,672
1569923899,305.73,95.3244,-3.46025,176.682,5.77881,-146.558,672
1569923899,305.73,95.3244,-3.46025,176.682,5.77881,-146.558,672
1569923899,305.73,95.3244,-3.46025,176.682,5.77881,-146.558,672
1569923899,305.73,95.3244,-3.46025,176.682,5.77881,-146.558,672
1569923899,305.73,95.3244,-3.46025,176.682,5.77881,-146.558,672
1569923899,305.73,95.3244,-3.46025,176.66,5.77881,-146.558,668
1569923899,305.73,95.3244,-3.46025,176.66,5.75684,-146.558,668
1569923899,305.73,95.3244,-3.46025,176.66,5.75684,-146.558,668
1569923899,305.73,95.3244,-3.46025,176.66,5.75684,-146.558,668
1569923899,305.73,95.3244,-3.46025,176.682,5.75684,-146.558,668
1569923899,305.73,95.3244,-3.46025,176.682,5.75684,-146.558,668
1569923899,305.73,95.3244,-3.46025,176.682,5.75684,-146.558,668
1569923899,305.73,95.3244,-3.46025,176.682,5.75684,-146.558,668
1569923899,305.73,95.3244,-3.46025,176.682,5.75684,-146.558,668
1569923899,305.73,95.3244,-3.46025,176.682,5.75684,-146.558,668
1569923899,305.73,95.3244,-3.46025,176.682,5.75684,-146.558,668
1569923899,305.73,95.3244,-3.46025,176.682,5.75684,-146.558,668
1569923899,305.73,95.3244,-3.46025,176.682,5.75684,-146.558,668
1569923899,305.73,95.3244,-3.46025,176.704,5.77881,-146.558,672
1569923899,305.73,95.3244,-3.46025,176.704,5.77881,-146.558,672
1569923899,305.73,95.3244,-3.46025,176.704,5.77881,-146.558,672
1569923899,305.73,95.3244,-3.46025,176.704,5.77881,-146.558,672
1569923899,305.73,95.3244,-3.46025,176.704,5.77881,-146.558,672
1569923899,305.73,95.3244,-3.46025,176.704,5.77881,-146.558,672
1569923899,305.73,95.3244,-3.46025,176.704,5.77881,-146.558,672
1569923899,305.73,95.3244,-3.46025,176.704,5.77881,-146.558,672
1569923899,305.73,95.3244,-3.46025,176.704,5.77881,-146.558,672
1569923899,305.73,95.3244,-3.46025,176.704,5.77881,-146.558,672
1569923899,305.73,95.3244,-3.46025,176.704,5.77881,-146.558,672
1569923899,305.842,95.3244,-3.46025,176.704,5.77881,-146.558,672
1569923899,305.842,95.3244,-3.46025,176.704,5.77881,-146.558,672
1569923899,305.842,95.3244,-3.46025,176.704,5.77881,-146.558,672
1569923899,305.842,95.3244,-3.46025,176.682,5.77881,-146.558,672
1569923899,305.842,95.3244,-3.46025,176.682,5.77881,-146.558,672
1569923899,305.842,95.3244,-3.46025,176.682,5.77881,-146.558,672
1569923899,305.842,95.3244,-3.46025,176.704,5.77881,-146.558,672
1569923899,305.842,95.3244,-3.46025,176.704,5.77881,-146.558,676
1569923899,305.842,95.3244,-3.46025,176.704,5.77881,-146.558,676
1569923899,305.842,95.3244,-3.46025,176.704,5.77881,-146.558,676
1569923899,305.842,95.3244,-3.46025,176.682,5.77881,-146.558,676
1569923899,305.842,95.3244,-3.46025,176.682,5.77881,-146.558,676
1569923899,305.842,95.3244,-3.34863,176.682,5.77881,-146.558,676
1569923899,305.842,95.3244,-3.34863,176.682,5.77881,-146.558,676
1569923899,305.842,95.3244,-3.34863,176.682,5.77881,-146.558,680
