time,x,y,z,ax,ay,az,q
1582030631,471.711,-9.15293,41.9695,177.935,-1.4502,88.7915,2872
1582030631,471.711,-9.15293,41.9695,177.935,-1.4502,88.7915,2872
1582030631,471.711,-9.15293,41.9695,177.935,-1.4502,88.7915,2872
1582030631,471.711,-9.15293,41.9695,177.935,-1.4502,88.7915,2872
1582030631,471.711,-9.15293,41.9695,177.935,-1.4502,88.7915,2872
1582030631,471.711,-9.15293,41.9695,177.935,-1.4502,88.7915,2872
1582030631,471.711,-9.15293,41.9695,177.935,-1.4502,88.7915,2872
1582030631,471.711,-9.15293,41.9695,177.935,-1.4502,88.7915,2872
1582030631,471.711,-9.15293,41.9695,177.935,-1.4502,88.7915,2872
1582030631,471.711,-9.15293,41.9695,177.935,-1.4502,88.7915,2872
1582030631,471.711,-9.15293,41.9695,177.935,-1.4502,88.7915,2872
1582030631,471.711,-9.15293,41.9695,177.935,-1.4502,88.7915,2872
1582030631,471.711,-9.15293,41.9695,177.935,-1.4502,88.7915,2872
1582030631,471.711,-9.15293,41.9695,177.935,-1.4502,88.7915,2872
1582030631,471.711,-9.15293,41.9695,177.935,-1.47217,88.7915,2872
1582030631,471.711,-9.15293,41.9695,177.935,-1.47217,88.7915,2872
1582030631,471.711,-9.15293,41.9695,177.935,-1.47217,88.7915,2872
1582030631,471.711,-9.15293,41.9695,177.935,-1.47217,88.7915,2872
1582030631,471.711,-9.15293,41.9695,177.935,-1.47217,88.7915,2872
1582030631,471.711,-9.15293,41.9695,177.935,-1.47217,88.7915,2872
1582030631,471.711,-9.15293,41.9695,177.935,-1.47217,88.7915,2872
1582030631,471.711,-9.15293,41.9695,177.935,-1.47217,88.7915,2872
1582030631,471.711,-9.15293,41.9695,177.935,-1.47217,88.7915,2872
1582030631,471.711,-9.15293,41.9695,177.935,-1.47217,88.7915,2872
1582030631,471.711,-9.15293,41.9695,177.935,-1.47217,88.7915,2872
1582030631,471.711,-9.15293,41.9695,177.935,-1.47217,88.7915,2872
1582030631,471.711,-9.15293,41.9695,177.935,-1.47217,88.7915,2872
1582030631,471.711,-9.15293,41.9695,177.935,-1.47217,88.7915,2872
1582030631,471.711,-9.15293,41.9695,177.935,-1.47217,88.7915,2872
1582030631,471.711,-9.15293,41.9695,177.935,-1.47217,88.7915,2872
1582030631,471.711,-9.15293,41.9695,177.935,-1.47217,88.7915,2872
1582030631,471.711,-9.15293,41.9695,177.935,-1.47217,88.7915,2872
1582030632,471.711,-9.15293,41.9695,177.935,-1.47217,88.7915,2872
1582030632,471.711,-9.15293,41.9695,177.935,-1.47217,88.7915,2872
1582030632,471.711,-9.15293,41.9695,177.935,-1.47217,88.7915,2872
1582030632,471.711,-9.15293,41.9695,177.935,-1.47217,88.7915,2872
1582030632,471.711,-9.15293,41.9695,177.935,-1.47217,88.7915,2872
1582030632,471.711,-9.15293,41.9695,177.935,-1.47217,88.7915,2872
1582030632,471.711,-9.15293,41.9695,177.935,-1.47217,88.7915,2872
1582030632,471.711,-9.15293,41.9695,177.935,-1.47217,88.7915,2872
1582030632,471.711,-9.15293,41.9695,177.935,-1.47217,88.7915,2872
1582030632,471.711,-9.15293,41.9695,177.935,-1.47217,88.7915,2872
1582030632,471.711,-9.15293,41.9695,177.935,-1.47217,88.7915,2872
1582030632,471.711,-9.15293,41.9695,177.935,-1.47217,88.7915,2872
1582030632,471.711,-9.15293,41.9695,177.935,-1.47217,88.7915,2872
1582030632,471.711,-9.15293,41.9695,177.935,-1.47217,88.7915,2872
1582030632,471.711,-9.15293,41.9695,177.935,-1.47217,88.7915,2872
1582030632,471.711,-9.15293,41.9695,177.935,-1.47217,88.7915,2872
1582030632,471.711,-9.15293,41.9695,177.935,-1.47217,88.7915,2872
1582030632,471.711,-9.15293,41.9695,177.935,-1.47217,88.7915,2872
1582030632,471.711,-9.15293,41.9695,177.935,-1.47217,88.7915,2872
1582030632,471.711,-9.15293,41.9695,177.935,-1.47217,88.7915,2872
1582030632,471.711,-9.15293,41.9695,177.935,-1.47217,88.7915,2872
1582030632,471.711,-9.15293,41.9695,177.935,-1.47217,88.7915,2872
1582030632,471.711,-9.15293,41.9695,177.935,-1.47217,88.7915,2872
1582030632,471.711,-9.15293,41.9695,177.935,-1.47217,88.7915,2872
1582030632,471.711,-9.15293,41.9695,177.935,-1.47217,88.7915,2872
1582030632,471.711,-9.15293,41.9695,177.935,-1.47217,88.7915,2872
1582030632,471.711,-9.15293,41.9695,177.935,-1.47217,88.7915,2872
1582030632,471.711,-9.15293,41.9695,177.935,-1.47217,88.7915,2872
1582030632,471.711,-9.15293,41.9695,177.935,-1.47217,88.7915,2872
1582030632,471.711,-9.15293,41.9695,177.935,-1.47217,88.7915,2872
1582030632,471.711,-9.15293,41.9695,177.935,-1.47217,88.7915,2872
1582030632,471.711,-9.15293,41.9695,177.935,-1.47217,88.7915,2872
1582030632,471.711,-9.15293,41.9695,177.913,-1.47217,88.7915,2872
1582030632,471.711,-9.15293,41.9695,177.913,-1.47217,88.7915,2872
1582030632,471.711,-9.15293,41.9695,177.913,-1.47217,88.7915,2872
1582030632,471.711,-9.15293,41.9695,177.913,-1.47217,88.7915,2872
1582030632,471.711,-9.15293,41.9695,177.913,-1.47217,88.7915,2872
1582030632,471.711,-9.15293,41.9695,177.913,-1.47217,88.7915,2872
1582030632,471.711,-9.15293,41.9695,177.935,-1.47217,88.7915,2872
1582030632,471.711,-9.15293,41.9695,177.935,-1.47217,88.7915,2872
1582030632,471.711,-9.15293,41.9695,177.935,-1.47217,88.7915,2872
1582030632,471.711,-9.15293,41.9695,177.935,-1.47217,88.7915,2872
1582030632,471.711,-9.15293,41.9695,177.935,-1.47217,88.7915,2872
1582030632,471.711,-9.15293,41.9695,177.935,-1.47217,88.7915,2872
1582030632,471.711,-9.15293,41.9695,177.935,-1.47217,88.7915,2876
1582030632,471.711,-9.15293,41.9695,177.935,-1.47217,88.7915,2876
1582030632,471.711,-9.15293,41.9695,177.935,-1.47217,88.7915,2876
1582030632,471.711,-9.15293,41.9695,177.935,-1.47217,88.7915,2876
1582030632,471.711,-9.15293,41.9695,177.935,-1.47217,88.7915,2876
1582030632,471.711,-9.15293,41.9695,177.935,-1.47217,88.7915,2876
1582030632,471.711,-9.15293,41.9695,177.935,-1.47217,88.7915,2876
1582030632,471.711,-9.15293,41.9695,177.935,-1.47217,88.7915,2876
1582030632,471.711,-9.15293,41.9695,177.935,-1.47217,88.7915,2876
1582030632,471.711,-9.15293,41.9695,177.935,-1.47217,88.7915,2876
1582030632,471.711,-9.15293,41.9695,177.935,-1.47217,88.7915,2876
1582030632,471.711,-9.15293,41.9695,177.935,-1.47217,88.7915,2876
1582030632,471.711,-9.15293,41.9695,177.935,-1.47217,88.7915,2872
1582030632,471.711,-9.15293,41.9695,177.935,-1.47217,88.7915,2872
1582030632,471.711,-9.15293,41.9695,177.935,-1.47217,88.7915,2872
1582030632,471.711,-9.15293,41.9695,177.935,-1.47217,88.7915,2872
1582030632,471.711,-9.15293,41.9695,177.935,-1.47217,88.7915,2872
1582030632,471.711,-9.15293,41.9695,177.935,-1.47217,88.7915,2872
1582030632,471.711,-9.15293,41.9695,177.935,-1.47217,88.7915,2872
1582030632,471.711,-9.15293,41.9695,177.935,-1.47217,88.7915,2876
1582030632,471.711,-9.15293,41.9695,177.935,-1.47217,88.7915,2876
1582030632,471.711,-9.15293,41.9695,177.935,-1.47217,88.7915,2876
1582030632,471.711,-9.15293,41.9695,177.935,-1.47217,88.7915,2876
1582030632,471.711,-9.15293,41.9695,177.935,-1.47217,88.7915,2876
1582030632,471.711,-9.15293,41.9695,177.935,-1.47217,88.7915,2876
1582030632,471.711,-9.15293,41.9695,177.935,-1.47217,88.7915,2876
1582030632,471.711,-9.15293,41.9695,177.935,-1.47217,88.7915,2876
1582030632,471.711,-9.15293,41.9695,177.913,-1.47217,88.7915,2876
1582030632,471.711,-9.15293,41.9695,177.935,-1.4502,88.7915,2876
1582030632,471.711,-9.15293,41.9695,177.935,-1.4502,88.7915,2876
1582030632,471.711,-9.15293,41.9695,177.935,-1.4502,88.7915,2876
1582030632,471.711,-9.15293,41.9695,177.935,-1.4502,88.7915,2876
1582030632,471.711,-9.15293,41.9695,177.935,-1.4502,88.7915,2876
1582030632,471.711,-9.15293,41.9695,177.935,-1.4502,88.7915,2876
1582030632,471.711,-9.15293,41.9695,177.935,-1.4502,88.7915,2876
1582030632,471.711,-9.15293,41.9695,177.935,-1.4502,88.7915,2876
1582030632,471.711,-9.15293,41.9695,177.935,-1.47217,88.7915,2876
1582030632,471.711,-9.15293,41.9695,177.935,-1.47217,88.7915,2876
1582030632,471.711,-9.15293,41.9695,177.935,-1.47217,88.7915,2876
1582030632,471.711,-9.15293,41.9695,177.935,-1.47217,88.7915,2876
1582030632,471.711,-9.15293,41.9695,177.935,-1.47217,88.7915,2876
1582030632,471.711,-9.15293,41.9695,177.935,-1.47217,88.7915,2876
1582030632,471.711,-9.15293,41.9695,177.913,-1.47217,88.7915,2876
1582030632,471.711,-9.15293,41.9695,177.913,-1.47217,88.7915,2876
1582030632,471.711,-9.15293,41.9695,177.913,-1.47217,88.7915,2876
1582030632,471.711,-9.15293,41.9695,177.913,-1.47217,88.7915,2876
1582030632,471.711,-9.15293,41.9695,177.913,-1.47217,88.7915,2876
1582030632,471.711,-9.15293,41.9695,177.913,-1.47217,88.7915,2876
1582030632,471.711,-9.15293,41.9695,177.913,-1.47217,88.7915,2876
1582030632,471.711,-9.15293,41.9695,177.913,-1.47217,88.7915,2876
1582030632,471.711,-9.15293,41.9695,177.913,-1.47217,88.7915,2876
1582030632,471.711,-9.15293,41.9695,177.913,-1.47217,88.7915,2876
1582030632,471.711,-9.15293,41.9695,177.913,-1.47217,88.7915,2876
1582030632,471.711,-9.15293,41.9695,177.913,-1.47217,88.7915,2876
1582030632,471.711,-9.15293,41.9695,177.913,-1.47217,88.7915,2876
1582030632,471.711,-9.15293,41.9695,177.913,-1.47217,88.7915,2876
1582030633,471.711,-9.15293,41.9695,177.913,-1.47217,88.7915,2876
1582030633,471.711,-9.15293,41.9695,177.913,-1.47217,88.7915,2876
1582030633,471.711,-9.15293,41.9695,177.913,-1.47217,88.7915,2876
1582030633,471.711,-9.15293,41.9695,177.913,-1.47217,88.7915,2876
1582030633,471.711,-9.15293,41.9695,177.913,-1.4502,88.7915,2876
1582030633,471.711,-9.15293,41.9695,177.913,-1.4502,88.7915,2876
1582030633,471.711,-9.15293,41.9695,177.913,-1.4502,88.7915,2876
1582030633,471.711,-9.15293,41.9695,177.913,-1.4502,88.7915,2876
1582030633,471.711,-9.15293,41.9695,177.913,-1.4502,88.7915,2876
1582030633,471.711,-9.15293,41.9695,177.913,-1.4502,88.7915,2876
1582030633,471.711,-9.15293,41.9695,177.913,-1.4502,88.7915,2876
1582030633,471.711,-9.15293,41.9695,177.913,-1.4502,88.7915,2876
1582030633,471.711,-9.15293,41.9695,177.913,-1.4502,88.7915,2876
1582030633,471.711,-9.15293,41.9695,177.913,-1.4502,88.7915,2876
1582030633,471.711,-9.15293,41.9695,177.913,-1.4502,88.7915,2876
1582030633,471.711,-9.15293,41.9695,177.913,-1.4502,88.7915,2876
1582030633,471.711,-9.15293,41.9695,177.913,-1.4502,88.7915,2876
1582030633,471.711,-9.15293,41.9695,177.913,-1.4502,88.7915,2876
1582030633,471.711,-9.15293,41.9695,177.913,-1.4502,88.7915,2876
1582030633,471.711,-9.15293,41.9695,177.935,-1.4502,88.7915,2876
1582030633,471.711,-9.15293,41.9695,177.935,-1.4502,88.7915,2876
1582030633,471.711,-9.15293,41.9695,177.935,-1.4502,88.7915,2876
1582030633,471.711,-9.15293,41.9695,177.935,-1.4502,88.7915,2876
1582030633,471.711,-9.15293,41.9695,177.935,-1.4502,88.7915,2876
1582030633,471.711,-9.15293,41.9695,177.935,-1.4502,88.7915,2876
1582030633,471.711,-9.15293,41.9695,177.935,-1.4502,88.7915,2876
1582030633,471.711,-9.15293,41.9695,177.935,-1.4502,88.7915,2876
1582030633,471.711,-9.15293,41.9695,177.935,-1.4502,88.7915,2876
1582030633,471.711,-9.15293,41.9695,177.935,-1.4502,88.7915,2876
1582030633,471.711,-9.15293,41.9695,177.935,-1.4502,88.7915,2876
1582030633,471.711,-9.15293,41.9695,177.935,-1.4502,88.7915,2876
1582030633,471.711,-9.15293,41.9695,177.935,-1.4502,88.7915,2876
1582030633,471.711,-9.15293,41.9695,177.935,-1.4502,88.7915,2876
1582030633,471.711,-9.15293,41.9695,177.935,-1.4502,88.7915,2876
1582030633,471.711,-9.15293,41.9695,177.935,-1.4502,88.7915,2876
1582030633,471.711,-9.15293,41.9695,177.935,-1.4502,88.7915,2876
1582030633,471.711,-9.15293,41.9695,177.935,-1.4502,88.7915,2876
1582030633,471.711,-9.15293,41.9695,177.935,-1.47217,88.7915,2876
1582030633,471.711,-9.15293,41.9695,177.935,-1.47217,88.7915,2872
1582030633,471.711,-9.15293,41.9695,177.935,-1.47217,88.7915,2872
1582030633,471.711,-9.15293,41.9695,177.935,-1.47217,88.7915,2872
1582030633,471.711,-9.15293,41.9695,177.935,-1.47217,88.7915,2872
1582030633,471.711,-9.15293,41.9695,177.935,-1.47217,88.7915,2872
1582030633,471.711,-9.15293,41.9695,177.935,-1.47217,88.7915,2872
1582030633,471.711,-9.15293,41.9695,177.935,-1.47217,88.7915,2872
1582030633,471.711,-9.15293,41.9695,177.935,-1.47217,88.7915,2872
1582030633,471.711,-9.15293,41.9695,177.935,-1.47217,88.7915,2872
1582030633,471.711,-9.15293,41.9695,177.935,-1.47217,88.7915,2872
1582030633,471.711,-9.15293,41.9695,177.935,-1.47217,88.7915,2872
1582030633,471.711,-9.15293,41.9695,177.935,-1.47217,88.7915,2872
1582030633,471.711,-9.15293,41.9695,177.935,-1.47217,88.7915,2872
1582030633,471.711,-9.15293,41.9695,177.935,-1.47217,88.7915,2872
1582030633,471.711,-9.15293,41.9695,177.935,-1.47217,88.7915,2872
1582030633,471.711,-9.15293,41.9695,177.935,-1.47217,88.7915,2872
1582030633,471.711,-9.15293,41.9695,177.935,-1.47217,88.7915,2872
1582030633,471.711,-9.15293,41.9695,177.935,-1.47217,88.7915,2872
1582030633,471.711,-9.15293,41.9695,177.935,-1.47217,88.7915,2872
1582030633,471.711,-9.15293,41.9695,177.935,-1.47217,88.7915,2872
1582030633,471.711,-9.15293,41.9695,177.935,-1.47217,88.7915,2872
1582030633,471.711,-9.15293,41.9695,177.935,-1.47217,88.7915,2872
1582030633,471.711,-9.15293,41.9695,177.935,-1.47217,88.7915,2872
1582030633,471.711,-9.15293,41.9695,177.935,-1.47217,88.7915,2872
1582030633,471.711,-9.15293,41.9695,177.935,-1.4502,88.7915,2872
1582030633,471.711,-9.15293,41.9695,177.935,-1.4502,88.7915,2872
1582030633,471.711,-9.15293,41.9695,177.935,-1.4502,88.7915,2872
1582030633,471.711,-9.15293,41.9695,177.935,-1.4502,88.7915,2872
1582030633,471.711,-9.15293,41.9695,177.935,-1.4502,88.7915,2872
1582030633,471.711,-9.15293,41.9695,177.935,-1.4502,88.7915,2872
1582030633,471.711,-9.15293,41.9695,177.935,-1.4502,88.7915,2872
1582030633,471.711,-9.15293,41.9695,177.935,-1.4502,88.7915,2872
1582030633,471.711,-9.15293,41.9695,177.935,-1.4502,88.7915,2872
1582030633,471.711,-9.15293,41.9695,177.935,-1.4502,88.7915,2872
1582030633,471.711,-9.15293,41.9695,177.935,-1.4502,88.7915,2876
1582030633,471.711,-9.15293,41.9695,177.935,-1.4502,88.7915,2876
1582030633,471.711,-9.15293,41.9695,177.935,-1.4502,88.7915,2876
1582030633,471.711,-9.15293,41.9695,177.935,-1.4502,88.7915,2876
1582030633,471.711,-9.15293,41.9695,177.935,-1.4502,88.7915,2876
1582030633,471.711,-9.15293,41.9695,177.935,-1.4502,88.7915,2876
1582030633,471.711,-9.15293,41.9695,177.935,-1.4502,88.7915,2876
1582030633,471.711,-9.15293,41.9695,177.935,-1.4502,88.7915,2876
1582030633,471.711,-9.15293,41.9695,177.935,-1.4502,88.7915,2876
1582030633,471.711,-9.15293,41.9695,177.935,-1.4502,88.7915,2876
1582030633,471.711,-9.15293,41.9695,177.935,-1.4502,88.7915,2876
1582030633,471.711,-9.15293,41.9695,177.935,-1.4502,88.7915,2876
1582030633,471.711,-9.15293,41.9695,177.935,-1.4502,88.7915,2876
1582030633,471.711,-9.15293,41.9695,177.935,-1.4502,88.7915,2876
1582030633,471.711,-9.15293,41.9695,177.935,-1.4502,88.7915,2876
1582030633,471.711,-9.15293,41.9695,177.935,-1.4502,88.7915,2876
1582030633,471.711,-9.15293,41.9695,177.935,-1.4502,88.7915,2876
1582030633,471.711,-9.15293,41.9695,177.935,-1.4502,88.7915,2876
1582030633,471.711,-9.15293,41.9695,177.935,-1.4502,88.7915,2876
1582030633,471.711,-9.15293,41.9695,177.935,-1.47217,88.7915,2876
1582030633,471.711,-9.15293,41.9695,177.935,-1.47217,88.7915,2876
1582030633,471.711,-9.15293,41.9695,177.935,-1.47217,88.7915,2876
1582030633,471.711,-9.15293,41.9695,177.935,-1.47217,88.7915,2876
1582030633,471.711,-9.15293,41.9695,177.935,-1.47217,88.7915,2876
1582030633,471.711,-9.15293,41.9695,177.935,-1.47217,88.7915,2876
1582030633,471.711,-9.15293,41.9695,177.935,-1.47217,88.7915,2876
1582030633,471.711,-9.15293,41.9695,177.935,-1.47217,88.7915,2876
1582030633,471.711,-9.15293,41.9695,177.935,-1.47217,88.7915,2876
1582030634,471.711,-9.15293,41.9695,177.935,-1.47217,88.7915,2876
1582030634,471.711,-9.15293,41.9695,177.935,-1.47217,88.7915,2876
1582030634,471.711,-9.15293,41.9695,177.935,-1.47217,88.7915,2876
1582030634,471.711,-9.15293,41.9695,177.935,-1.47217,88.7915,2876
1582030634,471.711,-9.15293,41.9695,177.935,-1.47217,88.7915,2876
1582030634,471.711,-9.15293,41.9695,177.935,-1.47217,88.7915,2876
1582030634,471.711,-9.15293,41.9695,177.935,-1.47217,88.7915,2876
1582030634,471.711,-9.15293,41.9695,177.935,-1.47217,88.7915,2876
1582030634,471.711,-9.15293,41.9695,177.935,-1.47217,88.7915,2876
1582030634,471.711,-9.15293,41.9695,177.935,-1.47217,88.7915,2876
1582030634,471.711,-9.15293,41.9695,177.935,-1.47217,88.7915,2876
1582030634,471.711,-9.15293,41.9695,177.935,-1.47217,88.7915,2876
1582030634,471.711,-9.15293,41.9695,177.935,-1.47217,88.7915,2876
1582030634,471.711,-9.15293,41.9695,177.935,-1.47217,88.7915,2876
1582030634,471.711,-9.15293,41.9695,177.935,-1.47217,88.7915,2876
1582030634,471.711,-9.15293,41.9695,177.935,-1.47217,88.7915,2876
1582030634,471.711,-9.15293,41.9695,177.913,-1.47217,88.7915,2876
1582030634,471.711,-9.15293,41.9695,177.913,-1.47217,88.7915,2876
1582030634,471.711,-9.15293,41.9695,177.913,-1.47217,88.7915,2876
1582030634,471.711,-9.15293,41.9695,177.913,-1.47217,88.7915,2876
1582030634,471.711,-9.15293,41.9695,177.913,-1.47217,88.7915,2876
1582030634,471.711,-9.15293,41.9695,177.913,-1.47217,88.7915,2876
1582030634,471.711,-9.15293,41.9695,177.913,-1.47217,88.7915,2876
1582030634,471.711,-9.15293,41.9695,177.913,-1.47217,88.7915,2876
1582030634,471.711,-9.15293,41.9695,177.935,-1.47217,88.7915,2876
1582030634,471.711,-9.15293,41.9695,177.935,-1.47217,88.7915,2876
1582030634,471.711,-9.15293,41.9695,177.935,-1.47217,88.7915,2876
1582030634,471.711,-9.15293,41.9695,177.935,-1.47217,88.7915,2876
1582030634,471.711,-9.15293,41.9695,177.935,-1.47217,88.7915,2876
1582030634,471.711,-9.15293,41.9695,177.935,-1.47217,88.7915,2876
1582030634,471.711,-9.15293,41.9695,177.935,-1.47217,88.7915,2876
1582030634,471.711,-9.15293,41.9695,177.935,-1.47217,88.7915,2876
1582030634,471.711,-9.15293,41.9695,177.935,-1.47217,88.7915,2876
1582030634,471.711,-9.15293,41.9695,177.935,-1.47217,88.7915,2876
1582030634,471.711,-9.15293,41.9695,177.935,-1.47217,88.7915,2876
1582030634,471.711,-9.15293,41.9695,177.935,-1.47217,88.7915,2876
1582030634,471.711,-9.15293,41.9695,177.935,-1.47217,88.7915,2876
1582030634,471.711,-9.15293,41.9695,177.935,-1.47217,88.7915,2876
1582030634,471.711,-9.15293,41.9695,177.935,-1.4502,88.7915,2876
1582030634,471.711,-9.15293,41.9695,177.935,-1.4502,88.7915,2876
1582030634,471.711,-9.15293,41.9695,177.935,-1.4502,88.7915,2876
1582030634,471.711,-9.15293,41.9695,177.935,-1.4502,88.7915,2872
1582030634,471.711,-9.15293,41.9695,177.935,-1.4502,88.7915,2872
1582030634,471.711,-9.15293,41.9695,177.935,-1.4502,88.7915,2872
1582030634,471.711,-9.15293,41.9695,177.913,-1.4502,88.7915,2872
1582030634,471.711,-9.15293,41.9695,177.913,-1.4502,88.7915,2872
1582030634,471.711,-9.15293,41.9695,177.913,-1.4502,88.7915,2872
1582030634,471.711,-9.15293,41.9695,177.913,-1.47217,88.7915,2872
1582030634,471.711,-9.15293,41.9695,177.913,-1.47217,88.7915,2872
1582030634,471.711,-9.15293,41.9695,177.913,-1.47217,88.7915,2872
1582030634,471.711,-9.15293,41.9695,177.913,-1.47217,88.7915,2872
1582030634,471.711,-9.15293,41.9695,177.913,-1.47217,88.7915,2872
1582030634,471.711,-9.15293,41.9695,177.913,-1.47217,88.7915,2872
1582030634,471.711,-9.15293,41.9695,177.913,-1.4502,88.7915,2872
1582030634,471.711,-9.15293,41.9695,177.913,-1.4502,88.7915,2872
1582030634,471.711,-9.15293,41.9695,177.913,-1.4502,88.7915,2872
1582030634,471.711,-9.15293,41.9695,177.913,-1.4502,88.7915,2872
1582030634,471.711,-9.15293,41.9695,177.913,-1.4502,88.7915,2872
1582030634,471.711,-9.15293,41.9695,177.913,-1.4502,88.7915,2872
1582030634,471.711,-9.15293,41.9695,177.913,-1.4502,88.7915,2872
1582030634,471.711,-9.15293,41.9695,177.913,-1.4502,88.7915,2876
1582030634,471.711,-9.15293,41.9695,177.913,-1.4502,88.7915,2876
1582030634,471.711,-9.15293,41.9695,177.913,-1.4502,88.7915,2876
1582030634,471.711,-9.15293,41.9695,177.913,-1.4502,88.7915,2876
1582030634,471.711,-9.15293,41.9695,177.913,-1.4502,88.7915,2876
1582030634,471.711,-9.15293,41.9695,177.913,-1.4502,88.7915,2876
1582030634,471.711,-9.15293,41.9695,177.913,-1.4502,88.7915,2876
1582030634,471.711,-9.15293,41.9695,177.913,-1.4502,88.7915,2876
1582030634,471.711,-9.15293,41.9695,177.913,-1.4502,88.7915,2876
1582030634,471.711,-9.15293,41.9695,177.913,-1.4502,88.7915,2876
1582030634,471.711,-9.15293,41.9695,177.913,-1.4502,88.7915,2876
1582030634,471.711,-9.15293,41.9695,177.913,-1.4502,88.7915,2876
1582030634,471.711,-9.15293,41.9695,177.913,-1.4502,88.7915,2876
1582030634,471.711,-9.15293,41.9695,177.913,-1.4502,88.7915,2876
1582030634,471.711,-9.15293,41.9695,177.913,-1.4502,88.7915,2876
1582030634,471.711,-9.15293,41.9695,177.913,-1.4502,88.7915,2876
1582030634,471.711,-9.15293,41.9695,177.913,-1.4502,88.7915,2876
1582030634,471.711,-9.15293,41.9695,177.913,-1.4502,88.7915,2876
1582030634,471.711,-9.15293,41.9695,177.913,-1.4502,88.7915,2876
1582030634,471.711,-9.15293,41.9695,177.913,-1.4502,88.7915,2876
1582030634,471.711,-9.15293,41.9695,177.913,-1.4502,88.7915,2876
1582030634,471.711,-9.15293,41.9695,177.913,-1.4502,88.7915,2876
1582030634,471.711,-9.15293,41.9695,177.913,-1.4502,88.7915,2876
1582030634,471.711,-9.15293,41.9695,177.913,-1.4502,88.7915,2876
1582030634,471.711,-9.15293,41.9695,177.913,-1.4502,88.7915,2876
1582030634,471.711,-9.15293,41.9695,177.913,-1.47217,88.7915,2876
1582030634,471.711,-9.15293,41.9695,177.913,-1.47217,88.7915,2876
1582030634,471.711,-9.15293,41.9695,177.913,-1.47217,88.7915,2876
1582030634,471.711,-9.15293,41.9695,177.913,-1.47217,88.7915,2876
1582030634,471.711,-9.15293,41.9695,177.913,-1.47217,88.7915,2876
1582030634,471.711,-9.15293,41.9695,177.913,-1.47217,88.7915,2876
1582030634,471.711,-9.15293,41.9695,177.913,-1.47217,88.7915,2876
1582030634,471.711,-9.15293,41.9695,177.913,-1.47217,88.7915,2876
1582030634,471.711,-9.15293,41.9695,177.913,-1.47217,88.7915,2876
1582030634,471.711,-9.15293,41.9695,177.913,-1.47217,88.7915,2876
1582030634,471.711,-9.15293,41.9695,177.913,-1.47217,88.7915,2876
1582030634,471.711,-9.15293,41.9695,177.913,-1.47217,88.7915,2876
1582030634,471.711,-9.15293,41.9695,177.913,-1.47217,88.7915,2876
1582030634,471.711,-9.15293,41.9695,177.913,-1.47217,88.7915,2876
1582030634,471.711,-9.15293,41.9695,177.913,-1.47217,88.7915,2876
1582030635,471.711,-9.15293,41.9695,177.913,-1.47217,88.7915,2876
1582030635,471.711,-9.15293,41.9695,177.913,-1.47217,88.7915,2876
1582030635,471.711,-9.15293,41.9695,177.913,-1.47217,88.7915,2876
1582030635,471.711,-9.15293,41.9695,177.913,-1.47217,88.7915,2876
1582030635,471.711,-9.15293,41.9695,177.913,-1.4502,88.7915,2876
1582030635,471.711,-9.15293,41.9695,177.913,-1.4502,88.7915,2876
1582030635,471.711,-9.15293,41.9695,177.913,-1.4502,88.7915,2876
1582030635,471.711,-9.15293,41.9695,177.913,-1.4502,88.7915,2876
1582030635,471.711,-9.15293,41.9695,177.913,-1.4502,88.7915,2876
1582030635,471.711,-9.15293,41.9695,177.913,-1.4502,88.7915,2876
1582030635,471.711,-9.15293,41.9695,177.913,-1.4502,88.7915,2876
1582030635,471.711,-9.15293,41.9695,177.913,-1.4502,88.7915,2876
1582030635,471.711,-9.15293,41.9695,177.913,-1.4502,88.7915,2876
1582030635,471.711,-9.15293,41.9695,177.913,-1.4502,88.7915,2876
1582030635,471.711,-9.15293,41.9695,177.913,-1.4502,88.7915,2876
1582030635,471.711,-9.15293,41.9695,177.913,-1.4502,88.7915,2876
1582030635,471.711,-9.15293,41.9695,177.913,-1.4502,88.7915,2876
1582030635,471.711,-9.15293,41.9695,177.913,-1.4502,88.7915,2876
1582030635,471.711,-9.15293,41.9695,177.913,-1.4502,88.7915,2876
1582030635,471.711,-9.15293,41.9695,177.913,-1.4502,88.7915,2876
1582030635,471.711,-9.15293,41.9695,177.913,-1.4502,88.7915,2876
1582030635,471.711,-9.15293,41.9695,177.913,-1.4502,88.7915,2872
1582030635,471.711,-9.15293,41.9695,177.913,-1.4502,88.7915,2872
1582030635,471.711,-9.15293,41.9695,177.913,-1.4502,88.7915,2872
1582030635,471.711,-9.15293,41.9695,177.913,-1.4502,88.7915,2872
1582030635,471.711,-9.15293,41.9695,177.913,-1.4502,88.7915,2872
1582030635,471.711,-9.15293,41.9695,177.913,-1.4502,88.7915,2872
1582030635,471.711,-9.15293,41.9695,177.913,-1.4502,88.7915,2872
1582030635,471.711,-9.15293,41.9695,177.913,-1.4502,88.7915,2872
1582030635,471.711,-9.15293,41.9695,177.913,-1.4502,88.7915,2872
1582030635,471.711,-9.15293,41.9695,177.913,-1.4502,88.7915,2872
1582030635,471.711,-9.15293,41.9695,177.913,-1.4502,88.7915,2872
1582030635,471.711,-9.15293,41.9695,177.913,-1.47217,88.7915,2872
1582030635,471.711,-9.15293,41.9695,177.913,-1.47217,88.7915,2872
1582030635,471.711,-9.15293,41.9695,177.913,-1.47217,88.7915,2872
1582030635,471.711,-9.15293,41.9695,177.913,-1.47217,88.7915,2872
1582030635,471.711,-9.15293,41.9695,177.913,-1.47217,88.7915,2872
1582030635,471.711,-9.15293,41.9695,177.913,-1.47217,88.7915,2872
1582030635,471.711,-9.15293,41.9695,177.913,-1.47217,88.7915,2872
1582030635,471.711,-9.15293,41.9695,177.913,-1.47217,88.7915,2872
1582030635,471.711,-9.15293,41.9695,177.913,-1.47217,88.7915,2872
1582030635,471.711,-9.15293,41.9695,177.913,-1.47217,88.7915,2872
1582030635,471.711,-9.15293,41.9695,177.913,-1.47217,88.7915,2872
1582030635,471.711,-9.15293,41.9695,177.913,-1.47217,88.7915,2872
1582030635,471.711,-9.15293,41.9695,177.913,-1.47217,88.7915,2872
1582030635,471.711,-9.15293,41.9695,177.913,-1.47217,88.7915,2872
1582030635,471.711,-9.15293,41.9695,177.913,-1.47217,88.7915,2872
1582030635,471.711,-9.15293,41.9695,177.913,-1.47217,88.7915,2872
1582030635,471.711,-9.15293,41.9695,177.913,-1.47217,88.7915,2872
1582030635,471.711,-9.15293,41.9695,177.913,-1.47217,88.7915,2872
1582030635,471.711,-9.15293,41.9695,177.913,-1.47217,88.7915,2872
1582030635,471.711,-9.15293,41.9695,177.913,-1.47217,88.7915,2872
1582030635,471.711,-9.15293,41.9695,177.913,-1.47217,88.7915,2872
1582030635,471.711,-9.15293,41.9695,177.913,-1.47217,88.7915,2872
1582030635,471.711,-9.15293,41.9695,177.935,-1.47217,88.7915,2872
1582030635,471.711,-9.15293,41.9695,177.935,-1.47217,88.7915,2872
1582030635,471.711,-9.15293,41.9695,177.935,-1.47217,88.7915,2872
1582030635,471.711,-9.15293,41.9695,177.935,-1.47217,88.7915,2872
1582030635,471.711,-9.15293,41.9695,177.935,-1.47217,88.7915,2872
1582030635,471.711,-9.15293,41.9695,177.935,-1.47217,88.7915,2872
1582030635,471.711,-9.15293,41.9695,177.935,-1.47217,88.7915,2872
1582030635,471.711,-9.15293,41.9695,177.913,-1.47217,88.7915,2872
1582030635,471.711,-9.15293,41.9695,177.913,-1.47217,88.7915,2872
1582030635,471.711,-9.15293,41.9695,177.913,-1.47217,88.7915,2872
1582030635,471.711,-9.15293,41.9695,177.913,-1.47217,88.7915,2872
1582030635,471.711,-9.15293,41.9695,177.913,-1.47217,88.7915,2872
1582030635,471.711,-9.15293,41.9695,177.913,-1.47217,88.7915,2872
1582030635,471.711,-9.15293,41.9695,177.913,-1.47217,88.7915,2872
1582030635,471.711,-9.15293,41.9695,177.913,-1.47217,88.7915,2872
1582030635,471.711,-9.15293,41.9695,177.913,-1.47217,88.7915,2872
1582030635,471.711,-9.15293,41.9695,177.913,-1.47217,88.7915,2872
1582030635,471.711,-9.15293,41.9695,177.913,-1.47217,88.7915,2872
1582030635,471.711,-9.15293,41.9695,177.913,-1.47217,88.7915,2872
1582030635,471.711,-9.15293,41.9695,177.913,-1.47217,88.7915,2872
1582030635,471.711,-9.15293,41.9695,177.913,-1.47217,88.7915,2872
1582030635,471.711,-9.15293,41.9695,177.935,-1.47217,88.7915,2872
1582030635,471.711,-9.15293,41.9695,177.935,-1.47217,88.7915,2872
1582030635,471.711,-9.15293,41.9695,177.935,-1.47217,88.7915,2872
1582030635,471.711,-9.15293,41.9695,177.935,-1.47217,88.7915,2872
1582030635,471.711,-9.15293,41.9695,177.935,-1.47217,88.7915,2872
1582030635,471.711,-9.15293,41.9695,177.935,-1.47217,88.7915,2872
1582030635,471.711,-9.15293,41.9695,177.935,-1.47217,88.7915,2872
1582030635,471.711,-9.15293,41.9695,177.935,-1.47217,88.7915,2872
1582030635,471.711,-9.15293,41.9695,177.935,-1.47217,88.7915,2876
1582030635,471.711,-9.15293,41.9695,177.935,-1.47217,88.7915,2876
1582030635,471.711,-9.15293,41.9695,177.913,-1.47217,88.7915,2876
1582030635,471.711,-9.15293,41.9695,177.913,-1.47217,88.7915,2876
1582030635,471.711,-9.15293,41.9695,177.913,-1.47217,88.7915,2876
1582030635,471.711,-9.15293,41.9695,177.913,-1.47217,88.7915,2876
1582030635,471.711,-9.15293,41.9695,177.913,-1.47217,88.7915,2876
1582030635,471.711,-9.15293,41.9695,177.913,-1.47217,88.7915,2876
1582030635,471.711,-9.15293,41.9695,177.913,-1.47217,88.7915,2876
1582030635,471.711,-9.15293,41.9695,177.913,-1.47217,88.7915,2876
1582030635,471.711,-9.15293,41.9695,177.935,-1.47217,88.7915,2876
1582030635,471.711,-9.15293,41.9695,177.935,-1.47217,88.7915,2876
1582030635,471.711,-9.15293,41.9695,177.935,-1.47217,88.7915,2876
1582030635,471.711,-9.15293,41.9695,177.935,-1.47217,88.7915,2876
1582030635,471.711,-9.15293,41.9695,177.935,-1.47217,88.7915,2876
1582030635,471.711,-9.15293,41.9695,177.935,-1.47217,88.7915,2876
1582030635,471.711,-9.15293,41.9695,177.935,-1.47217,88.7915,2876
1582030636,471.711,-9.15293,41.9695,177.913,-1.47217,88.7915,2876
1582030636,471.711,-9.15293,41.9695,177.913,-1.47217,88.7915,2876
1582030636,471.711,-9.15293,41.9695,177.913,-1.47217,88.7915,2876
1582030636,471.711,-9.15293,41.9695,177.913,-1.47217,88.7915,2876
1582030636,471.711,-9.15293,41.9695,177.913,-1.47217,88.7915,2876
1582030636,471.711,-9.15293,41.9695,177.913,-1.4502,88.7915,2876
1582030636,471.711,-9.15293,41.9695,177.913,-1.4502,88.7915,2876
1582030636,471.711,-9.15293,41.9695,177.913,-1.4502,88.7915,2876
1582030636,471.711,-9.15293,41.9695,177.913,-1.4502,88.7915,2876
1582030636,471.711,-9.15293,41.9695,177.913,-1.4502,88.7915,2876
1582030636,471.711,-9.15293,41.9695,177.913,-1.4502,88.7915,2876
1582030636,471.711,-9.15293,41.9695,177.913,-1.4502,88.7915,2876
1582030636,471.711,-9.15293,41.9695,177.913,-1.4502,88.7915,2876
1582030636,471.711,-9.15293,41.9695,177.935,-1.4502,88.7915,2876
1582030636,471.711,-9.15293,41.9695,177.935,-1.4502,88.7915,2876
1582030636,471.711,-9.15293,41.9695,177.935,-1.4502,88.7915,2872
1582030636,471.711,-9.15293,41.9695,177.935,-1.4502,88.7915,2872
1582030636,471.711,-9.15293,41.9695,177.935,-1.4502,88.7915,2872
1582030636,471.711,-9.15293,41.9695,177.935,-1.4502,88.7915,2872
1582030636,471.711,-9.15293,41.9695,177.935,-1.4502,88.7915,2872
1582030636,471.711,-9.15293,41.9695,177.935,-1.4502,88.7915,2872
1582030636,471.711,-9.15293,41.9695,177.935,-1.4502,88.7915,2872
1582030636,471.711,-9.15293,41.9695,177.935,-1.4502,88.7915,2872
1582030636,471.711,-9.15293,41.9695,177.935,-1.4502,88.7915,2872
1582030636,471.711,-9.15293,41.9695,177.935,-1.4502,88.7915,2872
1582030636,471.711,-9.15293,41.9695,177.935,-1.4502,88.7915,2872
1582030636,471.711,-9.15293,41.9695,177.935,-1.4502,88.7915,2872
1582030636,471.711,-9.15293,41.9695,177.935,-1.4502,88.7915,2872
1582030636,471.711,-9.15293,41.9695,177.935,-1.4502,88.7915,2872
1582030636,471.711,-9.15293,41.9695,177.935,-1.4502,88.7915,2872
1582030636,471.711,-9.15293,41.9695,177.935,-1.4502,88.7915,2872
1582030636,471.711,-9.15293,41.9695,177.935,-1.4502,88.7915,2872
1582030636,471.711,-9.15293,41.9695,177.935,-1.4502,88.7915,2872
1582030636,471.711,-9.15293,41.9695,177.935,-1.4502,88.7915,2872
1582030636,471.711,-9.15293,41.9695,177.935,-1.4502,88.7915,2872
1582030636,471.711,-9.15293,41.9695,177.935,-1.4502,88.7915,2872
1582030636,471.711,-9.15293,41.9695,177.935,-1.4502,88.7915,2872
1582030636,471.711,-9.15293,41.9695,177.935,-1.4502,88.7915,2872
1582030636,471.711,-9.15293,41.9695,177.935,-1.4502,88.7915,2872
1582030636,471.711,-9.15293,41.9695,177.935,-1.47217,88.7915,2872
1582030636,471.711,-9.15293,41.9695,177.935,-1.47217,88.7915,2872
1582030636,471.711,-9.15293,41.9695,177.935,-1.47217,88.7915,2872
1582030636,471.711,-9.15293,41.9695,177.935,-1.47217,88.7915,2872
1582030636,471.711,-9.15293,41.9695,177.935,-1.47217,88.7915,2872
1582030636,471.711,-9.15293,41.9695,177.935,-1.47217,88.7915,2872
1582030636,471.711,-9.15293,41.9695,177.935,-1.47217,88.7915,2872
1582030636,471.711,-9.15293,41.9695,177.935,-1.47217,88.7915,2872
1582030636,471.711,-9.15293,41.9695,177.935,-1.47217,88.7915,2872
1582030636,471.711,-9.15293,41.9695,177.935,-1.47217,88.7915,2872
1582030636,471.711,-9.15293,41.9695,177.935,-1.47217,88.7915,2872
1582030636,471.711,-9.15293,41.9695,177.935,-1.47217,88.7915,2872
1582030636,471.711,-9.15293,41.9695,177.935,-1.47217,88.7915,2872
1582030636,471.711,-9.15293,41.9695,177.935,-1.47217,88.7915,2872
1582030636,471.711,-9.15293,41.9695,177.935,-1.47217,88.7915,2872
1582030636,471.711,-9.15293,41.9695,177.935,-1.47217,88.7915,2872
1582030636,471.711,-9.15293,41.9695,177.935,-1.47217,88.7915,2872
1582030636,471.711,-9.15293,41.9695,177.935,-1.47217,88.7915,2872
1582030636,471.711,-9.15293,41.9695,177.935,-1.47217,88.7915,2872
1582030636,471.711,-9.15293,41.9695,177.935,-1.47217,88.7915,2872
1582030636,471.711,-9.15293,41.9695,177.935,-1.47217,88.7915,2872
1582030636,471.711,-9.15293,41.9695,177.935,-1.47217,88.7915,2872
1582030636,471.711,-9.15293,41.9695,177.935,-1.47217,88.7915,2872
1582030636,471.711,-9.15293,41.9695,177.935,-1.47217,88.7915,2872
1582030636,471.711,-9.15293,41.9695,177.935,-1.47217,88.7915,2872
1582030636,471.711,-9.15293,41.9695,177.935,-1.47217,88.7915,2872
1582030636,471.711,-9.15293,41.9695,177.935,-1.4502,88.7915,2872
1582030636,471.711,-9.15293,41.9695,177.935,-1.4502,88.7915,2872
1582030636,471.711,-9.15293,41.9695,177.935,-1.4502,88.7915,2872
1582030647,471.711,-9.15293,41.9695,177.935,-1.47217,88.7915,2872
1582030647,471.711,-9.15293,41.9695,177.935,-1.47217,88.7915,2872
1582030647,471.711,-9.15293,41.9695,177.935,-1.47217,88.7915,2872
1582030647,471.711,-9.15293,41.9695,177.935,-1.47217,88.7915,2872
1582030647,471.711,-9.15293,41.9695,177.935,-1.47217,88.7915,2872
1582030647,471.711,-9.15293,41.9695,177.935,-1.47217,88.7915,2872
1582030647,471.711,-9.15293,41.9695,177.935,-1.47217,88.7915,2872
1582030647,471.711,-9.15293,41.9695,177.935,-1.47217,88.7915,2872
1582030647,471.711,-9.15293,41.9695,177.935,-1.47217,88.7915,2872
1582030647,471.711,-9.15293,41.9695,177.935,-1.47217,88.7915,2872
1582030647,471.711,-9.15293,41.9695,177.913,-1.47217,88.7915,2872
1582030647,471.711,-9.15293,41.9695,177.913,-1.47217,88.7915,2872
1582030647,471.711,-9.15293,41.9695,177.913,-1.47217,88.7915,2872
1582030647,471.711,-9.15293,41.9695,177.913,-1.47217,88.7915,2872
1582030647,471.711,-9.15293,41.9695,177.913,-1.47217,88.7915,2872
1582030647,471.711,-9.15293,41.9695,177.913,-1.47217,88.7915,2872
1582030647,471.711,-9.15293,41.9695,177.913,-1.47217,88.7915,2872
1582030647,471.711,-9.15293,41.9695,177.913,-1.47217,88.7915,2872
1582030647,471.711,-9.15293,41.9695,177.935,-1.47217,88.7915,2872
1582030647,471.711,-9.15293,41.9695,177.935,-1.47217,88.7915,2872
1582030647,471.711,-9.15293,41.9695,177.935,-1.47217,88.7915,2872
1582030647,471.711,-9.15293,41.9695,177.935,-1.47217,88.7915,2872
1582030647,471.711,-9.15293,41.9695,177.935,-1.47217,88.7915,2872
1582030647,471.711,-9.15293,41.9695,177.935,-1.47217,88.7915,2876
1582030647,471.711,-9.15293,41.9695,177.935,-1.47217,88.7915,2876
1582030647,471.711,-9.15293,41.9695,177.935,-1.47217,88.7915,2876
1582030647,471.711,-9.15293,41.9695,177.935,-1.47217,88.7915,2876
1582030647,471.711,-9.15293,41.9695,177.935,-1.47217,88.7915,2876
1582030647,471.711,-9.15293,41.9695,177.935,-1.47217,88.7915,2876
1582030647,471.711,-9.15293,41.9695,177.935,-1.47217,88.7915,2876
1582030647,471.711,-9.15293,41.9695,177.935,-1.47217,88.7915,2876
1582030647,471.711,-9.15293,41.9695,177.935,-1.47217,88.7915,2876
1582030647,471.711,-9.15293,41.9695,177.935,-1.47217,88.7915,2876
1582030647,471.711,-9.15293,41.9695,177.935,-1.47217,88.7915,2876
1582030647,471.711,-9.15293,41.9695,177.913,-1.47217,88.7915,2876
1582030647,471.711,-9.15293,41.9695,177.913,-1.4502,88.7915,2876
1582030647,471.711,-9.15293,41.9695,177.913,-1.4502,88.7915,2876
1582030647,471.711,-9.15293,41.9695,177.913,-1.4502,88.7915,2876
1582030647,471.711,-9.15293,41.9695,177.913,-1.47217,88.7915,2876
1582030647,471.711,-9.15293,41.9695,177.913,-1.47217,88.7915,2876
1582030647,471.711,-9.15293,41.9695,177.913,-1.47217,88.7915,2876
1582030647,471.711,-9.15293,41.9695,177.913,-1.47217,88.7915,2876
1582030647,471.711,-9.15293,41.9695,177.913,-1.47217,88.7915,2876
1582030647,471.711,-9.15293,41.9695,177.913,-1.47217,88.7915,2876
1582030647,471.711,-9.15293,41.9695,177.913,-1.47217,88.7915,2876
1582030647,471.711,-9.15293,41.9695,177.913,-1.47217,88.7915,2876
1582030647,471.711,-9.15293,41.9695,177.913,-1.47217,88.7915,2876
1582030647,471.711,-9.15293,41.9695,177.913,-1.47217,88.7915,2872
1582030647,471.711,-9.15293,41.9695,177.913,-1.47217,88.7915,2872
1582030647,471.711,-9.15293,41.9695,177.913,-1.47217,88.7915,2872
1582030647,471.711,-9.15293,41.9695,177.913,-1.4502,88.7915,2872
1582030647,471.711,-9.15293,41.9695,177.913,-1.4502,88.7915,2872
1582030647,471.711,-9.15293,41.9695,177.913,-1.4502,88.7915,2872
1582030647,471.711,-9.15293,41.9695,177.913,-1.4502,88.7915,2872
1582030647,471.711,-9.15293,41.9695,177.913,-1.4502,88.7915,2872
1582030647,471.711,-9.15293,41.9695,177.913,-1.4502,88.7915,2872
1582030647,471.711,-9.15293,41.9695,177.913,-1.4502,88.7915,2872
1582030647,471.711,-9.15293,41.9695,177.913,-1.4502,88.7915,2872
1582030647,471.711,-9.15293,41.9695,177.913,-1.4502,88.7915,2872
1582030647,471.711,-9.15293,41.9695,177.913,-1.4502,88.7915,2872
1582030647,471.711,-9.15293,41.9695,177.913,-1.47217,88.7915,2872
1582030647,471.711,-9.15293,41.9695,177.913,-1.47217,88.7915,2872
1582030647,471.711,-9.15293,41.9695,177.913,-1.47217,88.7915,2872
1582030647,471.711,-9.15293,41.9695,177.913,-1.47217,88.7915,2872
1582030647,471.711,-9.15293,41.9695,177.913,-1.47217,88.7915,2872
1582030647,471.711,-9.15293,41.9695,177.913,-1.47217,88.7915,2872
1582030647,471.711,-9.15293,41.9695,177.913,-1.47217,88.7915,2872
1582030647,471.711,-9.15293,41.9695,177.913,-1.47217,88.7915,2872
1582030647,471.711,-9.15293,41.9695,177.913,-1.47217,88.7915,2872
1582030647,471.711,-9.15293,41.9695,177.913,-1.47217,88.7915,2872
1582030647,471.711,-9.15293,41.9695,177.913,-1.47217,88.7915,2872
1582030647,471.711,-9.15293,41.9695,177.913,-1.47217,88.7915,2872
1582030647,471.711,-9.15293,41.9695,177.913,-1.47217,88.7915,2872
1582030647,471.711,-9.15293,41.9695,177.913,-1.47217,88.7915,2872
1582030647,471.711,-9.15293,41.9695,177.913,-1.47217,88.7915,2872
1582030647,471.711,-9.15293,41.9695,177.913,-1.47217,88.7915,2872
1582030648,471.711,-9.15293,41.9695,177.913,-1.47217,88.7915,2872
1582030648,471.711,-9.15293,41.9695,177.913,-1.47217,88.7915,2872
1582030648,471.711,-9.15293,41.9695,177.913,-1.47217,88.7915,2872
1582030648,471.711,-9.15293,41.9695,177.913,-1.47217,88.7915,2872
1582030648,471.711,-9.15293,41.9695,177.913,-1.47217,88.7915,2872
1582030648,471.711,-9.15293,41.9695,177.913,-1.47217,88.7915,2872
1582030648,471.711,-9.15293,41.9695,177.913,-1.47217,88.7915,2872
1582030648,471.711,-9.15293,41.9695,177.913,-1.47217,88.7915,2872
1582030648,471.711,-9.15293,41.9695,177.913,-1.47217,88.7915,2872
1582030648,471.711,-9.15293,41.9695,177.913,-1.47217,88.7915,2872
1582030648,471.711,-9.15293,41.9695,177.913,-1.47217,88.7915,2872
1582030648,471.711,-9.15293,41.9695,177.913,-1.47217,88.7915,2872
1582030648,471.711,-9.15293,41.9695,177.913,-1.47217,88.7915,2872
1582030648,471.711,-9.15293,41.9695,177.913,-1.47217,88.7915,2872
1582030648,471.711,-9.15293,41.9695,177.913,-1.47217,88.7915,2872
1582030648,471.711,-9.15293,41.9695,177.913,-1.47217,88.7915,2872
1582030648,471.711,-9.15293,41.9695,177.913,-1.47217,88.7915,2872
1582030648,471.711,-9.15293,41.9695,177.913,-1.47217,88.7915,2872
1582030648,471.711,-9.15293,41.9695,177.913,-1.47217,88.7915,2872
1582030648,471.711,-9.15293,41.9695,177.913,-1.47217,88.7915,2872
1582030648,471.711,-9.15293,41.9695,177.913,-1.47217,88.7915,2872
1582030648,471.711,-9.15293,41.9695,177.913,-1.47217,88.7915,2872
1582030648,471.711,-9.15293,41.9695,177.913,-1.47217,88.7915,2872
1582030648,471.711,-9.15293,41.9695,177.913,-1.47217,88.7915,2872
1582030648,471.711,-9.15293,41.9695,177.913,-1.47217,88.7915,2872
1582030648,471.711,-9.15293,41.9695,177.913,-1.47217,88.7915,2872
1582030648,471.711,-9.15293,41.9695,177.913,-1.47217,88.7915,2872
1582030648,471.711,-9.15293,41.9695,177.913,-1.47217,88.7915,2872
1582030648,471.711,-9.15293,41.9695,177.913,-1.47217,88.7915,2872
1582030648,471.711,-9.15293,41.9695,177.913,-1.47217,88.7915,2872
1582030648,471.711,-9.15293,41.9695,177.913,-1.47217,88.7915,2872
1582030648,471.711,-9.15293,41.9695,177.913,-1.4502,88.7915,2872
1582030648,471.711,-9.15293,41.9695,177.913,-1.4502,88.7915,2872
1582030648,471.711,-9.15293,41.9695,177.913,-1.4502,88.7915,2872
1582030648,471.711,-9.15293,41.9695,177.913,-1.4502,88.7915,2872
1582030648,471.711,-9.15293,41.9695,177.913,-1.4502,88.7915,2872
1582030648,471.711,-9.15293,41.9695,177.913,-1.4502,88.7915,2872
1582030648,471.711,-9.15293,41.9695,177.913,-1.47217,88.7915,2872
1582030648,471.711,-9.15293,41.9695,177.913,-1.47217,88.7915,2872
1582030648,471.711,-9.15293,41.9695,177.913,-1.47217,88.7915,2872
1582030648,471.711,-9.15293,41.9695,177.913,-1.47217,88.7915,2872
1582030648,471.711,-9.15293,41.9695,177.913,-1.47217,88.7915,2872
1582030648,471.711,-9.15293,41.9695,177.913,-1.47217,88.7915,2872
1582030648,471.711,-9.15293,41.9695,177.913,-1.47217,88.7915,2872
1582030648,471.711,-9.15293,41.9695,177.913,-1.47217,88.7915,2872
1582030648,471.711,-9.15293,41.9695,177.913,-1.47217,88.7915,2872
1582030648,471.711,-9.15293,41.9695,177.913,-1.47217,88.7915,2872
1582030648,471.711,-9.15293,41.9695,177.913,-1.47217,88.7915,2872
1582030648,471.711,-9.15293,41.9695,177.913,-1.47217,88.7915,2872
1582030648,471.711,-9.15293,41.9695,177.913,-1.47217,88.7915,2872
1582030648,471.711,-9.15293,41.9695,177.913,-1.47217,88.7915,2872
1582030648,471.711,-9.15293,41.9695,177.913,-1.47217,88.7915,2872
1582030648,471.711,-9.15293,41.9695,177.913,-1.47217,88.7915,2872
1582030648,471.711,-9.15293,41.9695,177.913,-1.47217,88.7915,2872
1582030648,471.711,-9.15293,41.9695,177.913,-1.47217,88.7915,2872
1582030648,471.711,-9.15293,41.9695,177.913,-1.47217,88.7915,2872
1582030648,471.711,-9.15293,41.9695,177.913,-1.47217,88.7915,2872
1582030648,471.711,-9.15293,41.9695,177.913,-1.47217,88.7915,2872
1582030648,471.711,-9.15293,41.9695,177.913,-1.47217,88.7915,2872
1582030648,471.711,-9.15293,41.9695,177.913,-1.47217,88.7915,2872
1582030648,471.711,-9.15293,41.9695,177.913,-1.47217,88.7915,2872
1582030648,471.711,-9.15293,41.9695,177.913,-1.47217,88.7915,2872
1582030648,471.711,-9.15293,41.9695,177.913,-1.47217,88.7915,2872
1582030648,471.711,-9.15293,41.9695,177.935,-1.47217,88.7915,2872
1582030648,471.711,-9.15293,41.9695,177.935,-1.47217,88.7915,2872
1582030648,471.711,-9.15293,41.9695,177.935,-1.47217,88.7915,2872
1582030648,471.711,-9.15293,41.9695,177.935,-1.4502,88.7915,2872
1582030648,471.711,-9.15293,41.9695,177.935,-1.4502,88.7915,2872
1582030648,471.711,-9.15293,41.9695,177.935,-1.4502,88.7915,2872
1582030648,471.711,-9.15293,41.9695,177.935,-1.4502,88.7915,2872
1582030648,471.711,-9.15293,41.9695,177.935,-1.4502,88.7915,2872
1582030648,471.711,-9.15293,41.9695,177.935,-1.4502,88.7915,2872
1582030648,471.711,-9.15293,41.9695,177.935,-1.4502,88.7915,2872
1582030648,471.711,-9.15293,41.9695,177.935,-1.4502,88.7915,2872
1582030648,471.711,-9.15293,41.9695,177.935,-1.4502,88.7915,2872
1582030648,471.711,-9.15293,41.9695,177.935,-1.4502,88.7915,2872
1582030648,471.711,-9.15293,41.9695,177.935,-1.4502,88.7915,2872
1582030648,471.711,-9.15293,41.9695,177.935,-1.4502,88.7915,2872
1582030648,471.711,-9.15293,41.9695,177.935,-1.4502,88.7915,2872
1582030648,471.711,-9.15293,41.9695,177.913,-1.4502,88.7915,2872
1582030648,471.711,-9.15293,41.9695,177.913,-1.4502,88.7915,2872
1582030648,471.711,-9.15293,41.9695,177.913,-1.4502,88.7915,2872
1582030648,471.711,-9.15293,41.9695,177.913,-1.4502,88.7915,2872
1582030648,471.711,-9.15293,41.9695,177.913,-1.4502,88.7915,2872
1582030648,471.711,-9.15293,41.9695,177.913,-1.4502,88.7915,2872
1582030648,471.711,-9.15293,41.9695,177.913,-1.4502,88.7915,2872
1582030648,471.711,-9.15293,41.9695,177.913,-1.4502,88.7915,2872
1582030648,471.711,-9.15293,41.9695,177.913,-1.4502,88.7915,2872
1582030648,471.711,-9.15293,41.9695,177.913,-1.4502,88.7915,2872
1582030648,471.711,-9.15293,41.9695,177.913,-1.47217,88.7915,2872
1582030648,471.711,-9.15293,41.9695,177.913,-1.47217,88.7915,2872
1582030648,471.711,-9.15293,41.9695,177.913,-1.47217,88.7915,2872
1582030648,471.711,-9.15293,41.9695,177.913,-1.47217,88.7915,2872
1582030648,471.711,-9.15293,41.9695,177.913,-1.47217,88.7915,2872
1582030648,471.711,-9.15293,41.9695,177.913,-1.47217,88.7915,2872
1582030648,471.711,-9.15293,41.9695,177.913,-1.47217,88.7915,2872
1582030648,471.711,-9.15293,41.9695,177.913,-1.47217,88.7915,2872
1582030648,471.711,-9.15293,41.9695,177.913,-1.47217,88.7915,2872
1582030648,471.711,-9.15293,41.9695,177.913,-1.47217,88.7915,2872
1582030648,471.711,-9.15293,41.9695,177.913,-1.47217,88.7915,2872
1582030649,471.711,-9.15293,41.9695,177.913,-1.47217,88.7915,2872
1582030649,471.711,-9.15293,41.9695,177.913,-1.47217,88.7915,2872
1582030649,471.711,-9.15293,41.9695,177.913,-1.47217,88.7915,2872
1582030649,471.711,-9.15293,41.9695,177.913,-1.47217,88.7915,2872
1582030649,471.711,-9.15293,41.9695,177.913,-1.47217,88.7915,2872
1582030649,471.711,-9.15293,41.9695,177.913,-1.47217,88.7915,2872
1582030649,471.711,-9.15293,41.9695,177.913,-1.47217,88.7915,2872
1582030649,471.711,-9.15293,41.9695,177.913,-1.47217,88.7915,2872
1582030649,471.711,-9.15293,41.9695,177.913,-1.47217,88.7915,2872
1582030649,471.711,-9.15293,41.9695,177.913,-1.47217,88.7915,2872
1582030649,471.711,-9.15293,41.9695,177.913,-1.47217,88.7915,2872
1582030649,471.711,-9.15293,41.9695,177.913,-1.47217,88.7915,2872
1582030649,471.711,-9.15293,41.9695,177.913,-1.47217,88.7915,2872
1582030649,471.711,-9.15293,41.9695,177.913,-1.47217,88.7915,2872
1582030649,471.711,-9.15293,41.9695,177.913,-1.47217,88.7915,2872
1582030649,471.711,-9.15293,41.9695,177.913,-1.47217,88.7915,2872
1582030649,471.711,-9.15293,41.9695,177.913,-1.47217,88.7915,2872
1582030649,471.711,-9.15293,41.9695,177.913,-1.47217,88.7915,2872
1582030649,471.711,-9.15293,41.9695,177.913,-1.47217,88.7915,2872
1582030649,471.711,-9.15293,41.9695,177.913,-1.47217,88.7915,2872
1582030649,471.711,-9.15293,41.9695,177.913,-1.47217,88.7915,2872
1582030649,471.711,-9.15293,41.9695,177.913,-1.47217,88.7915,2872
1582030649,471.711,-9.15293,41.9695,177.913,-1.47217,88.7915,2872
1582030649,471.711,-9.15293,41.9695,177.913,-1.47217,88.7915,2872
1582030649,471.711,-9.15293,41.9695,177.913,-1.47217,88.7915,2872
1582030649,471.711,-9.15293,41.9695,177.913,-1.47217,88.7915,2872
1582030649,471.711,-9.15293,41.9695,177.913,-1.47217,88.7915,2872
1582030649,471.711,-9.15293,41.9695,177.913,-1.47217,88.7915,2872
1582030649,471.711,-9.15293,41.9695,177.913,-1.47217,88.7915,2872
1582030649,471.711,-9.15293,41.9695,177.913,-1.47217,88.7915,2872
1582030649,471.711,-9.15293,41.9695,177.913,-1.47217,88.7915,2872
1582030649,471.711,-9.15293,41.9695,177.913,-1.47217,88.7915,2872
1582030649,471.711,-9.15293,41.9695,177.913,-1.47217,88.7915,2872
1582030649,471.711,-9.15293,41.9695,177.913,-1.47217,88.7915,2872
1582030649,471.711,-9.15293,41.9695,177.913,-1.47217,88.7915,2872
1582030649,471.711,-9.15293,41.9695,177.913,-1.47217,88.7915,2872
1582030649,471.711,-9.15293,41.9695,177.913,-1.47217,88.7915,2872
1582030649,471.711,-9.15293,41.9695,177.913,-1.47217,88.7915,2872
1582030649,471.711,-9.15293,41.9695,177.913,-1.47217,88.7915,2872
1582030649,471.711,-9.15293,41.9695,177.913,-1.47217,88.7915,2872
1582030649,471.711,-9.15293,41.9695,177.913,-1.47217,88.7915,2872
1582030649,471.711,-9.15293,41.9695,177.913,-1.47217,88.7915,2872
1582030649,471.711,-9.15293,41.9695,177.913,-1.47217,88.7915,2872
1582030649,471.711,-9.15293,41.9695,177.913,-1.47217,88.7915,2872
1582030649,471.711,-9.15293,41.9695,177.913,-1.47217,88.7915,2872
1582030649,471.711,-9.15293,41.9695,177.913,-1.47217,88.7915,2872
1582030649,471.711,-9.15293,41.9695,177.913,-1.47217,88.7915,2872
1582030649,471.711,-9.15293,41.9695,177.913,-1.47217,88.7915,2872
1582030649,471.711,-9.15293,41.9695,177.913,-1.47217,88.7915,2872
1582030649,471.711,-9.15293,41.9695,177.913,-1.47217,88.7915,2872
1582030649,471.711,-9.15293,41.9695,177.913,-1.47217,88.7915,2872
1582030649,471.711,-9.15293,41.9695,177.913,-1.47217,88.7915,2872
1582030649,471.711,-9.15293,41.9695,177.913,-1.47217,88.7915,2872
1582030649,471.711,-9.15293,41.9695,177.913,-1.47217,88.7915,2876
1582030649,471.711,-9.15293,41.9695,177.913,-1.47217,88.7915,2876
1582030649,471.711,-9.15293,41.9695,177.913,-1.47217,88.7915,2876
1582030649,471.711,-9.15293,41.9695,177.913,-1.47217,88.7915,2876
1582030649,471.711,-9.15293,41.9695,177.913,-1.47217,88.7915,2876
1582030649,471.711,-9.15293,41.9695,177.913,-1.47217,88.7915,2876
1582030649,471.711,-9.15293,41.9695,177.913,-1.47217,88.7915,2876
1582030649,471.711,-9.15293,41.9695,177.913,-1.47217,88.7915,2876
1582030649,471.711,-9.15293,41.9695,177.913,-1.47217,88.7915,2876
1582030649,471.711,-9.15293,41.9695,177.913,-1.47217,88.7915,2876
1582030649,471.711,-9.15293,41.9695,177.913,-1.47217,88.7915,2876
1582030649,471.711,-9.15293,41.9695,177.913,-1.47217,88.7915,2876
1582030649,471.711,-9.15293,41.9695,177.913,-1.47217,88.7915,2876
1582030649,471.711,-9.15293,41.9695,177.913,-1.47217,88.7915,2876
1582030649,471.711,-9.15293,41.9695,177.913,-1.47217,88.7915,2876
1582030649,471.711,-9.15293,41.9695,177.913,-1.47217,88.7915,2876
1582030649,471.711,-9.15293,41.9695,177.913,-1.47217,88.7915,2876
1582030649,471.711,-9.15293,41.9695,177.913,-1.47217,88.7915,2876
1582030649,471.711,-9.15293,41.9695,177.913,-1.47217,88.7915,2876
1582030649,471.711,-9.15293,41.9695,177.913,-1.47217,88.7915,2876
1582030649,471.711,-9.15293,41.9695,177.913,-1.47217,88.7915,2876
1582030649,471.711,-9.15293,41.9695,177.913,-1.47217,88.7915,2876
1582030649,471.711,-9.15293,41.9695,177.913,-1.47217,88.7915,2876
1582030649,471.711,-9.15293,41.9695,177.913,-1.47217,88.7915,2876
1582030649,471.711,-9.15293,41.9695,177.913,-1.47217,88.7915,2876
1582030649,471.711,-9.15293,41.9695,177.913,-1.47217,88.7915,2876
1582030649,471.711,-9.15293,41.9695,177.913,-1.47217,88.7915,2876
1582030649,471.711,-9.15293,41.9695,177.913,-1.47217,88.7915,2876
1582030649,471.711,-9.15293,41.9695,177.913,-1.47217,88.7915,2876
1582030649,471.711,-9.15293,41.9695,177.913,-1.47217,88.7915,2872
1582030649,471.711,-9.15293,41.9695,177.913,-1.47217,88.7915,2872
1582030649,471.711,-9.15293,41.9695,177.913,-1.47217,88.7915,2872
1582030649,471.711,-9.15293,41.9695,177.913,-1.47217,88.7915,2872
1582030649,471.711,-9.15293,41.9695,177.913,-1.47217,88.7915,2872
1582030649,471.711,-9.15293,41.9695,177.913,-1.47217,88.7915,2872
1582030649,471.711,-9.15293,41.9695,177.913,-1.47217,88.7915,2872
1582030649,471.711,-9.15293,41.9695,177.913,-1.47217,88.7915,2872
1582030649,471.711,-9.15293,41.9695,177.913,-1.47217,88.7915,2872
1582030649,471.711,-9.15293,41.9695,177.913,-1.47217,88.7915,2872
1582030649,471.711,-9.15293,41.9695,177.913,-1.47217,88.7915,2872
1582030649,471.711,-9.15293,41.9695,177.913,-1.47217,88.7915,2872
1582030649,471.711,-9.15293,41.9695,177.913,-1.47217,88.7915,2872
1582030649,471.711,-9.15293,41.9695,177.913,-1.47217,88.7915,2872
1582030649,471.711,-9.15293,41.9695,177.913,-1.47217,88.7915,2872
1582030649,471.711,-9.15293,41.9695,177.913,-1.47217,88.7915,2872
1582030649,471.711,-9.15293,41.9695,177.913,-1.47217,88.7915,2872
1582030649,471.711,-9.15293,41.9695,177.913,-1.47217,88.7915,2872
1582030650,471.711,-9.15293,41.9695,177.913,-1.47217,88.7915,2872
1582030650,471.711,-9.15293,41.9695,177.913,-1.47217,88.7915,2872
1582030650,471.711,-9.15293,41.9695,177.913,-1.47217,88.7915,2872
1582030650,471.711,-9.15293,41.9695,177.913,-1.47217,88.7915,2872
1582030650,471.711,-9.15293,41.9695,177.913,-1.47217,88.7915,2872
1582030650,471.711,-9.15293,41.9695,177.913,-1.47217,88.7915,2872
1582030650,471.711,-9.15293,41.9695,177.913,-1.47217,88.7915,2872
1582030650,471.711,-9.15293,41.9695,177.913,-1.47217,88.7915,2872
1582030650,471.711,-9.15293,41.9695,177.913,-1.47217,88.7915,2872
1582030650,471.711,-9.15293,41.9695,177.913,-1.47217,88.7915,2872
1582030650,471.711,-9.15293,41.9695,177.913,-1.4502,88.7915,2872
1582030650,471.711,-9.15293,41.9695,177.913,-1.4502,88.7915,2872
1582030650,471.711,-9.15293,41.9695,177.913,-1.47217,88.7915,2872
1582030650,471.711,-9.15293,41.9695,177.913,-1.47217,88.7915,2872
1582030650,471.711,-9.15293,41.9695,177.913,-1.47217,88.7915,2872
1582030650,471.711,-9.15293,41.9695,177.913,-1.47217,88.7915,2872
1582030650,471.711,-9.15293,41.9695,177.913,-1.47217,88.7915,2872
1582030650,471.711,-9.15293,41.9695,177.913,-1.47217,88.7915,2872
1582030650,471.711,-9.15293,41.9695,177.935,-1.47217,88.7915,2872
1582030650,471.711,-9.15293,41.9695,177.935,-1.47217,88.7915,2872
1582030650,471.711,-9.15293,41.9695,177.913,-1.47217,88.7915,2872
1582030650,471.711,-9.15293,41.9695,177.913,-1.47217,88.7915,2872
1582030650,471.711,-9.15293,41.9695,177.913,-1.47217,88.7915,2872
1582030650,471.711,-9.15293,41.9695,177.913,-1.47217,88.7915,2872
1582030650,471.711,-9.15293,41.9695,177.913,-1.47217,88.7915,2872
1582030650,471.711,-9.15293,41.9695,177.913,-1.47217,88.7915,2872
1582030650,471.711,-9.15293,41.9695,177.913,-1.47217,88.7915,2872
1582030650,471.711,-9.15293,41.9695,177.913,-1.47217,88.7915,2872
1582030650,471.711,-9.15293,41.9695,177.913,-1.47217,88.7915,2872
1582030650,471.711,-9.15293,41.9695,177.913,-1.47217,88.7915,2872
1582030650,471.711,-9.15293,41.9695,177.913,-1.47217,88.7915,2872
1582030650,471.711,-9.15293,41.9695,177.913,-1.47217,88.7915,2872
1582030650,471.711,-9.15293,41.9695,177.913,-1.47217,88.7915,2872
1582030650,471.711,-9.15293,41.9695,177.913,-1.47217,88.7915,2872
1582030650,471.711,-9.15293,41.9695,177.913,-1.47217,88.7915,2872
1582030650,471.711,-9.15293,41.9695,177.913,-1.47217,88.7915,2872
1582030650,471.711,-9.15293,41.9695,177.913,-1.47217,88.7915,2872
1582030650,471.711,-9.15293,41.9695,177.913,-1.47217,88.7915,2872
1582030650,471.711,-9.15293,41.9695,177.913,-1.47217,88.7915,2872
1582030650,471.711,-9.15293,41.9695,177.935,-1.47217,88.7915,2872
1582030650,471.711,-9.15293,41.9695,177.935,-1.47217,88.7915,2872
1582030650,471.711,-9.15293,41.9695,177.935,-1.47217,88.7915,2872
1582030650,471.711,-9.15293,41.9695,177.935,-1.47217,88.7915,2872
1582030650,471.711,-9.15293,41.9695,177.913,-1.47217,88.7915,2872
1582030650,471.711,-9.15293,41.9695,177.913,-1.47217,88.7915,2872
1582030650,471.711,-9.15293,41.9695,177.913,-1.47217,88.7915,2872
1582030650,471.711,-9.15293,41.9695,177.913,-1.47217,88.7915,2872
1582030650,471.711,-9.15293,41.9695,177.913,-1.47217,88.7915,2872
1582030650,471.711,-9.15293,41.9695,177.913,-1.47217,88.7915,2872
1582030650,471.711,-9.15293,41.9695,177.913,-1.47217,88.7915,2872
1582030650,471.711,-9.15293,41.9695,177.913,-1.47217,88.7915,2872
1582030650,471.711,-9.15293,41.9695,177.913,-1.47217,88.7915,2872
1582030650,471.711,-9.15293,41.9695,177.913,-1.47217,88.7915,2872
1582030650,471.711,-9.15293,41.9695,177.913,-1.47217,88.7915,2872
1582030650,471.711,-9.15293,41.9695,177.913,-1.47217,88.7915,2872
1582030650,471.711,-9.15293,41.9695,177.913,-1.47217,88.7915,2872
1582030650,471.711,-9.15293,41.9695,177.913,-1.47217,88.7915,2872
1582030650,471.711,-9.15293,41.9695,177.913,-1.47217,88.7915,2872
1582030650,471.711,-9.15293,41.9695,177.913,-1.47217,88.7915,2872
1582030650,471.711,-9.15293,41.9695,177.913,-1.47217,88.7915,2872
1582030650,471.711,-9.15293,41.9695,177.913,-1.47217,88.7915,2872
1582030650,471.711,-9.15293,41.9695,177.913,-1.47217,88.7915,2872
1582030650,471.711,-9.15293,41.9695,177.913,-1.47217,88.7915,2872
1582030650,471.711,-9.15293,41.9695,177.913,-1.47217,88.7915,2872
1582030650,471.711,-9.15293,41.9695,177.913,-1.47217,88.7915,2872
1582030650,471.711,-9.15293,41.9695,177.913,-1.47217,88.7915,2872
1582030650,471.711,-9.15293,41.9695,177.913,-1.47217,88.7915,2872
1582030650,471.711,-9.15293,41.9695,177.913,-1.47217,88.7915,2872
1582030650,471.711,-9.15293,41.9695,177.913,-1.47217,88.7915,2872
1582030650,471.711,-9.15293,41.9695,177.913,-1.47217,88.7915,2872
1582030650,471.711,-9.15293,41.9695,177.913,-1.47217,88.7915,2872
1582030650,471.711,-9.15293,41.9695,177.913,-1.47217,88.7915,2872
1582030650,471.711,-9.15293,41.9695,177.913,-1.47217,88.7915,2872
1582030650,471.711,-9.15293,41.9695,177.913,-1.47217,88.7915,2872
1582030650,471.711,-9.15293,41.9695,177.913,-1.47217,88.7915,2872
1582030650,471.711,-9.15293,41.9695,177.913,-1.47217,88.7915,2872
1582030650,471.711,-9.15293,41.9695,177.913,-1.47217,88.7915,2872
1582030650,471.711,-9.15293,41.9695,177.913,-1.47217,88.7915,2872
1582030650,471.711,-9.15293,41.9695,177.913,-1.47217,88.7915,2872
1582030650,471.711,-9.15293,41.9695,177.913,-1.47217,88.7915,2872
1582030650,471.711,-9.15293,41.9695,177.913,-1.47217,88.7915,2872
1582030650,471.711,-9.15293,41.9695,177.913,-1.47217,88.7915,2872
1582030650,471.711,-9.15293,41.9695,177.913,-1.47217,88.7915,2872
1582030650,471.711,-9.15293,41.9695,177.913,-1.47217,88.7915,2872
1582030650,471.711,-9.15293,41.9695,177.913,-1.47217,88.7915,2872
1582030650,471.711,-9.15293,41.9695,177.913,-1.47217,88.7915,2872
1582030650,471.711,-9.15293,41.9695,177.913,-1.47217,88.7915,2872
1582030650,471.711,-9.15293,41.9695,177.913,-1.47217,88.7915,2872
1582030650,471.711,-9.15293,41.9695,177.913,-1.47217,88.7915,2872
1582030650,471.711,-9.15293,41.9695,177.913,-1.47217,88.7915,2872
1582030650,471.711,-9.15293,41.9695,177.913,-1.47217,88.7915,2872
1582030650,471.711,-9.15293,41.9695,177.913,-1.47217,88.7915,2872
1582030650,471.711,-9.15293,41.9695,177.913,-1.47217,88.7915,2872
1582030650,471.711,-9.15293,41.9695,177.913,-1.47217,88.7915,2872
1582030650,471.711,-9.15293,41.9695,177.913,-1.47217,88.7915,2872
1582030650,471.711,-9.15293,41.9695,177.913,-1.47217,88.7915,2872
1582030650,471.711,-9.15293,41.9695,177.913,-1.47217,88.7915,2872
1582030650,471.711,-9.15293,41.9695,177.913,-1.47217,88.7915,2872
1582030650,471.711,-9.15293,41.9695,177.913,-1.47217,88.7915,2872
1582030650,471.711,-9.15293,41.9695,177.913,-1.47217,88.7915,2872
1582030651,471.711,-9.15293,41.9695,177.913,-1.47217,88.7915,2872
1582030651,471.711,-9.15293,41.9695,177.913,-1.47217,88.7915,2872
1582030651,471.711,-9.15293,41.9695,177.913,-1.47217,88.7915,2872
1582030651,471.711,-9.15293,41.9695,177.913,-1.47217,88.7915,2872
1582030651,471.711,-9.15293,41.9695,177.913,-1.47217,88.7915,2872
1582030651,471.711,-9.15293,41.9695,177.913,-1.47217,88.7915,2872
1582030651,471.711,-9.15293,41.9695,177.913,-1.47217,88.7915,2872
1582030651,471.711,-9.15293,41.9695,177.913,-1.47217,88.7915,2872
1582030651,471.711,-9.15293,41.9695,177.913,-1.47217,88.7915,2872
1582030651,471.711,-9.15293,41.9695,177.913,-1.47217,88.7915,2872
1582030651,471.711,-9.15293,41.9695,177.913,-1.47217,88.7915,2872
1582030651,471.711,-9.15293,41.9695,177.913,-1.47217,88.7915,2872
1582030651,471.711,-9.15293,41.9695,177.913,-1.47217,88.7915,2872
1582030651,471.711,-9.15293,41.9695,177.913,-1.47217,88.7915,2876
1582030651,471.711,-9.15293,41.9695,177.913,-1.47217,88.7915,2876
1582030651,471.711,-9.15293,41.9695,177.913,-1.47217,88.7915,2876
1582030651,471.711,-9.15293,41.9695,177.913,-1.47217,88.7915,2876
1582030651,471.711,-9.15293,41.9695,177.913,-1.47217,88.7915,2876
1582030651,471.711,-9.15293,41.9695,177.913,-1.47217,88.7915,2876
1582030651,471.711,-9.15293,41.9695,177.913,-1.47217,88.7915,2876
1582030651,471.711,-9.15293,41.9695,177.935,-1.47217,88.7915,2876
1582030651,471.711,-9.15293,41.9695,177.935,-1.47217,88.7915,2876
1582030651,471.711,-9.15293,41.9695,177.935,-1.47217,88.7915,2876
1582030651,471.711,-9.15293,41.9695,177.935,-1.47217,88.7915,2876
1582030651,471.711,-9.15293,41.9695,177.935,-1.47217,88.7915,2876
1582030651,471.711,-9.15293,41.9695,177.935,-1.47217,88.7915,2876
1582030651,471.711,-9.15293,41.9695,177.935,-1.47217,88.7915,2876
1582030651,471.711,-9.15293,41.9695,177.913,-1.47217,88.7915,2876
1582030651,471.711,-9.15293,41.9695,177.913,-1.47217,88.7915,2876
1582030651,471.711,-9.15293,41.9695,177.913,-1.47217,88.7915,2876
1582030651,471.711,-9.15293,41.9695,177.913,-1.47217,88.7915,2876
1582030651,471.711,-9.15293,41.9695,177.913,-1.4502,88.7915,2876
1582030651,471.711,-9.15293,41.9695,177.913,-1.4502,88.7915,2876
1582030651,471.711,-9.15293,41.9695,177.913,-1.4502,88.7915,2876
1582030651,471.711,-9.15293,41.9695,177.913,-1.4502,88.7915,2876
1582030651,471.711,-9.15293,41.9695,177.913,-1.4502,88.7915,2876
1582030651,471.711,-9.15293,41.9695,177.913,-1.4502,88.7915,2876
1582030651,471.711,-9.15293,41.9695,177.913,-1.4502,88.7915,2876
1582030651,471.711,-9.15293,41.9695,177.913,-1.4502,88.7915,2872
1582030651,471.711,-9.15293,41.9695,177.913,-1.4502,88.7915,2872
1582030651,471.711,-9.15293,41.9695,177.913,-1.4502,88.7915,2872
1582030651,471.711,-9.15293,41.9695,177.913,-1.4502,88.7915,2872
1582030651,471.711,-9.15293,41.9695,177.913,-1.4502,88.7915,2872
1582030651,471.711,-9.15293,41.9695,177.913,-1.4502,88.7915,2872
1582030651,471.711,-9.15293,41.9695,177.913,-1.4502,88.7915,2872
1582030651,471.711,-9.15293,41.9695,177.913,-1.4502,88.7915,2872
1582030651,471.711,-9.15293,41.9695,177.913,-1.4502,88.7915,2872
1582030651,471.711,-9.15293,41.9695,177.913,-1.4502,88.7915,2872
1582030651,471.711,-9.15293,41.9695,177.913,-1.4502,88.7915,2872
1582030651,471.711,-9.15293,41.9695,177.913,-1.4502,88.7915,2872
1582030651,471.711,-9.15293,41.9695,177.913,-1.4502,88.7915,2872
1582030651,471.711,-9.15293,41.9695,177.913,-1.4502,88.7915,2872
1582030651,471.711,-9.15293,41.9695,177.913,-1.4502,88.7915,2872
1582030651,471.711,-9.15293,41.9695,177.913,-1.4502,88.7915,2872
1582030651,471.711,-9.15293,41.9695,177.913,-1.4502,88.7915,2872
1582030651,471.711,-9.15293,41.9695,177.913,-1.4502,88.7915,2872
1582030651,471.711,-9.15293,41.9695,177.913,-1.47217,88.7915,2872
1582030651,471.711,-9.15293,41.9695,177.913,-1.47217,88.7915,2872
1582030651,471.711,-9.15293,41.9695,177.913,-1.47217,88.7915,2872
1582030651,471.711,-9.15293,41.9695,177.913,-1.47217,88.7915,2872
1582030651,471.711,-9.15293,41.9695,177.913,-1.47217,88.7915,2872
1582030651,471.711,-9.15293,41.9695,177.913,-1.47217,88.7915,2872
1582030651,471.711,-9.15293,41.9695,177.913,-1.47217,88.7915,2872
1582030651,471.711,-9.15293,41.9695,177.913,-1.47217,88.7915,2872
1582030651,471.711,-9.15293,41.9695,177.913,-1.47217,88.7915,2872
1582030651,471.711,-9.15293,41.9695,177.913,-1.47217,88.7915,2872
1582030651,471.711,-9.15293,41.9695,177.913,-1.47217,88.7915,2872
1582030651,471.711,-9.15293,41.9695,177.913,-1.47217,88.7915,2872
1582030651,471.711,-9.15293,41.9695,177.913,-1.47217,88.7915,2872
1582030651,471.711,-9.15293,41.9695,177.913,-1.47217,88.7915,2872
1582030651,471.711,-9.15293,41.9695,177.913,-1.4502,88.7915,2872
1582030651,471.711,-9.15293,41.9695,177.913,-1.4502,88.7915,2872
1582030651,471.711,-9.15293,41.9695,177.913,-1.4502,88.7915,2872
1582030651,471.711,-9.15293,41.9695,177.913,-1.4502,88.7915,2872
1582030651,471.711,-9.15293,41.9695,177.913,-1.4502,88.7915,2872
1582030651,471.711,-9.15293,41.9695,177.913,-1.4502,88.7915,2872
1582030651,471.711,-9.15293,41.9695,177.913,-1.4502,88.7915,2872
1582030651,471.711,-9.15293,41.9695,177.913,-1.4502,88.7915,2872
1582030651,471.711,-9.15293,41.9695,177.913,-1.4502,88.7915,2872
1582030651,471.711,-9.15293,41.9695,177.913,-1.4502,88.7915,2872
1582030651,471.711,-9.15293,41.9695,177.913,-1.4502,88.7915,2872
1582030651,471.711,-9.15293,41.9695,177.913,-1.4502,88.7915,2872
1582030651,471.711,-9.15293,41.9695,177.913,-1.4502,88.7915,2872
1582030651,471.711,-9.15293,41.9695,177.935,-1.4502,88.7915,2876
1582030651,471.711,-9.15293,41.9695,177.935,-1.47217,88.7915,2876
1582030651,471.711,-9.15293,41.9695,177.935,-1.47217,88.7915,2876
1582030651,471.711,-9.15293,41.9695,177.935,-1.47217,88.7915,2876
1582030651,471.711,-9.15293,41.9695,177.935,-1.47217,88.7915,2876
1582030651,471.711,-9.15293,41.9695,177.935,-1.47217,88.7915,2876
1582030651,471.711,-9.15293,41.9695,177.935,-1.47217,88.7915,2876
1582030651,471.711,-9.15293,41.9695,177.935,-1.47217,88.7915,2876
1582030651,471.711,-9.15293,41.9695,177.935,-1.47217,88.7915,2876
1582030651,471.711,-9.15293,41.9695,177.935,-1.47217,88.7915,2876
1582030651,471.711,-9.15293,41.9695,177.935,-1.47217,88.7915,2876
1582030651,471.711,-9.15293,41.9695,177.913,-1.47217,88.7915,2876
1582030651,471.711,-9.15293,41.9695,177.913,-1.47217,88.7915,2876
1582030651,471.711,-9.15293,41.9695,177.913,-1.47217,88.7915,2876
1582030651,471.711,-9.15293,41.9695,177.913,-1.47217,88.7915,2876
1582030651,471.711,-9.15293,41.9695,177.913,-1.47217,88.7915,2876
1582030651,471.711,-9.15293,41.9695,177.913,-1.47217,88.7915,2876
1582030652,471.711,-9.15293,41.9695,177.913,-1.47217,88.7915,2876
1582030652,471.711,-9.15293,41.9695,177.913,-1.47217,88.7915,2876
1582030652,471.711,-9.15293,41.9695,177.913,-1.47217,88.7915,2876
1582030652,471.711,-9.15293,41.9695,177.913,-1.47217,88.7915,2876
1582030652,471.711,-9.15293,41.9695,177.913,-1.47217,88.7915,2876
1582030652,471.711,-9.15293,41.9695,177.913,-1.47217,88.7915,2876
1582030652,471.711,-9.15293,41.9695,177.913,-1.47217,88.7915,2876
1582030652,471.711,-9.15293,41.9695,177.913,-1.47217,88.7915,2876
1582030652,471.711,-9.15293,41.9695,177.913,-1.47217,88.7915,2876
1582030652,471.711,-9.15293,41.9695,177.913,-1.47217,88.7915,2876
1582030652,471.711,-9.15293,41.9695,177.913,-1.4502,88.7915,2876
1582030652,471.711,-9.15293,41.9695,177.913,-1.4502,88.7915,2876
1582030652,471.711,-9.15293,41.9695,177.913,-1.4502,88.7915,2876
1582030652,471.711,-9.15293,41.9695,177.913,-1.4502,88.7915,2876
1582030652,471.711,-9.15293,41.9695,177.913,-1.4502,88.7915,2876
1582030652,471.711,-9.15293,41.9695,177.913,-1.4502,88.7915,2876
1582030652,471.711,-9.15293,41.9695,177.913,-1.4502,88.7915,2876
1582030652,471.711,-9.15293,41.9695,177.935,-1.4502,88.7915,2876
1582030652,471.711,-9.15293,41.9695,177.935,-1.4502,88.7915,2876
1582030652,471.711,-9.15293,41.9695,177.935,-1.4502,88.7915,2876
1582030652,471.711,-9.15293,41.9695,177.935,-1.4502,88.7915,2876
1582030652,471.711,-9.15293,41.9695,177.935,-1.4502,88.7915,2876
1582030652,471.711,-9.15293,41.9695,177.935,-1.4502,88.7915,2876
1582030652,471.711,-9.15293,41.9695,177.935,-1.4502,88.7915,2876
1582030658,471.711,-9.15293,41.9695,177.913,-1.4502,88.7915,2872
1582030658,471.711,-9.15293,41.9695,177.913,-1.4502,88.7915,2872
1582030658,471.711,-9.15293,41.9695,177.913,-1.4502,88.7915,2872
1582030658,471.711,-9.15293,41.9695,177.913,-1.4502,88.7915,2872
1582030658,471.711,-9.15293,41.9695,177.913,-1.4502,88.7915,2872
1582030658,471.711,-9.15293,41.9695,177.913,-1.4502,88.7915,2872
1582030659,471.711,-9.15293,41.9695,177.913,-1.47217,88.7915,2872
1582030659,471.711,-9.15293,41.9695,177.913,-1.47217,88.7915,2872
1582030659,471.711,-9.15293,41.9695,177.913,-1.47217,88.7915,2872
1582030659,471.711,-9.15293,41.9695,177.913,-1.47217,88.7915,2872
1582030659,471.711,-9.15293,41.9695,177.913,-1.47217,88.7915,2872
1582030659,471.711,-9.15293,41.9695,177.913,-1.47217,88.7915,2872
1582030659,471.711,-9.15293,41.9695,177.913,-1.47217,88.7915,2872
1582030659,471.711,-9.15293,41.9695,177.913,-1.4502,88.7915,2872
1582030659,471.711,-9.15293,41.9695,177.913,-1.4502,88.7915,2872
1582030659,471.711,-9.15293,41.9695,177.913,-1.4502,88.7915,2872
1582030659,471.711,-9.15293,41.9695,177.913,-1.4502,88.7915,2872
1582030659,471.711,-9.15293,41.9695,177.913,-1.4502,88.7915,2872
1582030659,471.711,-9.15293,41.9695,177.913,-1.4502,88.7915,2872
1582030659,471.711,-9.15293,41.9695,177.913,-1.47217,88.7915,2872
1582030659,471.711,-9.15293,41.9695,177.913,-1.47217,88.7915,2872
1582030659,471.711,-9.15293,41.9695,177.913,-1.47217,88.7915,2872
1582030659,471.711,-9.15293,41.9695,177.913,-1.47217,88.7915,2872
1582030659,471.711,-9.15293,41.9695,177.913,-1.47217,88.7915,2872
1582030659,471.711,-9.15293,41.9695,177.913,-1.47217,88.7915,2872
1582030659,471.711,-9.15293,41.9695,177.913,-1.47217,88.7915,2872
1582030659,471.711,-9.15293,41.9695,177.913,-1.47217,88.7915,2872
1582030659,471.711,-9.15293,41.9695,177.913,-1.47217,88.7915,2872
1582030659,471.711,-9.15293,41.9695,177.913,-1.47217,88.7915,2872
1582030659,471.711,-9.15293,41.9695,177.913,-1.47217,88.7915,2872
1582030659,471.711,-9.15293,41.9695,177.913,-1.47217,88.7915,2872
1582030659,471.711,-9.15293,41.9695,177.913,-1.47217,88.7915,2872
1582030659,471.711,-9.15293,41.9695,177.913,-1.47217,88.7915,2872
1582030659,471.711,-9.15293,41.9695,177.913,-1.47217,88.7915,2872
1582030659,471.711,-9.15293,41.9695,177.913,-1.47217,88.7915,2872
1582030659,471.711,-9.15293,41.9695,177.913,-1.47217,88.7915,2872
1582030659,471.711,-9.15293,41.9695,177.913,-1.47217,88.7915,2872
1582030659,471.711,-9.15293,41.9695,177.913,-1.4502,88.7915,2872
1582030659,471.711,-9.15293,41.9695,177.913,-1.4502,88.7915,2872
1582030659,471.711,-9.15293,41.9695,177.913,-1.4502,88.7915,2872
1582030659,471.711,-9.15293,41.9695,177.913,-1.4502,88.7915,2872
1582030659,471.711,-9.15293,41.9695,177.913,-1.4502,88.7915,2872
1582030659,471.711,-9.15293,41.9695,177.913,-1.47217,88.7915,2872
1582030659,471.711,-9.15293,41.9695,177.913,-1.47217,88.7915,2872
1582030659,471.711,-9.15293,41.9695,177.913,-1.47217,88.7915,2872
1582030659,471.711,-9.15293,41.9695,177.913,-1.47217,88.7915,2872
1582030659,471.711,-9.15293,41.9695,177.913,-1.47217,88.7915,2872
1582030659,471.711,-9.15293,41.9695,177.913,-1.47217,88.7915,2872
1582030659,471.711,-9.15293,41.9695,177.913,-1.47217,88.7915,2872
1582030659,471.711,-9.15293,41.9695,177.913,-1.47217,88.7915,2872
1582030659,471.711,-9.15293,41.9695,177.935,-1.47217,88.7915,2872
1582030659,471.711,-9.15293,41.9695,177.935,-1.47217,88.7915,2872
1582030659,471.711,-9.15293,41.9695,177.913,-1.4502,88.7915,2872
1582030659,471.711,-9.15293,41.9695,177.913,-1.4502,88.7915,2872
1582030659,471.711,-9.15293,41.9695,177.913,-1.4502,88.7915,2872
1582030659,471.711,-9.15293,41.9695,177.913,-1.4502,88.7915,2872
1582030659,471.711,-9.15293,41.9695,177.913,-1.4502,88.7915,2872
1582030659,471.711,-9.15293,41.9695,177.913,-1.4502,88.7915,2872
1582030659,471.711,-9.15293,41.9695,177.913,-1.4502,88.7915,2872
1582030659,471.711,-9.15293,41.9695,177.913,-1.4502,88.7915,2872
1582030659,471.711,-9.15293,41.9695,177.913,-1.4502,88.7915,2872
1582030659,471.711,-9.15293,41.9695,177.935,-1.4502,88.7915,2872
1582030659,471.711,-9.15293,41.9695,177.935,-1.4502,88.7915,2872
1582030659,471.711,-9.15293,41.9695,177.935,-1.47217,88.7915,2872
1582030659,471.711,-9.15293,41.9695,177.935,-1.47217,88.7915,2872
1582030659,471.711,-9.15293,41.9695,177.935,-1.47217,88.7915,2872
1582030659,471.711,-9.15293,41.9695,177.935,-1.47217,88.7915,2872
1582030659,471.711,-9.15293,41.9695,177.935,-1.47217,88.7915,2872
1582030659,471.711,-9.15293,41.9695,177.935,-1.47217,88.7915,2872
1582030659,471.711,-9.15293,41.9695,177.935,-1.47217,88.7915,2872
1582030659,471.711,-9.15293,41.9695,177.935,-1.47217,88.7915,2872
1582030659,471.711,-9.15293,41.9695,177.935,-1.47217,88.7915,2872
1582030659,471.711,-9.15293,41.9695,177.935,-1.47217,88.7915,2872
1582030659,471.711,-9.15293,41.9695,177.935,-1.47217,88.7915,2872
1582030659,471.711,-9.15293,41.9695,177.935,-1.47217,88.7915,2872
1582030659,471.711,-9.15293,41.9695,177.935,-1.47217,88.7915,2872
1582030659,471.711,-9.15293,41.9695,177.935,-1.47217,88.7915,2872
1582030659,471.711,-9.15293,41.9695,177.935,-1.47217,88.7915,2872
1582030659,471.711,-9.15293,41.9695,177.935,-1.47217,88.7915,2872
1582030659,471.711,-9.15293,41.9695,177.935,-1.47217,88.7915,2872
1582030659,471.711,-9.15293,41.9695,177.935,-1.47217,88.7915,2872
1582030659,471.711,-9.15293,41.9695,177.935,-1.47217,88.7915,2872
1582030659,471.711,-9.15293,41.9695,177.935,-1.47217,88.7915,2872
1582030659,471.711,-9.15293,41.9695,177.935,-1.47217,88.7915,2872
1582030659,471.711,-9.15293,41.9695,177.935,-1.47217,88.7915,2872
1582030659,471.711,-9.15293,41.9695,177.935,-1.47217,88.7915,2872
1582030659,471.711,-9.15293,41.9695,177.935,-1.47217,88.7915,2872
1582030659,471.711,-9.15293,41.9695,177.935,-1.47217,88.7915,2872
1582030659,471.711,-9.15293,41.9695,177.935,-1.47217,88.7915,2872
1582030659,471.711,-9.15293,41.9695,177.935,-1.47217,88.7915,2872
1582030659,471.711,-9.15293,41.9695,177.913,-1.47217,88.7915,2872
1582030659,471.711,-9.15293,41.9695,177.913,-1.47217,88.7915,2872
1582030659,471.711,-9.15293,41.9695,177.913,-1.47217,88.7915,2872
1582030659,471.711,-9.15293,41.9695,177.913,-1.47217,88.7915,2872
1582030659,471.711,-9.15293,41.9695,177.913,-1.47217,88.7915,2872
1582030659,471.711,-9.15293,41.9695,177.913,-1.47217,88.7915,2872
1582030659,471.711,-9.15293,41.9695,177.913,-1.47217,88.7915,2872
1582030659,471.711,-9.15293,41.9695,177.913,-1.47217,88.7915,2872
1582030659,471.711,-9.15293,41.9695,177.913,-1.47217,88.7915,2872
1582030659,471.711,-9.15293,41.9695,177.913,-1.47217,88.7915,2872
1582030659,471.711,-9.15293,41.9695,177.913,-1.4502,88.7915,2872
1582030659,471.711,-9.15293,41.9695,177.913,-1.4502,88.7915,2872
1582030659,471.711,-9.15293,41.9695,177.913,-1.4502,88.7915,2872
1582030659,471.711,-9.15293,41.9695,177.913,-1.4502,88.7915,2872
1582030659,471.711,-9.15293,41.9695,177.913,-1.4502,88.7915,2872
1582030659,471.711,-9.15293,41.9695,177.913,-1.4502,88.7915,2872
1582030660,471.711,-9.15293,41.9695,177.913,-1.47217,88.7915,2876
1582030660,471.711,-9.15293,41.9695,177.913,-1.47217,88.7915,2876
1582030660,471.711,-9.15293,41.9695,177.913,-1.47217,88.7915,2876
1582030660,471.711,-9.15293,41.9695,177.913,-1.47217,88.7915,2876
1582030660,471.711,-9.15293,41.9695,177.913,-1.47217,88.7915,2876
1582030660,471.711,-9.15293,41.9695,177.913,-1.47217,88.7915,2876
1582030660,471.711,-9.15293,41.9695,177.913,-1.47217,88.7915,2876
1582030660,471.711,-9.15293,41.9695,177.913,-1.47217,88.7915,2876
1582030660,471.711,-9.15293,41.9695,177.913,-1.47217,88.7915,2872
1582030660,471.711,-9.15293,41.9695,177.913,-1.47217,88.7915,2872
1582030660,471.711,-9.15293,41.9695,177.913,-1.47217,88.7915,2872
1582030660,471.711,-9.15293,41.9695,177.913,-1.47217,88.7915,2872
1582030660,471.711,-9.15293,41.9695,177.913,-1.47217,88.7915,2872
1582030660,471.711,-9.15293,41.9695,177.913,-1.47217,88.7915,2872
1582030660,471.711,-9.15293,41.9695,177.913,-1.47217,88.7915,2872
1582030660,471.711,-9.15293,41.9695,177.913,-1.47217,88.7915,2872
1582030660,471.711,-9.15293,41.9695,177.913,-1.47217,88.7915,2872
1582030660,471.711,-9.15293,41.9695,177.913,-1.4502,88.7915,2872
1582030660,471.711,-9.15293,41.9695,177.913,-1.4502,88.7915,2872
1582030660,471.711,-9.15293,41.9695,177.913,-1.4502,88.7915,2872
1582030660,471.711,-9.15293,41.9695,177.913,-1.4502,88.7915,2872
1582030660,471.711,-9.15293,41.9695,177.913,-1.4502,88.7915,2872
1582030660,471.711,-9.15293,41.9695,177.913,-1.4502,88.7915,2872
1582030660,471.711,-9.15293,41.9695,177.913,-1.4502,88.7915,2872
1582030660,471.711,-9.15293,41.9695,177.913,-1.4502,88.7915,2872
1582030660,471.711,-9.15293,41.9695,177.913,-1.4502,88.7915,2872
1582030660,471.711,-9.15293,41.9695,177.913,-1.4502,88.7915,2872
1582030660,471.711,-9.15293,41.9695,177.913,-1.4502,88.7915,2872
1582030660,471.711,-9.15293,41.9695,177.913,-1.4502,88.7915,2872
1582030660,471.711,-9.15293,41.9695,177.913,-1.4502,88.7915,2872
1582030660,471.711,-9.15293,41.9695,177.913,-1.4502,88.7915,2872
1582030660,471.711,-9.15293,41.9695,177.913,-1.4502,88.7915,2872
1582030660,471.711,-9.15293,41.9695,177.913,-1.4502,88.7915,2872
1582030660,471.711,-9.15293,41.9695,177.913,-1.4502,88.7915,2872
1582030660,471.711,-9.15293,41.9695,177.913,-1.4502,88.7915,2872
1582030660,471.711,-9.15293,41.9695,177.913,-1.4502,88.7915,2872
1582030660,471.711,-9.15293,41.9695,177.913,-1.4502,88.7915,2872
1582030660,471.711,-9.15293,41.9695,177.913,-1.4502,88.7915,2872
1582030660,471.711,-9.15293,41.9695,177.913,-1.4502,88.7915,2872
1582030660,471.711,-9.15293,41.9695,177.913,-1.4502,88.7915,2872
1582030660,471.711,-9.15293,41.9695,177.913,-1.4502,88.7915,2872
1582030660,471.711,-9.15293,41.9695,177.913,-1.4502,88.7915,2872
1582030660,471.711,-9.15293,41.9695,177.913,-1.4502,88.7915,2872
1582030660,471.711,-9.15293,41.9695,177.913,-1.4502,88.7915,2872
1582030660,471.711,-9.15293,41.9695,177.913,-1.4502,88.7915,2872
1582030660,471.711,-9.15293,41.9695,177.913,-1.47217,88.7915,2872
1582030660,471.711,-9.15293,41.9695,177.913,-1.47217,88.7915,2872
1582030660,471.711,-9.15293,41.9695,177.913,-1.47217,88.7915,2872
1582030660,471.711,-9.15293,41.9695,177.913,-1.47217,88.7915,2872
1582030660,471.711,-9.15293,41.9695,177.913,-1.47217,88.7915,2872
1582030660,471.711,-9.15293,41.9695,177.913,-1.47217,88.7915,2872
1582030660,471.711,-9.15293,41.9695,177.913,-1.47217,88.7915,2872
1582030660,471.711,-9.15293,41.9695,177.913,-1.47217,88.7915,2872
1582030660,471.711,-9.15293,41.9695,177.913,-1.47217,88.7915,2872
1582030660,471.711,-9.15293,41.9695,177.913,-1.47217,88.7915,2872
1582030660,471.711,-9.15293,41.9695,177.913,-1.47217,88.7915,2872
1582030660,471.711,-9.15293,41.9695,177.913,-1.47217,88.7915,2876
1582030660,471.711,-9.15293,41.9695,177.913,-1.47217,88.7915,2876
1582030660,471.711,-9.15293,41.9695,177.913,-1.47217,88.7915,2876
1582030660,471.711,-9.15293,41.9695,177.913,-1.47217,88.7915,2876
1582030660,471.711,-9.15293,41.9695,177.913,-1.47217,88.7915,2876
1582030660,471.711,-9.15293,41.9695,177.913,-1.47217,88.7915,2876
1582030660,471.711,-9.15293,41.9695,177.913,-1.47217,88.7915,2876
1582030660,471.711,-9.15293,41.9695,177.913,-1.47217,88.7915,2876
1582030660,471.711,-9.15293,41.9695,177.913,-1.47217,88.7915,2876
1582030660,471.711,-9.15293,41.9695,177.913,-1.47217,88.7915,2876
1582030660,471.711,-9.15293,41.9695,177.913,-1.47217,88.7915,2876
1582030660,471.711,-9.15293,41.9695,177.913,-1.4502,88.7915,2876
1582030660,471.711,-9.15293,41.9695,177.913,-1.4502,88.7915,2876
1582030660,471.711,-9.15293,41.9695,177.913,-1.4502,88.7915,2876
1582030660,471.711,-9.15293,41.9695,177.913,-1.4502,88.7915,2876
1582030660,471.711,-9.15293,41.9695,177.913,-1.4502,88.7915,2876
1582030660,471.711,-9.15293,41.9695,177.913,-1.4502,88.7915,2876
1582030660,471.711,-9.15293,41.9695,177.913,-1.4502,88.7915,2876
1582030660,471.711,-9.15293,41.9695,177.913,-1.4502,88.7915,2876
1582030660,471.711,-9.15293,41.9695,177.913,-1.4502,88.7915,2876
1582030660,471.711,-9.15293,41.9695,177.913,-1.4502,88.7915,2872
1582030660,471.711,-9.15293,41.9695,177.913,-1.4502,88.7915,2872
1582030660,471.711,-9.15293,41.9695,177.913,-1.4502,88.7915,2872
1582030660,471.711,-9.15293,41.9695,177.913,-1.4502,88.7915,2872
1582030660,471.711,-9.15293,41.9695,177.913,-1.47217,88.7915,2872
1582030660,471.711,-9.15293,41.9695,177.913,-1.47217,88.7915,2872
1582030660,471.711,-9.15293,41.9695,177.913,-1.47217,88.7915,2872
1582030660,471.711,-9.15293,41.9695,177.913,-1.47217,88.7915,2872
1582030660,471.711,-9.15293,41.9695,177.913,-1.4502,88.7915,2872
1582030660,471.711,-9.15293,41.9695,177.913,-1.4502,88.7915,2872
1582030660,471.711,-9.15293,41.9695,177.913,-1.4502,88.7915,2872
1582030660,471.711,-9.15293,41.9695,177.913,-1.4502,88.7915,2872
1582030660,471.711,-9.15293,41.9695,177.913,-1.4502,88.7915,2876
1582030660,471.711,-9.15293,41.9695,177.913,-1.4502,88.7915,2876
1582030660,471.711,-9.15293,41.9695,177.913,-1.4502,88.7915,2876
1582030660,471.711,-9.15293,41.9695,177.913,-1.4502,88.7915,2876
1582030660,471.711,-9.15293,41.9695,177.913,-1.4502,88.7915,2876
1582030660,471.711,-9.15293,41.9695,177.913,-1.4502,88.7915,2876
1582030660,471.711,-9.15293,41.9695,177.913,-1.4502,88.7915,2876
1582030660,471.711,-9.15293,41.9695,177.935,-1.4502,88.7915,2876
1582030660,471.711,-9.15293,41.9695,177.913,-1.4502,88.7915,2876
1582030660,471.711,-9.15293,41.9695,177.935,-1.4502,88.7915,2876
1582030660,471.711,-9.15293,41.9695,177.935,-1.4502,88.7915,2876
1582030660,471.711,-9.15293,41.9695,177.935,-1.4502,88.7915,2876
1582030661,471.711,-9.15293,41.9695,177.935,-1.4502,88.7915,2876
1582030661,471.711,-9.15293,41.9695,177.935,-1.4502,88.7915,2876
1582030661,471.711,-9.15293,41.9695,177.935,-1.4502,88.7915,2876
1582030661,471.711,-9.15293,41.9695,177.935,-1.4502,88.7915,2876
1582030661,471.711,-9.15293,41.9695,177.935,-1.4502,88.7915,2876
1582030661,471.711,-9.15293,41.9695,177.935,-1.4502,88.7915,2872
1582030661,471.711,-9.15293,41.9695,177.935,-1.4502,88.7915,2872
1582030661,471.711,-9.15293,41.9695,177.935,-1.4502,88.7915,2872
1582030661,471.711,-9.15293,41.9695,177.935,-1.4502,88.7915,2872
1582030661,471.711,-9.15293,41.9695,177.935,-1.4502,88.7915,2872
1582030661,471.711,-9.15293,41.9695,177.935,-1.4502,88.7915,2872
1582030661,471.711,-9.15293,41.9695,177.935,-1.4502,88.7915,2872
1582030661,471.711,-9.15293,41.9695,177.913,-1.4502,88.7915,2872
1582030661,471.711,-9.15293,41.9695,177.913,-1.4502,88.7915,2872
1582030661,471.711,-9.15293,41.9695,177.913,-1.4502,88.7915,2872
1582030661,471.711,-9.15293,41.9695,177.913,-1.4502,88.7915,2872
1582030661,471.711,-9.15293,41.9695,177.913,-1.4502,88.7915,2872
1582030661,471.711,-9.15293,41.9695,177.913,-1.4502,88.7915,2872
1582030661,471.711,-9.15293,41.9695,177.913,-1.4502,88.7915,2872
1582030661,471.711,-9.15293,41.9695,177.913,-1.4502,88.7915,2872
1582030661,471.711,-9.15293,41.9695,177.913,-1.4502,88.7915,2872
1582030661,471.711,-9.15293,41.9695,177.913,-1.4502,88.7915,2872
1582030661,471.711,-9.15293,41.9695,177.913,-1.4502,88.7915,2872
1582030661,471.711,-9.15293,41.9695,177.913,-1.4502,88.7915,2876
1582030661,471.711,-9.15293,41.9695,177.913,-1.4502,88.7915,2876
1582030661,471.711,-9.15293,41.9695,177.913,-1.4502,88.7915,2876
1582030661,471.711,-9.15293,41.9695,177.913,-1.4502,88.7915,2876
1582030661,471.711,-9.15293,41.9695,177.913,-1.4502,88.7915,2876
1582030661,471.711,-9.15293,41.9695,177.913,-1.4502,88.7915,2876
1582030661,471.711,-9.15293,41.9695,177.913,-1.4502,88.7915,2876
1582030661,471.711,-9.15293,41.9695,177.913,-1.4502,88.7915,2876
1582030661,471.711,-9.15293,41.9695,177.913,-1.4502,88.7915,2876
1582030661,471.711,-9.15293,41.9695,177.913,-1.4502,88.7915,2876
1582030661,471.711,-9.15293,41.9695,177.913,-1.4502,88.7915,2876
1582030661,471.711,-9.15293,41.9695,177.913,-1.4502,88.7915,2876
1582030661,471.711,-9.15293,41.9695,177.913,-1.4502,88.7915,2876
1582030661,471.711,-9.15293,41.9695,177.913,-1.4502,88.7915,2876
1582030661,471.711,-9.15293,41.9695,177.913,-1.4502,88.7915,2876
1582030661,471.711,-9.15293,41.9695,177.913,-1.4502,88.7915,2876
1582030661,471.711,-9.15293,41.9695,177.913,-1.4502,88.7915,2876
1582030661,471.711,-9.15293,41.9695,177.913,-1.4502,88.7915,2876
1582030661,471.711,-9.15293,41.9695,177.913,-1.4502,88.7915,2876
1582030661,471.711,-9.15293,41.9695,177.913,-1.4502,88.7915,2876
1582030661,471.711,-9.15293,41.9695,177.913,-1.4502,88.7915,2876
1582030661,471.711,-9.15293,41.9695,177.913,-1.4502,88.7915,2876
1582030661,471.711,-9.15293,41.9695,177.913,-1.4502,88.7915,2876
1582030661,471.711,-9.15293,41.9695,177.913,-1.4502,88.7915,2876
1582030661,471.711,-9.15293,41.9695,177.913,-1.4502,88.7915,2876
1582030661,471.711,-9.15293,41.9695,177.913,-1.4502,88.7915,2876
1582030661,471.711,-9.15293,41.9695,177.913,-1.4502,88.7915,2876
1582030661,471.711,-9.15293,41.9695,177.913,-1.4502,88.7915,2876
1582030661,471.711,-9.15293,41.9695,177.913,-1.4502,88.7915,2876
1582030661,471.711,-9.15293,41.9695,177.913,-1.4502,88.7915,2876
1582030661,471.711,-9.15293,41.9695,177.913,-1.4502,88.7915,2876
1582030661,471.711,-9.15293,41.9695,177.913,-1.4502,88.7915,2876
1582030661,471.711,-9.15293,41.9695,177.913,-1.4502,88.7915,2872
1582030661,471.711,-9.15293,41.9695,177.913,-1.4502,88.7915,2872
1582030661,471.711,-9.15293,41.9695,177.913,-1.4502,88.7915,2872
1582030661,471.711,-9.15293,41.9695,177.913,-1.4502,88.7915,2872
1582030661,471.711,-9.15293,41.9695,177.913,-1.4502,88.7915,2872
1582030661,471.711,-9.15293,41.9695,177.913,-1.4502,88.7915,2872
1582030661,471.711,-9.15293,41.9695,177.913,-1.4502,88.7915,2872
1582030661,471.711,-9.15293,41.9695,177.913,-1.4502,88.7915,2872
1582030661,471.711,-9.15293,41.9695,177.913,-1.4502,88.7915,2872
1582030661,471.711,-9.15293,41.9695,177.913,-1.4502,88.7915,2872
1582030661,471.711,-9.15293,41.9695,177.913,-1.4502,88.7915,2872
1582030661,471.711,-9.15293,41.9695,177.913,-1.4502,88.7915,2872
1582030661,471.711,-9.15293,41.9695,177.913,-1.4502,88.7915,2872
1582030661,471.711,-9.15293,41.9695,177.913,-1.4502,88.7915,2872
1582030661,471.711,-9.15293,41.9695,177.913,-1.4502,88.7915,2872
1582030661,471.711,-9.15293,41.9695,177.913,-1.4502,88.7915,2872
1582030661,471.711,-9.15293,41.9695,177.913,-1.4502,88.7915,2872
1582030661,471.711,-9.15293,41.9695,177.913,-1.4502,88.7915,2876
1582030661,471.711,-9.15293,41.9695,177.913,-1.4502,88.7915,2876
1582030661,471.711,-9.15293,41.9695,177.913,-1.4502,88.7915,2876
1582030661,471.711,-9.15293,41.9695,177.913,-1.4502,88.7915,2876
1582030661,471.711,-9.15293,41.9695,177.913,-1.4502,88.7915,2876
1582030661,471.711,-9.15293,41.9695,177.913,-1.4502,88.7915,2876
1582030661,471.711,-9.15293,41.9695,177.913,-1.4502,88.7915,2876
1582030661,471.711,-9.15293,41.9695,177.913,-1.4502,88.7915,2876
1582030661,471.711,-9.15293,41.9695,177.913,-1.4502,88.7915,2876
1582030661,471.711,-9.15293,41.9695,177.913,-1.4502,88.7915,2876
1582030661,471.711,-9.15293,41.9695,177.913,-1.4502,88.7915,2876
1582030661,471.711,-9.15293,41.9695,177.913,-1.4502,88.7915,2876
1582030661,471.711,-9.15293,41.9695,177.913,-1.4502,88.7915,2876
1582030661,471.711,-9.15293,41.9695,177.913,-1.4502,88.7915,2876
1582030661,471.711,-9.15293,41.9695,177.913,-1.4502,88.7915,2876
1582030661,471.711,-9.15293,41.9695,177.913,-1.4502,88.7915,2876
1582030661,471.711,-9.15293,41.9695,177.913,-1.4502,88.7915,2876
1582030661,471.711,-9.15293,41.9695,177.913,-1.4502,88.7915,2876
1582030661,471.711,-9.15293,41.9695,177.913,-1.4502,88.7915,2876
1582030661,471.711,-9.15293,41.9695,177.913,-1.4502,88.7915,2876
1582030661,471.711,-9.15293,41.9695,177.913,-1.4502,88.7915,2876
1582030661,471.711,-9.15293,41.9695,177.913,-1.4502,88.7915,2876
1582030661,471.711,-9.15293,41.9695,177.913,-1.4502,88.7915,2872
1582030661,471.711,-9.15293,41.9695,177.913,-1.4502,88.7915,2872
1582030661,471.711,-9.15293,41.9695,177.913,-1.4502,88.7915,2872
1582030661,471.711,-9.15293,41.9695,177.913,-1.4502,88.7915,2872
1582030661,471.711,-9.15293,41.9695,177.913,-1.4502,88.7915,2872
1582030661,471.711,-9.15293,41.9695,177.913,-1.4502,88.7915,2872
1582030662,471.711,-9.15293,41.9695,177.913,-1.4502,88.7915,2872
1582030662,471.711,-9.15293,41.9695,177.913,-1.4502,88.7915,2872
1582030662,471.711,-9.15293,41.9695,177.913,-1.47217,88.7915,2872
1582030662,471.711,-9.15293,41.9695,177.913,-1.47217,88.7915,2872
1582030662,471.711,-9.15293,41.9695,177.913,-1.47217,88.7915,2872
1582030662,471.711,-9.15293,41.9695,177.913,-1.47217,88.7915,2872
1582030662,471.711,-9.15293,41.9695,177.913,-1.47217,88.7915,2872
1582030662,471.711,-9.15293,41.9695,177.913,-1.47217,88.7915,2872
1582030662,471.711,-9.15293,41.9695,177.913,-1.47217,88.7915,2872
1582030662,471.711,-9.15293,41.9695,177.913,-1.47217,88.7915,2872
1582030662,471.711,-9.15293,41.9695,177.913,-1.47217,88.7915,2872
1582030662,471.711,-9.15293,41.9695,177.913,-1.47217,88.7915,2872
1582030662,471.711,-9.15293,41.9695,177.913,-1.47217,88.7915,2872
1582030662,471.711,-9.15293,41.9695,177.913,-1.4502,88.7915,2872
1582030662,471.711,-9.15293,41.9695,177.913,-1.4502,88.7915,2872
1582030662,471.711,-9.15293,41.9695,177.913,-1.4502,88.7915,2872
1582030662,471.711,-9.15293,41.9695,177.913,-1.4502,88.7915,2872
1582030662,471.711,-9.15293,41.9695,177.913,-1.4502,88.7915,2872
1582030662,471.711,-9.15293,41.9695,177.913,-1.4502,88.7915,2872
1582030662,471.711,-9.15293,41.9695,177.913,-1.4502,88.7915,2872
1582030662,471.711,-9.15293,41.9695,177.913,-1.4502,88.7915,2872
1582030662,471.711,-9.15293,41.9695,177.913,-1.4502,88.7915,2872
1582030662,471.711,-9.15293,41.9695,177.913,-1.4502,88.7915,2872
1582030662,471.711,-9.15293,41.9695,177.913,-1.4502,88.7915,2872
1582030662,471.711,-9.15293,41.9695,177.913,-1.4502,88.7915,2872
1582030662,471.711,-9.15293,41.9695,177.913,-1.4502,88.7915,2872
1582030662,471.711,-9.15293,41.9695,177.913,-1.4502,88.7915,2872
1582030662,471.711,-9.15293,41.9695,177.913,-1.4502,88.7915,2872
1582030662,471.711,-9.15293,41.9695,177.913,-1.4502,88.7915,2872
1582030662,471.711,-9.15293,41.9695,177.913,-1.47217,88.7915,2872
1582030662,471.711,-9.15293,41.9695,177.913,-1.47217,88.7915,2872
1582030662,471.711,-9.15293,41.9695,177.913,-1.47217,88.7915,2872
1582030662,471.711,-9.15293,41.9695,177.913,-1.47217,88.7915,2872
1582030662,471.711,-9.15293,41.9695,177.913,-1.47217,88.7915,2872
1582030662,471.711,-9.15293,41.9695,177.913,-1.47217,88.7915,2872
1582030662,471.711,-9.15293,41.9695,177.913,-1.47217,88.7915,2872
1582030662,471.711,-9.15293,41.9695,177.913,-1.47217,88.7915,2872
1582030662,471.711,-9.15293,41.9695,177.913,-1.47217,88.7915,2872
1582030662,471.711,-9.15293,41.9695,177.913,-1.47217,88.7915,2872
1582030662,471.711,-9.15293,41.9695,177.913,-1.47217,88.7915,2872
1582030662,471.711,-9.15293,41.9695,177.913,-1.47217,88.7915,2872
1582030662,471.711,-9.15293,41.9695,177.913,-1.47217,88.7915,2872
1582030662,471.711,-9.15293,41.9695,177.913,-1.47217,88.7915,2872
1582030662,471.711,-9.15293,41.9695,177.913,-1.47217,88.7915,2872
1582030662,471.711,-9.15293,41.9695,177.913,-1.47217,88.7915,2872
1582030662,471.711,-9.15293,41.9695,177.913,-1.47217,88.7915,2872
1582030662,471.711,-9.15293,41.9695,177.913,-1.47217,88.7915,2872
1582030662,471.711,-9.15293,41.9695,177.913,-1.47217,88.7915,2872
1582030662,471.711,-9.15293,41.9695,177.913,-1.47217,88.7915,2872
1582030662,471.711,-9.15293,41.9695,177.913,-1.47217,88.7915,2872
1582030662,471.711,-9.15293,41.9695,177.913,-1.47217,88.7915,2872
1582030662,471.711,-9.15293,41.9695,177.913,-1.47217,88.7915,2872
1582030662,471.711,-9.15293,41.9695,177.913,-1.47217,88.7915,2872
1582030662,471.711,-9.15293,41.9695,177.913,-1.47217,88.7915,2872
1582030662,471.711,-9.15293,41.9695,177.913,-1.47217,88.7915,2872
1582030662,471.711,-9.15293,41.9695,177.913,-1.47217,88.7915,2872
1582030662,471.711,-9.15293,41.9695,177.913,-1.47217,88.7915,2872
1582030662,471.711,-9.15293,41.9695,177.913,-1.47217,88.7915,2872
1582030662,471.711,-9.15293,41.9695,177.913,-1.47217,88.7915,2872
1582030662,471.711,-9.15293,41.9695,177.913,-1.47217,88.7915,2872
1582030662,471.711,-9.15293,41.9695,177.913,-1.47217,88.7915,2872
1582030662,471.711,-9.15293,41.9695,177.913,-1.47217,88.7915,2872
1582030662,471.711,-9.15293,41.9695,177.913,-1.47217,88.7915,2872
1582030662,471.711,-9.15293,41.9695,177.913,-1.47217,88.7915,2872
1582030662,471.711,-9.15293,41.9695,177.913,-1.47217,88.7915,2872
1582030662,471.711,-9.15293,41.9695,177.913,-1.47217,88.7915,2872
1582030662,471.711,-9.15293,41.9695,177.913,-1.47217,88.7915,2872
1582030662,471.711,-9.15293,41.9695,177.913,-1.47217,88.7915,2872
1582030662,471.711,-9.15293,41.9695,177.913,-1.47217,88.7915,2872
1582030662,471.711,-9.15293,41.9695,177.913,-1.4502,88.7915,2872
1582030662,471.711,-9.15293,41.9695,177.913,-1.4502,88.7915,2872
1582030662,471.711,-9.15293,41.9695,177.913,-1.4502,88.7915,2872
1582030662,471.711,-9.15293,41.9695,177.913,-1.4502,88.7915,2872
1582030662,471.711,-9.15293,41.9695,177.913,-1.4502,88.7915,2872
1582030662,471.711,-9.15293,41.9695,177.913,-1.4502,88.7915,2872
1582030662,471.711,-9.15293,41.9695,177.913,-1.4502,88.7915,2872
1582030662,471.711,-9.15293,41.9695,177.913,-1.4502,88.7915,2872
1582030662,471.711,-9.15293,41.9695,177.913,-1.4502,88.7915,2872
1582030662,471.711,-9.15293,41.9695,177.913,-1.4502,88.7915,2872
1582030662,471.711,-9.15293,41.9695,177.913,-1.4502,88.7915,2872
1582030662,471.711,-9.15293,41.9695,177.913,-1.4502,88.7915,2872
1582030662,471.711,-9.15293,41.9695,177.913,-1.4502,88.7915,2872
1582030662,471.711,-9.15293,41.9695,177.913,-1.4502,88.7915,2872
1582030662,471.711,-9.15293,41.9695,177.913,-1.4502,88.7915,2872
1582030662,471.711,-9.15293,41.9695,177.913,-1.4502,88.7915,2872
1582030662,471.711,-9.15293,41.9695,177.913,-1.4502,88.7915,2872
1582030662,471.711,-9.15293,41.9695,177.913,-1.4502,88.7915,2872
1582030662,471.711,-9.15293,41.9695,177.913,-1.4502,88.7915,2872
1582030662,471.711,-9.15293,41.9695,177.913,-1.4502,88.7915,2872
1582030662,471.711,-9.15293,41.9695,177.913,-1.4502,88.7915,2872
1582030662,471.711,-9.15293,41.9695,177.913,-1.47217,88.7915,2872
1582030662,471.711,-9.15293,41.9695,177.913,-1.47217,88.7915,2872
1582030662,471.711,-9.15293,41.9695,177.913,-1.47217,88.7915,2872
1582030662,471.711,-9.15293,41.9695,177.913,-1.47217,88.7915,2872
1582030662,471.711,-9.15293,41.9695,177.913,-1.47217,88.7915,2872
1582030662,471.711,-9.15293,41.9695,177.913,-1.47217,88.7915,2872
1582030662,471.711,-9.15293,41.9695,177.913,-1.47217,88.7915,2872
1582030662,471.711,-9.15293,41.9695,177.913,-1.47217,88.7915,2872
1582030662,471.711,-9.15293,41.9695,177.913,-1.4502,88.7915,2872
1582030662,471.711,-9.15293,41.9695,177.913,-1.4502,88.7915,2872
1582030663,471.711,-9.15293,41.9695,177.913,-1.4502,88.7915,2872
1582030663,471.711,-9.15293,41.9695,177.913,-1.4502,88.7915,2872
1582030663,471.711,-9.15293,41.9695,177.913,-1.4502,88.7915,2872
1582030663,471.711,-9.15293,41.9695,177.913,-1.4502,88.7915,2872
1582030663,471.711,-9.15293,41.9695,177.913,-1.4502,88.7915,2872
1582030663,471.711,-9.15293,41.9695,177.913,-1.4502,88.7915,2872
1582030663,471.711,-9.15293,41.9695,177.913,-1.4502,88.7915,2872
1582030663,471.711,-9.15293,41.9695,177.913,-1.4502,88.7915,2872
1582030663,471.711,-9.15293,41.9695,177.913,-1.4502,88.7915,2872
1582030663,471.711,-9.15293,41.9695,177.913,-1.4502,88.7915,2872
1582030663,471.711,-9.15293,41.9695,177.913,-1.4502,88.7915,2872
1582030663,471.711,-9.15293,41.9695,177.913,-1.4502,88.7915,2872
1582030663,471.711,-9.15293,41.9695,177.913,-1.4502,88.7915,2872
1582030663,471.711,-9.15293,41.9695,177.913,-1.4502,88.7915,2872
1582030663,471.711,-9.15293,41.9695,177.913,-1.4502,88.7915,2872
1582030663,471.711,-9.15293,41.9695,177.913,-1.4502,88.7915,2872
1582030663,471.711,-9.15293,41.9695,177.913,-1.4502,88.7915,2872
1582030663,471.711,-9.15293,41.9695,177.913,-1.4502,88.7915,2872
1582030663,471.711,-9.15293,41.9695,177.913,-1.4502,88.7915,2872
1582030663,471.711,-9.15293,41.9695,177.913,-1.4502,88.7915,2872
1582030663,471.711,-9.15293,41.9695,177.913,-1.4502,88.7915,2872
1582030663,471.711,-9.15293,41.9695,177.913,-1.4502,88.7915,2872
1582030663,471.711,-9.15293,41.9695,177.913,-1.4502,88.7915,2872
1582030663,471.711,-9.15293,41.9695,177.913,-1.4502,88.7915,2872
1582030663,471.711,-9.15293,41.9695,177.913,-1.4502,88.7915,2872
1582030663,471.711,-9.15293,41.9695,177.913,-1.4502,88.7915,2872
1582030663,471.711,-9.15293,41.9695,177.913,-1.4502,88.7915,2872
1582030663,471.711,-9.15293,41.9695,177.913,-1.4502,88.7915,2872
1582030663,471.711,-9.15293,41.9695,177.913,-1.4502,88.7915,2872
1582030663,471.711,-9.15293,41.9695,177.935,-1.4502,88.7915,2872
1582030663,471.711,-9.15293,41.9695,177.935,-1.4502,88.7915,2872
1582030663,471.711,-9.15293,41.9695,177.935,-1.4502,88.7915,2872
1582030663,471.711,-9.15293,41.9695,177.935,-1.4502,88.7915,2872
1582030663,471.711,-9.15293,41.9695,177.935,-1.4502,88.7915,2872
1582030663,471.711,-9.15293,41.9695,177.935,-1.4502,88.7915,2872
1582030663,471.711,-9.15293,41.9695,177.935,-1.4502,88.7915,2872
1582030663,471.711,-9.15293,41.9695,177.935,-1.4502,88.7915,2872
1582030663,471.711,-9.15293,41.9695,177.913,-1.47217,88.7915,2872
1582030663,471.711,-9.15293,41.9695,177.913,-1.47217,88.7915,2872
1582030663,471.711,-9.15293,41.9695,177.913,-1.47217,88.7915,2872
1582030663,471.711,-9.15293,41.9695,177.913,-1.47217,88.7915,2872
1582030663,471.711,-9.15293,41.9695,177.913,-1.47217,88.7915,2872
1582030663,471.711,-9.15293,41.9695,177.913,-1.47217,88.7915,2872
1582030663,471.711,-9.15293,41.9695,177.913,-1.47217,88.7915,2872
1582030663,471.711,-9.15293,41.9695,177.913,-1.47217,88.7915,2872
1582030663,471.711,-9.15293,41.9695,177.913,-1.47217,88.7915,2872
1582030663,471.711,-9.15293,41.9695,177.913,-1.47217,88.7915,2872
1582030663,471.711,-9.15293,41.9695,177.913,-1.47217,88.7915,2872
1582030663,471.711,-9.15293,41.9695,177.913,-1.47217,88.7915,2872
1582030663,471.711,-9.15293,41.9695,177.913,-1.47217,88.7915,2872
1582030663,471.711,-9.15293,41.9695,177.913,-1.47217,88.7915,2872
1582030663,471.711,-9.15293,41.9695,177.913,-1.47217,88.7915,2872
1582030663,471.711,-9.15293,41.9695,177.913,-1.47217,88.7915,2872
1582030663,471.711,-9.15293,41.9695,177.913,-1.47217,88.7915,2872
1582030663,471.711,-9.15293,41.9695,177.913,-1.47217,88.7915,2872
1582030663,471.711,-9.15293,41.9695,177.913,-1.47217,88.7915,2872
1582030663,471.711,-9.15293,41.9695,177.913,-1.47217,88.7915,2872
1582030663,471.711,-9.15293,41.9695,177.913,-1.47217,88.7915,2872
1582030663,471.711,-9.15293,41.9695,177.913,-1.47217,88.7915,2872
1582030663,471.711,-9.15293,41.9695,177.913,-1.47217,88.7915,2872
1582030663,471.711,-9.15293,41.9695,177.913,-1.47217,88.7915,2872
1582030663,471.711,-9.15293,41.9695,177.913,-1.47217,88.7915,2872
1582030663,471.711,-9.15293,41.9695,177.913,-1.47217,88.7915,2872
1582030663,471.711,-9.15293,41.9695,177.913,-1.47217,88.7915,2872
1582030663,471.711,-9.15293,41.9695,177.913,-1.47217,88.7915,2872
1582030663,471.711,-9.15293,41.9695,177.913,-1.47217,88.7915,2872
1582030663,471.711,-9.15293,41.9695,177.913,-1.47217,88.7915,2872
1582030663,471.711,-9.15293,41.9695,177.913,-1.47217,88.7915,2872
1582030663,471.711,-9.15293,41.9695,177.913,-1.47217,88.7915,2872
1582030663,471.711,-9.15293,41.9695,177.913,-1.47217,88.7915,2872
1582030663,471.711,-9.15293,41.9695,177.913,-1.47217,88.7915,2872
1582030663,471.711,-9.15293,41.9695,177.913,-1.47217,88.7915,2872
1582030663,471.711,-9.15293,41.9695,177.913,-1.47217,88.7915,2872
1582030663,471.711,-9.15293,41.9695,177.913,-1.47217,88.7915,2872
1582030663,471.711,-9.15293,41.9695,177.913,-1.47217,88.7915,2872
1582030663,471.711,-9.15293,41.9695,177.913,-1.47217,88.7915,2872
1582030663,471.711,-9.15293,41.9695,177.913,-1.47217,88.7915,2872
1582030663,471.711,-9.15293,41.9695,177.913,-1.47217,88.7915,2872
1582030663,471.711,-9.15293,41.9695,177.913,-1.47217,88.7915,2872
1582030663,471.711,-9.15293,41.9695,177.913,-1.47217,88.7915,2872
1582030663,471.711,-9.15293,41.9695,177.913,-1.4502,88.7915,2872
1582030663,471.711,-9.15293,41.9695,177.913,-1.4502,88.7915,2872
1582030663,471.711,-9.15293,41.9695,177.913,-1.4502,88.7915,2872
1582030663,471.711,-9.15293,41.9695,177.913,-1.4502,88.7915,2872
1582030663,471.711,-9.15293,41.9695,177.913,-1.4502,88.7915,2872
1582030663,471.711,-9.15293,41.9695,177.913,-1.4502,88.7915,2872
1582030663,471.711,-9.15293,41.9695,177.913,-1.4502,88.7915,2872
1582030663,471.711,-9.15293,41.9695,177.913,-1.4502,88.7915,2872
1582030663,471.711,-9.15293,41.9695,177.913,-1.4502,88.7915,2872
1582030663,471.711,-9.15293,41.9695,177.913,-1.4502,88.7915,2872
1582030663,471.711,-9.15293,41.9695,177.913,-1.4502,88.7915,2872
1582030663,471.711,-9.15293,41.9695,177.913,-1.4502,88.7915,2872
1582030663,471.711,-9.15293,41.9695,177.913,-1.4502,88.7915,2872
1582030663,471.711,-9.15293,41.9695,177.913,-1.4502,88.7915,2872
1582030671,471.711,-9.15293,41.9695,177.913,-1.47217,88.7915,2872
1582030671,471.711,-9.15293,41.9695,177.913,-1.47217,88.7915,2872
1582030671,471.711,-9.15293,41.9695,177.913,-1.4502,88.7915,2872
1582030671,471.711,-9.15293,41.9695,177.913,-1.4502,88.7915,2872
1582030671,471.711,-9.15293,41.9695,177.913,-1.4502,88.7915,2872
1582030671,471.711,-9.15293,41.9695,177.913,-1.4502,88.7915,2872
1582030671,471.711,-9.15293,41.9695,177.913,-1.4502,88.7915,2872
1582030671,471.711,-9.15293,41.9695,177.913,-1.4502,88.7915,2872
1582030671,471.711,-9.15293,41.9695,177.913,-1.4502,88.7915,2872
1582030671,471.711,-9.15293,41.9695,177.913,-1.4502,88.7915,2872
1582030671,471.711,-9.15293,41.9695,177.913,-1.4502,88.7915,2872
1582030671,471.711,-9.15293,41.9695,177.913,-1.4502,88.7915,2872
1582030671,471.711,-9.15293,41.9695,177.913,-1.4502,88.7915,2872
1582030671,471.711,-9.15293,41.9695,177.913,-1.4502,88.7915,2872
1582030671,471.711,-9.15293,41.9695,177.913,-1.4502,88.7915,2872
1582030671,471.711,-9.15293,41.9695,177.913,-1.4502,88.7915,2872
1582030671,471.711,-9.15293,41.9695,177.913,-1.4502,88.7915,2872
1582030671,471.711,-9.15293,41.9695,177.913,-1.4502,88.7915,2872
1582030671,471.711,-9.15293,41.9695,177.913,-1.4502,88.7915,2872
1582030671,471.711,-9.15293,41.9695,177.913,-1.4502,88.7915,2872
1582030671,471.711,-9.15293,41.9695,177.913,-1.4502,88.7915,2872
1582030671,471.711,-9.15293,41.9695,177.913,-1.4502,88.7915,2872
1582030671,471.711,-9.15293,41.9695,177.913,-1.4502,88.7915,2872
1582030671,471.711,-9.15293,41.9695,177.913,-1.4502,88.7915,2872
1582030671,471.711,-9.15293,41.9695,177.913,-1.4502,88.7915,2872
1582030671,471.711,-9.15293,41.9695,177.913,-1.4502,88.7915,2872
1582030671,471.711,-9.15293,41.9695,177.913,-1.4502,88.7915,2872
1582030671,471.711,-9.15293,41.9695,177.913,-1.4502,88.7915,2872
1582030671,471.711,-9.15293,41.9695,177.913,-1.4502,88.7915,2872
1582030671,471.711,-9.15293,41.9695,177.913,-1.4502,88.7915,2872
1582030671,471.711,-9.15293,41.9695,177.913,-1.4502,88.7915,2872
1582030671,471.711,-9.15293,41.9695,177.913,-1.4502,88.7915,2872
1582030671,471.711,-9.15293,41.9695,177.913,-1.4502,88.7915,2872
1582030671,471.711,-9.15293,41.9695,177.913,-1.4502,88.7915,2872
1582030671,471.711,-9.15293,41.9695,177.913,-1.4502,88.7915,2872
1582030671,471.711,-9.15293,41.9695,177.913,-1.4502,88.7915,2872
1582030671,471.711,-9.15293,41.9695,177.913,-1.4502,88.7915,2872
1582030671,471.711,-9.15293,41.9695,177.913,-1.4502,88.7915,2872
1582030671,471.711,-9.15293,41.9695,177.913,-1.4502,88.7915,2872
1582030671,471.711,-9.15293,41.9695,177.913,-1.4502,88.7915,2872
1582030671,471.711,-9.15293,41.9695,177.913,-1.4502,88.7915,2872
1582030671,471.711,-9.15293,41.9695,177.913,-1.4502,88.7915,2872
1582030671,471.711,-9.15293,41.9695,177.913,-1.4502,88.7915,2872
1582030671,471.711,-9.15293,41.9695,177.913,-1.4502,88.7915,2872
1582030671,471.711,-9.15293,41.9695,177.913,-1.4502,88.7915,2872
1582030671,471.711,-9.15293,41.9695,177.913,-1.4502,88.7915,2872
1582030671,471.711,-9.15293,41.9695,177.913,-1.4502,88.7915,2872
1582030671,471.711,-9.15293,41.9695,177.913,-1.4502,88.7915,2872
1582030671,471.711,-9.15293,41.9695,177.913,-1.4502,88.7915,2872
1582030671,471.711,-9.15293,41.9695,177.913,-1.4502,88.7915,2876
1582030671,471.711,-9.15293,41.9695,177.913,-1.4502,88.7915,2876
1582030671,471.711,-9.15293,41.9695,177.913,-1.4502,88.7915,2876
1582030671,471.711,-9.15293,41.9695,177.913,-1.4502,88.7915,2876
1582030671,471.711,-9.15293,41.9695,177.913,-1.4502,88.7915,2876
1582030671,471.711,-9.15293,41.9695,177.913,-1.4502,88.7915,2876
1582030671,471.711,-9.15293,41.9695,177.913,-1.4502,88.7915,2876
1582030671,471.711,-9.15293,41.9695,177.913,-1.4502,88.7915,2876
1582030671,471.711,-9.15293,41.9695,177.913,-1.4502,88.7915,2876
1582030671,471.711,-9.15293,41.9695,177.913,-1.4502,88.7915,2876
1582030671,471.711,-9.15293,41.9695,177.913,-1.4502,88.7915,2876
1582030671,471.711,-9.15293,41.9695,177.913,-1.4502,88.7915,2876
1582030671,471.711,-9.15293,41.9695,177.913,-1.4502,88.7915,2876
1582030671,471.711,-9.15293,41.9695,177.913,-1.4502,88.7915,2876
1582030672,471.711,-9.15293,41.9695,177.913,-1.4502,88.7915,2876
1582030672,471.711,-9.15293,41.9695,177.913,-1.47217,88.7915,2876
1582030672,471.711,-9.15293,41.9695,177.913,-1.47217,88.7915,2876
1582030672,471.711,-9.15293,41.9695,177.913,-1.47217,88.7915,2876
1582030672,471.711,-9.15293,41.9695,177.913,-1.47217,88.7915,2876
1582030672,471.711,-9.15293,41.9695,177.913,-1.47217,88.7915,2876
1582030672,471.711,-9.15293,41.9695,177.913,-1.47217,88.7915,2876
1582030672,471.711,-9.15293,41.9695,177.913,-1.47217,88.7915,2876
1582030672,471.711,-9.15293,41.9695,177.913,-1.47217,88.7915,2876
1582030672,471.711,-9.15293,41.9695,177.913,-1.47217,88.7915,2876
1582030672,471.711,-9.15293,41.9695,177.913,-1.47217,88.7915,2876
1582030672,471.711,-9.15293,41.9695,177.913,-1.47217,88.7915,2876
1582030672,471.711,-9.15293,41.9695,177.913,-1.47217,88.7915,2876
1582030672,471.711,-9.15293,41.9695,177.913,-1.47217,88.7915,2876
1582030672,471.711,-9.15293,41.9695,177.935,-1.47217,88.7915,2876
1582030672,471.711,-9.15293,41.9695,177.935,-1.47217,88.7915,2876
1582030672,471.711,-9.15293,41.9695,177.935,-1.47217,88.7915,2876
1582030672,471.711,-9.15293,41.9695,177.935,-1.47217,88.7915,2876
1582030672,471.711,-9.15293,41.9695,177.935,-1.47217,88.7915,2872
1582030672,471.711,-9.15293,41.9695,177.935,-1.47217,88.7915,2872
1582030672,471.711,-9.15293,41.9695,177.935,-1.47217,88.7915,2872
1582030672,471.711,-9.15293,41.9695,177.935,-1.47217,88.7915,2872
1582030672,471.711,-9.15293,41.9695,177.913,-1.47217,88.7915,2872
1582030672,471.711,-9.15293,41.9695,177.913,-1.47217,88.7915,2872
1582030672,471.711,-9.15293,41.9695,177.913,-1.47217,88.7915,2872
1582030672,471.711,-9.15293,41.9695,177.913,-1.47217,88.7915,2872
1582030672,471.711,-9.15293,41.9695,177.913,-1.47217,88.7915,2872
1582030672,471.711,-9.15293,41.9695,177.935,-1.47217,88.7915,2872
1582030672,471.711,-9.15293,41.9695,177.935,-1.47217,88.7915,2872
1582030672,471.711,-9.15293,41.9695,177.935,-1.47217,88.7915,2872
1582030672,471.711,-9.15293,41.9695,177.935,-1.47217,88.7915,2872
1582030672,471.711,-9.15293,41.9695,177.935,-1.47217,88.7915,2872
1582030672,471.711,-9.15293,41.9695,177.935,-1.47217,88.7915,2872
1582030672,471.711,-9.15293,41.9695,177.935,-1.47217,88.7915,2872
1582030672,471.711,-9.15293,41.9695,177.935,-1.47217,88.7915,2872
1582030672,471.711,-9.15293,41.9695,177.935,-1.47217,88.7915,2872
1582030672,471.711,-9.15293,41.9695,177.935,-1.47217,88.7915,2872
1582030672,471.711,-9.15293,41.9695,177.935,-1.47217,88.7915,2872
1582030672,471.711,-9.15293,41.9695,177.935,-1.47217,88.7915,2872
1582030672,471.711,-9.15293,41.9695,177.935,-1.47217,88.7915,2872
1582030672,471.711,-9.15293,41.9695,177.935,-1.47217,88.7915,2872
1582030672,471.711,-9.15293,41.9695,177.935,-1.47217,88.7915,2872
1582030672,471.711,-9.15293,41.9695,177.935,-1.47217,88.7915,2872
1582030672,471.711,-9.15293,41.9695,177.935,-1.47217,88.7915,2872
1582030672,471.711,-9.15293,41.9695,177.913,-1.47217,88.7915,2872
1582030672,471.711,-9.15293,41.9695,177.913,-1.47217,88.7915,2872
1582030672,471.711,-9.15293,41.9695,177.913,-1.47217,88.7915,2872
1582030672,471.711,-9.15293,41.9695,177.913,-1.47217,88.7915,2872
1582030672,471.711,-9.15293,41.9695,177.913,-1.47217,88.7915,2872
1582030672,471.711,-9.15293,41.9695,177.913,-1.47217,88.7915,2872
1582030672,471.711,-9.15293,41.9695,177.913,-1.47217,88.7915,2872
1582030672,471.711,-9.15293,41.9695,177.913,-1.47217,88.7915,2872
1582030672,471.711,-9.15293,41.9695,177.913,-1.47217,88.7915,2872
1582030672,471.711,-9.15293,41.9695,177.913,-1.47217,88.7915,2872
1582030672,471.711,-9.15293,41.9695,177.913,-1.47217,88.7915,2872
1582030672,471.711,-9.15293,41.9695,177.913,-1.47217,88.7915,2872
1582030672,471.711,-9.15293,41.9695,177.913,-1.47217,88.7915,2872
1582030672,471.711,-9.15293,41.9695,177.913,-1.47217,88.7915,2872
1582030672,471.711,-9.15293,41.9695,177.913,-1.4502,88.7915,2872
1582030672,471.711,-9.15293,41.9695,177.913,-1.4502,88.7915,2872
1582030672,471.711,-9.15293,41.9695,177.935,-1.4502,88.7915,2872
1582030672,471.711,-9.15293,41.9695,177.935,-1.4502,88.7915,2872
1582030672,471.711,-9.15293,41.9695,177.935,-1.4502,88.7915,2872
1582030672,471.711,-9.15293,41.9695,177.913,-1.4502,88.7915,2872
1582030672,471.711,-9.15293,41.9695,177.913,-1.4502,88.7915,2872
1582030672,471.711,-9.15293,41.9695,177.913,-1.4502,88.7915,2872
1582030672,471.711,-9.15293,41.9695,177.913,-1.4502,88.7915,2872
1582030672,471.711,-9.15293,41.9695,177.913,-1.4502,88.7915,2872
1582030672,471.711,-9.15293,41.9695,177.913,-1.4502,88.7915,2872
1582030672,471.711,-9.15293,41.9695,177.913,-1.4502,88.7915,2872
1582030672,471.711,-9.15293,41.9695,177.913,-1.4502,88.7915,2872
1582030672,471.711,-9.15293,41.9695,177.913,-1.4502,88.7915,2872
1582030672,471.711,-9.15293,41.9695,177.913,-1.4502,88.7915,2872
1582030672,471.711,-9.15293,41.9695,177.913,-1.4502,88.7915,2872
1582030672,471.711,-9.15293,41.9695,177.913,-1.4502,88.7915,2872
1582030672,471.711,-9.15293,41.9695,177.913,-1.4502,88.7915,2872
1582030672,471.711,-9.15293,41.9695,177.913,-1.4502,88.7915,2872
1582030672,471.711,-9.15293,41.9695,177.913,-1.4502,88.7915,2872
1582030672,471.711,-9.15293,41.9695,177.913,-1.4502,88.7915,2872
1582030672,471.711,-9.15293,41.9695,177.913,-1.4502,88.7915,2872
1582030672,471.711,-9.15293,41.9695,177.913,-1.4502,88.7915,2872
1582030672,471.711,-9.15293,41.9695,177.913,-1.4502,88.7915,2872
1582030672,471.711,-9.15293,41.9695,177.913,-1.4502,88.7915,2872
1582030672,471.711,-9.15293,41.9695,177.913,-1.4502,88.7915,2872
1582030672,471.711,-9.15293,41.9695,177.913,-1.4502,88.7915,2872
1582030672,471.711,-9.15293,41.9695,177.913,-1.4502,88.7915,2872
1582030672,471.711,-9.15293,41.9695,177.913,-1.4502,88.7915,2872
1582030672,471.711,-9.15293,41.9695,177.913,-1.4502,88.7915,2872
1582030672,471.711,-9.15293,41.9695,177.913,-1.4502,88.7915,2872
1582030672,471.711,-9.15293,41.9695,177.913,-1.4502,88.7915,2872
1582030672,471.711,-9.15293,41.9695,177.913,-1.4502,88.7915,2872
1582030672,471.711,-9.15293,41.9695,177.913,-1.4502,88.7915,2872
1582030672,471.711,-9.15293,41.9695,177.935,-1.4502,88.7915,2872
1582030672,471.711,-9.15293,41.9695,177.935,-1.4502,88.7915,2872
1582030672,471.711,-9.15293,41.9695,177.935,-1.4502,88.7915,2872
1582030672,471.711,-9.15293,41.9695,177.935,-1.4502,88.7915,2872
1582030672,471.711,-9.15293,41.9695,177.935,-1.4502,88.7915,2872
1582030672,471.711,-9.15293,41.9695,177.935,-1.4502,88.7915,2872
1582030672,471.711,-9.15293,41.9695,177.935,-1.4502,88.7915,2872
1582030672,471.711,-9.15293,41.9695,177.935,-1.4502,88.7915,2872
1582030673,471.711,-9.15293,41.9695,177.935,-1.4502,88.7915,2872
1582030673,471.711,-9.15293,41.9695,177.935,-1.4502,88.7915,2872
1582030673,471.711,-9.15293,41.9695,177.935,-1.4502,88.7915,2872
1582030673,471.711,-9.15293,41.9695,177.935,-1.4502,88.7915,2872
1582030673,471.711,-9.15293,41.9695,177.935,-1.4502,88.7915,2872
1582030673,471.711,-9.15293,41.9695,177.935,-1.4502,88.7915,2872
1582030673,471.711,-9.15293,41.9695,177.935,-1.4502,88.7915,2872
1582030673,471.711,-9.15293,41.9695,177.935,-1.4502,88.7915,2872
1582030673,471.711,-9.15293,41.9695,177.935,-1.4502,88.7915,2872
1582030673,471.711,-9.15293,41.9695,177.935,-1.4502,88.7915,2872
1582030673,471.711,-9.15293,41.9695,177.913,-1.4502,88.7915,2872
1582030673,471.711,-9.15293,41.9695,177.913,-1.4502,88.7915,2872
1582030673,471.711,-9.15293,41.9695,177.913,-1.4502,88.7915,2872
1582030673,471.711,-9.15293,41.9695,177.913,-1.4502,88.7915,2872
1582030673,471.711,-9.15293,41.9695,177.913,-1.4502,88.7915,2872
1582030673,471.711,-9.15293,41.9695,177.913,-1.4502,88.7915,2872
1582030673,471.711,-9.15293,41.9695,177.913,-1.4502,88.7915,2872
1582030673,471.711,-9.15293,41.9695,177.913,-1.4502,88.7915,2872
1582030673,471.711,-9.15293,41.9695,177.913,-1.4502,88.7915,2872
1582030673,471.711,-9.15293,41.9695,177.913,-1.4502,88.7915,2876
1582030673,471.711,-9.15293,41.9695,177.913,-1.4502,88.7915,2876
1582030673,471.711,-9.15293,41.9695,177.913,-1.4502,88.7915,2876
1582030673,471.711,-9.15293,41.9695,177.913,-1.4502,88.7915,2876
1582030673,471.711,-9.15293,41.9695,177.913,-1.4502,88.7915,2876
1582030673,471.711,-9.15293,41.9695,177.913,-1.4502,88.7915,2876
1582030673,471.711,-9.15293,41.9695,177.913,-1.4502,88.7915,2876
1582030673,471.711,-9.15293,41.9695,177.913,-1.4502,88.7915,2876
1582030673,471.711,-9.15293,41.9695,177.913,-1.4502,88.7915,2876
1582030673,471.711,-9.15293,41.9695,177.913,-1.4502,88.7915,2876
1582030673,471.711,-9.15293,41.9695,177.913,-1.4502,88.7915,2876
1582030673,471.711,-9.15293,41.9695,177.913,-1.4502,88.7915,2876
1582030673,471.711,-9.15293,41.9695,177.913,-1.4502,88.7915,2876
1582030673,471.711,-9.15293,41.9695,177.913,-1.4502,88.7915,2876
1582030673,471.711,-9.15293,41.9695,177.913,-1.4502,88.7915,2876
1582030673,471.711,-9.15293,41.9695,177.913,-1.4502,88.7915,2876
1582030673,471.711,-9.15293,41.9695,177.913,-1.4502,88.7915,2876
1582030673,471.711,-9.15293,41.9695,177.913,-1.4502,88.7915,2876
1582030673,471.711,-9.15293,41.9695,177.913,-1.4502,88.7915,2876
1582030673,471.711,-9.15293,41.9695,177.913,-1.4502,88.7915,2876
1582030673,471.711,-9.15293,41.9695,177.913,-1.4502,88.7915,2876
1582030673,471.711,-9.15293,41.9695,177.913,-1.4502,88.7915,2876
1582030673,471.711,-9.15293,41.9695,177.913,-1.4502,88.7915,2876
1582030673,471.711,-9.15293,41.9695,177.913,-1.4502,88.7915,2880
1582030673,471.711,-9.15293,41.9695,177.913,-1.4502,88.7915,2880
1582030673,471.711,-9.15293,41.9695,177.913,-1.4502,88.7915,2880
1582030673,471.711,-9.15293,41.9695,177.913,-1.4502,88.7915,2880
1582030673,471.711,-9.15293,41.9695,177.913,-1.4502,88.7915,2880
1582030673,471.711,-9.15293,41.9695,177.913,-1.4502,88.7915,2880
1582030673,471.711,-9.15293,41.9695,177.913,-1.4502,88.7915,2880
1582030673,471.711,-9.15293,41.9695,177.913,-1.4502,88.7915,2880
1582030673,471.711,-9.15293,41.9695,177.913,-1.4502,88.7915,2880
1582030673,471.711,-9.15293,41.9695,177.913,-1.4502,88.7915,2880
1582030673,471.711,-9.15293,41.9695,177.913,-1.4502,88.7915,2880
1582030673,471.711,-9.15293,41.9695,177.913,-1.4502,88.7915,2876
1582030673,471.711,-9.15293,41.9695,177.913,-1.47217,88.7915,2876
1582030673,471.711,-9.15293,41.9695,177.913,-1.47217,88.7915,2876
1582030673,471.711,-9.15293,41.9695,177.913,-1.47217,88.7915,2876
1582030673,471.711,-9.15293,41.9695,177.913,-1.47217,88.7915,2876
1582030673,471.711,-9.15293,41.9695,177.913,-1.47217,88.7915,2876
1582030673,471.711,-9.15293,41.9695,177.913,-1.4502,88.7915,2876
1582030673,471.711,-9.15293,41.9695,177.913,-1.4502,88.7915,2876
1582030673,471.711,-9.15293,41.9695,177.913,-1.4502,88.7915,2876
1582030673,471.711,-9.15293,41.9695,177.913,-1.4502,88.7915,2876
1582030673,471.711,-9.15293,41.9695,177.913,-1.4502,88.7915,2876
1582030673,471.711,-9.15293,41.9695,177.913,-1.4502,88.7915,2876
1582030673,471.711,-9.15293,41.9695,177.913,-1.4502,88.7915,2876
1582030673,471.711,-9.15293,41.9695,177.913,-1.4502,88.7915,2876
1582030673,471.711,-9.15293,41.9695,177.913,-1.4502,88.7915,2876
1582030673,471.711,-9.15293,41.9695,177.913,-1.4502,88.7915,2876
1582030673,471.711,-9.15293,41.9695,177.913,-1.4502,88.7915,2876
1582030673,471.711,-9.15293,41.9695,177.913,-1.4502,88.7915,2876
1582030673,471.711,-9.15293,41.9695,177.913,-1.4502,88.7915,2876
1582030673,471.711,-9.15293,41.9695,177.913,-1.4502,88.7915,2876
1582030673,471.711,-9.15293,41.9695,177.913,-1.4502,88.7915,2872
1582030673,471.711,-9.15293,41.9695,177.913,-1.4502,88.7915,2872
1582030673,471.711,-9.15293,41.9695,177.913,-1.4502,88.7915,2872
1582030673,471.711,-9.15293,41.9695,177.913,-1.4502,88.7915,2872
1582030673,471.711,-9.15293,41.9695,177.913,-1.4502,88.7915,2872
1582030673,471.711,-9.15293,41.9695,177.913,-1.4502,88.7915,2872
1582030673,471.711,-9.15293,41.9695,177.913,-1.4502,88.7915,2872
1582030673,471.711,-9.15293,41.9695,177.913,-1.4502,88.7915,2872
1582030673,471.711,-9.15293,41.9695,177.913,-1.4502,88.7915,2872
1582030673,471.711,-9.15293,41.9695,177.913,-1.4502,88.7915,2872
1582030673,471.711,-9.15293,41.9695,177.913,-1.4502,88.7915,2872
1582030673,471.711,-9.15293,41.9695,177.913,-1.4502,88.7915,2872
1582030673,471.711,-9.15293,41.9695,177.913,-1.4502,88.7915,2872
1582030673,471.711,-9.15293,41.9695,177.913,-1.4502,88.7915,2872
1582030673,471.711,-9.15293,41.9695,177.913,-1.4502,88.7915,2872
1582030673,471.711,-9.15293,41.9695,177.913,-1.4502,88.7915,2872
1582030673,471.711,-9.15293,41.9695,177.913,-1.4502,88.7915,2872
1582030673,471.711,-9.15293,41.9695,177.913,-1.4502,88.7915,2872
1582030673,471.711,-9.15293,41.9695,177.913,-1.4502,88.7915,2872
1582030673,471.711,-9.15293,41.9695,177.913,-1.4502,88.7915,2872
1582030673,471.711,-9.15293,41.9695,177.913,-1.4502,88.7915,2872
1582030673,471.711,-9.15293,41.9695,177.913,-1.4502,88.7915,2872
1582030673,471.711,-9.15293,41.9695,177.913,-1.4502,88.7915,2872
1582030673,471.711,-9.15293,41.9695,177.913,-1.4502,88.7915,2872
1582030673,471.711,-9.15293,41.9695,177.913,-1.4502,88.7915,2872
1582030673,471.711,-9.15293,41.9695,177.913,-1.4502,88.7915,2872
1582030673,471.711,-9.15293,41.9695,177.913,-1.47217,88.7915,2872
1582030674,471.711,-9.15293,41.9695,177.913,-1.4502,88.7915,2872
1582030674,471.711,-9.15293,41.9695,177.913,-1.4502,88.7915,2872
1582030674,471.711,-9.15293,41.9695,177.913,-1.4502,88.7915,2872
1582030674,471.711,-9.15293,41.9695,177.913,-1.4502,88.7915,2872
1582030674,471.711,-9.15293,41.9695,177.913,-1.4502,88.7915,2872
1582030674,471.711,-9.15293,41.9695,177.913,-1.4502,88.7915,2872
1582030674,471.711,-9.15293,41.9695,177.913,-1.4502,88.7915,2872
1582030674,471.711,-9.15293,41.9695,177.913,-1.4502,88.7915,2872
1582030674,471.711,-9.15293,41.9695,177.913,-1.4502,88.7915,2872
1582030674,471.711,-9.15293,41.9695,177.913,-1.4502,88.7915,2872
1582030674,471.711,-9.15293,41.9695,177.913,-1.4502,88.7915,2872
1582030674,471.711,-9.15293,41.9695,177.913,-1.4502,88.7915,2872
1582030674,471.711,-9.15293,41.9695,177.913,-1.47217,88.7915,2872
1582030674,471.711,-9.15293,41.9695,177.913,-1.47217,88.7915,2872
1582030674,471.711,-9.15293,41.9695,177.913,-1.47217,88.7915,2872
1582030674,471.711,-9.15293,41.9695,177.913,-1.47217,88.7915,2872
1582030674,471.711,-9.15293,41.9695,177.913,-1.47217,88.7915,2872
1582030674,471.711,-9.15293,41.9695,177.913,-1.47217,88.7915,2872
1582030674,471.711,-9.15293,41.9695,177.913,-1.47217,88.7915,2872
1582030674,471.711,-9.15293,41.9695,177.913,-1.47217,88.7915,2872
1582030674,471.711,-9.15293,41.9695,177.913,-1.47217,88.7915,2872
1582030674,471.711,-9.15293,41.9695,177.913,-1.47217,88.7915,2872
1582030674,471.711,-9.15293,41.9695,177.913,-1.47217,88.7915,2872
1582030674,471.711,-9.15293,41.9695,177.913,-1.47217,88.7915,2872
1582030674,471.711,-9.15293,41.9695,177.913,-1.47217,88.7915,2872
1582030674,471.711,-9.15293,41.9695,177.913,-1.47217,88.7915,2872
1582030674,471.711,-9.15293,41.9695,177.913,-1.47217,88.7915,2872
1582030674,471.711,-9.15293,41.9695,177.913,-1.47217,88.7915,2872
1582030674,471.711,-9.15293,41.9695,177.913,-1.47217,88.7915,2872
1582030674,471.711,-9.15293,41.9695,177.913,-1.47217,88.7915,2872
1582030674,471.711,-9.15293,41.9695,177.913,-1.47217,88.7915,2872
1582030674,471.711,-9.15293,41.9695,177.913,-1.4502,88.7915,2872
1582030674,471.711,-9.15293,41.9695,177.935,-1.4502,88.7915,2872
1582030674,471.711,-9.15293,41.9695,177.935,-1.4502,88.7915,2872
1582030674,471.711,-9.15293,41.9695,177.935,-1.4502,88.7915,2872
1582030674,471.711,-9.15293,41.9695,177.935,-1.4502,88.7915,2872
1582030674,471.711,-9.15293,41.9695,177.935,-1.4502,88.7915,2872
1582030674,471.711,-9.15293,41.9695,177.935,-1.4502,88.7915,2872
1582030674,471.711,-9.15293,41.9695,177.935,-1.47217,88.7915,2872
