time,x,y,z,ax,ay,az,q
1569938588,329.282,153.479,-16.4083,178.286,1.34033,-145.173,352
1569938588,329.282,153.479,-16.4083,178.286,1.34033,-145.173,352
1569938588,329.282,153.479,-16.4083,178.286,1.34033,-145.173,352
1569938588,329.282,153.479,-16.4083,178.286,1.34033,-145.173,352
1569938588,329.282,153.479,-16.4083,178.286,1.34033,-145.173,352
1569938588,329.282,153.479,-16.4083,178.286,1.34033,-145.173,352
1569938588,329.282,153.479,-16.4083,178.264,1.31836,-145.173,352
1569938588,329.282,153.479,-16.4083,178.264,1.31836,-145.173,352
1569938588,329.282,153.479,-16.5199,178.264,1.31836,-145.173,352
1569938588,329.282,153.479,-16.5199,178.264,1.31836,-145.173,348
1569938588,329.282,153.479,-16.5199,178.264,1.31836,-145.173,352
1569938588,329.282,153.479,-16.4083,178.264,1.31836,-145.173,352
1569938588,329.282,153.479,-16.4083,178.264,1.31836,-145.173,352
1569938588,329.282,153.479,-16.4083,178.264,1.31836,-145.173,352
1569938588,329.282,153.479,-16.4083,178.264,1.34033,-145.173,352
1569938588,329.282,153.479,-16.4083,178.264,1.34033,-145.173,352
1569938588,329.282,153.479,-16.4083,178.264,1.34033,-145.173,352
1569938588,329.282,153.479,-16.4083,178.264,1.34033,-145.173,352
1569938588,329.282,153.479,-16.4083,178.264,1.34033,-145.173,352
1569938588,329.282,153.479,-16.4083,178.264,1.34033,-145.173,356
1569938588,329.282,153.479,-16.4083,178.264,1.34033,-145.173,356
1569938588,329.282,153.479,-16.4083,178.286,1.34033,-145.195,356
1569938588,329.282,153.479,-16.4083,178.286,1.34033,-145.195,356
1569938588,329.282,153.479,-16.4083,178.264,1.34033,-145.195,356
1569938588,329.282,153.479,-16.4083,178.264,1.31836,-145.173,356
1569938588,329.282,153.479,-16.4083,178.264,1.31836,-145.173,360
1569938588,329.282,153.479,-16.4083,178.264,1.31836,-145.173,360
1569938588,329.282,153.479,-16.4083,178.264,1.31836,-145.173,360
1569938588,329.282,153.479,-16.4083,178.264,1.31836,-145.173,360
1569938588,329.282,153.479,-16.4083,178.264,1.31836,-145.173,360
1569938588,329.282,153.479,-16.4083,178.264,1.31836,-145.173,360
1569938588,329.282,153.479,-16.4083,178.264,1.31836,-145.173,364
1569938588,329.282,153.479,-16.4083,178.264,1.31836,-145.173,364
1569938588,329.282,153.479,-16.4083,178.264,1.31836,-145.173,364
1569938588,329.282,153.479,-16.4083,178.264,1.34033,-145.173,364
1569938588,329.282,153.479,-16.4083,178.264,1.34033,-145.173,364
1569938588,329.282,153.479,-16.4083,178.264,1.34033,-145.173,360
1569938588,329.282,153.479,-16.4083,178.264,1.34033,-145.173,360
1569938588,329.282,153.479,-16.4083,178.264,1.34033,-145.173,360
1569938588,329.282,153.479,-16.4083,178.264,1.34033,-145.173,360
1569938588,329.282,153.479,-16.4083,178.264,1.34033,-145.173,360
1569938588,329.282,153.479,-16.4083,178.264,1.34033,-145.173,360
1569938588,329.282,153.479,-16.4083,178.264,1.34033,-145.173,360
1569938588,329.282,153.479,-16.4083,178.264,1.34033,-145.173,356
1569938588,329.282,153.479,-16.4083,178.264,1.34033,-145.173,356
1569938588,329.282,153.479,-16.4083,178.264,1.34033,-145.173,356
1569938588,329.282,153.479,-16.4083,178.264,1.34033,-145.173,356
1569938589,329.282,153.479,-16.4083,178.264,1.34033,-145.173,356
1569938589,329.282,153.479,-16.4083,178.264,1.34033,-145.173,356
1569938589,329.282,153.479,-16.4083,178.264,1.34033,-145.173,356
1569938589,329.282,153.479,-16.4083,178.264,1.34033,-145.173,356
1569938589,329.282,153.479,-16.4083,178.264,1.34033,-145.173,356
1569938589,329.282,153.479,-16.4083,178.264,1.34033,-145.173,356
1569938589,329.282,153.479,-16.4083,178.264,1.34033,-145.173,356
1569938589,329.282,153.479,-16.4083,178.242,1.34033,-145.173,356
1569938589,329.282,153.479,-16.4083,178.264,1.34033,-145.195,352
1569938589,329.282,153.479,-16.4083,178.242,1.34033,-145.195,352
1569938589,329.282,153.479,-16.4083,178.242,1.34033,-145.195,352
1569938589,329.282,153.479,-16.4083,178.242,1.34033,-145.195,352
1569938589,329.282,153.479,-16.4083,178.242,1.34033,-145.195,352
1569938589,329.282,153.479,-16.4083,178.242,1.34033,-145.195,352
1569938589,329.282,153.479,-16.4083,178.242,1.34033,-145.195,352
1569938589,329.282,153.367,-16.4083,178.242,1.34033,-145.195,352
1569938589,329.282,153.367,-16.4083,178.242,1.34033,-145.173,352
1569938589,329.282,153.367,-16.4083,178.242,1.34033,-145.173,352
1569938589,329.282,153.367,-16.4083,178.242,1.34033,-145.173,352
1569938589,329.282,153.367,-16.4083,178.242,1.34033,-145.173,352
1569938589,329.282,153.367,-16.4083,178.242,1.3623,-145.173,352
1569938589,329.282,153.367,-16.2967,178.242,1.3623,-145.173,352
1569938589,329.282,153.367,-16.2967,178.22,1.3623,-145.173,352
1569938589,329.282,153.367,-16.2967,178.22,1.3623,-145.173,348
1569938589,329.282,153.367,-16.2967,178.22,1.3623,-145.173,348
1569938589,329.282,153.367,-16.2967,178.22,1.3623,-145.173,348
1569938589,329.282,153.367,-16.2967,178.22,1.3623,-145.173,348
1569938589,329.282,153.367,-16.2967,178.22,1.3623,-145.173,348
1569938589,329.282,153.367,-16.2967,178.22,1.3623,-145.173,348
1569938589,329.282,153.367,-16.2967,178.242,1.3623,-145.173,348
1569938589,329.282,153.367,-16.2967,178.242,1.3623,-145.173,348
1569938589,329.282,153.367,-16.2967,178.242,1.3623,-145.173,352
1569938589,329.282,153.367,-16.2967,178.242,1.3623,-145.173,352
1569938589,329.282,153.367,-16.4083,178.242,1.3623,-145.173,352
1569938589,329.282,153.367,-16.4083,178.242,1.3623,-145.173,352
1569938589,329.282,153.479,-16.4083,178.242,1.3623,-145.173,352
1569938589,329.282,153.479,-16.4083,178.242,1.3623,-145.173,352
1569938589,329.282,153.479,-16.4083,178.242,1.3623,-145.173,352
1569938589,329.282,153.479,-16.4083,178.242,1.3623,-145.173,356
1569938589,329.282,153.479,-16.4083,178.242,1.3623,-145.173,356
1569938589,329.282,153.479,-16.4083,178.264,1.3623,-145.173,356
1569938589,329.282,153.479,-16.4083,178.264,1.34033,-145.173,356
1569938589,329.282,153.479,-16.4083,178.264,1.34033,-145.173,356
1569938589,329.282,153.479,-16.4083,178.264,1.34033,-145.173,356
1569938589,329.282,153.479,-16.4083,178.264,1.3623,-145.173,356
1569938589,329.282,153.479,-16.4083,178.264,1.34033,-145.173,356
1569938589,329.282,153.479,-16.4083,178.264,1.34033,-145.173,360
1569938589,329.282,153.479,-16.4083,178.264,1.34033,-145.173,360
1569938589,329.282,153.479,-16.4083,178.264,1.34033,-145.173,360
1569938589,329.282,153.479,-16.4083,178.264,1.34033,-145.173,360
1569938589,329.282,153.479,-16.4083,178.264,1.34033,-145.173,360
1569938589,329.282,153.479,-16.4083,178.264,1.34033,-145.173,360
1569938589,329.282,153.479,-16.4083,178.264,1.34033,-145.173,360
1569938589,329.282,153.479,-16.4083,178.264,1.34033,-145.173,360
1569938589,329.282,153.479,-16.4083,178.264,1.34033,-145.173,360
1569938589,329.282,153.479,-16.4083,178.264,1.34033,-145.173,360
1569938589,329.282,153.479,-16.4083,178.264,1.34033,-145.173,360
1569938589,329.282,153.479,-16.4083,178.264,1.34033,-145.173,360
1569938589,329.282,153.479,-16.4083,178.264,1.34033,-145.173,360
1569938589,329.282,153.479,-16.4083,178.264,1.34033,-145.173,360
1569938589,329.282,153.479,-16.4083,178.264,1.34033,-145.173,360
1569938589,329.282,153.479,-16.4083,178.264,1.34033,-145.173,360
1569938589,329.282,153.479,-16.4083,178.264,1.34033,-145.173,360
1569938589,329.282,153.479,-16.4083,178.264,1.34033,-145.173,360
1569938589,329.282,153.479,-16.4083,178.264,1.31836,-145.173,360
1569938589,329.282,153.479,-16.4083,178.264,1.31836,-145.173,360
1569938589,329.282,153.479,-16.4083,178.264,1.31836,-145.173,360
1569938589,329.282,153.479,-16.4083,178.264,1.31836,-145.173,360
1569938589,329.282,153.479,-16.4083,178.264,1.31836,-145.195,360
1569938589,329.282,153.479,-16.4083,178.264,1.31836,-145.195,360
1569938589,329.282,153.479,-16.4083,178.264,1.31836,-145.195,360
1569938589,329.282,153.479,-16.4083,178.264,1.31836,-145.195,364
1569938589,329.282,153.479,-16.4083,178.264,1.31836,-145.195,364
1569938589,329.282,153.479,-16.4083,178.264,1.31836,-145.195,364
1569938589,329.282,153.479,-16.4083,178.242,1.31836,-145.195,364
1569938589,329.282,153.479,-16.4083,178.242,1.31836,-145.195,364
1569938589,329.282,153.367,-16.4083,178.242,1.31836,-145.195,364
1569938589,329.282,153.367,-16.4083,178.242,1.31836,-145.195,364
1569938589,329.282,153.367,-16.4083,178.242,1.31836,-145.195,364
1569938589,329.282,153.367,-16.4083,178.242,1.31836,-145.195,364
1569938589,329.282,153.367,-16.4083,178.242,1.31836,-145.195,364
1569938589,329.282,153.367,-16.4083,178.242,1.31836,-145.195,364
1569938589,329.282,153.367,-16.4083,178.242,1.31836,-145.195,364
1569938589,329.282,153.367,-16.4083,178.242,1.31836,-145.195,364
1569938589,329.282,153.367,-16.4083,178.242,1.31836,-145.195,364
1569938589,329.282,153.367,-16.4083,178.242,1.34033,-145.195,364
1569938589,329.282,153.367,-16.4083,178.242,1.34033,-145.195,364
1569938589,329.282,153.367,-16.4083,178.242,1.34033,-145.195,364
1569938589,329.282,153.367,-16.4083,178.242,1.34033,-145.195,364
1569938589,329.282,153.367,-16.4083,178.242,1.34033,-145.195,364
1569938589,329.282,153.367,-16.4083,178.242,1.34033,-145.195,364
1569938589,329.282,153.367,-16.4083,178.242,1.34033,-145.195,364
1569938589,329.282,153.367,-16.4083,178.242,1.34033,-145.195,360
1569938589,329.282,153.367,-16.4083,178.242,1.34033,-145.195,360
1569938589,329.282,153.479,-16.4083,178.242,1.34033,-145.195,360
1569938589,329.282,153.479,-16.4083,178.242,1.3623,-145.195,360
1569938589,329.282,153.479,-16.4083,178.242,1.3623,-145.195,360
1569938589,329.282,153.479,-16.4083,178.242,1.3623,-145.195,360
1569938589,329.282,153.479,-16.4083,178.242,1.3623,-145.195,360
1569938589,329.282,153.479,-16.4083,178.242,1.3623,-145.195,356
1569938590,329.282,153.479,-16.4083,178.242,1.3623,-145.195,356
1569938590,329.282,153.479,-16.4083,178.264,1.3623,-145.195,356
1569938590,329.282,153.479,-16.4083,178.264,1.3623,-145.195,356
1569938590,329.282,153.479,-16.4083,178.264,1.3623,-145.195,356
1569938590,329.282,153.479,-16.2967,178.264,1.3623,-145.195,352
1569938590,329.282,153.479,-16.2967,178.264,1.3623,-145.195,352
1569938590,329.282,153.479,-16.2967,178.264,1.3623,-145.195,352
1569938590,329.282,153.479,-16.2967,178.264,1.3623,-145.195,352
1569938590,329.282,153.479,-16.2967,178.264,1.3623,-145.195,348
1569938590,329.282,153.479,-16.2967,178.264,1.3623,-145.195,348
1569938590,329.282,153.479,-16.2967,178.264,1.3623,-145.195,348
1569938590,329.282,153.479,-16.2967,178.264,1.3623,-145.195,348
1569938590,329.282,153.479,-16.2967,178.264,1.3623,-145.195,348
1569938590,329.282,153.479,-16.2967,178.264,1.3623,-145.195,348
1569938590,329.282,153.479,-16.2967,178.264,1.3623,-145.195,348
1569938590,329.282,153.479,-16.2967,178.264,1.3623,-145.195,348
1569938590,329.282,153.479,-16.2967,178.264,1.3623,-145.195,348
1569938590,329.282,153.479,-16.2967,178.264,1.3623,-145.195,348
1569938590,329.282,153.479,-16.2967,178.264,1.3623,-145.195,348
1569938590,329.282,153.367,-16.2967,178.242,1.3623,-145.195,348
1569938590,329.282,153.367,-16.2967,178.242,1.3623,-145.195,348
1569938590,329.282,153.367,-16.4083,178.242,1.3623,-145.195,348
1569938590,329.282,153.367,-16.4083,178.242,1.3623,-145.195,348
1569938590,329.282,153.367,-16.4083,178.242,1.3623,-145.195,348
1569938590,329.282,153.367,-16.4083,178.242,1.3623,-145.195,352
1569938590,329.282,153.367,-16.4083,178.242,1.3623,-145.195,352
1569938590,329.282,153.367,-16.4083,178.242,1.3623,-145.195,352
1569938590,329.282,153.367,-16.4083,178.242,1.3623,-145.173,352
1569938590,329.282,153.367,-16.4083,178.242,1.3623,-145.173,352
1569938590,329.282,153.367,-16.4083,178.242,1.3623,-145.173,352
1569938590,329.282,153.367,-16.4083,178.242,1.3623,-145.173,352
1569938590,329.282,153.367,-16.4083,178.242,1.3623,-145.173,352
1569938590,329.282,153.367,-16.4083,178.242,1.3623,-145.173,356
1569938590,329.282,153.367,-16.4083,178.242,1.3623,-145.173,356
1569938590,329.282,153.367,-16.4083,178.242,1.3623,-145.173,356
1569938590,329.282,153.367,-16.4083,178.242,1.3623,-145.173,356
1569938590,329.282,153.367,-16.4083,178.242,1.3623,-145.173,356
1569938590,329.282,153.367,-16.4083,178.242,1.3623,-145.173,356
1569938590,329.282,153.367,-16.4083,178.242,1.3623,-145.151,356
1569938590,329.282,153.367,-16.4083,178.242,1.3623,-145.151,356
1569938590,329.282,153.367,-16.4083,178.242,1.3623,-145.151,356
1569938590,329.282,153.367,-16.4083,178.242,1.3623,-145.151,356
1569938590,329.282,153.367,-16.4083,178.242,1.3623,-145.151,356
1569938590,329.282,153.367,-16.4083,178.242,1.3623,-145.151,356
1569938590,329.282,153.367,-16.4083,178.22,1.3623,-145.151,356
1569938590,329.282,153.367,-16.4083,178.22,1.3623,-145.151,356
1569938590,329.282,153.367,-16.4083,178.22,1.3623,-145.151,356
1569938590,329.282,153.367,-16.4083,178.22,1.3623,-145.151,356
1569938590,329.282,153.367,-16.4083,178.22,1.3623,-145.173,356
1569938590,329.282,153.367,-16.4083,178.22,1.3623,-145.173,356
1569938590,329.282,153.367,-16.4083,178.22,1.3623,-145.173,356
1569938590,329.282,153.367,-16.4083,178.22,1.3623,-145.173,356
1569938590,329.282,153.367,-16.4083,178.22,1.3623,-145.173,360
1569938590,329.282,153.367,-16.4083,178.22,1.3623,-145.173,360
1569938590,329.282,153.367,-16.4083,178.22,1.3623,-145.173,360
1569938590,329.282,153.367,-16.4083,178.22,1.3623,-145.173,360
1569938590,329.282,153.367,-16.4083,178.22,1.3623,-145.173,360
1569938590,329.282,153.367,-16.4083,178.22,1.34033,-145.173,360
1569938590,329.282,153.367,-16.4083,178.22,1.34033,-145.173,360
1569938590,329.282,153.367,-16.4083,178.242,1.34033,-145.173,360
1569938590,329.171,153.367,-16.4083,178.242,1.34033,-145.173,360
1569938590,329.171,153.367,-16.4083,178.242,1.34033,-145.173,364
1569938590,329.171,153.367,-16.4083,178.242,1.34033,-145.173,364
1569938590,329.171,153.367,-16.4083,178.242,1.34033,-145.173,364
1569938590,329.171,153.367,-16.4083,178.242,1.34033,-145.173,364
1569938590,329.171,153.367,-16.4083,178.242,1.34033,-145.173,364
1569938590,329.171,153.367,-16.4083,178.242,1.34033,-145.173,364
1569938590,329.171,153.367,-16.4083,178.242,1.34033,-145.173,364
1569938590,329.171,153.367,-16.4083,178.242,1.34033,-145.173,364
1569938590,329.171,153.367,-16.4083,178.242,1.34033,-145.173,368
1569938590,329.171,153.367,-16.4083,178.264,1.34033,-145.173,368
1569938590,329.171,153.367,-16.4083,178.264,1.34033,-145.173,368
1569938590,329.171,153.367,-16.4083,178.264,1.34033,-145.173,368
1569938590,329.171,153.367,-16.4083,178.264,1.34033,-145.173,368
1569938590,329.171,153.367,-16.4083,178.264,1.34033,-145.173,368
1569938590,329.171,153.367,-16.4083,178.264,1.34033,-145.173,368
1569938590,329.171,153.367,-16.4083,178.264,1.34033,-145.173,368
1569938590,329.171,153.367,-16.4083,178.264,1.34033,-145.173,368
1569938590,329.171,153.367,-16.4083,178.264,1.34033,-145.173,368
1569938590,329.171,153.367,-16.4083,178.264,1.31836,-145.173,368
1569938590,329.171,153.367,-16.4083,178.242,1.31836,-145.173,368
1569938590,329.171,153.367,-16.5199,178.242,1.31836,-145.173,368
1569938590,329.171,153.367,-16.5199,178.242,1.31836,-145.173,368
1569938590,329.282,153.367,-16.5199,178.242,1.31836,-145.173,368
1569938590,329.282,153.367,-16.5199,178.242,1.31836,-145.173,368
1569938590,329.282,153.367,-16.5199,178.242,1.31836,-145.173,368
1569938590,329.282,153.367,-16.5199,178.242,1.31836,-145.173,368
1569938590,329.282,153.367,-16.5199,178.242,1.31836,-145.173,368
1569938590,329.282,153.367,-16.5199,178.242,1.31836,-145.173,368
1569938590,329.282,153.367,-16.5199,178.242,1.31836,-145.173,368
1569938590,329.282,153.367,-16.5199,178.242,1.31836,-145.173,368
1569938590,329.282,153.367,-16.5199,178.242,1.31836,-145.173,364
1569938590,329.282,153.367,-16.5199,178.242,1.31836,-145.173,364
1569938590,329.282,153.367,-16.5199,178.242,1.31836,-145.173,364
1569938590,329.282,153.367,-16.5199,178.22,1.31836,-145.173,364
1569938590,329.282,153.367,-16.5199,178.242,1.31836,-145.173,364
1569938590,329.282,153.367,-16.5199,178.242,1.31836,-145.173,364
1569938590,329.282,153.367,-16.5199,178.242,1.31836,-145.173,364
1569938590,329.282,153.367,-16.5199,178.242,1.31836,-145.173,364
1569938590,329.282,153.367,-16.5199,178.242,1.31836,-145.173,360
1569938591,329.282,153.367,-16.5199,178.242,1.31836,-145.173,360
1569938591,329.282,153.367,-16.5199,178.242,1.31836,-145.173,360
1569938591,329.282,153.367,-16.5199,178.242,1.31836,-145.173,360
1569938591,329.282,153.367,-16.4083,178.242,1.31836,-145.173,360
1569938591,329.282,153.367,-16.4083,178.242,1.31836,-145.173,360
1569938591,329.282,153.367,-16.4083,178.242,1.31836,-145.173,360
1569938591,329.282,153.367,-16.5199,178.242,1.31836,-145.173,360
1569938591,329.282,153.367,-16.5199,178.242,1.31836,-145.173,360
1569938591,329.282,153.367,-16.5199,178.242,1.31836,-145.173,360
1569938591,329.282,153.367,-16.5199,178.242,1.31836,-145.173,360
1569938591,329.282,153.367,-16.5199,178.242,1.31836,-145.173,360
1569938591,329.282,153.367,-16.5199,178.242,1.31836,-145.173,360
1569938591,329.282,153.367,-16.5199,178.242,1.31836,-145.173,360
1569938591,329.282,153.367,-16.5199,178.242,1.31836,-145.173,360
1569938591,329.282,153.367,-16.5199,178.242,1.31836,-145.173,360
1569938591,329.282,153.367,-16.5199,178.242,1.31836,-145.173,360
1569938591,329.282,153.367,-16.5199,178.242,1.31836,-145.173,360
1569938591,329.282,153.367,-16.5199,178.242,1.31836,-145.173,360
1569938591,329.282,153.367,-16.5199,178.242,1.31836,-145.173,364
1569938591,329.282,153.367,-16.5199,178.242,1.31836,-145.173,364
1569938591,329.282,153.367,-16.5199,178.242,1.31836,-145.173,364
1569938591,329.171,153.367,-16.5199,178.242,1.31836,-145.173,364
1569938591,329.171,153.367,-16.5199,178.242,1.31836,-145.173,364
1569938591,329.171,153.367,-16.5199,178.242,1.31836,-145.173,364
1569938591,329.171,153.367,-16.5199,178.242,1.31836,-145.173,364
1569938591,329.171,153.367,-16.5199,178.242,1.31836,-145.173,364
1569938591,329.171,153.367,-16.5199,178.242,1.31836,-145.173,364
1569938591,329.171,153.367,-16.5199,178.242,1.31836,-145.173,364
1569938591,329.282,153.367,-16.5199,178.242,1.31836,-145.173,364
1569938591,329.282,153.367,-16.5199,178.242,1.31836,-145.173,364
1569938591,329.282,153.367,-16.5199,178.242,1.31836,-145.173,364
1569938591,329.282,153.367,-16.5199,178.242,1.31836,-145.173,364
1569938591,329.282,153.479,-16.5199,178.242,1.31836,-145.173,364
1569938591,329.282,153.479,-16.5199,178.242,1.31836,-145.173,360
1569938591,329.282,153.479,-16.5199,178.242,1.31836,-145.173,360
1569938591,329.282,153.479,-16.5199,178.242,1.31836,-145.173,360
1569938591,329.282,153.479,-16.5199,178.264,1.31836,-145.173,360
1569938591,329.282,153.479,-16.5199,178.264,1.31836,-145.173,360
1569938591,329.282,153.479,-16.5199,178.264,1.31836,-145.173,356
1569938591,329.282,153.479,-16.4083,178.264,1.31836,-145.173,356
1569938591,329.282,153.479,-16.4083,178.264,1.31836,-145.173,356
1569938591,329.282,153.479,-16.4083,178.264,1.31836,-145.195,356
1569938591,329.282,153.479,-16.4083,178.264,1.31836,-145.195,352
1569938591,329.282,153.479,-16.4083,178.264,1.31836,-145.195,352
1569938591,329.282,153.479,-16.4083,178.264,1.31836,-145.195,352
1569938591,329.282,153.479,-16.4083,178.264,1.31836,-145.195,348
1569938591,329.282,153.479,-16.4083,178.264,1.31836,-145.195,348
1569938591,329.282,153.479,-16.4083,178.264,1.31836,-145.195,348
1569938591,329.282,153.479,-16.4083,178.264,1.31836,-145.195,344
1569938591,329.282,153.479,-16.4083,178.264,1.31836,-145.195,344
1569938591,329.282,153.479,-16.4083,178.264,1.31836,-145.195,344
1569938591,329.282,153.479,-16.5199,178.264,1.31836,-145.195,344
1569938591,329.282,153.479,-16.5199,178.264,1.31836,-145.195,344
1569938591,329.282,153.479,-16.5199,178.242,1.31836,-145.173,340
1569938591,329.394,153.479,-16.4083,178.242,1.31836,-145.173,340
1569938591,329.394,153.479,-16.4083,178.242,1.31836,-145.173,340
1569938591,329.394,153.479,-16.4083,178.242,1.31836,-145.173,340
1569938591,329.394,153.479,-16.4083,178.242,1.31836,-145.173,340
1569938591,329.394,153.367,-16.4083,178.242,1.31836,-145.173,340
1569938591,329.394,153.367,-16.4083,178.242,1.31836,-145.173,340
1569938591,329.394,153.367,-16.4083,178.242,1.31836,-145.173,344
1569938591,329.394,153.367,-16.4083,178.22,1.31836,-145.173,344
1569938591,329.394,153.367,-16.4083,178.22,1.31836,-145.173,344
1569938591,329.394,153.367,-16.4083,178.22,1.31836,-145.173,344
1569938591,329.394,153.367,-16.4083,178.22,1.31836,-145.173,344
1569938591,329.394,153.367,-16.4083,178.22,1.31836,-145.173,344
1569938591,329.394,153.367,-16.4083,178.22,1.31836,-145.173,344
1569938591,329.394,153.367,-16.4083,178.22,1.31836,-145.173,344
1569938591,329.282,153.367,-16.4083,178.22,1.31836,-145.173,344
1569938591,329.282,153.367,-16.4083,178.22,1.31836,-145.173,344
1569938591,329.282,153.367,-16.4083,178.22,1.34033,-145.173,348
1569938591,329.282,153.367,-16.4083,178.242,1.34033,-145.173,348
1569938591,329.282,153.367,-16.4083,178.242,1.34033,-145.173,348
1569938591,329.282,153.367,-16.4083,178.242,1.34033,-145.173,348
1569938591,329.282,153.367,-16.4083,178.22,1.34033,-145.173,348
1569938591,329.282,153.367,-16.4083,178.22,1.34033,-145.173,348
1569938591,329.282,153.367,-16.4083,178.242,1.34033,-145.173,348
1569938591,329.282,153.367,-16.4083,178.242,1.34033,-145.173,348
1569938591,329.282,153.367,-16.4083,178.242,1.34033,-145.173,352
1569938591,329.282,153.367,-16.4083,178.242,1.34033,-145.173,352
1569938591,329.282,153.367,-16.4083,178.242,1.34033,-145.173,352
1569938591,329.282,153.367,-16.4083,178.242,1.34033,-145.173,352
1569938591,329.282,153.367,-16.4083,178.242,1.34033,-145.173,352
1569938591,329.282,153.367,-16.4083,178.242,1.34033,-145.173,352
1569938591,329.282,153.367,-16.4083,178.242,1.34033,-145.173,352
1569938591,329.282,153.367,-16.4083,178.264,1.31836,-145.173,352
1569938591,329.282,153.367,-16.5199,178.264,1.31836,-145.173,352
1569938591,329.282,153.479,-16.5199,178.264,1.31836,-145.173,352
1569938591,329.282,153.479,-16.5199,178.264,1.31836,-145.173,352
1569938591,329.282,153.479,-16.5199,178.264,1.31836,-145.173,352
1569938591,329.282,153.479,-16.5199,178.264,1.31836,-145.173,352
1569938591,329.282,153.479,-16.5199,178.264,1.31836,-145.173,352
1569938591,329.282,153.479,-16.5199,178.264,1.31836,-145.173,352
1569938591,329.282,153.479,-16.5199,178.264,1.31836,-145.173,356
1569938591,329.282,153.479,-16.5199,178.264,1.31836,-145.173,356
1569938591,329.282,153.479,-16.5199,178.264,1.31836,-145.173,356
1569938591,329.282,153.479,-16.5199,178.264,1.31836,-145.173,356
1569938591,329.282,153.479,-16.5199,178.264,1.31836,-145.173,356
1569938591,329.282,153.479,-16.5199,178.264,1.31836,-145.173,356
1569938591,329.282,153.479,-16.5199,178.264,1.31836,-145.173,356
1569938592,329.282,153.479,-16.5199,178.264,1.31836,-145.173,360
1569938592,329.282,153.479,-16.5199,178.264,1.31836,-145.173,360
1569938592,329.282,153.479,-16.5199,178.264,1.31836,-145.173,360
1569938592,329.282,153.479,-16.5199,178.264,1.31836,-145.173,360
1569938592,329.282,153.479,-16.5199,178.264,1.31836,-145.173,360
1569938592,329.282,153.479,-16.4083,178.264,1.31836,-145.173,360
1569938592,329.282,153.479,-16.4083,178.264,1.31836,-145.173,360
1569938592,329.282,153.479,-16.4083,178.264,1.31836,-145.173,360
1569938592,329.282,153.479,-16.4083,178.264,1.34033,-145.173,360
1569938592,329.282,153.479,-16.4083,178.264,1.34033,-145.173,360
1569938592,329.282,153.479,-16.4083,178.264,1.34033,-145.173,360
1569938592,329.282,153.479,-16.4083,178.264,1.34033,-145.173,360
1569938592,329.282,153.479,-16.4083,178.264,1.34033,-145.173,360
1569938592,329.282,153.367,-16.4083,178.264,1.34033,-145.173,360
1569938592,329.282,153.367,-16.4083,178.242,1.34033,-145.173,360
1569938592,329.282,153.367,-16.4083,178.242,1.34033,-145.173,360
1569938592,329.282,153.367,-16.4083,178.242,1.34033,-145.173,360
1569938592,329.282,153.367,-16.4083,178.242,1.34033,-145.173,360
1569938592,329.282,153.367,-16.4083,178.242,1.34033,-145.173,360
1569938592,329.282,153.367,-16.4083,178.242,1.34033,-145.173,360
1569938592,329.282,153.367,-16.4083,178.242,1.34033,-145.173,360
1569938592,329.282,153.367,-16.4083,178.242,1.34033,-145.173,360
1569938592,329.282,153.367,-16.4083,178.242,1.34033,-145.173,360
1569938592,329.282,153.367,-16.4083,178.242,1.34033,-145.151,360
1569938592,329.282,153.367,-16.4083,178.242,1.34033,-145.151,360
1569938592,329.282,153.367,-16.4083,178.242,1.34033,-145.151,360
1569938592,329.282,153.367,-16.4083,178.242,1.34033,-145.151,360
1569938592,329.282,153.367,-16.4083,178.242,1.34033,-145.151,360
1569938592,329.282,153.367,-16.4083,178.242,1.34033,-145.151,360
1569938592,329.282,153.367,-16.4083,178.242,1.34033,-145.151,360
1569938592,329.282,153.367,-16.4083,178.242,1.34033,-145.173,360
1569938592,329.282,153.367,-16.4083,178.242,1.34033,-145.173,360
1569938592,329.282,153.479,-16.4083,178.242,1.34033,-145.173,360
1569938592,329.282,153.479,-16.4083,178.242,1.34033,-145.173,356
1569938592,329.282,153.479,-16.4083,178.242,1.34033,-145.173,356
1569938592,329.282,153.479,-16.4083,178.242,1.34033,-145.173,356
1569938592,329.282,153.479,-16.4083,178.242,1.34033,-145.173,356
1569938592,329.282,153.479,-16.4083,178.242,1.34033,-145.173,352
1569938592,329.282,153.479,-16.4083,178.242,1.34033,-145.173,352
1569938592,329.282,153.479,-16.4083,178.242,1.34033,-145.173,352
1569938592,329.282,153.479,-16.4083,178.242,1.34033,-145.173,352
1569938592,329.282,153.479,-16.4083,178.242,1.34033,-145.173,352
1569938592,329.282,153.479,-16.4083,178.242,1.34033,-145.173,348
1569938592,329.282,153.479,-16.4083,178.242,1.34033,-145.173,348
1569938592,329.282,153.479,-16.4083,178.242,1.34033,-145.173,348
1569938592,329.282,153.479,-16.4083,178.242,1.34033,-145.173,348
1569938592,329.282,153.479,-16.4083,178.242,1.34033,-145.173,348
1569938592,329.282,153.479,-16.4083,178.242,1.34033,-145.173,348
1569938592,329.282,153.479,-16.4083,178.264,1.34033,-145.173,348
1569938592,329.282,153.479,-16.4083,178.264,1.34033,-145.173,348
1569938592,329.282,153.479,-16.4083,178.264,1.34033,-145.173,348
1569938592,329.282,153.479,-16.4083,178.264,1.34033,-145.173,352
1569938592,329.282,153.479,-16.4083,178.264,1.34033,-145.173,352
1569938592,329.282,153.479,-16.4083,178.264,1.34033,-145.173,352
1569938592,329.282,153.479,-16.4083,178.264,1.34033,-145.173,352
1569938592,329.282,153.479,-16.4083,178.264,1.34033,-145.173,352
1569938592,329.282,153.479,-16.4083,178.264,1.34033,-145.173,352
1569938592,329.282,153.479,-16.4083,178.264,1.34033,-145.173,352
1569938592,329.282,153.479,-16.4083,178.264,1.34033,-145.173,356
1569938592,329.282,153.479,-16.4083,178.264,1.34033,-145.173,356
1569938592,329.282,153.479,-16.4083,178.264,1.34033,-145.173,356
1569938592,329.282,153.479,-16.4083,178.264,1.34033,-145.173,356
1569938592,329.282,153.479,-16.4083,178.264,1.34033,-145.173,356
1569938592,329.282,153.479,-16.4083,178.264,1.34033,-145.173,356
1569938592,329.282,153.479,-16.4083,178.264,1.34033,-145.173,356
1569938592,329.282,153.479,-16.4083,178.264,1.34033,-145.173,360
1569938592,329.282,153.479,-16.4083,178.264,1.34033,-145.173,360
1569938592,329.282,153.479,-16.4083,178.264,1.34033,-145.173,360
1569938592,329.282,153.479,-16.4083,178.264,1.34033,-145.173,360
1569938592,329.282,153.479,-16.4083,178.264,1.34033,-145.173,360
1569938592,329.282,153.479,-16.4083,178.264,1.34033,-145.173,360
1569938592,329.282,153.479,-16.4083,178.264,1.34033,-145.173,360
1569938592,329.282,153.479,-16.4083,178.264,1.34033,-145.173,360
1569938592,329.282,153.479,-16.4083,178.264,1.34033,-145.173,360
1569938592,329.282,153.479,-16.4083,178.264,1.34033,-145.173,360
1569938592,329.282,153.479,-16.4083,178.264,1.34033,-145.173,360
1569938592,329.282,153.479,-16.4083,178.242,1.34033,-145.173,360
1569938592,329.282,153.479,-16.4083,178.242,1.34033,-145.173,360
1569938592,329.282,153.367,-16.4083,178.242,1.34033,-145.173,360
1569938592,329.282,153.367,-16.4083,178.242,1.34033,-145.173,364
1569938592,329.282,153.367,-16.4083,178.242,1.34033,-145.173,364
1569938592,329.282,153.367,-16.4083,178.242,1.34033,-145.173,364
1569938592,329.282,153.367,-16.4083,178.242,1.34033,-145.173,364
1569938592,329.282,153.367,-16.4083,178.242,1.34033,-145.173,364
1569938592,329.282,153.367,-16.4083,178.242,1.34033,-145.173,368
1569938592,329.282,153.367,-16.4083,178.242,1.34033,-145.173,368
1569938592,329.282,153.367,-16.4083,178.242,1.34033,-145.173,368
1569938592,329.282,153.367,-16.4083,178.242,1.34033,-145.173,368
1569938592,329.282,153.367,-16.4083,178.242,1.34033,-145.173,368
1569938592,329.282,153.367,-16.4083,178.242,1.34033,-145.173,372
1569938592,329.282,153.367,-16.4083,178.242,1.34033,-145.173,372
1569938592,329.282,153.367,-16.4083,178.242,1.34033,-145.173,372
1569938592,329.282,153.367,-16.4083,178.242,1.34033,-145.173,372
1569938592,329.282,153.367,-16.4083,178.242,1.3623,-145.173,372
1569938592,329.282,153.367,-16.4083,178.242,1.3623,-145.173,372
1569938592,329.282,153.367,-16.4083,178.242,1.3623,-145.173,376
1569938592,329.282,153.367,-16.4083,178.242,1.3623,-145.173,376
1569938592,329.282,153.367,-16.4083,178.242,1.3623,-145.173,376
1569938592,329.282,153.367,-16.4083,178.242,1.3623,-145.173,376
1569938592,329.282,153.367,-16.4083,178.242,1.3623,-145.173,376
1569938593,329.282,153.367,-16.4083,178.242,1.3623,-145.173,376
1569938593,329.282,153.367,-16.4083,178.242,1.3623,-145.173,376
1569938593,329.282,153.367,-16.4083,178.242,1.3623,-145.173,376
1569938593,329.282,153.367,-16.4083,178.242,1.3623,-145.173,376
1569938593,329.282,153.367,-16.4083,178.242,1.3623,-145.173,376
1569938593,329.282,153.367,-16.4083,178.242,1.3623,-145.173,376
1569938593,329.282,153.367,-16.4083,178.242,1.3623,-145.173,372
1569938593,329.282,153.367,-16.4083,178.242,1.3623,-145.173,372
1569938593,329.282,153.367,-16.4083,178.242,1.3623,-145.173,372
1569938593,329.282,153.367,-16.4083,178.242,1.3623,-145.173,372
1569938593,329.282,153.367,-16.4083,178.242,1.3623,-145.173,372
1569938593,329.282,153.367,-16.4083,178.242,1.3623,-145.173,368
1569938593,329.282,153.367,-16.4083,178.242,1.3623,-145.173,368
1569938593,329.282,153.367,-16.4083,178.242,1.3623,-145.173,368
1569938593,329.282,153.367,-16.4083,178.242,1.3623,-145.173,364
1569938593,329.282,153.367,-16.4083,178.242,1.3623,-145.173,364
1569938593,329.282,153.367,-16.4083,178.242,1.34033,-145.173,364
1569938593,329.282,153.367,-16.4083,178.242,1.34033,-145.173,364
1569938593,329.282,153.367,-16.4083,178.242,1.34033,-145.173,364
1569938593,329.282,153.367,-16.4083,178.242,1.34033,-145.173,364
1569938593,329.282,153.367,-16.4083,178.242,1.34033,-145.173,360
1569938593,329.282,153.367,-16.4083,178.242,1.34033,-145.173,360
1569938593,329.282,153.367,-16.4083,178.242,1.34033,-145.173,360
1569938593,329.282,153.367,-16.4083,178.242,1.34033,-145.173,360
1569938593,329.282,153.367,-16.4083,178.242,1.34033,-145.173,360
1569938593,329.282,153.367,-16.4083,178.242,1.34033,-145.173,360
1569938593,329.282,153.367,-16.4083,178.242,1.34033,-145.173,360
1569938593,329.282,153.367,-16.4083,178.242,1.34033,-145.173,360
1569938593,329.282,153.367,-16.4083,178.242,1.34033,-145.173,360
1569938593,329.282,153.367,-16.4083,178.242,1.34033,-145.173,364
1569938593,329.282,153.367,-16.4083,178.242,1.34033,-145.173,364
1569938593,329.282,153.367,-16.4083,178.242,1.34033,-145.173,364
1569938593,329.282,153.367,-16.4083,178.242,1.34033,-145.173,364
1569938593,329.282,153.367,-16.4083,178.242,1.34033,-145.173,364
1569938593,329.282,153.367,-16.4083,178.242,1.34033,-145.173,364
1569938593,329.282,153.367,-16.4083,178.242,1.34033,-145.173,364
1569938593,329.282,153.367,-16.4083,178.242,1.34033,-145.173,368
1569938593,329.282,153.367,-16.4083,178.242,1.34033,-145.173,368
1569938593,329.282,153.479,-16.4083,178.242,1.34033,-145.173,368
1569938593,329.282,153.479,-16.4083,178.242,1.34033,-145.173,368
1569938593,329.282,153.479,-16.4083,178.242,1.34033,-145.173,368
1569938593,329.282,153.479,-16.4083,178.242,1.34033,-145.173,368
1569938593,329.282,153.479,-16.4083,178.242,1.34033,-145.173,368
1569938593,329.282,153.367,-16.4083,178.242,1.34033,-145.173,368
1569938593,329.282,153.367,-16.4083,178.242,1.34033,-145.173,368
1569938593,329.282,153.367,-16.4083,178.242,1.34033,-145.173,368
1569938593,329.282,153.367,-16.4083,178.242,1.34033,-145.173,368
1569938593,329.282,153.367,-16.4083,178.242,1.34033,-145.173,368
1569938593,329.282,153.367,-16.4083,178.242,1.31836,-145.173,368
1569938593,329.282,153.367,-16.5199,178.242,1.31836,-145.173,368
1569938593,329.282,153.367,-16.5199,178.242,1.31836,-145.173,368
1569938593,329.282,153.367,-16.5199,178.242,1.31836,-145.173,368
1569938593,329.282,153.367,-16.5199,178.242,1.31836,-145.173,368
1569938596,344.463,136.624,-16.5199,178.242,1.09863,-144.69,388
1569938596,344.463,136.624,-16.5199,178.242,1.09863,-144.69,388
1569938596,344.463,136.624,-16.5199,178.242,1.09863,-144.69,388
1569938596,344.463,136.624,-16.5199,178.242,1.09863,-144.69,388
1569938596,344.463,136.624,-16.5199,178.242,1.12061,-144.69,388
1569938596,344.463,136.624,-16.5199,178.242,1.12061,-144.69,388
1569938596,344.463,136.624,-16.5199,178.264,1.12061,-144.69,388
1569938596,344.463,136.624,-16.5199,178.264,1.12061,-144.69,388
1569938596,344.463,136.624,-16.5199,178.264,1.12061,-144.69,384
1569938596,344.463,136.624,-16.5199,178.264,1.12061,-144.69,384
1569938596,344.463,136.624,-16.5199,178.264,1.12061,-144.69,384
1569938596,344.463,136.624,-16.5199,178.264,1.12061,-144.69,384
1569938596,344.463,136.624,-16.5199,178.264,1.12061,-144.69,384
1569938596,344.463,136.624,-16.5199,178.264,1.12061,-144.69,384
1569938596,344.463,136.624,-16.5199,178.264,1.12061,-144.69,384
1569938596,344.463,136.624,-16.5199,178.264,1.12061,-144.69,384
1569938597,344.463,136.624,-16.5199,178.242,1.09863,-144.69,384
1569938597,344.463,136.624,-16.5199,178.242,1.09863,-144.69,384
1569938597,344.463,136.624,-16.5199,178.242,1.09863,-144.69,384
1569938597,344.463,136.624,-16.5199,178.242,1.09863,-144.69,384
1569938597,344.463,136.624,-16.5199,178.242,1.09863,-144.69,384
1569938597,344.463,136.624,-16.5199,178.242,1.09863,-144.69,384
1569938597,344.463,136.624,-16.5199,178.242,1.09863,-144.69,384
1569938597,344.463,136.624,-16.5199,178.242,1.09863,-144.69,384
1569938597,344.463,136.624,-16.5199,178.242,1.09863,-144.69,384
1569938597,344.463,136.624,-16.5199,178.242,1.09863,-144.69,384
1569938597,344.463,136.624,-16.5199,178.242,1.09863,-144.69,384
1569938597,344.463,136.624,-16.5199,178.242,1.09863,-144.69,384
1569938597,344.463,136.624,-16.5199,178.242,1.09863,-144.69,384
1569938597,344.463,136.513,-16.5199,178.22,1.12061,-144.712,384
1569938597,344.463,136.513,-16.5199,178.22,1.12061,-144.712,384
1569938597,344.463,136.513,-16.4083,178.22,1.12061,-144.712,388
1569938597,344.463,136.513,-16.4083,178.22,1.12061,-144.712,388
1569938597,344.463,136.513,-16.4083,178.22,1.12061,-144.712,388
1569938597,344.463,136.513,-16.4083,178.22,1.12061,-144.712,388
1569938597,344.463,136.513,-16.4083,178.22,1.12061,-144.712,388
1569938597,344.463,136.513,-16.4083,178.22,1.14258,-144.712,388
1569938597,344.463,136.513,-16.4083,178.22,1.14258,-144.712,388
1569938597,344.463,136.513,-16.4083,178.22,1.14258,-144.712,388
1569938597,344.463,136.513,-16.4083,178.198,1.14258,-144.712,388
1569938597,344.463,136.513,-16.4083,178.198,1.14258,-144.712,388
1569938597,344.463,136.513,-16.4083,178.198,1.14258,-144.712,388
1569938597,344.463,136.513,-16.4083,178.198,1.14258,-144.712,388
1569938597,344.463,136.513,-16.4083,178.198,1.14258,-144.712,388
1569938597,344.463,136.513,-16.4083,178.22,1.14258,-144.712,388
1569938597,344.463,136.513,-16.4083,178.22,1.14258,-144.712,388
1569938597,344.463,136.513,-16.4083,178.22,1.14258,-144.712,388
1569938597,344.463,136.513,-16.4083,178.22,1.14258,-144.712,388
1569938597,344.463,136.513,-16.4083,178.22,1.14258,-144.712,388
1569938597,344.463,136.513,-16.4083,178.22,1.14258,-144.712,388
1569938597,344.463,136.513,-16.4083,178.22,1.14258,-144.712,392
1569938597,344.463,136.513,-16.4083,178.242,1.14258,-144.712,392
1569938597,344.463,136.513,-16.4083,178.242,1.14258,-144.712,392
1569938597,344.463,136.513,-16.4083,178.242,1.14258,-144.69,392
1569938597,344.463,136.513,-16.4083,178.242,1.14258,-144.69,392
1569938597,344.463,136.513,-16.4083,178.242,1.14258,-144.69,392
1569938597,344.463,136.513,-16.4083,178.242,1.14258,-144.69,396
1569938597,344.463,136.513,-16.4083,178.242,1.14258,-144.69,396
1569938597,344.463,136.513,-16.4083,178.242,1.14258,-144.69,396
1569938597,344.463,136.513,-16.4083,178.242,1.14258,-144.69,400
1569938597,344.463,136.513,-16.4083,178.242,1.14258,-144.69,400
1569938597,344.463,136.513,-16.4083,178.242,1.12061,-144.69,400
1569938597,344.463,136.513,-16.5199,178.242,1.12061,-144.69,400
1569938597,344.463,136.513,-16.5199,178.242,1.12061,-144.69,404
1569938597,344.463,136.513,-16.5199,178.242,1.12061,-144.69,404
1569938597,344.463,136.513,-16.5199,178.242,1.12061,-144.69,404
1569938597,344.463,136.513,-16.5199,178.242,1.12061,-144.69,404
1569938597,344.463,136.513,-16.5199,178.22,1.12061,-144.712,404
1569938597,344.463,136.513,-16.5199,178.22,1.12061,-144.712,400
1569938597,344.463,136.513,-16.5199,178.22,1.12061,-144.712,400
1569938597,344.463,136.513,-16.5199,178.22,1.12061,-144.712,400
1569938597,344.463,136.513,-16.4083,178.22,1.12061,-144.712,400
1569938597,344.463,136.513,-16.4083,178.22,1.12061,-144.712,400
1569938597,344.463,136.513,-16.4083,178.22,1.12061,-144.712,400
1569938597,344.463,136.513,-16.4083,178.22,1.12061,-144.712,400
1569938597,344.463,136.513,-16.4083,178.22,1.14258,-144.712,400
1569938597,344.463,136.513,-16.4083,178.22,1.14258,-144.712,400
1569938597,344.463,136.513,-16.4083,178.22,1.14258,-144.712,400
1569938597,344.463,136.513,-16.4083,178.242,1.14258,-144.712,400
1569938597,344.463,136.513,-16.4083,178.242,1.14258,-144.712,400
1569938597,344.463,136.513,-16.4083,178.242,1.14258,-144.69,400
1569938597,344.463,136.624,-16.4083,178.242,1.14258,-144.69,400
1569938597,344.463,136.624,-16.4083,178.242,1.14258,-144.69,400
1569938597,344.463,136.624,-16.4083,178.242,1.14258,-144.69,400
1569938597,344.463,136.624,-16.4083,178.242,1.14258,-144.69,396
1569938597,344.463,136.624,-16.4083,178.242,1.14258,-144.69,396
1569938597,344.463,136.624,-16.4083,178.242,1.14258,-144.69,396
1569938597,344.463,136.624,-16.4083,178.242,1.14258,-144.69,396
1569938597,344.463,136.513,-16.4083,178.242,1.14258,-144.69,396
1569938597,344.463,136.513,-16.4083,178.242,1.14258,-144.69,396
1569938597,344.463,136.513,-16.4083,178.242,1.14258,-144.69,396
1569938597,344.463,136.513,-16.4083,178.242,1.14258,-144.69,392
1569938597,344.463,136.513,-16.4083,178.242,1.14258,-144.69,392
1569938597,344.463,136.513,-16.4083,178.22,1.14258,-144.69,392
1569938597,344.463,136.513,-16.4083,178.22,1.14258,-144.69,392
1569938597,344.463,136.513,-16.4083,178.22,1.14258,-144.69,392
1569938597,344.463,136.513,-16.4083,178.22,1.14258,-144.69,392
1569938597,344.463,136.513,-16.4083,178.22,1.12061,-144.69,392
1569938597,344.463,136.513,-16.4083,178.22,1.12061,-144.69,392
1569938597,344.463,136.513,-16.5199,178.22,1.12061,-144.69,388
1569938597,344.463,136.513,-16.5199,178.22,1.12061,-144.69,388
1569938597,344.463,136.513,-16.5199,178.22,1.12061,-144.69,388
1569938597,344.463,136.513,-16.5199,178.22,1.12061,-144.69,388
1569938597,344.463,136.513,-16.5199,178.22,1.12061,-144.69,388
1569938597,344.463,136.513,-16.5199,178.22,1.12061,-144.69,388
1569938597,344.463,136.513,-16.5199,178.22,1.12061,-144.69,388
1569938597,344.463,136.513,-16.5199,178.22,1.12061,-144.69,388
1569938597,344.463,136.513,-16.5199,178.22,1.12061,-144.69,384
1569938597,344.463,136.513,-16.5199,178.22,1.12061,-144.69,384
1569938597,344.463,136.513,-16.5199,178.22,1.12061,-144.69,384
1569938597,344.463,136.513,-16.5199,178.22,1.12061,-144.69,384
1569938597,344.463,136.513,-16.5199,178.22,1.12061,-144.69,380
1569938597,344.463,136.513,-16.5199,178.22,1.12061,-144.69,380
1569938597,344.463,136.513,-16.5199,178.22,1.12061,-144.69,380
1569938597,344.463,136.513,-16.5199,178.22,1.09863,-144.69,380
1569938597,344.463,136.513,-16.5199,178.22,1.09863,-144.69,380
1569938598,344.463,136.513,-16.5199,178.22,1.09863,-144.69,376
1569938598,344.463,136.513,-16.5199,178.22,1.09863,-144.69,376
1569938598,344.463,136.513,-16.5199,178.22,1.09863,-144.69,376
1569938598,344.463,136.513,-16.5199,178.22,1.09863,-144.69,376
1569938598,344.463,136.513,-16.5199,178.22,1.12061,-144.69,376
1569938598,344.463,136.513,-16.5199,178.22,1.12061,-144.69,376
1569938598,344.463,136.513,-16.5199,178.22,1.12061,-144.69,376
1569938598,344.463,136.513,-16.5199,178.22,1.12061,-144.69,376
1569938598,344.463,136.624,-16.5199,178.22,1.12061,-144.712,376
1569938598,344.463,136.624,-16.4083,178.22,1.12061,-144.712,376
1569938598,344.463,136.624,-16.4083,178.22,1.12061,-144.712,372
1569938598,344.463,136.624,-16.4083,178.22,1.12061,-144.712,372
1569938598,344.463,136.624,-16.4083,178.22,1.12061,-144.712,372
1569938598,344.463,136.624,-16.4083,178.22,1.12061,-144.712,372
1569938598,344.463,136.624,-16.5199,178.22,1.12061,-144.712,372
1569938598,344.463,136.624,-16.5199,178.22,1.12061,-144.69,372
1569938598,344.463,136.624,-16.5199,178.242,1.12061,-144.69,372
1569938598,344.463,136.624,-16.5199,178.242,1.12061,-144.69,372
1569938598,344.463,136.624,-16.5199,178.242,1.12061,-144.69,372
1569938598,344.463,136.624,-16.5199,178.242,1.12061,-144.69,372
1569938598,344.463,136.624,-16.5199,178.242,1.12061,-144.712,372
1569938598,344.463,136.624,-16.5199,178.242,1.12061,-144.712,372
1569938598,344.463,136.624,-16.5199,178.242,1.12061,-144.712,372
1569938598,344.463,136.624,-16.5199,178.242,1.12061,-144.712,372
1569938598,344.463,136.624,-16.5199,178.242,1.12061,-144.712,376
1569938598,344.463,136.624,-16.5199,178.242,1.12061,-144.712,376
1569938598,344.463,136.624,-16.5199,178.242,1.12061,-144.712,376
1569938598,344.463,136.624,-16.4083,178.242,1.09863,-144.712,380
1569938598,344.463,136.624,-16.5199,178.242,1.09863,-144.712,380
1569938598,344.463,136.624,-16.5199,178.242,1.09863,-144.712,380
1569938598,344.463,136.624,-16.5199,178.242,1.09863,-144.712,380
1569938598,344.463,136.624,-16.5199,178.242,1.09863,-144.712,384
1569938598,344.463,136.624,-16.5199,178.242,1.09863,-144.712,384
1569938598,344.463,136.624,-16.5199,178.242,1.09863,-144.712,384
1569938598,344.463,136.624,-16.5199,178.242,1.09863,-144.712,384
1569938598,344.463,136.624,-16.5199,178.242,1.09863,-144.712,384
1569938598,344.463,136.624,-16.5199,178.242,1.12061,-144.712,384
1569938598,344.463,136.624,-16.5199,178.242,1.12061,-144.712,384
1569938598,344.463,136.624,-16.4083,178.242,1.12061,-144.712,384
1569938598,344.463,136.624,-16.4083,178.242,1.12061,-144.712,384
1569938598,344.463,136.624,-16.4083,178.242,1.12061,-144.712,384
1569938598,344.463,136.624,-16.4083,178.242,1.12061,-144.712,384
1569938598,344.463,136.624,-16.4083,178.242,1.12061,-144.712,384
1569938598,344.463,136.624,-16.4083,178.242,1.12061,-144.712,380
1569938598,344.463,136.624,-16.4083,178.242,1.14258,-144.712,380
1569938598,344.463,136.624,-16.4083,178.242,1.14258,-144.712,380
1569938598,344.463,136.624,-16.4083,178.242,1.14258,-144.712,380
1569938598,344.463,136.624,-16.4083,178.242,1.14258,-144.712,380
1569938598,344.463,136.624,-16.2967,178.242,1.14258,-144.712,380
1569938598,344.463,136.624,-16.2967,178.242,1.14258,-144.712,380
1569938598,344.463,136.624,-16.2967,178.242,1.14258,-144.712,376
1569938598,344.463,136.624,-16.2967,178.242,1.14258,-144.712,376
1569938598,344.463,136.624,-16.2967,178.242,1.14258,-144.712,376
1569938598,344.463,136.624,-16.2967,178.242,1.14258,-144.712,376
1569938598,344.463,136.624,-16.2967,178.242,1.14258,-144.712,376
1569938598,344.463,136.624,-16.2967,178.242,1.14258,-144.712,372
1569938598,344.463,136.624,-16.2967,178.242,1.14258,-144.712,372
1569938598,344.463,136.624,-16.2967,178.242,1.14258,-144.712,372
1569938598,344.463,136.624,-16.2967,178.242,1.14258,-144.712,372
1569938598,344.463,136.624,-16.2967,178.242,1.14258,-144.712,372
1569938598,344.463,136.624,-16.2967,178.242,1.14258,-144.712,372
1569938598,344.463,136.624,-16.4083,178.242,1.14258,-144.712,372
1569938598,344.463,136.624,-16.4083,178.242,1.14258,-144.712,372
1569938598,344.463,136.624,-16.4083,178.242,1.14258,-144.712,372
1569938598,344.463,136.624,-16.4083,178.242,1.14258,-144.712,372
1569938598,344.463,136.624,-16.4083,178.242,1.14258,-144.712,372
1569938598,344.463,136.624,-16.4083,178.242,1.14258,-144.712,372
1569938598,344.463,136.624,-16.4083,178.264,1.14258,-144.712,372
1569938598,344.463,136.624,-16.4083,178.264,1.14258,-144.712,372
1569938598,344.463,136.624,-16.4083,178.264,1.14258,-144.712,372
1569938598,344.463,136.624,-16.4083,178.264,1.14258,-144.712,372
1569938598,344.463,136.624,-16.4083,178.264,1.12061,-144.712,372
1569938598,344.463,136.624,-16.4083,178.264,1.12061,-144.712,372
1569938598,344.463,136.624,-16.4083,178.242,1.12061,-144.712,376
1569938598,344.463,136.624,-16.4083,178.242,1.12061,-144.712,376
1569938598,344.463,136.624,-16.4083,178.242,1.12061,-144.712,376
1569938598,344.463,136.624,-16.4083,178.242,1.12061,-144.712,376
1569938598,344.463,136.624,-16.5199,178.242,1.12061,-144.712,376
1569938598,344.463,136.624,-16.5199,178.242,1.12061,-144.712,376
1569938598,344.463,136.624,-16.5199,178.242,1.12061,-144.712,376
1569938598,344.463,136.624,-16.5199,178.242,1.12061,-144.69,376
1569938598,344.463,136.624,-16.5199,178.242,1.12061,-144.69,376
1569938598,344.463,136.624,-16.5199,178.242,1.12061,-144.69,380
1569938598,344.463,136.624,-16.4083,178.242,1.12061,-144.69,380
1569938598,344.463,136.624,-16.4083,178.242,1.12061,-144.69,380
1569938598,344.463,136.624,-16.4083,178.242,1.12061,-144.69,380
1569938598,344.463,136.624,-16.4083,178.22,1.12061,-144.69,380
1569938598,344.463,136.624,-16.5199,178.22,1.12061,-144.69,380
1569938598,344.463,136.624,-16.5199,178.22,1.12061,-144.712,380
1569938598,344.574,136.624,-16.5199,178.22,1.12061,-144.712,380
1569938598,344.574,136.624,-16.5199,178.22,1.12061,-144.712,380
1569938598,344.574,136.624,-16.5199,178.22,1.12061,-144.712,380
1569938598,344.574,136.513,-16.5199,178.22,1.09863,-144.712,380
1569938598,344.574,136.513,-16.5199,178.22,1.09863,-144.712,380
1569938598,344.574,136.513,-16.5199,178.22,1.09863,-144.712,380
1569938598,344.574,136.513,-16.5199,178.22,1.09863,-144.712,380
1569938598,344.574,136.513,-16.5199,178.22,1.09863,-144.712,380
1569938598,344.574,136.513,-16.5199,178.22,1.09863,-144.712,380
1569938598,344.574,136.513,-16.5199,178.22,1.12061,-144.712,380
1569938598,344.574,136.513,-16.5199,178.22,1.12061,-144.712,380
1569938599,344.574,136.513,-16.5199,178.22,1.12061,-144.712,380
1569938599,344.574,136.513,-16.5199,178.22,1.12061,-144.712,380
1569938599,344.574,136.513,-16.5199,178.22,1.12061,-144.712,384
1569938599,344.574,136.513,-16.4083,178.22,1.12061,-144.712,384
1569938599,344.574,136.513,-16.4083,178.22,1.12061,-144.712,384
1569938599,344.574,136.513,-16.4083,178.198,1.12061,-144.712,384
1569938599,344.574,136.513,-16.4083,178.198,1.12061,-144.712,384
1569938599,344.574,136.513,-16.4083,178.198,1.12061,-144.712,384
1569938599,344.574,136.513,-16.4083,178.198,1.12061,-144.712,384
1569938599,344.574,136.513,-16.4083,178.198,1.12061,-144.712,384
1569938599,344.574,136.513,-16.4083,178.198,1.12061,-144.712,384
1569938599,344.574,136.513,-16.4083,178.198,1.12061,-144.712,384
1569938599,344.574,136.513,-16.4083,178.198,1.12061,-144.712,384
1569938599,344.574,136.513,-16.4083,178.198,1.12061,-144.712,384
1569938599,344.574,136.513,-16.4083,178.198,1.12061,-144.69,384
1569938599,344.574,136.513,-16.4083,178.198,1.12061,-144.69,384
1569938599,344.574,136.513,-16.4083,178.198,1.12061,-144.69,384
1569938599,344.574,136.513,-16.4083,178.198,1.12061,-144.69,384
1569938599,344.574,136.513,-16.4083,178.198,1.12061,-144.69,380
1569938599,344.574,136.513,-16.4083,178.198,1.12061,-144.69,380
1569938599,344.574,136.513,-16.4083,178.198,1.12061,-144.69,380
1569938599,344.574,136.513,-16.4083,178.198,1.14258,-144.69,376
1569938599,344.574,136.513,-16.4083,178.198,1.14258,-144.69,376
1569938599,344.574,136.513,-16.4083,178.198,1.14258,-144.69,376
1569938599,344.574,136.513,-16.4083,178.198,1.14258,-144.69,376
1569938599,344.574,136.513,-16.4083,178.198,1.14258,-144.69,376
1569938599,344.574,136.513,-16.4083,178.198,1.14258,-144.69,376
1569938599,344.574,136.513,-16.4083,178.198,1.14258,-144.69,376
1569938599,344.574,136.513,-16.5199,178.198,1.14258,-144.69,376
1569938599,344.574,136.513,-16.5199,178.198,1.14258,-144.69,376
1569938599,344.574,136.513,-16.5199,178.198,1.14258,-144.69,376
1569938599,344.574,136.513,-16.5199,178.22,1.14258,-144.69,380
1569938599,344.574,136.513,-16.5199,178.22,1.14258,-144.69,380
1569938599,344.574,136.513,-16.5199,178.22,1.14258,-144.69,380
1569938599,344.574,136.513,-16.5199,178.22,1.12061,-144.69,380
1569938599,344.463,136.513,-16.5199,178.22,1.12061,-144.69,380
1569938599,344.463,136.513,-16.5199,178.22,1.12061,-144.69,380
1569938599,344.463,136.513,-16.5199,178.22,1.12061,-144.69,380
1569938599,344.463,136.513,-16.5199,178.22,1.12061,-144.69,380
1569938599,344.463,136.513,-16.5199,178.22,1.12061,-144.69,380
1569938599,344.463,136.624,-16.5199,178.242,1.12061,-144.69,380
1569938599,344.463,136.624,-16.5199,178.242,1.12061,-144.69,380
1569938599,344.463,136.624,-16.5199,178.242,1.12061,-144.69,380
1569938599,344.463,136.624,-16.5199,178.242,1.12061,-144.69,380
1569938599,344.463,136.624,-16.5199,178.242,1.12061,-144.69,380
1569938599,344.463,136.624,-16.5199,178.242,1.12061,-144.69,376
1569938599,344.463,136.624,-16.5199,178.242,1.12061,-144.69,376
1569938599,344.463,136.513,-16.5199,178.242,1.12061,-144.69,376
1569938599,344.463,136.513,-16.5199,178.242,1.12061,-144.69,376
1569938599,344.463,136.513,-16.5199,178.22,1.12061,-144.69,376
1569938599,344.463,136.513,-16.5199,178.22,1.12061,-144.69,376
1569938599,344.574,136.513,-16.5199,178.22,1.12061,-144.69,376
1569938599,344.574,136.513,-16.5199,178.22,1.12061,-144.69,376
1569938599,344.574,136.513,-16.5199,178.22,1.12061,-144.69,376
1569938599,344.574,136.513,-16.5199,178.22,1.12061,-144.69,376
1569938599,344.574,136.513,-16.5199,178.22,1.12061,-144.69,376
1569938599,344.574,136.513,-16.5199,178.22,1.09863,-144.69,376
1569938599,344.574,136.513,-16.5199,178.22,1.09863,-144.69,380
1569938599,344.574,136.513,-16.5199,178.22,1.09863,-144.69,380
1569938599,344.574,136.513,-16.5199,178.22,1.09863,-144.69,380
1569938599,344.574,136.513,-16.5199,178.22,1.09863,-144.69,380
1569938599,344.574,136.513,-16.5199,178.22,1.09863,-144.69,380
1569938599,344.574,136.513,-16.5199,178.22,1.09863,-144.69,380
1569938599,344.574,136.513,-16.5199,178.22,1.09863,-144.69,380
1569938599,344.574,136.513,-16.5199,178.22,1.09863,-144.69,380
1569938599,344.574,136.513,-16.5199,178.22,1.09863,-144.69,380
1569938599,344.574,136.513,-16.5199,178.22,1.09863,-144.69,380
1569938599,344.574,136.513,-16.5199,178.22,1.09863,-144.668,380
1569938599,344.574,136.513,-16.5199,178.22,1.09863,-144.668,380
1569938599,344.574,136.513,-16.5199,178.22,1.09863,-144.668,380
1569938599,344.574,136.513,-16.5199,178.22,1.09863,-144.668,380
1569938599,344.574,136.513,-16.5199,178.22,1.09863,-144.668,380
1569938599,344.574,136.513,-16.5199,178.22,1.09863,-144.668,380
1569938599,344.574,136.513,-16.5199,178.22,1.09863,-144.668,380
1569938599,344.574,136.513,-16.5199,178.22,1.09863,-144.668,380
1569938599,344.463,136.513,-16.5199,178.22,1.09863,-144.69,380
1569938599,344.463,136.513,-16.5199,178.242,1.09863,-144.69,380
1569938599,344.463,136.513,-16.5199,178.242,1.09863,-144.69,380
1569938599,344.463,136.513,-16.5199,178.242,1.09863,-144.69,380
1569938599,344.463,136.624,-16.5199,178.242,1.09863,-144.69,380
1569938599,344.463,136.624,-16.5199,178.242,1.09863,-144.69,380
1569938599,344.463,136.624,-16.5199,178.242,1.09863,-144.69,380
1569938599,344.463,136.624,-16.5199,178.242,1.09863,-144.69,380
1569938599,344.463,136.624,-16.5199,178.242,1.09863,-144.69,380
1569938599,344.463,136.624,-16.5199,178.242,1.09863,-144.69,380
1569938599,344.463,136.624,-16.5199,178.242,1.09863,-144.69,380
1569938599,344.463,136.624,-16.5199,178.242,1.09863,-144.69,380
1569938599,344.463,136.624,-16.5199,178.242,1.09863,-144.69,380
1569938599,344.463,136.624,-16.5199,178.242,1.09863,-144.69,380
1569938599,344.463,136.624,-16.5199,178.242,1.09863,-144.69,380
1569938599,344.463,136.624,-16.5199,178.242,1.09863,-144.69,380
1569938599,344.463,136.624,-16.5199,178.242,1.09863,-144.69,380
1569938599,344.463,136.624,-16.5199,178.242,1.09863,-144.69,384
1569938599,344.463,136.624,-16.5199,178.242,1.07666,-144.69,384
1569938599,344.463,136.624,-16.5199,178.242,1.07666,-144.69,384
1569938599,344.463,136.624,-16.6315,178.242,1.07666,-144.69,384
1569938599,344.463,136.624,-16.6315,178.242,1.07666,-144.69,388
1569938599,344.463,136.624,-16.6315,178.242,1.05469,-144.69,388
1569938599,344.463,136.624,-16.6315,178.242,1.05469,-144.69,388
1569938599,344.463,136.624,-16.6315,178.242,1.05469,-144.69,388
1569938600,344.463,136.624,-16.6315,178.242,1.05469,-144.668,388
1569938600,344.463,136.624,-16.6315,178.242,1.05469,-144.668,388
1569938600,344.463,136.624,-16.6315,178.242,1.05469,-144.668,392
1569938600,344.463,136.624,-16.6315,178.242,1.05469,-144.668,392
1569938600,344.463,136.624,-16.6315,178.242,1.05469,-144.668,392
1569938600,344.463,136.624,-16.6315,178.242,1.05469,-144.668,392
1569938600,344.463,136.624,-16.6315,178.242,1.05469,-144.69,392
1569938600,344.463,136.624,-16.6315,178.242,1.07666,-144.69,392
1569938600,344.463,136.624,-16.6315,178.242,1.07666,-144.69,396
1569938600,344.463,136.513,-16.6315,178.242,1.07666,-144.69,396
1569938600,344.463,136.513,-16.6315,178.242,1.07666,-144.69,396
1569938600,344.351,136.513,-16.6315,178.242,1.07666,-144.69,396
1569938600,344.351,136.513,-16.6315,178.242,1.07666,-144.69,400
1569938600,344.351,136.513,-16.6315,178.242,1.07666,-144.69,400
1569938600,344.351,136.513,-16.6315,178.242,1.07666,-144.69,400
1569938600,344.351,136.513,-16.6315,178.242,1.07666,-144.69,400
1569938600,344.351,136.513,-16.6315,178.242,1.07666,-144.69,400
1569938600,344.351,136.513,-16.6315,178.22,1.07666,-144.69,400
1569938600,344.351,136.513,-16.6315,178.22,1.09863,-144.69,400
1569938600,344.351,136.513,-16.5199,178.242,1.09863,-144.69,404
1569938600,344.351,136.513,-16.5199,178.242,1.09863,-144.69,404
1569938600,344.351,136.513,-16.5199,178.242,1.09863,-144.69,404
1569938600,344.351,136.513,-16.5199,178.242,1.09863,-144.69,404
1569938600,344.351,136.513,-16.5199,178.242,1.09863,-144.69,404
1569938600,344.351,136.513,-16.5199,178.242,1.09863,-144.69,404
1569938600,344.351,136.624,-16.5199,178.242,1.09863,-144.69,400
1569938600,344.351,136.624,-16.5199,178.242,1.09863,-144.69,400
1569938600,344.463,136.624,-16.5199,178.242,1.09863,-144.69,400
1569938600,344.463,136.513,-16.5199,178.242,1.09863,-144.69,400
1569938600,344.463,136.513,-16.5199,178.242,1.09863,-144.69,400
1569938600,344.463,136.513,-16.5199,178.242,1.09863,-144.69,400
1569938600,344.463,136.513,-16.5199,178.242,1.09863,-144.69,400
1569938600,344.463,136.513,-16.5199,178.242,1.09863,-144.668,400
1569938600,344.463,136.513,-16.5199,178.242,1.09863,-144.668,400
1569938600,344.463,136.513,-16.6315,178.22,1.09863,-144.668,400
1569938600,344.463,136.513,-16.6315,178.22,1.07666,-144.668,400
1569938600,344.463,136.513,-16.6315,178.22,1.07666,-144.668,400
1569938600,344.463,136.513,-16.6315,178.22,1.07666,-144.668,400
1569938600,344.463,136.513,-16.6315,178.22,1.07666,-144.668,396
1569938600,344.463,136.513,-16.6315,178.22,1.07666,-144.668,396
1569938600,344.463,136.513,-16.6315,178.22,1.07666,-144.668,396
1569938600,344.463,136.513,-16.6315,178.22,1.07666,-144.69,396
1569938600,344.463,136.513,-16.6315,178.22,1.07666,-144.69,396
1569938600,344.463,136.513,-16.6315,178.242,1.07666,-144.69,396
1569938600,344.463,136.513,-16.6315,178.242,1.07666,-144.69,392
1569938600,344.463,136.513,-16.6315,178.242,1.07666,-144.69,392
1569938600,344.463,136.513,-16.6315,178.242,1.07666,-144.69,392
1569938600,344.463,136.513,-16.6315,178.242,1.07666,-144.69,392
1569938600,344.463,136.624,-16.6315,178.242,1.07666,-144.69,392
1569938600,344.463,136.624,-16.6315,178.242,1.07666,-144.69,388
1569938600,344.463,136.624,-16.6315,178.242,1.07666,-144.69,388
1569938600,344.463,136.624,-16.6315,178.242,1.07666,-144.69,388
1569938600,344.463,136.624,-16.5199,178.242,1.07666,-144.69,388
1569938600,344.463,136.624,-16.5199,178.242,1.07666,-144.69,388
1569938600,344.463,136.624,-16.5199,178.242,1.07666,-144.69,384
1569938600,344.463,136.624,-16.5199,178.242,1.07666,-144.69,384
1569938600,344.463,136.624,-16.5199,178.242,1.07666,-144.69,384
1569938600,344.463,136.624,-16.5199,178.242,1.07666,-144.69,384
1569938600,344.463,136.624,-16.6315,178.242,1.07666,-144.69,384
1569938600,344.463,136.624,-16.6315,178.242,1.07666,-144.69,384
1569938600,344.463,136.624,-16.6315,178.242,1.07666,-144.69,384
1569938600,344.463,136.624,-16.6315,178.242,1.07666,-144.69,388
1569938600,344.463,136.624,-16.6315,178.242,1.07666,-144.69,388
1569938600,344.463,136.624,-16.6315,178.242,1.07666,-144.69,388
1569938600,344.463,136.624,-16.6315,178.242,1.05469,-144.69,388
1569938600,344.351,136.624,-16.6315,178.242,1.05469,-144.69,388
1569938600,344.351,136.624,-16.6315,178.264,1.05469,-144.69,388
1569938600,344.351,136.624,-16.6315,178.264,1.05469,-144.69,392
1569938600,344.463,136.624,-16.6315,178.264,1.05469,-144.69,392
1569938600,344.463,136.624,-16.6315,178.264,1.05469,-144.69,392
1569938600,344.463,136.624,-16.6315,178.264,1.05469,-144.668,392
1569938600,344.463,136.624,-16.6315,178.264,1.05469,-144.668,392
1569938600,344.463,136.624,-16.6315,178.264,1.05469,-144.668,392
1569938600,344.463,136.624,-16.6315,178.264,1.05469,-144.668,392
1569938600,344.463,136.624,-16.6315,178.264,1.05469,-144.668,392
1569938600,344.463,136.624,-16.6315,178.264,1.05469,-144.668,392
1569938600,344.463,136.624,-16.6315,178.264,1.05469,-144.668,392
1569938600,344.463,136.624,-16.6315,178.264,1.07666,-144.668,392
1569938600,344.463,136.624,-16.6315,178.264,1.07666,-144.668,392
1569938600,344.463,136.624,-16.6315,178.264,1.07666,-144.668,392
1569938600,344.463,136.624,-16.6315,178.264,1.07666,-144.668,392
1569938600,344.463,136.624,-16.6315,178.264,1.07666,-144.69,392
1569938600,344.463,136.624,-16.6315,178.264,1.07666,-144.69,392
1569938600,344.463,136.624,-16.6315,178.242,1.07666,-144.69,392
1569938600,344.463,136.624,-16.6315,178.242,1.07666,-144.69,392
1569938600,344.463,136.624,-16.6315,178.242,1.07666,-144.69,392
1569938600,344.463,136.624,-16.6315,178.242,1.07666,-144.69,392
1569938600,344.463,136.624,-16.6315,178.242,1.07666,-144.69,392
1569938600,344.463,136.624,-16.6315,178.242,1.07666,-144.69,392
1569938600,344.463,136.624,-16.6315,178.242,1.07666,-144.69,392
1569938600,344.463,136.513,-16.6315,178.242,1.07666,-144.69,396
1569938600,344.463,136.513,-16.6315,178.242,1.07666,-144.69,396
1569938600,344.463,136.513,-16.6315,178.242,1.09863,-144.69,396
1569938600,344.463,136.513,-16.5199,178.242,1.09863,-144.69,396
1569938600,344.463,136.513,-16.5199,178.242,1.09863,-144.69,396
1569938600,344.463,136.513,-16.5199,178.242,1.09863,-144.69,396
1569938600,344.463,136.513,-16.5199,178.242,1.09863,-144.69,396
1569938600,344.463,136.513,-16.5199,178.242,1.09863,-144.69,396
1569938600,344.463,136.513,-16.5199,178.242,1.09863,-144.69,396
1569938600,344.463,136.513,-16.5199,178.242,1.09863,-144.69,396
1569938601,344.463,136.513,-16.5199,178.242,1.09863,-144.69,396
1569938601,344.463,136.513,-16.5199,178.242,1.09863,-144.69,396
1569938601,344.463,136.624,-16.5199,178.242,1.09863,-144.69,396
1569938601,344.463,136.624,-16.5199,178.242,1.09863,-144.69,396
1569938601,344.463,136.624,-16.5199,178.242,1.09863,-144.69,392
1569938601,344.463,136.624,-16.5199,178.242,1.12061,-144.69,392
1569938601,344.463,136.624,-16.5199,178.242,1.12061,-144.69,392
1569938601,344.463,136.624,-16.5199,178.242,1.12061,-144.69,388
1569938601,344.463,136.624,-16.5199,178.242,1.12061,-144.69,388
1569938601,344.463,136.624,-16.5199,178.242,1.12061,-144.69,388
1569938601,344.463,136.624,-16.5199,178.242,1.12061,-144.69,384
1569938601,344.463,136.624,-16.5199,178.264,1.12061,-144.69,384
1569938601,344.463,136.624,-16.5199,178.242,1.12061,-144.69,380
1569938601,344.463,136.624,-16.5199,178.242,1.12061,-144.69,380
1569938601,344.463,136.624,-16.5199,178.242,1.12061,-144.69,376
1569938601,344.463,136.624,-16.4083,178.242,1.12061,-144.69,376
1569938601,344.463,136.624,-16.4083,178.242,1.12061,-144.69,376
1569938601,344.463,136.624,-16.4083,178.242,1.12061,-144.69,376
1569938601,344.463,136.624,-16.4083,178.242,1.12061,-144.69,376
1569938601,344.463,136.624,-16.4083,178.242,1.12061,-144.69,372
1569938601,344.463,136.624,-16.4083,178.242,1.12061,-144.69,372
1569938601,344.463,136.624,-16.4083,178.22,1.14258,-144.69,372
1569938601,344.463,136.513,-16.4083,178.22,1.14258,-144.69,372
1569938601,344.463,136.513,-16.4083,178.22,1.14258,-144.69,372
1569938601,344.463,136.513,-16.4083,178.22,1.14258,-144.69,372
1569938601,344.463,136.513,-16.4083,178.22,1.14258,-144.69,372
1569938601,344.463,136.513,-16.4083,178.22,1.14258,-144.69,376
1569938601,344.463,136.513,-16.4083,178.22,1.14258,-144.69,376
1569938601,344.463,136.513,-16.4083,178.22,1.14258,-144.69,376
1569938601,344.463,136.513,-16.5199,178.22,1.14258,-144.69,376
1569938601,344.463,136.513,-16.5199,178.22,1.12061,-144.69,376
1569938601,344.463,136.513,-16.5199,178.22,1.12061,-144.69,376
1569938601,344.463,136.513,-16.5199,178.22,1.12061,-144.69,376
1569938601,344.463,136.513,-16.5199,178.22,1.14258,-144.69,376
1569938601,344.463,136.513,-16.4083,178.22,1.14258,-144.69,372
1569938601,344.463,136.513,-16.4083,178.22,1.14258,-144.69,372
1569938601,344.463,136.513,-16.4083,178.22,1.14258,-144.69,372
1569938601,344.463,136.513,-16.4083,178.22,1.12061,-144.69,372
1569938601,344.463,136.513,-16.4083,178.22,1.12061,-144.69,372
1569938601,344.463,136.513,-16.5199,178.22,1.12061,-144.69,372
1569938601,344.463,136.513,-16.5199,178.22,1.12061,-144.69,372
1569938601,344.463,136.513,-16.5199,178.22,1.12061,-144.69,372
1569938601,344.463,136.513,-16.5199,178.22,1.12061,-144.69,368
1569938601,344.463,136.513,-16.5199,178.22,1.12061,-144.69,368
1569938601,344.463,136.624,-16.5199,178.22,1.12061,-144.69,368
1569938601,344.463,136.624,-16.5199,178.22,1.12061,-144.69,368
1569938601,344.463,136.624,-16.5199,178.242,1.12061,-144.69,368
1569938601,344.463,136.624,-16.5199,178.242,1.12061,-144.69,368
1569938601,344.463,136.624,-16.5199,178.242,1.12061,-144.69,368
1569938601,344.463,136.624,-16.5199,178.242,1.12061,-144.69,368
1569938601,344.463,136.624,-16.5199,178.242,1.12061,-144.69,368
1569938601,344.463,136.624,-16.5199,178.242,1.12061,-144.69,368
1569938601,344.463,136.624,-16.5199,178.242,1.12061,-144.69,368
1569938601,344.463,136.624,-16.5199,178.242,1.12061,-144.69,372
1569938601,344.463,136.624,-16.5199,178.242,1.12061,-144.69,372
1569938601,344.463,136.624,-16.5199,178.242,1.12061,-144.69,372
1569938601,344.463,136.624,-16.5199,178.242,1.12061,-144.69,372
1569938601,344.463,136.624,-16.5199,178.242,1.09863,-144.69,372
1569938601,344.463,136.624,-16.5199,178.242,1.09863,-144.69,372
1569938601,344.463,136.624,-16.5199,178.242,1.09863,-144.69,372
1569938601,344.463,136.624,-16.5199,178.242,1.09863,-144.69,372
1569938601,344.463,136.624,-16.5199,178.242,1.09863,-144.69,372
1569938601,344.463,136.624,-16.5199,178.242,1.09863,-144.69,372
1569938601,344.463,136.624,-16.5199,178.242,1.09863,-144.69,372
1569938601,344.463,136.624,-16.5199,178.242,1.12061,-144.69,376
1569938601,344.463,136.624,-16.5199,178.242,1.12061,-144.69,376
1569938601,344.463,136.624,-16.5199,178.242,1.12061,-144.69,376
1569938601,344.463,136.624,-16.5199,178.242,1.12061,-144.69,376
1569938601,344.463,136.624,-16.5199,178.264,1.12061,-144.69,376
1569938601,344.463,136.624,-16.4083,178.264,1.12061,-144.69,376
1569938601,344.463,136.624,-16.4083,178.264,1.12061,-144.69,376
1569938601,344.463,136.624,-16.4083,178.264,1.12061,-144.69,376
1569938601,344.463,136.624,-16.4083,178.264,1.12061,-144.69,376
1569938601,344.463,136.624,-16.4083,178.242,1.12061,-144.69,380
1569938601,344.463,136.624,-16.4083,178.242,1.12061,-144.69,380
1569938601,344.463,136.624,-16.4083,178.242,1.14258,-144.69,380
1569938601,344.463,136.624,-16.4083,178.242,1.14258,-144.712,380
1569938601,344.463,136.624,-16.4083,178.242,1.14258,-144.712,380
1569938601,344.463,136.624,-16.4083,178.242,1.14258,-144.712,380
1569938601,344.463,136.624,-16.4083,178.242,1.14258,-144.712,380
1569938601,344.463,136.513,-16.4083,178.242,1.14258,-144.712,380
1569938601,344.463,136.513,-16.4083,178.242,1.14258,-144.712,384
1569938601,344.463,136.513,-16.4083,178.242,1.14258,-144.712,384
1569938601,344.463,136.513,-16.4083,178.242,1.12061,-144.712,384
1569938605,367.68,111.621,-15.7386,178.132,1.58203,-144.91,448
1569938605,367.68,111.621,-15.7386,178.132,1.58203,-144.91,448
1569938605,367.68,111.621,-15.7386,178.132,1.58203,-144.91,448
1569938605,367.68,111.621,-15.7386,178.132,1.58203,-144.91,448
1569938605,367.68,111.621,-15.7386,178.132,1.58203,-144.91,448
1569938605,367.68,111.621,-15.7386,178.132,1.58203,-144.91,448
1569938605,367.68,111.621,-15.7386,178.132,1.58203,-144.91,448
1569938605,367.68,111.621,-15.7386,178.132,1.58203,-144.91,448
1569938605,367.68,111.621,-15.7386,178.132,1.58203,-144.91,444
1569938605,367.68,111.621,-15.7386,178.132,1.58203,-144.91,444
1569938605,367.68,111.621,-15.7386,178.132,1.58203,-144.91,444
1569938605,367.68,111.621,-15.7386,178.132,1.58203,-144.91,444
1569938605,367.68,111.621,-15.7386,178.132,1.58203,-144.91,444
1569938605,367.68,111.621,-15.7386,178.132,1.58203,-144.91,444
1569938605,367.68,111.621,-15.8502,178.132,1.58203,-144.91,444
1569938605,367.68,111.621,-15.8502,178.132,1.58203,-144.91,440
1569938605,367.68,111.621,-15.8502,178.132,1.58203,-144.91,440
1569938605,367.68,111.621,-15.8502,178.132,1.58203,-144.91,440
1569938605,367.68,111.621,-15.7386,178.132,1.58203,-144.91,440
1569938605,367.68,111.621,-15.7386,178.132,1.58203,-144.91,440
1569938605,367.68,111.621,-15.7386,178.132,1.58203,-144.91,440
1569938605,367.68,111.621,-15.7386,178.132,1.58203,-144.91,440
1569938605,367.68,111.621,-15.7386,178.132,1.58203,-144.91,440
1569938605,367.68,111.621,-15.7386,178.132,1.58203,-144.91,440
1569938605,367.68,111.621,-15.7386,178.132,1.58203,-144.91,440
1569938605,367.68,111.621,-15.8502,178.154,1.58203,-144.91,440
1569938605,367.68,111.621,-15.8502,178.154,1.58203,-144.91,440
1569938605,367.568,111.621,-15.8502,178.154,1.58203,-144.91,440
1569938605,367.568,111.621,-15.8502,178.154,1.58203,-144.91,440
1569938605,367.568,111.621,-15.8502,178.154,1.56006,-144.91,440
1569938605,367.568,111.621,-15.8502,178.154,1.56006,-144.91,440
1569938605,367.568,111.621,-15.8502,178.154,1.56006,-144.91,440
1569938605,367.568,111.621,-15.8502,178.154,1.56006,-144.91,440
1569938605,367.68,111.621,-15.8502,178.154,1.56006,-144.91,440
1569938605,367.68,111.621,-15.8502,178.154,1.58203,-144.932,440
1569938605,367.68,111.621,-15.8502,178.154,1.58203,-144.932,440
1569938605,367.68,111.621,-15.8502,178.154,1.58203,-144.932,436
1569938605,367.68,111.621,-15.8502,178.154,1.58203,-144.932,436
1569938605,367.68,111.621,-15.8502,178.154,1.58203,-144.932,436
1569938605,367.68,111.621,-15.8502,178.154,1.58203,-144.932,436
1569938605,367.68,111.621,-15.8502,178.154,1.58203,-144.932,432
1569938605,367.68,111.621,-15.8502,178.154,1.58203,-144.932,432
1569938605,367.68,111.621,-15.8502,178.154,1.58203,-144.932,432
1569938605,367.68,111.621,-15.8502,178.154,1.58203,-144.932,432
1569938605,367.68,111.621,-15.8502,178.154,1.58203,-144.932,428
1569938605,367.68,111.621,-15.8502,178.132,1.58203,-144.91,428
1569938605,367.68,111.621,-15.8502,178.132,1.58203,-144.91,428
1569938605,367.68,111.621,-15.8502,178.132,1.58203,-144.91,428
1569938605,367.68,111.621,-15.8502,178.132,1.58203,-144.91,428
1569938605,367.68,111.621,-15.8502,178.132,1.58203,-144.91,428
1569938605,367.68,111.621,-15.8502,178.132,1.58203,-144.91,428
1569938605,367.68,111.621,-15.8502,178.132,1.58203,-144.91,432
1569938605,367.68,111.621,-15.7386,178.132,1.58203,-144.91,432
1569938605,367.68,111.509,-15.7386,178.132,1.58203,-144.91,432
1569938605,367.68,111.509,-15.7386,178.132,1.58203,-144.91,432
1569938605,367.68,111.509,-15.8502,178.132,1.58203,-144.91,432
1569938605,367.68,111.509,-15.8502,178.132,1.58203,-144.91,432
1569938605,367.68,111.509,-15.8502,178.132,1.58203,-144.91,436
1569938605,367.68,111.621,-15.8502,178.132,1.58203,-144.91,436
1569938605,367.68,111.621,-15.8502,178.132,1.58203,-144.932,436
1569938605,367.68,111.621,-15.8502,178.132,1.58203,-144.932,436
1569938605,367.68,111.621,-15.8502,178.132,1.58203,-144.932,436
1569938605,367.568,111.621,-15.8502,178.132,1.56006,-144.932,436
1569938605,367.568,111.621,-15.8502,178.132,1.56006,-144.932,436
1569938605,367.568,111.621,-15.8502,178.154,1.56006,-144.932,440
1569938605,367.568,111.621,-15.8502,178.154,1.56006,-144.932,440
1569938605,367.568,111.621,-15.8502,178.154,1.56006,-144.932,440
1569938605,367.568,111.621,-15.8502,178.154,1.56006,-144.932,440
1569938605,367.568,111.621,-15.8502,178.154,1.56006,-144.932,440
1569938605,367.568,111.621,-15.8502,178.154,1.56006,-144.932,440
1569938605,367.568,111.621,-15.8502,178.154,1.56006,-144.932,444
1569938605,367.568,111.621,-15.8502,178.154,1.56006,-144.932,444
1569938605,367.568,111.621,-15.8502,178.154,1.56006,-144.932,444
1569938605,367.568,111.621,-15.8502,178.154,1.56006,-144.932,444
1569938605,367.568,111.621,-15.8502,178.132,1.56006,-144.932,444
1569938605,367.568,111.621,-15.8502,178.132,1.58203,-144.932,444
1569938605,367.568,111.621,-15.8502,178.132,1.58203,-144.932,444
1569938605,367.568,111.621,-15.8502,178.132,1.58203,-144.932,448
1569938606,367.568,111.621,-15.8502,178.132,1.58203,-144.932,448
1569938606,367.568,111.621,-15.8502,178.154,1.58203,-144.932,448
1569938606,367.568,111.621,-15.8502,178.154,1.58203,-144.91,448
1569938606,367.568,111.621,-15.8502,178.154,1.58203,-144.91,448
1569938606,367.568,111.621,-15.8502,178.154,1.58203,-144.91,448
1569938606,367.568,111.733,-15.8502,178.154,1.58203,-144.91,448
1569938606,367.568,111.733,-15.8502,178.154,1.58203,-144.91,444
1569938606,367.568,111.733,-15.8502,178.154,1.58203,-144.91,444
1569938606,367.568,111.733,-15.8502,178.154,1.58203,-144.91,444
1569938606,367.568,111.733,-15.8502,178.154,1.58203,-144.91,444
1569938606,367.68,111.733,-15.8502,178.154,1.58203,-144.91,444
1569938606,367.68,111.733,-15.8502,178.154,1.58203,-144.91,444
1569938606,367.68,111.733,-15.8502,178.154,1.58203,-144.91,444
1569938606,367.68,111.733,-15.8502,178.154,1.58203,-144.91,444
1569938606,367.68,111.621,-15.8502,178.154,1.58203,-144.91,440
1569938606,367.68,111.621,-15.8502,178.154,1.58203,-144.91,440
1569938606,367.568,111.621,-15.8502,178.154,1.58203,-144.91,440
1569938606,367.568,111.621,-15.8502,178.154,1.58203,-144.91,440
1569938606,367.568,111.621,-15.8502,178.154,1.58203,-144.91,440
1569938606,367.568,111.621,-15.8502,178.154,1.58203,-144.91,440
1569938606,367.568,111.621,-15.8502,178.154,1.58203,-144.91,440
1569938606,367.568,111.621,-15.8502,178.154,1.58203,-144.91,440
1569938606,367.568,111.621,-15.8502,178.154,1.58203,-144.91,444
1569938606,367.568,111.621,-15.8502,178.154,1.56006,-144.91,444
1569938606,367.568,111.621,-15.8502,178.154,1.56006,-144.91,444
1569938606,367.568,111.621,-15.8502,178.154,1.56006,-144.91,444
1569938606,367.568,111.621,-15.8502,178.154,1.56006,-144.91,444
1569938606,367.568,111.621,-15.9618,178.154,1.56006,-144.91,444
1569938606,367.568,111.621,-15.9618,178.154,1.56006,-144.91,444
1569938606,367.568,111.621,-15.9618,178.154,1.56006,-144.91,444
1569938606,367.568,111.621,-15.9618,178.154,1.56006,-144.91,448
1569938606,367.568,111.621,-15.9618,178.154,1.56006,-144.91,448
1569938606,367.568,111.621,-15.9618,178.154,1.56006,-144.91,448
1569938606,367.568,111.621,-15.9618,178.154,1.56006,-144.91,448
1569938606,367.568,111.621,-15.9618,178.154,1.56006,-144.91,448
1569938606,367.568,111.621,-15.9618,178.154,1.56006,-144.91,448
1569938606,367.568,111.621,-15.8502,178.154,1.56006,-144.91,448
1569938606,367.568,111.621,-15.8502,178.154,1.56006,-144.91,452
1569938606,367.568,111.621,-15.8502,178.154,1.56006,-144.91,452
1569938606,367.568,111.621,-15.8502,178.154,1.58203,-144.91,452
1569938606,367.568,111.621,-15.8502,178.154,1.58203,-144.91,452
1569938606,367.568,111.621,-15.8502,178.154,1.58203,-144.932,452
1569938606,367.568,111.621,-15.8502,178.154,1.604,-144.932,452
1569938606,367.568,111.621,-15.7386,178.154,1.604,-144.932,452
1569938606,367.568,111.621,-15.7386,178.154,1.604,-144.932,452
1569938606,367.568,111.621,-15.7386,178.132,1.604,-144.932,452
1569938606,367.568,111.621,-15.7386,178.132,1.604,-144.932,452
1569938606,367.568,111.621,-15.7386,178.132,1.604,-144.932,452
1569938606,367.568,111.621,-15.7386,178.132,1.604,-144.932,452
1569938606,367.568,111.621,-15.7386,178.132,1.604,-144.932,448
1569938606,367.568,111.621,-15.7386,178.132,1.604,-144.932,448
1569938606,367.568,111.621,-15.7386,178.132,1.604,-144.954,448
1569938606,367.568,111.621,-15.7386,178.132,1.604,-144.954,448
1569938606,367.568,111.621,-15.7386,178.132,1.604,-144.954,448
1569938606,367.568,111.621,-15.7386,178.132,1.604,-144.954,444
1569938606,367.568,111.621,-15.7386,178.132,1.604,-144.954,444
1569938606,367.568,111.621,-15.7386,178.132,1.604,-144.954,444
1569938606,367.568,111.621,-15.7386,178.132,1.604,-144.954,444
1569938606,367.568,111.621,-15.7386,178.132,1.604,-144.954,444
1569938606,367.568,111.621,-15.7386,178.132,1.604,-144.954,444
1569938606,367.568,111.621,-15.7386,178.132,1.604,-144.954,444
1569938606,367.568,111.621,-15.7386,178.132,1.604,-144.954,444
1569938606,367.568,111.621,-15.7386,178.132,1.604,-144.954,444
1569938606,367.568,111.621,-15.7386,178.132,1.604,-144.954,444
1569938606,367.568,111.509,-15.7386,178.11,1.604,-144.954,444
1569938606,367.568,111.509,-15.7386,178.11,1.604,-144.954,444
1569938606,367.568,111.509,-15.7386,178.11,1.604,-144.954,444
1569938606,367.568,111.509,-15.7386,178.11,1.604,-144.954,444
1569938606,367.568,111.509,-15.7386,178.11,1.604,-144.954,444
1569938606,367.568,111.509,-15.7386,178.11,1.604,-144.954,444
1569938606,367.568,111.509,-15.7386,178.11,1.604,-144.954,444
1569938606,367.568,111.509,-15.7386,178.11,1.62598,-144.954,444
1569938606,367.568,111.509,-15.7386,178.11,1.62598,-144.954,444
1569938606,367.568,111.509,-15.7386,178.11,1.62598,-144.954,444
1569938606,367.568,111.509,-15.7386,178.11,1.62598,-144.954,444
1569938606,367.568,111.509,-15.7386,178.11,1.62598,-144.954,444
1569938606,367.568,111.621,-15.7386,178.11,1.62598,-144.954,444
1569938606,367.568,111.621,-15.7386,178.11,1.604,-144.954,444
1569938606,367.568,111.621,-15.7386,178.11,1.62598,-144.954,444
1569938606,367.568,111.621,-15.627,178.11,1.62598,-144.954,444
1569938606,367.568,111.621,-15.627,178.11,1.62598,-144.954,448
1569938606,367.568,111.621,-15.627,178.132,1.62598,-144.954,448
1569938606,367.568,111.621,-15.627,178.132,1.62598,-144.954,448
1569938606,367.568,111.621,-15.627,178.132,1.62598,-144.954,448
1569938606,367.568,111.621,-15.627,178.132,1.62598,-144.954,448
1569938606,367.568,111.621,-15.627,178.132,1.62598,-144.954,448
1569938606,367.568,111.621,-15.627,178.132,1.62598,-144.954,448
1569938606,367.568,111.621,-15.627,178.132,1.62598,-144.954,448
1569938606,367.568,111.621,-15.627,178.132,1.62598,-144.954,448
1569938606,367.568,111.621,-15.7386,178.132,1.604,-144.954,448
1569938606,367.568,111.621,-15.7386,178.132,1.604,-144.954,448
1569938606,367.568,111.621,-15.7386,178.132,1.604,-144.954,448
1569938606,367.568,111.621,-15.7386,178.132,1.604,-144.954,448
1569938606,367.568,111.509,-15.7386,178.132,1.604,-144.954,448
1569938606,367.568,111.509,-15.7386,178.132,1.604,-144.954,448
1569938606,367.568,111.509,-15.7386,178.11,1.604,-144.954,448
1569938606,367.568,111.509,-15.7386,178.11,1.604,-144.954,448
1569938606,367.568,111.509,-15.7386,178.11,1.604,-144.954,448
1569938606,367.568,111.509,-15.7386,178.11,1.604,-144.954,448
1569938606,367.568,111.509,-15.7386,178.11,1.604,-144.954,448
1569938607,367.568,111.509,-15.7386,178.11,1.604,-144.954,448
1569938607,367.568,111.509,-15.7386,178.11,1.604,-144.954,448
1569938607,367.568,111.509,-15.7386,178.11,1.604,-144.954,448
1569938607,367.568,111.509,-15.7386,178.11,1.604,-144.954,448
1569938607,367.568,111.509,-15.7386,178.11,1.58203,-144.954,448
1569938607,367.568,111.509,-15.7386,178.132,1.58203,-144.954,448
1569938607,367.568,111.621,-15.7386,178.132,1.58203,-144.932,448
1569938607,367.568,111.621,-15.7386,178.132,1.58203,-144.932,448
1569938607,367.568,111.621,-15.7386,178.132,1.58203,-144.932,444
1569938607,367.568,111.621,-15.7386,178.132,1.58203,-144.932,444
1569938607,367.568,111.621,-15.7386,178.132,1.58203,-144.932,444
1569938607,367.568,111.621,-15.7386,178.132,1.58203,-144.932,444
1569938607,367.568,111.621,-15.7386,178.132,1.58203,-144.932,444
1569938607,367.568,111.621,-15.8502,178.132,1.58203,-144.932,444
1569938607,367.568,111.621,-15.8502,178.132,1.58203,-144.932,440
1569938607,367.568,111.621,-15.8502,178.132,1.58203,-144.932,440
1569938607,367.568,111.509,-15.8502,178.11,1.58203,-144.932,440
1569938607,367.568,111.509,-15.8502,178.11,1.58203,-144.932,440
1569938607,367.568,111.509,-15.8502,178.11,1.58203,-144.932,436
1569938607,367.568,111.509,-15.8502,178.11,1.58203,-144.932,436
1569938607,367.68,111.509,-15.8502,178.11,1.58203,-144.932,436
1569938607,367.68,111.509,-15.8502,178.11,1.58203,-144.932,432
1569938607,367.68,111.509,-15.8502,178.11,1.58203,-144.932,432
1569938607,367.68,111.509,-15.8502,178.11,1.56006,-144.932,432
1569938607,367.68,111.509,-15.8502,178.11,1.56006,-144.91,432
1569938607,367.68,111.509,-15.8502,178.11,1.56006,-144.91,428
1569938607,367.68,111.509,-15.8502,178.11,1.56006,-144.91,428
1569938607,367.68,111.509,-15.8502,178.11,1.56006,-144.91,428
1569938607,367.568,111.509,-15.8502,178.11,1.56006,-144.91,428
1569938607,367.568,111.509,-15.8502,178.11,1.56006,-144.91,428
1569938607,367.568,111.509,-15.8502,178.11,1.56006,-144.91,428
1569938607,367.568,111.509,-15.9618,178.11,1.56006,-144.91,428
1569938607,367.568,111.509,-15.9618,178.11,1.56006,-144.91,428
1569938607,367.568,111.509,-15.9618,178.11,1.56006,-144.91,428
1569938607,367.568,111.509,-15.9618,178.11,1.56006,-144.91,428
1569938607,367.568,111.509,-15.9618,178.11,1.56006,-144.91,428
1569938607,367.568,111.509,-15.9618,178.11,1.56006,-144.91,428
1569938607,367.568,111.509,-15.9618,178.11,1.56006,-144.91,428
1569938607,367.568,111.509,-15.9618,178.11,1.56006,-144.91,428
1569938607,367.568,111.509,-15.9618,178.11,1.56006,-144.91,428
1569938607,367.568,111.509,-15.8502,178.11,1.56006,-144.91,428
1569938607,367.568,111.509,-15.8502,178.11,1.56006,-144.91,428
1569938607,367.568,111.509,-15.8502,178.11,1.56006,-144.91,428
1569938607,367.568,111.509,-15.8502,178.11,1.56006,-144.91,428
1569938607,367.68,111.509,-15.8502,178.11,1.56006,-144.91,428
1569938607,367.68,111.509,-15.8502,178.11,1.56006,-144.91,428
1569938607,367.68,111.509,-15.8502,178.11,1.56006,-144.91,428
1569938607,367.68,111.509,-15.8502,178.11,1.56006,-144.91,428
1569938607,367.68,111.509,-15.8502,178.11,1.56006,-144.91,428
1569938607,367.68,111.509,-15.8502,178.11,1.56006,-144.91,428
1569938607,367.68,111.621,-15.8502,178.11,1.56006,-144.91,428
1569938607,367.68,111.621,-15.8502,178.132,1.56006,-144.91,428
1569938607,367.68,111.621,-15.8502,178.132,1.56006,-144.91,428
1569938607,367.68,111.621,-15.8502,178.132,1.56006,-144.91,428
1569938607,367.68,111.621,-15.8502,178.132,1.56006,-144.91,432
1569938607,367.68,111.621,-15.8502,178.132,1.56006,-144.91,432
1569938607,367.68,111.621,-15.8502,178.132,1.56006,-144.91,432
1569938607,367.68,111.621,-15.8502,178.132,1.56006,-144.91,432
1569938607,367.68,111.621,-15.8502,178.132,1.56006,-144.91,432
1569938607,367.68,111.621,-15.8502,178.132,1.56006,-144.91,432
1569938607,367.68,111.621,-15.8502,178.132,1.56006,-144.932,432
1569938607,367.68,111.621,-15.8502,178.132,1.56006,-144.932,432
1569938607,367.68,111.621,-15.8502,178.132,1.56006,-144.932,432
1569938607,367.68,111.621,-15.8502,178.132,1.56006,-144.932,432
1569938607,367.68,111.621,-15.8502,178.132,1.56006,-144.932,432
1569938607,367.68,111.621,-15.8502,178.132,1.56006,-144.932,432
1569938607,367.68,111.621,-15.8502,178.132,1.56006,-144.932,432
1569938607,367.68,111.621,-15.8502,178.132,1.56006,-144.932,432
1569938607,367.68,111.621,-15.8502,178.132,1.56006,-144.932,432
1569938607,367.68,111.621,-15.8502,178.132,1.56006,-144.932,428
1569938607,367.68,111.621,-15.8502,178.132,1.56006,-144.932,428
1569938607,367.68,111.621,-15.8502,178.132,1.56006,-144.932,428
1569938607,367.68,111.621,-15.8502,178.132,1.56006,-144.932,428
1569938607,367.68,111.621,-15.8502,178.132,1.56006,-144.932,428
1569938607,367.68,111.621,-15.8502,178.132,1.56006,-144.932,424
1569938607,367.68,111.733,-15.8502,178.132,1.56006,-144.932,424
1569938607,367.68,111.621,-15.8502,178.132,1.56006,-144.932,424
1569938607,367.68,111.621,-15.9618,178.132,1.56006,-144.932,424
1569938607,367.68,111.621,-15.9618,178.132,1.56006,-144.932,424
1569938607,367.68,111.621,-15.9618,178.132,1.56006,-144.932,424
1569938607,367.68,111.621,-15.9618,178.132,1.56006,-144.932,424
1569938607,367.68,111.621,-15.9618,178.132,1.56006,-144.932,424
1569938607,367.68,111.621,-15.9618,178.132,1.56006,-144.932,424
1569938607,367.68,111.621,-15.9618,178.132,1.56006,-144.932,424
1569938607,367.68,111.621,-15.9618,178.132,1.56006,-144.932,428
1569938607,367.68,111.621,-15.9618,178.132,1.56006,-144.932,428
1569938607,367.68,111.621,-15.9618,178.132,1.56006,-144.932,428
1569938607,367.68,111.621,-15.9618,178.132,1.56006,-144.932,428
1569938607,367.68,111.621,-15.8502,178.154,1.56006,-144.932,428
1569938607,367.68,111.621,-15.8502,178.154,1.56006,-144.932,428
1569938607,367.68,111.733,-15.8502,178.154,1.56006,-144.932,428
1569938607,367.68,111.733,-15.8502,178.154,1.56006,-144.932,428
1569938607,367.68,111.733,-15.8502,178.154,1.56006,-144.932,432
1569938607,367.68,111.733,-15.9618,178.154,1.56006,-144.932,432
1569938607,367.68,111.733,-15.9618,178.154,1.56006,-144.932,432
1569938607,367.68,111.733,-15.9618,178.176,1.56006,-144.932,432
1569938607,367.68,111.733,-15.9618,178.176,1.56006,-144.932,432
1569938607,367.68,111.733,-15.9618,178.176,1.56006,-144.932,432
1569938607,367.68,111.733,-15.9618,178.176,1.53809,-144.932,432
1569938607,367.68,111.733,-15.9618,178.176,1.53809,-144.932,432
1569938608,367.68,111.733,-15.9618,178.176,1.53809,-144.932,432
1569938608,367.68,111.733,-15.9618,178.176,1.53809,-144.932,436
1569938608,367.68,111.733,-15.9618,178.176,1.53809,-144.932,436
1569938608,367.68,111.733,-15.9618,178.176,1.53809,-144.932,436
1569938608,367.68,111.733,-15.9618,178.176,1.53809,-144.932,436
1569938608,367.568,111.733,-15.9618,178.176,1.53809,-144.932,436
1569938608,367.568,111.733,-15.9618,178.154,1.53809,-144.932,436
1569938608,367.568,111.733,-15.9618,178.154,1.53809,-144.932,436
1569938608,367.568,111.621,-15.9618,178.154,1.53809,-144.932,436
1569938608,367.568,111.621,-15.9618,178.154,1.53809,-144.932,436
1569938608,367.568,111.621,-15.9618,178.154,1.53809,-144.932,436
1569938608,367.568,111.621,-15.9618,178.154,1.53809,-144.932,436
1569938608,367.568,111.621,-15.9618,178.154,1.53809,-144.932,436
1569938608,367.568,111.621,-15.9618,178.154,1.53809,-144.932,436
1569938608,367.568,111.621,-15.9618,178.154,1.53809,-144.932,436
1569938608,367.568,111.621,-15.9618,178.154,1.53809,-144.932,436
1569938608,367.568,111.621,-15.9618,178.154,1.53809,-144.932,436
1569938608,367.568,111.621,-15.9618,178.154,1.53809,-144.932,436
1569938608,367.568,111.621,-15.9618,178.154,1.53809,-144.932,436
1569938608,367.568,111.621,-15.9618,178.154,1.53809,-144.932,436
1569938608,367.568,111.621,-15.9618,178.154,1.53809,-144.932,436
1569938608,367.568,111.621,-15.9618,178.154,1.53809,-144.932,436
1569938608,367.568,111.621,-15.9618,178.154,1.53809,-144.932,436
1569938608,367.568,111.621,-15.9618,178.154,1.53809,-144.932,436
1569938608,367.568,111.621,-15.9618,178.154,1.53809,-144.932,436
1569938608,367.568,111.621,-15.9618,178.154,1.53809,-144.932,436
1569938608,367.568,111.621,-15.8502,178.176,1.56006,-144.932,436
1569938608,367.568,111.621,-15.8502,178.176,1.56006,-144.932,436
1569938608,367.568,111.621,-15.8502,178.176,1.56006,-144.932,436
1569938608,367.568,111.733,-15.8502,178.176,1.56006,-144.932,436
1569938608,367.568,111.733,-15.8502,178.176,1.56006,-144.932,436
1569938608,367.568,111.733,-15.8502,178.176,1.56006,-144.932,436
1569938608,367.568,111.733,-15.8502,178.176,1.56006,-144.932,436
1569938608,367.568,111.733,-15.8502,178.176,1.58203,-144.932,436
1569938608,367.568,111.733,-15.8502,178.176,1.58203,-144.932,436
1569938608,367.568,111.733,-15.8502,178.176,1.58203,-144.954,436
1569938608,367.568,111.733,-15.8502,178.176,1.58203,-144.954,436
1569938608,367.568,111.733,-15.8502,178.176,1.58203,-144.954,436
1569938608,367.568,111.733,-15.8502,178.154,1.58203,-144.954,436
1569938608,367.568,111.733,-15.8502,178.154,1.58203,-144.932,436
1569938608,367.568,111.621,-15.8502,178.154,1.58203,-144.932,436
1569938608,367.568,111.621,-15.8502,178.154,1.58203,-144.932,436
1569938608,367.568,111.621,-15.8502,178.154,1.58203,-144.932,436
1569938608,367.568,111.621,-15.8502,178.154,1.58203,-144.932,436
1569938608,367.568,111.621,-15.8502,178.154,1.58203,-144.932,436
1569938608,367.568,111.621,-15.8502,178.154,1.58203,-144.932,436
1569938608,367.568,111.621,-15.8502,178.154,1.58203,-144.932,436
1569938608,367.568,111.621,-15.8502,178.154,1.58203,-144.932,440
1569938608,367.568,111.621,-15.8502,178.154,1.58203,-144.932,440
1569938608,367.568,111.621,-15.8502,178.154,1.56006,-144.932,440
1569938608,367.568,111.621,-15.8502,178.154,1.56006,-144.932,440
1569938608,367.568,111.621,-15.8502,178.154,1.56006,-144.932,440
1569938608,367.568,111.621,-15.8502,178.154,1.56006,-144.932,440
1569938608,367.568,111.621,-15.8502,178.154,1.56006,-144.932,444
1569938608,367.568,111.621,-15.8502,178.154,1.56006,-144.932,444
1569938608,367.568,111.621,-15.8502,178.154,1.56006,-144.932,444
1569938608,367.568,111.621,-15.9618,178.154,1.56006,-144.932,444
1569938608,367.568,111.733,-15.9618,178.154,1.56006,-144.932,444
1569938608,367.568,111.733,-15.9618,178.154,1.56006,-144.932,444
1569938608,367.568,111.733,-15.9618,178.154,1.56006,-144.932,444
1569938608,367.568,111.733,-15.9618,178.154,1.56006,-144.932,444
1569938608,367.568,111.733,-15.8502,178.154,1.58203,-144.932,448
1569938608,367.568,111.733,-15.8502,178.154,1.58203,-144.932,448
1569938608,367.568,111.733,-15.8502,178.154,1.58203,-144.932,448
1569938608,367.568,111.733,-15.8502,178.154,1.58203,-144.932,448
1569938608,367.568,111.733,-15.8502,178.154,1.58203,-144.932,448
1569938608,367.568,111.733,-15.8502,178.154,1.58203,-144.932,448
1569938608,367.568,111.733,-15.8502,178.154,1.58203,-144.932,448
1569938608,367.568,111.733,-15.8502,178.154,1.58203,-144.932,452
1569938608,367.568,111.733,-15.8502,178.154,1.58203,-144.932,452
1569938608,367.568,111.733,-15.8502,178.176,1.58203,-144.932,452
1569938608,367.568,111.733,-15.8502,178.176,1.58203,-144.932,452
1569938608,367.568,111.733,-15.8502,178.176,1.58203,-144.932,452
1569938608,367.568,111.733,-15.8502,178.176,1.58203,-144.932,452
1569938608,367.568,111.733,-15.8502,178.176,1.58203,-144.932,452
1569938608,367.568,111.733,-15.8502,178.176,1.58203,-144.932,452
1569938608,367.568,111.733,-15.8502,178.176,1.58203,-144.932,452
1569938608,367.568,111.733,-15.8502,178.176,1.58203,-144.932,452
1569938608,367.568,111.733,-15.7386,178.176,1.604,-144.932,452
1569938608,367.568,111.733,-15.7386,178.176,1.604,-144.932,452
1569938608,367.568,111.733,-15.7386,178.176,1.604,-144.932,452
1569938608,367.568,111.733,-15.7386,178.176,1.604,-144.932,452
1569938608,367.568,111.733,-15.7386,178.176,1.604,-144.932,452
1569938608,367.568,111.733,-15.7386,178.154,1.604,-144.932,452
1569938608,367.568,111.733,-15.7386,178.154,1.604,-144.932,452
1569938608,367.568,111.621,-15.7386,178.154,1.604,-144.932,448
1569938608,367.568,111.621,-15.7386,178.154,1.604,-144.932,448
1569938608,367.568,111.621,-15.7386,178.154,1.604,-144.932,448
1569938608,367.568,111.621,-15.7386,178.154,1.604,-144.932,448
1569938608,367.568,111.621,-15.7386,178.154,1.604,-144.932,448
1569938608,367.568,111.621,-15.7386,178.154,1.604,-144.932,448
1569938608,367.568,111.621,-15.7386,178.154,1.604,-144.932,448
1569938608,367.568,111.621,-15.7386,178.154,1.604,-144.932,448
1569938608,367.568,111.621,-15.8502,178.154,1.58203,-144.932,448
1569938608,367.568,111.621,-15.8502,178.154,1.58203,-144.932,448
1569938608,367.568,111.621,-15.8502,178.154,1.58203,-144.932,448
1569938608,367.568,111.621,-15.8502,178.154,1.58203,-144.932,448
1569938608,367.568,111.621,-15.8502,178.154,1.58203,-144.932,448
1569938608,367.568,111.621,-15.8502,178.154,1.58203,-144.932,448
1569938608,367.568,111.621,-15.8502,178.154,1.58203,-144.932,448
1569938609,367.568,111.621,-15.8502,178.154,1.58203,-144.932,448
1569938609,367.568,111.621,-15.8502,178.154,1.58203,-144.932,448
1569938609,367.568,111.621,-15.8502,178.154,1.58203,-144.932,448
1569938609,367.568,111.621,-15.8502,178.154,1.58203,-144.932,448
1569938609,367.568,111.621,-15.8502,178.154,1.58203,-144.932,444
1569938609,367.568,111.621,-15.8502,178.154,1.58203,-144.932,444
1569938609,367.568,111.621,-15.8502,178.154,1.58203,-144.932,444
1569938609,367.568,111.621,-15.8502,178.154,1.58203,-144.932,444
1569938609,367.568,111.621,-15.8502,178.154,1.58203,-144.932,444
1569938609,367.568,111.621,-15.8502,178.154,1.58203,-144.932,444
1569938609,367.568,111.621,-15.8502,178.154,1.58203,-144.932,444
1569938609,367.568,111.733,-15.8502,178.154,1.58203,-144.932,444
1569938609,367.568,111.733,-15.8502,178.154,1.58203,-144.932,444
1569938609,367.568,111.733,-15.8502,178.154,1.58203,-144.932,444
1569938609,367.568,111.733,-15.8502,178.154,1.58203,-144.932,444
1569938609,367.568,111.733,-15.8502,178.154,1.58203,-144.932,444
1569938609,367.568,111.733,-15.7386,178.154,1.58203,-144.932,444
1569938609,367.568,111.733,-15.7386,178.154,1.604,-144.932,444
1569938609,367.568,111.733,-15.7386,178.154,1.604,-144.932,444
1569938609,367.568,111.733,-15.7386,178.154,1.604,-144.954,444
1569938609,367.568,111.733,-15.7386,178.154,1.604,-144.954,444
1569938609,367.457,111.621,-15.7386,178.154,1.604,-144.954,444
1569938609,367.457,111.621,-15.7386,178.154,1.604,-144.954,444
1569938609,367.457,111.621,-15.7386,178.154,1.604,-144.954,444
1569938609,367.457,111.621,-15.7386,178.154,1.604,-144.954,444
1569938609,367.457,111.621,-15.7386,178.154,1.604,-144.954,444
1569938609,367.457,111.621,-15.7386,178.154,1.604,-144.954,448
1569938609,367.457,111.621,-15.7386,178.154,1.604,-144.954,448
1569938609,367.457,111.621,-15.7386,178.154,1.604,-144.954,448
1569938609,367.457,111.621,-15.7386,178.154,1.604,-144.954,448
1569938609,367.457,111.621,-15.7386,178.154,1.604,-144.954,448
1569938609,367.457,111.621,-15.7386,178.154,1.604,-144.954,448
1569938609,367.457,111.621,-15.7386,178.154,1.604,-144.954,448
1569938609,367.457,111.621,-15.7386,178.154,1.604,-144.932,448
1569938609,367.457,111.733,-15.7386,178.154,1.604,-144.932,448
1569938609,367.457,111.733,-15.7386,178.154,1.604,-144.932,448
1569938609,367.568,111.733,-15.7386,178.154,1.604,-144.932,444
1569938609,367.568,111.733,-15.7386,178.154,1.604,-144.932,444
1569938609,367.457,111.733,-15.7386,178.154,1.604,-144.932,444
1569938609,367.457,111.733,-15.7386,178.154,1.58203,-144.932,444
1569938609,367.457,111.733,-15.7386,178.154,1.58203,-144.932,444
1569938609,367.457,111.621,-15.7386,178.154,1.58203,-144.932,440
1569938609,367.457,111.621,-15.7386,178.154,1.58203,-144.932,440
1569938609,367.457,111.621,-15.8502,178.154,1.58203,-144.932,440
1569938609,367.457,111.621,-15.8502,178.154,1.58203,-144.932,440
1569938609,367.457,111.621,-15.8502,178.154,1.58203,-144.932,440
1569938609,367.457,111.621,-15.8502,178.132,1.58203,-144.932,440
1569938609,367.457,111.621,-15.8502,178.132,1.58203,-144.932,440
1569938609,367.457,111.621,-15.8502,178.132,1.58203,-144.932,440
1569938609,367.457,111.621,-15.8502,178.132,1.56006,-144.932,440
1569938609,367.457,111.621,-15.8502,178.132,1.56006,-144.932,440
1569938609,367.457,111.621,-15.8502,178.132,1.56006,-144.932,440
1569938609,367.457,111.621,-15.8502,178.132,1.56006,-144.932,440
1569938609,367.457,111.621,-15.8502,178.132,1.56006,-144.932,444
1569938609,367.457,111.621,-15.8502,178.132,1.56006,-144.932,444
1569938609,367.457,111.621,-15.8502,178.132,1.56006,-144.932,444
1569938609,367.457,111.621,-15.8502,178.132,1.56006,-144.932,444
1569938609,367.457,111.621,-15.8502,178.132,1.56006,-144.932,444
1569938609,367.457,111.621,-15.8502,178.132,1.56006,-144.932,444
1569938609,367.457,111.621,-15.8502,178.132,1.56006,-144.932,444
1569938609,367.457,111.621,-15.8502,178.132,1.56006,-144.932,444
1569938609,367.457,111.621,-15.8502,178.132,1.56006,-144.932,444
1569938609,367.457,111.621,-15.8502,178.132,1.58203,-144.932,444
1569938609,367.457,111.621,-15.8502,178.132,1.58203,-144.932,444
1569938609,367.457,111.621,-15.8502,178.132,1.58203,-144.932,444
1569938609,367.457,111.621,-15.8502,178.132,1.58203,-144.932,444
1569938609,367.457,111.621,-15.8502,178.132,1.58203,-144.932,444
1569938609,367.457,111.621,-15.7386,178.132,1.58203,-144.932,444
1569938609,367.457,111.621,-15.7386,178.132,1.58203,-144.932,444
1569938609,367.457,111.621,-15.7386,178.132,1.604,-144.932,444
1569938609,367.457,111.621,-15.7386,178.132,1.604,-144.932,444
1569938609,367.457,111.621,-15.7386,178.132,1.604,-144.932,448
1569938609,367.457,111.621,-15.7386,178.132,1.604,-144.932,448
1569938609,367.457,111.621,-15.7386,178.132,1.604,-144.932,448
1569938609,367.457,111.621,-15.7386,178.132,1.604,-144.932,448
1569938609,367.457,111.621,-15.7386,178.154,1.604,-144.932,448
1569938609,367.457,111.621,-15.7386,178.154,1.604,-144.932,448
1569938609,367.457,111.621,-15.7386,178.154,1.604,-144.932,448
1569938609,367.457,111.621,-15.7386,178.154,1.604,-144.932,448
1569938609,367.457,111.621,-15.7386,178.154,1.604,-144.932,448
1569938609,367.457,111.621,-15.7386,178.154,1.604,-144.932,448
1569938609,367.568,111.621,-15.7386,178.154,1.604,-144.932,448
1569938609,367.568,111.621,-15.7386,178.154,1.604,-144.932,448
1569938609,367.568,111.621,-15.7386,178.154,1.604,-144.932,448
1569938609,367.568,111.621,-15.7386,178.132,1.604,-144.932,448
1569938609,367.568,111.621,-15.7386,178.132,1.604,-144.932,448
1569938609,367.568,111.621,-15.7386,178.132,1.604,-144.932,448
1569938609,367.568,111.621,-15.7386,178.132,1.62598,-144.932,448
1569938609,367.568,111.621,-15.7386,178.132,1.62598,-144.932,448
1569938609,367.568,111.621,-15.7386,178.132,1.604,-144.932,448
1569938609,367.568,111.621,-15.7386,178.132,1.604,-144.91,448
1569938609,367.568,111.621,-15.7386,178.154,1.604,-144.91,452
1569938609,367.568,111.621,-15.7386,178.154,1.604,-144.91,452
1569938609,367.457,111.621,-15.7386,178.154,1.604,-144.932,452
1569938609,367.457,111.621,-15.7386,178.154,1.604,-144.932,452
1569938609,367.457,111.621,-15.7386,178.154,1.58203,-144.932,452
1569938609,367.457,111.621,-15.8502,178.154,1.58203,-144.932,456
1569938609,367.457,111.621,-15.8502,178.154,1.58203,-144.932,456
1569938609,367.457,111.621,-15.8502,178.154,1.58203,-144.91,456
1569938609,367.457,111.621,-15.8502,178.154,1.56006,-144.91,456
1569938610,367.457,111.621,-15.8502,178.154,1.56006,-144.91,456
1569938610,367.457,111.621,-15.8502,178.154,1.56006,-144.91,460
1569938610,367.457,111.621,-15.8502,178.154,1.56006,-144.91,460
1569938610,367.457,111.733,-15.8502,178.176,1.56006,-144.91,460
1569938610,367.457,111.733,-15.8502,178.176,1.56006,-144.91,460
1569938610,367.457,111.733,-15.8502,178.176,1.56006,-144.91,460
1569938610,367.457,111.733,-15.8502,178.176,1.56006,-144.91,460
1569938610,367.457,111.733,-15.8502,178.176,1.56006,-144.91,456
1569938610,367.457,111.733,-15.8502,178.176,1.56006,-144.91,456
1569938610,367.568,111.733,-15.8502,178.176,1.56006,-144.91,456
1569938610,367.568,111.733,-15.8502,178.176,1.56006,-144.91,456
1569938610,367.568,111.733,-15.8502,178.176,1.56006,-144.91,452
1569938610,367.568,111.733,-15.8502,178.176,1.56006,-144.91,452
1569938610,367.568,111.733,-15.8502,178.176,1.56006,-144.91,452
1569938610,367.568,111.733,-15.8502,178.176,1.56006,-144.932,448
1569938610,367.568,111.733,-15.8502,178.176,1.58203,-144.932,448
1569938610,367.568,111.733,-15.8502,178.176,1.58203,-144.932,448
1569938610,367.568,111.733,-15.8502,178.176,1.58203,-144.932,444
1569938610,367.568,111.733,-15.8502,178.176,1.58203,-144.932,444
1569938610,367.568,111.733,-15.8502,178.176,1.58203,-144.932,444
1569938610,367.568,111.733,-15.8502,178.176,1.58203,-144.932,444
1569938610,367.568,111.733,-15.8502,178.176,1.56006,-144.932,444
1569938615,405.854,69.9864,-15.1805,178,1.82373,-145.107,504
1569938615,405.854,69.9864,-15.1805,178,1.82373,-145.107,504
1569938615,405.854,69.9864,-15.1805,178,1.82373,-145.107,504
1569938615,405.854,69.9864,-15.1805,178,1.82373,-145.107,504
1569938615,405.854,69.9864,-15.1805,178,1.82373,-145.107,504
1569938615,405.743,69.9864,-15.2921,178,1.82373,-145.107,504
1569938615,405.743,69.9864,-15.2921,178.022,1.80176,-145.107,504
1569938615,405.743,69.9864,-15.2921,178.022,1.80176,-145.107,500
1569938615,405.743,69.9864,-15.2921,178.022,1.80176,-145.107,500
1569938615,405.743,69.9864,-15.2921,178.022,1.80176,-145.107,500
1569938615,405.743,69.9864,-15.2921,178.022,1.80176,-145.107,500
1569938615,405.743,69.9864,-15.2921,178.022,1.80176,-145.107,500
1569938615,405.743,69.9864,-15.2921,178.022,1.77979,-145.107,500
1569938615,405.743,70.098,-15.2921,178.022,1.77979,-145.107,500
1569938615,405.743,70.098,-15.2921,178.022,1.77979,-145.107,496
1569938615,405.743,69.9864,-15.2921,178.022,1.77979,-145.107,496
1569938615,405.854,69.9864,-15.2921,178.022,1.77979,-145.107,496
1569938615,405.854,69.9864,-15.2921,178.022,1.77979,-145.107,496
1569938615,405.854,69.9864,-15.2921,178.022,1.77979,-145.107,496
1569938615,405.854,69.9864,-15.2921,178.022,1.77979,-145.107,492
1569938615,405.854,69.9864,-15.2921,178.022,1.77979,-145.107,492
1569938615,405.854,69.9864,-15.2921,178,1.77979,-145.107,492
1569938615,405.854,69.9864,-15.2921,178,1.77979,-145.107,492
1569938615,405.854,69.9864,-15.2921,178.022,1.77979,-145.107,492
1569938615,405.854,69.9864,-15.2921,178.022,1.77979,-145.107,492
1569938615,405.854,69.9864,-15.2921,178.022,1.77979,-145.107,492
1569938615,405.854,69.9864,-15.2921,178.022,1.77979,-145.107,492
1569938615,405.854,69.9864,-15.2921,178.022,1.77979,-145.107,492
1569938615,405.854,69.9864,-15.2921,178.022,1.77979,-145.107,492
1569938615,405.854,70.098,-15.2921,178.022,1.77979,-145.107,492
1569938615,405.854,70.098,-15.2921,178.022,1.77979,-145.107,492
1569938615,405.854,70.098,-15.2921,178.022,1.77979,-145.107,492
1569938615,405.854,70.098,-15.2921,178.044,1.77979,-145.107,492
1569938615,405.854,70.098,-15.2921,178.044,1.77979,-145.107,492
1569938615,405.854,70.098,-15.2921,178.044,1.77979,-145.129,492
1569938615,405.854,70.098,-15.4037,178.044,1.77979,-145.129,492
1569938615,405.854,70.098,-15.4037,178.044,1.77979,-145.129,492
1569938615,405.854,70.098,-15.4037,178.044,1.75781,-145.129,492
1569938615,405.854,70.098,-15.4037,178.044,1.75781,-145.129,492
1569938615,405.854,70.098,-15.4037,178.044,1.75781,-145.129,492
1569938615,405.854,70.098,-15.4037,178.044,1.75781,-145.129,492
1569938615,405.854,70.098,-15.4037,178.044,1.75781,-145.129,492
1569938615,405.854,70.098,-15.4037,178.044,1.75781,-145.129,492
1569938615,405.854,70.098,-15.4037,178.044,1.77979,-145.129,492
1569938615,405.854,70.098,-15.4037,178.044,1.77979,-145.129,492
1569938615,405.854,70.098,-15.4037,178.044,1.77979,-145.129,492
1569938615,405.854,70.098,-15.4037,178.044,1.77979,-145.129,492
1569938615,405.854,70.098,-15.2921,178.044,1.77979,-145.129,492
1569938615,405.854,70.098,-15.2921,178.044,1.77979,-145.129,492
1569938615,405.854,70.098,-15.2921,178.044,1.77979,-145.129,492
1569938615,405.854,70.098,-15.2921,178.044,1.77979,-145.129,496
1569938615,405.854,70.098,-15.2921,178.044,1.77979,-145.129,496
1569938615,405.743,70.098,-15.2921,178.044,1.77979,-145.129,496
1569938615,405.743,70.098,-15.2921,178.044,1.77979,-145.129,496
1569938615,405.743,70.098,-15.2921,178.044,1.77979,-145.151,500
1569938615,405.743,70.098,-15.2921,178.044,1.77979,-145.151,500
1569938615,405.743,70.098,-15.2921,178.044,1.77979,-145.151,500
1569938615,405.743,70.098,-15.2921,178.044,1.77979,-145.151,504
1569938615,405.743,70.098,-15.2921,178.044,1.77979,-145.151,504
1569938615,405.743,70.098,-15.2921,178.044,1.77979,-145.151,504
1569938615,405.743,70.098,-15.2921,178.044,1.77979,-145.151,504
1569938615,405.743,70.098,-15.2921,178.044,1.77979,-145.151,504
1569938615,405.743,70.098,-15.2921,178.044,1.77979,-145.129,504
1569938615,405.743,70.098,-15.2921,178.022,1.77979,-145.129,504
1569938615,405.743,70.098,-15.2921,178.022,1.77979,-145.129,504
1569938615,405.743,69.9864,-15.2921,178.022,1.77979,-145.129,504
1569938615,405.743,69.9864,-15.2921,178.022,1.77979,-145.129,504
1569938615,405.743,69.9864,-15.2921,178.022,1.77979,-145.129,504
1569938615,405.743,69.9864,-15.2921,178,1.77979,-145.129,504
1569938615,405.743,69.9864,-15.2921,178,1.77979,-145.129,504
1569938615,405.743,69.9864,-15.2921,178,1.77979,-145.107,504
1569938615,405.743,69.9864,-15.2921,178,1.77979,-145.107,504
1569938615,405.743,69.9864,-15.2921,178,1.77979,-145.107,504
1569938616,405.743,69.9864,-15.2921,178,1.77979,-145.107,504
1569938616,405.743,69.9864,-15.2921,178,1.77979,-145.107,508
1569938616,405.743,69.9864,-15.2921,178,1.77979,-145.107,508
1569938616,405.743,69.9864,-15.2921,178,1.77979,-145.107,508
1569938616,405.743,69.9864,-15.2921,178,1.77979,-145.107,508
1569938616,405.743,69.9864,-15.2921,178,1.77979,-145.107,512
1569938616,405.743,69.9864,-15.2921,178,1.77979,-145.107,512
1569938616,405.743,69.9864,-15.2921,178,1.77979,-145.107,512
1569938616,405.743,69.9864,-15.2921,178,1.75781,-145.107,512
1569938616,405.743,69.9864,-15.2921,178,1.75781,-145.107,512
1569938616,405.854,69.9864,-15.2921,178,1.75781,-145.107,512
1569938616,405.854,69.9864,-15.2921,178,1.75781,-145.107,512
1569938616,405.854,69.9864,-15.2921,178,1.75781,-145.107,512
1569938616,405.854,69.9864,-15.2921,178,1.75781,-145.107,512
1569938616,405.854,69.9864,-15.2921,178,1.75781,-145.107,512
1569938616,405.854,69.9864,-15.2921,178,1.75781,-145.107,512
1569938616,405.854,69.9864,-15.2921,178,1.75781,-145.107,512
1569938616,405.854,69.9864,-15.2921,178,1.77979,-145.107,512
1569938616,405.854,69.9864,-15.2921,178,1.77979,-145.107,508
1569938616,405.854,69.9864,-15.2921,178,1.77979,-145.107,508
1569938616,405.854,69.9864,-15.2921,178,1.77979,-145.107,508
1569938616,405.854,69.9864,-15.2921,178,1.77979,-145.107,508
1569938616,405.854,69.9864,-15.2921,178,1.77979,-145.107,508
1569938616,405.854,69.9864,-15.2921,178.022,1.77979,-145.129,508
1569938616,405.854,69.9864,-15.2921,178.022,1.77979,-145.129,508
1569938616,405.854,69.9864,-15.2921,178.022,1.77979,-145.129,508
1569938616,405.854,69.9864,-15.1805,178.022,1.80176,-145.129,508
1569938616,405.854,69.9864,-15.1805,178.022,1.80176,-145.129,508
1569938616,405.854,69.9864,-15.1805,178.022,1.80176,-145.129,508
1569938616,405.854,69.9864,-15.1805,178.022,1.80176,-145.129,504
1569938616,405.854,69.9864,-15.1805,178.022,1.82373,-145.129,504
1569938616,405.854,70.098,-15.1805,178.022,1.82373,-145.129,504
1569938616,405.743,70.098,-15.1805,178.022,1.82373,-145.129,504
1569938616,405.743,70.098,-15.1805,178.022,1.82373,-145.129,504
1569938616,405.743,70.098,-15.1805,178.022,1.82373,-145.129,500
1569938616,405.743,70.098,-15.1805,178.022,1.82373,-145.151,500
1569938616,405.743,70.098,-15.1805,178.022,1.82373,-145.151,500
1569938616,405.743,70.098,-15.1805,178.044,1.82373,-145.151,500
1569938616,405.743,70.098,-15.1805,178.044,1.82373,-145.151,496
1569938616,405.743,70.098,-15.1805,178.044,1.80176,-145.151,496
1569938616,405.743,70.098,-15.1805,178.044,1.80176,-145.151,496
1569938616,405.743,70.098,-15.1805,178.044,1.80176,-145.151,496
1569938616,405.743,70.098,-15.1805,178.066,1.80176,-145.151,492
1569938616,405.743,70.2097,-15.1805,178.066,1.80176,-145.151,492
1569938616,405.743,70.2097,-15.1805,178.066,1.80176,-145.129,492
1569938616,405.743,70.2097,-15.1805,178.088,1.80176,-145.129,492
1569938616,405.743,70.2097,-15.1805,178.088,1.80176,-145.129,492
1569938616,405.743,70.2097,-15.1805,178.088,1.82373,-145.129,496
1569938616,405.743,70.2097,-15.1805,178.088,1.82373,-145.129,496
1569938616,405.631,70.2097,-15.1805,178.088,1.82373,-145.129,496
1569938616,405.631,70.2097,-15.1805,178.088,1.82373,-145.129,496
1569938616,405.631,70.2097,-15.1805,178.088,1.82373,-145.129,496
1569938616,405.631,70.2097,-15.1805,178.088,1.82373,-145.129,496
1569938616,405.631,70.2097,-15.0688,178.088,1.82373,-145.129,500
1569938616,405.631,70.2097,-15.0688,178.088,1.8457,-145.107,500
1569938616,405.631,70.2097,-15.0688,178.088,1.8457,-145.107,500
1569938616,405.631,70.2097,-15.0688,178.088,1.8457,-145.107,500
1569938616,405.631,70.2097,-15.0688,178.088,1.8457,-145.107,500
1569938616,405.631,70.2097,-15.0688,178.088,1.8457,-145.107,504
1569938616,405.631,70.2097,-15.0688,178.088,1.8457,-145.107,504
1569938616,405.631,70.2097,-15.0688,178.088,1.8457,-145.107,504
1569938616,405.631,70.098,-15.0688,178.088,1.8457,-145.107,504
1569938616,405.631,70.098,-15.0688,178.088,1.8457,-145.107,504
1569938616,405.631,70.098,-15.1805,178.066,1.8457,-145.107,504
1569938616,405.631,70.098,-15.1805,178.066,1.8457,-145.107,508
1569938616,405.631,70.098,-15.1805,178.066,1.8457,-145.107,508
1569938616,405.631,70.098,-15.1805,178.066,1.82373,-145.107,508
1569938616,405.631,70.098,-15.1805,178.066,1.82373,-145.107,508
1569938616,405.631,70.098,-15.1805,178.066,1.82373,-145.107,508
1569938616,405.631,70.098,-15.1805,178.066,1.82373,-145.107,512
1569938616,405.631,70.098,-15.1805,178.066,1.82373,-145.107,512
1569938616,405.631,70.098,-15.1805,178.066,1.82373,-145.107,512
1569938616,405.631,70.098,-15.1805,178.066,1.82373,-145.107,512
1569938616,405.631,70.098,-15.1805,178.066,1.82373,-145.107,512
1569938616,405.631,70.098,-15.1805,178.044,1.82373,-145.107,512
1569938616,405.631,70.098,-15.1805,178.044,1.82373,-145.107,512
1569938616,405.631,70.098,-15.1805,178.044,1.82373,-145.107,512
1569938616,405.631,69.9864,-15.1805,178.044,1.82373,-145.129,512
1569938616,405.631,69.9864,-15.1805,178.044,1.80176,-145.129,512
1569938616,405.631,69.9864,-15.1805,178.044,1.80176,-145.129,512
1569938616,405.631,69.9864,-15.1805,178.044,1.80176,-145.129,512
1569938616,405.631,69.9864,-15.1805,178.044,1.80176,-145.129,512
1569938616,405.631,69.9864,-15.1805,178.044,1.80176,-145.129,512
1569938616,405.631,69.9864,-15.1805,178.044,1.80176,-145.129,512
1569938616,405.631,69.9864,-15.1805,178.044,1.80176,-145.129,512
1569938616,405.631,69.9864,-15.2921,178.044,1.80176,-145.129,512
1569938616,405.631,69.9864,-15.2921,178.044,1.80176,-145.129,516
1569938616,405.631,69.9864,-15.2921,178.044,1.80176,-145.129,516
1569938616,405.631,69.9864,-15.2921,178.044,1.80176,-145.107,516
1569938616,405.631,69.9864,-15.2921,178.044,1.80176,-145.107,516
1569938616,405.631,70.098,-15.2921,178.044,1.80176,-145.107,516
1569938616,405.631,70.098,-15.2921,178.044,1.80176,-145.107,516
1569938616,405.631,70.098,-15.2921,178.044,1.80176,-145.107,516
1569938616,405.743,70.098,-15.2921,178.044,1.80176,-145.107,516
1569938616,405.743,70.098,-15.2921,178.044,1.80176,-145.107,512
1569938616,405.743,70.098,-15.2921,178.044,1.80176,-145.107,512
1569938616,405.743,70.098,-15.2921,178.044,1.80176,-145.107,512
1569938616,405.743,70.098,-15.2921,178.044,1.80176,-145.107,508
1569938616,405.743,70.098,-15.1805,178.044,1.80176,-145.107,508
1569938616,405.743,70.098,-15.1805,178.044,1.80176,-145.107,504
1569938617,405.743,70.098,-15.2921,178.044,1.80176,-145.107,504
1569938617,405.743,69.9864,-15.2921,178.044,1.80176,-145.107,500
1569938617,405.743,70.098,-15.2921,178.044,1.80176,-145.107,500
1569938617,405.743,70.098,-15.2921,178.044,1.80176,-145.107,496
1569938617,405.743,70.098,-15.2921,178.044,1.80176,-145.107,496
1569938617,405.743,70.098,-15.2921,178.044,1.80176,-145.107,496
1569938617,405.743,70.098,-15.2921,178.044,1.80176,-145.107,492
1569938617,405.743,70.098,-15.2921,178.044,1.80176,-145.085,492
1569938617,405.743,70.098,-15.2921,178.044,1.80176,-145.085,492
1569938617,405.743,70.098,-15.2921,178.044,1.80176,-145.085,492
1569938617,405.743,70.098,-15.2921,178.044,1.80176,-145.085,492
1569938617,405.743,70.098,-15.2921,178.044,1.80176,-145.085,492
1569938617,405.743,70.098,-15.2921,178.044,1.80176,-145.085,492
1569938617,405.743,70.098,-15.2921,178.044,1.80176,-145.085,492
1569938617,405.743,70.098,-15.2921,178.044,1.80176,-145.085,492
1569938617,405.743,69.9864,-15.2921,178.044,1.80176,-145.085,492
1569938617,405.743,69.9864,-15.2921,178.044,1.80176,-145.085,492
1569938617,405.743,69.9864,-15.1805,178.022,1.80176,-145.085,496
1569938617,405.743,69.9864,-15.1805,178.022,1.80176,-145.085,496
1569938617,405.743,69.9864,-15.1805,178.022,1.80176,-145.085,496
1569938617,405.631,69.9864,-15.1805,178.022,1.82373,-145.085,496
1569938617,405.631,69.9864,-15.1805,178.022,1.82373,-145.085,496
1569938617,405.631,69.9864,-15.1805,178.022,1.82373,-145.085,500
1569938617,405.631,69.9864,-15.1805,178.022,1.80176,-145.085,500
1569938617,405.631,69.9864,-15.1805,178.022,1.80176,-145.085,500
1569938617,405.631,69.9864,-15.1805,178.022,1.80176,-145.085,504
1569938617,405.631,69.9864,-15.1805,178.022,1.80176,-145.085,504
1569938617,405.631,69.9864,-15.1805,178.022,1.80176,-145.107,508
1569938617,405.631,69.9864,-15.1805,178.022,1.80176,-145.107,508
1569938617,405.631,69.9864,-15.1805,178.022,1.80176,-145.107,512
1569938617,405.631,69.9864,-15.1805,178.022,1.80176,-145.107,512
1569938617,405.631,69.9864,-15.1805,178.022,1.80176,-145.107,512
1569938617,405.631,69.9864,-15.1805,178.022,1.80176,-145.107,516
1569938617,405.631,69.9864,-15.1805,178.022,1.80176,-145.107,516
1569938617,405.743,69.9864,-15.1805,178.022,1.80176,-145.107,516
1569938617,405.743,69.9864,-15.1805,178.022,1.80176,-145.107,516
1569938617,405.743,69.9864,-15.1805,178.022,1.80176,-145.107,516
1569938617,405.743,69.9864,-15.1805,178,1.80176,-145.107,516
1569938617,405.743,69.9864,-15.1805,178,1.80176,-145.107,516
1569938617,405.743,69.9864,-15.1805,178,1.80176,-145.107,512
1569938617,405.743,69.9864,-15.1805,178,1.80176,-145.107,512
1569938617,405.743,69.8748,-15.1805,178,1.80176,-145.107,512
1569938617,405.743,69.8748,-15.1805,178,1.80176,-145.107,512
1569938617,405.743,69.8748,-15.1805,178,1.80176,-145.107,512
1569938617,405.743,69.8748,-15.1805,178,1.80176,-145.107,512
1569938617,405.743,69.8748,-15.1805,178,1.80176,-145.107,508
1569938617,405.743,69.8748,-15.1805,178,1.80176,-145.107,508
1569938617,405.743,69.8748,-15.1805,178,1.82373,-145.107,508
1569938617,405.743,69.8748,-15.1805,177.979,1.82373,-145.107,508
1569938617,405.743,69.8748,-15.1805,177.979,1.80176,-145.107,508
1569938617,405.743,69.8748,-15.1805,177.979,1.80176,-145.107,508
1569938617,405.743,69.8748,-15.1805,178,1.80176,-145.107,508
1569938617,405.743,69.8748,-15.1805,178,1.80176,-145.107,508
1569938617,405.743,69.8748,-15.1805,178,1.80176,-145.129,508
1569938617,405.743,69.8748,-15.1805,178,1.80176,-145.129,508
1569938617,405.743,69.9864,-15.1805,178,1.80176,-145.129,508
1569938617,405.743,69.9864,-15.1805,178,1.80176,-145.129,508
1569938617,405.743,69.9864,-15.1805,178,1.80176,-145.129,504
1569938617,405.743,69.9864,-15.1805,178,1.80176,-145.129,504
1569938617,405.743,69.9864,-15.1805,178,1.80176,-145.129,504
1569938617,405.743,69.9864,-15.1805,178,1.80176,-145.129,504
1569938617,405.743,69.9864,-15.1805,178,1.80176,-145.129,500
1569938617,405.743,69.9864,-15.1805,178,1.80176,-145.129,500
1569938617,405.743,69.9864,-15.1805,178,1.80176,-145.129,500
1569938617,405.743,69.9864,-15.2921,178,1.80176,-145.129,500
1569938617,405.743,69.9864,-15.2921,178,1.80176,-145.129,500
1569938617,405.743,69.8748,-15.2921,178,1.80176,-145.129,500
1569938617,405.743,69.8748,-15.2921,178,1.80176,-145.129,500
1569938617,405.743,69.8748,-15.2921,178,1.80176,-145.129,500
1569938617,405.743,69.8748,-15.2921,178,1.80176,-145.129,500
1569938617,405.743,69.8748,-15.2921,178,1.80176,-145.129,500
1569938617,405.743,69.8748,-15.2921,178,1.80176,-145.129,500
1569938617,405.743,69.8748,-15.2921,178,1.80176,-145.129,500
1569938617,405.743,69.8748,-15.2921,178,1.80176,-145.129,500
1569938617,405.743,69.9864,-15.2921,178,1.80176,-145.107,500
1569938617,405.854,69.9864,-15.2921,178,1.80176,-145.107,500
1569938617,405.854,69.9864,-15.2921,178,1.80176,-145.107,504
1569938617,405.854,69.9864,-15.2921,178.022,1.80176,-145.107,504
1569938617,405.854,69.9864,-15.2921,178.022,1.77979,-145.107,504
1569938617,405.743,69.9864,-15.2921,178.022,1.77979,-145.107,504
1569938617,405.743,69.9864,-15.2921,178.022,1.77979,-145.085,504
1569938617,405.743,69.9864,-15.2921,178.022,1.77979,-145.085,504
1569938617,405.743,69.9864,-15.2921,178.022,1.77979,-145.085,504
1569938617,405.743,69.9864,-15.2921,178.022,1.77979,-145.085,504
1569938617,405.743,69.9864,-15.2921,178.022,1.77979,-145.085,504
1569938617,405.743,69.9864,-15.2921,178.022,1.80176,-145.085,504
1569938617,405.743,69.9864,-15.2921,178.022,1.80176,-145.085,504
1569938617,405.743,69.9864,-15.2921,178.022,1.80176,-145.085,504
1569938617,405.743,69.9864,-15.2921,178.022,1.80176,-145.085,504
1569938617,405.743,69.9864,-15.2921,178.022,1.80176,-145.107,504
1569938617,405.743,69.9864,-15.2921,178.022,1.80176,-145.107,504
1569938617,405.743,69.9864,-15.2921,178,1.80176,-145.107,504
1569938617,405.743,69.9864,-15.2921,178,1.80176,-145.107,504
1569938617,405.743,69.9864,-15.2921,178,1.80176,-145.107,504
1569938617,405.743,69.9864,-15.2921,178,1.77979,-145.107,504
1569938617,405.743,69.9864,-15.2921,178,1.77979,-145.107,504
1569938617,405.743,69.9864,-15.2921,178,1.77979,-145.107,504
1569938617,405.743,69.9864,-15.2921,178,1.77979,-145.107,500
1569938617,405.743,69.9864,-15.2921,178,1.77979,-145.107,500
1569938617,405.743,69.9864,-15.2921,178,1.75781,-145.107,500
1569938618,405.743,69.9864,-15.4037,178.022,1.75781,-145.107,500
1569938618,405.743,69.9864,-15.4037,178,1.75781,-145.107,500
1569938618,405.743,69.9864,-15.4037,178,1.75781,-145.107,500
1569938618,405.743,69.9864,-15.4037,178,1.75781,-145.107,500
1569938618,405.743,69.9864,-15.4037,178,1.75781,-145.107,496
1569938618,405.743,69.9864,-15.2921,178,1.75781,-145.107,496
1569938618,405.743,69.9864,-15.2921,178,1.77979,-145.107,496
1569938618,405.743,69.9864,-15.2921,178,1.77979,-145.107,496
1569938618,405.743,69.9864,-15.2921,178,1.77979,-145.129,496
1569938618,405.743,69.9864,-15.2921,178,1.77979,-145.129,500
1569938618,405.743,69.9864,-15.1805,178,1.80176,-145.129,500
1569938618,405.743,69.9864,-15.1805,178,1.80176,-145.129,500
1569938618,405.743,69.9864,-15.1805,178,1.80176,-145.129,500
1569938618,405.743,69.9864,-15.1805,178,1.80176,-145.129,500
1569938618,405.743,69.9864,-15.1805,178,1.80176,-145.129,500
1569938618,405.743,69.9864,-15.1805,178,1.80176,-145.129,500
1569938618,405.743,69.9864,-15.1805,178,1.80176,-145.129,500
1569938618,405.743,69.9864,-15.1805,178,1.80176,-145.129,504
1569938618,405.743,69.9864,-15.1805,178,1.80176,-145.129,504
1569938618,405.743,69.9864,-15.1805,178,1.80176,-145.129,504
1569938618,405.743,69.9864,-15.1805,178,1.80176,-145.129,504
1569938618,405.743,69.9864,-15.1805,178,1.80176,-145.129,508
1569938618,405.743,69.8748,-15.1805,178,1.80176,-145.129,508
1569938618,405.743,69.8748,-15.1805,178,1.80176,-145.129,508
1569938618,405.743,69.8748,-15.1805,178,1.80176,-145.129,508
1569938618,405.743,69.8748,-15.1805,178,1.80176,-145.129,508
1569938618,405.743,69.8748,-15.1805,178,1.80176,-145.129,512
1569938618,405.743,69.8748,-15.1805,178,1.80176,-145.129,512
1569938618,405.743,69.8748,-15.1805,178,1.80176,-145.129,512
1569938618,405.743,69.8748,-15.1805,178,1.80176,-145.129,512
1569938618,405.743,69.8748,-15.1805,178,1.80176,-145.129,512
1569938618,405.743,69.8748,-15.1805,178,1.80176,-145.129,512
1569938618,405.743,69.9864,-15.1805,178,1.80176,-145.129,512
1569938618,405.743,69.9864,-15.1805,178,1.80176,-145.129,512
1569938618,405.743,69.9864,-15.1805,178,1.80176,-145.129,512
1569938618,405.743,69.9864,-15.2921,178,1.80176,-145.129,512
1569938618,405.743,69.9864,-15.2921,178.022,1.80176,-145.129,512
1569938618,405.854,69.9864,-15.2921,178.022,1.77979,-145.129,512
1569938618,405.854,69.9864,-15.2921,178.022,1.77979,-145.129,512
1569938618,405.854,69.9864,-15.2921,178.022,1.77979,-145.129,512
1569938618,405.743,69.9864,-15.2921,178.022,1.77979,-145.129,512
1569938618,405.743,69.9864,-15.2921,178.044,1.77979,-145.129,512
1569938618,405.743,70.098,-15.2921,178.044,1.77979,-145.129,512
1569938618,405.743,70.098,-15.2921,178.044,1.77979,-145.129,512
1569938618,405.743,70.098,-15.2921,178.044,1.77979,-145.129,508
1569938618,405.743,70.098,-15.2921,178.044,1.77979,-145.129,508
1569938618,405.743,70.098,-15.2921,178.044,1.77979,-145.129,508
1569938618,405.743,70.098,-15.2921,178.044,1.77979,-145.129,508
1569938618,405.743,70.098,-15.2921,178.044,1.77979,-145.129,508
1569938618,405.743,70.098,-15.2921,178.066,1.77979,-145.129,512
1569938618,405.743,70.098,-15.2921,178.066,1.77979,-145.129,512
1569938618,405.743,70.098,-15.2921,178.066,1.77979,-145.129,512
1569938618,405.743,70.098,-15.2921,178.066,1.80176,-145.129,512
1569938618,405.743,70.098,-15.2921,178.044,1.80176,-145.129,512
1569938618,405.743,70.098,-15.2921,178.044,1.80176,-145.129,512
1569938618,405.743,70.098,-15.2921,178.044,1.80176,-145.129,516
1569938618,405.743,70.098,-15.1805,178.044,1.80176,-145.129,516
1569938618,405.743,69.9864,-15.1805,178.044,1.80176,-145.129,516
1569938618,405.743,69.9864,-15.1805,178.044,1.80176,-145.129,520
1569938618,405.743,69.9864,-15.1805,178.022,1.80176,-145.129,520
1569938618,405.743,69.9864,-15.1805,178.022,1.80176,-145.129,520
1569938618,405.743,69.9864,-15.1805,178.022,1.82373,-145.129,520
1569938618,405.743,69.9864,-15.1805,178.022,1.82373,-145.129,520
1569938618,405.743,69.9864,-15.1805,178.022,1.82373,-145.129,520
1569938618,405.743,69.9864,-15.1805,178.022,1.82373,-145.129,520
1569938618,405.743,69.9864,-15.1805,178.022,1.82373,-145.129,520
1569938618,405.743,69.9864,-15.1805,178.022,1.82373,-145.129,520
1569938618,405.743,69.9864,-15.1805,178.022,1.8457,-145.129,520
1569938618,405.743,69.9864,-15.1805,178.022,1.8457,-145.129,520
1569938618,405.743,69.9864,-15.0688,178,1.8457,-145.129,520
1569938618,405.743,69.9864,-15.0688,178,1.8457,-145.129,520
