time,x,y,z,ax,ay,az,q
1569934718,317.897,-181.161,-11.1621,178.154,3.5376,-143.921,404
1569934718,317.897,-181.161,-11.1621,178.154,3.5376,-143.921,404
1569934718,317.897,-181.161,-11.1621,178.154,3.5376,-143.921,408
1569934718,317.897,-181.161,-11.1621,178.154,3.5376,-143.921,408
1569934718,317.897,-181.161,-11.1621,178.154,3.5376,-143.921,408
1569934718,317.897,-181.161,-11.1621,178.154,3.5376,-143.921,408
1569934718,317.897,-181.161,-11.1621,178.154,3.5376,-143.921,408
1569934718,317.897,-181.161,-11.1621,178.132,3.5376,-143.921,408
1569934718,317.897,-181.273,-11.1621,178.132,3.5376,-143.921,408
1569934718,317.897,-181.273,-11.1621,178.132,3.5376,-143.921,408
1569934718,317.897,-181.273,-11.1621,178.132,3.5376,-143.899,408
1569934718,317.897,-181.273,-11.1621,178.132,3.5376,-143.899,408
1569934718,317.897,-181.273,-11.1621,178.132,3.5376,-143.899,408
1569934718,317.897,-181.273,-11.1621,178.132,3.5376,-143.899,408
1569934718,317.897,-181.273,-11.1621,178.132,3.5376,-143.899,408
1569934718,317.897,-181.273,-11.1621,178.132,3.5376,-143.899,408
1569934718,317.897,-181.273,-11.1621,178.132,3.5376,-143.899,408
1569934718,317.897,-181.273,-11.1621,178.132,3.5376,-143.899,408
1569934718,317.897,-181.273,-11.1621,178.132,3.5376,-143.899,408
1569934718,317.897,-181.273,-11.1621,178.132,3.5376,-143.899,404
1569934718,317.897,-181.273,-11.1621,178.132,3.5376,-143.899,404
1569934718,317.897,-181.273,-11.1621,178.132,3.5376,-143.899,404
1569934718,317.897,-181.273,-11.1621,178.132,3.5376,-143.899,404
1569934718,317.897,-181.273,-11.2737,178.132,3.5376,-143.899,404
1569934718,317.897,-181.273,-11.2737,178.132,3.5376,-143.921,400
1569934718,317.897,-181.273,-11.2737,178.132,3.5376,-143.921,400
1569934718,317.897,-181.273,-11.2737,178.132,3.51563,-143.921,400
1569934718,317.897,-181.273,-11.2737,178.132,3.51563,-143.921,400
1569934718,317.897,-181.273,-11.2737,178.132,3.51563,-143.921,400
1569934718,317.897,-181.273,-11.2737,178.132,3.51563,-143.921,396
1569934718,317.897,-181.273,-11.2737,178.132,3.51563,-143.921,396
1569934718,317.897,-181.273,-11.2737,178.132,3.51563,-143.921,396
1569934718,317.897,-181.273,-11.2737,178.132,3.51563,-143.921,396
1569934718,317.897,-181.273,-11.2737,178.132,3.51563,-143.921,396
1569934718,317.897,-181.273,-11.2737,178.132,3.51563,-143.921,396
1569934718,317.897,-181.273,-11.2737,178.132,3.5376,-143.921,396
1569934718,317.897,-181.273,-11.2737,178.132,3.5376,-143.921,396
1569934718,317.897,-181.273,-11.2737,178.132,3.5376,-143.921,396
1569934718,317.897,-181.273,-11.2737,178.132,3.5376,-143.921,396
1569934718,317.897,-181.273,-11.2737,178.132,3.5376,-143.921,396
1569934718,317.897,-181.161,-11.2737,178.132,3.5376,-143.921,396
1569934718,317.897,-181.161,-11.1621,178.132,3.5376,-143.921,400
1569934718,317.897,-181.161,-11.1621,178.132,3.5376,-143.921,400
1569934718,317.785,-181.161,-11.1621,178.132,3.5376,-143.921,400
1569934718,317.785,-181.161,-11.1621,178.132,3.5376,-143.921,400
1569934718,317.785,-181.161,-11.1621,178.132,3.5376,-143.921,400
1569934718,317.785,-181.161,-11.1621,178.132,3.5376,-143.921,400
1569934718,317.785,-181.161,-11.1621,178.132,3.5376,-143.921,400
1569934719,317.785,-181.161,-11.1621,178.132,3.5376,-143.921,400
1569934719,317.785,-181.161,-11.1621,178.132,3.5376,-143.921,400
1569934719,317.785,-181.161,-11.1621,178.132,3.5376,-143.921,400
1569934719,317.785,-181.161,-11.1621,178.132,3.5376,-143.921,400
1569934719,317.785,-181.161,-11.1621,178.132,3.5376,-143.921,400
1569934719,317.785,-181.161,-11.1621,178.132,3.5376,-143.921,400
1569934719,317.785,-181.161,-11.1621,178.132,3.5376,-143.899,400
1569934719,317.785,-181.161,-11.1621,178.132,3.5376,-143.899,400
1569934719,317.785,-181.161,-11.1621,178.132,3.5376,-143.899,400
1569934719,317.785,-181.161,-11.1621,178.132,3.5376,-143.899,400
1569934719,317.785,-181.161,-11.1621,178.132,3.5376,-143.899,400
1569934719,317.785,-181.161,-11.1621,178.132,3.5376,-143.921,404
1569934719,317.785,-181.161,-11.1621,178.132,3.5376,-143.921,404
1569934719,317.785,-181.161,-11.2737,178.132,3.5376,-143.921,404
1569934719,317.785,-181.161,-11.2737,178.132,3.5376,-143.921,404
1569934719,317.785,-181.161,-11.2737,178.132,3.5376,-143.921,404
1569934719,317.785,-181.161,-11.2737,178.132,3.5376,-143.921,408
1569934719,317.785,-181.161,-11.2737,178.154,3.5376,-143.921,408
1569934719,317.785,-181.161,-11.1621,178.154,3.5376,-143.921,408
1569934719,317.785,-181.161,-11.1621,178.154,3.5376,-143.899,408
1569934719,317.785,-181.161,-11.1621,178.154,3.55957,-143.899,408
1569934719,317.897,-181.161,-11.1621,178.154,3.55957,-143.899,408
1569934719,317.897,-181.161,-11.1621,178.154,3.55957,-143.899,408
1569934719,317.897,-181.161,-11.1621,178.154,3.55957,-143.899,408
1569934719,317.897,-181.161,-11.1621,178.154,3.55957,-143.899,408
1569934719,317.897,-181.161,-11.1621,178.154,3.55957,-143.899,408
1569934719,317.897,-181.161,-11.1621,178.154,3.55957,-143.899,408
1569934719,317.897,-181.161,-11.1621,178.176,3.55957,-143.899,408
1569934719,317.897,-181.161,-11.1621,178.176,3.55957,-143.899,408
1569934719,317.897,-181.161,-11.1621,178.176,3.5376,-143.899,408
1569934719,317.897,-181.161,-11.1621,178.176,3.5376,-143.899,408
1569934719,317.897,-181.161,-11.1621,178.176,3.5376,-143.899,408
1569934719,317.897,-181.161,-11.1621,178.176,3.5376,-143.899,408
1569934719,317.897,-181.161,-11.1621,178.176,3.5376,-143.899,408
1569934719,317.897,-181.161,-11.1621,178.176,3.5376,-143.899,408
1569934719,317.897,-181.161,-11.1621,178.176,3.5376,-143.899,408
1569934719,317.897,-181.161,-11.1621,178.176,3.5376,-143.899,408
1569934719,317.897,-181.161,-11.1621,178.176,3.5376,-143.899,408
1569934719,317.897,-181.161,-11.1621,178.154,3.5376,-143.899,408
1569934719,317.897,-181.161,-11.1621,178.154,3.5376,-143.899,408
1569934719,317.897,-181.161,-11.1621,178.154,3.5376,-143.899,408
1569934719,317.897,-181.161,-11.1621,178.154,3.5376,-143.899,408
1569934719,317.897,-181.161,-11.1621,178.154,3.5376,-143.899,408
1569934719,317.897,-181.161,-11.1621,178.154,3.5376,-143.899,408
1569934719,317.897,-181.161,-11.2737,178.154,3.5376,-143.899,408
1569934719,317.897,-181.161,-11.2737,178.154,3.5376,-143.921,408
1569934719,317.897,-181.161,-11.2737,178.154,3.5376,-143.921,408
1569934719,317.897,-181.161,-11.2737,178.154,3.5376,-143.921,408
1569934719,317.897,-181.161,-11.2737,178.154,3.5376,-143.921,408
1569934719,317.897,-181.161,-11.2737,178.176,3.5376,-143.921,408
1569934719,317.897,-181.049,-11.2737,178.176,3.5376,-143.921,408
1569934719,317.897,-181.049,-11.2737,178.176,3.5376,-143.921,408
1569934719,317.897,-181.049,-11.2737,178.176,3.5376,-143.899,408
1569934719,317.897,-181.049,-11.2737,178.176,3.5376,-143.899,408
1569934719,317.897,-181.049,-11.2737,178.176,3.5376,-143.899,408
1569934719,317.897,-181.049,-11.2737,178.176,3.5376,-143.899,408
1569934719,318.008,-181.049,-11.2737,178.176,3.5376,-143.921,408
1569934719,318.008,-181.049,-11.2737,178.176,3.5376,-143.921,408
1569934719,318.008,-181.049,-11.2737,178.176,3.5376,-143.921,408
1569934719,318.008,-181.049,-11.2737,178.176,3.51563,-143.921,408
1569934719,318.008,-181.049,-11.2737,178.176,3.51563,-143.921,408
1569934719,318.008,-181.049,-11.2737,178.176,3.51563,-143.921,404
1569934719,318.008,-181.049,-11.2737,178.176,3.51563,-143.921,404
1569934719,318.008,-181.049,-11.2737,178.176,3.51563,-143.921,404
1569934719,318.008,-181.049,-11.2737,178.176,3.51563,-143.921,404
1569934719,317.897,-181.049,-11.2737,178.176,3.51563,-143.921,404
1569934719,317.897,-181.049,-11.2737,178.176,3.51563,-143.921,404
1569934719,317.897,-181.049,-11.2737,178.176,3.51563,-143.921,404
1569934719,317.897,-181.049,-11.2737,178.176,3.51563,-143.921,404
1569934719,317.897,-181.161,-11.2737,178.154,3.51563,-143.921,404
1569934719,317.897,-181.161,-11.2737,178.154,3.51563,-143.921,404
1569934719,317.897,-181.161,-11.2737,178.154,3.51563,-143.921,404
1569934719,317.897,-181.161,-11.2737,178.154,3.51563,-143.943,408
1569934719,317.897,-181.161,-11.2737,178.154,3.51563,-143.943,408
1569934719,317.897,-181.161,-11.2737,178.154,3.51563,-143.943,408
1569934719,317.897,-181.161,-11.2737,178.154,3.51563,-143.943,408
1569934719,317.897,-181.161,-11.2737,178.154,3.51563,-143.943,408
1569934719,317.897,-181.161,-11.2737,178.154,3.51563,-143.943,408
1569934719,317.897,-181.161,-11.2737,178.154,3.51563,-143.943,408
1569934719,317.897,-181.161,-11.2737,178.154,3.51563,-143.921,408
1569934719,317.897,-181.161,-11.2737,178.154,3.51563,-143.921,412
1569934719,317.897,-181.161,-11.2737,178.154,3.51563,-143.921,412
1569934719,317.897,-181.161,-11.2737,178.154,3.51563,-143.921,412
1569934719,317.897,-181.161,-11.2737,178.154,3.51563,-143.921,412
1569934719,317.897,-181.161,-11.2737,178.154,3.51563,-143.921,412
1569934719,317.897,-181.161,-11.2737,178.154,3.51563,-143.921,412
1569934719,317.897,-181.161,-11.2737,178.176,3.51563,-143.921,412
1569934719,317.897,-181.161,-11.2737,178.176,3.51563,-143.921,416
1569934719,317.897,-181.161,-11.2737,178.176,3.49365,-143.921,416
1569934719,317.897,-181.161,-11.2737,178.176,3.49365,-143.921,416
1569934719,317.897,-181.161,-11.2737,178.176,3.49365,-143.921,416
1569934719,317.897,-181.161,-11.2737,178.154,3.51563,-143.921,416
1569934719,317.897,-181.161,-11.2737,178.154,3.51563,-143.921,416
1569934719,317.897,-181.161,-11.2737,178.154,3.51563,-143.921,416
1569934719,317.897,-181.161,-11.2737,178.154,3.51563,-143.921,416
1569934719,317.897,-181.161,-11.2737,178.154,3.51563,-143.921,420
1569934719,317.897,-181.161,-11.2737,178.154,3.51563,-143.921,416
1569934719,317.897,-181.161,-11.2737,178.154,3.51563,-143.921,416
1569934719,317.897,-181.161,-11.2737,178.154,3.51563,-143.921,416
1569934719,317.897,-181.161,-11.2737,178.154,3.51563,-143.921,416
1569934720,317.897,-181.161,-11.2737,178.154,3.51563,-143.921,416
1569934720,317.897,-181.161,-11.2737,178.154,3.51563,-143.921,416
1569934720,317.897,-181.161,-11.2737,178.154,3.51563,-143.921,416
1569934720,317.897,-181.161,-11.2737,178.154,3.51563,-143.921,416
1569934720,317.897,-181.161,-11.2737,178.154,3.51563,-143.921,416
1569934720,317.897,-181.161,-11.2737,178.154,3.51563,-143.921,416
1569934720,317.897,-181.161,-11.2737,178.154,3.51563,-143.921,416
1569934720,317.897,-181.161,-11.2737,178.176,3.51563,-143.921,416
1569934720,317.897,-181.161,-11.2737,178.176,3.51563,-143.921,416
1569934720,317.897,-181.161,-11.2737,178.176,3.51563,-143.921,416
1569934720,317.897,-181.161,-11.2737,178.176,3.51563,-143.921,416
1569934720,317.897,-181.161,-11.2737,178.176,3.51563,-143.921,416
1569934720,317.897,-181.161,-11.2737,178.176,3.51563,-143.921,416
1569934720,317.897,-181.161,-11.2737,178.176,3.51563,-143.943,412
1569934720,317.897,-181.161,-11.2737,178.176,3.51563,-143.943,412
1569934720,317.897,-181.161,-11.2737,178.176,3.51563,-143.943,412
1569934720,317.897,-181.161,-11.2737,178.154,3.51563,-143.943,412
1569934720,317.897,-181.161,-11.2737,178.154,3.51563,-143.943,412
1569934720,318.008,-181.161,-11.2737,178.154,3.51563,-143.943,408
1569934720,318.008,-181.161,-11.2737,178.154,3.51563,-143.943,408
1569934720,318.008,-181.161,-11.2737,178.154,3.51563,-143.943,408
1569934720,318.008,-181.161,-11.2737,178.154,3.51563,-143.943,408
1569934720,318.008,-181.161,-11.2737,178.154,3.51563,-143.943,408
1569934720,318.008,-181.161,-11.2737,178.154,3.51563,-143.943,408
1569934720,318.008,-181.161,-11.2737,178.154,3.51563,-143.943,404
1569934720,318.008,-181.161,-11.2737,178.176,3.51563,-143.943,404
1569934720,318.008,-181.161,-11.2737,178.176,3.51563,-143.943,404
1569934720,318.008,-181.161,-11.2737,178.176,3.51563,-143.943,404
1569934720,318.008,-181.161,-11.2737,178.176,3.51563,-143.943,404
1569934720,318.008,-181.161,-11.2737,178.176,3.51563,-143.943,404
1569934720,318.008,-181.161,-11.2737,178.176,3.51563,-143.943,404
1569934720,318.008,-181.161,-11.2737,178.176,3.51563,-143.921,404
1569934720,318.008,-181.161,-11.2737,178.176,3.51563,-143.921,404
1569934720,318.008,-181.161,-11.2737,178.176,3.51563,-143.921,404
1569934720,318.008,-181.161,-11.2737,178.176,3.51563,-143.921,404
1569934720,318.008,-181.161,-11.2737,178.176,3.51563,-143.921,404
1569934720,318.008,-181.161,-11.2737,178.176,3.51563,-143.921,404
1569934720,318.008,-181.161,-11.2737,178.176,3.51563,-143.921,404
1569934720,318.008,-181.049,-11.2737,178.176,3.51563,-143.921,404
1569934720,318.008,-181.049,-11.2737,178.176,3.51563,-143.921,404
1569934720,318.008,-181.049,-11.2737,178.176,3.51563,-143.921,404
1569934720,318.008,-181.049,-11.2737,178.176,3.51563,-143.921,404
1569934720,318.008,-181.049,-11.2737,178.176,3.51563,-143.921,404
1569934720,318.008,-181.049,-11.2737,178.176,3.51563,-143.921,404
1569934720,318.008,-181.049,-11.2737,178.176,3.51563,-143.921,404
1569934720,318.008,-181.161,-11.2737,178.176,3.51563,-143.921,408
1569934720,318.008,-181.161,-11.1621,178.176,3.51563,-143.921,408
1569934720,318.008,-181.161,-11.1621,178.176,3.51563,-143.921,408
1569934720,318.008,-181.161,-11.1621,178.176,3.5376,-143.921,404
1569934720,318.008,-181.161,-11.1621,178.176,3.51563,-143.899,404
1569934720,318.008,-181.161,-11.1621,178.154,3.51563,-143.899,404
1569934720,318.008,-181.161,-11.1621,178.154,3.51563,-143.899,404
1569934720,318.008,-181.161,-11.1621,178.154,3.51563,-143.899,404
1569934720,317.897,-181.161,-11.2737,178.154,3.51563,-143.899,404
1569934720,317.897,-181.161,-11.2737,178.154,3.51563,-143.899,404
1569934720,317.897,-181.161,-11.2737,178.154,3.51563,-143.899,404
1569934720,317.897,-181.161,-11.2737,178.154,3.51563,-143.899,404
1569934720,317.897,-181.161,-11.2737,178.154,3.51563,-143.899,400
1569934720,317.897,-181.161,-11.2737,178.154,3.51563,-143.899,400
1569934720,317.897,-181.161,-11.2737,178.154,3.51563,-143.899,400
1569934720,318.008,-181.161,-11.2737,178.154,3.51563,-143.899,400
1569934720,318.008,-181.161,-11.2737,178.154,3.51563,-143.899,400
1569934720,318.008,-181.273,-11.2737,178.154,3.51563,-143.899,400
1569934720,318.008,-181.273,-11.2737,178.154,3.51563,-143.899,400
1569934720,318.008,-181.273,-11.2737,178.154,3.51563,-143.899,400
1569934720,317.897,-181.273,-11.2737,178.154,3.51563,-143.899,396
1569934720,317.897,-181.273,-11.2737,178.154,3.51563,-143.899,396
1569934720,317.897,-181.273,-11.2737,178.154,3.51563,-143.899,396
1569934720,317.897,-181.161,-11.2737,178.154,3.51563,-143.921,396
1569934720,317.897,-181.161,-11.2737,178.154,3.51563,-143.921,396
1569934720,317.897,-181.161,-11.2737,178.154,3.51563,-143.921,392
1569934720,317.897,-181.161,-11.2737,178.154,3.51563,-143.921,392
1569934720,317.897,-181.161,-11.2737,178.154,3.51563,-143.921,392
1569934720,317.897,-181.161,-11.2737,178.154,3.51563,-143.921,392
1569934720,317.897,-181.161,-11.2737,178.154,3.51563,-143.921,388
1569934720,317.897,-181.161,-11.2737,178.154,3.51563,-143.921,388
1569934720,317.897,-181.161,-11.2737,178.154,3.51563,-143.921,388
1569934720,317.897,-181.161,-11.2737,178.154,3.51563,-143.921,388
1569934720,317.897,-181.161,-11.2737,178.154,3.51563,-143.921,388
1569934720,317.897,-181.161,-11.2737,178.154,3.51563,-143.921,388
1569934720,317.897,-181.161,-11.2737,178.154,3.51563,-143.921,384
1569934720,317.897,-181.161,-11.2737,178.154,3.51563,-143.921,384
1569934720,317.897,-181.161,-11.2737,178.154,3.51563,-143.921,384
1569934720,317.897,-181.161,-11.2737,178.154,3.51563,-143.921,384
1569934720,317.897,-181.161,-11.2737,178.154,3.51563,-143.921,384
1569934720,317.897,-181.273,-11.2737,178.154,3.51563,-143.921,384
1569934720,317.897,-181.273,-11.2737,178.154,3.5376,-143.921,384
1569934720,317.897,-181.273,-11.2737,178.154,3.5376,-143.921,384
1569934720,317.897,-181.273,-11.2737,178.132,3.5376,-143.921,384
1569934720,317.897,-181.273,-11.2737,178.132,3.5376,-143.921,384
1569934720,317.897,-181.273,-11.2737,178.132,3.5376,-143.921,384
1569934720,317.897,-181.273,-11.2737,178.132,3.5376,-143.921,384
1569934720,317.897,-181.273,-11.2737,178.132,3.5376,-143.921,380
1569934720,317.897,-181.273,-11.2737,178.132,3.5376,-143.921,380
1569934720,317.897,-181.273,-11.2737,178.132,3.5376,-143.921,380
1569934720,317.897,-181.273,-11.2737,178.132,3.5376,-143.921,380
1569934720,317.897,-181.273,-11.2737,178.132,3.5376,-143.921,380
1569934720,317.897,-181.273,-11.2737,178.132,3.5376,-143.921,380
1569934720,317.897,-181.273,-11.2737,178.132,3.5376,-143.921,380
1569934720,317.897,-181.273,-11.2737,178.132,3.5376,-143.899,380
1569934721,317.897,-181.273,-11.2737,178.132,3.5376,-143.899,380
1569934721,317.897,-181.273,-11.2737,178.132,3.5376,-143.899,380
1569934721,317.897,-181.273,-11.2737,178.132,3.51563,-143.899,380
1569934721,317.897,-181.273,-11.2737,178.132,3.51563,-143.899,380
1569934721,317.897,-181.273,-11.2737,178.132,3.5376,-143.899,384
1569934721,317.897,-181.273,-11.2737,178.132,3.5376,-143.899,384
1569934721,317.897,-181.273,-11.2737,178.132,3.5376,-143.899,384
1569934721,317.897,-181.273,-11.2737,178.132,3.5376,-143.899,384
1569934721,317.897,-181.161,-11.2737,178.132,3.5376,-143.899,384
1569934721,317.897,-181.161,-11.2737,178.132,3.5376,-143.899,384
1569934721,317.897,-181.161,-11.2737,178.132,3.5376,-143.899,388
1569934721,317.897,-181.161,-11.1621,178.132,3.5376,-143.899,388
1569934721,317.897,-181.161,-11.1621,178.132,3.5376,-143.899,388
1569934721,317.897,-181.161,-11.1621,178.132,3.5376,-143.899,388
1569934721,317.897,-181.161,-11.2737,178.132,3.5376,-143.899,388
1569934721,317.897,-181.161,-11.2737,178.132,3.5376,-143.899,388
1569934721,317.897,-181.161,-11.2737,178.132,3.5376,-143.921,388
1569934721,317.897,-181.161,-11.2737,178.132,3.5376,-143.921,388
1569934721,317.897,-181.161,-11.2737,178.132,3.5376,-143.921,392
1569934721,317.897,-181.161,-11.2737,178.132,3.5376,-143.921,392
1569934721,317.897,-181.161,-11.2737,178.132,3.5376,-143.921,392
1569934721,317.897,-181.161,-11.2737,178.132,3.5376,-143.921,392
1569934721,317.897,-181.161,-11.2737,178.132,3.5376,-143.921,392
1569934721,317.897,-181.161,-11.2737,178.132,3.5376,-143.921,396
1569934721,317.897,-181.161,-11.2737,178.132,3.5376,-143.921,396
1569934721,317.897,-181.161,-11.2737,178.132,3.5376,-143.921,396
1569934721,317.897,-181.161,-11.2737,178.132,3.5376,-143.921,396
1569934721,317.897,-181.161,-11.2737,178.154,3.5376,-143.921,396
1569934721,317.897,-181.161,-11.2737,178.154,3.5376,-143.921,396
1569934721,317.897,-181.161,-11.2737,178.154,3.5376,-143.921,396
1569934721,317.897,-181.161,-11.2737,178.154,3.5376,-143.921,396
1569934721,317.897,-181.161,-11.2737,178.154,3.5376,-143.921,396
1569934721,317.897,-181.161,-11.2737,178.154,3.5376,-143.943,396
1569934721,317.897,-181.161,-11.2737,178.154,3.5376,-143.943,396
1569934721,317.897,-181.161,-11.2737,178.154,3.5376,-143.943,400
1569934721,317.897,-181.161,-11.2737,178.154,3.5376,-143.943,400
1569934721,317.897,-181.161,-11.2737,178.154,3.5376,-143.943,400
1569934721,317.897,-181.161,-11.2737,178.154,3.5376,-143.943,400
1569934721,317.897,-181.161,-11.2737,178.154,3.5376,-143.943,400
1569934721,317.897,-181.161,-11.2737,178.154,3.5376,-143.943,400
1569934721,317.897,-181.161,-11.2737,178.154,3.5376,-143.943,400
1569934721,317.897,-181.161,-11.2737,178.154,3.5376,-143.943,404
1569934721,317.897,-181.161,-11.2737,178.154,3.5376,-143.921,404
1569934721,317.897,-181.161,-11.2737,178.154,3.5376,-143.921,404
1569934721,317.897,-181.161,-11.2737,178.154,3.5376,-143.921,404
1569934721,317.897,-181.161,-11.2737,178.154,3.5376,-143.921,404
1569934721,317.897,-181.161,-11.2737,178.154,3.5376,-143.921,404
1569934721,317.897,-181.161,-11.2737,178.154,3.5376,-143.921,404
1569934721,317.897,-181.161,-11.2737,178.154,3.5376,-143.921,404
1569934721,317.897,-181.161,-11.2737,178.154,3.5376,-143.921,404
1569934721,317.897,-181.161,-11.2737,178.154,3.5376,-143.921,408
1569934721,317.897,-181.049,-11.2737,178.154,3.5376,-143.921,408
1569934721,317.897,-181.049,-11.2737,178.176,3.5376,-143.921,408
1569934721,317.897,-181.049,-11.2737,178.176,3.5376,-143.921,408
1569934721,317.897,-181.049,-11.2737,178.176,3.5376,-143.921,408
1569934721,317.897,-181.049,-11.2737,178.176,3.51563,-143.921,408
1569934721,317.897,-181.049,-11.2737,178.176,3.51563,-143.921,408
1569934721,317.897,-181.161,-11.2737,178.176,3.51563,-143.921,408
1569934721,317.897,-181.161,-11.2737,178.176,3.51563,-143.921,408
1569934721,317.897,-181.161,-11.2737,178.176,3.51563,-143.921,408
1569934721,317.897,-181.161,-11.2737,178.154,3.51563,-143.921,408
1569934721,317.897,-181.161,-11.2737,178.154,3.51563,-143.921,408
1569934721,317.897,-181.161,-11.2737,178.154,3.51563,-143.899,408
1569934721,317.897,-181.161,-11.2737,178.154,3.51563,-143.899,408
1569934721,317.897,-181.161,-11.2737,178.154,3.51563,-143.921,408
1569934721,317.897,-181.161,-11.2737,178.154,3.51563,-143.921,408
1569934721,317.897,-181.161,-11.2737,178.154,3.5376,-143.921,408
1569934721,317.897,-181.161,-11.2737,178.154,3.5376,-143.921,408
1569934721,317.897,-181.161,-11.2737,178.154,3.5376,-143.921,408
1569934721,317.897,-181.161,-11.2737,178.132,3.5376,-143.921,408
1569934721,317.897,-181.161,-11.2737,178.132,3.5376,-143.921,408
1569934721,317.897,-181.161,-11.2737,178.132,3.5376,-143.921,408
1569934721,317.897,-181.161,-11.1621,178.132,3.5376,-143.921,408
1569934721,317.897,-181.161,-11.1621,178.132,3.5376,-143.921,408
1569934721,317.897,-181.161,-11.1621,178.132,3.5376,-143.921,408
1569934721,317.897,-181.161,-11.1621,178.132,3.5376,-143.921,408
1569934721,317.897,-181.161,-11.1621,178.132,3.5376,-143.921,408
1569934721,317.897,-181.161,-11.1621,178.132,3.5376,-143.921,408
1569934721,317.897,-181.161,-11.1621,178.132,3.5376,-143.921,408
1569934721,317.897,-181.161,-11.1621,178.132,3.5376,-143.921,408
1569934721,317.897,-181.161,-11.1621,178.132,3.5376,-143.899,408
1569934721,317.897,-181.161,-11.1621,178.132,3.5376,-143.899,408
1569934721,317.897,-181.161,-11.1621,178.132,3.5376,-143.899,404
1569934721,317.897,-181.161,-11.1621,178.132,3.5376,-143.899,404
1569934721,317.897,-181.161,-11.1621,178.132,3.5376,-143.899,404
1569934721,317.897,-181.161,-11.1621,178.132,3.5376,-143.899,404
1569934721,317.897,-181.161,-11.1621,178.132,3.5376,-143.899,404
1569934721,317.897,-181.161,-11.1621,178.132,3.5376,-143.899,404
1569934721,317.897,-181.161,-11.1621,178.132,3.5376,-143.899,404
1569934721,317.897,-181.161,-11.1621,178.154,3.5376,-143.899,404
1569934721,317.897,-181.161,-11.1621,178.154,3.5376,-143.921,404
1569934721,317.897,-181.161,-11.1621,178.154,3.5376,-143.921,404
1569934721,317.897,-181.161,-11.1621,178.154,3.5376,-143.921,404
1569934721,317.897,-181.161,-11.1621,178.154,3.5376,-143.921,404
1569934721,317.897,-181.161,-11.1621,178.154,3.5376,-143.921,404
1569934721,317.897,-181.161,-11.1621,178.154,3.5376,-143.921,404
1569934721,317.897,-181.161,-11.1621,178.154,3.5376,-143.921,404
1569934721,317.897,-181.161,-11.1621,178.154,3.5376,-143.921,404
1569934721,317.897,-181.161,-11.1621,178.154,3.5376,-143.921,404
1569934721,317.897,-181.161,-11.1621,178.154,3.5376,-143.921,408
1569934722,317.897,-181.161,-11.2737,178.154,3.5376,-143.921,408
1569934722,317.897,-181.161,-11.2737,178.154,3.5376,-143.921,408
1569934722,318.008,-181.161,-11.2737,178.154,3.5376,-143.921,408
1569934722,318.008,-181.161,-11.2737,178.154,3.5376,-143.921,408
1569934722,318.008,-181.161,-11.2737,178.154,3.5376,-143.921,408
1569934722,318.008,-181.161,-11.2737,178.154,3.5376,-143.921,408
1569934722,318.008,-181.161,-11.2737,178.154,3.5376,-143.921,408
1569934722,318.008,-181.161,-11.2737,178.154,3.5376,-143.921,412
1569934722,318.008,-181.161,-11.2737,178.154,3.5376,-143.921,412
1569934722,318.008,-181.161,-11.2737,178.154,3.5376,-143.921,412
1569934722,318.008,-181.273,-11.2737,178.132,3.5376,-143.921,412
1569934722,318.008,-181.273,-11.2737,178.132,3.5376,-143.921,412
1569934722,317.897,-181.273,-11.2737,178.132,3.5376,-143.899,412
1569934722,317.897,-181.273,-11.2737,178.132,3.5376,-143.899,412
1569934722,317.897,-181.273,-11.2737,178.132,3.5376,-143.899,412
1569934722,317.897,-181.273,-11.2737,178.132,3.5376,-143.899,412
1569934722,317.897,-181.273,-11.2737,178.11,3.5376,-143.899,412
1569934722,317.897,-181.273,-11.2737,178.11,3.5376,-143.899,412
1569934722,317.897,-181.273,-11.2737,178.11,3.5376,-143.899,412
1569934722,317.897,-181.273,-11.2737,178.11,3.5376,-143.899,412
1569934722,317.897,-181.273,-11.2737,178.11,3.5376,-143.899,412
1569934722,317.897,-181.273,-11.2737,178.11,3.5376,-143.899,412
1569934722,317.897,-181.273,-11.2737,178.11,3.5376,-143.899,412
1569934722,317.897,-181.273,-11.2737,178.11,3.5376,-143.899,412
1569934722,317.897,-181.273,-11.2737,178.11,3.5376,-143.899,412
1569934722,317.897,-181.273,-11.2737,178.11,3.5376,-143.899,412
1569934722,317.897,-181.273,-11.2737,178.11,3.5376,-143.899,412
1569934722,317.897,-181.273,-11.2737,178.11,3.5376,-143.899,412
1569934722,317.897,-181.273,-11.2737,178.11,3.5376,-143.921,412
1569934722,317.897,-181.273,-11.2737,178.11,3.5376,-143.921,412
1569934722,317.897,-181.273,-11.2737,178.11,3.5376,-143.921,416
1569934722,317.897,-181.273,-11.2737,178.11,3.5376,-143.921,416
1569934722,317.897,-181.273,-11.2737,178.11,3.5376,-143.921,416
1569934722,317.897,-181.273,-11.2737,178.11,3.5376,-143.921,416
1569934722,317.897,-181.273,-11.2737,178.132,3.5376,-143.921,416
1569934722,317.897,-181.273,-11.2737,178.132,3.5376,-143.921,416
1569934722,317.897,-181.273,-11.2737,178.132,3.5376,-143.921,416
1569934722,317.897,-181.273,-11.2737,178.132,3.5376,-143.921,416
1569934722,317.897,-181.273,-11.2737,178.132,3.5376,-143.921,412
1569934722,317.897,-181.273,-11.2737,178.132,3.5376,-143.921,412
1569934722,317.897,-181.273,-11.2737,178.132,3.5376,-143.921,412
1569934722,317.897,-181.273,-11.2737,178.132,3.5376,-143.921,412
1569934722,317.897,-181.273,-11.2737,178.132,3.5376,-143.921,412
1569934722,317.897,-181.273,-11.2737,178.132,3.5376,-143.921,412
1569934722,317.897,-181.273,-11.2737,178.132,3.5376,-143.921,408
1569934722,317.897,-181.273,-11.2737,178.132,3.5376,-143.921,408
1569934722,317.897,-181.273,-11.2737,178.132,3.5376,-143.921,408
1569934722,317.897,-181.273,-11.2737,178.132,3.5376,-143.921,404
1569934722,317.897,-181.273,-11.2737,178.132,3.5376,-143.921,404
1569934722,317.897,-181.273,-11.2737,178.132,3.5376,-143.921,404
1569934722,317.897,-181.273,-11.2737,178.132,3.5376,-143.921,404
1569934722,317.897,-181.273,-11.2737,178.132,3.5376,-143.921,404
1569934722,317.897,-181.273,-11.2737,178.132,3.5376,-143.921,404
1569934722,317.897,-181.161,-11.2737,178.132,3.5376,-143.921,400
1569934722,317.897,-181.161,-11.2737,178.132,3.51563,-143.921,400
1569934722,317.897,-181.161,-11.2737,178.132,3.51563,-143.921,400
1569934722,317.897,-181.161,-11.2737,178.132,3.51563,-143.921,400
1569934722,317.897,-181.161,-11.2737,178.132,3.51563,-143.921,400
1569934722,317.897,-181.161,-11.2737,178.132,3.51563,-143.921,400
1569934722,317.897,-181.161,-11.2737,178.132,3.51563,-143.921,400
1569934722,317.897,-181.161,-11.2737,178.132,3.51563,-143.921,396
1569934722,317.897,-181.161,-11.2737,178.132,3.51563,-143.921,396
1569934722,317.897,-181.161,-11.2737,178.132,3.51563,-143.921,396
1569934722,317.897,-181.161,-11.2737,178.132,3.51563,-143.921,396
1569934722,317.897,-181.161,-11.2737,178.132,3.5376,-143.921,396
1569934722,317.897,-181.161,-11.2737,178.132,3.5376,-143.921,396
1569934722,317.897,-181.273,-11.2737,178.132,3.5376,-143.921,396
1569934722,317.897,-181.273,-11.2737,178.132,3.5376,-143.921,392
1569934722,317.785,-181.273,-11.2737,178.132,3.5376,-143.921,392
1569934722,317.785,-181.273,-11.2737,178.11,3.5376,-143.921,392
1569934722,317.785,-181.273,-11.2737,178.11,3.5376,-143.921,392
1569934722,317.785,-181.273,-11.2737,178.11,3.5376,-143.921,392
1569934722,317.785,-181.273,-11.2737,178.11,3.5376,-143.921,392
1569934722,317.785,-181.273,-11.2737,178.132,3.5376,-143.921,388
1569934722,317.897,-181.273,-11.2737,178.11,3.5376,-143.921,388
1569934722,317.897,-181.273,-11.2737,178.11,3.5376,-143.921,388
1569934722,317.897,-181.273,-11.2737,178.11,3.5376,-143.921,388
1569934722,317.897,-181.273,-11.2737,178.11,3.5376,-143.921,384
1569934722,317.897,-181.273,-11.2737,178.132,3.5376,-143.921,384
1569934722,317.897,-181.273,-11.2737,178.132,3.5376,-143.921,384
1569934722,317.897,-181.273,-11.2737,178.132,3.5376,-143.921,384
1569934722,317.897,-181.273,-11.2737,178.132,3.5376,-143.921,384
1569934722,317.897,-181.273,-11.2737,178.132,3.5376,-143.921,384
1569934722,317.897,-181.273,-11.2737,178.132,3.5376,-143.921,384
1569934722,317.897,-181.273,-11.2737,178.132,3.5376,-143.921,384
1569934722,317.897,-181.273,-11.2737,178.132,3.5376,-143.921,384
1569934722,317.897,-181.273,-11.2737,178.132,3.5376,-143.921,384
1569934722,317.897,-181.273,-11.2737,178.11,3.5376,-143.899,384
1569934722,317.897,-181.273,-11.2737,178.11,3.5376,-143.899,384
1569934722,317.897,-181.273,-11.2737,178.11,3.5376,-143.899,384
1569934722,317.897,-181.273,-11.2737,178.11,3.5376,-143.899,384
1569934722,317.897,-181.273,-11.2737,178.11,3.5376,-143.899,384
1569934722,317.897,-181.273,-11.2737,178.11,3.5376,-143.899,384
1569934722,317.897,-181.273,-11.2737,178.11,3.5376,-143.899,384
1569934722,317.897,-181.273,-11.2737,178.11,3.5376,-143.899,384
1569934722,317.897,-181.273,-11.2737,178.11,3.5376,-143.899,388
1569934722,317.897,-181.273,-11.2737,178.11,3.5376,-143.899,388
1569934722,317.897,-181.273,-11.2737,178.132,3.5376,-143.921,388
1569934722,317.897,-181.273,-11.2737,178.132,3.5376,-143.921,388
1569934722,317.897,-181.273,-11.2737,178.132,3.5376,-143.921,388
1569934723,317.897,-181.273,-11.2737,178.132,3.5376,-143.921,388
1569934723,317.897,-181.273,-11.2737,178.132,3.5376,-143.921,388
1569934723,317.897,-181.273,-11.2737,178.132,3.5376,-143.921,388
1569934723,317.897,-181.273,-11.2737,178.132,3.5376,-143.921,388
1569934723,317.897,-181.273,-11.2737,178.132,3.5376,-143.921,388
1569934723,317.897,-181.273,-11.2737,178.132,3.5376,-143.921,388
1569934723,317.897,-181.273,-11.2737,178.132,3.5376,-143.921,388
1569934723,317.897,-181.273,-11.2737,178.132,3.5376,-143.921,388
1569934723,317.897,-181.273,-11.2737,178.132,3.5376,-143.921,388
1569934723,317.897,-181.273,-11.2737,178.132,3.5376,-143.921,388
1569934723,317.897,-181.273,-11.2737,178.132,3.5376,-143.921,388
1569934723,317.897,-181.273,-11.2737,178.132,3.5376,-143.921,388
1569934723,317.897,-181.273,-11.2737,178.132,3.5376,-143.921,388
1569934723,317.897,-181.273,-11.2737,178.132,3.5376,-143.921,384
1569934723,317.897,-181.273,-11.2737,178.132,3.5376,-143.921,384
1569934723,317.897,-181.273,-11.2737,178.132,3.5376,-143.921,384
1569934723,317.897,-181.273,-11.2737,178.132,3.5376,-143.921,384
1569934723,317.897,-181.273,-11.2737,178.132,3.51563,-143.921,384
1569934723,317.897,-181.273,-11.2737,178.132,3.51563,-143.921,384
1569934723,317.897,-181.273,-11.2737,178.132,3.51563,-143.899,384
1569934723,317.897,-181.273,-11.2737,178.132,3.51563,-143.899,384
1569934723,317.897,-181.273,-11.2737,178.132,3.51563,-143.899,384
1569934723,317.897,-181.273,-11.2737,178.132,3.51563,-143.899,384
1569934723,317.897,-181.273,-11.2737,178.132,3.51563,-143.899,384
1569934723,317.897,-181.273,-11.2737,178.132,3.51563,-143.899,384
1569934723,317.897,-181.161,-11.2737,178.132,3.51563,-143.899,384
1569934723,317.897,-181.161,-11.2737,178.132,3.51563,-143.899,384
1569934723,317.897,-181.161,-11.2737,178.132,3.51563,-143.899,384
1569934723,317.897,-181.161,-11.2737,178.132,3.51563,-143.899,384
1569934723,317.897,-181.161,-11.2737,178.132,3.51563,-143.899,384
1569934723,317.897,-181.161,-11.2737,178.132,3.51563,-143.899,384
1569934723,317.897,-181.273,-11.2737,178.132,3.51563,-143.921,384
1569934723,317.897,-181.273,-11.2737,178.132,3.51563,-143.921,384
1569934723,317.897,-181.273,-11.2737,178.132,3.51563,-143.921,388
1569934723,317.897,-181.273,-11.2737,178.132,3.51563,-143.921,388
1569934723,317.897,-181.273,-11.2737,178.132,3.51563,-143.921,388
1569934723,317.897,-181.273,-11.2737,178.132,3.51563,-143.921,388
1569934723,317.897,-181.273,-11.2737,178.132,3.51563,-143.921,388
1569934723,317.897,-181.273,-11.2737,178.132,3.51563,-143.921,388
1569934723,317.897,-181.273,-11.2737,178.132,3.51563,-143.921,388
1569934723,317.897,-181.273,-11.2737,178.132,3.51563,-143.921,384
1569934723,317.897,-181.273,-11.2737,178.132,3.51563,-143.921,384
1569934723,317.897,-181.273,-11.3854,178.132,3.51563,-143.921,384
1569934723,317.897,-181.273,-11.3854,178.132,3.51563,-143.921,384
1569934723,317.897,-181.273,-11.3854,178.132,3.51563,-143.921,384
1569934723,317.897,-181.273,-11.3854,178.132,3.51563,-143.921,380
1569934723,317.897,-181.273,-11.3854,178.132,3.51563,-143.921,380
1569934723,317.897,-181.273,-11.2737,178.132,3.51563,-143.921,380
1569934723,317.897,-181.273,-11.2737,178.154,3.51563,-143.921,380
1569934723,317.897,-181.273,-11.2737,178.154,3.51563,-143.921,380
1569934723,317.897,-181.273,-11.2737,178.154,3.51563,-143.921,380
1569934723,317.897,-181.273,-11.2737,178.154,3.51563,-143.921,380
1569934727,302.716,-163.86,-11.7202,178.286,3.64746,-144.624,336
1569934727,302.716,-163.86,-11.7202,178.286,3.64746,-144.624,336
1569934727,302.716,-163.86,-11.7202,178.286,3.64746,-144.624,336
1569934727,302.716,-163.86,-11.7202,178.286,3.64746,-144.624,336
1569934727,302.716,-163.86,-11.7202,178.286,3.64746,-144.624,336
1569934727,302.716,-163.86,-11.7202,178.286,3.64746,-144.624,336
1569934727,302.716,-163.86,-11.7202,178.286,3.64746,-144.624,336
1569934727,302.716,-163.86,-11.7202,178.286,3.64746,-144.624,336
1569934727,302.716,-163.86,-11.7202,178.286,3.64746,-144.624,336
1569934727,302.716,-163.86,-11.7202,178.286,3.64746,-144.624,340
1569934727,302.716,-163.86,-11.7202,178.286,3.64746,-144.624,340
1569934727,302.716,-163.86,-11.7202,178.286,3.64746,-144.624,340
1569934727,302.828,-163.86,-11.6086,178.286,3.64746,-144.624,340
1569934727,302.828,-163.86,-11.6086,178.308,3.64746,-144.624,340
1569934727,302.828,-163.86,-11.6086,178.308,3.64746,-144.624,340
1569934727,302.828,-163.86,-11.6086,178.308,3.64746,-144.624,340
1569934727,302.828,-163.86,-11.6086,178.308,3.64746,-144.624,340
1569934727,302.828,-163.86,-11.6086,178.308,3.64746,-144.624,340
1569934727,302.828,-163.86,-11.6086,178.308,3.64746,-144.624,340
1569934727,302.828,-163.86,-11.6086,178.308,3.64746,-144.624,340
1569934727,302.828,-163.86,-11.6086,178.308,3.64746,-144.624,340
1569934727,302.828,-163.86,-11.6086,178.308,3.64746,-144.624,340
1569934727,302.828,-163.86,-11.6086,178.308,3.64746,-144.624,340
1569934727,302.828,-163.86,-11.6086,178.308,3.64746,-144.624,340
1569934727,302.828,-163.86,-11.6086,178.308,3.64746,-144.624,340
1569934727,302.828,-163.86,-11.6086,178.308,3.64746,-144.624,340
1569934727,302.828,-163.86,-11.6086,178.308,3.64746,-144.624,340
1569934727,302.828,-163.86,-11.6086,178.308,3.64746,-144.624,340
1569934727,302.828,-163.86,-11.6086,178.308,3.64746,-144.624,340
1569934727,302.828,-163.86,-11.6086,178.308,3.64746,-144.624,340
1569934727,302.828,-163.86,-11.6086,178.308,3.64746,-144.624,340
1569934727,302.828,-163.86,-11.6086,178.308,3.64746,-144.624,340
1569934727,302.828,-163.86,-11.6086,178.308,3.64746,-144.624,340
1569934727,302.828,-163.86,-11.6086,178.308,3.64746,-144.624,340
1569934727,302.828,-163.86,-11.6086,178.308,3.64746,-144.624,344
1569934727,302.828,-163.86,-11.6086,178.308,3.64746,-144.624,344
1569934727,302.828,-163.86,-11.6086,178.308,3.64746,-144.624,344
1569934727,302.828,-163.86,-11.6086,178.308,3.64746,-144.602,344
1569934727,302.716,-163.86,-11.6086,178.308,3.64746,-144.602,344
1569934727,302.716,-163.86,-11.6086,178.308,3.64746,-144.602,344
1569934727,302.716,-163.86,-11.6086,178.308,3.64746,-144.602,344
1569934727,302.716,-163.86,-11.6086,178.308,3.64746,-144.602,344
1569934727,302.716,-163.86,-11.6086,178.308,3.64746,-144.602,344
1569934727,302.716,-163.86,-11.6086,178.308,3.64746,-144.602,344
1569934727,302.716,-163.86,-11.6086,178.308,3.64746,-144.602,344
1569934727,302.716,-163.86,-11.6086,178.308,3.64746,-144.602,344
1569934727,302.716,-163.86,-11.6086,178.308,3.64746,-144.624,344
1569934727,302.716,-163.86,-11.6086,178.308,3.64746,-144.624,344
1569934727,302.828,-163.86,-11.6086,178.308,3.64746,-144.624,344
1569934727,302.828,-163.86,-11.6086,178.308,3.64746,-144.624,344
1569934727,302.828,-163.86,-11.6086,178.308,3.64746,-144.624,344
1569934727,302.828,-163.86,-11.6086,178.308,3.64746,-144.624,344
1569934727,302.828,-163.86,-11.6086,178.308,3.64746,-144.624,344
1569934727,302.828,-163.86,-11.6086,178.308,3.64746,-144.624,344
1569934727,302.828,-163.86,-11.6086,178.308,3.64746,-144.624,344
1569934727,302.828,-163.86,-11.6086,178.308,3.64746,-144.624,344
1569934727,302.828,-163.86,-11.6086,178.308,3.64746,-144.624,344
1569934727,302.828,-163.86,-11.6086,178.308,3.64746,-144.624,344
1569934727,302.716,-163.86,-11.6086,178.308,3.64746,-144.624,348
1569934727,302.716,-163.86,-11.6086,178.286,3.64746,-144.624,348
1569934727,302.716,-163.86,-11.7202,178.286,3.64746,-144.624,348
1569934727,302.716,-163.86,-11.7202,178.286,3.64746,-144.624,348
1569934727,302.716,-163.86,-11.7202,178.286,3.64746,-144.624,348
1569934727,302.716,-163.86,-11.7202,178.286,3.64746,-144.624,348
1569934727,302.716,-163.86,-11.7202,178.308,3.64746,-144.624,348
1569934727,302.716,-163.86,-11.7202,178.308,3.64746,-144.624,348
1569934727,302.716,-163.86,-11.7202,178.308,3.64746,-144.624,348
1569934727,302.716,-163.86,-11.7202,178.308,3.64746,-144.624,348
1569934727,302.716,-163.86,-11.7202,178.308,3.64746,-144.624,348
1569934727,302.716,-163.86,-11.7202,178.308,3.64746,-144.624,348
1569934727,302.716,-163.86,-11.7202,178.308,3.64746,-144.624,348
1569934727,302.716,-163.86,-11.7202,178.308,3.64746,-144.624,348
1569934727,302.716,-163.86,-11.7202,178.308,3.64746,-144.624,348
1569934727,302.828,-163.86,-11.7202,178.308,3.64746,-144.624,348
1569934727,302.828,-163.86,-11.7202,178.308,3.64746,-144.624,348
1569934727,302.828,-163.86,-11.7202,178.308,3.64746,-144.624,344
1569934727,302.828,-163.86,-11.7202,178.308,3.64746,-144.624,344
1569934727,302.828,-163.86,-11.7202,178.308,3.64746,-144.624,344
1569934727,302.828,-163.86,-11.7202,178.308,3.64746,-144.624,344
1569934727,302.828,-163.86,-11.7202,178.308,3.64746,-144.602,344
1569934727,302.828,-163.86,-11.7202,178.308,3.64746,-144.602,344
1569934727,302.828,-163.86,-11.7202,178.308,3.64746,-144.602,344
1569934727,302.828,-163.86,-11.7202,178.308,3.64746,-144.602,344
1569934727,302.828,-163.86,-11.7202,178.308,3.64746,-144.602,344
1569934727,302.828,-163.86,-11.6086,178.308,3.64746,-144.602,344
1569934727,302.828,-163.86,-11.6086,178.308,3.64746,-144.602,344
1569934727,302.828,-163.86,-11.6086,178.308,3.64746,-144.602,344
1569934728,302.828,-163.86,-11.6086,178.308,3.64746,-144.602,344
1569934728,302.828,-163.86,-11.6086,178.308,3.64746,-144.602,344
1569934728,302.828,-163.86,-11.6086,178.308,3.64746,-144.602,344
1569934728,302.828,-163.86,-11.6086,178.308,3.64746,-144.602,344
1569934728,302.828,-163.86,-11.6086,178.308,3.64746,-144.602,344
1569934728,302.828,-163.86,-11.6086,178.308,3.64746,-144.602,344
1569934728,302.828,-163.86,-11.7202,178.308,3.64746,-144.624,344
1569934728,302.828,-163.86,-11.7202,178.308,3.64746,-144.624,344
1569934728,302.828,-163.86,-11.7202,178.308,3.64746,-144.624,344
1569934728,302.828,-163.86,-11.7202,178.308,3.64746,-144.624,344
1569934728,302.828,-163.86,-11.7202,178.308,3.64746,-144.624,344
1569934728,302.828,-163.86,-11.7202,178.308,3.64746,-144.624,344
1569934728,302.828,-163.86,-11.7202,178.308,3.64746,-144.624,344
1569934728,302.828,-163.86,-11.7202,178.308,3.64746,-144.624,344
1569934728,302.828,-163.86,-11.7202,178.308,3.64746,-144.624,344
1569934728,302.828,-163.86,-11.7202,178.308,3.64746,-144.624,344
1569934728,302.828,-163.86,-11.7202,178.308,3.64746,-144.624,344
1569934728,302.828,-163.86,-11.7202,178.308,3.64746,-144.624,344
1569934728,302.828,-163.86,-11.7202,178.308,3.64746,-144.624,344
1569934728,302.828,-163.86,-11.7202,178.308,3.64746,-144.624,344
1569934728,302.828,-163.86,-11.7202,178.308,3.64746,-144.624,344
1569934728,302.828,-163.86,-11.7202,178.308,3.64746,-144.624,344
1569934728,302.828,-163.86,-11.7202,178.308,3.64746,-144.624,344
1569934728,302.828,-163.86,-11.7202,178.308,3.64746,-144.624,344
1569934728,302.828,-163.86,-11.7202,178.308,3.64746,-144.624,344
1569934728,302.828,-163.86,-11.6086,178.308,3.64746,-144.624,344
1569934728,302.828,-163.86,-11.6086,178.308,3.64746,-144.624,344
1569934728,302.828,-163.86,-11.6086,178.308,3.64746,-144.624,344
1569934728,302.828,-163.86,-11.6086,178.308,3.64746,-144.624,344
1569934728,302.828,-163.86,-11.6086,178.308,3.64746,-144.624,344
1569934728,302.716,-163.86,-11.6086,178.286,3.64746,-144.624,344
1569934728,302.716,-163.86,-11.6086,178.286,3.64746,-144.624,344
1569934728,302.716,-163.86,-11.6086,178.286,3.64746,-144.624,344
1569934728,302.716,-163.86,-11.6086,178.286,3.64746,-144.624,344
1569934728,302.716,-163.86,-11.6086,178.286,3.64746,-144.624,344
1569934728,302.716,-163.86,-11.6086,178.286,3.64746,-144.624,344
1569934728,302.716,-163.86,-11.6086,178.286,3.64746,-144.624,344
1569934728,302.716,-163.86,-11.6086,178.286,3.64746,-144.624,344
1569934728,302.716,-163.86,-11.7202,178.308,3.64746,-144.624,344
1569934728,302.716,-163.86,-11.7202,178.308,3.64746,-144.624,344
1569934728,302.828,-163.86,-11.7202,178.308,3.62549,-144.624,344
1569934728,302.828,-163.86,-11.7202,178.308,3.62549,-144.624,344
1569934728,302.828,-163.86,-11.7202,178.308,3.62549,-144.624,344
1569934728,302.828,-163.86,-11.7202,178.308,3.62549,-144.624,344
1569934728,302.828,-163.86,-11.7202,178.308,3.62549,-144.624,344
1569934728,302.828,-163.86,-11.7202,178.308,3.62549,-144.624,344
1569934728,302.828,-163.86,-11.7202,178.308,3.62549,-144.624,344
1569934728,302.828,-163.86,-11.7202,178.308,3.62549,-144.624,344
1569934728,302.828,-163.86,-11.7202,178.308,3.62549,-144.624,344
1569934728,302.828,-163.86,-11.7202,178.308,3.62549,-144.624,344
1569934728,302.828,-163.86,-11.7202,178.33,3.62549,-144.624,344
1569934728,302.828,-163.86,-11.7202,178.33,3.62549,-144.624,344
1569934728,302.828,-163.86,-11.7202,178.33,3.62549,-144.624,344
1569934728,302.828,-163.86,-11.7202,178.33,3.62549,-144.624,344
1569934728,302.828,-163.86,-11.7202,178.33,3.62549,-144.624,344
1569934728,302.828,-163.86,-11.7202,178.33,3.62549,-144.624,344
1569934728,302.828,-163.86,-11.7202,178.33,3.62549,-144.602,344
1569934728,302.828,-163.86,-11.7202,178.33,3.62549,-144.602,344
1569934728,302.828,-163.86,-11.7202,178.33,3.62549,-144.602,344
1569934728,302.828,-163.86,-11.7202,178.33,3.62549,-144.602,344
1569934728,302.828,-163.86,-11.7202,178.33,3.62549,-144.602,340
1569934728,302.828,-163.86,-11.7202,178.33,3.62549,-144.602,340
1569934728,302.828,-163.86,-11.7202,178.33,3.62549,-144.602,340
1569934728,302.828,-163.86,-11.7202,178.33,3.62549,-144.602,340
1569934728,302.828,-163.86,-11.7202,178.33,3.62549,-144.602,340
1569934728,302.828,-163.86,-11.7202,178.33,3.62549,-144.602,340
1569934728,302.828,-163.86,-11.7202,178.33,3.62549,-144.602,340
1569934728,302.828,-163.86,-11.7202,178.33,3.62549,-144.602,340
1569934728,302.828,-163.86,-11.7202,178.33,3.62549,-144.602,340
1569934728,302.828,-163.86,-11.7202,178.33,3.62549,-144.624,340
1569934728,302.828,-163.86,-11.7202,178.33,3.62549,-144.624,340
1569934728,302.828,-163.86,-11.7202,178.33,3.62549,-144.624,340
1569934728,302.828,-163.86,-11.7202,178.33,3.62549,-144.624,340
1569934728,302.828,-163.86,-11.7202,178.33,3.62549,-144.624,340
1569934728,302.828,-163.86,-11.7202,178.33,3.64746,-144.624,340
1569934728,302.828,-163.86,-11.7202,178.308,3.64746,-144.624,344
1569934728,302.828,-163.86,-11.7202,178.308,3.64746,-144.624,344
1569934728,302.828,-163.86,-11.7202,178.308,3.64746,-144.624,344
1569934728,302.828,-163.86,-11.7202,178.308,3.64746,-144.624,344
1569934728,302.828,-163.86,-11.7202,178.308,3.64746,-144.624,344
1569934728,302.828,-163.86,-11.7202,178.308,3.64746,-144.624,344
1569934728,302.828,-163.86,-11.7202,178.308,3.64746,-144.624,344
1569934728,302.828,-163.86,-11.7202,178.308,3.64746,-144.624,344
1569934728,302.828,-163.86,-11.6086,178.308,3.64746,-144.624,344
1569934728,302.828,-163.86,-11.6086,178.308,3.64746,-144.624,344
1569934728,302.828,-163.86,-11.6086,178.308,3.64746,-144.624,344
1569934728,302.828,-163.86,-11.7202,178.308,3.64746,-144.624,344
1569934728,302.828,-163.86,-11.7202,178.308,3.64746,-144.624,344
1569934728,302.828,-163.86,-11.7202,178.308,3.64746,-144.624,344
1569934728,302.828,-163.86,-11.7202,178.308,3.64746,-144.624,344
1569934728,302.828,-163.86,-11.7202,178.308,3.64746,-144.624,344
1569934728,302.828,-163.86,-11.7202,178.308,3.64746,-144.624,344
1569934728,302.828,-163.86,-11.7202,178.308,3.64746,-144.624,344
1569934728,302.828,-163.86,-11.7202,178.308,3.64746,-144.624,344
1569934728,302.828,-163.86,-11.7202,178.308,3.64746,-144.602,344
1569934728,302.828,-163.86,-11.7202,178.308,3.64746,-144.602,344
1569934728,302.828,-163.86,-11.7202,178.308,3.64746,-144.602,344
1569934728,302.828,-163.86,-11.7202,178.308,3.64746,-144.602,344
1569934728,302.828,-163.86,-11.7202,178.308,3.64746,-144.602,344
1569934728,302.828,-163.86,-11.7202,178.308,3.64746,-144.602,344
1569934729,302.828,-163.86,-11.7202,178.308,3.62549,-144.602,344
1569934729,302.828,-163.86,-11.7202,178.308,3.62549,-144.602,340
1569934729,302.828,-163.86,-11.7202,178.308,3.62549,-144.624,340
1569934729,302.828,-163.86,-11.7202,178.308,3.62549,-144.624,340
1569934729,302.828,-163.86,-11.7202,178.308,3.62549,-144.624,340
1569934729,302.828,-163.86,-11.7202,178.308,3.62549,-144.624,340
1569934729,302.828,-163.86,-11.7202,178.308,3.62549,-144.624,340
1569934729,302.828,-163.86,-11.7202,178.308,3.62549,-144.624,340
1569934729,302.828,-163.86,-11.7202,178.308,3.62549,-144.624,340
1569934729,302.828,-163.86,-11.7202,178.308,3.62549,-144.624,340
1569934729,302.828,-163.86,-11.7202,178.308,3.62549,-144.624,340
1569934729,302.828,-163.86,-11.7202,178.308,3.62549,-144.624,340
1569934729,302.828,-163.86,-11.7202,178.308,3.62549,-144.624,340
1569934729,302.828,-163.86,-11.7202,178.286,3.62549,-144.624,340
1569934729,302.828,-163.86,-11.7202,178.286,3.62549,-144.624,340
1569934729,302.828,-163.86,-11.7202,178.286,3.62549,-144.624,340
1569934729,302.828,-163.86,-11.7202,178.286,3.62549,-144.624,340
1569934729,302.828,-163.86,-11.7202,178.286,3.62549,-144.624,340
1569934729,302.828,-163.86,-11.7202,178.286,3.62549,-144.624,344
1569934729,302.828,-163.86,-11.7202,178.286,3.62549,-144.624,344
1569934729,302.828,-163.86,-11.7202,178.286,3.62549,-144.624,344
1569934729,302.716,-163.86,-11.7202,178.286,3.62549,-144.624,344
1569934729,302.716,-163.86,-11.7202,178.286,3.62549,-144.624,344
1569934729,302.716,-163.86,-11.7202,178.286,3.62549,-144.624,348
1569934729,302.716,-163.86,-11.7202,178.308,3.64746,-144.624,348
1569934729,302.716,-163.86,-11.7202,178.308,3.64746,-144.624,348
1569934729,302.716,-163.86,-11.6086,178.286,3.64746,-144.624,352
1569934729,302.716,-163.86,-11.6086,178.286,3.64746,-144.624,352
1569934729,302.716,-163.86,-11.6086,178.286,3.64746,-144.624,352
1569934729,302.716,-163.86,-11.6086,178.286,3.64746,-144.624,352
1569934729,302.716,-163.86,-11.6086,178.286,3.64746,-144.624,356
1569934729,302.716,-163.86,-11.6086,178.286,3.64746,-144.624,356
1569934729,302.716,-163.86,-11.6086,178.286,3.64746,-144.624,356
1569934729,302.716,-163.86,-11.6086,178.286,3.64746,-144.624,356
1569934729,302.716,-163.86,-11.7202,178.286,3.64746,-144.624,360
1569934729,302.716,-163.86,-11.7202,178.286,3.64746,-144.624,360
1569934729,302.716,-163.86,-11.7202,178.286,3.64746,-144.624,360
1569934729,302.716,-163.86,-11.6086,178.286,3.64746,-144.624,360
1569934729,302.716,-163.86,-11.6086,178.286,3.64746,-144.624,360
1569934729,302.716,-163.86,-11.6086,178.286,3.64746,-144.624,364
1569934729,302.716,-163.86,-11.6086,178.286,3.64746,-144.624,364
1569934729,302.716,-163.86,-11.6086,178.286,3.64746,-144.602,364
1569934729,302.716,-163.86,-11.6086,178.286,3.64746,-144.602,364
1569934729,302.716,-163.86,-11.6086,178.286,3.64746,-144.602,364
1569934729,302.716,-163.86,-11.6086,178.286,3.64746,-144.602,364
1569934729,302.716,-163.86,-11.6086,178.286,3.64746,-144.602,364
1569934729,302.716,-163.86,-11.6086,178.308,3.64746,-144.602,364
1569934729,302.716,-163.86,-11.6086,178.308,3.64746,-144.602,368
1569934729,302.716,-163.86,-11.6086,178.308,3.64746,-144.602,368
1569934729,302.716,-163.86,-11.6086,178.308,3.64746,-144.602,368
1569934729,302.716,-163.86,-11.6086,178.308,3.64746,-144.602,368
1569934729,302.716,-163.86,-11.6086,178.308,3.66943,-144.602,364
1569934729,302.716,-163.86,-11.6086,178.308,3.66943,-144.602,364
1569934729,302.716,-163.86,-11.6086,178.308,3.66943,-144.602,364
1569934729,302.716,-163.86,-11.6086,178.308,3.66943,-144.602,364
1569934729,302.716,-163.86,-11.6086,178.308,3.66943,-144.602,364
1569934729,302.828,-163.86,-11.6086,178.308,3.66943,-144.602,364
1569934729,302.716,-163.86,-11.6086,178.308,3.66943,-144.602,364
1569934729,302.716,-163.86,-11.6086,178.308,3.66943,-144.602,360
1569934729,302.716,-163.86,-11.6086,178.308,3.66943,-144.602,360
1569934729,302.716,-163.86,-11.6086,178.308,3.66943,-144.602,360
1569934729,302.716,-163.86,-11.6086,178.308,3.66943,-144.602,360
1569934729,302.716,-163.86,-11.497,178.308,3.66943,-144.602,360
1569934729,302.716,-163.86,-11.497,178.308,3.66943,-144.602,360
1569934729,302.716,-163.86,-11.497,178.308,3.66943,-144.602,356
1569934729,302.716,-163.86,-11.497,178.308,3.66943,-144.602,356
1569934729,302.716,-163.86,-11.497,178.308,3.66943,-144.602,356
1569934729,302.716,-163.86,-11.497,178.308,3.66943,-144.602,356
1569934729,302.716,-163.86,-11.497,178.308,3.66943,-144.602,356
1569934729,302.828,-163.86,-11.497,178.308,3.66943,-144.602,356
1569934729,302.828,-163.86,-11.497,178.308,3.66943,-144.602,352
1569934729,302.828,-163.86,-11.6086,178.308,3.66943,-144.602,352
1569934729,302.828,-163.86,-11.6086,178.308,3.66943,-144.602,352
1569934729,302.716,-163.86,-11.6086,178.308,3.66943,-144.602,352
1569934729,302.716,-163.86,-11.6086,178.308,3.66943,-144.602,352
1569934729,302.716,-163.86,-11.6086,178.308,3.66943,-144.602,348
1569934729,302.716,-163.86,-11.6086,178.308,3.66943,-144.602,348
1569934729,302.716,-163.86,-11.6086,178.308,3.66943,-144.602,348
1569934729,302.716,-163.86,-11.6086,178.308,3.64746,-144.602,348
1569934729,302.716,-163.86,-11.6086,178.308,3.64746,-144.602,348
1569934729,302.716,-163.86,-11.6086,178.308,3.64746,-144.602,348
1569934729,302.716,-163.86,-11.6086,178.308,3.64746,-144.602,344
1569934729,302.716,-163.86,-11.6086,178.308,3.64746,-144.602,344
1569934729,302.716,-163.86,-11.6086,178.308,3.64746,-144.602,344
1569934729,302.716,-163.86,-11.7202,178.308,3.64746,-144.602,344
1569934729,302.716,-163.86,-11.7202,178.308,3.64746,-144.602,344
1569934729,302.716,-163.86,-11.7202,178.308,3.64746,-144.602,344
1569934729,302.716,-163.86,-11.7202,178.308,3.62549,-144.602,344
1569934729,302.828,-163.971,-11.7202,178.308,3.62549,-144.602,344
1569934729,302.828,-163.971,-11.7202,178.308,3.62549,-144.602,340
1569934729,302.828,-163.971,-11.7202,178.308,3.62549,-144.602,340
1569934729,302.828,-163.971,-11.7202,178.308,3.62549,-144.602,340
1569934729,302.828,-163.86,-11.7202,178.308,3.62549,-144.602,340
1569934729,302.828,-163.86,-11.7202,178.308,3.62549,-144.602,344
1569934729,302.828,-163.86,-11.7202,178.308,3.62549,-144.602,344
1569934729,302.828,-163.86,-11.7202,178.308,3.62549,-144.624,344
1569934729,302.828,-163.86,-11.7202,178.308,3.60352,-144.624,344
1569934729,302.828,-163.86,-11.7202,178.308,3.60352,-144.624,344
1569934729,302.828,-163.86,-11.7202,178.308,3.60352,-144.624,344
1569934729,302.828,-163.86,-11.7202,178.308,3.60352,-144.624,344
1569934730,302.828,-163.86,-11.7202,178.308,3.60352,-144.624,344
1569934730,302.828,-163.86,-11.7202,178.308,3.60352,-144.624,344
1569934730,302.828,-163.86,-11.7202,178.308,3.60352,-144.624,344
1569934730,302.828,-163.86,-11.7202,178.286,3.62549,-144.624,344
1569934730,302.828,-163.86,-11.7202,178.286,3.62549,-144.624,344
1569934730,302.828,-163.86,-11.7202,178.286,3.62549,-144.624,344
1569934730,302.828,-163.86,-11.7202,178.286,3.62549,-144.624,344
1569934730,302.828,-163.86,-11.7202,178.286,3.62549,-144.624,344
1569934730,302.716,-163.86,-11.7202,178.286,3.62549,-144.624,344
1569934730,302.716,-163.86,-11.7202,178.286,3.62549,-144.624,344
1569934730,302.716,-163.86,-11.7202,178.308,3.62549,-144.624,344
1569934730,302.716,-163.86,-11.7202,178.308,3.62549,-144.624,344
1569934730,302.716,-163.86,-11.7202,178.308,3.62549,-144.624,344
1569934730,302.716,-163.86,-11.7202,178.308,3.62549,-144.624,344
1569934730,302.716,-163.86,-11.7202,178.308,3.62549,-144.624,344
1569934730,302.716,-163.86,-11.7202,178.308,3.62549,-144.624,348
1569934730,302.716,-163.86,-11.7202,178.308,3.62549,-144.624,348
1569934730,302.716,-163.86,-11.7202,178.308,3.62549,-144.624,348
1569934730,302.828,-163.86,-11.7202,178.308,3.62549,-144.624,348
1569934730,302.828,-163.86,-11.7202,178.308,3.62549,-144.624,348
1569934730,302.828,-163.86,-11.7202,178.308,3.62549,-144.624,348
1569934730,302.828,-163.86,-11.7202,178.308,3.62549,-144.602,348
1569934730,302.828,-163.86,-11.7202,178.308,3.62549,-144.602,348
1569934730,302.828,-163.86,-11.7202,178.308,3.62549,-144.602,348
1569934730,302.828,-163.86,-11.7202,178.308,3.64746,-144.602,348
1569934730,302.828,-163.86,-11.7202,178.308,3.64746,-144.602,348
1569934730,302.828,-163.86,-11.6086,178.308,3.64746,-144.602,348
1569934730,302.828,-163.86,-11.6086,178.308,3.64746,-144.602,348
1569934730,302.828,-163.86,-11.6086,178.308,3.64746,-144.624,348
1569934730,302.828,-163.86,-11.6086,178.308,3.64746,-144.624,348
1569934730,302.828,-163.86,-11.6086,178.308,3.64746,-144.624,348
1569934730,302.828,-163.86,-11.6086,178.308,3.64746,-144.624,348
1569934730,302.828,-163.86,-11.6086,178.308,3.64746,-144.624,348
1569934730,302.828,-163.86,-11.6086,178.308,3.64746,-144.624,348
1569934730,302.828,-163.86,-11.6086,178.308,3.64746,-144.624,348
1569934730,302.828,-163.86,-11.6086,178.308,3.64746,-144.624,348
1569934730,302.828,-163.86,-11.6086,178.308,3.64746,-144.624,348
1569934730,302.828,-163.86,-11.6086,178.308,3.64746,-144.624,348
1569934730,302.828,-163.86,-11.6086,178.308,3.64746,-144.624,348
1569934730,302.828,-163.86,-11.6086,178.308,3.64746,-144.624,348
1569934730,302.828,-163.86,-11.6086,178.308,3.64746,-144.624,348
1569934730,302.828,-163.86,-11.6086,178.308,3.64746,-144.624,348
1569934730,302.828,-163.86,-11.6086,178.308,3.64746,-144.624,348
1569934730,302.828,-163.86,-11.6086,178.308,3.64746,-144.624,348
1569934730,302.828,-163.86,-11.6086,178.308,3.64746,-144.624,348
1569934730,302.828,-163.86,-11.6086,178.308,3.64746,-144.624,348
1569934730,302.828,-163.86,-11.6086,178.308,3.64746,-144.624,348
1569934730,302.828,-163.86,-11.6086,178.308,3.64746,-144.624,348
1569934730,302.828,-163.86,-11.6086,178.308,3.64746,-144.624,348
1569934730,302.828,-163.86,-11.6086,178.308,3.64746,-144.624,348
1569934730,302.828,-163.86,-11.6086,178.308,3.64746,-144.624,344
1569934730,302.828,-163.86,-11.6086,178.308,3.64746,-144.624,344
1569934730,302.828,-163.86,-11.6086,178.308,3.64746,-144.624,344
1569934730,302.828,-163.86,-11.6086,178.33,3.64746,-144.624,344
1569934730,302.828,-163.86,-11.6086,178.33,3.64746,-144.624,344
1569934730,302.828,-163.86,-11.6086,178.33,3.64746,-144.624,344
1569934730,302.828,-163.86,-11.6086,178.33,3.64746,-144.624,344
1569934730,302.828,-163.86,-11.6086,178.33,3.64746,-144.624,344
1569934730,302.828,-163.86,-11.6086,178.33,3.64746,-144.624,344
1569934730,302.828,-163.86,-11.6086,178.33,3.64746,-144.624,344
1569934730,302.828,-163.86,-11.6086,178.33,3.64746,-144.624,344
1569934730,302.828,-163.86,-11.6086,178.33,3.64746,-144.624,344
1569934730,302.828,-163.86,-11.6086,178.33,3.64746,-144.624,344
1569934730,302.828,-163.86,-11.7202,178.33,3.64746,-144.624,344
1569934730,302.828,-163.86,-11.7202,178.33,3.64746,-144.624,344
1569934730,302.828,-163.86,-11.7202,178.33,3.64746,-144.624,348
1569934730,302.828,-163.86,-11.7202,178.33,3.64746,-144.624,348
1569934730,302.828,-163.86,-11.7202,178.308,3.64746,-144.624,348
1569934730,302.828,-163.86,-11.7202,178.308,3.64746,-144.624,348
1569934730,302.828,-163.86,-11.7202,178.308,3.64746,-144.624,348
1569934730,302.828,-163.86,-11.7202,178.308,3.64746,-144.624,348
1569934730,302.828,-163.86,-11.7202,178.308,3.64746,-144.624,348
1569934730,302.828,-163.86,-11.7202,178.308,3.64746,-144.624,348
1569934730,302.828,-163.86,-11.7202,178.308,3.64746,-144.624,348
1569934730,302.828,-163.86,-11.7202,178.308,3.64746,-144.624,348
1569934730,302.716,-163.86,-11.7202,178.286,3.64746,-144.624,352
1569934730,302.716,-163.86,-11.7202,178.286,3.64746,-144.624,352
1569934730,302.716,-163.86,-11.7202,178.286,3.62549,-144.624,352
1569934730,302.716,-163.86,-11.7202,178.286,3.62549,-144.624,352
1569934730,302.716,-163.86,-11.7202,178.286,3.62549,-144.624,352
1569934730,302.716,-163.86,-11.7202,178.286,3.62549,-144.624,352
1569934730,302.716,-163.86,-11.7202,178.286,3.62549,-144.624,352
1569934730,302.716,-163.86,-11.7202,178.286,3.62549,-144.624,352
1569934730,302.716,-163.86,-11.7202,178.264,3.62549,-144.624,352
1569934730,302.716,-163.86,-11.7202,178.264,3.62549,-144.624,352
1569934730,302.716,-163.86,-11.7202,178.264,3.62549,-144.624,356
1569934730,302.716,-163.86,-11.7202,178.264,3.62549,-144.624,356
1569934730,302.716,-163.86,-11.7202,178.264,3.62549,-144.624,356
1569934730,302.716,-163.971,-11.7202,178.264,3.62549,-144.624,356
1569934730,302.716,-163.971,-11.7202,178.264,3.62549,-144.624,356
1569934730,302.716,-163.971,-11.7202,178.264,3.62549,-144.624,356
1569934730,302.716,-163.971,-11.7202,178.264,3.62549,-144.624,356
1569934730,302.716,-163.971,-11.7202,178.264,3.62549,-144.624,356
1569934730,302.716,-163.971,-11.7202,178.264,3.62549,-144.624,356
1569934730,302.716,-163.971,-11.7202,178.264,3.62549,-144.624,356
1569934730,302.716,-163.971,-11.7202,178.264,3.62549,-144.624,352
1569934730,302.716,-163.971,-11.7202,178.264,3.62549,-144.624,352
1569934730,302.716,-163.971,-11.7202,178.264,3.62549,-144.624,352
1569934730,302.716,-163.971,-11.7202,178.264,3.62549,-144.624,352
1569934730,302.716,-163.971,-11.7202,178.264,3.62549,-144.624,352
1569934731,302.716,-163.971,-11.7202,178.264,3.62549,-144.624,348
1569934731,302.716,-163.971,-11.7202,178.264,3.64746,-144.624,348
1569934731,302.716,-163.971,-11.7202,178.264,3.64746,-144.624,348
1569934731,302.716,-163.971,-11.7202,178.264,3.64746,-144.624,348
1569934731,302.716,-163.971,-11.7202,178.264,3.64746,-144.624,348
1569934731,302.716,-163.971,-11.7202,178.264,3.64746,-144.602,344
1569934731,302.716,-163.971,-11.7202,178.264,3.64746,-144.602,344
1569934731,302.716,-163.971,-11.7202,178.264,3.64746,-144.602,344
1569934731,302.716,-163.971,-11.7202,178.264,3.64746,-144.602,340
1569934731,302.716,-163.971,-11.7202,178.242,3.64746,-144.602,340
1569934731,302.716,-164.083,-11.7202,178.242,3.64746,-144.602,340
1569934731,302.716,-164.083,-11.7202,178.242,3.64746,-144.602,340
1569934731,302.716,-164.083,-11.7202,178.242,3.64746,-144.602,340
1569934731,302.716,-164.083,-11.7202,178.242,3.64746,-144.602,336
1569934731,302.716,-164.083,-11.7202,178.242,3.64746,-144.602,336
1569934731,302.828,-163.971,-11.7202,178.264,3.64746,-144.624,336
1569934731,302.828,-163.971,-11.7202,178.264,3.64746,-144.624,336
1569934731,302.828,-163.971,-11.7202,178.264,3.62549,-144.624,336
1569934731,302.828,-163.971,-11.7202,178.264,3.62549,-144.624,336
1569934731,302.716,-163.971,-11.7202,178.264,3.62549,-144.624,336
1569934731,302.716,-163.971,-11.7202,178.264,3.62549,-144.624,336
1569934731,302.716,-163.971,-11.7202,178.264,3.62549,-144.624,340
1569934731,302.716,-163.971,-11.7202,178.264,3.62549,-144.624,340
1569934731,302.716,-163.971,-11.7202,178.264,3.62549,-144.602,340
1569934731,302.828,-163.971,-11.7202,178.264,3.62549,-144.602,340
1569934731,302.828,-163.971,-11.6086,178.264,3.62549,-144.602,340
1569934731,302.828,-163.971,-11.6086,178.264,3.62549,-144.602,344
1569934731,302.828,-163.971,-11.6086,178.264,3.62549,-144.602,344
1569934731,302.828,-163.971,-11.6086,178.264,3.62549,-144.602,344
1569934731,302.828,-163.971,-11.6086,178.264,3.64746,-144.602,344
1569934731,302.828,-163.971,-11.6086,178.264,3.64746,-144.602,344
1569934731,302.828,-163.971,-11.6086,178.264,3.64746,-144.602,348
1569934731,302.828,-163.971,-11.6086,178.264,3.64746,-144.602,348
1569934731,302.828,-163.971,-11.6086,178.264,3.64746,-144.602,348
1569934731,302.828,-163.971,-11.6086,178.264,3.64746,-144.602,348
1569934731,302.828,-163.971,-11.6086,178.264,3.64746,-144.602,348
1569934731,302.828,-163.971,-11.6086,178.264,3.64746,-144.602,348
1569934731,302.828,-163.971,-11.6086,178.264,3.64746,-144.602,348
1569934731,302.828,-163.971,-11.6086,178.264,3.62549,-144.602,352
1569934731,302.828,-163.971,-11.6086,178.264,3.62549,-144.602,352
1569934731,302.716,-163.971,-11.6086,178.264,3.62549,-144.602,352
1569934731,302.716,-163.971,-11.6086,178.264,3.62549,-144.602,352
1569934731,302.716,-163.971,-11.6086,178.264,3.62549,-144.602,352
1569934731,302.716,-163.971,-11.6086,178.264,3.62549,-144.602,352
1569934731,302.716,-163.971,-11.6086,178.264,3.62549,-144.602,352
1569934731,302.716,-163.971,-11.6086,178.264,3.62549,-144.602,352
1569934731,302.716,-163.971,-11.6086,178.264,3.62549,-144.602,352
1569934731,302.716,-163.971,-11.6086,178.264,3.62549,-144.602,352
1569934731,302.716,-163.971,-11.6086,178.264,3.62549,-144.602,352
1569934731,302.716,-163.971,-11.6086,178.264,3.62549,-144.602,352
1569934731,302.716,-163.971,-11.6086,178.264,3.64746,-144.602,352
1569934731,302.716,-163.971,-11.6086,178.286,3.62549,-144.602,356
1569934731,302.716,-163.971,-11.6086,178.286,3.62549,-144.602,356
1569934731,302.716,-163.971,-11.6086,178.286,3.62549,-144.602,356
1569934731,302.828,-163.971,-11.6086,178.286,3.62549,-144.602,356
1569934731,302.828,-163.971,-11.7202,178.286,3.62549,-144.602,356
1569934731,302.828,-163.971,-11.7202,178.286,3.62549,-144.602,352
1569934731,302.828,-163.971,-11.7202,178.286,3.62549,-144.602,352
1569934731,302.828,-163.971,-11.7202,178.286,3.62549,-144.602,352
1569934731,302.828,-163.971,-11.7202,178.286,3.62549,-144.602,352
1569934731,302.828,-163.86,-11.7202,178.286,3.62549,-144.602,352
1569934731,302.828,-163.86,-11.7202,178.286,3.62549,-144.602,352
1569934731,302.828,-163.86,-11.7202,178.286,3.62549,-144.602,352
1569934731,302.828,-163.86,-11.7202,178.286,3.62549,-144.602,352
1569934731,302.828,-163.86,-11.7202,178.286,3.62549,-144.602,352
1569934731,302.828,-163.86,-11.7202,178.308,3.62549,-144.602,352
1569934731,302.828,-163.86,-11.7202,178.308,3.62549,-144.602,352
1569934731,302.828,-163.86,-11.7202,178.308,3.62549,-144.602,352
1569934731,302.828,-163.86,-11.7202,178.308,3.62549,-144.602,352
1569934731,302.828,-163.86,-11.7202,178.308,3.62549,-144.602,352
1569934731,302.828,-163.86,-11.7202,178.308,3.62549,-144.602,352
1569934731,302.828,-163.86,-11.7202,178.308,3.62549,-144.602,352
1569934731,302.828,-163.86,-11.7202,178.308,3.62549,-144.602,352
1569934731,302.828,-163.86,-11.7202,178.308,3.62549,-144.602,352
1569934731,302.828,-163.86,-11.7202,178.308,3.62549,-144.624,348
1569934731,302.828,-163.86,-11.7202,178.308,3.62549,-144.624,348
1569934731,302.828,-163.86,-11.7202,178.308,3.62549,-144.624,348
1569934731,302.828,-163.86,-11.7202,178.308,3.62549,-144.624,348
1569934731,302.828,-163.86,-11.7202,178.308,3.62549,-144.624,348
1569934731,302.828,-163.86,-11.7202,178.308,3.62549,-144.624,348
1569934731,302.828,-163.86,-11.7202,178.308,3.62549,-144.624,348
1569934731,302.828,-163.86,-11.7202,178.308,3.62549,-144.624,348
1569934731,302.828,-163.86,-11.7202,178.308,3.62549,-144.624,348
1569934731,302.828,-163.86,-11.7202,178.308,3.62549,-144.624,348
1569934731,302.828,-163.86,-11.7202,178.308,3.62549,-144.624,348
1569934731,302.828,-163.86,-11.7202,178.308,3.62549,-144.624,344
1569934731,302.828,-163.86,-11.7202,178.308,3.62549,-144.624,344
1569934731,302.828,-163.86,-11.7202,178.308,3.62549,-144.624,344
1569934731,302.828,-163.86,-11.7202,178.308,3.62549,-144.624,344
1569934731,302.828,-163.86,-11.7202,178.308,3.62549,-144.624,344
1569934731,302.828,-163.86,-11.7202,178.308,3.62549,-144.624,344
1569934731,302.828,-163.86,-11.7202,178.308,3.62549,-144.624,344
1569934731,302.828,-163.86,-11.7202,178.308,3.62549,-144.624,344
1569934731,302.828,-163.86,-11.7202,178.308,3.62549,-144.624,344
1569934731,302.828,-163.86,-11.7202,178.308,3.62549,-144.624,344
1569934731,302.828,-163.86,-11.7202,178.308,3.62549,-144.624,344
1569934731,302.828,-163.86,-11.7202,178.33,3.62549,-144.624,344
1569934731,302.828,-163.86,-11.7202,178.33,3.62549,-144.624,344
1569934731,302.828,-163.86,-11.7202,178.33,3.62549,-144.624,344
1569934731,302.828,-163.86,-11.7202,178.33,3.62549,-144.624,344
1569934732,302.828,-163.86,-11.7202,178.33,3.62549,-144.624,344
1569934732,302.828,-163.86,-11.7202,178.33,3.62549,-144.624,344
1569934732,302.828,-163.86,-11.7202,178.33,3.62549,-144.624,344
1569934732,302.828,-163.86,-11.7202,178.33,3.62549,-144.624,348
1569934732,302.828,-163.86,-11.7202,178.33,3.62549,-144.624,348
1569934732,302.828,-163.86,-11.7202,178.33,3.62549,-144.624,348
1569934732,302.828,-163.86,-11.7202,178.33,3.62549,-144.624,348
1569934732,302.828,-163.86,-11.7202,178.33,3.62549,-144.624,348
1569934732,302.828,-163.86,-11.7202,178.33,3.62549,-144.624,348
1569934732,302.828,-163.86,-11.7202,178.33,3.62549,-144.624,348
1569934732,302.828,-163.86,-11.7202,178.308,3.62549,-144.624,348
1569934732,302.828,-163.86,-11.7202,178.308,3.62549,-144.624,348
1569934732,302.828,-163.86,-11.7202,178.308,3.62549,-144.624,348
1569934735,279.834,-138.299,-13.0597,178.638,3.0542,-144.91,328
1569934735,279.834,-138.299,-13.0597,178.638,3.0542,-144.91,328
1569934735,279.834,-138.299,-13.0597,178.638,3.0542,-144.91,328
1569934735,279.834,-138.299,-13.0597,178.638,3.0542,-144.91,328
1569934735,279.834,-138.299,-13.0597,178.638,3.0542,-144.91,328
1569934735,279.834,-138.299,-13.0597,178.638,3.0542,-144.91,328
1569934735,279.834,-138.299,-13.0597,178.638,3.0542,-144.91,328
1569934735,279.834,-138.299,-13.0597,178.638,3.0542,-144.91,328
1569934735,279.834,-138.299,-13.0597,178.638,3.0542,-144.91,328
1569934735,279.834,-138.299,-13.0597,178.638,3.0542,-144.91,328
1569934735,279.834,-138.299,-13.0597,178.638,3.0542,-144.91,328
1569934735,279.834,-138.299,-13.0597,178.638,3.0542,-144.91,328
1569934735,279.834,-138.299,-13.0597,178.638,3.0542,-144.91,328
1569934735,279.834,-138.299,-13.0597,178.638,3.0542,-144.91,328
1569934735,279.834,-138.299,-13.0597,178.638,3.0542,-144.91,328
1569934735,279.834,-138.299,-13.0597,178.638,3.0542,-144.91,328
1569934735,279.834,-138.299,-13.0597,178.638,3.0542,-144.91,328
1569934735,279.834,-138.299,-13.0597,178.638,3.0542,-144.91,328
1569934735,279.834,-138.299,-13.0597,178.638,3.0542,-144.91,328
1569934735,279.834,-138.299,-13.0597,178.638,3.0542,-144.91,328
1569934735,279.834,-138.299,-13.0597,178.638,3.0542,-144.91,328
1569934735,279.834,-138.299,-13.0597,178.638,3.0542,-144.91,328
1569934735,279.834,-138.299,-13.0597,178.638,3.0542,-144.91,328
1569934735,279.834,-138.299,-13.0597,178.638,3.0542,-144.932,328
1569934735,279.834,-138.299,-13.0597,178.638,3.0542,-144.932,328
1569934735,279.834,-138.299,-13.0597,178.638,3.0542,-144.932,328
1569934736,279.834,-138.299,-13.0597,178.638,3.0542,-144.932,328
1569934736,279.834,-138.299,-13.0597,178.638,3.0542,-144.932,324
1569934736,279.834,-138.299,-13.0597,178.638,3.0542,-144.932,324
1569934736,279.834,-138.299,-13.0597,178.638,3.0542,-144.932,324
1569934736,279.834,-138.299,-13.0597,178.616,3.0542,-144.932,324
1569934736,279.834,-138.299,-13.0597,178.616,3.0542,-144.932,324
1569934736,279.834,-138.299,-13.0597,178.616,3.0542,-144.932,320
1569934736,279.834,-138.299,-13.0597,178.616,3.0542,-144.932,320
1569934736,279.834,-138.299,-13.0597,178.616,3.0542,-144.932,320
1569934736,279.834,-138.299,-13.0597,178.616,3.0542,-144.932,320
1569934736,279.834,-138.299,-13.0597,178.616,3.0542,-144.932,320
1569934736,279.834,-138.299,-13.0597,178.616,3.0542,-144.932,320
1569934736,279.834,-138.299,-13.0597,178.616,3.0542,-144.932,320
1569934736,279.834,-138.299,-13.0597,178.616,3.0542,-144.932,320
1569934736,279.834,-138.299,-13.0597,178.616,3.0542,-144.932,320
1569934736,279.834,-138.299,-13.0597,178.616,3.0542,-144.932,320
1569934736,279.834,-138.299,-13.0597,178.616,3.0542,-144.932,320
1569934736,279.834,-138.299,-13.0597,178.616,3.0542,-144.932,320
1569934736,279.834,-138.299,-13.0597,178.616,3.0542,-144.932,320
1569934736,279.834,-138.299,-13.0597,178.616,3.0542,-144.932,320
1569934736,279.834,-138.299,-13.0597,178.616,3.0542,-144.932,320
1569934736,279.834,-138.299,-13.0597,178.616,3.0542,-144.932,324
1569934736,279.834,-138.299,-13.0597,178.616,3.0542,-144.932,324
1569934736,279.834,-138.299,-13.0597,178.616,3.0542,-144.932,324
1569934736,279.834,-138.299,-13.0597,178.616,3.0542,-144.932,324
1569934736,279.834,-138.299,-13.0597,178.616,3.0542,-144.932,328
1569934736,279.834,-138.299,-13.0597,178.616,3.0542,-144.932,328
1569934736,279.834,-138.299,-13.0597,178.616,3.0542,-144.932,328
1569934736,279.834,-138.299,-13.0597,178.616,3.0542,-144.932,328
1569934736,279.834,-138.299,-13.0597,178.616,3.0542,-144.932,332
1569934736,279.834,-138.299,-13.0597,178.616,3.0542,-144.932,332
1569934736,279.834,-138.299,-13.0597,178.616,3.0542,-144.932,332
1569934736,279.834,-138.299,-13.0597,178.616,3.0542,-144.932,332
1569934736,279.834,-138.299,-13.0597,178.616,3.0542,-144.932,332
1569934736,279.834,-138.299,-13.0597,178.616,3.0542,-144.932,332
1569934736,279.834,-138.299,-13.0597,178.616,3.0542,-144.932,332
1569934736,279.834,-138.299,-13.0597,178.616,3.0542,-144.932,332
1569934736,279.834,-138.299,-13.0597,178.616,3.0542,-144.932,336
1569934736,279.834,-138.299,-13.0597,178.616,3.0542,-144.932,336
1569934736,279.834,-138.299,-13.0597,178.616,3.0542,-144.932,336
1569934736,279.834,-138.299,-13.0597,178.616,3.0542,-144.932,336
1569934736,279.834,-138.299,-13.0597,178.616,3.0542,-144.932,336
1569934736,279.834,-138.299,-13.0597,178.616,3.0542,-144.932,336
1569934736,279.834,-138.299,-13.0597,178.616,3.0542,-144.932,336
1569934736,279.834,-138.299,-13.0597,178.616,3.0542,-144.932,336
1569934736,279.834,-138.299,-13.0597,178.616,3.0542,-144.932,336
1569934736,279.834,-138.299,-13.0597,178.616,3.0542,-144.932,336
1569934736,279.834,-138.299,-13.0597,178.616,3.0542,-144.932,336
1569934736,279.834,-138.299,-13.0597,178.616,3.0542,-144.932,336
1569934736,279.834,-138.299,-13.0597,178.616,3.07617,-144.932,332
1569934736,279.834,-138.299,-13.0597,178.616,3.07617,-144.932,332
1569934736,279.834,-138.299,-13.0597,178.616,3.07617,-144.932,332
1569934736,279.834,-138.299,-13.0597,178.616,3.07617,-144.932,332
1569934736,279.834,-138.299,-13.0597,178.616,3.07617,-144.932,332
1569934736,279.834,-138.299,-13.0597,178.616,3.07617,-144.932,332
1569934736,279.834,-138.299,-13.0597,178.616,3.07617,-144.932,328
1569934736,279.834,-138.299,-13.0597,178.616,3.07617,-144.932,328
1569934736,279.834,-138.299,-13.0597,178.616,3.07617,-144.932,328
1569934736,279.834,-138.299,-13.0597,178.616,3.07617,-144.932,328
1569934736,279.834,-138.299,-13.0597,178.616,3.07617,-144.932,328
1569934736,279.834,-138.299,-13.0597,178.616,3.07617,-144.932,328
1569934736,279.834,-138.299,-13.0597,178.616,3.07617,-144.932,328
1569934736,279.834,-138.299,-13.0597,178.616,3.07617,-144.932,328
1569934736,279.834,-138.299,-13.0597,178.616,3.07617,-144.932,328
1569934736,279.834,-138.299,-13.0597,178.616,3.07617,-144.932,328
1569934736,279.834,-138.299,-13.0597,178.616,3.07617,-144.932,328
1569934736,279.834,-138.299,-13.0597,178.616,3.0542,-144.932,328
1569934736,279.834,-138.299,-13.0597,178.616,3.0542,-144.932,328
1569934736,279.834,-138.299,-13.0597,178.616,3.0542,-144.932,328
1569934736,279.834,-138.299,-13.0597,178.616,3.0542,-144.932,328
1569934736,279.834,-138.299,-13.0597,178.616,3.0542,-144.932,328
1569934736,279.834,-138.299,-13.0597,178.616,3.0542,-144.932,328
1569934736,279.834,-138.299,-13.0597,178.616,3.0542,-144.932,328
1569934736,279.834,-138.299,-13.0597,178.616,3.0542,-144.932,328
1569934736,279.834,-138.299,-13.0597,178.616,3.07617,-144.932,328
1569934736,279.834,-138.299,-13.0597,178.616,3.07617,-144.932,328
1569934736,279.834,-138.299,-13.0597,178.616,3.07617,-144.932,328
1569934736,279.834,-138.299,-13.0597,178.638,3.07617,-144.932,328
1569934736,279.834,-138.299,-13.0597,178.638,3.07617,-144.932,328
1569934736,279.834,-138.299,-13.0597,178.638,3.07617,-144.932,328
1569934736,279.834,-138.299,-13.0597,178.638,3.07617,-144.932,328
1569934736,279.834,-138.299,-13.0597,178.638,3.07617,-144.932,328
1569934736,279.834,-138.299,-13.0597,178.638,3.07617,-144.932,328
1569934736,279.834,-138.299,-13.0597,178.638,3.07617,-144.932,328
1569934736,279.834,-138.299,-13.0597,178.616,3.0542,-144.932,328
1569934736,279.834,-138.299,-13.0597,178.616,3.0542,-144.932,328
1569934736,279.834,-138.299,-13.0597,178.616,3.0542,-144.932,328
1569934736,279.834,-138.299,-13.0597,178.616,3.0542,-144.932,328
1569934736,279.834,-138.299,-13.0597,178.616,3.0542,-144.932,328
1569934736,279.834,-138.299,-13.0597,178.616,3.0542,-144.932,328
1569934736,279.834,-138.299,-13.0597,178.616,3.0542,-144.932,328
1569934736,279.834,-138.299,-13.0597,178.616,3.0542,-144.932,328
1569934736,279.834,-138.299,-13.0597,178.616,3.0542,-144.932,328
1569934736,279.834,-138.299,-13.0597,178.616,3.0542,-144.932,328
1569934736,279.834,-138.299,-13.0597,178.616,3.0542,-144.932,328
1569934736,279.834,-138.299,-13.0597,178.616,3.0542,-144.932,328
1569934736,279.834,-138.299,-13.0597,178.638,3.0542,-144.932,328
1569934736,279.834,-138.299,-13.0597,178.638,3.0542,-144.932,328
1569934736,279.834,-138.299,-13.0597,178.638,3.0542,-144.932,328
1569934736,279.834,-138.299,-13.0597,178.638,3.0542,-144.932,328
1569934736,279.834,-138.299,-13.0597,178.638,3.0542,-144.932,328
1569934737,279.834,-138.299,-13.0597,178.638,3.0542,-144.932,328
1569934737,279.834,-138.299,-13.0597,178.638,3.0542,-144.932,328
1569934737,279.834,-138.299,-13.0597,178.638,3.0542,-144.932,328
1569934737,279.834,-138.299,-13.0597,178.638,3.0542,-144.932,328
1569934737,279.834,-138.299,-13.0597,178.638,3.0542,-144.932,328
1569934737,279.834,-138.299,-13.0597,178.638,3.0542,-144.932,328
1569934737,279.834,-138.299,-13.0597,178.638,3.0542,-144.932,328
1569934737,279.834,-138.299,-13.0597,178.638,3.0542,-144.932,324
1569934737,279.834,-138.299,-13.0597,178.638,3.0542,-144.932,324
1569934737,279.834,-138.299,-13.0597,178.638,3.0542,-144.932,324
1569934737,279.834,-138.299,-13.0597,178.638,3.0542,-144.932,324
1569934737,279.834,-138.299,-13.0597,178.638,3.0542,-144.932,324
1569934737,279.834,-138.299,-13.0597,178.638,3.0542,-144.932,324
1569934737,279.834,-138.299,-13.0597,178.638,3.0542,-144.932,324
1569934737,279.834,-138.299,-13.0597,178.638,3.0542,-144.932,324
1569934737,279.834,-138.299,-13.0597,178.638,3.0542,-144.932,324
1569934737,279.834,-138.299,-13.0597,178.638,3.0542,-144.932,324
1569934737,279.834,-138.299,-13.0597,178.638,3.0542,-144.932,324
1569934737,279.834,-138.299,-13.0597,178.638,3.0542,-144.932,324
1569934737,279.834,-138.299,-13.0597,178.638,3.0542,-144.932,324
1569934737,279.834,-138.299,-13.0597,178.638,3.0542,-144.932,324
1569934737,279.834,-138.299,-13.0597,178.638,3.0542,-144.932,324
1569934737,279.834,-138.299,-13.0597,178.638,3.0542,-144.932,324
1569934737,279.834,-138.299,-13.0597,178.638,3.0542,-144.932,324
1569934737,279.834,-138.299,-13.0597,178.638,3.0542,-144.932,324
1569934737,279.834,-138.299,-13.0597,178.638,3.0542,-144.932,324
1569934737,279.834,-138.299,-13.0597,178.638,3.0542,-144.932,324
1569934737,279.834,-138.299,-13.0597,178.638,3.0542,-144.932,324
1569934737,279.834,-138.299,-13.0597,178.638,3.0542,-144.932,324
1569934737,279.834,-138.299,-13.0597,178.638,3.0542,-144.932,324
1569934737,279.834,-138.299,-13.0597,178.638,3.0542,-144.932,324
1569934737,279.834,-138.299,-13.0597,178.638,3.0542,-144.932,324
1569934737,279.834,-138.299,-13.0597,178.638,3.0542,-144.932,324
1569934737,279.834,-138.299,-13.0597,178.638,3.0542,-144.932,324
1569934737,279.834,-138.299,-13.0597,178.638,3.0542,-144.932,324
1569934737,279.834,-138.299,-13.0597,178.638,3.0542,-144.932,324
1569934737,279.834,-138.299,-13.0597,178.638,3.0542,-144.932,324
1569934737,279.834,-138.299,-13.0597,178.638,3.0542,-144.932,324
1569934737,279.834,-138.299,-13.0597,178.638,3.0542,-144.932,324
1569934737,279.834,-138.299,-13.0597,178.638,3.0542,-144.932,324
1569934737,279.834,-138.299,-13.0597,178.638,3.0542,-144.932,324
1569934737,279.834,-138.299,-13.0597,178.638,3.0542,-144.932,324
1569934737,279.834,-138.299,-13.0597,178.638,3.0542,-144.932,324
1569934737,279.834,-138.299,-13.0597,178.66,3.0542,-144.932,324
1569934737,279.834,-138.299,-13.0597,178.66,3.0542,-144.932,324
1569934737,279.834,-138.299,-13.0597,178.66,3.0542,-144.932,324
1569934737,279.834,-138.299,-13.0597,178.66,3.0542,-144.932,324
1569934737,279.834,-138.299,-13.0597,178.66,3.0542,-144.932,324
1569934737,279.834,-138.299,-13.0597,178.638,3.03223,-144.932,324
1569934737,279.834,-138.299,-13.0597,178.638,3.03223,-144.932,324
1569934737,279.834,-138.299,-13.0597,178.638,3.03223,-144.932,324
1569934737,279.834,-138.299,-13.0597,178.638,3.03223,-144.932,324
1569934737,279.834,-138.299,-13.0597,178.638,3.03223,-144.932,324
1569934737,279.834,-138.299,-13.0597,178.638,3.03223,-144.932,324
1569934737,279.834,-138.299,-13.0597,178.638,3.03223,-144.932,324
1569934737,279.834,-138.299,-13.0597,178.638,3.03223,-144.932,324
1569934737,279.834,-138.299,-13.0597,178.638,3.03223,-144.932,324
1569934737,279.834,-138.299,-13.0597,178.638,3.03223,-144.932,324
1569934737,279.834,-138.299,-13.0597,178.638,3.03223,-144.932,324
1569934737,279.834,-138.299,-13.0597,178.638,3.03223,-144.932,324
1569934737,279.834,-138.299,-13.0597,178.638,3.03223,-144.932,324
1569934737,279.834,-138.299,-13.0597,178.638,3.0542,-144.932,324
1569934737,279.834,-138.299,-13.0597,178.638,3.0542,-144.932,324
1569934737,279.834,-138.299,-13.0597,178.638,3.0542,-144.91,328
1569934737,279.834,-138.299,-13.0597,178.638,3.0542,-144.91,328
1569934737,279.834,-138.299,-13.0597,178.638,3.0542,-144.91,328
1569934737,279.834,-138.299,-13.0597,178.638,3.0542,-144.91,328
1569934737,279.834,-138.299,-13.0597,178.638,3.0542,-144.91,328
1569934737,279.834,-138.299,-13.0597,178.638,3.0542,-144.91,328
1569934737,279.834,-138.299,-13.0597,178.638,3.0542,-144.91,328
1569934737,279.834,-138.299,-13.0597,178.638,3.0542,-144.91,328
1569934737,279.834,-138.299,-13.0597,178.638,3.0542,-144.91,328
1569934737,279.834,-138.299,-13.0597,178.638,3.0542,-144.91,328
1569934737,279.834,-138.299,-13.0597,178.638,3.0542,-144.91,324
1569934737,279.834,-138.299,-13.0597,178.638,3.0542,-144.91,324
1569934737,279.834,-138.299,-13.0597,178.638,3.0542,-144.91,324
1569934737,279.834,-138.299,-13.0597,178.616,3.0542,-144.91,324
1569934737,279.834,-138.299,-13.0597,178.616,3.0542,-144.91,324
1569934737,279.834,-138.299,-13.0597,178.616,3.0542,-144.932,324
1569934737,279.834,-138.299,-13.0597,178.616,3.0542,-144.932,324
1569934737,279.834,-138.299,-13.0597,178.616,3.0542,-144.932,324
1569934737,279.834,-138.299,-13.0597,178.616,3.0542,-144.932,324
1569934737,279.834,-138.299,-13.0597,178.616,3.0542,-144.932,324
1569934737,279.834,-138.299,-13.0597,178.616,3.0542,-144.932,320
1569934737,279.834,-138.299,-13.0597,178.616,3.0542,-144.932,320
1569934737,279.834,-138.299,-13.0597,178.616,3.0542,-144.932,320
1569934737,279.834,-138.299,-13.0597,178.616,3.0542,-144.932,320
1569934737,279.834,-138.299,-13.0597,178.616,3.0542,-144.932,320
1569934737,279.834,-138.299,-13.0597,178.616,3.0542,-144.932,320
1569934737,279.834,-138.299,-13.0597,178.616,3.0542,-144.932,320
1569934737,279.834,-138.299,-13.0597,178.616,3.0542,-144.932,320
1569934737,279.834,-138.299,-13.0597,178.616,3.0542,-144.932,320
1569934737,279.834,-138.299,-13.0597,178.616,3.0542,-144.932,320
1569934737,279.834,-138.299,-13.0597,178.616,3.0542,-144.932,320
1569934737,279.834,-138.299,-13.0597,178.616,3.0542,-144.932,320
1569934737,279.834,-138.299,-13.0597,178.616,3.0542,-144.932,320
1569934737,279.834,-138.299,-13.0597,178.616,3.0542,-144.932,320
1569934737,279.834,-138.299,-13.0597,178.616,3.0542,-144.932,320
1569934737,279.834,-138.299,-13.0597,178.616,3.0542,-144.932,320
1569934737,279.834,-138.299,-13.0597,178.616,3.0542,-144.932,320
1569934738,279.834,-138.299,-13.0597,178.616,3.0542,-144.932,320
1569934738,279.834,-138.299,-13.0597,178.616,3.0542,-144.932,320
1569934738,279.834,-138.299,-13.0597,178.616,3.0542,-144.932,320
1569934738,279.834,-138.299,-13.0597,178.616,3.0542,-144.932,320
1569934738,279.834,-138.299,-13.0597,178.616,3.0542,-144.932,320
1569934738,279.834,-138.299,-13.0597,178.616,3.0542,-144.932,320
1569934738,279.834,-138.299,-13.0597,178.616,3.0542,-144.932,320
1569934738,279.834,-138.299,-13.0597,178.616,3.0542,-144.932,320
1569934738,279.834,-138.299,-13.0597,178.638,3.0542,-144.932,320
1569934738,279.834,-138.299,-13.0597,178.638,3.0542,-144.932,320
1569934738,279.834,-138.299,-13.0597,178.638,3.0542,-144.932,320
1569934738,279.834,-138.299,-13.0597,178.638,3.0542,-144.932,320
1569934738,279.834,-138.299,-13.0597,178.638,3.0542,-144.932,320
1569934738,279.834,-138.299,-13.0597,178.638,3.0542,-144.932,320
1569934738,279.834,-138.299,-13.0597,178.638,3.0542,-144.932,320
1569934738,279.834,-138.299,-13.0597,178.638,3.07617,-144.932,320
1569934738,279.834,-138.299,-13.0597,178.638,3.07617,-144.932,320
1569934738,279.834,-138.299,-13.0597,178.638,3.07617,-144.932,320
1569934738,279.834,-138.299,-13.0597,178.638,3.07617,-144.932,320
1569934738,279.834,-138.299,-13.0597,178.638,3.07617,-144.932,320
1569934738,279.834,-138.299,-13.0597,178.638,3.07617,-144.932,324
1569934738,279.834,-138.299,-13.0597,178.638,3.07617,-144.932,324
1569934738,279.834,-138.299,-13.0597,178.638,3.07617,-144.932,324
1569934738,279.834,-138.299,-13.0597,178.638,3.07617,-144.932,324
1569934738,279.834,-138.299,-13.0597,178.638,3.07617,-144.932,324
1569934738,279.834,-138.299,-13.0597,178.616,3.07617,-144.91,324
1569934738,279.834,-138.299,-13.0597,178.616,3.07617,-144.91,324
1569934738,279.834,-138.299,-13.0597,178.616,3.07617,-144.91,324
1569934738,279.834,-138.299,-13.0597,178.616,3.07617,-144.91,328
1569934738,279.834,-138.299,-13.0597,178.616,3.07617,-144.91,328
1569934738,279.834,-138.299,-13.0597,178.616,3.07617,-144.91,328
1569934738,279.834,-138.299,-13.0597,178.616,3.07617,-144.91,328
1569934738,279.834,-138.299,-13.0597,178.616,3.0542,-144.91,328
1569934738,279.834,-138.299,-13.0597,178.616,3.0542,-144.91,332
1569934738,279.834,-138.299,-13.0597,178.616,3.0542,-144.91,332
1569934738,279.834,-138.299,-13.0597,178.616,3.0542,-144.91,332
1569934738,279.834,-138.299,-13.0597,178.616,3.0542,-144.91,332
1569934738,279.834,-138.299,-13.0597,178.616,3.0542,-144.932,332
1569934738,279.834,-138.299,-13.0597,178.616,3.0542,-144.932,332
1569934738,279.834,-138.299,-13.0597,178.616,3.0542,-144.932,332
1569934738,279.834,-138.299,-13.0597,178.616,3.0542,-144.932,332
1569934738,279.834,-138.299,-13.0597,178.616,3.0542,-144.932,332
1569934738,279.834,-138.299,-13.0597,178.616,3.0542,-144.932,332
1569934738,279.834,-138.299,-13.0597,178.616,3.0542,-144.932,332
1569934738,279.834,-138.299,-13.0597,178.616,3.0542,-144.932,332
1569934738,279.834,-138.299,-13.0597,178.616,3.0542,-144.932,332
1569934738,279.834,-138.299,-13.0597,178.616,3.0542,-144.932,332
1569934738,279.834,-138.299,-13.0597,178.616,3.0542,-144.932,332
1569934738,279.834,-138.299,-13.0597,178.616,3.0542,-144.932,332
1569934738,279.834,-138.299,-13.0597,178.616,3.0542,-144.932,332
1569934738,279.834,-138.299,-13.0597,178.616,3.0542,-144.932,332
1569934738,279.834,-138.299,-13.0597,178.616,3.0542,-144.932,332
1569934738,279.834,-138.299,-13.0597,178.616,3.0542,-144.932,332
1569934738,279.834,-138.299,-13.0597,178.616,3.0542,-144.932,332
1569934738,279.834,-138.299,-13.0597,178.616,3.0542,-144.932,332
1569934738,279.834,-138.299,-13.0597,178.616,3.0542,-144.932,332
1569934738,279.834,-138.299,-13.0597,178.616,3.0542,-144.932,332
1569934738,279.834,-138.299,-13.0597,178.616,3.0542,-144.932,332
1569934738,279.834,-138.299,-13.0597,178.616,3.0542,-144.932,332
1569934738,279.834,-138.299,-13.0597,178.616,3.0542,-144.932,332
1569934738,279.834,-138.299,-13.0597,178.638,3.0542,-144.932,332
1569934738,279.834,-138.299,-13.0597,178.638,3.0542,-144.932,332
1569934738,279.834,-138.299,-13.0597,178.638,3.0542,-144.932,332
1569934738,279.834,-138.299,-13.0597,178.616,3.0542,-144.932,332
1569934738,279.834,-138.299,-13.0597,178.616,3.0542,-144.91,332
1569934738,279.834,-138.299,-13.0597,178.616,3.0542,-144.91,332
1569934738,279.834,-138.299,-13.0597,178.616,3.0542,-144.91,332
1569934738,279.834,-138.299,-13.0597,178.616,3.0542,-144.91,332
1569934738,279.834,-138.299,-13.0597,178.616,3.0542,-144.91,328
1569934738,279.834,-138.299,-13.0597,178.616,3.0542,-144.91,328
1569934738,279.834,-138.299,-13.0597,178.616,3.0542,-144.91,328
1569934738,279.834,-138.299,-13.0597,178.616,3.0542,-144.91,328
1569934738,279.834,-138.299,-13.0597,178.616,3.0542,-144.91,328
1569934738,279.834,-138.299,-13.0597,178.616,3.0542,-144.91,328
1569934738,279.834,-138.299,-13.0597,178.616,3.0542,-144.91,328
1569934738,279.834,-138.299,-13.0597,178.616,3.0542,-144.91,328
1569934738,279.834,-138.299,-13.0597,178.616,3.0542,-144.91,328
1569934738,279.834,-138.299,-13.0597,178.616,3.0542,-144.91,328
1569934738,279.834,-138.299,-13.0597,178.616,3.0542,-144.91,328
1569934738,279.834,-138.299,-13.0597,178.616,3.0542,-144.91,328
1569934738,279.834,-138.299,-13.0597,178.616,3.0542,-144.91,328
1569934738,279.834,-138.299,-13.0597,178.616,3.0542,-144.91,328
1569934738,279.834,-138.299,-13.0597,178.616,3.0542,-144.91,328
1569934738,279.834,-138.299,-13.0597,178.616,3.0542,-144.91,324
1569934738,279.834,-138.299,-13.0597,178.616,3.0542,-144.91,324
1569934738,279.834,-138.299,-13.0597,178.616,3.0542,-144.91,324
1569934738,279.834,-138.299,-13.0597,178.616,3.0542,-144.91,324
1569934738,279.834,-138.299,-13.0597,178.616,3.0542,-144.91,324
1569934738,279.834,-138.299,-13.0597,178.616,3.0542,-144.91,324
1569934738,279.834,-138.299,-13.0597,178.616,3.0542,-144.91,324
1569934738,279.834,-138.299,-13.0597,178.616,3.0542,-144.91,324
1569934738,279.834,-138.299,-13.0597,178.616,3.0542,-144.91,324
1569934738,279.834,-138.299,-13.0597,178.616,3.0542,-144.91,324
1569934738,279.834,-138.299,-13.0597,178.616,3.0542,-144.932,324
1569934738,279.834,-138.299,-13.0597,178.616,3.0542,-144.932,324
1569934738,279.834,-138.299,-13.0597,178.616,3.0542,-144.932,324
1569934738,279.834,-138.299,-13.0597,178.616,3.0542,-144.932,324
1569934738,279.834,-138.299,-13.0597,178.616,3.0542,-144.932,324
1569934738,279.834,-138.299,-13.0597,178.616,3.0542,-144.932,324
1569934738,279.834,-138.299,-13.0597,178.616,3.0542,-144.932,324
1569934739,279.834,-138.299,-13.0597,178.616,3.0542,-144.932,324
1569934739,279.834,-138.299,-13.0597,178.616,3.0542,-144.932,324
1569934739,279.834,-138.299,-13.0597,178.616,3.0542,-144.932,324
1569934739,279.834,-138.299,-13.0597,178.616,3.0542,-144.932,324
1569934739,279.834,-138.299,-13.0597,178.616,3.0542,-144.932,324
1569934739,279.834,-138.299,-13.0597,178.616,3.0542,-144.932,324
1569934739,279.834,-138.299,-13.0597,178.616,3.0542,-144.932,324
1569934739,279.834,-138.299,-13.0597,178.616,3.0542,-144.932,324
1569934739,279.834,-138.299,-13.0597,178.616,3.0542,-144.932,324
1569934739,279.834,-138.299,-13.0597,178.616,3.0542,-144.932,324
1569934739,279.834,-138.299,-13.0597,178.616,3.0542,-144.932,324
1569934739,279.834,-138.299,-13.0597,178.616,3.0542,-144.932,324
1569934739,279.834,-138.299,-13.0597,178.616,3.0542,-144.932,324
1569934739,279.834,-138.299,-13.0597,178.616,3.0542,-144.932,324
1569934739,279.834,-138.299,-13.0597,178.616,3.0542,-144.932,324
1569934739,279.834,-138.299,-13.0597,178.638,3.0542,-144.932,324
1569934739,279.834,-138.299,-13.0597,178.638,3.0542,-144.932,328
1569934739,279.834,-138.299,-13.0597,178.638,3.0542,-144.932,328
1569934739,279.834,-138.299,-13.0597,178.638,3.0542,-144.932,328
1569934739,279.834,-138.299,-13.0597,178.638,3.0542,-144.932,328
1569934739,279.834,-138.299,-13.0597,178.638,3.0542,-144.932,328
1569934739,279.834,-138.299,-13.0597,178.638,3.0542,-144.932,328
1569934739,279.834,-138.299,-13.0597,178.638,3.0542,-144.932,328
1569934739,279.834,-138.299,-13.0597,178.638,3.0542,-144.932,328
1569934739,279.834,-138.299,-13.0597,178.638,3.0542,-144.932,328
1569934739,279.834,-138.299,-13.0597,178.638,3.0542,-144.932,328
1569934739,279.834,-138.299,-13.0597,178.638,3.0542,-144.932,328
1569934739,279.834,-138.299,-13.0597,178.638,3.0542,-144.932,328
1569934739,279.834,-138.299,-13.0597,178.638,3.0542,-144.932,328
1569934739,279.834,-138.299,-13.0597,178.638,3.0542,-144.932,328
1569934739,279.834,-138.299,-13.0597,178.616,3.0542,-144.932,328
1569934739,279.834,-138.299,-13.0597,178.616,3.0542,-144.91,328
1569934739,279.834,-138.299,-13.0597,178.616,3.0542,-144.91,328
1569934739,279.834,-138.299,-13.0597,178.616,3.0542,-144.91,328
1569934739,279.834,-138.299,-13.0597,178.616,3.0542,-144.91,328
1569934739,279.834,-138.299,-13.0597,178.616,3.0542,-144.91,328
1569934739,279.834,-138.299,-13.0597,178.616,3.0542,-144.91,328
1569934739,279.834,-138.299,-13.0597,178.616,3.0542,-144.91,328
1569934739,279.834,-138.299,-13.0597,178.616,3.0542,-144.91,328
1569934739,279.834,-138.299,-13.0597,178.616,3.0542,-144.91,328
1569934739,279.834,-138.299,-13.0597,178.616,3.0542,-144.91,328
1569934739,279.834,-138.299,-13.0597,178.616,3.0542,-144.91,328
1569934739,279.834,-138.299,-13.0597,178.616,3.0542,-144.91,328
1569934739,279.834,-138.299,-13.0597,178.616,3.0542,-144.91,328
1569934739,279.834,-138.299,-13.0597,178.616,3.0542,-144.91,328
1569934739,279.834,-138.299,-13.0597,178.616,3.0542,-144.91,328
1569934739,279.834,-138.299,-13.0597,178.616,3.0542,-144.91,332
1569934739,279.834,-138.299,-13.0597,178.616,3.0542,-144.91,332
1569934739,279.834,-138.299,-13.0597,178.616,3.0542,-144.91,332
1569934739,279.834,-138.299,-13.0597,178.616,3.0542,-144.91,332
1569934739,279.834,-138.299,-13.0597,178.616,3.0542,-144.91,332
1569934739,279.834,-138.299,-13.0597,178.616,3.0542,-144.91,332
1569934739,279.834,-138.299,-13.0597,178.616,3.0542,-144.91,332
1569934739,279.834,-138.299,-13.0597,178.616,3.0542,-144.91,332
1569934739,279.834,-138.299,-13.0597,178.638,3.0542,-144.91,332
1569934739,279.834,-138.299,-13.0597,178.638,3.0542,-144.91,332
1569934739,279.834,-138.299,-13.0597,178.638,3.0542,-144.91,332
1569934739,279.834,-138.299,-13.0597,178.638,3.0542,-144.91,332
1569934739,279.834,-138.299,-13.0597,178.638,3.0542,-144.91,332
1569934739,279.834,-138.299,-13.0597,178.638,3.0542,-144.91,332
1569934739,279.834,-138.299,-13.0597,178.638,3.0542,-144.91,332
1569934739,279.834,-138.299,-13.0597,178.638,3.0542,-144.91,332
1569934739,279.834,-138.299,-13.0597,178.638,3.0542,-144.91,332
1569934739,279.834,-138.299,-13.0597,178.638,3.0542,-144.91,332
1569934739,279.834,-138.299,-13.0597,178.638,3.0542,-144.91,332
1569934739,279.834,-138.299,-13.0597,178.638,3.0542,-144.91,332
1569934739,279.834,-138.299,-13.0597,178.638,3.0542,-144.91,332
1569934739,279.834,-138.299,-13.0597,178.638,3.0542,-144.91,332
1569934739,279.834,-138.299,-13.0597,178.616,3.0542,-144.91,332
1569934739,279.834,-138.299,-13.0597,178.616,3.0542,-144.91,332
1569934739,279.834,-138.299,-13.0597,178.616,3.0542,-144.91,332
1569934739,279.834,-138.299,-13.0597,178.616,3.0542,-144.91,332
1569934739,279.834,-138.299,-13.0597,178.616,3.0542,-144.91,332
1569934739,279.834,-138.299,-13.0597,178.616,3.0542,-144.91,332
1569934739,279.834,-138.299,-13.0597,178.616,3.0542,-144.91,332
1569934739,279.834,-138.299,-13.0597,178.616,3.0542,-144.91,332
1569934739,279.834,-138.299,-13.0597,178.616,3.0542,-144.91,332
1569934739,279.834,-138.299,-13.0597,178.616,3.0542,-144.91,332
1569934739,279.834,-138.299,-13.0597,178.616,3.0542,-144.91,332
1569934739,279.834,-138.299,-13.0597,178.616,3.0542,-144.91,332
1569934739,279.834,-138.299,-13.0597,178.616,3.0542,-144.91,332
1569934739,279.834,-138.299,-13.0597,178.616,3.0542,-144.91,332
1569934739,279.834,-138.299,-13.0597,178.616,3.03223,-144.91,332
1569934739,279.834,-138.299,-13.0597,178.616,3.03223,-144.91,332
1569934739,279.834,-138.299,-13.0597,178.616,3.03223,-144.91,332
1569934739,279.834,-138.299,-13.0597,178.616,3.03223,-144.91,332
1569934739,279.834,-138.299,-13.0597,178.616,3.03223,-144.91,332
1569934739,279.834,-138.299,-13.0597,178.616,3.03223,-144.91,332
1569934739,279.834,-138.299,-13.0597,178.638,3.0542,-144.91,332
1569934739,279.834,-138.299,-13.0597,178.638,3.0542,-144.91,328
1569934739,279.834,-138.299,-13.0597,178.638,3.0542,-144.91,328
1569934739,279.834,-138.299,-13.0597,178.638,3.0542,-144.91,328
1569934739,279.834,-138.299,-13.0597,178.638,3.0542,-144.91,328
1569934739,279.834,-138.299,-13.0597,178.638,3.0542,-144.91,328
1569934739,279.834,-138.299,-13.0597,178.638,3.0542,-144.91,328
1569934739,279.834,-138.299,-13.0597,178.638,3.0542,-144.91,328
1569934739,279.834,-138.299,-13.0597,178.638,3.0542,-144.91,328
1569934739,279.834,-138.299,-13.0597,178.616,3.0542,-144.91,328
1569934739,279.834,-138.299,-13.0597,178.616,3.0542,-144.91,328
1569934739,279.834,-138.299,-13.0597,178.616,3.0542,-144.91,324
1569934740,279.834,-138.299,-13.0597,178.616,3.0542,-144.91,324
1569934740,279.834,-138.299,-13.0597,178.616,3.0542,-144.91,324
1569934740,279.834,-138.299,-13.0597,178.616,3.0542,-144.91,324
1569934740,279.834,-138.299,-13.0597,178.616,3.0542,-144.91,324
1569934740,279.834,-138.299,-13.0597,178.616,3.0542,-144.91,324
1569934740,279.834,-138.299,-13.0597,178.616,3.0542,-144.91,324
1569934740,279.834,-138.299,-13.0597,178.616,3.0542,-144.91,324
1569934740,279.834,-138.299,-13.0597,178.616,3.0542,-144.91,324
1569934740,279.834,-138.299,-13.0597,178.616,3.0542,-144.91,324
1569934740,279.834,-138.299,-13.0597,178.616,3.0542,-144.91,324
1569934740,279.834,-138.299,-13.0597,178.616,3.0542,-144.91,324
1569934740,279.834,-138.299,-13.0597,178.616,3.0542,-144.91,324
1569934740,279.834,-138.299,-13.0597,178.616,3.0542,-144.91,324
1569934740,279.834,-138.299,-13.0597,178.616,3.0542,-144.91,324
1569934740,279.834,-138.299,-13.0597,178.616,3.0542,-144.91,324
1569934740,279.834,-138.299,-13.0597,178.616,3.0542,-144.91,324
1569934740,279.834,-138.299,-13.0597,178.616,3.0542,-144.91,324
1569934740,279.834,-138.299,-13.0597,178.616,3.0542,-144.91,324
1569934740,279.834,-138.299,-13.0597,178.616,3.0542,-144.91,324
1569934740,279.834,-138.299,-13.0597,178.616,3.0542,-144.91,324
1569934740,279.834,-138.299,-13.0597,178.616,3.0542,-144.91,324
1569934740,279.834,-138.299,-13.0597,178.616,3.0542,-144.91,324
1569934740,279.834,-138.299,-13.0597,178.616,3.0542,-144.91,324
1569934740,279.834,-138.299,-13.0597,178.616,3.0542,-144.91,324
1569934740,279.834,-138.299,-13.0597,178.616,3.0542,-144.91,324
1569934740,279.834,-138.299,-13.0597,178.616,3.0542,-144.91,324
1569934740,279.834,-138.299,-13.0597,178.616,3.0542,-144.91,324
1569934740,279.834,-138.299,-13.0597,178.616,3.0542,-144.91,324
1569934740,279.834,-138.299,-13.0597,178.616,3.0542,-144.91,324
1569934740,279.834,-138.299,-13.0597,178.616,3.0542,-144.91,324
1569934740,279.834,-138.299,-13.0597,178.616,3.0542,-144.91,324
1569934740,279.834,-138.299,-13.0597,178.616,3.0542,-144.91,324
1569934740,279.834,-138.299,-13.0597,178.616,3.0542,-144.91,324
1569934740,279.834,-138.299,-13.0597,178.616,3.0542,-144.91,324
1569934740,279.834,-138.299,-13.0597,178.616,3.03223,-144.91,324
1569934740,279.834,-138.299,-13.0597,178.616,3.03223,-144.91,324
1569934740,279.834,-138.299,-13.0597,178.616,3.03223,-144.91,324
1569934740,279.834,-138.299,-13.0597,178.616,3.03223,-144.91,324
1569934740,279.834,-138.299,-13.0597,178.616,3.03223,-144.91,324
1569934740,279.834,-138.299,-13.0597,178.616,3.0542,-144.91,324
1569934740,279.834,-138.299,-13.0597,178.616,3.03223,-144.91,324
1569934740,279.834,-138.299,-13.0597,178.616,3.03223,-144.91,324
1569934740,279.834,-138.299,-13.0597,178.616,3.03223,-144.91,328
1569934740,279.834,-138.299,-13.0597,178.616,3.03223,-144.91,328
1569934740,279.834,-138.299,-13.0597,178.616,3.0542,-144.91,328
1569934740,279.834,-138.299,-13.0597,178.616,3.0542,-144.91,328
1569934740,279.834,-138.299,-13.0597,178.616,3.0542,-144.91,328
1569934740,279.834,-138.299,-13.0597,178.616,3.0542,-144.91,328
1569934740,279.834,-138.299,-13.0597,178.616,3.0542,-144.91,324
1569934740,279.834,-138.299,-13.0597,178.616,3.0542,-144.91,324
1569934740,279.834,-138.299,-13.0597,178.616,3.0542,-144.91,324
1569934740,279.834,-138.299,-13.0597,178.616,3.0542,-144.91,324
1569934740,279.834,-138.299,-13.0597,178.616,3.0542,-144.91,324
1569934740,279.834,-138.299,-13.0597,178.638,3.0542,-144.91,324
1569934740,279.834,-138.299,-13.0597,178.638,3.0542,-144.91,324
1569934740,279.834,-138.299,-13.0597,178.638,3.0542,-144.91,324
1569934740,279.834,-138.299,-13.0597,178.638,3.0542,-144.91,324
1569934740,279.834,-138.299,-13.0597,178.638,3.0542,-144.91,324
1569934740,279.834,-138.299,-13.0597,178.638,3.0542,-144.91,324
1569934740,279.834,-138.299,-13.0597,178.638,3.0542,-144.91,324
1569934740,279.834,-138.299,-13.0597,178.638,3.0542,-144.91,324
1569934740,279.834,-138.299,-13.0597,178.638,3.0542,-144.91,320
1569934740,279.834,-138.299,-13.0597,178.638,3.0542,-144.932,320
1569934740,279.834,-138.299,-13.0597,178.638,3.0542,-144.932,320
1569934740,279.834,-138.299,-13.0597,178.638,3.0542,-144.932,320
1569934740,279.834,-138.299,-13.0597,178.616,3.0542,-144.932,320
1569934740,279.834,-138.299,-13.0597,178.616,3.0542,-144.932,320
1569934740,279.834,-138.299,-13.0597,178.616,3.0542,-144.932,320
1569934740,279.834,-138.299,-13.0597,178.616,3.0542,-144.932,320
1569934740,279.834,-138.299,-13.0597,178.616,3.0542,-144.932,320
1569934740,279.834,-138.299,-13.0597,178.616,3.0542,-144.932,320
1569934740,279.834,-138.299,-13.0597,178.616,3.0542,-144.932,320
1569934740,279.834,-138.299,-13.0597,178.616,3.0542,-144.932,324
1569934744,241.66,-96.329,-14.9572,179.099,2.3291,-144.932,356
1569934744,241.66,-96.329,-14.9572,179.099,2.3291,-144.932,356
1569934744,241.66,-96.329,-14.9572,179.099,2.3291,-144.932,356
1569934744,241.66,-96.329,-14.9572,179.099,2.3291,-144.932,360
1569934744,241.66,-96.329,-14.9572,179.099,2.3291,-144.932,360
1569934744,241.66,-96.329,-14.9572,179.099,2.3291,-144.932,360
1569934744,241.66,-96.329,-14.9572,179.099,2.3291,-144.932,360
1569934744,241.66,-96.329,-14.9572,179.099,2.3291,-144.932,360
1569934744,241.66,-96.329,-14.9572,179.099,2.3291,-144.932,360
1569934744,241.66,-96.329,-14.9572,179.099,2.3291,-144.932,360
1569934744,241.66,-96.329,-14.9572,179.099,2.3291,-144.932,360
1569934744,241.66,-96.329,-14.9572,179.099,2.3291,-144.932,360
1569934744,241.66,-96.329,-14.9572,179.099,2.3291,-144.932,360
1569934744,241.66,-96.329,-14.9572,179.099,2.3291,-144.954,360
1569934744,241.66,-96.329,-14.9572,179.099,2.3291,-144.954,360
1569934744,241.66,-96.329,-14.9572,179.099,2.3291,-144.954,360
1569934744,241.66,-96.329,-14.9572,179.099,2.3291,-144.954,360
1569934744,241.66,-96.329,-14.9572,179.099,2.3291,-144.954,360
1569934744,241.66,-96.329,-14.9572,179.099,2.3291,-144.954,360
1569934744,241.66,-96.329,-14.9572,179.099,2.3291,-144.954,360
1569934744,241.66,-96.329,-14.9572,179.099,2.3291,-144.954,360
1569934744,241.66,-96.329,-14.9572,179.099,2.3291,-144.954,360
1569934744,241.66,-96.329,-14.9572,179.099,2.3291,-144.954,360
1569934744,241.66,-96.329,-14.9572,179.099,2.3291,-144.954,364
1569934744,241.66,-96.329,-14.9572,179.099,2.3291,-144.954,364
1569934744,241.66,-96.329,-14.9572,179.099,2.3291,-144.954,364
1569934744,241.66,-96.329,-14.9572,179.099,2.3291,-144.954,364
1569934744,241.66,-96.329,-14.9572,179.077,2.3291,-144.954,364
1569934744,241.66,-96.329,-14.9572,179.077,2.3291,-144.954,364
1569934744,241.66,-96.329,-14.9572,179.077,2.3291,-144.954,364
1569934744,241.66,-96.329,-14.9572,179.077,2.3291,-144.954,364
1569934744,241.66,-96.329,-14.9572,179.077,2.3291,-144.954,364
1569934744,241.66,-96.329,-14.9572,179.077,2.3291,-144.954,364
1569934744,241.66,-96.329,-14.9572,179.077,2.3291,-144.954,364
1569934744,241.66,-96.329,-14.9572,179.077,2.3291,-144.954,364
1569934744,241.66,-96.329,-14.9572,179.077,2.3291,-144.954,364
1569934744,241.66,-96.329,-14.9572,179.077,2.3291,-144.954,364
1569934744,241.66,-96.329,-14.9572,179.077,2.3291,-144.954,364
1569934744,241.66,-96.329,-14.9572,179.077,2.3291,-144.954,364
1569934744,241.66,-96.329,-14.9572,179.077,2.3291,-144.954,364
1569934744,241.66,-96.329,-14.9572,179.077,2.3291,-144.954,364
1569934744,241.66,-96.329,-14.9572,179.077,2.3291,-144.954,364
1569934744,241.66,-96.329,-14.9572,179.099,2.3291,-144.954,364
1569934744,241.66,-96.329,-14.9572,179.099,2.3291,-144.954,364
1569934744,241.66,-96.329,-14.9572,179.099,2.3291,-144.954,364
1569934744,241.66,-96.329,-14.9572,179.099,2.3291,-144.954,364
1569934744,241.66,-96.329,-14.9572,179.099,2.3291,-144.954,364
1569934744,241.66,-96.329,-14.9572,179.099,2.3291,-144.954,364
1569934744,241.66,-96.329,-15.0688,179.099,2.3291,-144.954,364
1569934745,241.66,-96.329,-15.0688,179.099,2.3291,-144.954,364
1569934745,241.66,-96.329,-15.0688,179.099,2.3291,-144.954,364
1569934745,241.66,-96.329,-15.0688,179.099,2.3291,-144.954,364
1569934745,241.66,-96.329,-15.0688,179.099,2.30713,-144.954,364
1569934745,241.66,-96.329,-15.0688,179.099,2.30713,-144.954,364
1569934745,241.66,-96.329,-15.0688,179.099,2.30713,-144.954,364
1569934745,241.66,-96.329,-15.0688,179.099,2.30713,-144.954,364
1569934745,241.66,-96.329,-15.0688,179.099,2.30713,-144.932,364
1569934745,241.66,-96.329,-15.0688,179.099,2.30713,-144.932,364
1569934745,241.66,-96.329,-15.0688,179.099,2.30713,-144.932,364
1569934745,241.66,-96.329,-15.0688,179.099,2.30713,-144.932,364
1569934745,241.66,-96.329,-15.0688,179.099,2.30713,-144.932,364
1569934745,241.66,-96.329,-15.0688,179.099,2.30713,-144.932,364
1569934745,241.66,-96.329,-15.0688,179.099,2.30713,-144.932,364
1569934745,241.66,-96.329,-15.0688,179.099,2.30713,-144.932,364
1569934745,241.66,-96.329,-15.0688,179.099,2.30713,-144.932,364
1569934745,241.66,-96.329,-15.0688,179.099,2.30713,-144.932,364
1569934745,241.66,-96.329,-15.0688,179.099,2.3291,-144.932,364
1569934745,241.66,-96.329,-15.0688,179.099,2.3291,-144.932,360
1569934745,241.66,-96.329,-15.0688,179.099,2.3291,-144.932,360
1569934745,241.66,-96.329,-15.0688,179.099,2.3291,-144.932,360
1569934745,241.66,-96.329,-15.0688,179.099,2.3291,-144.932,360
1569934745,241.66,-96.329,-15.0688,179.099,2.3291,-144.932,364
1569934745,241.66,-96.329,-14.9572,179.099,2.3291,-144.932,364
1569934745,241.66,-96.329,-14.9572,179.099,2.3291,-144.932,364
1569934745,241.66,-96.329,-14.9572,179.099,2.3291,-144.932,364
1569934745,241.66,-96.329,-14.9572,179.099,2.3291,-144.932,364
1569934745,241.66,-96.329,-14.9572,179.099,2.3291,-144.932,364
1569934745,241.66,-96.329,-14.9572,179.099,2.3291,-144.932,364
1569934745,241.66,-96.329,-14.9572,179.099,2.3291,-144.932,364
1569934745,241.66,-96.329,-14.9572,179.099,2.3291,-144.932,364
1569934745,241.66,-96.329,-14.9572,179.099,2.3291,-144.932,364
1569934745,241.66,-96.329,-14.9572,179.099,2.3291,-144.932,364
1569934745,241.66,-96.329,-14.9572,179.099,2.3291,-144.932,364
1569934745,241.66,-96.329,-14.9572,179.099,2.3291,-144.932,364
1569934745,241.66,-96.329,-14.9572,179.099,2.3291,-144.932,364
1569934745,241.66,-96.329,-14.9572,179.099,2.3291,-144.932,364
1569934745,241.66,-96.329,-14.9572,179.099,2.3291,-144.932,364
1569934745,241.66,-96.329,-14.9572,179.099,2.3291,-144.932,364
1569934745,241.66,-96.329,-14.9572,179.099,2.3291,-144.932,364
1569934745,241.66,-96.329,-14.9572,179.099,2.3291,-144.932,364
1569934745,241.66,-96.329,-14.9572,179.099,2.3291,-144.932,364
1569934745,241.66,-96.329,-14.9572,179.099,2.3291,-144.932,364
1569934745,241.66,-96.329,-14.9572,179.099,2.3291,-144.932,364
1569934745,241.66,-96.329,-14.9572,179.099,2.3291,-144.932,364
1569934745,241.66,-96.329,-14.9572,179.099,2.3291,-144.932,364
1569934745,241.66,-96.329,-14.9572,179.099,2.3291,-144.932,360
1569934745,241.66,-96.329,-14.9572,179.099,2.3291,-144.932,360
1569934745,241.66,-96.329,-14.9572,179.099,2.3291,-144.932,360
1569934745,241.66,-96.329,-14.9572,179.099,2.3291,-144.932,360
1569934745,241.66,-96.329,-14.9572,179.099,2.3291,-144.932,360
1569934745,241.66,-96.329,-14.9572,179.099,2.3291,-144.932,360
1569934745,241.66,-96.329,-14.9572,179.099,2.3291,-144.932,360
1569934745,241.66,-96.329,-14.9572,179.099,2.3291,-144.932,360
1569934745,241.66,-96.329,-14.9572,179.099,2.3291,-144.932,360
1569934745,241.66,-96.329,-14.9572,179.099,2.3291,-144.932,360
1569934745,241.66,-96.329,-14.9572,179.099,2.3291,-144.932,360
1569934745,241.66,-96.329,-14.9572,179.099,2.3291,-144.932,360
1569934745,241.66,-96.329,-14.9572,179.099,2.3291,-144.932,360
1569934745,241.66,-96.329,-14.9572,179.099,2.3291,-144.932,360
1569934745,241.66,-96.329,-14.9572,179.099,2.3291,-144.932,360
1569934745,241.66,-96.329,-14.9572,179.099,2.3291,-144.932,360
1569934745,241.66,-96.329,-14.9572,179.099,2.3291,-144.932,360
1569934745,241.66,-96.329,-14.9572,179.099,2.3291,-144.932,360
1569934745,241.66,-96.329,-15.0688,179.099,2.3291,-144.932,360
1569934745,241.66,-96.329,-15.0688,179.099,2.3291,-144.932,360
1569934745,241.66,-96.329,-15.0688,179.099,2.3291,-144.932,360
1569934745,241.66,-96.329,-15.0688,179.099,2.3291,-144.932,360
1569934745,241.66,-96.329,-15.0688,179.099,2.3291,-144.932,360
1569934745,241.66,-96.329,-15.0688,179.099,2.3291,-144.932,360
1569934745,241.66,-96.329,-15.0688,179.099,2.3291,-144.932,360
1569934745,241.66,-96.329,-15.0688,179.099,2.3291,-144.932,360
1569934745,241.66,-96.329,-15.0688,179.099,2.3291,-144.932,360
1569934745,241.66,-96.329,-15.0688,179.099,2.3291,-144.932,360
1569934745,241.66,-96.329,-15.0688,179.099,2.3291,-144.932,360
1569934745,241.66,-96.329,-15.0688,179.099,2.3291,-144.932,360
1569934745,241.66,-96.329,-14.9572,179.099,2.3291,-144.932,360
1569934745,241.66,-96.329,-14.9572,179.099,2.3291,-144.932,360
1569934745,241.66,-96.329,-14.9572,179.099,2.3291,-144.932,360
1569934745,241.66,-96.329,-14.9572,179.099,2.3291,-144.932,356
1569934745,241.66,-96.329,-14.9572,179.099,2.3291,-144.932,356
1569934745,241.66,-96.329,-14.9572,179.099,2.3291,-144.932,356
1569934745,241.66,-96.329,-14.9572,179.099,2.3291,-144.932,356
1569934745,241.66,-96.329,-14.9572,179.099,2.3291,-144.932,356
1569934745,241.66,-96.329,-14.9572,179.099,2.3291,-144.932,356
1569934745,241.66,-96.329,-14.9572,179.099,2.3291,-144.932,356
1569934745,241.66,-96.329,-14.9572,179.099,2.3291,-144.932,356
1569934745,241.66,-96.329,-15.0688,179.099,2.3291,-144.932,360
1569934745,241.66,-96.329,-15.0688,179.099,2.3291,-144.932,360
1569934745,241.66,-96.329,-15.0688,179.099,2.3291,-144.932,360
1569934745,241.66,-96.329,-15.0688,179.099,2.3291,-144.932,360
1569934745,241.66,-96.329,-15.0688,179.099,2.30713,-144.932,360
1569934745,241.66,-96.329,-15.0688,179.099,2.30713,-144.932,360
1569934745,241.66,-96.329,-15.0688,179.099,2.30713,-144.932,360
1569934745,241.66,-96.329,-15.0688,179.099,2.30713,-144.932,360
1569934745,241.66,-96.329,-15.0688,179.099,2.30713,-144.932,360
1569934745,241.66,-96.329,-15.0688,179.099,2.30713,-144.932,360
1569934745,241.66,-96.329,-15.0688,179.099,2.30713,-144.932,360
1569934745,241.66,-96.329,-15.0688,179.099,2.30713,-144.932,360
1569934745,241.66,-96.329,-15.0688,179.099,2.30713,-144.932,360
1569934746,241.66,-96.329,-15.0688,179.099,2.30713,-144.932,360
1569934746,241.66,-96.329,-15.0688,179.099,2.30713,-144.932,360
1569934746,241.66,-96.329,-15.0688,179.099,2.30713,-144.932,360
1569934746,241.66,-96.329,-15.0688,179.099,2.30713,-144.932,360
1569934746,241.66,-96.329,-15.0688,179.099,2.30713,-144.932,360
1569934746,241.66,-96.329,-14.9572,179.099,2.3291,-144.932,360
1569934746,241.66,-96.329,-14.9572,179.099,2.3291,-144.932,360
1569934746,241.66,-96.329,-14.9572,179.099,2.3291,-144.932,360
1569934746,241.66,-96.329,-14.9572,179.099,2.3291,-144.932,360
1569934746,241.66,-96.329,-14.9572,179.099,2.3291,-144.932,360
1569934746,241.66,-96.329,-14.9572,179.099,2.3291,-144.932,360
1569934746,241.66,-96.329,-14.9572,179.099,2.3291,-144.932,360
1569934746,241.66,-96.329,-14.9572,179.099,2.3291,-144.932,360
1569934746,241.66,-96.329,-14.9572,179.099,2.3291,-144.932,364
1569934746,241.66,-96.329,-14.9572,179.099,2.3291,-144.932,364
1569934746,241.66,-96.329,-14.9572,179.099,2.3291,-144.932,364
1569934746,241.66,-96.329,-14.9572,179.099,2.3291,-144.932,364
1569934746,241.66,-96.329,-14.9572,179.099,2.3291,-144.932,364
1569934746,241.66,-96.329,-14.9572,179.099,2.3291,-144.932,364
1569934746,241.66,-96.329,-14.9572,179.099,2.3291,-144.932,364
1569934746,241.66,-96.329,-15.0688,179.099,2.3291,-144.932,364
1569934746,241.66,-96.329,-15.0688,179.099,2.3291,-144.932,364
1569934746,241.66,-96.329,-15.0688,179.099,2.3291,-144.932,364
1569934746,241.66,-96.329,-15.0688,179.099,2.3291,-144.932,364
1569934746,241.66,-96.329,-15.0688,179.099,2.3291,-144.932,364
1569934746,241.66,-96.329,-15.0688,179.099,2.3291,-144.932,364
1569934746,241.66,-96.329,-15.0688,179.099,2.3291,-144.932,364
1569934746,241.66,-96.329,-15.0688,179.099,2.3291,-144.932,364
1569934746,241.66,-96.329,-15.0688,179.099,2.3291,-144.932,364
1569934746,241.66,-96.329,-15.0688,179.099,2.3291,-144.932,364
1569934746,241.66,-96.329,-15.0688,179.099,2.3291,-144.932,364
1569934746,241.66,-96.329,-15.0688,179.077,2.3291,-144.932,364
1569934746,241.66,-96.329,-15.0688,179.077,2.3291,-144.932,364
1569934746,241.66,-96.329,-15.0688,179.077,2.3291,-144.932,364
1569934746,241.66,-96.329,-15.0688,179.077,2.3291,-144.932,364
1569934746,241.66,-96.329,-15.0688,179.077,2.3291,-144.932,364
1569934746,241.66,-96.329,-14.9572,179.077,2.3291,-144.932,364
1569934746,241.66,-96.329,-14.9572,179.077,2.3291,-144.932,364
1569934746,241.66,-96.329,-14.9572,179.077,2.3291,-144.932,364
1569934746,241.66,-96.329,-14.9572,179.077,2.3291,-144.932,364
1569934746,241.66,-96.329,-14.9572,179.077,2.3291,-144.932,364
1569934746,241.66,-96.329,-14.9572,179.077,2.3291,-144.932,364
1569934746,241.66,-96.329,-14.9572,179.077,2.3291,-144.932,364
1569934746,241.66,-96.329,-14.9572,179.077,2.3291,-144.932,364
1569934746,241.66,-96.329,-14.9572,179.099,2.3291,-144.932,364
1569934746,241.66,-96.329,-14.9572,179.099,2.3291,-144.932,364
1569934746,241.66,-96.329,-14.9572,179.099,2.3291,-144.932,364
1569934746,241.66,-96.329,-14.9572,179.099,2.3291,-144.932,364
1569934746,241.66,-96.329,-14.9572,179.099,2.3291,-144.932,364
1569934746,241.66,-96.329,-14.9572,179.099,2.3291,-144.932,364
1569934746,241.66,-96.329,-14.9572,179.099,2.3291,-144.932,364
1569934746,241.66,-96.329,-14.9572,179.099,2.3291,-144.932,364
1569934746,241.66,-96.329,-14.9572,179.099,2.3291,-144.932,364
1569934746,241.66,-96.329,-14.9572,179.077,2.3291,-144.932,364
1569934746,241.66,-96.329,-14.9572,179.077,2.3291,-144.932,364
1569934746,241.66,-96.329,-14.9572,179.077,2.3291,-144.932,364
1569934746,241.66,-96.329,-14.9572,179.077,2.3291,-144.932,364
1569934746,241.66,-96.329,-14.9572,179.077,2.3291,-144.932,364
1569934746,241.66,-96.329,-14.9572,179.077,2.3291,-144.932,364
1569934746,241.66,-96.329,-14.9572,179.077,2.3291,-144.932,364
1569934746,241.66,-96.329,-14.9572,179.077,2.3291,-144.932,364
1569934746,241.66,-96.329,-14.9572,179.077,2.3291,-144.932,360
1569934746,241.66,-96.329,-14.9572,179.077,2.3291,-144.932,360
1569934746,241.66,-96.329,-14.9572,179.077,2.3291,-144.932,360
1569934746,241.66,-96.329,-14.9572,179.099,2.3291,-144.932,360
1569934746,241.66,-96.329,-14.9572,179.099,2.3291,-144.932,360
1569934746,241.66,-96.329,-14.9572,179.099,2.3291,-144.932,360
1569934746,241.66,-96.329,-14.9572,179.099,2.3291,-144.932,360
1569934746,241.66,-96.329,-14.9572,179.099,2.3291,-144.932,360
1569934746,241.66,-96.329,-14.9572,179.099,2.3291,-144.932,360
1569934746,241.66,-96.329,-14.9572,179.099,2.3291,-144.932,360
1569934746,241.66,-96.329,-14.9572,179.099,2.3291,-144.932,360
1569934746,241.66,-96.329,-14.9572,179.099,2.3291,-144.932,360
1569934746,241.66,-96.329,-14.9572,179.099,2.3291,-144.932,360
1569934746,241.66,-96.329,-14.9572,179.099,2.3291,-144.932,360
1569934746,241.66,-96.329,-14.9572,179.099,2.3291,-144.932,360
1569934746,241.66,-96.329,-14.9572,179.099,2.3291,-144.932,360
1569934746,241.66,-96.329,-14.9572,179.099,2.3291,-144.932,360
1569934746,241.66,-96.329,-14.9572,179.099,2.3291,-144.932,360
1569934746,241.66,-96.329,-14.9572,179.099,2.3291,-144.932,360
1569934746,241.66,-96.329,-14.9572,179.099,2.3291,-144.932,360
1569934746,241.66,-96.329,-14.9572,179.099,2.3291,-144.932,360
1569934746,241.66,-96.329,-14.9572,179.099,2.3291,-144.932,360
1569934746,241.66,-96.329,-14.9572,179.099,2.3291,-144.932,360
1569934746,241.66,-96.329,-14.9572,179.099,2.3291,-144.932,360
1569934746,241.66,-96.329,-14.9572,179.099,2.3291,-144.932,360
1569934746,241.66,-96.329,-14.9572,179.099,2.3291,-144.932,360
1569934746,241.66,-96.329,-14.9572,179.099,2.3291,-144.932,360
1569934746,241.66,-96.329,-14.9572,179.099,2.3291,-144.932,360
1569934746,241.66,-96.329,-14.9572,179.099,2.3291,-144.932,360
1569934746,241.66,-96.329,-14.9572,179.099,2.3291,-144.932,360
1569934746,241.66,-96.329,-14.9572,179.099,2.3291,-144.932,360
1569934746,241.66,-96.329,-14.9572,179.099,2.3291,-144.932,360
1569934746,241.66,-96.329,-14.9572,179.077,2.3291,-144.932,360
1569934746,241.66,-96.329,-14.9572,179.077,2.3291,-144.932,360
1569934746,241.66,-96.329,-14.9572,179.077,2.3291,-144.932,360
1569934746,241.66,-96.329,-14.9572,179.077,2.3291,-144.932,360
1569934746,241.66,-96.329,-14.9572,179.077,2.3291,-144.932,360
1569934746,241.66,-96.329,-14.9572,179.077,2.3291,-144.932,360
1569934746,241.66,-96.329,-14.9572,179.077,2.3291,-144.932,360
1569934747,241.66,-96.329,-14.9572,179.077,2.3291,-144.932,360
1569934747,241.66,-96.329,-14.9572,179.077,2.3291,-144.932,360
1569934747,241.66,-96.329,-14.9572,179.077,2.3291,-144.932,360
1569934747,241.66,-96.329,-14.9572,179.077,2.3291,-144.932,360
1569934747,241.66,-96.329,-14.9572,179.077,2.3291,-144.932,360
1569934747,241.66,-96.329,-14.9572,179.077,2.3291,-144.932,360
1569934747,241.66,-96.329,-14.9572,179.077,2.3291,-144.932,360
1569934747,241.66,-96.329,-14.9572,179.077,2.3291,-144.932,360
1569934747,241.66,-96.329,-14.9572,179.077,2.3291,-144.932,360
1569934747,241.66,-96.329,-14.9572,179.077,2.3291,-144.932,360
1569934747,241.66,-96.329,-14.9572,179.077,2.3291,-144.932,360
1569934747,241.66,-96.329,-14.9572,179.077,2.3291,-144.932,356
1569934747,241.66,-96.329,-14.9572,179.077,2.3291,-144.932,356
1569934747,241.66,-96.329,-14.9572,179.077,2.3291,-144.932,356
1569934747,241.66,-96.329,-14.9572,179.077,2.3291,-144.932,356
1569934747,241.66,-96.329,-14.9572,179.077,2.3291,-144.932,356
1569934747,241.66,-96.329,-14.9572,179.099,2.3291,-144.932,356
1569934747,241.66,-96.329,-14.9572,179.099,2.3291,-144.932,356
1569934747,241.66,-96.329,-14.9572,179.099,2.3291,-144.932,356
1569934747,241.66,-96.329,-14.9572,179.099,2.3291,-144.932,356
1569934747,241.771,-96.329,-14.9572,179.099,2.3291,-144.932,356
1569934747,241.771,-96.329,-14.9572,179.099,2.3291,-144.932,356
1569934747,241.771,-96.329,-14.9572,179.099,2.3291,-144.932,356
1569934747,241.771,-96.329,-14.9572,179.099,2.3291,-144.932,356
1569934747,241.771,-96.329,-14.9572,179.099,2.3291,-144.932,356
1569934747,241.771,-96.329,-14.9572,179.099,2.3291,-144.932,356
1569934747,241.771,-96.329,-14.9572,179.099,2.3291,-144.932,356
1569934747,241.771,-96.329,-14.9572,179.099,2.3291,-144.932,356
1569934747,241.771,-96.329,-14.9572,179.099,2.3291,-144.932,356
1569934747,241.771,-96.329,-14.9572,179.099,2.3291,-144.932,356
1569934747,241.771,-96.329,-14.9572,179.099,2.3291,-144.932,356
1569934747,241.771,-96.329,-14.9572,179.099,2.3291,-144.932,356
1569934747,241.771,-96.329,-14.9572,179.099,2.3291,-144.932,356
1569934747,241.771,-96.329,-14.9572,179.099,2.3291,-144.932,356
1569934747,241.771,-96.329,-14.9572,179.099,2.3291,-144.932,356
1569934747,241.771,-96.329,-14.9572,179.099,2.3291,-144.932,356
1569934747,241.771,-96.329,-14.9572,179.099,2.3291,-144.932,356
1569934747,241.771,-96.329,-14.9572,179.099,2.3291,-144.932,356
1569934747,241.771,-96.329,-14.9572,179.099,2.3291,-144.932,356
1569934747,241.771,-96.329,-14.9572,179.099,2.3291,-144.932,356
1569934747,241.771,-96.329,-14.9572,179.099,2.3291,-144.932,356
1569934747,241.771,-96.329,-14.9572,179.099,2.3291,-144.932,356
1569934747,241.771,-96.329,-14.9572,179.099,2.3291,-144.932,356
1569934747,241.771,-96.329,-14.9572,179.099,2.3291,-144.932,356
1569934747,241.771,-96.329,-14.9572,179.099,2.3291,-144.932,356
1569934747,241.771,-96.329,-14.9572,179.099,2.3291,-144.932,356
1569934747,241.771,-96.329,-14.9572,179.099,2.3291,-144.932,356
1569934747,241.771,-96.329,-14.9572,179.099,2.3291,-144.932,356
1569934747,241.66,-96.329,-14.9572,179.099,2.3291,-144.932,356
1569934747,241.66,-96.329,-14.9572,179.099,2.3291,-144.932,356
1569934747,241.66,-96.329,-14.9572,179.099,2.3291,-144.932,356
1569934747,241.66,-96.329,-14.9572,179.099,2.3291,-144.932,356
1569934747,241.66,-96.329,-14.9572,179.099,2.3291,-144.932,356
1569934747,241.66,-96.329,-14.9572,179.099,2.3291,-144.932,356
1569934747,241.66,-96.329,-14.9572,179.099,2.3291,-144.932,356
1569934747,241.66,-96.329,-14.9572,179.099,2.3291,-144.932,360
1569934747,241.66,-96.329,-14.9572,179.099,2.3291,-144.932,360
1569934747,241.66,-96.329,-14.9572,179.099,2.3291,-144.932,360
1569934747,241.66,-96.329,-14.9572,179.099,2.3291,-144.932,360
1569934747,241.66,-96.329,-14.9572,179.099,2.3291,-144.932,360
1569934747,241.66,-96.329,-14.9572,179.099,2.3291,-144.932,360
1569934747,241.66,-96.329,-14.9572,179.099,2.3291,-144.932,360
1569934747,241.66,-96.329,-14.9572,179.099,2.3291,-144.932,360
1569934747,241.66,-96.329,-14.9572,179.099,2.3291,-144.932,360
1569934747,241.66,-96.329,-14.9572,179.099,2.3291,-144.932,360
1569934747,241.66,-96.329,-14.9572,179.099,2.3291,-144.932,360
1569934747,241.66,-96.329,-14.9572,179.099,2.3291,-144.932,360
1569934747,241.66,-96.329,-14.9572,179.099,2.3291,-144.932,360
1569934747,241.66,-96.329,-14.9572,179.099,2.3291,-144.932,360
1569934747,241.66,-96.329,-14.9572,179.099,2.3291,-144.932,360
1569934747,241.66,-96.329,-14.9572,179.099,2.3291,-144.932,360
1569934747,241.66,-96.329,-14.9572,179.099,2.3291,-144.932,360
1569934747,241.66,-96.329,-14.9572,179.099,2.3291,-144.932,360
1569934747,241.66,-96.329,-14.9572,179.099,2.3291,-144.932,360
1569934747,241.66,-96.329,-14.9572,179.099,2.3291,-144.932,360
1569934747,241.66,-96.329,-14.9572,179.099,2.3291,-144.932,360
1569934747,241.66,-96.329,-14.9572,179.099,2.3291,-144.932,360
