time,x,y,z,ax,ay,az,q
1569923773,384.646,15.5153,-1.89756,177.913,5.625,-145.239,1528
1569923773,384.646,15.5153,-1.89756,177.913,5.625,-145.239,1528
1569923773,384.646,15.5153,-1.89756,177.913,5.625,-145.239,1528
1569923773,384.646,15.5153,-1.89756,177.913,5.625,-145.239,1528
1569923773,384.646,15.5153,-1.89756,177.913,5.625,-145.239,1528
1569923773,384.646,15.5153,-1.89756,177.913,5.625,-145.239,1528
1569923773,384.646,15.5153,-1.89756,177.913,5.625,-145.239,1528
1569923773,384.758,15.5153,-1.89756,177.913,5.625,-145.239,1528
1569923773,384.758,15.5153,-1.89756,177.913,5.625,-145.239,1528
1569923773,384.758,15.5153,-1.89756,177.913,5.625,-145.239,1524
1569923773,384.646,15.5153,-1.89756,177.913,5.60303,-145.239,1524
1569923773,384.646,15.5153,-2.00918,177.913,5.60303,-145.239,1524
1569923773,384.646,15.5153,-2.00918,177.913,5.60303,-145.239,1524
1569923773,384.646,15.5153,-2.00918,177.913,5.60303,-145.239,1524
1569923773,384.646,15.5153,-2.00918,177.913,5.60303,-145.239,1524
1569923773,384.646,15.5153,-2.00918,177.913,5.60303,-145.239,1524
1569923773,384.646,15.5153,-2.00918,177.913,5.60303,-145.261,1524
1569923773,384.646,15.5153,-2.00918,177.891,5.60303,-145.261,1524
1569923773,384.646,15.5153,-2.00918,177.891,5.60303,-145.261,1524
1569923773,384.646,15.5153,-2.00918,177.891,5.60303,-145.261,1524
1569923773,384.646,15.5153,-2.00918,177.913,5.60303,-145.261,1524
1569923773,384.646,15.5153,-2.00918,177.913,5.60303,-145.261,1524
1569923773,384.646,15.5153,-2.00918,177.913,5.60303,-145.261,1524
1569923773,384.646,15.5153,-2.00918,177.913,5.60303,-145.261,1524
1569923773,384.646,15.5153,-2.00918,177.913,5.60303,-145.261,1524
1569923773,384.646,15.5153,-2.00918,177.913,5.60303,-145.261,1524
1569923773,384.646,15.5153,-2.00918,177.913,5.60303,-145.261,1524
1569923773,384.646,15.5153,-2.00918,177.891,5.60303,-145.261,1528
1569923773,384.646,15.5153,-2.00918,177.891,5.60303,-145.261,1528
1569923773,384.646,15.5153,-2.00918,177.891,5.60303,-145.261,1528
1569923773,384.646,15.5153,-2.00918,177.891,5.60303,-145.261,1528
1569923773,384.646,15.5153,-2.00918,177.891,5.58105,-145.261,1528
1569923773,384.646,15.5153,-2.00918,177.891,5.60303,-145.261,1528
1569923773,384.646,15.5153,-2.00918,177.891,5.60303,-145.261,1528
1569923773,384.646,15.5153,-2.00918,177.891,5.60303,-145.261,1528
1569923773,384.646,15.4037,-2.00918,177.891,5.60303,-145.261,1528
1569923773,384.646,15.4037,-2.00918,177.891,5.60303,-145.261,1528
1569923773,384.646,15.4037,-2.00918,177.891,5.60303,-145.261,1528
1569923773,384.646,15.4037,-2.00918,177.891,5.60303,-145.261,1528
1569923773,384.646,15.4037,-2.00918,177.891,5.60303,-145.261,1528
1569923773,384.646,15.4037,-2.00918,177.891,5.625,-145.261,1528
1569923773,384.646,15.4037,-2.00918,177.891,5.625,-145.261,1528
1569923773,384.646,15.4037,-1.89756,177.891,5.625,-145.261,1528
1569923773,384.646,15.4037,-1.89756,177.891,5.625,-145.239,1528
1569923773,384.646,15.4037,-1.89756,177.891,5.625,-145.239,1528
1569923773,384.646,15.4037,-1.89756,177.891,5.625,-145.239,1528
1569923773,384.646,15.4037,-1.89756,177.891,5.625,-145.239,1528
1569923773,384.646,15.4037,-1.89756,177.891,5.625,-145.239,1528
1569923773,384.646,15.4037,-1.89756,177.891,5.625,-145.239,1528
1569923774,384.646,15.4037,-1.89756,177.891,5.625,-145.239,1528
1569923774,384.646,15.4037,-1.89756,177.891,5.625,-145.239,1528
1569923774,384.646,15.4037,-1.89756,177.891,5.625,-145.239,1528
1569923774,384.646,15.4037,-1.89756,177.891,5.625,-145.239,1528
1569923774,384.646,15.4037,-1.89756,177.891,5.625,-145.239,1532
1569923774,384.646,15.4037,-1.89756,177.891,5.625,-145.239,1532
1569923774,384.646,15.4037,-1.89756,177.891,5.625,-145.239,1532
1569923774,384.646,15.4037,-1.89756,177.891,5.625,-145.239,1532
1569923774,384.646,15.4037,-1.89756,177.869,5.625,-145.239,1532
1569923774,384.646,15.4037,-1.89756,177.869,5.625,-145.261,1532
1569923774,384.646,15.4037,-1.89756,177.869,5.625,-145.261,1532
1569923774,384.646,15.4037,-1.89756,177.869,5.60303,-145.261,1532
1569923774,384.646,15.4037,-2.00918,177.869,5.60303,-145.261,1532
1569923774,384.646,15.4037,-2.00918,177.869,5.60303,-145.261,1532
1569923774,384.646,15.4037,-2.00918,177.869,5.60303,-145.261,1532
1569923774,384.646,15.4037,-2.00918,177.869,5.60303,-145.261,1532
1569923774,384.646,15.4037,-2.00918,177.869,5.60303,-145.261,1532
1569923774,384.646,15.4037,-2.00918,177.869,5.60303,-145.261,1532
1569923774,384.646,15.2921,-2.00918,177.869,5.60303,-145.261,1532
1569923774,384.646,15.2921,-2.00918,177.847,5.60303,-145.261,1532
1569923774,384.646,15.2921,-2.00918,177.847,5.60303,-145.261,1532
1569923774,384.646,15.2921,-2.00918,177.847,5.60303,-145.261,1532
1569923774,384.646,15.2921,-2.00918,177.847,5.60303,-145.261,1532
1569923774,384.646,15.2921,-2.00918,177.847,5.60303,-145.261,1532
1569923774,384.646,15.2921,-2.00918,177.847,5.60303,-145.261,1532
1569923774,384.646,15.2921,-2.00918,177.847,5.60303,-145.261,1532
1569923774,384.646,15.2921,-2.00918,177.847,5.60303,-145.261,1532
1569923774,384.646,15.2921,-2.00918,177.847,5.60303,-145.261,1528
1569923774,384.646,15.2921,-2.00918,177.847,5.60303,-145.261,1528
1569923774,384.646,15.2921,-2.00918,177.847,5.60303,-145.261,1528
1569923774,384.646,15.2921,-2.00918,177.847,5.60303,-145.261,1528
1569923774,384.646,15.2921,-1.89756,177.847,5.60303,-145.261,1528
1569923774,384.646,15.2921,-1.89756,177.847,5.625,-145.261,1528
1569923774,384.646,15.2921,-1.89756,177.847,5.625,-145.261,1528
1569923774,384.646,15.2921,-1.89756,177.847,5.625,-145.261,1528
1569923774,384.646,15.2921,-1.89756,177.847,5.625,-145.261,1528
1569923774,384.646,15.2921,-1.89756,177.847,5.625,-145.261,1528
1569923774,384.646,15.2921,-1.89756,177.847,5.625,-145.261,1528
1569923774,384.646,15.2921,-1.89756,177.847,5.625,-145.261,1528
1569923774,384.646,15.2921,-1.89756,177.869,5.625,-145.261,1524
1569923774,384.646,15.4037,-1.89756,177.869,5.625,-145.261,1524
1569923774,384.646,15.4037,-1.89756,177.869,5.625,-145.261,1524
1569923774,384.646,15.4037,-1.89756,177.869,5.625,-145.261,1524
1569923774,384.646,15.4037,-1.89756,177.869,5.625,-145.261,1520
1569923774,384.646,15.4037,-1.89756,177.869,5.625,-145.261,1520
1569923774,384.646,15.4037,-1.89756,177.869,5.625,-145.261,1520
1569923774,384.646,15.4037,-1.89756,177.869,5.625,-145.261,1516
1569923774,384.646,15.4037,-1.89756,177.869,5.625,-145.261,1516
1569923774,384.646,15.4037,-1.89756,177.869,5.625,-145.261,1516
1569923774,384.646,15.4037,-1.89756,177.847,5.625,-145.261,1516
1569923774,384.535,15.4037,-1.89756,177.847,5.625,-145.261,1516
1569923774,384.535,15.4037,-1.89756,177.869,5.625,-145.261,1512
1569923774,384.535,15.4037,-1.89756,177.869,5.625,-145.261,1512
1569923774,384.535,15.4037,-2.00918,177.869,5.625,-145.261,1512
1569923774,384.535,15.4037,-2.00918,177.869,5.625,-145.261,1512
1569923774,384.535,15.4037,-2.00918,177.869,5.625,-145.261,1512
1569923774,384.535,15.4037,-2.00918,177.869,5.60303,-145.261,1512
1569923774,384.535,15.4037,-2.00918,177.869,5.60303,-145.261,1512
1569923774,384.535,15.4037,-2.00918,177.869,5.60303,-145.261,1512
1569923774,384.535,15.4037,-2.00918,177.869,5.60303,-145.261,1512
1569923774,384.535,15.4037,-2.00918,177.891,5.60303,-145.261,1512
1569923774,384.535,15.4037,-2.00918,177.891,5.60303,-145.261,1512
1569923774,384.535,15.4037,-2.00918,177.891,5.60303,-145.261,1512
1569923774,384.535,15.4037,-2.00918,177.869,5.60303,-145.261,1512
1569923774,384.535,15.4037,-2.00918,177.869,5.625,-145.261,1512
1569923774,384.535,15.4037,-2.00918,177.869,5.625,-145.261,1512
1569923774,384.535,15.4037,-1.89756,177.869,5.625,-145.261,1516
1569923774,384.535,15.4037,-1.89756,177.869,5.625,-145.261,1516
1569923774,384.535,15.4037,-1.89756,177.869,5.625,-145.261,1516
1569923774,384.535,15.4037,-1.89756,177.869,5.625,-145.261,1516
1569923774,384.535,15.4037,-1.89756,177.869,5.625,-145.261,1516
1569923774,384.535,15.4037,-1.89756,177.869,5.625,-145.261,1516
1569923774,384.535,15.4037,-1.89756,177.869,5.625,-145.261,1516
1569923774,384.535,15.4037,-1.89756,177.869,5.625,-145.261,1516
1569923774,384.535,15.4037,-1.89756,177.869,5.625,-145.261,1516
1569923774,384.535,15.4037,-1.89756,177.869,5.625,-145.261,1516
1569923774,384.535,15.4037,-1.89756,177.869,5.625,-145.261,1520
1569923774,384.535,15.4037,-1.89756,177.869,5.625,-145.261,1520
1569923774,384.535,15.4037,-1.89756,177.869,5.625,-145.261,1520
1569923774,384.535,15.4037,-1.89756,177.869,5.625,-145.261,1520
1569923774,384.535,15.4037,-1.89756,177.869,5.625,-145.261,1520
1569923774,384.535,15.4037,-1.89756,177.869,5.625,-145.261,1520
1569923774,384.646,15.4037,-1.89756,177.869,5.625,-145.261,1520
1569923774,384.646,15.4037,-1.89756,177.869,5.625,-145.261,1524
1569923774,384.646,15.4037,-1.89756,177.869,5.625,-145.261,1524
1569923774,384.646,15.4037,-1.89756,177.869,5.625,-145.261,1524
1569923774,384.646,15.4037,-1.89756,177.869,5.625,-145.261,1524
1569923774,384.646,15.4037,-1.89756,177.869,5.625,-145.261,1524
1569923774,384.646,15.4037,-1.89756,177.869,5.625,-145.283,1524
1569923774,384.646,15.4037,-1.89756,177.869,5.625,-145.283,1528
1569923774,384.646,15.4037,-1.89756,177.869,5.625,-145.283,1528
1569923774,384.646,15.4037,-1.89756,177.869,5.60303,-145.283,1528
1569923774,384.646,15.4037,-1.89756,177.869,5.60303,-145.283,1528
1569923774,384.646,15.4037,-1.89756,177.869,5.60303,-145.283,1532
1569923774,384.646,15.4037,-1.89756,177.869,5.60303,-145.283,1532
1569923774,384.646,15.4037,-2.00918,177.869,5.60303,-145.283,1532
1569923774,384.646,15.4037,-2.00918,177.869,5.60303,-145.283,1532
1569923774,384.646,15.4037,-2.00918,177.869,5.60303,-145.283,1532
1569923774,384.646,15.4037,-2.00918,177.869,5.60303,-145.283,1532
1569923774,384.646,15.4037,-2.00918,177.869,5.60303,-145.283,1532
1569923775,384.646,15.4037,-2.00918,177.869,5.60303,-145.283,1532
1569923775,384.646,15.4037,-2.00918,177.869,5.60303,-145.283,1532
1569923775,384.646,15.4037,-2.00918,177.869,5.60303,-145.283,1528
1569923775,384.646,15.4037,-2.00918,177.869,5.60303,-145.283,1528
1569923775,384.646,15.4037,-2.00918,177.869,5.60303,-145.283,1528
1569923775,384.646,15.4037,-2.00918,177.869,5.60303,-145.283,1528
1569923775,384.646,15.4037,-2.00918,177.869,5.60303,-145.283,1528
1569923775,384.646,15.4037,-2.00918,177.869,5.58105,-145.283,1528
1569923775,384.646,15.4037,-2.00918,177.869,5.58105,-145.283,1528
1569923775,384.646,15.4037,-2.00918,177.869,5.58105,-145.283,1524
1569923775,384.646,15.4037,-2.00918,177.869,5.60303,-145.283,1524
1569923775,384.646,15.4037,-2.00918,177.869,5.60303,-145.283,1524
1569923775,384.646,15.4037,-2.00918,177.869,5.60303,-145.283,1524
1569923775,384.646,15.4037,-2.00918,177.869,5.60303,-145.283,1524
1569923775,384.646,15.4037,-2.00918,177.869,5.60303,-145.283,1524
1569923775,384.646,15.4037,-2.00918,177.869,5.60303,-145.283,1524
1569923775,384.646,15.4037,-1.89756,177.869,5.60303,-145.283,1524
1569923775,384.646,15.4037,-1.89756,177.869,5.60303,-145.283,1524
1569923775,384.646,15.4037,-1.89756,177.869,5.60303,-145.261,1524
1569923775,384.646,15.4037,-1.89756,177.869,5.625,-145.261,1524
1569923775,384.646,15.4037,-1.89756,177.869,5.625,-145.261,1524
1569923775,384.646,15.4037,-1.89756,177.869,5.625,-145.261,1524
1569923775,384.646,15.4037,-1.89756,177.869,5.625,-145.261,1524
1569923775,384.646,15.4037,-1.89756,177.869,5.625,-145.261,1524
1569923775,384.646,15.4037,-1.89756,177.869,5.625,-145.261,1524
1569923775,384.646,15.4037,-1.89756,177.869,5.625,-145.261,1524
1569923775,384.646,15.4037,-1.89756,177.869,5.625,-145.261,1524
1569923775,384.646,15.4037,-1.89756,177.869,5.625,-145.261,1524
1569923775,384.646,15.4037,-1.89756,177.869,5.625,-145.261,1524
1569923775,384.646,15.4037,-1.89756,177.869,5.625,-145.261,1524
1569923775,384.646,15.4037,-1.89756,177.869,5.625,-145.261,1524
1569923775,384.646,15.4037,-1.89756,177.869,5.625,-145.261,1524
1569923775,384.646,15.4037,-1.89756,177.869,5.625,-145.261,1524
1569923775,384.646,15.4037,-1.89756,177.869,5.625,-145.261,1524
1569923775,384.646,15.4037,-1.89756,177.869,5.625,-145.261,1524
1569923775,384.646,15.4037,-1.89756,177.869,5.625,-145.261,1524
1569923775,384.646,15.4037,-1.89756,177.869,5.625,-145.261,1524
1569923775,384.646,15.4037,-1.89756,177.869,5.625,-145.261,1524
1569923775,384.646,15.4037,-1.89756,177.869,5.625,-145.261,1524
1569923775,384.646,15.4037,-1.89756,177.869,5.625,-145.261,1524
1569923775,384.646,15.4037,-1.89756,177.869,5.625,-145.261,1524
1569923775,384.646,15.4037,-1.89756,177.869,5.625,-145.261,1524
1569923775,384.646,15.4037,-1.89756,177.869,5.625,-145.261,1524
1569923775,384.646,15.4037,-1.89756,177.869,5.60303,-145.261,1524
1569923775,384.646,15.4037,-1.89756,177.869,5.60303,-145.261,1528
1569923775,384.646,15.4037,-2.00918,177.891,5.60303,-145.261,1528
1569923775,384.758,15.4037,-2.00918,177.891,5.60303,-145.261,1528
1569923775,384.758,15.4037,-2.00918,177.891,5.60303,-145.261,1532
1569923775,384.758,15.4037,-2.00918,177.891,5.60303,-145.261,1532
1569923775,384.758,15.4037,-2.00918,177.891,5.60303,-145.261,1536
1569923775,384.758,15.4037,-2.00918,177.891,5.60303,-145.261,1536
1569923775,384.758,15.5153,-2.00918,177.891,5.60303,-145.261,1536
1569923775,384.758,15.5153,-2.00918,177.891,5.60303,-145.261,1540
1569923775,384.758,15.5153,-2.00918,177.891,5.60303,-145.261,1540
1569923775,384.758,15.4037,-2.00918,177.891,5.60303,-145.261,1540
1569923775,384.758,15.4037,-2.00918,177.891,5.60303,-145.261,1540
1569923775,384.758,15.4037,-2.00918,177.891,5.60303,-145.261,1540
1569923775,384.758,15.4037,-1.89756,177.891,5.625,-145.261,1544
1569923775,384.646,15.4037,-1.89756,177.891,5.625,-145.261,1544
1569923775,384.646,15.4037,-1.89756,177.891,5.625,-145.261,1540
1569923775,384.646,15.4037,-1.89756,177.891,5.625,-145.261,1540
1569923775,384.646,15.4037,-1.89756,177.891,5.625,-145.261,1540
1569923775,384.646,15.4037,-1.89756,177.891,5.625,-145.261,1540
1569923775,384.646,15.4037,-1.89756,177.891,5.625,-145.261,1540
1569923775,384.646,15.4037,-1.89756,177.891,5.625,-145.261,1536
1569923775,384.646,15.5153,-1.89756,177.891,5.625,-145.261,1536
1569923775,384.646,15.5153,-1.89756,177.891,5.625,-145.261,1536
1569923775,384.646,15.5153,-1.89756,177.891,5.625,-145.261,1536
1569923775,384.646,15.5153,-1.89756,177.891,5.625,-145.261,1536
1569923775,384.646,15.5153,-1.89756,177.891,5.625,-145.261,1532
1569923775,384.646,15.5153,-1.89756,177.891,5.625,-145.261,1532
1569923775,384.646,15.5153,-1.89756,177.891,5.625,-145.261,1532
1569923775,384.646,15.5153,-1.89756,177.891,5.625,-145.261,1532
1569923775,384.646,15.5153,-1.89756,177.891,5.625,-145.261,1532
1569923775,384.646,15.5153,-1.89756,177.891,5.625,-145.261,1532
1569923775,384.646,15.5153,-1.89756,177.891,5.625,-145.261,1532
1569923775,384.646,15.4037,-1.89756,177.891,5.625,-145.261,1532
1569923775,384.646,15.4037,-1.89756,177.891,5.625,-145.261,1532
1569923775,384.646,15.4037,-1.89756,177.869,5.625,-145.261,1532
1569923775,384.646,15.4037,-1.89756,177.869,5.64697,-145.261,1532
1569923775,384.646,15.4037,-1.89756,177.869,5.64697,-145.283,1532
1569923775,384.646,15.4037,-1.89756,177.869,5.64697,-145.283,1532
1569923775,384.646,15.4037,-1.89756,177.869,5.64697,-145.283,1532
1569923775,384.646,15.4037,-1.89756,177.869,5.64697,-145.283,1532
1569923775,384.646,15.4037,-1.78594,177.869,5.64697,-145.283,1532
1569923775,384.646,15.4037,-1.78594,177.869,5.64697,-145.283,1532
1569923775,384.646,15.4037,-1.78594,177.869,5.64697,-145.283,1532
1569923775,384.646,15.4037,-1.78594,177.869,5.64697,-145.283,1528
1569923775,384.646,15.5153,-1.78594,177.891,5.64697,-145.283,1528
1569923775,384.646,15.5153,-1.78594,177.891,5.64697,-145.283,1528
1569923775,384.646,15.5153,-1.78594,177.891,5.64697,-145.283,1528
1569923775,384.646,15.5153,-1.78594,177.891,5.64697,-145.283,1528
1569923775,384.646,15.5153,-1.78594,177.891,5.64697,-145.283,1528
1569923775,384.646,15.5153,-1.78594,177.891,5.64697,-145.283,1528
1569923775,384.646,15.5153,-1.78594,177.891,5.64697,-145.283,1528
1569923775,384.646,15.5153,-1.78594,177.891,5.64697,-145.283,1528
1569923775,384.646,15.5153,-1.78594,177.891,5.64697,-145.283,1528
1569923775,384.646,15.5153,-1.78594,177.891,5.64697,-145.283,1528
1569923775,384.646,15.4037,-1.78594,177.869,5.64697,-145.283,1528
1569923775,384.646,15.4037,-1.78594,177.869,5.64697,-145.283,1524
1569923776,384.646,15.4037,-1.78594,177.869,5.64697,-145.283,1524
1569923776,384.646,15.4037,-1.78594,177.869,5.64697,-145.261,1524
1569923776,384.646,15.4037,-1.78594,177.869,5.64697,-145.261,1524
1569923776,384.646,15.4037,-1.78594,177.869,5.64697,-145.261,1524
1569923776,384.646,15.4037,-1.78594,177.869,5.64697,-145.261,1524
1569923776,384.646,15.4037,-1.78594,177.869,5.64697,-145.261,1524
1569923776,384.646,15.4037,-1.78594,177.869,5.64697,-145.261,1524
1569923776,384.646,15.4037,-1.78594,177.869,5.64697,-145.261,1524
1569923776,384.646,15.4037,-1.78594,177.869,5.64697,-145.261,1524
1569923776,384.646,15.4037,-1.78594,177.869,5.64697,-145.261,1524
1569923776,384.646,15.4037,-1.78594,177.869,5.64697,-145.261,1520
1569923776,384.646,15.4037,-1.89756,177.869,5.625,-145.239,1520
1569923776,384.646,15.4037,-1.89756,177.869,5.625,-145.239,1520
1569923776,384.646,15.4037,-1.89756,177.869,5.625,-145.239,1520
1569923776,384.646,15.4037,-1.89756,177.869,5.625,-145.239,1520
1569923776,384.646,15.4037,-1.89756,177.869,5.625,-145.239,1520
1569923776,384.646,15.4037,-1.89756,177.869,5.625,-145.261,1520
1569923776,384.646,15.4037,-1.89756,177.891,5.625,-145.261,1520
1569923776,384.646,15.4037,-1.89756,177.891,5.625,-145.261,1520
1569923776,384.646,15.4037,-1.89756,177.891,5.625,-145.261,1520
1569923776,384.646,15.4037,-1.89756,177.891,5.625,-145.261,1520
1569923776,384.535,15.4037,-1.89756,177.891,5.625,-145.261,1516
1569923776,384.535,15.5153,-1.89756,177.891,5.625,-145.261,1516
1569923776,384.535,15.5153,-1.89756,177.891,5.625,-145.261,1516
1569923776,384.535,15.5153,-1.89756,177.891,5.625,-145.261,1516
1569923776,384.535,15.5153,-1.89756,177.891,5.625,-145.261,1512
1569923776,384.535,15.5153,-1.89756,177.891,5.625,-145.261,1512
1569923776,384.535,15.5153,-1.89756,177.891,5.625,-145.261,1512
1569923776,384.535,15.5153,-1.89756,177.891,5.625,-145.239,1512
1569923776,384.535,15.5153,-1.89756,177.891,5.625,-145.239,1512
1569923776,384.646,15.5153,-1.89756,177.891,5.625,-145.239,1512
1569923776,384.646,15.5153,-1.89756,177.891,5.625,-145.239,1512
1569923776,384.646,15.5153,-1.89756,177.891,5.625,-145.239,1512
1569923776,384.646,15.5153,-1.89756,177.891,5.625,-145.239,1512
1569923776,384.646,15.5153,-1.89756,177.891,5.625,-145.239,1516
1569923776,384.646,15.5153,-1.89756,177.913,5.625,-145.239,1516
1569923776,384.646,15.5153,-1.89756,177.913,5.625,-145.239,1516
1569923776,384.646,15.5153,-1.89756,177.913,5.625,-145.239,1520
1569923776,384.646,15.5153,-1.89756,177.913,5.625,-145.239,1520
1569923776,384.646,15.5153,-1.89756,177.913,5.625,-145.239,1524
1569923776,384.646,15.5153,-1.89756,177.891,5.625,-145.239,1524
1569923776,384.646,15.5153,-1.89756,177.891,5.625,-145.239,1524
1569923776,384.646,15.5153,-1.89756,177.891,5.60303,-145.239,1528
1569923776,384.646,15.5153,-1.89756,177.891,5.60303,-145.239,1528
1569923776,384.646,15.5153,-1.89756,177.891,5.60303,-145.239,1528
1569923776,384.646,15.5153,-1.89756,177.891,5.60303,-145.239,1532
1569923776,384.646,15.5153,-1.89756,177.891,5.60303,-145.239,1532
1569923776,384.646,15.5153,-1.89756,177.891,5.60303,-145.239,1532
1569923776,384.646,15.4037,-1.89756,177.869,5.60303,-145.239,1532
1569923776,384.646,15.4037,-1.89756,177.869,5.60303,-145.239,1532
1569923776,384.646,15.4037,-1.89756,177.869,5.60303,-145.239,1536
1569923776,384.646,15.4037,-1.89756,177.869,5.60303,-145.239,1536
1569923776,384.646,15.4037,-1.89756,177.869,5.60303,-145.239,1536
1569923776,384.646,15.4037,-1.89756,177.869,5.60303,-145.239,1536
1569923776,384.758,15.4037,-1.89756,177.869,5.60303,-145.239,1536
1569923776,384.758,15.4037,-1.89756,177.869,5.60303,-145.239,1540
1569923776,384.758,15.4037,-1.89756,177.869,5.60303,-145.239,1540
1569923776,384.758,15.4037,-1.89756,177.869,5.60303,-145.239,1540
1569923776,384.758,15.4037,-1.89756,177.869,5.60303,-145.239,1540
1569923776,384.758,15.4037,-1.89756,177.869,5.60303,-145.239,1544
1569923776,384.758,15.4037,-1.89756,177.869,5.60303,-145.239,1544
1569923776,384.758,15.4037,-1.89756,177.869,5.60303,-145.239,1544
1569923776,384.758,15.4037,-1.89756,177.869,5.60303,-145.261,1544
1569923776,384.758,15.4037,-1.89756,177.869,5.60303,-145.261,1544
1569923776,384.758,15.4037,-1.89756,177.869,5.60303,-145.261,1544
1569923776,384.758,15.4037,-1.89756,177.869,5.60303,-145.261,1544
1569923776,384.758,15.4037,-1.89756,177.891,5.60303,-145.261,1548
1569923776,384.758,15.4037,-1.89756,177.891,5.60303,-145.261,1548
1569923776,384.646,15.5153,-1.89756,177.891,5.60303,-145.261,1548
1569923776,384.646,15.5153,-1.89756,177.891,5.60303,-145.261,1548
1569923776,384.646,15.5153,-1.89756,177.891,5.60303,-145.261,1548
1569923776,384.646,15.5153,-1.89756,177.891,5.60303,-145.261,1548
1569923776,384.646,15.5153,-1.89756,177.891,5.60303,-145.261,1548
1569923776,384.758,15.5153,-1.89756,177.891,5.60303,-145.261,1548
1569923776,384.758,15.5153,-1.89756,177.891,5.60303,-145.261,1548
1569923776,384.758,15.5153,-1.89756,177.891,5.60303,-145.261,1548
1569923776,384.646,15.5153,-1.89756,177.891,5.60303,-145.261,1548
1569923776,384.758,15.5153,-1.89756,177.891,5.60303,-145.261,1548
1569923776,384.758,15.5153,-1.89756,177.891,5.60303,-145.261,1548
1569923776,384.758,15.5153,-1.89756,177.891,5.60303,-145.261,1552
1569923776,384.758,15.5153,-1.89756,177.891,5.625,-145.261,1552
1569923776,384.758,15.5153,-1.89756,177.891,5.625,-145.261,1552
1569923776,384.758,15.5153,-1.89756,177.891,5.625,-145.261,1552
1569923776,384.758,15.5153,-1.89756,177.891,5.625,-145.261,1552
1569923776,384.758,15.5153,-1.89756,177.891,5.625,-145.261,1552
1569923776,384.758,15.5153,-1.89756,177.891,5.625,-145.283,1552
1569923776,384.758,15.5153,-1.89756,177.891,5.625,-145.261,1556
1569923776,384.758,15.4037,-1.89756,177.891,5.625,-145.261,1556
1569923776,384.758,15.4037,-1.89756,177.891,5.625,-145.261,1556
1569923776,384.758,15.4037,-1.89756,177.891,5.625,-145.283,1556
1569923776,384.758,15.4037,-1.78594,177.891,5.625,-145.283,1556
1569923776,384.758,15.4037,-1.78594,177.891,5.625,-145.283,1556
1569923776,384.758,15.4037,-1.78594,177.891,5.625,-145.283,1556
1569923776,384.758,15.4037,-1.78594,177.891,5.625,-145.283,1556
1569923776,384.758,15.4037,-1.78594,177.891,5.625,-145.283,1556
1569923776,384.758,15.4037,-1.78594,177.891,5.625,-145.283,1556
1569923776,384.758,15.4037,-1.78594,177.891,5.625,-145.283,1556
1569923776,384.758,15.5153,-1.78594,177.891,5.625,-145.283,1556
1569923776,384.758,15.5153,-1.78594,177.891,5.625,-145.283,1556
1569923776,384.758,15.5153,-1.89756,177.891,5.625,-145.283,1552
1569923777,384.646,15.5153,-1.89756,177.913,5.625,-145.283,1552
1569923777,384.646,15.5153,-1.89756,177.913,5.625,-145.283,1552
1569923777,384.646,15.5153,-1.89756,177.913,5.625,-145.283,1552
1569923777,384.646,15.5153,-1.89756,177.913,5.625,-145.283,1552
1569923777,384.646,15.5153,-1.89756,177.913,5.625,-145.283,1552
1569923777,384.646,15.5153,-1.89756,177.913,5.625,-145.283,1548
1569923777,384.646,15.5153,-1.89756,177.913,5.625,-145.261,1548
1569923777,384.646,15.5153,-1.89756,177.913,5.625,-145.261,1548
1569923777,384.646,15.5153,-1.89756,177.913,5.60303,-145.261,1548
1569923777,384.646,15.5153,-1.89756,177.913,5.60303,-145.261,1548
1569923777,384.646,15.5153,-1.89756,177.913,5.60303,-145.261,1544
1569923777,384.646,15.5153,-1.89756,177.913,5.60303,-145.261,1544
1569923777,384.646,15.5153,-1.89756,177.913,5.60303,-145.261,1544
1569923777,384.646,15.5153,-2.00918,177.913,5.60303,-145.261,1544
1569923777,384.646,15.5153,-2.00918,177.913,5.60303,-145.261,1544
1569923777,384.646,15.5153,-2.00918,177.913,5.60303,-145.261,1540
1569923777,384.646,15.5153,-2.00918,177.913,5.60303,-145.261,1540
1569923777,384.646,15.5153,-2.00918,177.913,5.60303,-145.261,1540
1569923777,384.646,15.5153,-2.00918,177.913,5.60303,-145.261,1540
1569923777,384.646,15.5153,-2.00918,177.913,5.60303,-145.261,1540
1569923777,384.646,15.5153,-2.00918,177.913,5.60303,-145.261,1536
1569923777,384.646,15.5153,-2.00918,177.913,5.60303,-145.261,1536
1569923777,384.646,15.5153,-2.00918,177.913,5.60303,-145.261,1536
1569923777,384.646,15.5153,-2.00918,177.913,5.60303,-145.261,1536
1569923777,384.646,15.5153,-2.00918,177.913,5.60303,-145.261,1536
1569923777,384.646,15.5153,-2.00918,177.913,5.60303,-145.261,1536
1569923777,384.646,15.5153,-2.00918,177.913,5.60303,-145.261,1536
1569923777,384.646,15.5153,-1.89756,177.913,5.60303,-145.261,1536
1569923777,384.646,15.5153,-1.89756,177.891,5.60303,-145.261,1536
1569923777,384.646,15.5153,-1.89756,177.891,5.60303,-145.261,1536
1569923777,384.646,15.5153,-1.89756,177.891,5.60303,-145.261,1536
1569923777,384.646,15.5153,-1.89756,177.913,5.60303,-145.261,1536
1569923777,384.646,15.5153,-1.89756,177.913,5.625,-145.261,1536
1569923777,384.646,15.5153,-1.89756,177.913,5.625,-145.261,1536
1569923777,384.646,15.5153,-1.89756,177.913,5.625,-145.261,1536
1569923777,384.646,15.5153,-1.89756,177.913,5.625,-145.261,1536
1569923777,384.646,15.5153,-1.89756,177.913,5.625,-145.261,1536
1569923777,384.646,15.5153,-1.89756,177.913,5.625,-145.261,1536
1569923777,384.646,15.5153,-1.89756,177.913,5.625,-145.261,1536
1569923777,384.646,15.5153,-1.89756,177.913,5.60303,-145.261,1536
1569923777,384.646,15.5153,-1.89756,177.913,5.60303,-145.261,1536
1569923777,384.646,15.5153,-1.89756,177.913,5.60303,-145.261,1536
1569923777,384.646,15.5153,-2.00918,177.913,5.60303,-145.261,1536
1569923777,384.646,15.5153,-2.00918,177.913,5.60303,-145.261,1536
1569923777,384.646,15.5153,-2.00918,177.913,5.60303,-145.261,1536
1569923777,384.646,15.5153,-2.00918,177.891,5.60303,-145.261,1536
1569923777,384.646,15.5153,-2.00918,177.891,5.60303,-145.261,1536
1569923777,384.646,15.5153,-2.00918,177.891,5.60303,-145.261,1536
1569923777,384.646,15.5153,-2.00918,177.891,5.60303,-145.261,1536
1569923777,384.646,15.5153,-2.00918,177.891,5.60303,-145.261,1536
1569923777,384.646,15.4037,-2.00918,177.891,5.60303,-145.261,1540
1569923777,384.646,15.4037,-2.00918,177.891,5.60303,-145.261,1540
1569923777,384.646,15.4037,-2.00918,177.891,5.60303,-145.261,1540
1569923777,384.646,15.4037,-2.00918,177.891,5.60303,-145.261,1540
1569923777,384.646,15.5153,-2.00918,177.891,5.60303,-145.261,1540
1569923777,384.646,15.5153,-2.00918,177.891,5.60303,-145.261,1540
1569923777,384.646,15.5153,-2.00918,177.891,5.60303,-145.261,1540
1569923777,384.646,15.5153,-2.00918,177.891,5.60303,-145.261,1540
1569923777,384.646,15.4037,-2.00918,177.891,5.60303,-145.261,1540
1569923777,384.646,15.4037,-2.00918,177.891,5.60303,-145.283,1540
1569923777,384.646,15.4037,-2.00918,177.891,5.60303,-145.283,1540
1569923777,384.646,15.4037,-2.00918,177.891,5.60303,-145.283,1540
1569923777,384.646,15.4037,-2.00918,177.891,5.60303,-145.283,1540
1569923777,384.646,15.4037,-2.00918,177.869,5.60303,-145.283,1540
1569923777,384.758,15.4037,-2.00918,177.869,5.60303,-145.283,1540
1569923777,384.758,15.4037,-2.00918,177.869,5.60303,-145.283,1540
1569923777,384.758,15.4037,-2.00918,177.869,5.60303,-145.283,1540
1569923777,384.758,15.4037,-2.00918,177.869,5.60303,-145.283,1544
1569923777,384.758,15.4037,-2.00918,177.891,5.60303,-145.283,1544
1569923777,384.758,15.5153,-2.00918,177.891,5.60303,-145.283,1544
1569923777,384.758,15.5153,-2.00918,177.891,5.60303,-145.261,1544
1569923777,384.758,15.5153,-2.00918,177.891,5.60303,-145.261,1544
1569923777,384.758,15.5153,-2.00918,177.891,5.60303,-145.261,1544
1569923777,384.758,15.5153,-2.00918,177.891,5.60303,-145.261,1544
1569923777,384.758,15.5153,-2.00918,177.891,5.60303,-145.261,1544
1569923777,384.758,15.5153,-2.00918,177.891,5.60303,-145.261,1544
1569923777,384.758,15.5153,-2.00918,177.891,5.60303,-145.261,1544
1569923777,384.758,15.5153,-2.00918,177.891,5.60303,-145.261,1544
1569923777,384.758,15.5153,-2.00918,177.891,5.60303,-145.261,1540
1569923777,384.758,15.5153,-2.00918,177.891,5.60303,-145.261,1540
1569923777,384.758,15.5153,-2.00918,177.891,5.60303,-145.261,1540
1569923777,384.758,15.5153,-2.00918,177.891,5.60303,-145.261,1540
1569923777,384.758,15.5153,-2.00918,177.891,5.60303,-145.261,1540
1569923777,384.758,15.4037,-2.00918,177.891,5.60303,-145.261,1540
1569923777,384.758,15.4037,-2.00918,177.891,5.60303,-145.261,1540
1569923777,384.758,15.4037,-2.00918,177.891,5.60303,-145.239,1540
1569923777,384.758,15.4037,-2.00918,177.891,5.60303,-145.239,1540
1569923777,384.758,15.4037,-2.00918,177.891,5.60303,-145.239,1540
1569923777,384.758,15.4037,-2.00918,177.891,5.60303,-145.261,1540
1569923777,384.758,15.4037,-2.00918,177.891,5.60303,-145.261,1540
1569923777,384.758,15.4037,-2.00918,177.891,5.60303,-145.261,1540
1569923777,384.758,15.4037,-2.00918,177.891,5.60303,-145.261,1540
1569923777,384.758,15.4037,-2.00918,177.891,5.60303,-145.261,1540
1569923777,384.758,15.4037,-2.00918,177.891,5.60303,-145.261,1540
1569923777,384.646,15.4037,-2.00918,177.891,5.60303,-145.261,1540
1569923777,384.646,15.4037,-2.00918,177.891,5.60303,-145.261,1540
1569923777,384.646,15.4037,-1.89756,177.891,5.60303,-145.261,1540
1569923777,384.646,15.5153,-1.89756,177.891,5.625,-145.261,1540
1569923777,384.646,15.5153,-1.89756,177.891,5.625,-145.261,1540
1569923778,384.646,15.5153,-1.89756,177.891,5.625,-145.261,1540
1569923778,384.646,15.5153,-1.89756,177.891,5.625,-145.261,1540
1569923778,384.646,15.5153,-1.89756,177.891,5.625,-145.261,1540
1569923778,384.646,15.5153,-1.89756,177.891,5.625,-145.261,1540
1569923778,384.646,15.5153,-1.89756,177.891,5.625,-145.261,1540
1569923778,384.646,15.5153,-1.89756,177.891,5.625,-145.261,1540
1569923778,384.646,15.5153,-1.89756,177.891,5.625,-145.261,1540
1569923778,384.646,15.4037,-1.89756,177.891,5.625,-145.261,1540
1569923778,384.646,15.4037,-1.89756,177.891,5.625,-145.261,1536
1569923778,384.646,15.4037,-1.89756,177.891,5.625,-145.261,1536
1569923778,384.758,15.4037,-1.89756,177.891,5.625,-145.261,1536
1569923778,384.646,15.4037,-1.89756,177.891,5.625,-145.261,1536
1569923778,384.646,15.4037,-1.89756,177.891,5.625,-145.261,1536
1569923778,384.646,15.4037,-1.89756,177.891,5.625,-145.261,1536
1569923778,384.646,15.4037,-1.89756,177.891,5.625,-145.261,1536
1569923778,384.646,15.4037,-1.89756,177.891,5.625,-145.283,1536
1569923778,384.646,15.4037,-1.89756,177.891,5.625,-145.283,1536
1569923778,384.646,15.4037,-1.89756,177.891,5.625,-145.283,1536
1569923778,384.646,15.4037,-1.89756,177.891,5.625,-145.283,1536
1569923778,384.646,15.5153,-1.89756,177.891,5.625,-145.283,1536
1569923778,384.646,15.5153,-1.89756,177.891,5.625,-145.283,1536
1569923778,384.646,15.5153,-1.89756,177.891,5.64697,-145.283,1536
1569923778,384.646,15.5153,-1.89756,177.891,5.625,-145.283,1536
1569923778,384.646,15.5153,-1.89756,177.913,5.625,-145.283,1536
1569923778,384.646,15.5153,-1.89756,177.913,5.625,-145.283,1536
1569923778,384.646,15.5153,-1.89756,177.913,5.625,-145.283,1536
1569923778,384.646,15.5153,-1.89756,177.913,5.625,-145.283,1536
1569923778,384.646,15.5153,-1.89756,177.913,5.625,-145.283,1540
1569923778,384.646,15.5153,-1.89756,177.913,5.625,-145.283,1540
1569923778,384.646,15.5153,-1.89756,177.913,5.625,-145.283,1540
1569923778,384.646,15.5153,-1.89756,177.913,5.625,-145.283,1540
1569923778,384.646,15.5153,-1.89756,177.913,5.625,-145.283,1540
1569923778,384.646,15.5153,-1.89756,177.913,5.625,-145.283,1540
1569923778,384.758,15.5153,-1.89756,177.913,5.625,-145.261,1540
1569923778,384.758,15.5153,-1.89756,177.913,5.625,-145.261,1540
1569923778,384.758,15.5153,-1.89756,177.913,5.625,-145.261,1544
1569923778,384.758,15.5153,-1.89756,177.913,5.625,-145.261,1544
1569923778,384.758,15.5153,-1.89756,177.913,5.625,-145.261,1544
1569923778,384.758,15.5153,-1.89756,177.913,5.625,-145.283,1544
1569923778,384.758,15.5153,-1.89756,177.913,5.625,-145.283,1544
1569923778,384.758,15.5153,-1.89756,177.913,5.625,-145.283,1544
1569923778,384.758,15.5153,-1.89756,177.891,5.625,-145.283,1548
1569923778,384.758,15.5153,-1.89756,177.891,5.625,-145.283,1548
1569923778,384.758,15.5153,-1.89756,177.891,5.625,-145.283,1548
1569923778,384.758,15.5153,-1.89756,177.891,5.625,-145.283,1548
1569923778,384.758,15.5153,-1.89756,177.891,5.625,-145.283,1548
1569923778,384.758,15.4037,-1.89756,177.891,5.625,-145.283,1548
1569923778,384.758,15.4037,-1.89756,177.891,5.625,-145.283,1548
1569923778,384.758,15.4037,-1.89756,177.891,5.625,-145.283,1548
1569923778,384.758,15.4037,-1.89756,177.891,5.60303,-145.283,1548
1569923778,384.758,15.4037,-2.00918,177.891,5.60303,-145.283,1548
1569923778,384.758,15.4037,-2.00918,177.891,5.60303,-145.283,1548
1569923789,368.796,31.5888,-1.5627,177.671,6.1084,-145.876,1392
1569923789,368.796,31.5888,-1.5627,177.671,6.1084,-145.876,1392
1569923789,368.796,31.5888,-1.5627,177.671,6.1084,-145.876,1392
1569923789,368.796,31.5888,-1.5627,177.671,6.1084,-145.876,1392
1569923789,368.796,31.5888,-1.5627,177.671,6.1084,-145.876,1392
1569923789,368.796,31.5888,-1.5627,177.671,6.1084,-145.876,1392
1569923789,368.796,31.5888,-1.5627,177.649,6.1084,-145.876,1392
1569923789,368.796,31.5888,-1.5627,177.649,6.1084,-145.876,1392
1569923789,368.796,31.5888,-1.5627,177.649,6.1084,-145.876,1392
1569923789,368.796,31.5888,-1.5627,177.649,6.1084,-145.876,1392
1569923789,368.796,31.5888,-1.5627,177.649,6.1084,-145.876,1392
1569923789,368.796,31.5888,-1.5627,177.649,6.1084,-145.876,1392
1569923789,368.796,31.5888,-1.5627,177.649,6.1084,-145.876,1392
1569923789,368.796,31.5888,-1.5627,177.649,6.1084,-145.876,1392
1569923789,368.796,31.5888,-1.5627,177.649,6.1084,-145.876,1392
1569923789,368.796,31.5888,-1.5627,177.649,6.1084,-145.876,1392
1569923789,368.796,31.5888,-1.5627,177.649,6.1084,-145.876,1392
1569923789,368.796,31.5888,-1.5627,177.649,6.1084,-145.876,1392
1569923790,368.796,31.5888,-1.5627,177.649,6.1084,-145.876,1392
1569923790,368.796,31.5888,-1.5627,177.649,6.1084,-145.876,1392
1569923790,368.796,31.5888,-1.5627,177.649,6.1084,-145.898,1392
1569923790,368.796,31.5888,-1.5627,177.649,6.1084,-145.898,1392
1569923790,368.796,31.5888,-1.5627,177.649,6.1084,-145.898,1388
1569923790,368.796,31.5888,-1.5627,177.649,6.1084,-145.898,1388
1569923790,368.796,31.5888,-1.5627,177.649,6.1084,-145.898,1388
1569923790,368.796,31.5888,-1.5627,177.649,6.1084,-145.898,1388
1569923790,368.796,31.5888,-1.5627,177.649,6.1084,-145.898,1388
1569923790,368.796,31.5888,-1.5627,177.649,6.1084,-145.898,1388
1569923790,368.796,31.5888,-1.5627,177.649,6.1084,-145.898,1388
1569923790,368.796,31.5888,-1.5627,177.649,6.1084,-145.898,1388
1569923790,368.796,31.5888,-1.5627,177.649,6.1084,-145.898,1388
1569923790,368.796,31.5888,-1.5627,177.649,6.1084,-145.898,1392
1569923790,368.796,31.5888,-1.5627,177.649,6.1084,-145.898,1392
1569923790,368.796,31.5888,-1.5627,177.649,6.1084,-145.898,1392
1569923790,368.796,31.5888,-1.5627,177.649,6.1084,-145.898,1392
1569923790,368.796,31.5888,-1.5627,177.649,6.13037,-145.898,1392
1569923790,368.796,31.5888,-1.5627,177.649,6.13037,-145.876,1392
1569923790,368.796,31.5888,-1.5627,177.649,6.13037,-145.876,1392
1569923790,368.796,31.5888,-1.5627,177.649,6.13037,-145.876,1392
1569923790,368.796,31.5888,-1.5627,177.649,6.13037,-145.876,1392
1569923790,368.796,31.5888,-1.5627,177.649,6.13037,-145.876,1392
1569923790,368.796,31.5888,-1.5627,177.649,6.13037,-145.876,1392
1569923790,368.796,31.5888,-1.5627,177.649,6.13037,-145.876,1392
1569923790,368.796,31.5888,-1.5627,177.649,6.1084,-145.876,1392
1569923790,368.796,31.5888,-1.5627,177.649,6.1084,-145.876,1392
1569923790,368.796,31.5888,-1.5627,177.649,6.1084,-145.876,1392
1569923790,368.796,31.5888,-1.5627,177.649,6.1084,-145.876,1392
1569923790,368.796,31.5888,-1.5627,177.649,6.1084,-145.876,1392
1569923790,368.796,31.5888,-1.5627,177.649,6.1084,-145.876,1396
1569923790,368.796,31.5888,-1.5627,177.649,6.1084,-145.876,1396
1569923790,368.796,31.5888,-1.5627,177.649,6.1084,-145.876,1396
1569923790,368.796,31.5888,-1.5627,177.649,6.1084,-145.876,1396
1569923790,368.908,31.5888,-1.5627,177.649,6.1084,-145.876,1396
1569923790,368.908,31.5888,-1.5627,177.649,6.1084,-145.876,1396
1569923790,368.908,31.5888,-1.5627,177.649,6.1084,-145.876,1396
1569923790,368.908,31.5888,-1.5627,177.649,6.1084,-145.876,1396
1569923790,368.908,31.5888,-1.5627,177.649,6.1084,-145.876,1396
1569923790,368.908,31.5888,-1.5627,177.649,6.1084,-145.876,1396
1569923790,368.908,31.5888,-1.5627,177.649,6.1084,-145.876,1396
1569923790,368.908,31.5888,-1.5627,177.649,6.1084,-145.876,1396
1569923790,368.796,31.5888,-1.5627,177.649,6.1084,-145.876,1396
1569923790,368.796,31.5888,-1.5627,177.649,6.1084,-145.876,1396
1569923790,368.796,31.5888,-1.5627,177.649,6.1084,-145.876,1396
1569923790,368.796,31.5888,-1.5627,177.649,6.1084,-145.876,1396
1569923790,368.796,31.5888,-1.5627,177.649,6.1084,-145.876,1396
1569923790,368.908,31.5888,-1.5627,177.649,6.1084,-145.876,1396
1569923790,368.908,31.5888,-1.5627,177.649,6.1084,-145.876,1396
1569923790,368.908,31.5888,-1.5627,177.649,6.1084,-145.876,1396
1569923790,368.908,31.5888,-1.5627,177.649,6.1084,-145.876,1396
1569923790,368.908,31.5888,-1.5627,177.649,6.1084,-145.876,1396
1569923790,368.908,31.5888,-1.5627,177.649,6.08643,-145.876,1396
1569923790,368.908,31.5888,-1.5627,177.649,6.08643,-145.876,1396
1569923790,368.908,31.5888,-1.5627,177.649,6.08643,-145.876,1396
1569923790,368.908,31.5888,-1.67432,177.649,6.08643,-145.876,1396
1569923790,368.908,31.5888,-1.67432,177.649,6.08643,-145.876,1396
1569923790,368.908,31.5888,-1.67432,177.649,6.08643,-145.876,1396
1569923790,368.908,31.5888,-1.67432,177.649,6.08643,-145.876,1396
1569923790,368.908,31.5888,-1.67432,177.649,6.08643,-145.876,1396
1569923790,368.796,31.5888,-1.67432,177.649,6.08643,-145.876,1396
1569923790,368.796,31.5888,-1.5627,177.627,6.08643,-145.876,1396
1569923790,368.796,31.5888,-1.5627,177.627,6.08643,-145.876,1396
1569923790,368.796,31.5888,-1.5627,177.627,6.1084,-145.876,1396
1569923790,368.796,31.5888,-1.5627,177.627,6.1084,-145.876,1396
1569923790,368.796,31.5888,-1.5627,177.627,6.1084,-145.876,1396
1569923790,368.796,31.5888,-1.5627,177.649,6.1084,-145.876,1396
1569923790,368.796,31.5888,-1.5627,177.649,6.1084,-145.876,1396
1569923790,368.796,31.5888,-1.5627,177.649,6.1084,-145.876,1396
1569923790,368.796,31.5888,-1.5627,177.649,6.1084,-145.876,1396
1569923790,368.796,31.5888,-1.5627,177.649,6.1084,-145.876,1396
1569923790,368.796,31.5888,-1.5627,177.649,6.1084,-145.876,1396
1569923790,368.796,31.5888,-1.5627,177.649,6.1084,-145.876,1396
1569923790,368.796,31.5888,-1.5627,177.649,6.1084,-145.898,1396
1569923790,368.796,31.5888,-1.5627,177.649,6.1084,-145.898,1396
1569923790,368.796,31.5888,-1.5627,177.649,6.1084,-145.898,1396
1569923790,368.796,31.5888,-1.5627,177.649,6.1084,-145.876,1396
1569923790,368.796,31.5888,-1.5627,177.649,6.1084,-145.876,1396
1569923790,368.796,31.5888,-1.5627,177.649,6.1084,-145.876,1396
1569923790,368.796,31.5888,-1.5627,177.649,6.1084,-145.876,1396
1569923790,368.796,31.5888,-1.5627,177.649,6.1084,-145.876,1396
1569923790,368.796,31.5888,-1.5627,177.649,6.1084,-145.876,1396
1569923790,368.796,31.5888,-1.5627,177.649,6.1084,-145.876,1396
1569923790,368.796,31.5888,-1.5627,177.649,6.1084,-145.876,1396
1569923790,368.796,31.5888,-1.5627,177.649,6.1084,-145.876,1396
1569923790,368.796,31.5888,-1.5627,177.649,6.1084,-145.876,1396
1569923790,368.796,31.5888,-1.5627,177.649,6.1084,-145.876,1396
1569923790,368.796,31.5888,-1.5627,177.649,6.1084,-145.876,1396
1569923790,368.796,31.5888,-1.5627,177.649,6.1084,-145.876,1396
1569923790,368.796,31.5888,-1.5627,177.649,6.1084,-145.876,1396
1569923790,368.796,31.5888,-1.5627,177.649,6.1084,-145.876,1396
1569923790,368.796,31.5888,-1.5627,177.649,6.08643,-145.876,1396
1569923790,368.796,31.5888,-1.5627,177.649,6.08643,-145.876,1396
1569923790,368.796,31.5888,-1.5627,177.649,6.08643,-145.876,1396
1569923790,368.796,31.5888,-1.5627,177.649,6.08643,-145.876,1396
1569923790,368.796,31.5888,-1.5627,177.627,6.08643,-145.876,1396
1569923790,368.796,31.5888,-1.5627,177.627,6.08643,-145.876,1396
1569923790,368.796,31.4771,-1.5627,177.627,6.08643,-145.876,1396
1569923790,368.796,31.4771,-1.5627,177.627,6.1084,-145.876,1396
1569923790,368.796,31.4771,-1.5627,177.627,6.1084,-145.876,1396
1569923791,368.796,31.4771,-1.5627,177.627,6.1084,-145.876,1396
1569923791,368.796,31.4771,-1.5627,177.627,6.1084,-145.876,1396
1569923791,368.796,31.4771,-1.5627,177.627,6.1084,-145.876,1396
1569923791,368.796,31.4771,-1.5627,177.627,6.1084,-145.876,1396
1569923791,368.796,31.4771,-1.5627,177.627,6.1084,-145.876,1396
1569923791,368.796,31.4771,-1.5627,177.627,6.1084,-145.876,1396
1569923791,368.796,31.4771,-1.5627,177.627,6.1084,-145.876,1396
1569923791,368.796,31.4771,-1.5627,177.627,6.1084,-145.854,1396
1569923791,368.796,31.4771,-1.5627,177.627,6.1084,-145.854,1396
1569923791,368.796,31.5888,-1.5627,177.627,6.1084,-145.854,1396
1569923791,368.796,31.5888,-1.5627,177.649,6.1084,-145.854,1396
1569923791,368.796,31.5888,-1.5627,177.649,6.1084,-145.854,1396
1569923791,368.796,31.5888,-1.5627,177.649,6.1084,-145.854,1396
1569923791,368.796,31.5888,-1.5627,177.649,6.1084,-145.854,1392
1569923791,368.796,31.5888,-1.5627,177.649,6.1084,-145.854,1392
1569923791,368.796,31.5888,-1.5627,177.649,6.1084,-145.854,1392
1569923791,368.796,31.5888,-1.5627,177.649,6.1084,-145.854,1392
1569923791,368.796,31.5888,-1.5627,177.649,6.1084,-145.854,1392
1569923791,368.796,31.5888,-1.5627,177.649,6.1084,-145.854,1396
1569923791,368.796,31.5888,-1.5627,177.649,6.1084,-145.854,1396
1569923791,368.796,31.5888,-1.5627,177.649,6.1084,-145.854,1396
1569923791,368.796,31.5888,-1.5627,177.649,6.1084,-145.854,1396
1569923791,368.796,31.5888,-1.5627,177.649,6.1084,-145.854,1396
1569923791,368.796,31.5888,-1.5627,177.649,6.1084,-145.854,1396
1569923791,368.796,31.5888,-1.5627,177.649,6.1084,-145.854,1396
1569923791,368.796,31.4771,-1.5627,177.649,6.1084,-145.854,1396
1569923791,368.684,31.4771,-1.5627,177.627,6.1084,-145.854,1396
1569923791,368.684,31.4771,-1.5627,177.627,6.1084,-145.854,1396
1569923791,368.684,31.4771,-1.5627,177.627,6.1084,-145.854,1396
1569923791,368.684,31.4771,-1.5627,177.627,6.1084,-145.854,1396
1569923791,368.684,31.4771,-1.5627,177.627,6.1084,-145.854,1392
1569923791,368.684,31.4771,-1.5627,177.627,6.1084,-145.854,1392
1569923791,368.684,31.4771,-1.5627,177.627,6.1084,-145.854,1392
1569923791,368.684,31.4771,-1.5627,177.627,6.1084,-145.854,1392
1569923791,368.684,31.4771,-1.5627,177.627,6.1084,-145.854,1392
1569923791,368.684,31.4771,-1.5627,177.627,6.1084,-145.854,1392
1569923791,368.684,31.4771,-1.5627,177.649,6.1084,-145.854,1392
1569923791,368.796,31.5888,-1.5627,177.649,6.1084,-145.854,1392
1569923791,368.796,31.5888,-1.5627,177.649,6.1084,-145.854,1392
1569923791,368.796,31.5888,-1.5627,177.649,6.1084,-145.854,1392
1569923791,368.796,31.5888,-1.5627,177.649,6.1084,-145.854,1392
1569923791,368.796,31.5888,-1.5627,177.649,6.1084,-145.854,1392
1569923791,368.796,31.5888,-1.5627,177.649,6.1084,-145.854,1392
1569923791,368.796,31.5888,-1.5627,177.649,6.1084,-145.854,1392
1569923791,368.796,31.5888,-1.5627,177.649,6.1084,-145.854,1392
1569923791,368.796,31.5888,-1.5627,177.649,6.1084,-145.854,1392
1569923791,368.796,31.5888,-1.5627,177.649,6.1084,-145.854,1392
1569923791,368.796,31.5888,-1.5627,177.649,6.1084,-145.854,1392
1569923791,368.796,31.5888,-1.5627,177.649,6.1084,-145.854,1392
1569923791,368.796,31.5888,-1.5627,177.649,6.1084,-145.854,1392
1569923791,368.796,31.5888,-1.5627,177.649,6.1084,-145.854,1392
1569923791,368.796,31.5888,-1.5627,177.649,6.1084,-145.854,1388
1569923791,368.796,31.5888,-1.5627,177.649,6.1084,-145.854,1388
1569923791,368.796,31.5888,-1.5627,177.627,6.1084,-145.854,1388
1569923791,368.796,31.4771,-1.5627,177.627,6.1084,-145.854,1388
1569923791,368.796,31.4771,-1.5627,177.627,6.1084,-145.854,1392
1569923791,368.796,31.4771,-1.5627,177.627,6.1084,-145.854,1392
1569923791,368.796,31.4771,-1.5627,177.627,6.1084,-145.854,1392
1569923791,368.796,31.4771,-1.5627,177.627,6.1084,-145.854,1392
1569923791,368.796,31.4771,-1.5627,177.627,6.1084,-145.854,1392
1569923791,368.796,31.4771,-1.5627,177.627,6.1084,-145.854,1396
1569923791,368.796,31.4771,-1.5627,177.627,6.1084,-145.854,1396
1569923791,368.796,31.4771,-1.5627,177.627,6.13037,-145.854,1396
1569923791,368.796,31.4771,-1.5627,177.627,6.13037,-145.854,1396
1569923791,368.908,31.4771,-1.5627,177.627,6.13037,-145.854,1396
1569923791,368.908,31.4771,-1.5627,177.627,6.1084,-145.854,1400
1569923791,368.908,31.4771,-1.5627,177.627,6.1084,-145.854,1400
1569923791,368.796,31.5888,-1.5627,177.627,6.1084,-145.854,1400
1569923791,368.796,31.5888,-1.5627,177.649,6.1084,-145.876,1400
1569923791,368.796,31.5888,-1.5627,177.649,6.1084,-145.876,1400
1569923791,368.796,31.5888,-1.5627,177.649,6.1084,-145.876,1400
1569923791,368.796,31.5888,-1.5627,177.649,6.1084,-145.876,1404
1569923791,368.796,31.5888,-1.5627,177.649,6.1084,-145.876,1404
1569923791,368.796,31.5888,-1.5627,177.649,6.1084,-145.876,1404
1569923791,368.796,31.5888,-1.5627,177.649,6.1084,-145.876,1404
1569923791,368.796,31.5888,-1.5627,177.649,6.1084,-145.876,1404
1569923791,368.796,31.5888,-1.5627,177.649,6.1084,-145.876,1404
1569923791,368.796,31.5888,-1.5627,177.649,6.1084,-145.876,1404
1569923791,368.796,31.4771,-1.67432,177.649,6.1084,-145.876,1404
1569923791,368.796,31.4771,-1.67432,177.649,6.1084,-145.876,1404
1569923791,368.796,31.4771,-1.67432,177.649,6.1084,-145.876,1404
1569923791,368.796,31.4771,-1.67432,177.649,6.1084,-145.876,1404
1569923791,368.796,31.4771,-1.67432,177.649,6.1084,-145.876,1404
1569923791,368.796,31.4771,-1.5627,177.649,6.1084,-145.876,1400
1569923791,368.796,31.4771,-1.5627,177.649,6.1084,-145.876,1400
1569923791,368.796,31.4771,-1.5627,177.627,6.1084,-145.876,1400
1569923791,368.796,31.4771,-1.5627,177.627,6.1084,-145.876,1400
1569923791,368.796,31.5888,-1.5627,177.627,6.1084,-145.876,1400
1569923791,368.908,31.5888,-1.5627,177.627,6.1084,-145.876,1400
1569923791,368.908,31.5888,-1.5627,177.627,6.1084,-145.876,1400
1569923791,368.908,31.5888,-1.5627,177.627,6.1084,-145.876,1404
1569923791,368.908,31.5888,-1.5627,177.627,6.1084,-145.876,1404
1569923791,368.908,31.5888,-1.67432,177.649,6.1084,-145.876,1404
1569923791,368.908,31.5888,-1.67432,177.649,6.1084,-145.876,1404
1569923791,368.908,31.5888,-1.67432,177.649,6.1084,-145.876,1404
1569923791,368.908,31.5888,-1.67432,177.649,6.1084,-145.876,1404
1569923791,368.908,31.5888,-1.67432,177.649,6.1084,-145.876,1404
1569923791,368.908,31.5888,-1.67432,177.649,6.1084,-145.876,1404
1569923791,368.908,31.5888,-1.67432,177.649,6.1084,-145.898,1404
1569923791,368.908,31.5888,-1.67432,177.649,6.1084,-145.898,1404
1569923792,368.908,31.5888,-1.67432,177.649,6.1084,-145.898,1404
1569923792,368.908,31.5888,-1.67432,177.649,6.08643,-145.898,1404
1569923792,368.908,31.5888,-1.67432,177.649,6.08643,-145.898,1404
1569923792,368.908,31.5888,-1.67432,177.649,6.08643,-145.898,1404
1569923792,368.908,31.7004,-1.67432,177.671,6.08643,-145.898,1404
1569923792,368.796,31.7004,-1.67432,177.671,6.08643,-145.898,1404
1569923792,368.796,31.7004,-1.67432,177.649,6.08643,-145.898,1404
1569923792,368.796,31.5888,-1.67432,177.649,6.08643,-145.898,1404
1569923792,368.796,31.5888,-1.67432,177.649,6.08643,-145.898,1404
1569923792,368.796,31.5888,-1.67432,177.649,6.08643,-145.898,1404
1569923792,368.796,31.5888,-1.67432,177.649,6.08643,-145.898,1404
1569923792,368.796,31.5888,-1.67432,177.649,6.1084,-145.898,1404
1569923792,368.796,31.5888,-1.67432,177.649,6.1084,-145.898,1404
1569923792,368.796,31.5888,-1.5627,177.649,6.1084,-145.898,1404
1569923792,368.796,31.5888,-1.5627,177.649,6.1084,-145.898,1404
1569923792,368.796,31.5888,-1.5627,177.649,6.1084,-145.898,1404
1569923792,368.796,31.5888,-1.5627,177.649,6.1084,-145.898,1404
1569923792,368.796,31.5888,-1.5627,177.649,6.1084,-145.898,1404
1569923792,368.796,31.5888,-1.5627,177.649,6.1084,-145.898,1404
1569923792,368.796,31.5888,-1.5627,177.649,6.13037,-145.876,1404
1569923792,368.796,31.5888,-1.5627,177.649,6.13037,-145.876,1400
1569923792,368.796,31.5888,-1.5627,177.649,6.13037,-145.876,1400
1569923792,368.796,31.5888,-1.5627,177.649,6.13037,-145.876,1400
1569923792,368.796,31.5888,-1.5627,177.649,6.13037,-145.876,1400
1569923792,368.796,31.5888,-1.5627,177.649,6.13037,-145.876,1400
1569923792,368.796,31.5888,-1.5627,177.649,6.13037,-145.876,1400
1569923792,368.796,31.5888,-1.5627,177.649,6.13037,-145.876,1400
1569923792,368.796,31.5888,-1.5627,177.649,6.13037,-145.876,1400
1569923792,368.796,31.5888,-1.5627,177.649,6.13037,-145.876,1400
1569923792,368.796,31.5888,-1.5627,177.649,6.13037,-145.876,1400
1569923792,368.796,31.5888,-1.5627,177.649,6.13037,-145.876,1400
1569923792,368.796,31.5888,-1.5627,177.649,6.13037,-145.876,1400
1569923792,368.908,31.5888,-1.5627,177.649,6.13037,-145.898,1400
1569923792,368.908,31.5888,-1.5627,177.649,6.13037,-145.898,1400
1569923792,368.908,31.5888,-1.5627,177.649,6.13037,-145.898,1400
1569923792,368.908,31.5888,-1.5627,177.649,6.13037,-145.898,1400
1569923792,368.908,31.5888,-1.5627,177.649,6.13037,-145.898,1396
1569923792,368.908,31.5888,-1.5627,177.649,6.13037,-145.898,1396
1569923792,368.908,31.5888,-1.5627,177.649,6.13037,-145.898,1396
1569923792,368.908,31.5888,-1.5627,177.649,6.13037,-145.898,1396
1569923792,368.908,31.5888,-1.5627,177.649,6.13037,-145.898,1396
1569923792,368.908,31.5888,-1.5627,177.671,6.13037,-145.898,1396
1569923792,368.908,31.5888,-1.5627,177.649,6.13037,-145.898,1396
1569923792,368.908,31.5888,-1.5627,177.649,6.13037,-145.898,1396
1569923792,368.908,31.5888,-1.5627,177.649,6.13037,-145.898,1400
1569923792,368.908,31.5888,-1.5627,177.649,6.13037,-145.898,1400
1569923792,368.796,31.5888,-1.5627,177.649,6.1084,-145.898,1400
1569923792,368.796,31.5888,-1.5627,177.649,6.1084,-145.898,1400
1569923792,368.796,31.5888,-1.5627,177.649,6.1084,-145.898,1400
1569923792,368.796,31.5888,-1.5627,177.649,6.1084,-145.898,1400
1569923792,368.796,31.5888,-1.5627,177.649,6.1084,-145.898,1400
1569923792,368.796,31.5888,-1.5627,177.627,6.1084,-145.898,1400
1569923792,368.796,31.5888,-1.5627,177.627,6.1084,-145.898,1400
1569923792,368.796,31.4771,-1.5627,177.627,6.1084,-145.898,1404
1569923792,368.796,31.4771,-1.5627,177.627,6.1084,-145.898,1404
1569923792,368.796,31.4771,-1.5627,177.627,6.1084,-145.898,1404
1569923792,368.796,31.4771,-1.5627,177.627,6.13037,-145.898,1404
1569923792,368.908,31.4771,-1.5627,177.627,6.13037,-145.898,1404
1569923792,368.908,31.4771,-1.5627,177.627,6.13037,-145.898,1404
1569923792,368.908,31.4771,-1.5627,177.627,6.13037,-145.876,1404
1569923792,368.908,31.4771,-1.5627,177.627,6.13037,-145.876,1408
1569923792,368.908,31.4771,-1.5627,177.627,6.13037,-145.876,1408
1569923792,368.908,31.4771,-1.5627,177.627,6.13037,-145.876,1408
1569923792,368.908,31.4771,-1.5627,177.627,6.13037,-145.876,1408
1569923792,368.908,31.4771,-1.5627,177.627,6.13037,-145.876,1408
1569923792,368.908,31.4771,-1.5627,177.627,6.13037,-145.876,1408
1569923792,368.908,31.4771,-1.5627,177.627,6.1084,-145.876,1408
1569923792,368.908,31.4771,-1.5627,177.627,6.1084,-145.876,1408
1569923792,368.908,31.4771,-1.5627,177.627,6.1084,-145.876,1408
1569923792,368.908,31.4771,-1.5627,177.627,6.1084,-145.876,1404
1569923792,368.908,31.4771,-1.5627,177.627,6.1084,-145.876,1404
1569923792,368.908,31.4771,-1.5627,177.627,6.1084,-145.876,1404
1569923792,368.908,31.4771,-1.5627,177.605,6.1084,-145.876,1404
1569923792,368.796,31.4771,-1.5627,177.605,6.1084,-145.876,1404
1569923792,368.796,31.4771,-1.5627,177.627,6.1084,-145.876,1404
1569923792,368.796,31.4771,-1.5627,177.627,6.1084,-145.876,1404
1569923792,368.796,31.4771,-1.5627,177.627,6.1084,-145.876,1404
1569923792,368.796,31.4771,-1.5627,177.627,6.1084,-145.876,1404
1569923792,368.796,31.4771,-1.5627,177.627,6.1084,-145.876,1400
1569923792,368.796,31.4771,-1.5627,177.627,6.1084,-145.876,1400
1569923792,368.796,31.4771,-1.5627,177.627,6.1084,-145.876,1400
1569923792,368.796,31.4771,-1.5627,177.627,6.1084,-145.876,1400
1569923792,368.796,31.4771,-1.5627,177.627,6.1084,-145.876,1400
1569923792,368.796,31.4771,-1.5627,177.627,6.1084,-145.876,1400
1569923792,368.796,31.4771,-1.5627,177.627,6.1084,-145.876,1400
1569923792,368.796,31.4771,-1.5627,177.627,6.1084,-145.876,1396
1569923792,368.796,31.4771,-1.5627,177.627,6.1084,-145.876,1396
1569923792,368.796,31.4771,-1.5627,177.627,6.1084,-145.898,1396
1569923792,368.796,31.4771,-1.5627,177.627,6.1084,-145.898,1396
1569923792,368.796,31.4771,-1.5627,177.627,6.1084,-145.898,1396
1569923792,368.796,31.4771,-1.5627,177.627,6.1084,-145.898,1396
1569923792,368.796,31.4771,-1.5627,177.627,6.1084,-145.898,1396
1569923792,368.796,31.4771,-1.5627,177.627,6.1084,-145.898,1396
1569923792,368.796,31.4771,-1.5627,177.627,6.1084,-145.898,1400
1569923792,368.796,31.4771,-1.5627,177.627,6.1084,-145.898,1400
1569923792,368.908,31.4771,-1.5627,177.627,6.1084,-145.898,1400
1569923792,368.908,31.4771,-1.5627,177.627,6.1084,-145.898,1400
1569923792,368.908,31.4771,-1.5627,177.627,6.1084,-145.898,1400
1569923792,368.908,31.4771,-1.5627,177.627,6.1084,-145.898,1400
1569923792,368.908,31.4771,-1.5627,177.627,6.1084,-145.898,1400
1569923793,368.908,31.4771,-1.5627,177.627,6.1084,-145.898,1400
1569923793,368.908,31.4771,-1.5627,177.627,6.1084,-145.898,1400
1569923793,368.908,31.5888,-1.5627,177.627,6.1084,-145.898,1404
1569923793,368.908,31.5888,-1.5627,177.649,6.1084,-145.898,1404
1569923793,368.908,31.5888,-1.5627,177.649,6.08643,-145.898,1404
1569923793,368.908,31.5888,-1.5627,177.649,6.08643,-145.898,1404
1569923793,368.908,31.5888,-1.5627,177.649,6.08643,-145.876,1404
1569923793,368.908,31.5888,-1.5627,177.649,6.08643,-145.876,1404
1569923793,368.908,31.5888,-1.67432,177.649,6.08643,-145.876,1404
1569923793,368.908,31.5888,-1.67432,177.649,6.08643,-145.876,1404
1569923793,368.908,31.5888,-1.67432,177.649,6.08643,-145.876,1404
1569923793,368.908,31.5888,-1.67432,177.649,6.08643,-145.876,1404
1569923793,368.908,31.5888,-1.67432,177.649,6.08643,-145.876,1404
1569923793,368.908,31.5888,-1.67432,177.649,6.08643,-145.876,1404
1569923793,368.908,31.5888,-1.67432,177.649,6.08643,-145.876,1404
1569923793,368.908,31.5888,-1.67432,177.649,6.08643,-145.876,1404
1569923793,368.796,31.5888,-1.5627,177.649,6.08643,-145.876,1404
1569923793,368.796,31.5888,-1.5627,177.649,6.08643,-145.876,1404
1569923793,368.796,31.5888,-1.5627,177.649,6.08643,-145.876,1404
1569923793,368.796,31.5888,-1.5627,177.649,6.08643,-145.876,1404
1569923793,368.796,31.5888,-1.5627,177.649,6.08643,-145.876,1400
1569923793,368.796,31.5888,-1.5627,177.649,6.08643,-145.876,1400
1569923793,368.796,31.4771,-1.5627,177.627,6.1084,-145.876,1400
1569923793,368.796,31.4771,-1.5627,177.627,6.1084,-145.876,1400
1569923793,368.796,31.4771,-1.5627,177.627,6.1084,-145.876,1400
1569923793,368.796,31.4771,-1.5627,177.627,6.1084,-145.876,1400
1569923793,368.796,31.4771,-1.5627,177.627,6.1084,-145.876,1400
1569923793,368.796,31.4771,-1.5627,177.627,6.1084,-145.876,1400
1569923793,368.796,31.4771,-1.5627,177.627,6.08643,-145.876,1400
1569923793,368.796,31.4771,-1.67432,177.627,6.08643,-145.876,1400
1569923793,368.796,31.5888,-1.67432,177.627,6.08643,-145.876,1400
1569923793,368.796,31.5888,-1.67432,177.627,6.08643,-145.876,1400
1569923793,368.796,31.5888,-1.67432,177.627,6.08643,-145.876,1404
1569923793,368.796,31.5888,-1.67432,177.627,6.08643,-145.876,1400
1569923793,368.796,31.5888,-1.67432,177.627,6.08643,-145.876,1400
1569923793,368.796,31.5888,-1.67432,177.649,6.08643,-145.876,1400
1569923793,368.796,31.5888,-1.67432,177.649,6.08643,-145.876,1400
1569923793,368.796,31.5888,-1.67432,177.649,6.08643,-145.876,1400
1569923793,368.796,31.5888,-1.67432,177.649,6.1084,-145.876,1400
1569923793,368.796,31.5888,-1.5627,177.649,6.1084,-145.876,1400
1569923793,368.796,31.5888,-1.5627,177.627,6.1084,-145.876,1400
1569923793,368.796,31.5888,-1.5627,177.627,6.1084,-145.876,1400
1569923793,368.796,31.5888,-1.67432,177.627,6.1084,-145.876,1400
1569923793,368.796,31.5888,-1.67432,177.627,6.1084,-145.876,1396
1569923793,368.796,31.5888,-1.67432,177.627,6.1084,-145.876,1396
1569923793,368.796,31.5888,-1.67432,177.627,6.1084,-145.876,1396
1569923793,368.796,31.5888,-1.67432,177.627,6.1084,-145.876,1396
1569923793,368.796,31.4771,-1.67432,177.627,6.1084,-145.876,1396
1569923793,368.796,31.4771,-1.67432,177.627,6.1084,-145.876,1396
1569923793,368.796,31.4771,-1.67432,177.627,6.08643,-145.876,1396
1569923793,368.796,31.4771,-1.67432,177.627,6.08643,-145.876,1392
1569923793,368.796,31.4771,-1.67432,177.627,6.08643,-145.876,1392
1569923793,368.796,31.4771,-1.67432,177.627,6.08643,-145.876,1392
1569923793,368.796,31.4771,-1.67432,177.627,6.08643,-145.876,1392
1569923793,368.796,31.4771,-1.67432,177.627,6.08643,-145.876,1392
1569923793,368.796,31.4771,-1.67432,177.627,6.08643,-145.876,1392
1569923793,368.796,31.4771,-1.67432,177.627,6.08643,-145.876,1392
1569923793,368.796,31.4771,-1.5627,177.627,6.1084,-145.876,1388
1569923793,368.796,31.4771,-1.5627,177.627,6.1084,-145.876,1388
1569923793,368.796,31.4771,-1.5627,177.605,6.1084,-145.876,1388
1569923793,368.796,31.4771,-1.5627,177.605,6.1084,-145.876,1388
1569923793,368.796,31.4771,-1.5627,177.605,6.1084,-145.876,1388
1569923793,368.796,31.4771,-1.5627,177.605,6.1084,-145.876,1388
1569923793,368.796,31.4771,-1.5627,177.605,6.1084,-145.876,1388
1569923793,368.796,31.4771,-1.5627,177.605,6.1084,-145.876,1388
1569923793,368.796,31.4771,-1.5627,177.605,6.1084,-145.876,1388
1569923793,368.796,31.4771,-1.5627,177.605,6.1084,-145.898,1388
1569923793,368.796,31.4771,-1.5627,177.605,6.1084,-145.898,1392
1569923793,368.796,31.4771,-1.5627,177.605,6.1084,-145.898,1392
1569923793,368.796,31.4771,-1.5627,177.605,6.1084,-145.898,1392
1569923793,368.796,31.4771,-1.5627,177.605,6.1084,-145.898,1392
1569923793,368.796,31.4771,-1.5627,177.605,6.1084,-145.898,1396
1569923793,368.796,31.4771,-1.5627,177.605,6.1084,-145.898,1396
1569923793,368.796,31.4771,-1.5627,177.605,6.1084,-145.898,1396
1569923793,368.796,31.4771,-1.5627,177.605,6.1084,-145.898,1396
1569923793,368.796,31.4771,-1.5627,177.605,6.1084,-145.898,1400
1569923793,368.796,31.4771,-1.5627,177.605,6.1084,-145.898,1400
1569923793,368.796,31.4771,-1.5627,177.627,6.1084,-145.898,1400
1569923793,368.796,31.4771,-1.5627,177.627,6.1084,-145.898,1400
1569923793,368.796,31.4771,-1.5627,177.627,6.1084,-145.898,1400
1569923793,368.796,31.4771,-1.5627,177.627,6.1084,-145.898,1404
1569923793,368.796,31.4771,-1.5627,177.627,6.1084,-145.898,1404
1569923793,368.796,31.4771,-1.5627,177.627,6.1084,-145.898,1404
1569923793,368.796,31.4771,-1.5627,177.627,6.1084,-145.898,1404
1569923793,368.796,31.4771,-1.5627,177.627,6.1084,-145.898,1404
1569923793,368.796,31.4771,-1.5627,177.627,6.1084,-145.898,1404
1569923793,368.796,31.4771,-1.5627,177.627,6.1084,-145.898,1404
1569923793,368.796,31.4771,-1.5627,177.627,6.1084,-145.898,1404
1569923793,368.796,31.4771,-1.5627,177.627,6.1084,-145.898,1404
1569923793,368.796,31.4771,-1.5627,177.627,6.1084,-145.898,1404
1569923793,368.796,31.4771,-1.5627,177.627,6.1084,-145.898,1404
1569923793,368.796,31.4771,-1.5627,177.627,6.1084,-145.898,1404
1569923793,368.796,31.4771,-1.5627,177.627,6.1084,-145.898,1404
1569923793,368.796,31.4771,-1.5627,177.627,6.1084,-145.898,1404
1569923793,368.796,31.4771,-1.5627,177.627,6.1084,-145.898,1404
1569923793,368.796,31.4771,-1.5627,177.627,6.1084,-145.898,1404
1569923793,368.796,31.4771,-1.5627,177.627,6.1084,-145.898,1404
1569923793,368.796,31.4771,-1.5627,177.627,6.1084,-145.898,1404
1569923793,368.796,31.4771,-1.5627,177.627,6.1084,-145.898,1404
1569923793,368.796,31.4771,-1.5627,177.627,6.1084,-145.898,1404
1569923794,368.796,31.4771,-1.67432,177.627,6.1084,-145.898,1404
1569923794,368.796,31.4771,-1.5627,177.627,6.1084,-145.898,1404
1569923794,368.796,31.4771,-1.5627,177.627,6.1084,-145.898,1404
1569923794,368.796,31.5888,-1.5627,177.627,6.1084,-145.898,1404
1569923794,368.796,31.5888,-1.5627,177.627,6.1084,-145.898,1404
1569923794,368.796,31.5888,-1.5627,177.649,6.1084,-145.898,1404
1569923794,368.796,31.5888,-1.5627,177.649,6.1084,-145.898,1404
1569923794,368.796,31.5888,-1.5627,177.649,6.1084,-145.876,1404
1569923794,368.796,31.5888,-1.5627,177.649,6.1084,-145.876,1408
1569923794,368.796,31.5888,-1.5627,177.649,6.1084,-145.876,1408
1569923794,368.796,31.5888,-1.5627,177.649,6.1084,-145.876,1408
1569923794,368.796,31.5888,-1.5627,177.649,6.1084,-145.876,1408
1569923794,368.796,31.5888,-1.5627,177.649,6.1084,-145.876,1408
1569923794,368.796,31.5888,-1.5627,177.649,6.1084,-145.876,1408
1569923794,368.796,31.5888,-1.5627,177.649,6.1084,-145.876,1412
1569923794,368.796,31.5888,-1.5627,177.649,6.1084,-145.876,1412
1569923794,368.796,31.5888,-1.5627,177.649,6.1084,-145.876,1412
1569923794,368.796,31.5888,-1.5627,177.649,6.1084,-145.876,1412
1569923794,368.796,31.5888,-1.5627,177.649,6.1084,-145.876,1412
1569923794,368.796,31.5888,-1.5627,177.649,6.1084,-145.876,1412
1569923794,368.796,31.5888,-1.5627,177.649,6.1084,-145.876,1412
1569923794,368.796,31.5888,-1.5627,177.649,6.1084,-145.876,1412
1569923794,368.796,31.5888,-1.5627,177.627,6.1084,-145.876,1412
1569923794,368.796,31.5888,-1.5627,177.627,6.1084,-145.876,1412
1569923794,368.796,31.5888,-1.5627,177.627,6.1084,-145.876,1412
1569923794,368.796,31.5888,-1.5627,177.627,6.1084,-145.876,1416
1569923794,368.796,31.5888,-1.5627,177.627,6.1084,-145.876,1416
1569923794,368.796,31.5888,-1.5627,177.627,6.1084,-145.876,1416
1569923794,368.796,31.5888,-1.5627,177.627,6.1084,-145.898,1416
1569923794,368.796,31.5888,-1.5627,177.627,6.1084,-145.898,1416
1569923794,368.796,31.5888,-1.5627,177.627,6.1084,-145.898,1416
1569923794,368.908,31.5888,-1.5627,177.627,6.1084,-145.898,1416
1569923794,368.908,31.5888,-1.5627,177.627,6.1084,-145.898,1416
1569923794,368.908,31.5888,-1.5627,177.627,6.1084,-145.898,1416
1569923794,368.908,31.5888,-1.5627,177.627,6.1084,-145.898,1416
1569923794,368.908,31.4771,-1.5627,177.627,6.1084,-145.898,1416
1569923794,368.908,31.4771,-1.5627,177.627,6.1084,-145.898,1416
1569923794,368.908,31.4771,-1.5627,177.627,6.1084,-145.898,1416
1569923794,368.908,31.4771,-1.5627,177.627,6.1084,-145.898,1416
1569923794,368.908,31.4771,-1.5627,177.627,6.13037,-145.898,1416
1569923794,368.908,31.4771,-1.5627,177.627,6.13037,-145.898,1416
1569923794,368.908,31.4771,-1.5627,177.627,6.13037,-145.898,1416
1569923794,368.796,31.4771,-1.5627,177.627,6.13037,-145.898,1412
1569923794,368.796,31.4771,-1.5627,177.627,6.13037,-145.898,1412
1569923794,368.796,31.4771,-1.5627,177.627,6.13037,-145.898,1412
1569923794,368.796,31.4771,-1.5627,177.605,6.13037,-145.898,1412
1569923794,368.796,31.4771,-1.5627,177.605,6.13037,-145.898,1412
1569923794,368.796,31.4771,-1.5627,177.605,6.13037,-145.898,1412
1569923794,368.796,31.4771,-1.5627,177.605,6.13037,-145.898,1408
1569923794,368.796,31.4771,-1.5627,177.605,6.13037,-145.898,1408
1569923794,368.796,31.4771,-1.5627,177.627,6.13037,-145.898,1408
1569923794,368.796,31.4771,-1.5627,177.627,6.13037,-145.898,1408
1569923794,368.796,31.4771,-1.5627,177.627,6.13037,-145.876,1408
1569923794,368.796,31.4771,-1.5627,177.627,6.13037,-145.876,1404
1569923794,368.796,31.4771,-1.5627,177.627,6.13037,-145.876,1404
1569923794,368.796,31.4771,-1.5627,177.627,6.13037,-145.876,1404
1569923794,368.796,31.4771,-1.5627,177.627,6.13037,-145.876,1404
1569923794,368.796,31.4771,-1.5627,177.627,6.13037,-145.876,1400
1569923794,368.796,31.4771,-1.5627,177.627,6.13037,-145.876,1400
1569923794,368.796,31.4771,-1.5627,177.627,6.13037,-145.876,1400
1569923794,368.796,31.4771,-1.5627,177.627,6.13037,-145.876,1400
1569923794,368.796,31.4771,-1.5627,177.627,6.13037,-145.876,1400
1569923794,368.796,31.4771,-1.5627,177.627,6.13037,-145.876,1396
1569923794,368.796,31.4771,-1.5627,177.627,6.13037,-145.876,1396
1569923794,368.796,31.5888,-1.5627,177.627,6.13037,-145.876,1396
1569923794,368.796,31.5888,-1.5627,177.627,6.13037,-145.876,1396
1569923794,368.796,31.5888,-1.5627,177.627,6.13037,-145.876,1396
1569923794,368.796,31.5888,-1.5627,177.649,6.13037,-145.876,1396
1569923794,368.796,31.5888,-1.5627,177.649,6.13037,-145.876,1396
1569923794,368.796,31.5888,-1.45107,177.649,6.13037,-145.876,1400
1569923794,368.796,31.5888,-1.45107,177.649,6.13037,-145.876,1400
1569923794,368.908,31.5888,-1.45107,177.649,6.13037,-145.876,1400
1569923794,368.908,31.5888,-1.45107,177.649,6.13037,-145.876,1404
1569923794,368.908,31.5888,-1.45107,177.649,6.13037,-145.876,1404
1569923794,368.908,31.5888,-1.45107,177.649,6.13037,-145.876,1404
1569923794,368.908,31.5888,-1.45107,177.649,6.13037,-145.876,1404
1569923794,368.908,31.5888,-1.45107,177.649,6.13037,-145.854,1408
1569923794,368.908,31.5888,-1.45107,177.649,6.13037,-145.854,1408
1569923794,368.908,31.5888,-1.45107,177.649,6.13037,-145.854,1408
1569923794,368.908,31.5888,-1.45107,177.649,6.13037,-145.854,1408
1569923794,368.908,31.5888,-1.45107,177.649,6.13037,-145.854,1412
1569923794,368.908,31.5888,-1.5627,177.649,6.13037,-145.854,1412
1569923798,344.798,55.4757,-1.89756,177.297,6.02051,-146.294,1128
1569923798,344.798,55.4757,-1.89756,177.297,6.02051,-146.294,1128
1569923798,344.798,55.4757,-1.89756,177.297,6.02051,-146.294,1128
1569923798,344.798,55.4757,-1.89756,177.297,6.02051,-146.294,1128
1569923798,344.798,55.4757,-1.89756,177.297,6.02051,-146.294,1128
1569923798,344.798,55.4757,-1.89756,177.297,6.02051,-146.294,1124
1569923798,344.798,55.4757,-1.89756,177.297,6.02051,-146.294,1124
1569923798,344.798,55.4757,-1.89756,177.297,6.02051,-146.294,1124
1569923798,344.798,55.4757,-1.89756,177.297,6.02051,-146.294,1124
1569923798,344.798,55.4757,-1.89756,177.297,6.02051,-146.294,1124
1569923798,344.798,55.4757,-1.89756,177.297,6.02051,-146.294,1124
1569923798,344.798,55.4757,-1.89756,177.297,6.02051,-146.294,1128
1569923798,344.798,55.4757,-1.89756,177.275,6.02051,-146.294,1128
1569923798,344.798,55.4757,-2.00918,177.275,6.02051,-146.294,1128
1569923798,344.798,55.4757,-2.00918,177.275,6.02051,-146.294,1128
1569923798,344.798,55.4757,-2.00918,177.275,6.02051,-146.294,1128
1569923798,344.798,55.4757,-2.00918,177.275,6.02051,-146.294,1128
1569923798,344.798,55.4757,-2.00918,177.275,6.02051,-146.316,1132
1569923798,344.798,55.4757,-2.00918,177.275,6.02051,-146.316,1132
1569923798,344.798,55.4757,-2.00918,177.275,6.02051,-146.316,1132
1569923798,344.798,55.4757,-2.00918,177.275,6.02051,-146.316,1132
1569923798,344.798,55.4757,-2.00918,177.275,6.02051,-146.316,1132
1569923798,344.798,55.4757,-2.00918,177.275,5.99854,-146.294,1132
1569923798,344.798,55.4757,-2.00918,177.275,5.99854,-146.294,1132
1569923798,344.798,55.4757,-2.00918,177.275,5.99854,-146.294,1132
1569923798,344.798,55.4757,-2.00918,177.275,5.99854,-146.316,1132
1569923798,344.798,55.4757,-2.00918,177.275,5.99854,-146.316,1132
1569923798,344.798,55.5873,-2.00918,177.275,5.99854,-146.316,1132
1569923798,344.798,55.5873,-2.00918,177.275,5.99854,-146.316,1132
1569923798,344.798,55.5873,-2.00918,177.275,5.99854,-146.316,1132
1569923798,344.798,55.5873,-2.00918,177.275,5.99854,-146.294,1136
1569923798,344.798,55.5873,-2.00918,177.275,5.99854,-146.294,1136
1569923798,344.798,55.4757,-2.00918,177.275,5.99854,-146.294,1136
1569923798,344.798,55.4757,-2.00918,177.275,5.99854,-146.294,1136
1569923798,344.798,55.4757,-2.00918,177.275,5.99854,-146.294,1136
1569923798,344.798,55.4757,-2.00918,177.275,5.99854,-146.294,1136
1569923798,344.798,55.4757,-2.1208,177.275,5.99854,-146.294,1136
1569923798,344.798,55.4757,-2.1208,177.275,5.97656,-146.294,1136
1569923798,344.798,55.4757,-2.1208,177.275,5.97656,-146.294,1136
1569923798,344.798,55.4757,-2.1208,177.275,5.97656,-146.294,1136
1569923798,344.798,55.4757,-2.1208,177.275,5.97656,-146.294,1132
1569923798,344.798,55.4757,-2.1208,177.275,5.97656,-146.294,1132
1569923798,344.798,55.4757,-2.1208,177.275,5.97656,-146.294,1132
1569923798,344.798,55.4757,-2.1208,177.275,5.97656,-146.294,1132
1569923798,344.798,55.4757,-2.1208,177.275,5.97656,-146.294,1132
1569923798,344.798,55.4757,-2.1208,177.275,5.97656,-146.294,1132
1569923798,344.798,55.4757,-2.1208,177.275,5.97656,-146.294,1132
1569923798,344.798,55.4757,-2.1208,177.275,5.97656,-146.294,1132
1569923798,344.798,55.4757,-2.1208,177.275,5.99854,-146.294,1132
1569923798,344.798,55.4757,-2.00918,177.275,5.99854,-146.294,1132
1569923798,344.798,55.4757,-2.00918,177.275,5.99854,-146.294,1132
1569923798,344.798,55.4757,-2.00918,177.275,5.99854,-146.294,1132
1569923798,344.798,55.4757,-2.00918,177.275,5.99854,-146.294,1128
1569923798,344.798,55.4757,-2.00918,177.275,5.99854,-146.294,1128
1569923798,344.798,55.4757,-2.00918,177.275,5.99854,-146.294,1128
1569923798,344.798,55.4757,-2.00918,177.275,5.99854,-146.294,1128
1569923798,344.798,55.4757,-2.00918,177.275,5.99854,-146.294,1128
1569923799,344.798,55.4757,-2.00918,177.275,6.02051,-146.294,1128
1569923799,344.798,55.4757,-2.00918,177.275,6.02051,-146.294,1128
1569923799,344.798,55.4757,-2.00918,177.253,6.02051,-146.294,1128
1569923799,344.798,55.4757,-2.00918,177.253,6.02051,-146.294,1132
1569923799,344.798,55.4757,-2.00918,177.253,6.02051,-146.294,1132
1569923799,344.798,55.4757,-2.00918,177.253,6.02051,-146.294,1132
1569923799,344.798,55.4757,-2.00918,177.253,6.02051,-146.294,1132
1569923799,344.798,55.4757,-2.00918,177.253,6.02051,-146.294,1132
1569923799,344.798,55.4757,-2.00918,177.253,6.02051,-146.294,1132
1569923799,344.798,55.4757,-2.00918,177.253,6.02051,-146.294,1132
1569923799,344.798,55.4757,-2.00918,177.253,6.02051,-146.294,1136
1569923799,344.798,55.4757,-2.00918,177.253,6.02051,-146.294,1136
1569923799,344.798,55.4757,-2.00918,177.253,6.02051,-146.294,1136
1569923799,344.798,55.4757,-2.00918,177.253,6.02051,-146.294,1136
1569923799,344.798,55.4757,-2.00918,177.253,6.02051,-146.294,1136
1569923799,344.798,55.4757,-2.00918,177.253,6.02051,-146.294,1140
1569923799,344.798,55.4757,-2.00918,177.253,6.02051,-146.294,1140
1569923799,344.798,55.4757,-2.00918,177.275,5.99854,-146.294,1140
1569923799,344.798,55.4757,-2.00918,177.275,5.99854,-146.294,1140
1569923799,344.798,55.4757,-2.00918,177.275,5.99854,-146.294,1140
1569923799,344.798,55.4757,-2.00918,177.275,5.99854,-146.294,1140
1569923799,344.798,55.4757,-2.00918,177.275,5.99854,-146.294,1140
1569923799,344.798,55.4757,-2.00918,177.275,6.02051,-146.294,1140
1569923799,344.798,55.4757,-2.00918,177.275,6.02051,-146.272,1140
1569923799,344.798,55.4757,-2.00918,177.275,6.02051,-146.272,1140
1569923799,344.798,55.4757,-2.00918,177.275,6.02051,-146.272,1140
1569923799,344.798,55.4757,-1.89756,177.275,6.02051,-146.272,1140
1569923799,344.798,55.4757,-1.89756,177.275,6.02051,-146.272,1140
1569923799,344.798,55.4757,-1.89756,177.275,6.02051,-146.272,1140
1569923799,344.798,55.4757,-1.89756,177.275,6.02051,-146.294,1140
1569923799,344.798,55.4757,-1.89756,177.275,6.02051,-146.294,1140
1569923799,344.798,55.4757,-1.89756,177.275,6.02051,-146.294,1140
1569923799,344.798,55.4757,-1.89756,177.275,6.02051,-146.294,1140
1569923799,344.798,55.4757,-2.00918,177.275,6.02051,-146.294,1140
1569923799,344.798,55.4757,-2.00918,177.253,6.02051,-146.294,1144
1569923799,344.798,55.4757,-2.00918,177.253,6.02051,-146.294,1144
1569923799,344.798,55.4757,-2.00918,177.253,6.02051,-146.294,1144
1569923799,344.798,55.4757,-2.00918,177.253,6.02051,-146.294,1144
1569923799,344.798,55.4757,-2.00918,177.253,6.02051,-146.294,1144
1569923799,344.798,55.4757,-2.00918,177.253,6.02051,-146.294,1144
1569923799,344.798,55.4757,-2.00918,177.253,6.02051,-146.294,1144
1569923799,344.798,55.4757,-2.00918,177.253,6.02051,-146.294,1144
1569923799,344.798,55.4757,-2.00918,177.253,6.02051,-146.294,1144
1569923799,344.798,55.4757,-2.00918,177.253,6.02051,-146.294,1144
1569923799,344.798,55.4757,-2.00918,177.253,6.02051,-146.294,1144
1569923799,344.798,55.4757,-2.00918,177.253,6.02051,-146.294,1144
1569923799,344.798,55.4757,-2.00918,177.253,6.02051,-146.294,1144
1569923799,344.798,55.4757,-2.00918,177.253,6.02051,-146.316,1144
1569923799,344.798,55.4757,-2.00918,177.253,6.02051,-146.316,1144
1569923799,344.798,55.4757,-2.00918,177.253,6.02051,-146.316,1144
1569923799,344.798,55.4757,-2.00918,177.253,6.02051,-146.316,1148
1569923799,344.798,55.4757,-2.00918,177.253,5.99854,-146.316,1148
1569923799,344.798,55.4757,-2.00918,177.253,5.99854,-146.316,1148
1569923799,344.798,55.4757,-2.00918,177.253,5.99854,-146.316,1148
1569923799,344.798,55.4757,-2.00918,177.253,5.99854,-146.316,1148
1569923799,344.798,55.4757,-2.00918,177.253,5.99854,-146.316,1148
1569923799,344.798,55.4757,-2.00918,177.253,5.99854,-146.316,1148
1569923799,344.798,55.4757,-2.00918,177.253,5.99854,-146.316,1148
1569923799,344.798,55.4757,-2.00918,177.253,5.99854,-146.316,1152
1569923799,344.798,55.4757,-2.00918,177.253,5.99854,-146.316,1152
1569923799,344.798,55.4757,-2.00918,177.253,5.99854,-146.316,1152
1569923799,344.798,55.4757,-2.00918,177.253,5.99854,-146.316,1152
1569923799,344.798,55.4757,-2.00918,177.253,5.99854,-146.294,1152
1569923799,344.798,55.4757,-2.00918,177.253,5.99854,-146.294,1152
1569923799,344.798,55.4757,-2.00918,177.253,5.99854,-146.294,1152
1569923799,344.798,55.4757,-2.00918,177.253,5.99854,-146.294,1152
1569923799,344.798,55.4757,-2.00918,177.253,5.99854,-146.294,1152
1569923799,344.909,55.4757,-2.00918,177.253,5.99854,-146.294,1152
1569923799,344.909,55.4757,-2.00918,177.253,5.99854,-146.294,1152
1569923799,344.909,55.4757,-2.00918,177.253,5.99854,-146.294,1152
1569923799,344.909,55.4757,-2.00918,177.253,5.99854,-146.294,1152
1569923799,344.909,55.4757,-2.00918,177.253,5.99854,-146.294,1152
1569923799,344.909,55.4757,-2.00918,177.253,5.99854,-146.294,1152
1569923799,344.909,55.4757,-2.00918,177.253,5.99854,-146.294,1152
1569923799,344.909,55.4757,-2.00918,177.253,5.99854,-146.294,1152
1569923799,344.909,55.4757,-2.00918,177.253,5.99854,-146.294,1152
1569923799,344.909,55.4757,-2.00918,177.253,5.99854,-146.294,1156
1569923799,344.909,55.4757,-2.00918,177.253,5.99854,-146.294,1156
1569923799,344.909,55.4757,-2.00918,177.253,5.99854,-146.294,1156
1569923799,344.909,55.4757,-2.00918,177.253,5.99854,-146.294,1156
1569923799,344.909,55.4757,-2.00918,177.275,5.99854,-146.294,1156
1569923799,344.909,55.4757,-2.00918,177.275,5.99854,-146.294,1156
1569923799,344.909,55.4757,-2.00918,177.275,5.99854,-146.294,1156
1569923799,344.909,55.4757,-2.00918,177.275,5.99854,-146.294,1156
1569923799,344.909,55.4757,-2.00918,177.275,5.99854,-146.294,1156
1569923799,344.909,55.4757,-2.00918,177.275,5.99854,-146.294,1156
1569923799,344.909,55.4757,-2.00918,177.275,5.99854,-146.294,1156
1569923799,344.909,55.4757,-2.00918,177.275,5.99854,-146.294,1152
1569923799,344.909,55.4757,-2.00918,177.275,5.99854,-146.294,1152
1569923799,344.909,55.4757,-2.00918,177.275,5.99854,-146.294,1152
1569923799,344.909,55.4757,-2.00918,177.275,5.99854,-146.294,1152
1569923799,344.909,55.4757,-2.00918,177.275,5.99854,-146.294,1152
1569923799,344.909,55.4757,-2.00918,177.275,5.99854,-146.294,1152
1569923799,344.909,55.4757,-2.00918,177.275,6.02051,-146.294,1152
1569923799,344.798,55.4757,-2.00918,177.275,6.02051,-146.294,1152
1569923799,344.798,55.4757,-2.00918,177.275,6.02051,-146.294,1152
1569923799,344.798,55.4757,-2.00918,177.275,6.02051,-146.294,1148
1569923799,344.798,55.4757,-2.00918,177.275,6.02051,-146.294,1148
1569923799,344.798,55.4757,-2.00918,177.275,6.02051,-146.294,1148
1569923799,344.798,55.4757,-2.00918,177.275,6.02051,-146.294,1148
1569923799,344.798,55.4757,-2.00918,177.275,6.02051,-146.294,1148
1569923800,344.798,55.4757,-1.89756,177.275,6.02051,-146.294,1148
1569923800,344.798,55.4757,-1.89756,177.275,6.02051,-146.294,1148
1569923800,344.798,55.4757,-1.89756,177.275,6.02051,-146.294,1148
1569923800,344.798,55.4757,-1.89756,177.275,6.02051,-146.294,1148
1569923800,344.798,55.4757,-1.89756,177.275,6.02051,-146.294,1148
1569923800,344.798,55.4757,-1.89756,177.275,6.02051,-146.294,1148
1569923800,344.798,55.4757,-1.89756,177.275,6.02051,-146.294,1148
1569923800,344.798,55.4757,-1.89756,177.297,6.02051,-146.294,1148
1569923800,344.798,55.4757,-1.89756,177.297,6.02051,-146.294,1148
1569923800,344.798,55.4757,-1.89756,177.297,6.02051,-146.294,1148
1569923800,344.798,55.4757,-1.89756,177.297,6.02051,-146.294,1148
1569923800,344.798,55.4757,-1.89756,177.275,6.02051,-146.294,1148
1569923800,344.798,55.4757,-1.89756,177.275,6.02051,-146.294,1148
1569923800,344.798,55.4757,-1.89756,177.275,6.02051,-146.294,1148
1569923800,344.798,55.4757,-1.89756,177.275,6.02051,-146.294,1148
1569923800,344.798,55.4757,-1.89756,177.275,6.02051,-146.294,1148
1569923800,344.798,55.4757,-2.00918,177.275,6.02051,-146.294,1148
1569923800,344.798,55.4757,-2.00918,177.275,6.02051,-146.294,1148
1569923800,344.798,55.4757,-2.00918,177.275,6.02051,-146.294,1148
1569923800,344.798,55.4757,-2.00918,177.275,6.02051,-146.294,1148
1569923800,344.798,55.4757,-2.00918,177.275,6.02051,-146.294,1148
1569923800,344.798,55.4757,-2.00918,177.275,6.02051,-146.294,1148
1569923800,344.798,55.4757,-2.00918,177.275,6.02051,-146.294,1148
1569923800,344.798,55.4757,-2.00918,177.275,6.02051,-146.294,1148
1569923800,344.798,55.4757,-2.00918,177.275,6.02051,-146.294,1148
1569923800,344.798,55.4757,-2.00918,177.275,6.02051,-146.294,1148
1569923800,344.798,55.4757,-2.00918,177.275,6.02051,-146.294,1148
1569923800,344.798,55.4757,-2.00918,177.275,6.02051,-146.294,1148
1569923800,344.798,55.4757,-2.00918,177.275,6.02051,-146.294,1148
1569923800,344.909,55.4757,-2.00918,177.297,6.02051,-146.294,1148
1569923800,344.909,55.4757,-2.00918,177.297,6.02051,-146.294,1144
1569923800,344.909,55.4757,-1.89756,177.297,6.02051,-146.316,1144
1569923800,344.909,55.5873,-1.89756,177.297,6.02051,-146.316,1144
1569923800,344.909,55.5873,-1.89756,177.297,6.02051,-146.316,1144
1569923800,344.909,55.5873,-1.89756,177.297,6.02051,-146.316,1144
1569923800,344.909,55.5873,-1.89756,177.297,6.02051,-146.316,1144
1569923800,344.909,55.5873,-1.89756,177.297,6.02051,-146.316,1144
1569923800,344.909,55.5873,-1.89756,177.297,6.02051,-146.316,1144
1569923800,344.909,55.5873,-1.89756,177.297,6.02051,-146.316,1144
1569923800,344.909,55.5873,-1.89756,177.275,6.02051,-146.316,1144
1569923800,344.909,55.5873,-1.89756,177.275,6.02051,-146.316,1144
1569923800,344.909,55.4757,-1.89756,177.275,6.02051,-146.316,1144
1569923800,344.909,55.4757,-1.89756,177.275,6.02051,-146.316,1144
1569923800,344.909,55.4757,-1.89756,177.275,6.02051,-146.316,1144
1569923800,344.909,55.4757,-1.89756,177.275,6.02051,-146.316,1140
1569923800,344.909,55.4757,-1.89756,177.275,6.02051,-146.316,1140
1569923800,344.909,55.4757,-1.89756,177.275,6.02051,-146.316,1140
1569923800,344.909,55.4757,-1.89756,177.275,6.02051,-146.316,1140
1569923800,344.909,55.4757,-1.89756,177.275,6.02051,-146.316,1140
1569923800,344.909,55.4757,-1.89756,177.275,6.02051,-146.316,1140
1569923800,344.909,55.4757,-1.89756,177.275,6.02051,-146.316,1140
1569923800,344.909,55.4757,-1.89756,177.275,6.02051,-146.316,1140
1569923800,344.909,55.4757,-1.89756,177.275,6.02051,-146.316,1140
1569923800,344.909,55.4757,-2.00918,177.275,6.02051,-146.316,1140
1569923800,344.909,55.5873,-2.00918,177.275,6.02051,-146.316,1140
1569923800,344.909,55.5873,-2.00918,177.275,6.02051,-146.316,1140
1569923800,344.909,55.5873,-2.00918,177.275,6.02051,-146.316,1140
1569923800,344.909,55.5873,-2.00918,177.275,6.02051,-146.316,1140
1569923800,344.909,55.5873,-2.00918,177.297,6.02051,-146.316,1140
1569923800,344.909,55.5873,-2.00918,177.297,6.02051,-146.316,1140
1569923800,344.909,55.5873,-2.00918,177.275,6.02051,-146.316,1140
1569923800,344.909,55.5873,-2.00918,177.275,6.02051,-146.316,1144
1569923800,344.909,55.5873,-2.00918,177.275,6.02051,-146.316,1144
1569923800,344.909,55.5873,-2.00918,177.275,6.02051,-146.316,1144
1569923800,344.909,55.5873,-2.00918,177.275,6.02051,-146.316,1144
1569923800,344.909,55.4757,-2.00918,177.275,6.02051,-146.316,1144
1569923800,344.909,55.4757,-2.00918,177.275,6.02051,-146.316,1144
1569923800,344.909,55.4757,-2.00918,177.275,6.02051,-146.316,1148
1569923800,344.909,55.4757,-2.00918,177.275,5.99854,-146.316,1148
1569923800,344.909,55.4757,-2.00918,177.275,5.99854,-146.316,1148
1569923800,344.909,55.4757,-2.00918,177.275,5.99854,-146.316,1148
1569923800,344.909,55.4757,-2.00918,177.275,5.99854,-146.294,1148
1569923800,344.909,55.4757,-2.00918,177.275,6.02051,-146.294,1148
1569923800,344.909,55.4757,-2.00918,177.275,6.02051,-146.294,1148
1569923800,344.909,55.5873,-2.00918,177.275,6.02051,-146.294,1152
1569923800,344.909,55.5873,-2.00918,177.275,6.02051,-146.294,1152
1569923800,344.909,55.5873,-2.00918,177.275,6.02051,-146.294,1152
1569923800,344.909,55.5873,-2.00918,177.275,6.02051,-146.294,1152
1569923800,344.909,55.5873,-2.00918,177.275,6.02051,-146.294,1152
1569923800,344.909,55.5873,-1.89756,177.275,6.02051,-146.294,1152
1569923800,344.909,55.5873,-1.89756,177.297,6.02051,-146.294,1152
1569923800,344.909,55.5873,-1.89756,177.297,6.02051,-146.294,1152
1569923800,344.909,55.5873,-1.89756,177.297,6.02051,-146.294,1152
1569923800,344.909,55.5873,-1.89756,177.297,6.02051,-146.294,1152
1569923800,344.909,55.5873,-1.89756,177.297,6.02051,-146.294,1152
1569923800,344.909,55.5873,-1.89756,177.297,6.02051,-146.294,1152
1569923800,344.909,55.5873,-1.89756,177.297,6.02051,-146.294,1152
1569923800,344.909,55.5873,-1.89756,177.297,6.02051,-146.294,1152
1569923800,344.909,55.5873,-1.89756,177.297,6.04248,-146.294,1152
1569923800,344.909,55.5873,-1.89756,177.297,6.04248,-146.294,1152
1569923800,344.909,55.5873,-1.89756,177.297,6.04248,-146.294,1152
1569923800,344.909,55.5873,-1.89756,177.297,6.04248,-146.294,1152
1569923800,344.909,55.5873,-1.89756,177.297,6.04248,-146.294,1152
1569923800,344.909,55.5873,-1.89756,177.297,6.04248,-146.294,1152
1569923800,344.909,55.5873,-1.89756,177.297,6.02051,-146.294,1152
1569923800,344.909,55.5873,-1.89756,177.297,6.02051,-146.294,1152
1569923800,344.909,55.5873,-1.89756,177.297,6.02051,-146.294,1152
1569923800,344.909,55.5873,-1.89756,177.275,6.02051,-146.294,1152
1569923800,344.909,55.5873,-2.00918,177.275,6.02051,-146.294,1152
1569923800,344.909,55.5873,-2.00918,177.275,6.02051,-146.294,1152
1569923801,344.909,55.5873,-2.00918,177.275,6.02051,-146.294,1152
1569923801,344.909,55.4757,-2.00918,177.275,6.02051,-146.294,1148
1569923801,344.909,55.4757,-2.00918,177.275,6.02051,-146.294,1148
1569923801,344.909,55.4757,-2.00918,177.275,6.02051,-146.294,1148
1569923801,344.909,55.4757,-2.00918,177.275,6.02051,-146.294,1148
1569923801,344.909,55.4757,-2.00918,177.275,6.02051,-146.294,1148
1569923801,344.909,55.4757,-2.00918,177.275,6.02051,-146.294,1148
1569923801,344.909,55.4757,-2.00918,177.275,6.02051,-146.294,1148
1569923801,344.909,55.4757,-2.00918,177.275,6.02051,-146.294,1148
1569923801,344.909,55.4757,-2.00918,177.275,6.02051,-146.294,1148
1569923801,344.909,55.4757,-2.00918,177.275,6.02051,-146.294,1148
1569923801,344.909,55.4757,-2.00918,177.275,6.02051,-146.294,1148
1569923801,344.909,55.4757,-2.00918,177.275,6.02051,-146.294,1148
1569923801,344.909,55.4757,-2.00918,177.275,6.02051,-146.294,1148
1569923801,344.909,55.4757,-2.00918,177.275,6.02051,-146.294,1148
1569923801,344.909,55.4757,-2.00918,177.275,6.02051,-146.294,1148
1569923801,344.909,55.4757,-2.00918,177.253,6.02051,-146.294,1148
1569923801,344.909,55.4757,-2.00918,177.253,6.02051,-146.294,1148
1569923801,344.909,55.4757,-2.00918,177.253,6.02051,-146.294,1148
1569923801,344.909,55.4757,-2.00918,177.253,6.02051,-146.294,1148
1569923801,344.909,55.4757,-2.00918,177.253,6.02051,-146.294,1148
1569923801,344.909,55.4757,-2.00918,177.253,6.02051,-146.294,1148
1569923801,344.909,55.4757,-2.00918,177.253,6.02051,-146.294,1148
1569923801,344.909,55.4757,-2.00918,177.253,6.02051,-146.294,1148
1569923801,344.909,55.4757,-2.00918,177.253,6.02051,-146.294,1148
1569923801,344.909,55.4757,-2.00918,177.253,6.02051,-146.294,1148
1569923801,344.909,55.4757,-2.00918,177.253,6.02051,-146.294,1148
1569923801,344.909,55.4757,-2.00918,177.253,6.02051,-146.294,1148
1569923801,344.909,55.4757,-2.00918,177.253,6.02051,-146.294,1148
1569923801,344.909,55.4757,-2.00918,177.253,6.02051,-146.294,1148
1569923801,344.909,55.4757,-2.00918,177.253,6.02051,-146.294,1148
1569923801,344.909,55.4757,-2.00918,177.253,6.02051,-146.294,1148
1569923801,344.909,55.4757,-2.00918,177.253,6.02051,-146.294,1148
1569923801,344.909,55.4757,-2.00918,177.253,6.02051,-146.294,1148
1569923801,344.909,55.4757,-2.00918,177.275,6.02051,-146.294,1148
1569923801,344.909,55.4757,-2.00918,177.275,6.02051,-146.294,1148
1569923801,344.909,55.4757,-2.00918,177.275,6.02051,-146.294,1144
1569923801,344.909,55.4757,-2.00918,177.275,6.02051,-146.294,1144
1569923801,344.909,55.4757,-2.00918,177.275,5.99854,-146.294,1148
1569923801,344.909,55.4757,-2.00918,177.275,5.99854,-146.294,1148
1569923801,344.909,55.4757,-2.00918,177.275,5.99854,-146.294,1148
1569923801,344.909,55.4757,-2.00918,177.275,5.99854,-146.294,1148
1569923801,344.909,55.4757,-2.00918,177.275,5.99854,-146.294,1148
1569923801,344.909,55.4757,-2.00918,177.275,5.99854,-146.294,1148
1569923801,344.909,55.4757,-2.1208,177.275,5.97656,-146.294,1148
1569923801,344.909,55.4757,-2.1208,177.275,5.97656,-146.294,1148
1569923801,344.909,55.4757,-2.1208,177.275,5.97656,-146.294,1148
1569923801,344.909,55.4757,-2.1208,177.275,5.97656,-146.294,1148
1569923801,344.909,55.4757,-2.1208,177.275,5.97656,-146.294,1148
1569923801,344.909,55.4757,-2.1208,177.275,5.97656,-146.294,1148
1569923801,344.909,55.4757,-2.1208,177.275,5.97656,-146.294,1148
1569923801,344.909,55.4757,-2.1208,177.275,5.97656,-146.294,1144
1569923801,344.909,55.4757,-2.1208,177.275,5.97656,-146.294,1144
1569923801,344.909,55.4757,-2.1208,177.275,5.97656,-146.294,1144
1569923801,344.909,55.4757,-2.1208,177.275,5.97656,-146.294,1144
1569923801,344.909,55.4757,-2.1208,177.275,5.97656,-146.294,1144
1569923801,344.909,55.4757,-2.1208,177.275,5.97656,-146.294,1144
1569923801,344.909,55.4757,-2.1208,177.275,5.97656,-146.294,1144
1569923801,344.909,55.4757,-2.1208,177.275,5.97656,-146.294,1144
1569923801,344.909,55.4757,-2.00918,177.275,5.97656,-146.294,1144
1569923801,344.909,55.4757,-2.00918,177.275,5.97656,-146.294,1140
1569923801,344.909,55.4757,-2.00918,177.275,5.97656,-146.294,1140
1569923801,344.909,55.5873,-2.00918,177.275,5.97656,-146.294,1140
1569923801,344.909,55.5873,-2.00918,177.275,5.99854,-146.294,1140
1569923801,344.909,55.5873,-2.00918,177.275,5.99854,-146.294,1140
1569923801,344.909,55.4757,-2.00918,177.275,5.99854,-146.294,1140
1569923801,344.909,55.4757,-2.00918,177.275,5.99854,-146.294,1140
1569923801,344.909,55.4757,-2.00918,177.275,5.99854,-146.294,1144
1569923801,344.909,55.4757,-2.00918,177.275,5.99854,-146.294,1144
1569923801,344.909,55.4757,-2.00918,177.275,5.99854,-146.294,1144
1569923801,344.909,55.4757,-2.00918,177.275,5.99854,-146.294,1144
1569923801,344.909,55.4757,-2.00918,177.275,5.99854,-146.294,1144
1569923801,344.909,55.4757,-2.00918,177.275,5.99854,-146.294,1148
1569923801,344.909,55.4757,-2.00918,177.275,5.99854,-146.294,1148
1569923801,344.909,55.4757,-2.00918,177.275,5.99854,-146.294,1148
1569923801,344.909,55.4757,-2.00918,177.275,5.99854,-146.294,1148
1569923801,344.909,55.4757,-2.00918,177.275,5.99854,-146.294,1148
1569923801,344.909,55.4757,-2.00918,177.275,5.99854,-146.294,1148
1569923801,344.909,55.4757,-2.00918,177.275,5.99854,-146.294,1148
1569923801,344.909,55.4757,-2.00918,177.275,5.99854,-146.294,1148
1569923801,344.909,55.4757,-2.00918,177.275,5.99854,-146.294,1148
1569923801,344.909,55.5873,-2.00918,177.275,5.99854,-146.294,1148
1569923801,344.909,55.5873,-2.00918,177.275,5.99854,-146.294,1148
1569923801,344.909,55.5873,-2.00918,177.275,5.99854,-146.294,1148
1569923801,344.909,55.5873,-2.00918,177.275,5.99854,-146.294,1148
1569923801,344.909,55.5873,-2.00918,177.275,5.99854,-146.294,1148
1569923801,344.909,55.5873,-2.00918,177.275,5.99854,-146.294,1148
1569923801,344.909,55.5873,-2.00918,177.275,5.99854,-146.294,1148
1569923801,344.909,55.5873,-2.00918,177.275,5.99854,-146.316,1148
1569923801,344.909,55.5873,-2.00918,177.275,5.99854,-146.316,1148
1569923801,344.909,55.5873,-2.00918,177.275,5.99854,-146.316,1148
1569923801,344.909,55.5873,-2.00918,177.275,5.99854,-146.316,1148
1569923801,344.909,55.5873,-2.00918,177.275,5.99854,-146.316,1148
1569923801,344.909,55.5873,-2.00918,177.275,5.99854,-146.316,1144
1569923801,344.909,55.5873,-2.00918,177.275,5.99854,-146.316,1144
1569923801,344.909,55.5873,-2.00918,177.275,5.99854,-146.316,1144
1569923801,344.909,55.4757,-2.00918,177.275,5.99854,-146.316,1144
1569923801,344.909,55.4757,-2.00918,177.275,5.99854,-146.316,1144
1569923801,344.909,55.5873,-2.00918,177.275,5.99854,-146.316,1144
1569923801,344.909,55.5873,-2.00918,177.275,5.99854,-146.316,1144
1569923802,344.909,55.5873,-2.00918,177.275,5.99854,-146.316,1148
1569923802,344.909,55.5873,-2.00918,177.275,5.99854,-146.316,1148
1569923802,344.909,55.5873,-2.00918,177.275,5.99854,-146.316,1148
1569923802,344.909,55.5873,-2.00918,177.275,5.99854,-146.316,1148
1569923802,344.909,55.5873,-2.00918,177.275,5.99854,-146.316,1148
1569923802,344.909,55.5873,-2.00918,177.275,5.99854,-146.316,1148
1569923802,344.909,55.5873,-2.00918,177.275,5.99854,-146.316,1148
1569923802,344.909,55.5873,-2.00918,177.275,5.99854,-146.316,1148
1569923802,344.909,55.5873,-2.00918,177.275,5.99854,-146.294,1148
1569923802,344.909,55.5873,-2.00918,177.275,5.99854,-146.294,1148
1569923802,344.909,55.5873,-2.00918,177.275,5.99854,-146.294,1148
1569923802,344.909,55.5873,-2.00918,177.275,5.99854,-146.294,1148
1569923802,344.909,55.5873,-2.00918,177.275,5.99854,-146.294,1148
1569923802,344.909,55.5873,-2.00918,177.275,6.02051,-146.294,1148
1569923802,344.909,55.5873,-2.00918,177.275,6.02051,-146.294,1148
1569923802,344.909,55.5873,-2.00918,177.275,6.02051,-146.294,1148
1569923802,344.909,55.4757,-1.89756,177.275,6.02051,-146.294,1148
1569923802,344.909,55.4757,-1.89756,177.275,6.02051,-146.294,1148
1569923802,344.909,55.4757,-1.89756,177.275,6.02051,-146.316,1148
1569923802,344.909,55.4757,-1.89756,177.275,6.02051,-146.316,1148
1569923802,344.909,55.4757,-1.89756,177.275,6.02051,-146.316,1148
1569923802,344.909,55.4757,-2.00918,177.275,6.02051,-146.316,1148
1569923802,344.909,55.4757,-2.00918,177.275,6.02051,-146.316,1148
1569923802,344.909,55.4757,-2.00918,177.275,6.02051,-146.316,1148
1569923802,344.909,55.4757,-2.00918,177.275,6.02051,-146.316,1148
1569923802,344.909,55.4757,-2.00918,177.275,6.02051,-146.316,1148
1569923802,344.909,55.4757,-2.00918,177.275,6.02051,-146.316,1148
1569923802,344.909,55.4757,-2.00918,177.275,6.02051,-146.316,1148
1569923802,344.909,55.4757,-2.00918,177.275,6.02051,-146.316,1148
1569923802,344.909,55.4757,-2.00918,177.275,5.99854,-146.316,1148
1569923802,344.909,55.4757,-2.00918,177.275,5.99854,-146.316,1152
1569923802,344.909,55.4757,-2.00918,177.275,5.99854,-146.316,1152
1569923802,344.909,55.4757,-2.00918,177.275,5.99854,-146.316,1152
1569923802,344.909,55.4757,-2.00918,177.275,5.99854,-146.316,1152
1569923802,344.909,55.4757,-2.00918,177.275,5.99854,-146.316,1152
1569923802,344.909,55.4757,-2.00918,177.275,5.99854,-146.316,1152
1569923802,344.909,55.4757,-2.00918,177.275,5.99854,-146.316,1152
1569923802,344.909,55.4757,-2.00918,177.275,5.99854,-146.316,1152
1569923802,344.909,55.4757,-2.00918,177.275,5.99854,-146.316,1156
1569923802,344.909,55.4757,-2.00918,177.275,5.99854,-146.316,1156
1569923802,344.909,55.4757,-2.00918,177.275,5.99854,-146.316,1156
1569923802,344.909,55.4757,-2.00918,177.275,5.99854,-146.316,1156
1569923802,344.909,55.4757,-2.00918,177.275,5.99854,-146.316,1156
1569923802,344.909,55.4757,-2.00918,177.275,5.99854,-146.316,1156
1569923802,344.909,55.4757,-2.00918,177.275,5.99854,-146.316,1160
1569923802,344.909,55.4757,-2.00918,177.275,5.99854,-146.316,1160
1569923802,344.909,55.4757,-2.00918,177.275,5.99854,-146.316,1160
1569923802,344.909,55.4757,-2.00918,177.275,5.99854,-146.316,1160
1569923802,344.909,55.4757,-2.00918,177.275,5.99854,-146.316,1160
1569923802,344.909,55.4757,-2.00918,177.275,5.99854,-146.316,1156
1569923802,344.909,55.4757,-2.00918,177.275,5.99854,-146.316,1156
1569923802,344.909,55.4757,-2.00918,177.275,5.99854,-146.316,1156
1569923802,344.909,55.4757,-2.00918,177.275,5.99854,-146.316,1156
1569923802,344.909,55.4757,-2.00918,177.275,5.99854,-146.316,1156
1569923802,344.909,55.4757,-2.00918,177.275,5.99854,-146.316,1156
1569923802,344.909,55.4757,-2.00918,177.275,5.99854,-146.316,1156
1569923802,344.909,55.4757,-2.00918,177.275,5.99854,-146.316,1152
1569923802,344.798,55.4757,-2.00918,177.275,5.99854,-146.316,1152
1569923802,344.798,55.4757,-2.00918,177.275,5.99854,-146.316,1152
1569923802,344.798,55.4757,-2.00918,177.275,5.99854,-146.316,1152
1569923802,344.798,55.5873,-2.00918,177.275,5.99854,-146.316,1152
1569923802,344.798,55.5873,-2.00918,177.275,5.99854,-146.316,1152
1569923802,344.798,55.4757,-2.00918,177.275,5.99854,-146.316,1148
1569923802,344.798,55.4757,-2.00918,177.275,5.99854,-146.316,1148
1569923802,344.798,55.4757,-2.00918,177.275,5.99854,-146.316,1148
1569923802,344.798,55.4757,-2.00918,177.275,6.02051,-146.316,1148
1569923802,344.798,55.4757,-2.00918,177.275,6.02051,-146.316,1148
1569923802,344.798,55.4757,-2.00918,177.275,6.02051,-146.316,1148
1569923802,344.798,55.4757,-2.00918,177.275,6.02051,-146.316,1148
1569923802,344.798,55.4757,-2.00918,177.275,6.02051,-146.316,1148
1569923802,344.798,55.4757,-2.00918,177.275,6.02051,-146.316,1148
1569923802,344.798,55.4757,-2.00918,177.275,6.02051,-146.316,1148
1569923802,344.798,55.4757,-2.00918,177.275,6.02051,-146.316,1148
1569923802,344.798,55.4757,-2.00918,177.275,6.02051,-146.316,1148
1569923802,344.798,55.4757,-2.00918,177.275,6.02051,-146.316,1148
1569923802,344.798,55.4757,-2.00918,177.275,6.02051,-146.316,1148
1569923802,344.798,55.4757,-2.00918,177.275,6.02051,-146.316,1148
1569923802,344.798,55.4757,-2.00918,177.275,6.02051,-146.316,1144
1569923802,344.798,55.4757,-2.00918,177.275,6.02051,-146.316,1144
1569923802,344.798,55.4757,-2.00918,177.275,6.02051,-146.316,1144
1569923802,344.798,55.4757,-2.00918,177.275,6.02051,-146.316,1144
1569923802,344.798,55.4757,-2.00918,177.275,5.99854,-146.316,1144
1569923802,344.798,55.4757,-2.00918,177.275,5.99854,-146.316,1144
1569923802,344.798,55.4757,-2.00918,177.275,5.99854,-146.316,1144
1569923802,344.798,55.4757,-2.00918,177.275,5.99854,-146.316,1144
1569923802,344.798,55.4757,-2.00918,177.275,5.99854,-146.316,1140
1569923802,344.798,55.4757,-2.00918,177.275,5.99854,-146.316,1140
1569923802,344.798,55.4757,-2.00918,177.275,5.99854,-146.316,1140
1569923802,344.798,55.4757,-2.00918,177.275,5.99854,-146.316,1140
1569923802,344.909,55.4757,-2.00918,177.275,5.99854,-146.316,1140
1569923802,344.909,55.4757,-2.00918,177.275,5.99854,-146.316,1140
1569923802,344.909,55.4757,-2.00918,177.275,5.99854,-146.316,1140
1569923802,344.909,55.4757,-2.00918,177.253,5.99854,-146.316,1140
1569923802,344.909,55.4757,-2.00918,177.253,5.99854,-146.316,1140
1569923802,344.909,55.4757,-2.00918,177.253,5.99854,-146.316,1144
1569923802,344.909,55.4757,-2.00918,177.253,5.99854,-146.316,1144
1569923802,344.909,55.4757,-2.00918,177.253,5.99854,-146.316,1144
1569923802,344.909,55.4757,-2.00918,177.253,5.99854,-146.316,1144
1569923802,344.909,55.4757,-2.00918,177.275,5.99854,-146.316,1144
1569923802,344.909,55.4757,-2.00918,177.275,5.99854,-146.316,1144
1569923803,344.909,55.4757,-2.00918,177.275,5.99854,-146.316,1144
1569923803,344.909,55.4757,-2.00918,177.275,5.99854,-146.316,1144
1569923803,344.909,55.4757,-2.00918,177.275,5.99854,-146.316,1144
1569923803,344.909,55.4757,-2.00918,177.275,5.99854,-146.316,1144
1569923803,344.909,55.4757,-2.00918,177.275,5.99854,-146.316,1144
1569923803,344.909,55.4757,-2.00918,177.275,5.99854,-146.316,1144
1569923803,344.909,55.4757,-2.00918,177.275,5.99854,-146.316,1144
1569923803,344.909,55.4757,-2.00918,177.275,5.99854,-146.316,1144
1569923803,344.909,55.4757,-2.00918,177.275,5.99854,-146.316,1144
1569923803,344.909,55.4757,-2.00918,177.275,5.99854,-146.316,1144
1569923803,344.909,55.4757,-2.00918,177.275,5.99854,-146.316,1144
1569923803,344.909,55.4757,-2.00918,177.275,6.02051,-146.316,1148
1569923803,344.909,55.4757,-2.00918,177.253,6.02051,-146.316,1148
1569923803,344.909,55.4757,-2.00918,177.253,6.02051,-146.316,1148
1569923803,344.909,55.4757,-2.00918,177.253,6.02051,-146.316,1148
1569923803,344.909,55.4757,-2.00918,177.253,6.02051,-146.316,1148
1569923803,344.909,55.4757,-2.00918,177.253,6.02051,-146.316,1148
1569923803,344.909,55.4757,-2.00918,177.253,6.02051,-146.316,1148
1569923803,344.909,55.4757,-2.00918,177.253,6.02051,-146.316,1148
1569923803,344.909,55.4757,-2.00918,177.253,6.02051,-146.316,1148
1569923803,344.909,55.4757,-2.00918,177.253,6.02051,-146.316,1148
1569923803,344.909,55.4757,-2.00918,177.253,6.02051,-146.316,1144
1569923803,344.909,55.4757,-1.89756,177.253,6.02051,-146.316,1144
1569923803,344.909,55.4757,-1.89756,177.253,6.02051,-146.316,1144
1569923803,344.909,55.4757,-1.89756,177.253,6.02051,-146.316,1144
1569923803,344.909,55.4757,-1.89756,177.253,6.02051,-146.316,1144
1569923803,344.909,55.4757,-2.00918,177.253,6.02051,-146.316,1144
1569923803,344.909,55.4757,-2.00918,177.253,6.02051,-146.316,1144
1569923803,344.909,55.4757,-2.00918,177.253,6.02051,-146.316,1144
1569923803,344.909,55.4757,-2.00918,177.253,6.02051,-146.316,1144
1569923803,344.909,55.4757,-2.00918,177.253,6.02051,-146.316,1144
1569923803,344.909,55.4757,-2.00918,177.253,6.02051,-146.316,1144
1569923803,344.909,55.4757,-2.00918,177.253,6.02051,-146.316,1144
1569923803,344.909,55.4757,-2.00918,177.253,5.99854,-146.316,1144
1569923803,344.909,55.4757,-2.00918,177.253,5.99854,-146.316,1140
1569923803,344.909,55.4757,-2.00918,177.253,5.99854,-146.316,1140
1569923803,344.909,55.4757,-2.00918,177.253,5.99854,-146.316,1140
1569923803,344.909,55.4757,-2.00918,177.275,5.99854,-146.316,1140
1569923803,344.909,55.4757,-2.00918,177.275,5.99854,-146.316,1140
1569923803,344.909,55.4757,-2.00918,177.275,5.99854,-146.316,1136
1569923803,344.909,55.4757,-2.00918,177.275,5.99854,-146.316,1136
1569923803,344.909,55.4757,-2.00918,177.275,5.99854,-146.316,1136
1569923806,305.73,95.3244,-3.46025,176.704,5.77881,-146.58,676
1569923806,305.73,95.3244,-3.46025,176.704,5.77881,-146.58,676
1569923806,305.73,95.3244,-3.46025,176.704,5.77881,-146.58,676
1569923806,305.73,95.3244,-3.46025,176.704,5.77881,-146.58,676
1569923806,305.73,95.3244,-3.46025,176.704,5.77881,-146.58,676
1569923806,305.73,95.3244,-3.46025,176.682,5.77881,-146.58,676
1569923806,305.73,95.3244,-3.46025,176.682,5.77881,-146.58,676
1569923806,305.73,95.3244,-3.46025,176.682,5.77881,-146.58,676
1569923806,305.73,95.3244,-3.46025,176.682,5.77881,-146.58,672
1569923806,305.73,95.3244,-3.46025,176.682,5.77881,-146.58,672
1569923806,305.73,95.3244,-3.46025,176.704,5.77881,-146.58,672
1569923806,305.73,95.3244,-3.46025,176.704,5.77881,-146.58,672
1569923806,305.73,95.3244,-3.46025,176.704,5.77881,-146.58,672
1569923806,305.73,95.3244,-3.46025,176.704,5.77881,-146.58,672
1569923806,305.73,95.3244,-3.46025,176.704,5.77881,-146.58,672
1569923806,305.73,95.3244,-3.46025,176.704,5.77881,-146.58,672
1569923806,305.73,95.3244,-3.46025,176.704,5.77881,-146.58,672
1569923806,305.73,95.3244,-3.46025,176.704,5.77881,-146.58,672
1569923806,305.73,95.3244,-3.34863,176.704,5.77881,-146.58,672
1569923806,305.73,95.3244,-3.34863,176.704,5.77881,-146.58,672
1569923806,305.73,95.3244,-3.34863,176.704,5.80078,-146.58,672
1569923806,305.73,95.3244,-3.34863,176.704,5.80078,-146.58,672
1569923806,305.73,95.3244,-3.34863,176.704,5.80078,-146.58,672
1569923806,305.842,95.3244,-3.34863,176.704,5.80078,-146.58,672
1569923806,305.842,95.3244,-3.34863,176.704,5.80078,-146.58,672
1569923806,305.842,95.3244,-3.34863,176.704,5.80078,-146.58,676
1569923806,305.842,95.3244,-3.34863,176.704,5.80078,-146.58,676
1569923806,305.842,95.3244,-3.34863,176.704,5.80078,-146.58,676
1569923806,305.842,95.3244,-3.34863,176.704,5.80078,-146.58,676
1569923806,305.842,95.3244,-3.34863,176.704,5.80078,-146.58,676
1569923806,305.842,95.3244,-3.34863,176.704,5.80078,-146.58,676
1569923806,305.842,95.3244,-3.34863,176.704,5.80078,-146.58,676
1569923806,305.842,95.3244,-3.34863,176.704,5.80078,-146.58,676
1569923806,305.842,95.3244,-3.34863,176.704,5.80078,-146.58,676
1569923806,305.842,95.3244,-3.34863,176.704,5.80078,-146.58,676
1569923806,305.842,95.3244,-3.34863,176.704,5.80078,-146.58,676
1569923806,305.842,95.3244,-3.34863,176.704,5.80078,-146.558,676
1569923806,305.842,95.3244,-3.34863,176.704,5.80078,-146.558,676
1569923806,305.842,95.3244,-3.34863,176.704,5.80078,-146.558,676
1569923806,305.842,95.3244,-3.34863,176.704,5.77881,-146.558,676
1569923806,305.842,95.3244,-3.34863,176.704,5.77881,-146.558,676
1569923806,305.842,95.3244,-3.34863,176.704,5.77881,-146.558,676
1569923806,305.842,95.3244,-3.34863,176.704,5.77881,-146.558,676
1569923806,305.842,95.3244,-3.46025,176.704,5.77881,-146.558,676
1569923806,305.842,95.3244,-3.46025,176.704,5.77881,-146.558,676
1569923806,305.842,95.3244,-3.46025,176.704,5.77881,-146.558,676
1569923806,305.842,95.3244,-3.46025,176.704,5.77881,-146.558,676
1569923806,305.842,95.3244,-3.46025,176.704,5.77881,-146.558,676
1569923806,305.842,95.3244,-3.46025,176.704,5.77881,-146.58,676
1569923806,305.842,95.3244,-3.46025,176.704,5.77881,-146.58,676
1569923806,305.842,95.3244,-3.46025,176.704,5.77881,-146.58,676
1569923806,305.842,95.3244,-3.46025,176.704,5.77881,-146.58,676
1569923806,305.842,95.3244,-3.46025,176.704,5.77881,-146.58,676
1569923806,305.842,95.3244,-3.46025,176.704,5.77881,-146.58,676
1569923806,305.842,95.3244,-3.46025,176.704,5.77881,-146.58,676
1569923806,305.842,95.3244,-3.46025,176.704,5.77881,-146.58,676
1569923806,305.842,95.3244,-3.46025,176.704,5.77881,-146.58,676
1569923806,305.842,95.3244,-3.46025,176.704,5.77881,-146.58,676
1569923806,305.842,95.3244,-3.46025,176.704,5.77881,-146.58,676
1569923807,305.842,95.3244,-3.46025,176.704,5.77881,-146.58,676
1569923807,305.842,95.3244,-3.46025,176.704,5.77881,-146.58,676
1569923807,305.842,95.3244,-3.46025,176.704,5.77881,-146.58,676
1569923807,305.842,95.3244,-3.46025,176.704,5.77881,-146.58,676
1569923807,305.842,95.3244,-3.46025,176.704,5.77881,-146.58,676
1569923807,305.842,95.3244,-3.46025,176.704,5.77881,-146.58,676
1569923807,305.842,95.3244,-3.46025,176.704,5.77881,-146.58,676
1569923807,305.842,95.3244,-3.46025,176.704,5.77881,-146.58,676
1569923807,305.842,95.3244,-3.46025,176.704,5.77881,-146.58,676
1569923807,305.842,95.3244,-3.46025,176.704,5.77881,-146.58,676
1569923807,305.842,95.3244,-3.46025,176.704,5.77881,-146.58,676
1569923807,305.842,95.3244,-3.46025,176.704,5.77881,-146.58,676
1569923807,305.842,95.3244,-3.46025,176.704,5.77881,-146.58,676
1569923807,305.73,95.3244,-3.46025,176.704,5.77881,-146.58,676
1569923807,305.73,95.3244,-3.46025,176.704,5.77881,-146.58,676
1569923807,305.73,95.3244,-3.46025,176.704,5.77881,-146.58,676
1569923807,305.73,95.3244,-3.46025,176.704,5.75684,-146.58,676
1569923807,305.73,95.3244,-3.46025,176.704,5.75684,-146.58,672
1569923807,305.73,95.3244,-3.46025,176.704,5.75684,-146.58,672
1569923807,305.73,95.3244,-3.46025,176.704,5.75684,-146.58,672
1569923807,305.73,95.3244,-3.46025,176.704,5.75684,-146.58,672
1569923807,305.73,95.3244,-3.46025,176.704,5.75684,-146.58,672
1569923807,305.73,95.3244,-3.46025,176.704,5.75684,-146.58,672
1569923807,305.73,95.3244,-3.46025,176.704,5.75684,-146.58,672
1569923807,305.73,95.3244,-3.46025,176.704,5.75684,-146.58,672
1569923807,305.73,95.3244,-3.46025,176.704,5.75684,-146.58,672
1569923807,305.73,95.3244,-3.46025,176.704,5.75684,-146.58,672
1569923807,305.73,95.3244,-3.46025,176.704,5.75684,-146.58,672
1569923807,305.73,95.3244,-3.46025,176.704,5.75684,-146.558,672
1569923807,305.842,95.3244,-3.46025,176.704,5.75684,-146.558,672
1569923807,305.842,95.3244,-3.46025,176.704,5.75684,-146.558,672
1569923807,305.842,95.3244,-3.46025,176.704,5.75684,-146.558,672
1569923807,305.842,95.3244,-3.46025,176.704,5.75684,-146.558,672
1569923807,305.842,95.3244,-3.46025,176.704,5.75684,-146.558,672
1569923807,305.842,95.3244,-3.46025,176.704,5.75684,-146.558,672
1569923807,305.842,95.3244,-3.46025,176.704,5.75684,-146.558,672
1569923807,305.842,95.3244,-3.46025,176.704,5.75684,-146.558,672
1569923807,305.842,95.3244,-3.46025,176.704,5.75684,-146.558,672
1569923807,305.842,95.3244,-3.46025,176.704,5.75684,-146.558,672
1569923807,305.842,95.3244,-3.46025,176.704,5.75684,-146.558,672
1569923807,305.842,95.3244,-3.46025,176.704,5.77881,-146.58,672
1569923807,305.842,95.3244,-3.46025,176.704,5.77881,-146.58,672
1569923807,305.73,95.3244,-3.46025,176.704,5.77881,-146.58,672
1569923807,305.73,95.3244,-3.46025,176.704,5.77881,-146.58,672
1569923807,305.73,95.3244,-3.46025,176.704,5.77881,-146.58,672
1569923807,305.73,95.3244,-3.46025,176.704,5.77881,-146.58,672
1569923807,305.73,95.3244,-3.46025,176.704,5.77881,-146.58,672
1569923807,305.73,95.3244,-3.46025,176.704,5.77881,-146.58,668
1569923807,305.73,95.3244,-3.46025,176.704,5.77881,-146.58,668
1569923807,305.73,95.3244,-3.46025,176.704,5.77881,-146.58,668
1569923807,305.73,95.3244,-3.46025,176.704,5.77881,-146.58,668
1569923807,305.73,95.3244,-3.46025,176.704,5.77881,-146.58,668
1569923807,305.73,95.3244,-3.46025,176.704,5.77881,-146.58,672
1569923807,305.73,95.3244,-3.46025,176.704,5.77881,-146.58,672
1569923807,305.842,95.3244,-3.46025,176.704,5.77881,-146.58,672
1569923807,305.842,95.3244,-3.46025,176.704,5.77881,-146.58,672
1569923807,305.73,95.3244,-3.46025,176.704,5.77881,-146.58,672
1569923807,305.73,95.3244,-3.46025,176.704,5.77881,-146.58,672
1569923807,305.73,95.3244,-3.46025,176.704,5.77881,-146.558,672
1569923807,305.73,95.3244,-3.46025,176.704,5.77881,-146.558,668
1569923807,305.73,95.3244,-3.46025,176.704,5.77881,-146.558,668
1569923807,305.73,95.3244,-3.46025,176.704,5.77881,-146.558,668
1569923807,305.73,95.3244,-3.46025,176.704,5.77881,-146.558,668
1569923807,305.842,95.3244,-3.46025,176.704,5.77881,-146.558,668
1569923807,305.842,95.3244,-3.46025,176.704,5.77881,-146.558,668
1569923807,305.842,95.3244,-3.46025,176.704,5.77881,-146.558,668
1569923807,305.842,95.3244,-3.46025,176.704,5.77881,-146.558,668
1569923807,305.842,95.3244,-3.46025,176.704,5.77881,-146.558,668
1569923807,305.842,95.3244,-3.46025,176.704,5.77881,-146.558,668
1569923807,305.842,95.3244,-3.46025,176.704,5.77881,-146.558,668
1569923807,305.842,95.3244,-3.46025,176.704,5.77881,-146.558,668
1569923807,305.842,95.3244,-3.46025,176.704,5.77881,-146.558,668
1569923807,305.842,95.3244,-3.46025,176.704,5.77881,-146.58,668
1569923807,305.842,95.3244,-3.46025,176.704,5.77881,-146.58,668
1569923807,305.73,95.3244,-3.46025,176.704,5.77881,-146.58,668
1569923807,305.73,95.3244,-3.46025,176.704,5.77881,-146.58,668
1569923807,305.73,95.3244,-3.46025,176.704,5.77881,-146.58,668
1569923807,305.73,95.3244,-3.46025,176.704,5.77881,-146.58,668
1569923807,305.73,95.3244,-3.46025,176.704,5.77881,-146.58,668
1569923807,305.73,95.3244,-3.46025,176.704,5.77881,-146.58,668
1569923807,305.73,95.3244,-3.46025,176.704,5.77881,-146.58,668
1569923807,305.73,95.3244,-3.46025,176.704,5.77881,-146.58,668
1569923807,305.73,95.3244,-3.46025,176.704,5.77881,-146.58,668
1569923807,305.73,95.3244,-3.46025,176.704,5.77881,-146.58,668
1569923807,305.73,95.3244,-3.34863,176.704,5.77881,-146.58,668
1569923807,305.73,95.3244,-3.34863,176.704,5.77881,-146.58,668
1569923807,305.73,95.3244,-3.34863,176.704,5.77881,-146.58,668
1569923807,305.73,95.3244,-3.34863,176.704,5.77881,-146.58,672
1569923807,305.73,95.3244,-3.34863,176.704,5.77881,-146.58,672
1569923807,305.73,95.3244,-3.34863,176.704,5.77881,-146.58,672
1569923807,305.73,95.3244,-3.34863,176.704,5.77881,-146.58,672
1569923807,305.73,95.3244,-3.46025,176.726,5.77881,-146.58,672
1569923807,305.73,95.3244,-3.46025,176.726,5.77881,-146.58,672
1569923807,305.73,95.3244,-3.46025,176.726,5.77881,-146.58,672
1569923807,305.73,95.3244,-3.46025,176.726,5.77881,-146.58,672
1569923807,305.73,95.3244,-3.46025,176.726,5.77881,-146.58,672
1569923807,305.73,95.3244,-3.46025,176.704,5.77881,-146.58,672
1569923807,305.73,95.3244,-3.46025,176.704,5.77881,-146.58,672
1569923807,305.73,95.3244,-3.34863,176.704,5.77881,-146.58,672
1569923807,305.73,95.3244,-3.34863,176.704,5.77881,-146.58,672
1569923808,305.73,95.3244,-3.34863,176.704,5.77881,-146.58,672
1569923808,305.73,95.3244,-3.34863,176.704,5.77881,-146.58,672
1569923808,305.73,95.3244,-3.34863,176.704,5.77881,-146.58,672
1569923808,305.73,95.3244,-3.34863,176.704,5.77881,-146.58,672
1569923808,305.73,95.3244,-3.34863,176.704,5.77881,-146.58,672
1569923808,305.73,95.3244,-3.34863,176.704,5.77881,-146.58,676
1569923808,305.842,95.3244,-3.34863,176.704,5.77881,-146.58,676
1569923808,305.842,95.3244,-3.34863,176.704,5.77881,-146.58,676
1569923808,305.842,95.3244,-3.34863,176.704,5.80078,-146.58,676
1569923808,305.842,95.3244,-3.34863,176.704,5.80078,-146.58,676
1569923808,305.842,95.3244,-3.34863,176.704,5.80078,-146.58,676
1569923808,305.842,95.3244,-3.34863,176.704,5.77881,-146.58,676
1569923808,305.842,95.3244,-3.34863,176.704,5.77881,-146.58,676
1569923808,305.842,95.3244,-3.34863,176.704,5.77881,-146.58,676
1569923808,305.842,95.3244,-3.34863,176.704,5.77881,-146.58,676
1569923808,305.842,95.3244,-3.34863,176.704,5.77881,-146.58,676
1569923808,305.842,95.3244,-3.34863,176.704,5.77881,-146.58,676
1569923808,305.842,95.3244,-3.34863,176.704,5.77881,-146.58,676
1569923808,305.842,95.3244,-3.34863,176.704,5.77881,-146.58,676
1569923808,305.842,95.3244,-3.34863,176.704,5.77881,-146.58,676
1569923808,305.842,95.3244,-3.34863,176.704,5.77881,-146.58,676
1569923808,305.842,95.3244,-3.34863,176.704,5.77881,-146.58,676
1569923808,305.73,95.3244,-3.34863,176.704,5.77881,-146.58,676
1569923808,305.73,95.3244,-3.34863,176.704,5.77881,-146.58,676
1569923808,305.73,95.3244,-3.34863,176.704,5.77881,-146.58,676
1569923808,305.73,95.3244,-3.34863,176.704,5.77881,-146.58,676
1569923808,305.842,95.3244,-3.34863,176.704,5.77881,-146.58,676
1569923808,305.73,95.3244,-3.34863,176.704,5.77881,-146.58,676
1569923808,305.73,95.3244,-3.34863,176.704,5.77881,-146.58,676
1569923808,305.73,95.3244,-3.34863,176.704,5.77881,-146.58,676
1569923808,305.73,95.3244,-3.34863,176.704,5.77881,-146.58,676
1569923808,305.842,95.3244,-3.34863,176.704,5.77881,-146.58,676
1569923808,305.842,95.3244,-3.34863,176.704,5.77881,-146.58,676
1569923808,305.73,95.3244,-3.46025,176.704,5.77881,-146.58,676
1569923808,305.73,95.3244,-3.46025,176.704,5.77881,-146.58,676
1569923808,305.73,95.3244,-3.46025,176.704,5.77881,-146.58,676
1569923808,305.73,95.3244,-3.46025,176.704,5.77881,-146.58,676
1569923808,305.73,95.3244,-3.46025,176.704,5.77881,-146.58,676
1569923808,305.73,95.3244,-3.46025,176.704,5.77881,-146.58,676
1569923808,305.73,95.3244,-3.46025,176.704,5.77881,-146.58,676
1569923808,305.73,95.3244,-3.46025,176.704,5.77881,-146.58,676
1569923808,305.73,95.3244,-3.46025,176.704,5.77881,-146.58,676
1569923808,305.73,95.3244,-3.46025,176.704,5.77881,-146.58,676
1569923808,305.842,95.3244,-3.34863,176.704,5.77881,-146.58,676
1569923808,305.842,95.3244,-3.34863,176.704,5.77881,-146.58,676
1569923808,305.842,95.3244,-3.34863,176.704,5.77881,-146.58,676
1569923808,305.842,95.3244,-3.34863,176.704,5.77881,-146.58,676
1569923808,305.842,95.3244,-3.34863,176.704,5.77881,-146.58,676
1569923808,305.842,95.3244,-3.34863,176.704,5.77881,-146.58,676
1569923808,305.842,95.3244,-3.34863,176.704,5.77881,-146.58,676
1569923808,305.842,95.3244,-3.34863,176.704,5.77881,-146.58,676
1569923808,305.842,95.3244,-3.34863,176.704,5.77881,-146.58,676
1569923808,305.842,95.3244,-3.34863,176.704,5.77881,-146.58,676
1569923808,305.842,95.3244,-3.34863,176.704,5.77881,-146.58,676
1569923808,305.842,95.3244,-3.34863,176.704,5.77881,-146.58,676
1569923808,305.842,95.3244,-3.34863,176.704,5.77881,-146.58,676
1569923808,305.842,95.3244,-3.34863,176.704,5.77881,-146.58,676
1569923808,305.842,95.3244,-3.34863,176.704,5.77881,-146.58,676
1569923808,305.842,95.3244,-3.34863,176.704,5.77881,-146.58,676
1569923808,305.842,95.3244,-3.34863,176.704,5.77881,-146.58,676
1569923808,305.842,95.3244,-3.34863,176.704,5.80078,-146.58,676
1569923808,305.842,95.3244,-3.34863,176.704,5.80078,-146.58,676
1569923808,305.842,95.3244,-3.34863,176.704,5.80078,-146.58,676
1569923808,305.842,95.3244,-3.34863,176.704,5.80078,-146.58,676
1569923808,305.842,95.3244,-3.34863,176.704,5.80078,-146.58,676
1569923808,305.842,95.3244,-3.34863,176.704,5.80078,-146.58,672
1569923808,305.73,95.3244,-3.34863,176.704,5.80078,-146.58,672
1569923808,305.73,95.3244,-3.34863,176.704,5.80078,-146.58,672
1569923808,305.73,95.3244,-3.34863,176.704,5.80078,-146.58,672
1569923808,305.73,95.3244,-3.34863,176.704,5.80078,-146.58,672
1569923808,305.73,95.3244,-3.34863,176.704,5.80078,-146.58,672
1569923808,305.73,95.3244,-3.34863,176.704,5.80078,-146.58,668
1569923808,305.73,95.3244,-3.34863,176.704,5.80078,-146.58,668
1569923808,305.73,95.3244,-3.34863,176.704,5.80078,-146.58,668
1569923808,305.73,95.3244,-3.34863,176.704,5.80078,-146.58,668
1569923808,305.73,95.3244,-3.34863,176.704,5.80078,-146.58,668
1569923808,305.73,95.3244,-3.34863,176.704,5.80078,-146.58,668
1569923808,305.73,95.3244,-3.34863,176.704,5.80078,-146.58,664
1569923808,305.73,95.3244,-3.34863,176.704,5.80078,-146.58,664
1569923808,305.73,95.3244,-3.34863,176.704,5.80078,-146.58,664
1569923808,305.73,95.3244,-3.34863,176.704,5.80078,-146.58,664
1569923808,305.73,95.3244,-3.34863,176.704,5.80078,-146.58,664
1569923808,305.73,95.3244,-3.34863,176.704,5.80078,-146.58,664
1569923808,305.73,95.3244,-3.34863,176.704,5.80078,-146.58,664
1569923808,305.73,95.3244,-3.34863,176.704,5.80078,-146.58,664
1569923808,305.73,95.3244,-3.34863,176.704,5.80078,-146.58,664
1569923808,305.73,95.3244,-3.34863,176.704,5.80078,-146.58,664
1569923808,305.73,95.3244,-3.34863,176.704,5.80078,-146.58,664
1569923808,305.73,95.3244,-3.34863,176.704,5.80078,-146.58,664
1569923808,305.73,95.3244,-3.34863,176.704,5.80078,-146.58,664
1569923808,305.73,95.3244,-3.34863,176.704,5.80078,-146.58,664
1569923808,305.73,95.3244,-3.34863,176.704,5.80078,-146.58,664
1569923808,305.73,95.3244,-3.34863,176.704,5.80078,-146.58,664
1569923808,305.842,95.3244,-3.34863,176.704,5.80078,-146.58,668
1569923808,305.842,95.3244,-3.34863,176.704,5.80078,-146.58,668
1569923808,305.842,95.3244,-3.34863,176.704,5.80078,-146.58,668
1569923808,305.842,95.3244,-3.34863,176.704,5.80078,-146.58,668
1569923808,305.73,95.3244,-3.34863,176.704,5.80078,-146.58,668
1569923808,305.73,95.3244,-3.34863,176.704,5.80078,-146.58,672
1569923808,305.73,95.3244,-3.34863,176.704,5.80078,-146.58,672
1569923809,305.73,95.3244,-3.34863,176.704,5.80078,-146.58,672
1569923809,305.73,95.3244,-3.34863,176.704,5.80078,-146.58,672
1569923809,305.73,95.3244,-3.34863,176.704,5.80078,-146.58,672
1569923809,305.73,95.3244,-3.34863,176.704,5.80078,-146.58,672
1569923809,305.73,95.3244,-3.34863,176.704,5.80078,-146.58,672
1569923809,305.73,95.3244,-3.34863,176.704,5.80078,-146.58,676
1569923809,305.73,95.3244,-3.34863,176.704,5.80078,-146.58,676
1569923809,305.73,95.3244,-3.34863,176.704,5.80078,-146.58,676
1569923809,305.73,95.3244,-3.34863,176.704,5.80078,-146.58,676
1569923809,305.73,95.3244,-3.34863,176.704,5.80078,-146.58,676
1569923809,305.73,95.3244,-3.34863,176.726,5.80078,-146.58,676
1569923809,305.73,95.3244,-3.34863,176.726,5.80078,-146.58,676
1569923809,305.73,95.3244,-3.34863,176.726,5.80078,-146.58,676
1569923809,305.73,95.3244,-3.34863,176.726,5.80078,-146.58,676
1569923809,305.73,95.3244,-3.34863,176.726,5.80078,-146.58,676
1569923809,305.73,95.3244,-3.34863,176.726,5.80078,-146.58,676
1569923809,305.73,95.3244,-3.34863,176.726,5.80078,-146.58,676
1569923809,305.73,95.3244,-3.34863,176.726,5.80078,-146.602,676
1569923809,305.73,95.3244,-3.34863,176.726,5.80078,-146.602,676
1569923809,305.73,95.3244,-3.34863,176.726,5.80078,-146.602,676
1569923809,305.73,95.3244,-3.34863,176.726,5.80078,-146.602,676
1569923809,305.73,95.3244,-3.34863,176.726,5.80078,-146.602,676
1569923809,305.73,95.3244,-3.34863,176.726,5.80078,-146.58,680
1569923809,305.73,95.3244,-3.34863,176.726,5.80078,-146.58,680
1569923809,305.73,95.3244,-3.34863,176.726,5.80078,-146.58,680
1569923809,305.73,95.3244,-3.34863,176.726,5.80078,-146.58,680
1569923809,305.73,95.3244,-3.34863,176.726,5.80078,-146.58,680
1569923809,305.73,95.3244,-3.34863,176.726,5.80078,-146.58,680
1569923809,305.73,95.3244,-3.34863,176.726,5.80078,-146.58,684
1569923809,305.73,95.3244,-3.34863,176.726,5.77881,-146.58,684
1569923809,305.73,95.3244,-3.34863,176.726,5.77881,-146.58,684
1569923809,305.73,95.3244,-3.34863,176.726,5.77881,-146.58,684
1569923809,305.73,95.3244,-3.34863,176.726,5.77881,-146.58,684
1569923809,305.73,95.3244,-3.34863,176.704,5.77881,-146.58,684
1569923809,305.73,95.3244,-3.34863,176.704,5.77881,-146.58,684
1569923809,305.73,95.3244,-3.34863,176.704,5.77881,-146.58,684
1569923809,305.73,95.3244,-3.34863,176.704,5.77881,-146.58,684
1569923809,305.73,95.3244,-3.34863,176.704,5.77881,-146.58,688
1569923809,305.842,95.3244,-3.46025,176.704,5.77881,-146.58,688
1569923809,305.842,95.3244,-3.46025,176.704,5.77881,-146.58,688
1569923809,305.842,95.3244,-3.46025,176.726,5.77881,-146.58,688
1569923809,305.842,95.3244,-3.46025,176.726,5.77881,-146.58,688
1569923809,305.842,95.3244,-3.46025,176.726,5.77881,-146.58,688
1569923809,305.842,95.3244,-3.34863,176.726,5.77881,-146.58,688
1569923809,305.842,95.3244,-3.34863,176.726,5.77881,-146.58,688
1569923809,305.842,95.3244,-3.34863,176.726,5.77881,-146.58,684
1569923809,305.842,95.3244,-3.34863,176.726,5.77881,-146.58,684
1569923809,305.73,95.3244,-3.34863,176.726,5.77881,-146.58,684
1569923809,305.73,95.3244,-3.34863,176.726,5.77881,-146.58,684
1569923809,305.73,95.3244,-3.34863,176.726,5.77881,-146.58,684
1569923809,305.73,95.3244,-3.34863,176.726,5.77881,-146.58,684
1569923809,305.73,95.3244,-3.34863,176.726,5.77881,-146.58,684
1569923809,305.73,95.3244,-3.34863,176.726,5.77881,-146.58,684
1569923809,305.73,95.436,-3.34863,176.726,5.77881,-146.58,684
1569923809,305.73,95.436,-3.34863,176.726,5.77881,-146.58,684
1569923809,305.73,95.436,-3.34863,176.726,5.77881,-146.58,684
1569923809,305.73,95.436,-3.34863,176.726,5.77881,-146.58,680
1569923809,305.73,95.436,-3.34863,176.726,5.77881,-146.58,680
1569923809,305.73,95.436,-3.34863,176.726,5.77881,-146.58,680
1569923809,305.73,95.436,-3.34863,176.726,5.77881,-146.58,680
1569923809,305.73,95.3244,-3.34863,176.726,5.77881,-146.58,680
1569923809,305.73,95.3244,-3.34863,176.726,5.77881,-146.58,680
