time,x,y,z,ax,ay,az,q
1571222394,284.634,29.8028,-16.9664,179.143,1.18652,-145.481,536
1571222394,284.634,29.8028,-16.9664,179.165,1.18652,-145.481,536
1571222394,284.634,29.8028,-16.9664,179.165,1.18652,-145.481,536
1571222394,284.634,29.8028,-16.9664,179.165,1.18652,-145.481,536
1571222394,284.634,29.8028,-16.9664,179.165,1.18652,-145.481,536
1571222394,284.634,29.8028,-16.9664,179.165,1.18652,-145.481,536
1571222394,284.634,29.8028,-16.9664,179.165,1.16455,-145.481,536
1571222394,284.634,29.8028,-16.9664,179.165,1.16455,-145.481,536
1571222394,284.634,29.8028,-16.9664,179.165,1.16455,-145.481,536
1571222394,284.634,29.8028,-16.9664,179.165,1.16455,-145.481,536
1571222394,284.634,29.8028,-16.9664,179.165,1.16455,-145.481,536
1571222394,284.634,29.8028,-16.9664,179.165,1.16455,-145.481,536
1571222394,284.634,29.8028,-16.9664,179.165,1.16455,-145.481,536
1571222394,284.745,29.8028,-16.9664,179.165,1.16455,-145.481,536
1571222394,284.745,29.8028,-16.9664,179.165,1.16455,-145.481,540
1571222394,284.745,29.8028,-16.9664,179.165,1.16455,-145.481,540
1571222394,284.745,29.8028,-16.9664,179.165,1.16455,-145.481,540
1571222394,284.745,29.8028,-16.9664,179.165,1.16455,-145.481,540
1571222394,284.745,29.8028,-16.9664,179.165,1.16455,-145.481,540
1571222394,284.745,29.8028,-16.9664,179.165,1.16455,-145.481,540
1571222394,284.745,29.8028,-16.9664,179.165,1.16455,-145.481,540
1571222394,284.745,29.8028,-16.9664,179.165,1.16455,-145.481,540
1571222394,284.745,29.8028,-16.9664,179.165,1.16455,-145.481,540
1571222394,284.745,29.8028,-16.9664,179.165,1.16455,-145.481,540
1571222395,284.745,29.8028,-16.9664,179.165,1.16455,-145.481,540
1571222395,284.745,29.8028,-16.9664,179.165,1.16455,-145.481,540
1571222395,284.745,29.8028,-16.9664,179.165,1.16455,-145.481,540
1571222395,284.745,29.8028,-16.9664,179.165,1.18652,-145.481,540
1571222395,284.745,29.8028,-16.9664,179.165,1.18652,-145.481,540
1571222395,284.745,29.8028,-16.9664,179.165,1.18652,-145.481,540
1571222395,284.634,29.8028,-16.9664,179.165,1.18652,-145.481,540
1571222395,284.634,29.8028,-16.9664,179.165,1.18652,-145.481,540
1571222395,284.634,29.8028,-16.9664,179.165,1.18652,-145.481,540
1571222395,284.634,29.8028,-16.9664,179.165,1.18652,-145.481,540
1571222395,284.634,29.8028,-16.9664,179.165,1.18652,-145.481,540
1571222395,284.634,29.8028,-16.9664,179.165,1.18652,-145.481,540
1571222395,284.634,29.8028,-16.9664,179.165,1.18652,-145.481,540
1571222395,284.634,29.8028,-16.9664,179.165,1.18652,-145.481,540
1571222395,284.634,29.8028,-16.9664,179.165,1.18652,-145.481,540
1571222395,284.634,29.8028,-16.9664,179.165,1.18652,-145.481,540
1571222395,284.634,29.8028,-16.9664,179.165,1.18652,-145.481,540
1571222395,284.634,29.8028,-16.9664,179.165,1.18652,-145.481,540
1571222395,284.634,29.8028,-16.9664,179.165,1.18652,-145.481,540
1571222395,284.634,29.8028,-16.9664,179.165,1.18652,-145.481,540
1571222395,284.634,29.8028,-16.9664,179.165,1.18652,-145.481,544
1571222395,284.634,29.8028,-16.9664,179.165,1.18652,-145.481,544
1571222395,284.634,29.8028,-16.9664,179.165,1.18652,-145.481,544
1571222395,284.634,29.8028,-16.9664,179.165,1.18652,-145.481,544
1571222395,284.634,29.8028,-16.9664,179.165,1.18652,-145.481,544
1571222395,284.634,29.8028,-16.9664,179.165,1.18652,-145.481,544
1571222395,284.634,29.8028,-16.9664,179.165,1.18652,-145.481,544
1571222395,284.634,29.8028,-16.9664,179.165,1.18652,-145.481,544
1571222395,284.634,29.8028,-16.9664,179.165,1.18652,-145.481,544
1571222395,284.634,29.8028,-16.9664,179.165,1.18652,-145.481,544
1571222395,284.634,29.8028,-16.9664,179.165,1.18652,-145.481,544
1571222395,284.634,29.8028,-16.9664,179.165,1.16455,-145.481,548
1571222395,284.634,29.8028,-16.9664,179.165,1.16455,-145.481,548
1571222395,284.634,29.8028,-16.9664,179.143,1.16455,-145.481,548
1571222395,284.634,29.8028,-16.9664,179.143,1.16455,-145.481,548
1571222395,284.634,29.8028,-16.9664,179.143,1.16455,-145.481,548
1571222395,284.634,29.8028,-16.9664,179.143,1.16455,-145.481,548
1571222395,284.634,29.8028,-16.9664,179.143,1.16455,-145.481,548
1571222395,284.634,29.8028,-16.9664,179.143,1.16455,-145.481,552
1571222395,284.634,29.8028,-16.9664,179.143,1.16455,-145.481,552
1571222395,284.634,29.8028,-16.9664,179.165,1.16455,-145.481,552
1571222395,284.634,29.8028,-16.9664,179.165,1.16455,-145.481,552
1571222395,284.634,29.8028,-16.9664,179.165,1.16455,-145.481,552
1571222395,284.634,29.8028,-16.9664,179.165,1.18652,-145.481,552
1571222395,284.634,29.8028,-16.9664,179.165,1.18652,-145.481,552
1571222395,284.634,29.8028,-16.9664,179.165,1.18652,-145.481,552
1571222395,284.634,29.8028,-16.9664,179.165,1.18652,-145.481,552
1571222395,284.634,29.8028,-16.9664,179.165,1.18652,-145.481,552
1571222395,284.634,29.8028,-16.9664,179.143,1.16455,-145.481,552
1571222395,284.634,29.8028,-16.9664,179.143,1.16455,-145.481,552
1571222395,284.634,29.8028,-16.9664,179.143,1.16455,-145.481,552
1571222395,284.634,29.8028,-16.9664,179.143,1.16455,-145.481,552
1571222395,284.634,29.8028,-16.9664,179.143,1.16455,-145.481,552
1571222395,284.634,29.8028,-16.9664,179.143,1.16455,-145.481,552
1571222395,284.634,29.8028,-16.9664,179.143,1.16455,-145.481,552
1571222395,284.634,29.8028,-16.9664,179.143,1.16455,-145.481,552
1571222395,284.634,29.8028,-16.9664,179.143,1.16455,-145.481,552
1571222395,284.634,29.8028,-16.9664,179.143,1.16455,-145.481,552
1571222395,284.634,29.8028,-16.9664,179.143,1.16455,-145.481,552
1571222395,284.634,29.8028,-16.9664,179.143,1.16455,-145.481,552
1571222395,284.634,29.8028,-16.9664,179.143,1.16455,-145.481,548
1571222395,284.634,29.8028,-16.9664,179.143,1.16455,-145.481,548
1571222395,284.634,29.8028,-16.9664,179.143,1.16455,-145.481,548
1571222395,284.634,29.8028,-16.9664,179.165,1.16455,-145.481,548
1571222395,284.634,29.8028,-16.9664,179.165,1.16455,-145.481,548
1571222395,284.634,29.8028,-16.9664,179.165,1.16455,-145.481,548
1571222395,284.634,29.8028,-16.9664,179.165,1.18652,-145.481,548
1571222395,284.634,29.8028,-16.9664,179.165,1.18652,-145.481,548
1571222395,284.634,29.8028,-16.9664,179.165,1.18652,-145.481,548
1571222395,284.634,29.8028,-16.9664,179.165,1.18652,-145.481,544
1571222395,284.634,29.8028,-16.9664,179.165,1.18652,-145.481,544
1571222395,284.634,29.8028,-16.9664,179.165,1.18652,-145.481,544
1571222395,284.634,29.8028,-16.9664,179.165,1.18652,-145.481,544
1571222395,284.634,29.8028,-16.9664,179.165,1.18652,-145.481,544
1571222395,284.634,29.8028,-16.9664,179.165,1.18652,-145.481,544
1571222395,284.634,29.8028,-16.9664,179.165,1.18652,-145.481,544
1571222395,284.634,29.8028,-16.9664,179.165,1.18652,-145.481,544
1571222395,284.634,29.8028,-16.9664,179.165,1.18652,-145.481,544
1571222395,284.634,29.8028,-16.9664,179.165,1.18652,-145.481,544
1571222395,284.634,29.8028,-16.9664,179.165,1.18652,-145.481,544
1571222395,284.634,29.8028,-16.9664,179.165,1.18652,-145.481,544
1571222395,284.634,29.8028,-16.9664,179.165,1.18652,-145.481,548
1571222395,284.634,29.8028,-16.9664,179.165,1.18652,-145.481,548
1571222395,284.634,29.8028,-16.9664,179.165,1.18652,-145.481,548
1571222395,284.634,29.8028,-16.9664,179.165,1.18652,-145.481,548
1571222395,284.634,29.8028,-16.9664,179.165,1.18652,-145.481,548
1571222395,284.634,29.8028,-16.9664,179.165,1.18652,-145.481,548
1571222395,284.634,29.8028,-16.9664,179.165,1.18652,-145.481,548
1571222395,284.634,29.8028,-16.9664,179.165,1.18652,-145.481,548
1571222395,284.634,29.8028,-16.9664,179.165,1.18652,-145.481,544
1571222395,284.634,29.8028,-16.9664,179.165,1.18652,-145.481,544
1571222395,284.634,29.8028,-16.9664,179.165,1.18652,-145.481,544
1571222395,284.634,29.8028,-16.9664,179.165,1.18652,-145.481,544
1571222395,284.634,29.8028,-16.9664,179.165,1.18652,-145.481,548
1571222395,284.634,29.8028,-16.9664,179.165,1.18652,-145.481,548
1571222395,284.634,29.8028,-16.9664,179.165,1.16455,-145.481,548
1571222395,284.634,29.8028,-16.9664,179.165,1.16455,-145.481,548
1571222395,284.634,29.8028,-16.9664,179.165,1.16455,-145.481,548
1571222395,284.634,29.8028,-16.9664,179.165,1.16455,-145.481,548
1571222395,284.634,29.8028,-16.9664,179.165,1.16455,-145.481,548
1571222396,284.634,29.8028,-16.9664,179.165,1.16455,-145.481,548
1571222396,284.634,29.8028,-16.9664,179.165,1.16455,-145.481,548
1571222396,284.634,29.8028,-16.9664,179.165,1.16455,-145.481,548
1571222396,284.634,29.8028,-16.9664,179.165,1.16455,-145.481,548
1571222396,284.634,29.8028,-16.9664,179.165,1.16455,-145.481,548
1571222396,284.634,29.8028,-16.9664,179.165,1.16455,-145.481,548
1571222396,284.634,29.8028,-16.9664,179.165,1.16455,-145.481,548
1571222396,284.634,29.8028,-16.9664,179.165,1.16455,-145.481,548
1571222396,284.634,29.8028,-16.9664,179.165,1.16455,-145.481,544
1571222396,284.634,29.8028,-16.9664,179.165,1.16455,-145.481,544
1571222396,284.634,29.8028,-16.9664,179.165,1.16455,-145.481,544
1571222396,284.634,29.8028,-16.9664,179.165,1.16455,-145.481,544
1571222396,284.634,29.8028,-16.9664,179.165,1.16455,-145.481,544
1571222396,284.634,29.8028,-16.9664,179.165,1.16455,-145.481,544
1571222396,284.634,29.8028,-16.9664,179.165,1.16455,-145.481,540
1571222396,284.634,29.8028,-16.9664,179.165,1.16455,-145.481,540
1571222396,284.634,29.8028,-16.9664,179.165,1.16455,-145.481,540
1571222396,284.634,29.8028,-16.9664,179.165,1.16455,-145.481,540
1571222396,284.634,29.8028,-16.9664,179.165,1.16455,-145.481,540
1571222396,284.634,29.8028,-16.9664,179.165,1.16455,-145.481,540
1571222396,284.634,29.8028,-16.9664,179.165,1.16455,-145.481,540
1571222396,284.634,29.8028,-16.9664,179.165,1.16455,-145.481,536
1571222396,284.634,29.8028,-16.9664,179.165,1.16455,-145.481,536
1571222396,284.634,29.8028,-16.9664,179.165,1.16455,-145.481,536
1571222396,284.634,29.9145,-16.9664,179.165,1.16455,-145.481,536
1571222396,284.634,29.9145,-16.9664,179.165,1.16455,-145.481,536
1571222396,284.634,29.8028,-16.9664,179.165,1.16455,-145.481,536
1571222396,284.634,29.8028,-16.9664,179.165,1.16455,-145.481,536
1571222396,284.634,29.8028,-16.9664,179.165,1.16455,-145.481,536
1571222396,284.634,29.8028,-16.9664,179.165,1.16455,-145.481,536
1571222396,284.634,29.8028,-16.9664,179.165,1.16455,-145.481,536
1571222396,284.634,29.8028,-16.9664,179.165,1.16455,-145.481,536
1571222396,284.634,29.8028,-16.9664,179.165,1.16455,-145.481,536
1571222396,284.634,29.8028,-16.9664,179.165,1.16455,-145.481,536
1571222396,284.634,29.8028,-16.9664,179.165,1.16455,-145.481,536
1571222396,284.634,29.8028,-16.9664,179.165,1.16455,-145.481,536
1571222396,284.634,29.8028,-16.9664,179.165,1.16455,-145.481,536
1571222396,284.634,29.8028,-16.9664,179.165,1.16455,-145.481,536
1571222396,284.634,29.8028,-16.9664,179.165,1.16455,-145.481,536
1571222396,284.634,29.8028,-16.9664,179.165,1.16455,-145.481,536
1571222396,284.634,29.8028,-16.9664,179.165,1.16455,-145.481,536
1571222396,284.634,29.8028,-16.9664,179.165,1.16455,-145.481,540
1571222396,284.634,29.8028,-16.9664,179.165,1.16455,-145.481,540
1571222396,284.634,29.8028,-16.9664,179.165,1.16455,-145.481,540
1571222396,284.634,29.8028,-16.9664,179.165,1.16455,-145.481,540
1571222396,284.634,29.8028,-16.9664,179.165,1.16455,-145.481,540
1571222396,284.634,29.8028,-16.9664,179.165,1.16455,-145.481,540
1571222396,284.634,29.8028,-16.9664,179.165,1.16455,-145.481,540
1571222396,284.634,29.8028,-16.9664,179.165,1.16455,-145.481,540
1571222396,284.634,29.8028,-16.9664,179.165,1.16455,-145.481,540
1571222396,284.634,29.8028,-16.9664,179.165,1.18652,-145.481,540
1571222396,284.634,29.8028,-16.9664,179.143,1.18652,-145.481,540
1571222396,284.634,29.8028,-16.9664,179.143,1.18652,-145.481,540
1571222396,284.634,29.8028,-16.9664,179.143,1.18652,-145.481,540
1571222396,284.634,29.8028,-16.9664,179.143,1.18652,-145.481,540
1571222396,284.634,29.8028,-16.9664,179.143,1.18652,-145.481,540
1571222396,284.634,29.8028,-16.9664,179.143,1.18652,-145.481,540
1571222396,284.634,29.8028,-16.9664,179.143,1.18652,-145.481,540
1571222396,284.634,29.8028,-16.9664,179.143,1.18652,-145.481,540
1571222396,284.634,29.8028,-16.9664,179.143,1.18652,-145.481,540
1571222396,284.634,29.8028,-16.9664,179.143,1.18652,-145.481,540
1571222396,284.634,29.8028,-16.9664,179.143,1.18652,-145.481,536
1571222396,284.634,29.8028,-16.9664,179.143,1.18652,-145.481,536
1571222396,284.634,29.8028,-16.9664,179.143,1.18652,-145.481,536
1571222396,284.634,29.8028,-16.9664,179.143,1.18652,-145.481,536
1571222396,284.634,29.8028,-16.9664,179.143,1.16455,-145.481,536
1571222396,284.634,29.8028,-16.9664,179.143,1.16455,-145.481,536
1571222396,284.634,29.8028,-16.9664,179.143,1.16455,-145.481,536
1571222396,284.634,29.8028,-16.9664,179.143,1.16455,-145.481,536
1571222396,284.634,29.8028,-16.9664,179.143,1.16455,-145.481,536
1571222396,284.634,29.8028,-16.9664,179.143,1.16455,-145.481,536
1571222396,284.634,29.8028,-16.9664,179.143,1.16455,-145.481,536
1571222396,284.634,29.8028,-16.9664,179.143,1.16455,-145.481,536
1571222396,284.634,29.8028,-16.9664,179.143,1.16455,-145.481,536
1571222396,284.634,29.8028,-16.9664,179.143,1.16455,-145.481,536
1571222396,284.634,29.8028,-16.9664,179.143,1.16455,-145.481,536
1571222396,284.634,29.8028,-16.9664,179.143,1.16455,-145.481,536
1571222396,284.634,29.8028,-16.9664,179.143,1.16455,-145.481,536
1571222396,284.634,29.8028,-16.9664,179.143,1.16455,-145.481,536
1571222396,284.634,29.8028,-16.9664,179.143,1.16455,-145.481,536
1571222396,284.634,29.8028,-16.9664,179.143,1.16455,-145.481,536
1571222396,284.634,29.8028,-16.9664,179.143,1.16455,-145.481,536
1571222396,284.634,29.8028,-16.9664,179.165,1.16455,-145.481,536
1571222396,284.634,29.8028,-16.9664,179.165,1.16455,-145.481,536
1571222396,284.634,29.8028,-16.9664,179.165,1.16455,-145.481,536
1571222396,284.634,29.8028,-16.9664,179.165,1.16455,-145.481,536
1571222396,284.634,29.8028,-16.9664,179.165,1.16455,-145.481,536
1571222396,284.634,29.8028,-16.9664,179.165,1.16455,-145.481,540
1571222396,284.634,29.8028,-16.9664,179.165,1.16455,-145.481,540
1571222396,284.634,29.8028,-16.9664,179.165,1.16455,-145.481,540
1571222396,284.634,29.8028,-16.9664,179.165,1.16455,-145.481,540
1571222396,284.634,29.8028,-16.9664,179.165,1.16455,-145.481,540
1571222396,284.634,29.8028,-16.9664,179.165,1.16455,-145.481,540
1571222396,284.634,29.8028,-16.9664,179.165,1.16455,-145.481,540
1571222396,284.634,29.8028,-16.9664,179.165,1.16455,-145.481,540
1571222396,284.634,29.8028,-16.9664,179.165,1.16455,-145.481,540
1571222396,284.634,29.8028,-16.9664,179.165,1.16455,-145.481,540
1571222396,284.634,29.8028,-16.9664,179.165,1.16455,-145.481,540
1571222396,284.634,29.8028,-16.9664,179.165,1.16455,-145.481,540
1571222396,284.634,29.8028,-16.9664,179.165,1.16455,-145.481,540
1571222397,284.634,29.8028,-16.9664,179.165,1.16455,-145.481,540
1571222397,284.634,29.8028,-16.9664,179.165,1.16455,-145.481,540
1571222397,284.634,29.8028,-16.9664,179.165,1.16455,-145.481,544
1571222397,284.634,29.8028,-16.9664,179.165,1.16455,-145.481,544
1571222397,284.634,29.8028,-16.9664,179.165,1.16455,-145.481,544
1571222397,284.634,29.8028,-16.9664,179.165,1.16455,-145.481,544
1571222397,284.634,29.8028,-16.9664,179.165,1.16455,-145.481,544
1571222397,284.634,29.8028,-16.9664,179.165,1.16455,-145.481,544
1571222397,284.634,29.8028,-16.9664,179.165,1.16455,-145.481,544
1571222397,284.634,29.8028,-16.9664,179.165,1.16455,-145.481,544
1571222397,284.634,29.8028,-16.9664,179.165,1.16455,-145.481,544
1571222397,284.634,29.8028,-16.9664,179.165,1.16455,-145.481,544
1571222397,284.634,29.8028,-16.9664,179.165,1.16455,-145.481,544
1571222397,284.634,29.8028,-16.9664,179.165,1.16455,-145.481,544
1571222397,284.634,29.8028,-16.9664,179.165,1.16455,-145.481,544
1571222397,284.634,29.8028,-16.9664,179.165,1.16455,-145.481,548
1571222397,284.634,29.8028,-16.9664,179.165,1.16455,-145.481,548
1571222397,284.634,29.8028,-16.9664,179.165,1.16455,-145.481,548
1571222397,284.634,29.8028,-16.9664,179.165,1.16455,-145.481,548
1571222397,284.634,29.8028,-16.9664,179.143,1.16455,-145.481,548
1571222397,284.634,29.8028,-16.9664,179.143,1.16455,-145.481,548
1571222397,284.634,29.8028,-16.9664,179.143,1.16455,-145.481,548
1571222397,284.634,29.8028,-16.9664,179.143,1.14258,-145.481,548
1571222397,284.634,29.8028,-16.9664,179.143,1.14258,-145.481,548
1571222397,284.634,29.8028,-16.9664,179.143,1.14258,-145.481,548
1571222397,284.634,29.8028,-16.9664,179.143,1.14258,-145.481,548
1571222397,284.634,29.8028,-16.9664,179.143,1.14258,-145.481,548
1571222397,284.634,29.8028,-16.9664,179.143,1.14258,-145.481,548
1571222397,284.634,29.8028,-17.078,179.143,1.14258,-145.481,544
1571222397,284.634,29.8028,-17.078,179.143,1.14258,-145.481,544
1571222397,284.634,29.8028,-16.9664,179.143,1.14258,-145.481,544
1571222397,284.634,29.8028,-16.9664,179.143,1.14258,-145.481,544
1571222397,284.634,29.8028,-16.9664,179.143,1.14258,-145.481,544
1571222397,284.634,29.8028,-16.9664,179.143,1.14258,-145.481,544
1571222397,284.634,29.8028,-16.9664,179.143,1.14258,-145.481,544
1571222397,284.634,29.8028,-16.9664,179.143,1.14258,-145.481,544
1571222397,284.634,29.8028,-16.9664,179.143,1.16455,-145.481,544
1571222397,284.634,29.8028,-16.9664,179.143,1.16455,-145.481,544
1571222397,284.634,29.8028,-16.9664,179.143,1.16455,-145.481,544
1571222397,284.634,29.8028,-16.9664,179.143,1.16455,-145.481,544
1571222397,284.634,29.8028,-16.9664,179.143,1.16455,-145.481,544
1571222397,284.634,29.8028,-16.9664,179.143,1.16455,-145.481,544
1571222397,284.634,29.8028,-16.9664,179.143,1.16455,-145.481,544
1571222397,284.634,29.8028,-16.9664,179.143,1.16455,-145.481,544
1571222397,284.634,29.8028,-16.9664,179.143,1.16455,-145.481,544
1571222397,284.634,29.8028,-16.9664,179.143,1.16455,-145.481,544
1571222397,284.634,29.8028,-16.9664,179.143,1.16455,-145.481,544
1571222397,284.634,29.8028,-16.9664,179.143,1.16455,-145.481,544
1571222397,284.634,29.8028,-16.9664,179.143,1.16455,-145.481,544
1571222397,284.634,29.8028,-16.9664,179.143,1.16455,-145.481,544
1571222397,284.634,29.8028,-16.9664,179.143,1.16455,-145.481,544
1571222397,284.634,29.8028,-16.9664,179.143,1.16455,-145.481,544
1571222397,284.634,29.8028,-16.9664,179.143,1.16455,-145.481,540
1571222397,284.634,29.8028,-16.9664,179.143,1.16455,-145.481,540
1571222397,284.634,29.8028,-16.9664,179.143,1.16455,-145.481,540
1571222397,284.634,29.8028,-16.9664,179.143,1.16455,-145.481,540
1571222397,284.634,29.8028,-16.9664,179.143,1.16455,-145.481,540
1571222397,284.634,29.8028,-16.9664,179.143,1.16455,-145.481,540
1571222397,284.634,29.8028,-16.9664,179.143,1.16455,-145.481,540
1571222397,284.634,29.8028,-16.9664,179.143,1.16455,-145.481,540
1571222397,284.634,29.8028,-16.9664,179.143,1.16455,-145.481,540
1571222397,284.634,29.8028,-16.9664,179.143,1.16455,-145.481,540
1571222397,284.634,29.8028,-16.9664,179.143,1.16455,-145.481,540
1571222397,284.634,29.8028,-16.9664,179.143,1.16455,-145.481,540
1571222397,284.634,29.8028,-16.9664,179.143,1.16455,-145.481,540
1571222397,284.634,29.8028,-16.9664,179.143,1.16455,-145.481,540
1571222397,284.634,29.8028,-16.9664,179.143,1.16455,-145.481,540
1571222397,284.634,29.8028,-16.9664,179.143,1.16455,-145.481,540
1571222397,284.634,29.8028,-16.9664,179.143,1.16455,-145.481,540
1571222397,284.634,29.8028,-16.9664,179.143,1.16455,-145.481,540
1571222397,284.634,29.8028,-16.9664,179.143,1.16455,-145.481,540
1571222397,284.634,29.8028,-16.9664,179.143,1.16455,-145.481,540
1571222397,284.634,29.8028,-16.9664,179.165,1.16455,-145.481,540
1571222397,284.634,29.8028,-16.9664,179.165,1.16455,-145.481,540
1571222397,284.634,29.8028,-16.9664,179.165,1.16455,-145.481,540
1571222397,284.634,29.8028,-16.9664,179.165,1.16455,-145.481,540
1571222397,284.634,29.8028,-16.9664,179.165,1.16455,-145.481,540
1571222397,284.634,29.8028,-16.9664,179.165,1.16455,-145.481,540
1571222397,284.634,29.8028,-16.9664,179.165,1.16455,-145.481,540
1571222397,284.634,29.8028,-16.9664,179.165,1.16455,-145.481,540
1571222397,284.634,29.8028,-16.9664,179.165,1.16455,-145.481,540
1571222397,284.634,29.8028,-16.9664,179.165,1.16455,-145.481,540
1571222397,284.634,29.8028,-16.9664,179.165,1.16455,-145.481,540
1571222397,284.634,29.8028,-16.9664,179.165,1.16455,-145.481,540
1571222397,284.634,29.8028,-16.9664,179.165,1.16455,-145.481,540
1571222397,284.634,29.8028,-16.9664,179.165,1.16455,-145.481,540
1571222397,284.634,29.8028,-16.9664,179.165,1.18652,-145.481,540
1571222397,284.634,29.8028,-16.9664,179.165,1.18652,-145.481,540
1571222397,284.634,29.8028,-16.9664,179.165,1.18652,-145.481,540
1571222397,284.634,29.8028,-16.9664,179.165,1.18652,-145.481,540
1571222397,284.634,29.8028,-16.9664,179.165,1.18652,-145.481,540
1571222397,284.634,29.8028,-16.9664,179.165,1.18652,-145.481,540
1571222397,284.634,29.8028,-16.9664,179.165,1.18652,-145.481,540
1571222397,284.634,29.8028,-16.9664,179.187,1.18652,-145.481,544
1571222397,284.634,29.8028,-16.9664,179.187,1.18652,-145.481,544
1571222397,284.634,29.8028,-16.9664,179.187,1.18652,-145.481,544
1571222397,284.634,29.8028,-16.9664,179.187,1.18652,-145.481,544
1571222397,284.634,29.8028,-16.9664,179.187,1.18652,-145.481,544
1571222397,284.634,29.8028,-16.9664,179.187,1.18652,-145.481,544
1571222397,284.634,29.8028,-16.9664,179.187,1.18652,-145.481,548
1571222398,284.634,29.8028,-16.9664,179.165,1.18652,-145.481,548
1571222398,284.634,29.8028,-16.9664,179.165,1.18652,-145.481,548
1571222398,284.634,29.8028,-16.9664,179.165,1.18652,-145.481,548
1571222398,284.634,29.8028,-16.9664,179.165,1.18652,-145.481,548
1571222398,284.634,29.8028,-16.9664,179.165,1.18652,-145.481,552
1571222398,284.634,29.8028,-16.9664,179.165,1.18652,-145.481,552
1571222398,284.634,29.8028,-16.9664,179.165,1.18652,-145.481,552
1571222398,284.634,29.8028,-16.9664,179.165,1.18652,-145.481,552
1571222398,284.634,29.8028,-16.9664,179.165,1.18652,-145.481,552
1571222398,284.634,29.8028,-16.9664,179.165,1.18652,-145.481,552
1571222398,284.634,29.8028,-16.9664,179.165,1.18652,-145.481,552
1571222398,284.634,29.8028,-16.9664,179.165,1.18652,-145.481,552
1571222398,284.634,29.8028,-16.9664,179.165,1.18652,-145.481,552
1571222398,284.634,29.8028,-16.9664,179.165,1.18652,-145.481,552
1571222398,284.634,29.8028,-16.9664,179.165,1.18652,-145.481,552
1571222398,284.634,29.8028,-16.9664,179.165,1.18652,-145.481,552
1571222398,284.634,29.8028,-16.9664,179.165,1.18652,-145.481,552
1571222398,284.634,29.8028,-16.9664,179.165,1.16455,-145.481,552
1571222398,284.634,29.8028,-16.9664,179.165,1.16455,-145.481,552
1571222398,284.634,29.8028,-16.9664,179.165,1.16455,-145.481,552
1571222398,284.634,29.8028,-16.9664,179.165,1.16455,-145.481,552
1571222398,284.634,29.8028,-16.9664,179.165,1.16455,-145.481,548
1571222398,284.634,29.8028,-16.9664,179.165,1.16455,-145.481,548
1571222398,284.634,29.8028,-16.9664,179.165,1.16455,-145.481,548
1571222398,284.634,29.8028,-16.9664,179.165,1.16455,-145.481,548
1571222398,284.634,29.8028,-16.9664,179.165,1.16455,-145.481,548
1571222398,284.634,29.8028,-16.9664,179.165,1.16455,-145.481,548
1571222398,284.634,29.8028,-16.9664,179.165,1.16455,-145.481,548
1571222398,284.634,29.8028,-16.9664,179.165,1.16455,-145.481,548
1571222398,284.634,29.8028,-16.9664,179.165,1.16455,-145.481,548
1571222398,284.634,29.8028,-16.9664,179.143,1.16455,-145.481,548
1571222398,284.634,29.8028,-16.9664,179.143,1.16455,-145.481,548
1571222398,284.634,29.8028,-16.9664,179.143,1.16455,-145.481,548
1571222398,284.634,29.8028,-16.9664,179.143,1.16455,-145.481,548
1571222398,284.634,29.8028,-16.9664,179.143,1.16455,-145.481,548
1571222398,284.634,29.8028,-16.9664,179.143,1.16455,-145.481,548
1571222398,284.634,29.8028,-16.9664,179.143,1.16455,-145.481,548
1571222398,284.634,29.8028,-16.9664,179.143,1.16455,-145.481,548
1571222398,284.634,29.8028,-16.9664,179.143,1.16455,-145.481,548
1571222398,284.634,29.8028,-16.9664,179.143,1.16455,-145.481,548
1571222398,284.634,29.8028,-16.9664,179.165,1.16455,-145.481,548
1571222398,284.634,29.8028,-16.9664,179.165,1.16455,-145.481,544
1571222398,284.634,29.8028,-16.9664,179.165,1.16455,-145.481,544
1571222398,284.634,29.8028,-16.9664,179.165,1.16455,-145.481,544
1571222398,284.634,29.8028,-16.9664,179.165,1.16455,-145.481,544
1571222398,284.634,29.8028,-16.9664,179.165,1.16455,-145.481,544
1571222398,284.634,29.8028,-16.9664,179.165,1.16455,-145.481,544
1571222398,284.634,29.8028,-16.9664,179.165,1.16455,-145.481,544
1571222398,284.634,29.8028,-16.9664,179.165,1.16455,-145.481,544
1571222398,284.634,29.8028,-16.9664,179.143,1.16455,-145.481,544
1571222398,284.745,29.8028,-16.9664,179.143,1.16455,-145.481,544
1571222398,284.745,29.8028,-16.9664,179.165,1.16455,-145.481,544
1571222398,284.745,29.8028,-16.9664,179.165,1.16455,-145.481,544
1571222398,284.745,29.8028,-16.9664,179.165,1.16455,-145.481,544
1571222398,284.745,29.8028,-16.9664,179.165,1.16455,-145.481,544
1571222398,284.745,29.8028,-16.9664,179.165,1.16455,-145.481,544
1571222398,284.745,29.8028,-16.9664,179.165,1.16455,-145.481,544
1571222398,284.745,29.8028,-16.9664,179.165,1.16455,-145.481,544
1571222398,284.745,29.8028,-16.9664,179.165,1.16455,-145.481,544
1571222398,284.745,29.8028,-16.9664,179.165,1.16455,-145.481,544
1571222398,284.745,29.8028,-16.9664,179.165,1.16455,-145.481,544
1571222398,284.634,29.8028,-16.9664,179.165,1.16455,-145.481,544
1571222398,284.634,29.8028,-16.9664,179.165,1.16455,-145.481,544
1571222398,284.634,29.8028,-16.9664,179.165,1.16455,-145.481,544
1571222398,284.634,29.8028,-16.9664,179.165,1.16455,-145.481,544
1571222398,284.634,29.8028,-16.9664,179.165,1.16455,-145.481,544
1571222398,284.634,29.8028,-16.9664,179.165,1.16455,-145.481,544
1571222398,284.634,29.8028,-16.9664,179.165,1.16455,-145.481,544
1571222398,284.634,29.8028,-16.9664,179.165,1.16455,-145.481,540
1571222398,284.634,29.8028,-16.9664,179.165,1.16455,-145.481,540
1571222398,284.634,29.8028,-16.9664,179.165,1.16455,-145.481,540
1571222398,284.634,29.8028,-16.9664,179.165,1.16455,-145.481,540
1571222398,284.634,29.8028,-16.9664,179.165,1.16455,-145.481,540
1571222398,284.634,29.8028,-16.9664,179.165,1.16455,-145.481,540
1571222398,284.634,29.8028,-16.9664,179.165,1.16455,-145.481,540
1571222398,284.634,29.8028,-16.9664,179.165,1.14258,-145.481,540
1571222398,284.634,29.8028,-16.9664,179.165,1.14258,-145.481,540
1571222398,284.634,29.8028,-16.9664,179.165,1.14258,-145.481,540
1571222398,284.634,29.8028,-17.078,179.165,1.14258,-145.481,540
1571222398,284.634,29.8028,-17.078,179.165,1.14258,-145.481,540
1571222398,284.634,29.8028,-17.078,179.165,1.14258,-145.481,540
1571222398,284.634,29.8028,-17.078,179.165,1.14258,-145.481,540
1571222398,284.634,29.8028,-17.078,179.165,1.14258,-145.481,540
1571222398,284.634,29.8028,-17.078,179.165,1.14258,-145.481,540
1571222398,284.634,29.8028,-17.078,179.165,1.14258,-145.481,540
1571222398,284.634,29.8028,-17.078,179.165,1.14258,-145.481,540
1571222398,284.634,29.8028,-17.078,179.165,1.14258,-145.481,540
1571222398,284.634,29.8028,-17.078,179.165,1.14258,-145.481,540
1571222398,284.634,29.8028,-17.078,179.165,1.14258,-145.481,540
1571222398,284.634,29.8028,-17.078,179.165,1.14258,-145.481,536
1571222398,284.634,29.8028,-17.078,179.165,1.14258,-145.481,536
1571222398,284.634,29.8028,-17.078,179.165,1.14258,-145.481,536
1571222398,284.634,29.8028,-17.078,179.165,1.14258,-145.481,536
1571222398,284.634,29.8028,-17.078,179.165,1.14258,-145.481,536
1571222398,284.634,29.8028,-17.078,179.165,1.14258,-145.481,536
1571222398,284.634,29.8028,-17.078,179.165,1.14258,-145.481,536
1571222398,284.634,29.8028,-17.078,179.165,1.14258,-145.481,536
1571222398,284.634,29.8028,-17.078,179.165,1.14258,-145.481,536
1571222398,284.745,29.8028,-16.9664,179.165,1.14258,-145.481,532
1571222398,284.745,29.8028,-16.9664,179.165,1.14258,-145.481,532
1571222399,284.745,29.8028,-16.9664,179.165,1.14258,-145.481,532
1571222399,284.745,29.8028,-16.9664,179.165,1.14258,-145.481,532
1571222399,284.745,29.8028,-16.9664,179.165,1.14258,-145.481,532
1571222399,284.745,29.8028,-16.9664,179.165,1.14258,-145.481,532
1571222399,284.745,29.8028,-16.9664,179.165,1.14258,-145.481,532
1571222399,284.745,29.8028,-16.9664,179.165,1.14258,-145.481,532
1571222399,284.745,29.8028,-16.9664,179.165,1.14258,-145.481,528
1571222399,284.745,29.8028,-16.9664,179.165,1.14258,-145.481,528
1571222399,284.745,29.8028,-16.9664,179.165,1.14258,-145.481,528
1571222399,284.745,29.8028,-16.9664,179.165,1.16455,-145.481,528
1571222399,284.745,29.8028,-16.9664,179.165,1.16455,-145.481,528
1571222399,284.745,29.8028,-16.9664,179.165,1.16455,-145.481,528
1571222399,284.745,29.8028,-16.9664,179.165,1.16455,-145.481,528
1571222399,284.745,29.8028,-16.9664,179.165,1.16455,-145.481,528
1571222399,284.745,29.8028,-16.9664,179.165,1.16455,-145.481,528
1571222399,284.745,29.8028,-16.9664,179.165,1.16455,-145.481,532
1571222399,284.745,29.8028,-16.9664,179.165,1.16455,-145.481,532
1571222399,284.745,29.8028,-16.9664,179.165,1.16455,-145.481,532
1571222399,284.745,29.8028,-16.9664,179.165,1.16455,-145.481,532
1571222399,284.745,29.8028,-16.9664,179.165,1.16455,-145.481,532
1571222399,284.745,29.8028,-16.9664,179.165,1.16455,-145.481,532
1571222399,284.745,29.8028,-16.9664,179.165,1.16455,-145.481,532
1571222399,284.745,29.8028,-16.9664,179.165,1.16455,-145.481,532
1571222399,284.745,29.8028,-16.9664,179.165,1.16455,-145.481,532
1571222399,284.745,29.8028,-16.9664,179.165,1.16455,-145.481,532
1571222399,284.745,29.8028,-16.9664,179.165,1.16455,-145.481,532
1571222399,284.745,29.8028,-16.9664,179.165,1.16455,-145.481,532
1571222399,284.745,29.8028,-16.9664,179.165,1.16455,-145.481,532
1571222399,284.745,29.8028,-16.9664,179.165,1.16455,-145.481,532
1571222399,284.745,29.8028,-16.9664,179.165,1.16455,-145.481,532
1571222399,284.745,29.8028,-16.9664,179.165,1.16455,-145.481,536
1571222399,284.745,29.8028,-16.9664,179.165,1.16455,-145.481,536
1571222399,284.745,29.8028,-16.9664,179.165,1.16455,-145.481,536
1571222399,284.745,29.8028,-16.9664,179.165,1.16455,-145.481,536
1571222399,284.745,29.8028,-16.9664,179.165,1.14258,-145.481,536
1571222399,284.745,29.8028,-16.9664,179.165,1.14258,-145.481,536
1571222399,284.745,29.8028,-16.9664,179.165,1.14258,-145.481,536
1571222399,284.745,29.8028,-16.9664,179.165,1.14258,-145.481,536
1571222399,284.745,29.8028,-16.9664,179.165,1.14258,-145.481,536
1571222399,284.745,29.8028,-16.9664,179.165,1.14258,-145.481,536
1571222399,284.745,29.8028,-16.9664,179.165,1.14258,-145.481,536
1571222399,284.745,29.8028,-16.9664,179.165,1.14258,-145.481,536
1571222399,284.745,29.8028,-16.9664,179.165,1.14258,-145.481,536
1571222399,284.745,29.8028,-16.9664,179.165,1.14258,-145.481,536
1571222399,284.745,29.8028,-16.9664,179.165,1.14258,-145.481,536
1571222399,284.745,29.8028,-16.9664,179.165,1.14258,-145.481,536
1571222399,284.745,29.8028,-16.9664,179.165,1.14258,-145.481,536
1571222399,284.745,29.8028,-16.9664,179.165,1.14258,-145.481,536
1571222399,284.745,29.8028,-16.9664,179.165,1.14258,-145.481,532
1571222399,284.745,29.8028,-16.9664,179.165,1.14258,-145.481,532
1571222399,284.745,29.8028,-16.9664,179.165,1.14258,-145.481,532
1571222399,284.745,29.8028,-16.9664,179.165,1.14258,-145.481,532
1571222399,284.745,29.8028,-16.9664,179.165,1.14258,-145.481,532
1571222399,284.745,29.8028,-16.9664,179.165,1.14258,-145.481,532
1571222399,284.745,29.8028,-16.9664,179.165,1.14258,-145.481,532
1571222399,284.745,29.8028,-16.9664,179.165,1.14258,-145.481,532
1571222399,284.745,29.8028,-16.9664,179.165,1.16455,-145.481,532
1571222399,284.745,29.8028,-16.9664,179.165,1.16455,-145.481,532
1571222399,284.745,29.8028,-16.9664,179.165,1.16455,-145.481,532
1571222399,284.745,29.8028,-16.9664,179.165,1.16455,-145.481,532
1571222399,284.745,29.8028,-16.9664,179.143,1.16455,-145.481,532
1571222399,284.745,29.8028,-16.9664,179.143,1.16455,-145.481,532
1571222399,284.745,29.8028,-16.9664,179.143,1.16455,-145.481,532
1571222399,284.745,29.8028,-16.9664,179.143,1.16455,-145.481,532
1571222399,284.745,29.8028,-16.9664,179.143,1.16455,-145.481,532
1571222399,284.745,29.8028,-16.9664,179.143,1.16455,-145.481,532
1571222399,284.745,29.8028,-16.9664,179.143,1.16455,-145.481,532
1571222399,284.745,29.8028,-16.9664,179.143,1.16455,-145.481,532
1571222399,284.745,29.8028,-16.9664,179.143,1.16455,-145.481,532
1571222399,284.745,29.8028,-16.9664,179.143,1.16455,-145.481,532
1571222399,284.745,29.8028,-16.9664,179.143,1.16455,-145.481,532
1571222399,284.745,29.8028,-16.9664,179.143,1.16455,-145.481,532
1571222399,284.745,29.8028,-16.9664,179.143,1.16455,-145.481,532
1571222399,284.745,29.8028,-16.9664,179.143,1.16455,-145.481,532
1571222399,284.745,29.8028,-16.9664,179.143,1.16455,-145.481,532
1571222399,284.745,29.8028,-16.9664,179.143,1.16455,-145.481,532
1571222403,299.926,13.5062,-16.9664,179.231,1.07666,-145.305,584
1571222403,299.926,13.5062,-16.9664,179.231,1.07666,-145.305,584
1571222403,299.926,13.5062,-16.9664,179.231,1.07666,-145.305,588
1571222404,299.926,13.5062,-16.9664,179.231,1.07666,-145.305,588
1571222404,299.926,13.5062,-16.9664,179.231,1.07666,-145.305,588
1571222404,299.926,13.5062,-16.9664,179.231,1.07666,-145.305,588
1571222404,299.926,13.5062,-16.9664,179.231,1.07666,-145.305,588
1571222404,299.926,13.5062,-16.9664,179.231,1.07666,-145.305,588
1571222404,299.926,13.5062,-16.9664,179.231,1.07666,-145.305,588
1571222404,299.926,13.5062,-16.9664,179.231,1.07666,-145.305,588
1571222404,299.926,13.5062,-16.9664,179.231,1.07666,-145.305,588
1571222404,299.926,13.5062,-16.9664,179.231,1.07666,-145.305,588
1571222404,299.926,13.5062,-16.9664,179.231,1.07666,-145.305,588
1571222404,299.926,13.5062,-16.9664,179.231,1.07666,-145.305,588
1571222404,299.926,13.5062,-16.9664,179.231,1.07666,-145.305,588
1571222404,299.926,13.5062,-16.9664,179.231,1.07666,-145.305,588
1571222404,299.926,13.5062,-17.078,179.231,1.07666,-145.305,588
1571222404,299.926,13.5062,-17.078,179.231,1.07666,-145.305,588
1571222404,299.926,13.5062,-17.078,179.231,1.05469,-145.305,588
1571222404,299.926,13.5062,-17.078,179.231,1.05469,-145.305,588
1571222404,299.926,13.5062,-17.078,179.231,1.05469,-145.305,588
1571222404,299.926,13.5062,-17.078,179.231,1.05469,-145.305,588
1571222404,299.926,13.5062,-17.078,179.231,1.05469,-145.305,588
1571222404,299.926,13.5062,-17.078,179.231,1.05469,-145.305,588
1571222404,299.926,13.5062,-17.078,179.231,1.05469,-145.305,588
1571222404,299.926,13.5062,-17.078,179.231,1.05469,-145.305,588
1571222404,299.926,13.5062,-17.078,179.231,1.05469,-145.305,592
1571222404,299.926,13.5062,-17.078,179.231,1.05469,-145.305,592
1571222404,299.926,13.5062,-17.078,179.231,1.05469,-145.305,592
1571222404,299.926,13.5062,-17.078,179.231,1.05469,-145.305,592
1571222404,299.926,13.5062,-17.078,179.231,1.05469,-145.305,592
1571222404,299.926,13.5062,-17.078,179.231,1.05469,-145.305,592
1571222404,299.926,13.5062,-17.078,179.231,1.05469,-145.305,592
1571222404,299.926,13.5062,-17.078,179.231,1.05469,-145.305,592
1571222404,299.926,13.5062,-17.078,179.253,1.05469,-145.305,592
1571222404,299.926,13.5062,-17.078,179.253,1.05469,-145.305,592
1571222404,299.926,13.5062,-17.078,179.253,1.05469,-145.305,592
1571222404,299.926,13.5062,-17.078,179.253,1.05469,-145.305,592
1571222404,299.926,13.5062,-17.078,179.253,1.05469,-145.305,592
1571222404,299.926,13.5062,-17.078,179.253,1.05469,-145.305,592
1571222404,299.926,13.5062,-17.078,179.231,1.05469,-145.305,592
1571222404,299.926,13.5062,-17.078,179.231,1.05469,-145.305,592
1571222404,299.926,13.5062,-17.078,179.231,1.05469,-145.305,592
1571222404,299.926,13.5062,-17.078,179.231,1.05469,-145.305,596
1571222404,299.926,13.5062,-17.078,179.231,1.05469,-145.305,596
1571222404,299.926,13.5062,-17.078,179.231,1.05469,-145.305,596
1571222404,299.926,13.5062,-17.078,179.231,1.05469,-145.305,596
1571222404,299.926,13.5062,-17.078,179.231,1.05469,-145.305,596
1571222404,299.926,13.5062,-17.078,179.231,1.05469,-145.283,596
1571222404,299.926,13.5062,-17.078,179.231,1.05469,-145.283,596
1571222404,299.926,13.5062,-17.078,179.231,1.05469,-145.283,596
1571222404,299.926,13.5062,-17.078,179.231,1.05469,-145.283,596
1571222404,299.926,13.5062,-17.078,179.231,1.05469,-145.283,596
1571222404,299.926,13.5062,-17.078,179.231,1.05469,-145.283,596
1571222404,299.926,13.5062,-17.078,179.231,1.05469,-145.283,596
1571222404,299.926,13.5062,-17.078,179.231,1.05469,-145.283,596
1571222404,299.926,13.5062,-17.078,179.231,1.05469,-145.305,596
1571222404,299.926,13.5062,-17.078,179.231,1.05469,-145.305,596
1571222404,299.926,13.5062,-17.078,179.231,1.05469,-145.305,596
1571222404,299.926,13.5062,-17.078,179.231,1.05469,-145.305,596
1571222404,299.926,13.5062,-17.078,179.231,1.05469,-145.305,596
1571222404,299.926,13.5062,-17.078,179.231,1.05469,-145.305,596
1571222404,299.926,13.5062,-17.078,179.231,1.05469,-145.305,600
1571222404,299.926,13.5062,-17.078,179.231,1.05469,-145.305,600
1571222404,299.926,13.5062,-17.078,179.231,1.05469,-145.305,600
1571222404,299.926,13.5062,-17.078,179.231,1.05469,-145.305,600
1571222404,299.926,13.5062,-17.078,179.231,1.05469,-145.305,600
1571222404,299.926,13.5062,-17.078,179.231,1.05469,-145.305,600
1571222404,299.926,13.5062,-17.078,179.231,1.05469,-145.305,600
1571222404,299.926,13.5062,-17.078,179.231,1.05469,-145.305,600
1571222404,299.926,13.5062,-17.078,179.231,1.05469,-145.305,600
1571222404,299.926,13.5062,-17.078,179.231,1.05469,-145.305,600
1571222404,299.926,13.5062,-17.078,179.231,1.05469,-145.305,600
1571222404,299.926,13.5062,-17.078,179.231,1.05469,-145.305,600
1571222404,299.926,13.5062,-17.078,179.231,1.05469,-145.305,600
1571222404,299.926,13.5062,-17.078,179.209,1.05469,-145.305,600
1571222404,299.926,13.5062,-17.078,179.209,1.05469,-145.305,600
1571222404,299.926,13.5062,-17.078,179.209,1.05469,-145.305,600
1571222404,299.926,13.5062,-17.078,179.209,1.05469,-145.305,596
1571222404,299.926,13.5062,-17.078,179.209,1.05469,-145.305,596
1571222404,299.926,13.5062,-17.078,179.209,1.05469,-145.305,596
1571222404,299.926,13.3945,-17.078,179.209,1.05469,-145.305,596
1571222404,299.926,13.5062,-17.078,179.209,1.05469,-145.305,596
1571222404,299.926,13.5062,-17.078,179.209,1.05469,-145.305,596
1571222404,299.926,13.5062,-17.078,179.231,1.05469,-145.305,596
1571222404,299.926,13.5062,-17.078,179.231,1.05469,-145.305,592
1571222404,299.926,13.5062,-17.078,179.231,1.05469,-145.305,592
1571222404,299.926,13.5062,-17.078,179.231,1.05469,-145.305,592
1571222404,299.926,13.5062,-17.078,179.231,1.05469,-145.305,592
1571222404,299.926,13.5062,-17.078,179.231,1.05469,-145.305,592
1571222404,299.926,13.5062,-17.078,179.231,1.07666,-145.305,592
1571222404,299.926,13.5062,-17.078,179.231,1.07666,-145.305,592
1571222404,299.926,13.5062,-17.078,179.231,1.07666,-145.305,592
1571222404,299.926,13.5062,-17.078,179.231,1.07666,-145.305,588
1571222404,299.926,13.5062,-17.078,179.231,1.07666,-145.305,588
1571222404,299.926,13.5062,-17.078,179.231,1.07666,-145.305,588
1571222404,299.926,13.5062,-17.078,179.231,1.07666,-145.305,588
1571222404,299.926,13.5062,-17.078,179.231,1.07666,-145.305,588
1571222404,299.926,13.5062,-17.078,179.231,1.07666,-145.305,588
1571222404,299.926,13.5062,-17.078,179.231,1.07666,-145.305,588
1571222404,299.926,13.5062,-17.078,179.231,1.07666,-145.305,588
1571222404,299.926,13.5062,-17.078,179.231,1.07666,-145.305,584
1571222404,299.926,13.5062,-17.078,179.209,1.07666,-145.305,584
1571222405,299.926,13.5062,-17.078,179.209,1.07666,-145.305,584
1571222405,299.926,13.5062,-17.078,179.209,1.07666,-145.305,584
1571222405,299.926,13.5062,-17.078,179.209,1.07666,-145.305,584
1571222405,299.926,13.5062,-16.9664,179.209,1.07666,-145.305,584
1571222405,299.926,13.5062,-16.9664,179.209,1.07666,-145.305,584
1571222405,299.926,13.5062,-16.9664,179.231,1.07666,-145.305,584
1571222405,299.926,13.5062,-16.9664,179.231,1.07666,-145.305,588
1571222405,299.926,13.5062,-16.9664,179.231,1.07666,-145.305,588
1571222405,299.926,13.5062,-16.9664,179.231,1.07666,-145.305,588
1571222405,299.926,13.5062,-16.9664,179.231,1.07666,-145.305,588
1571222405,299.926,13.5062,-16.9664,179.231,1.07666,-145.305,588
1571222405,299.926,13.5062,-16.9664,179.231,1.07666,-145.305,588
1571222405,299.926,13.5062,-16.9664,179.231,1.07666,-145.305,588
1571222405,299.926,13.5062,-16.9664,179.231,1.07666,-145.305,588
1571222405,299.926,13.5062,-16.9664,179.231,1.07666,-145.305,588
1571222405,299.926,13.5062,-16.9664,179.231,1.07666,-145.305,584
1571222405,299.926,13.5062,-16.9664,179.231,1.07666,-145.305,584
1571222405,299.926,13.5062,-16.9664,179.231,1.07666,-145.305,584
1571222405,299.926,13.5062,-16.9664,179.231,1.07666,-145.305,584
1571222405,299.926,13.5062,-16.9664,179.231,1.07666,-145.305,584
1571222405,299.926,13.5062,-16.9664,179.231,1.07666,-145.305,584
1571222405,299.926,13.5062,-16.9664,179.231,1.07666,-145.305,584
1571222405,299.926,13.5062,-16.9664,179.231,1.07666,-145.305,584
1571222405,299.926,13.5062,-16.9664,179.231,1.07666,-145.305,584
1571222405,299.926,13.5062,-16.9664,179.231,1.07666,-145.305,584
1571222405,299.926,13.5062,-16.9664,179.231,1.07666,-145.305,584
1571222405,299.926,13.5062,-16.9664,179.231,1.07666,-145.305,584
1571222405,299.926,13.5062,-16.9664,179.231,1.07666,-145.305,584
1571222405,299.926,13.5062,-16.9664,179.231,1.05469,-145.305,584
1571222405,299.926,13.5062,-17.078,179.231,1.05469,-145.305,584
1571222405,299.926,13.5062,-17.078,179.231,1.05469,-145.305,584
1571222405,299.926,13.5062,-17.078,179.231,1.05469,-145.305,584
1571222405,299.926,13.5062,-17.078,179.231,1.05469,-145.305,584
1571222405,299.926,13.5062,-17.078,179.231,1.05469,-145.305,584
1571222405,299.926,13.5062,-17.078,179.231,1.05469,-145.305,584
1571222405,299.926,13.5062,-17.078,179.231,1.05469,-145.305,584
1571222405,299.926,13.5062,-17.078,179.231,1.05469,-145.305,584
1571222405,299.926,13.5062,-17.078,179.231,1.05469,-145.305,584
1571222405,299.926,13.5062,-17.078,179.231,1.05469,-145.305,584
1571222405,299.926,13.5062,-17.078,179.231,1.05469,-145.305,584
1571222405,299.926,13.5062,-17.078,179.231,1.05469,-145.305,584
1571222405,299.926,13.5062,-17.078,179.231,1.05469,-145.305,584
1571222405,299.926,13.5062,-17.078,179.231,1.05469,-145.305,584
1571222405,299.926,13.5062,-17.078,179.231,1.05469,-145.305,584
1571222405,299.926,13.5062,-17.078,179.231,1.05469,-145.305,584
1571222405,299.926,13.5062,-17.078,179.231,1.05469,-145.305,584
1571222405,299.926,13.5062,-17.078,179.231,1.05469,-145.305,584
1571222405,299.926,13.5062,-17.078,179.231,1.05469,-145.305,584
1571222405,299.926,13.5062,-17.078,179.231,1.05469,-145.305,584
1571222405,299.926,13.5062,-17.078,179.231,1.05469,-145.305,584
1571222405,299.926,13.5062,-17.078,179.231,1.05469,-145.305,584
1571222405,299.926,13.5062,-17.078,179.231,1.05469,-145.305,584
1571222405,299.926,13.5062,-17.078,179.231,1.05469,-145.305,584
1571222405,299.926,13.5062,-17.078,179.231,1.05469,-145.305,584
1571222405,299.926,13.5062,-17.078,179.231,1.05469,-145.305,584
1571222405,299.926,13.5062,-17.078,179.231,1.05469,-145.305,584
1571222405,299.926,13.5062,-17.078,179.231,1.05469,-145.305,584
1571222405,299.926,13.5062,-17.078,179.231,1.05469,-145.305,588
1571222405,299.926,13.5062,-17.078,179.231,1.05469,-145.305,588
1571222405,299.926,13.5062,-17.078,179.231,1.05469,-145.305,588
1571222405,299.926,13.5062,-17.078,179.231,1.05469,-145.305,588
1571222405,299.926,13.5062,-17.078,179.231,1.05469,-145.305,588
1571222405,299.926,13.5062,-17.078,179.231,1.05469,-145.305,592
1571222405,299.926,13.5062,-17.078,179.231,1.05469,-145.305,592
1571222405,299.926,13.5062,-17.078,179.231,1.05469,-145.305,592
1571222405,299.926,13.5062,-17.078,179.231,1.05469,-145.305,592
1571222405,299.926,13.5062,-17.078,179.231,1.05469,-145.305,592
1571222405,299.926,13.5062,-17.078,179.231,1.05469,-145.305,592
1571222405,299.926,13.5062,-17.078,179.231,1.05469,-145.305,592
1571222405,299.926,13.5062,-17.078,179.231,1.05469,-145.305,592
1571222405,299.926,13.5062,-17.078,179.231,1.05469,-145.305,592
1571222405,299.926,13.5062,-17.078,179.231,1.05469,-145.305,592
1571222405,299.926,13.5062,-17.078,179.231,1.05469,-145.305,592
1571222405,299.926,13.5062,-17.078,179.231,1.05469,-145.305,592
1571222405,299.926,13.5062,-17.078,179.231,1.05469,-145.305,592
1571222405,299.926,13.5062,-17.078,179.231,1.05469,-145.305,592
1571222405,299.926,13.5062,-17.078,179.231,1.05469,-145.305,592
1571222405,299.926,13.5062,-17.078,179.231,1.05469,-145.305,592
1571222405,299.926,13.5062,-17.078,179.231,1.05469,-145.305,592
1571222405,299.926,13.5062,-17.078,179.231,1.05469,-145.305,592
1571222405,299.926,13.5062,-17.078,179.231,1.05469,-145.305,592
1571222405,299.926,13.5062,-17.078,179.231,1.05469,-145.305,592
1571222405,299.926,13.5062,-17.078,179.231,1.05469,-145.305,592
1571222405,299.926,13.5062,-17.078,179.231,1.05469,-145.305,592
1571222405,299.926,13.5062,-17.078,179.231,1.05469,-145.305,588
1571222405,299.926,13.5062,-17.078,179.231,1.05469,-145.305,588
1571222405,299.926,13.3945,-17.078,179.231,1.05469,-145.305,588
1571222405,299.926,13.5062,-17.078,179.231,1.05469,-145.305,588
1571222405,299.926,13.5062,-17.078,179.231,1.05469,-145.305,588
1571222405,299.926,13.5062,-17.078,179.231,1.05469,-145.305,588
1571222405,299.926,13.5062,-17.078,179.231,1.05469,-145.305,588
1571222405,299.926,13.5062,-17.078,179.231,1.05469,-145.305,588
1571222405,299.926,13.5062,-17.078,179.231,1.05469,-145.305,588
1571222405,299.926,13.5062,-17.078,179.231,1.05469,-145.305,588
1571222405,299.926,13.5062,-17.078,179.231,1.05469,-145.305,588
1571222405,299.926,13.5062,-16.9664,179.231,1.05469,-145.305,588
1571222405,299.926,13.5062,-16.9664,179.231,1.05469,-145.305,588
1571222405,299.926,13.5062,-16.9664,179.231,1.07666,-145.305,588
1571222405,299.926,13.5062,-16.9664,179.231,1.07666,-145.305,588
1571222405,299.926,13.5062,-16.9664,179.231,1.07666,-145.305,588
1571222406,299.926,13.5062,-16.9664,179.231,1.07666,-145.305,588
1571222406,299.926,13.5062,-16.9664,179.231,1.07666,-145.305,588
1571222406,299.926,13.5062,-16.9664,179.231,1.07666,-145.305,588
1571222406,299.926,13.5062,-16.9664,179.231,1.07666,-145.305,588
1571222406,299.926,13.5062,-16.9664,179.231,1.07666,-145.305,588
1571222406,299.926,13.5062,-16.9664,179.231,1.07666,-145.305,588
1571222406,299.926,13.5062,-16.9664,179.231,1.07666,-145.305,588
1571222406,299.926,13.5062,-16.9664,179.231,1.07666,-145.305,588
1571222406,299.926,13.5062,-16.9664,179.231,1.07666,-145.305,588
1571222406,299.926,13.5062,-16.9664,179.231,1.07666,-145.305,588
1571222406,299.926,13.3945,-16.9664,179.231,1.07666,-145.305,588
1571222406,299.926,13.3945,-16.9664,179.209,1.07666,-145.305,588
1571222406,299.926,13.3945,-16.9664,179.209,1.07666,-145.305,588
1571222406,299.926,13.3945,-16.9664,179.209,1.07666,-145.305,588
1571222406,299.926,13.3945,-16.9664,179.209,1.07666,-145.305,588
1571222406,299.926,13.3945,-16.9664,179.209,1.07666,-145.305,588
1571222406,299.926,13.3945,-16.9664,179.209,1.07666,-145.305,588
1571222406,299.926,13.3945,-16.9664,179.209,1.07666,-145.305,588
1571222406,299.926,13.3945,-16.9664,179.209,1.07666,-145.305,588
1571222406,299.926,13.3945,-16.9664,179.209,1.07666,-145.305,588
1571222406,299.926,13.3945,-16.9664,179.209,1.07666,-145.305,588
1571222406,299.926,13.3945,-16.9664,179.209,1.07666,-145.305,588
1571222406,299.926,13.3945,-16.9664,179.209,1.07666,-145.305,588
1571222406,299.926,13.3945,-16.9664,179.209,1.07666,-145.305,588
1571222406,299.926,13.3945,-16.9664,179.209,1.07666,-145.305,588
1571222406,299.926,13.3945,-16.9664,179.209,1.07666,-145.305,588
1571222406,299.926,13.3945,-16.9664,179.209,1.07666,-145.305,592
1571222406,299.926,13.3945,-16.9664,179.209,1.07666,-145.305,592
1571222406,299.926,13.3945,-16.9664,179.209,1.07666,-145.305,592
1571222406,299.926,13.3945,-16.9664,179.209,1.07666,-145.305,592
1571222406,299.926,13.3945,-16.9664,179.209,1.07666,-145.305,592
1571222406,299.926,13.3945,-16.9664,179.209,1.07666,-145.305,592
1571222406,299.926,13.3945,-16.9664,179.209,1.07666,-145.305,592
1571222406,299.926,13.3945,-16.9664,179.209,1.07666,-145.305,592
1571222406,299.926,13.3945,-16.9664,179.209,1.07666,-145.305,592
1571222406,299.926,13.3945,-16.9664,179.209,1.07666,-145.305,592
1571222406,299.926,13.3945,-16.9664,179.209,1.07666,-145.305,592
1571222406,299.926,13.3945,-16.9664,179.209,1.07666,-145.305,592
1571222406,299.926,13.3945,-16.9664,179.209,1.07666,-145.305,592
1571222406,299.926,13.3945,-16.9664,179.209,1.07666,-145.305,592
1571222406,299.926,13.3945,-16.9664,179.209,1.07666,-145.305,592
1571222406,299.926,13.3945,-16.9664,179.209,1.07666,-145.305,592
1571222406,299.926,13.3945,-16.9664,179.209,1.07666,-145.305,592
1571222406,299.926,13.3945,-16.9664,179.209,1.07666,-145.305,592
1571222406,299.926,13.3945,-16.9664,179.209,1.07666,-145.305,596
1571222406,299.926,13.3945,-16.9664,179.209,1.07666,-145.305,596
1571222406,299.926,13.3945,-16.9664,179.209,1.07666,-145.305,596
1571222406,299.926,13.3945,-16.9664,179.209,1.07666,-145.305,596
1571222406,299.926,13.3945,-16.9664,179.209,1.07666,-145.305,596
1571222406,299.926,13.5062,-16.9664,179.231,1.07666,-145.305,596
1571222406,299.926,13.5062,-16.9664,179.231,1.07666,-145.305,596
1571222406,299.926,13.5062,-16.9664,179.231,1.07666,-145.305,596
1571222406,299.926,13.5062,-16.9664,179.231,1.07666,-145.305,600
1571222406,299.926,13.5062,-16.9664,179.231,1.07666,-145.305,600
1571222406,299.926,13.5062,-16.9664,179.231,1.07666,-145.305,600
1571222406,299.926,13.5062,-17.078,179.231,1.07666,-145.305,600
1571222406,299.926,13.5062,-17.078,179.231,1.07666,-145.305,596
1571222406,299.926,13.5062,-17.078,179.231,1.07666,-145.305,596
1571222406,299.926,13.5062,-16.9664,179.231,1.07666,-145.305,596
1571222406,299.926,13.5062,-16.9664,179.231,1.07666,-145.305,596
1571222406,299.926,13.5062,-16.9664,179.231,1.07666,-145.305,596
1571222406,299.926,13.5062,-16.9664,179.231,1.07666,-145.305,596
1571222406,299.926,13.5062,-16.9664,179.231,1.07666,-145.305,596
1571222406,299.926,13.5062,-16.9664,179.231,1.07666,-145.305,596
1571222406,299.926,13.5062,-16.9664,179.231,1.07666,-145.305,596
1571222406,299.926,13.5062,-16.9664,179.231,1.07666,-145.305,596
1571222406,299.926,13.5062,-16.9664,179.231,1.07666,-145.305,596
1571222406,299.926,13.5062,-16.9664,179.231,1.07666,-145.305,596
1571222406,299.926,13.5062,-16.9664,179.231,1.07666,-145.305,596
1571222406,299.926,13.5062,-16.9664,179.231,1.07666,-145.305,596
1571222406,299.926,13.5062,-16.9664,179.231,1.07666,-145.305,596
1571222406,299.926,13.5062,-16.9664,179.231,1.07666,-145.305,592
1571222406,299.926,13.5062,-16.9664,179.231,1.07666,-145.305,592
1571222406,299.926,13.5062,-16.9664,179.231,1.07666,-145.305,592
1571222406,299.926,13.5062,-16.9664,179.231,1.07666,-145.305,592
1571222406,299.926,13.5062,-16.9664,179.231,1.07666,-145.305,592
1571222406,299.926,13.5062,-16.9664,179.231,1.07666,-145.305,592
1571222406,299.926,13.5062,-16.9664,179.231,1.07666,-145.305,592
1571222406,299.926,13.5062,-16.9664,179.231,1.07666,-145.305,592
1571222406,299.926,13.5062,-16.9664,179.231,1.07666,-145.305,592
1571222406,299.926,13.5062,-16.9664,179.231,1.07666,-145.305,592
1571222406,299.926,13.5062,-16.9664,179.231,1.07666,-145.305,592
1571222406,299.926,13.5062,-16.9664,179.231,1.07666,-145.305,592
1571222406,299.926,13.5062,-16.9664,179.231,1.07666,-145.305,592
1571222406,299.926,13.5062,-16.9664,179.231,1.07666,-145.305,592
1571222406,299.926,13.5062,-16.9664,179.231,1.07666,-145.305,592
1571222406,299.926,13.5062,-16.9664,179.231,1.07666,-145.305,592
1571222406,299.926,13.5062,-16.9664,179.231,1.07666,-145.305,592
1571222406,299.926,13.5062,-16.9664,179.231,1.07666,-145.305,592
1571222406,299.926,13.5062,-16.9664,179.231,1.07666,-145.305,592
1571222406,299.926,13.5062,-16.9664,179.231,1.07666,-145.305,592
1571222406,299.926,13.5062,-16.9664,179.231,1.07666,-145.305,588
1571222406,299.926,13.5062,-16.9664,179.231,1.07666,-145.305,588
1571222406,299.926,13.5062,-16.9664,179.231,1.07666,-145.305,588
1571222406,299.926,13.5062,-16.9664,179.231,1.07666,-145.305,588
1571222406,299.926,13.5062,-16.9664,179.231,1.07666,-145.305,588
1571222406,299.926,13.5062,-16.9664,179.231,1.07666,-145.305,588
1571222406,299.926,13.5062,-16.9664,179.231,1.07666,-145.305,588
1571222406,299.926,13.5062,-16.9664,179.231,1.07666,-145.305,588
1571222406,299.926,13.5062,-16.9664,179.231,1.07666,-145.305,588
1571222407,299.926,13.5062,-16.9664,179.231,1.07666,-145.305,588
1571222407,299.926,13.5062,-16.9664,179.231,1.07666,-145.305,592
1571222407,299.926,13.3945,-16.9664,179.209,1.07666,-145.305,592
1571222407,299.926,13.3945,-16.9664,179.209,1.07666,-145.305,592
1571222407,299.926,13.3945,-16.9664,179.209,1.07666,-145.305,592
1571222407,299.926,13.3945,-16.9664,179.209,1.07666,-145.305,592
1571222407,299.926,13.3945,-16.9664,179.209,1.07666,-145.305,592
1571222407,299.926,13.3945,-16.9664,179.209,1.07666,-145.305,592
1571222407,299.926,13.3945,-16.9664,179.209,1.07666,-145.305,592
1571222407,299.926,13.3945,-16.9664,179.209,1.07666,-145.305,592
1571222407,299.926,13.3945,-16.9664,179.209,1.07666,-145.305,592
1571222407,299.926,13.5062,-16.9664,179.231,1.07666,-145.305,592
1571222407,299.926,13.5062,-16.9664,179.231,1.07666,-145.305,592
1571222407,299.926,13.5062,-16.9664,179.231,1.07666,-145.305,592
1571222407,299.926,13.5062,-16.9664,179.231,1.07666,-145.305,592
1571222407,299.926,13.5062,-16.9664,179.231,1.07666,-145.305,592
1571222407,299.926,13.5062,-16.9664,179.231,1.07666,-145.305,592
1571222407,299.926,13.5062,-16.9664,179.231,1.07666,-145.305,592
1571222407,299.926,13.5062,-16.9664,179.231,1.07666,-145.305,592
1571222407,299.926,13.5062,-16.9664,179.231,1.07666,-145.305,592
1571222407,299.926,13.5062,-16.9664,179.231,1.07666,-145.305,592
1571222407,299.926,13.5062,-16.9664,179.231,1.07666,-145.305,592
1571222407,299.926,13.5062,-16.9664,179.231,1.07666,-145.305,592
1571222407,299.926,13.5062,-16.9664,179.231,1.07666,-145.305,592
1571222407,299.926,13.5062,-16.9664,179.231,1.07666,-145.305,592
1571222407,299.926,13.5062,-16.9664,179.231,1.07666,-145.305,592
1571222407,299.926,13.5062,-16.9664,179.231,1.07666,-145.305,592
1571222407,299.926,13.5062,-16.9664,179.231,1.07666,-145.305,592
1571222407,299.926,13.5062,-16.9664,179.231,1.07666,-145.305,592
1571222407,299.926,13.5062,-16.9664,179.231,1.07666,-145.283,592
1571222407,299.926,13.5062,-16.9664,179.231,1.07666,-145.283,588
1571222407,299.926,13.5062,-16.9664,179.231,1.07666,-145.283,588
1571222407,299.926,13.5062,-16.9664,179.231,1.07666,-145.283,588
1571222407,299.926,13.5062,-16.9664,179.231,1.07666,-145.283,588
1571222407,299.926,13.5062,-16.9664,179.231,1.07666,-145.283,588
1571222407,299.926,13.5062,-16.9664,179.231,1.07666,-145.283,588
1571222407,299.926,13.5062,-16.9664,179.231,1.07666,-145.283,588
1571222407,299.926,13.5062,-16.9664,179.231,1.07666,-145.283,584
1571222407,299.926,13.5062,-16.9664,179.231,1.07666,-145.283,584
1571222407,299.926,13.5062,-16.9664,179.231,1.07666,-145.283,584
1571222407,299.926,13.5062,-16.9664,179.231,1.07666,-145.283,584
1571222407,299.926,13.5062,-16.9664,179.231,1.07666,-145.283,584
1571222407,299.926,13.5062,-16.9664,179.231,1.07666,-145.283,584
1571222407,299.926,13.5062,-17.078,179.231,1.07666,-145.283,584
1571222407,299.926,13.5062,-17.078,179.231,1.07666,-145.283,584
1571222407,299.926,13.5062,-17.078,179.231,1.07666,-145.283,584
1571222407,299.926,13.5062,-17.078,179.231,1.07666,-145.283,584
1571222407,299.926,13.5062,-17.078,179.231,1.07666,-145.283,584
1571222407,299.926,13.5062,-17.078,179.231,1.07666,-145.283,584
1571222407,299.926,13.5062,-17.078,179.231,1.05469,-145.283,584
1571222407,299.926,13.5062,-17.078,179.231,1.05469,-145.283,584
1571222407,299.926,13.5062,-17.078,179.231,1.05469,-145.283,588
1571222407,299.926,13.3945,-17.078,179.231,1.07666,-145.283,588
1571222407,299.926,13.5062,-17.078,179.231,1.07666,-145.283,588
1571222407,299.926,13.5062,-17.078,179.231,1.07666,-145.283,588
1571222407,299.926,13.5062,-17.078,179.231,1.07666,-145.283,588
1571222407,299.926,13.5062,-16.9664,179.231,1.07666,-145.283,588
1571222407,299.926,13.5062,-16.9664,179.231,1.07666,-145.283,588
1571222407,299.926,13.3945,-16.9664,179.209,1.07666,-145.283,588
1571222407,299.926,13.3945,-16.9664,179.209,1.07666,-145.283,588
1571222407,299.926,13.3945,-16.9664,179.209,1.07666,-145.283,588
1571222407,299.926,13.3945,-16.9664,179.209,1.07666,-145.283,588
1571222407,299.926,13.3945,-16.9664,179.209,1.07666,-145.283,588
1571222407,299.926,13.3945,-16.9664,179.209,1.07666,-145.283,588
1571222407,299.926,13.3945,-16.9664,179.209,1.07666,-145.283,588
1571222407,299.926,13.3945,-16.9664,179.209,1.07666,-145.283,588
1571222407,299.926,13.3945,-16.9664,179.209,1.07666,-145.283,588
1571222407,299.926,13.3945,-16.9664,179.209,1.07666,-145.283,588
1571222407,299.926,13.3945,-16.9664,179.209,1.07666,-145.283,592
1571222407,299.926,13.3945,-16.9664,179.209,1.07666,-145.283,592
1571222407,299.926,13.3945,-16.9664,179.209,1.07666,-145.283,592
1571222407,299.926,13.3945,-16.9664,179.209,1.07666,-145.283,592
1571222407,299.926,13.3945,-16.9664,179.209,1.07666,-145.283,592
1571222407,299.926,13.3945,-16.9664,179.209,1.07666,-145.283,592
1571222407,299.926,13.3945,-16.9664,179.209,1.07666,-145.283,592
1571222407,299.926,13.3945,-16.9664,179.209,1.07666,-145.283,592
1571222407,299.926,13.3945,-16.9664,179.209,1.07666,-145.283,592
1571222407,299.926,13.3945,-16.9664,179.209,1.07666,-145.283,592
1571222407,299.926,13.3945,-16.9664,179.209,1.07666,-145.283,596
1571222407,299.926,13.3945,-16.9664,179.209,1.07666,-145.283,596
1571222407,299.926,13.3945,-16.9664,179.209,1.07666,-145.283,596
1571222407,299.926,13.3945,-16.9664,179.209,1.07666,-145.283,596
1571222407,299.926,13.3945,-16.9664,179.209,1.07666,-145.283,596
1571222407,299.926,13.3945,-16.9664,179.209,1.07666,-145.283,596
1571222407,299.926,13.3945,-16.9664,179.209,1.07666,-145.283,596
1571222407,299.926,13.3945,-16.9664,179.209,1.07666,-145.283,596
1571222407,299.926,13.3945,-16.9664,179.209,1.07666,-145.283,596
1571222407,299.926,13.3945,-16.9664,179.209,1.07666,-145.283,596
1571222407,299.926,13.3945,-16.9664,179.209,1.07666,-145.283,596
1571222407,299.926,13.3945,-16.9664,179.209,1.07666,-145.283,596
1571222407,299.926,13.5062,-16.9664,179.209,1.07666,-145.283,600
1571222407,299.926,13.5062,-16.9664,179.209,1.07666,-145.283,600
1571222407,299.926,13.5062,-16.9664,179.231,1.07666,-145.305,600
1571222407,299.926,13.5062,-16.9664,179.231,1.07666,-145.305,600
1571222407,299.926,13.5062,-16.9664,179.231,1.07666,-145.305,600
1571222407,299.926,13.5062,-16.9664,179.231,1.07666,-145.305,600
1571222407,299.926,13.5062,-16.9664,179.231,1.07666,-145.305,600
1571222407,299.926,13.5062,-16.9664,179.231,1.07666,-145.305,600
1571222407,299.926,13.5062,-16.9664,179.231,1.07666,-145.305,596
1571222407,299.926,13.5062,-16.9664,179.231,1.07666,-145.305,596
1571222408,299.926,13.5062,-16.9664,179.231,1.07666,-145.305,596
1571222408,299.926,13.5062,-16.9664,179.231,1.07666,-145.305,596
1571222408,299.926,13.5062,-16.9664,179.231,1.07666,-145.305,596
1571222408,299.926,13.5062,-16.9664,179.231,1.07666,-145.305,596
1571222408,299.926,13.5062,-16.9664,179.231,1.07666,-145.305,596
1571222408,299.926,13.5062,-16.9664,179.231,1.07666,-145.305,596
1571222408,299.926,13.5062,-16.9664,179.231,1.07666,-145.305,596
1571222408,299.926,13.5062,-16.9664,179.231,1.07666,-145.305,592
1571222408,299.926,13.5062,-16.9664,179.231,1.07666,-145.305,592
1571222408,299.926,13.5062,-16.9664,179.231,1.07666,-145.305,592
1571222408,299.926,13.5062,-16.9664,179.231,1.07666,-145.305,592
1571222408,299.926,13.5062,-16.9664,179.231,1.07666,-145.305,592
1571222408,299.926,13.5062,-16.9664,179.231,1.07666,-145.305,592
1571222408,300.038,13.5062,-16.9664,179.231,1.07666,-145.305,592
1571222408,300.038,13.5062,-16.9664,179.231,1.07666,-145.305,592
1571222408,300.038,13.5062,-16.9664,179.231,1.07666,-145.305,592
1571222408,300.038,13.5062,-16.9664,179.231,1.07666,-145.305,592
1571222408,300.038,13.5062,-16.9664,179.231,1.07666,-145.305,592
1571222408,300.038,13.5062,-16.9664,179.231,1.07666,-145.305,592
1571222408,300.038,13.5062,-16.9664,179.231,1.07666,-145.305,592
1571222408,300.038,13.5062,-16.9664,179.231,1.07666,-145.305,592
1571222408,299.926,13.5062,-16.9664,179.231,1.07666,-145.305,592
1571222408,299.926,13.5062,-16.9664,179.231,1.07666,-145.305,592
1571222408,299.926,13.5062,-16.9664,179.231,1.07666,-145.305,588
1571222408,300.038,13.5062,-16.9664,179.231,1.07666,-145.305,588
1571222408,300.038,13.5062,-16.9664,179.231,1.07666,-145.305,588
1571222408,300.038,13.5062,-16.9664,179.231,1.07666,-145.305,588
1571222408,300.038,13.5062,-16.9664,179.231,1.07666,-145.305,588
1571222408,300.038,13.5062,-16.9664,179.231,1.07666,-145.305,588
1571222408,300.038,13.5062,-16.9664,179.231,1.07666,-145.283,588
1571222408,300.038,13.5062,-16.9664,179.231,1.07666,-145.283,588
1571222408,300.038,13.5062,-16.9664,179.231,1.07666,-145.283,584
1571222408,300.038,13.5062,-16.9664,179.231,1.07666,-145.283,584
1571222408,300.038,13.5062,-16.9664,179.231,1.07666,-145.283,584
1571222408,299.926,13.5062,-16.9664,179.231,1.07666,-145.283,584
1571222408,299.926,13.5062,-16.9664,179.231,1.07666,-145.283,584
1571222408,299.926,13.5062,-16.9664,179.231,1.07666,-145.283,584
1571222408,299.926,13.5062,-16.9664,179.231,1.07666,-145.283,584
1571222408,299.926,13.5062,-16.9664,179.231,1.07666,-145.283,584
1571222408,299.926,13.5062,-16.9664,179.231,1.07666,-145.283,584
1571222408,299.926,13.5062,-16.9664,179.231,1.07666,-145.283,584
1571222408,299.926,13.5062,-16.9664,179.253,1.07666,-145.283,588
1571222408,299.926,13.5062,-16.9664,179.253,1.07666,-145.283,588
1571222408,299.926,13.5062,-16.9664,179.253,1.07666,-145.283,588
1571222408,299.926,13.5062,-16.9664,179.253,1.07666,-145.283,588
1571222408,299.926,13.5062,-16.9664,179.253,1.07666,-145.283,588
1571222408,299.926,13.5062,-16.9664,179.253,1.07666,-145.283,588
1571222408,299.926,13.5062,-16.9664,179.253,1.07666,-145.283,588
1571222408,299.926,13.5062,-16.9664,179.253,1.07666,-145.283,588
1571222408,299.926,13.5062,-16.9664,179.253,1.07666,-145.283,592
1571222408,299.926,13.5062,-16.9664,179.253,1.07666,-145.283,592
1571222408,299.926,13.5062,-16.9664,179.253,1.07666,-145.283,592
1571222408,299.926,13.5062,-16.9664,179.253,1.07666,-145.283,592
1571222408,299.926,13.5062,-16.9664,179.253,1.07666,-145.283,592
1571222408,299.926,13.5062,-16.9664,179.253,1.07666,-145.283,592
1571222408,299.926,13.5062,-16.9664,179.253,1.07666,-145.283,592
1571222408,299.926,13.5062,-16.9664,179.253,1.07666,-145.283,592
1571222408,299.926,13.5062,-16.9664,179.253,1.07666,-145.305,592
1571222408,299.926,13.5062,-16.9664,179.253,1.07666,-145.305,596
1571222408,299.926,13.5062,-16.9664,179.253,1.07666,-145.305,596
1571222408,299.926,13.5062,-16.9664,179.253,1.07666,-145.305,596
1571222408,299.926,13.5062,-16.9664,179.253,1.07666,-145.305,596
1571222408,299.926,13.5062,-16.9664,179.253,1.07666,-145.305,596
1571222408,299.926,13.5062,-16.9664,179.253,1.07666,-145.305,596
1571222408,299.926,13.5062,-16.9664,179.253,1.07666,-145.305,596
1571222408,299.926,13.5062,-16.9664,179.231,1.07666,-145.305,596
1571222408,299.926,13.5062,-16.9664,179.231,1.07666,-145.305,596
1571222408,299.926,13.5062,-16.9664,179.231,1.07666,-145.305,596
1571222408,299.926,13.5062,-16.9664,179.231,1.09863,-145.305,596
1571222408,299.926,13.5062,-16.9664,179.231,1.09863,-145.305,592
1571222408,299.926,13.5062,-16.9664,179.231,1.09863,-145.305,592
1571222408,299.926,13.5062,-16.9664,179.231,1.09863,-145.305,592
1571222408,299.926,13.5062,-16.9664,179.231,1.09863,-145.305,592
1571222408,299.926,13.5062,-16.9664,179.231,1.09863,-145.305,592
1571222408,299.926,13.5062,-16.9664,179.231,1.09863,-145.305,592
1571222408,299.926,13.5062,-16.9664,179.231,1.07666,-145.305,592
1571222408,299.926,13.5062,-16.9664,179.231,1.07666,-145.305,592
1571222408,299.926,13.5062,-16.9664,179.231,1.07666,-145.305,592
1571222408,299.926,13.5062,-16.9664,179.231,1.07666,-145.305,592
1571222408,299.926,13.5062,-16.9664,179.231,1.07666,-145.305,588
1571222408,299.926,13.5062,-16.9664,179.231,1.07666,-145.305,588
1571222408,299.926,13.5062,-16.9664,179.231,1.07666,-145.305,588
1571222408,299.926,13.5062,-16.9664,179.231,1.07666,-145.305,588
1571222408,299.926,13.5062,-16.9664,179.231,1.07666,-145.305,588
1571222408,299.926,13.5062,-16.9664,179.231,1.07666,-145.305,588
1571222408,299.926,13.5062,-16.9664,179.231,1.07666,-145.305,588
1571222408,299.926,13.5062,-16.9664,179.231,1.07666,-145.305,588
1571222408,299.926,13.5062,-16.9664,179.231,1.07666,-145.305,588
1571222408,299.926,13.5062,-16.9664,179.231,1.07666,-145.305,588
1571222408,299.926,13.5062,-16.9664,179.231,1.07666,-145.305,588
1571222408,299.926,13.5062,-16.9664,179.231,1.07666,-145.305,584
1571222408,299.926,13.5062,-16.9664,179.231,1.07666,-145.305,584
1571222408,299.926,13.5062,-16.9664,179.231,1.07666,-145.305,584
1571222408,299.926,13.5062,-16.9664,179.231,1.07666,-145.305,584
1571222408,299.926,13.5062,-16.9664,179.231,1.07666,-145.305,584
1571222408,299.926,13.5062,-16.9664,179.231,1.07666,-145.305,584
1571222408,299.926,13.5062,-16.9664,179.231,1.07666,-145.305,584
1571222413,322.92,-10.8272,-16.8548,179.253,1.2085,-145.679,668
1571222413,322.92,-10.8272,-16.8548,179.253,1.2085,-145.679,668
1571222413,322.92,-10.7156,-16.8548,179.253,1.23047,-145.679,668
1571222413,322.92,-10.7156,-16.8548,179.253,1.23047,-145.679,668
1571222413,322.92,-10.7156,-16.8548,179.253,1.23047,-145.679,668
1571222413,322.92,-10.7156,-16.8548,179.253,1.23047,-145.679,668
1571222413,322.92,-10.7156,-16.8548,179.275,1.23047,-145.657,672
1571222413,322.92,-10.7156,-16.8548,179.275,1.23047,-145.657,672
1571222413,322.92,-10.7156,-16.8548,179.275,1.23047,-145.657,672
1571222413,322.92,-10.7156,-16.8548,179.275,1.23047,-145.657,672
1571222413,322.92,-10.7156,-16.8548,179.275,1.23047,-145.657,672
1571222413,322.92,-10.7156,-16.8548,179.275,1.23047,-145.657,672
1571222413,322.92,-10.7156,-16.8548,179.275,1.23047,-145.657,672
1571222413,322.92,-10.7156,-16.8548,179.253,1.23047,-145.657,672
1571222413,322.92,-10.7156,-16.8548,179.253,1.23047,-145.657,668
1571222413,322.92,-10.7156,-16.8548,179.253,1.23047,-145.657,668
1571222413,322.92,-10.7156,-16.8548,179.253,1.23047,-145.657,672
1571222413,322.92,-10.8272,-16.8548,179.253,1.23047,-145.679,672
1571222413,322.92,-10.8272,-16.8548,179.253,1.23047,-145.679,672
1571222413,322.92,-10.8272,-16.8548,179.253,1.23047,-145.679,672
1571222413,322.92,-10.8272,-16.8548,179.253,1.23047,-145.679,672
1571222413,322.92,-10.8272,-16.8548,179.253,1.23047,-145.679,672
1571222414,322.92,-10.8272,-16.8548,179.253,1.23047,-145.679,672
1571222414,322.92,-10.8272,-16.8548,179.253,1.23047,-145.679,672
1571222414,322.92,-10.8272,-16.8548,179.253,1.23047,-145.679,676
1571222414,322.92,-10.8272,-16.8548,179.253,1.23047,-145.679,676
1571222414,322.92,-10.8272,-16.8548,179.253,1.23047,-145.679,676
1571222414,322.92,-10.8272,-16.8548,179.253,1.23047,-145.679,676
1571222414,322.92,-10.8272,-16.8548,179.253,1.23047,-145.679,680
1571222414,322.92,-10.8272,-16.8548,179.253,1.23047,-145.679,680
1571222414,322.92,-10.8272,-16.8548,179.253,1.23047,-145.679,680
1571222414,322.92,-10.8272,-16.8548,179.253,1.23047,-145.679,680
1571222414,322.92,-10.8272,-16.8548,179.253,1.23047,-145.679,680
1571222414,322.92,-10.8272,-16.8548,179.253,1.23047,-145.679,680
1571222414,322.92,-10.8272,-16.8548,179.253,1.23047,-145.679,680
1571222414,322.92,-10.8272,-16.8548,179.253,1.23047,-145.679,680
1571222414,322.92,-10.8272,-16.8548,179.253,1.23047,-145.679,680
1571222414,322.92,-10.8272,-16.8548,179.253,1.23047,-145.679,680
1571222414,322.92,-10.8272,-16.8548,179.253,1.23047,-145.679,680
1571222414,322.92,-10.8272,-16.8548,179.253,1.23047,-145.679,680
1571222414,322.92,-10.8272,-16.8548,179.253,1.23047,-145.679,680
1571222414,322.92,-10.8272,-16.8548,179.253,1.23047,-145.679,680
1571222414,322.92,-10.8272,-16.8548,179.253,1.23047,-145.679,680
1571222414,322.92,-10.8272,-16.8548,179.253,1.23047,-145.679,680
1571222414,322.92,-10.8272,-16.8548,179.253,1.23047,-145.679,680
1571222414,322.92,-10.8272,-16.8548,179.253,1.23047,-145.679,680
1571222414,322.92,-10.8272,-16.8548,179.253,1.23047,-145.679,680
1571222414,322.92,-10.8272,-16.8548,179.253,1.23047,-145.679,676
1571222414,322.92,-10.8272,-16.8548,179.253,1.23047,-145.679,676
1571222414,322.92,-10.8272,-16.8548,179.253,1.23047,-145.679,676
1571222414,322.92,-10.8272,-16.8548,179.253,1.23047,-145.679,676
1571222414,322.92,-10.8272,-16.8548,179.253,1.23047,-145.679,676
1571222414,322.92,-10.8272,-16.8548,179.253,1.23047,-145.701,676
1571222414,322.92,-10.8272,-16.8548,179.253,1.23047,-145.701,676
1571222414,322.92,-10.8272,-16.8548,179.253,1.23047,-145.701,676
1571222414,322.92,-10.8272,-16.8548,179.253,1.23047,-145.701,676
1571222414,322.92,-10.8272,-16.8548,179.253,1.23047,-145.701,676
1571222414,322.92,-10.8272,-16.8548,179.253,1.23047,-145.679,676
1571222414,322.92,-10.8272,-16.8548,179.253,1.23047,-145.679,676
1571222414,322.92,-10.8272,-16.8548,179.253,1.23047,-145.679,676
1571222414,322.92,-10.8272,-16.8548,179.253,1.23047,-145.679,680
1571222414,322.92,-10.7156,-16.8548,179.253,1.23047,-145.679,680
1571222414,322.92,-10.7156,-16.8548,179.253,1.23047,-145.679,680
1571222414,322.92,-10.7156,-16.8548,179.253,1.2085,-145.679,680
1571222414,322.808,-10.7156,-16.8548,179.253,1.2085,-145.679,680
1571222414,322.808,-10.7156,-16.8548,179.275,1.2085,-145.679,680
1571222414,322.808,-10.7156,-16.8548,179.275,1.2085,-145.679,680
1571222414,322.808,-10.7156,-16.8548,179.275,1.2085,-145.701,680
1571222414,322.808,-10.7156,-16.8548,179.275,1.2085,-145.701,680
1571222414,322.808,-10.7156,-16.8548,179.275,1.2085,-145.701,684
1571222414,322.808,-10.7156,-16.8548,179.275,1.2085,-145.701,684
1571222414,322.808,-10.7156,-16.8548,179.275,1.2085,-145.701,684
1571222414,322.808,-10.7156,-16.8548,179.275,1.2085,-145.701,680
1571222414,322.808,-10.7156,-16.8548,179.275,1.2085,-145.701,680
1571222414,322.808,-10.7156,-16.8548,179.275,1.2085,-145.701,680
1571222414,322.808,-10.7156,-16.8548,179.275,1.2085,-145.701,680
1571222414,322.808,-10.7156,-16.8548,179.275,1.2085,-145.701,680
1571222414,322.808,-10.7156,-16.8548,179.275,1.2085,-145.701,680
1571222414,322.808,-10.7156,-16.8548,179.275,1.2085,-145.701,680
1571222414,322.808,-10.7156,-16.8548,179.275,1.2085,-145.701,676
1571222414,322.808,-10.7156,-16.8548,179.275,1.2085,-145.701,676
1571222414,322.808,-10.7156,-16.8548,179.275,1.2085,-145.701,676
1571222414,322.808,-10.7156,-16.8548,179.275,1.2085,-145.701,676
1571222414,322.92,-10.7156,-16.8548,179.275,1.2085,-145.701,676
1571222414,322.92,-10.7156,-16.8548,179.275,1.2085,-145.701,672
1571222414,322.92,-10.7156,-16.8548,179.275,1.2085,-145.701,672
1571222414,322.92,-10.7156,-16.8548,179.275,1.2085,-145.701,672
1571222414,322.92,-10.7156,-16.8548,179.275,1.2085,-145.701,672
1571222414,322.92,-10.7156,-16.8548,179.275,1.2085,-145.701,672
1571222414,322.92,-10.7156,-16.8548,179.275,1.2085,-145.679,672
1571222414,322.92,-10.7156,-16.8548,179.275,1.2085,-145.679,668
1571222414,322.92,-10.7156,-16.8548,179.275,1.2085,-145.679,668
1571222414,322.92,-10.7156,-16.8548,179.275,1.2085,-145.679,668
1571222414,322.92,-10.7156,-16.8548,179.275,1.2085,-145.679,668
1571222414,322.92,-10.7156,-16.8548,179.275,1.2085,-145.679,668
1571222414,322.92,-10.7156,-16.8548,179.275,1.2085,-145.679,668
1571222414,322.92,-10.7156,-16.8548,179.275,1.2085,-145.679,672
1571222414,322.92,-10.7156,-16.8548,179.275,1.2085,-145.679,672
1571222414,322.92,-10.7156,-16.8548,179.275,1.2085,-145.679,672
1571222414,322.92,-10.7156,-16.8548,179.275,1.2085,-145.679,672
1571222414,322.92,-10.7156,-16.8548,179.275,1.2085,-145.679,672
1571222414,322.92,-10.7156,-16.8548,179.275,1.2085,-145.679,672
1571222414,322.92,-10.7156,-16.8548,179.275,1.2085,-145.679,672
1571222414,322.92,-10.7156,-16.8548,179.275,1.2085,-145.679,672
1571222414,322.92,-10.7156,-16.8548,179.275,1.2085,-145.679,672
1571222414,322.92,-10.7156,-16.8548,179.275,1.23047,-145.679,672
1571222414,322.92,-10.7156,-16.8548,179.275,1.23047,-145.679,672
1571222414,322.92,-10.7156,-16.8548,179.275,1.23047,-145.679,672
1571222414,322.92,-10.7156,-16.8548,179.275,1.23047,-145.679,672
1571222414,322.92,-10.7156,-16.7432,179.275,1.23047,-145.679,672
1571222414,322.92,-10.7156,-16.7432,179.275,1.23047,-145.679,672
1571222414,322.92,-10.7156,-16.7432,179.275,1.23047,-145.679,672
1571222414,322.92,-10.7156,-16.7432,179.275,1.23047,-145.679,672
1571222414,322.92,-10.7156,-16.7432,179.275,1.23047,-145.679,668
1571222414,322.92,-10.7156,-16.7432,179.275,1.23047,-145.679,668
1571222414,322.92,-10.7156,-16.7432,179.275,1.23047,-145.679,668
1571222414,322.92,-10.7156,-16.7432,179.275,1.23047,-145.679,668
1571222414,322.92,-10.7156,-16.7432,179.275,1.23047,-145.679,668
1571222414,322.92,-10.7156,-16.7432,179.275,1.23047,-145.679,668
1571222414,322.92,-10.7156,-16.7432,179.275,1.23047,-145.679,664
1571222414,322.92,-10.7156,-16.7432,179.275,1.23047,-145.679,664
1571222414,322.92,-10.7156,-16.7432,179.275,1.23047,-145.679,664
1571222415,322.92,-10.7156,-16.7432,179.275,1.23047,-145.679,664
1571222415,322.92,-10.7156,-16.7432,179.275,1.23047,-145.679,664
1571222415,322.92,-10.7156,-16.7432,179.275,1.23047,-145.679,664
1571222415,322.92,-10.7156,-16.7432,179.275,1.23047,-145.679,664
1571222415,322.92,-10.7156,-16.8548,179.275,1.23047,-145.679,664
1571222415,322.92,-10.7156,-16.8548,179.275,1.23047,-145.679,664
1571222415,322.92,-10.7156,-16.8548,179.275,1.23047,-145.679,664
1571222415,322.92,-10.7156,-16.8548,179.275,1.23047,-145.679,664
1571222415,322.92,-10.7156,-16.8548,179.275,1.23047,-145.679,664
1571222415,322.92,-10.7156,-16.8548,179.275,1.23047,-145.679,668
1571222415,322.92,-10.7156,-16.8548,179.275,1.23047,-145.679,668
1571222415,322.92,-10.7156,-16.8548,179.275,1.23047,-145.679,668
1571222415,322.92,-10.7156,-16.8548,179.275,1.2085,-145.679,668
1571222415,322.92,-10.7156,-16.8548,179.275,1.2085,-145.679,668
1571222415,322.92,-10.7156,-16.8548,179.275,1.2085,-145.679,668
1571222415,322.92,-10.7156,-16.8548,179.275,1.2085,-145.679,668
1571222415,322.92,-10.7156,-16.8548,179.275,1.2085,-145.679,668
1571222415,322.92,-10.7156,-16.8548,179.275,1.2085,-145.679,668
1571222415,322.92,-10.7156,-16.8548,179.275,1.2085,-145.679,668
1571222415,322.92,-10.7156,-16.8548,179.275,1.2085,-145.679,668
1571222415,322.92,-10.7156,-16.8548,179.275,1.2085,-145.679,668
1571222415,322.92,-10.7156,-16.8548,179.275,1.2085,-145.679,668
1571222415,322.92,-10.7156,-16.8548,179.275,1.2085,-145.657,668
1571222415,322.92,-10.7156,-16.8548,179.275,1.2085,-145.657,668
1571222415,322.92,-10.7156,-16.8548,179.275,1.2085,-145.657,668
1571222415,322.92,-10.7156,-16.8548,179.275,1.2085,-145.657,668
1571222415,322.92,-10.7156,-16.8548,179.275,1.2085,-145.657,668
1571222415,322.92,-10.7156,-16.8548,179.275,1.2085,-145.657,668
1571222415,322.92,-10.7156,-16.8548,179.275,1.2085,-145.657,668
1571222415,322.92,-10.7156,-16.8548,179.275,1.2085,-145.657,668
1571222415,322.92,-10.7156,-16.8548,179.275,1.2085,-145.657,668
1571222415,322.92,-10.7156,-16.8548,179.275,1.2085,-145.657,668
1571222415,322.92,-10.7156,-16.8548,179.275,1.2085,-145.657,668
1571222415,322.92,-10.7156,-16.8548,179.275,1.2085,-145.657,668
1571222415,322.92,-10.7156,-16.8548,179.275,1.2085,-145.679,668
1571222415,322.92,-10.7156,-16.8548,179.275,1.2085,-145.679,668
1571222415,322.92,-10.7156,-16.8548,179.275,1.2085,-145.679,668
1571222415,322.92,-10.7156,-16.8548,179.275,1.2085,-145.679,668
1571222415,322.92,-10.7156,-16.8548,179.275,1.2085,-145.679,668
1571222415,322.92,-10.7156,-16.8548,179.275,1.2085,-145.679,668
1571222415,322.92,-10.7156,-16.8548,179.275,1.2085,-145.679,668
1571222415,322.92,-10.7156,-16.8548,179.275,1.2085,-145.679,668
1571222415,322.92,-10.7156,-16.8548,179.275,1.2085,-145.679,668
1571222415,322.92,-10.7156,-16.8548,179.275,1.2085,-145.679,668
1571222415,322.92,-10.7156,-16.8548,179.275,1.2085,-145.679,672
1571222415,322.92,-10.7156,-16.8548,179.275,1.2085,-145.679,672
1571222415,322.92,-10.7156,-16.8548,179.275,1.2085,-145.679,672
1571222415,322.92,-10.7156,-16.8548,179.275,1.2085,-145.679,672
1571222415,322.92,-10.7156,-16.8548,179.275,1.2085,-145.679,672
1571222415,322.92,-10.7156,-16.8548,179.275,1.2085,-145.679,672
1571222415,322.92,-10.7156,-16.8548,179.275,1.2085,-145.679,672
1571222415,322.92,-10.7156,-16.8548,179.275,1.2085,-145.679,672
1571222415,322.92,-10.7156,-16.8548,179.275,1.2085,-145.679,676
1571222415,322.92,-10.7156,-16.8548,179.275,1.2085,-145.679,676
1571222415,322.92,-10.7156,-16.8548,179.275,1.2085,-145.679,676
1571222415,322.92,-10.7156,-16.8548,179.275,1.2085,-145.679,676
1571222415,322.92,-10.7156,-16.8548,179.275,1.2085,-145.679,676
1571222415,322.92,-10.7156,-16.8548,179.275,1.2085,-145.679,676
1571222415,322.92,-10.7156,-16.8548,179.275,1.2085,-145.679,676
1571222415,322.92,-10.7156,-16.8548,179.275,1.2085,-145.679,676
1571222415,322.808,-10.7156,-16.8548,179.275,1.2085,-145.679,676
1571222415,322.808,-10.7156,-16.8548,179.275,1.2085,-145.679,676
1571222415,322.808,-10.7156,-16.8548,179.275,1.2085,-145.679,680
1571222415,322.808,-10.7156,-16.8548,179.275,1.2085,-145.679,680
1571222415,322.808,-10.7156,-16.8548,179.275,1.2085,-145.679,680
1571222415,322.92,-10.7156,-16.8548,179.275,1.2085,-145.679,680
1571222415,322.92,-10.7156,-16.8548,179.275,1.2085,-145.679,680
1571222415,322.92,-10.7156,-16.8548,179.275,1.2085,-145.679,680
1571222415,322.92,-10.7156,-16.8548,179.275,1.2085,-145.679,680
1571222415,322.92,-10.7156,-16.8548,179.275,1.2085,-145.679,680
1571222415,322.92,-10.7156,-16.8548,179.275,1.2085,-145.679,680
1571222415,322.92,-10.7156,-16.8548,179.275,1.23047,-145.679,680
1571222415,322.92,-10.7156,-16.8548,179.275,1.23047,-145.679,676
1571222415,322.92,-10.7156,-16.8548,179.275,1.23047,-145.679,676
1571222415,322.92,-10.7156,-16.8548,179.275,1.23047,-145.679,676
1571222415,322.92,-10.7156,-16.8548,179.275,1.23047,-145.679,676
1571222415,322.92,-10.7156,-16.8548,179.275,1.23047,-145.679,676
1571222415,322.92,-10.7156,-16.8548,179.275,1.23047,-145.679,672
1571222415,322.92,-10.7156,-16.7432,179.275,1.23047,-145.679,672
1571222415,322.92,-10.7156,-16.7432,179.275,1.23047,-145.679,672
1571222415,322.92,-10.7156,-16.7432,179.275,1.23047,-145.679,672
1571222415,322.92,-10.7156,-16.7432,179.275,1.23047,-145.679,672
1571222415,322.92,-10.7156,-16.7432,179.275,1.23047,-145.679,672
1571222415,322.92,-10.7156,-16.7432,179.275,1.23047,-145.679,672
1571222415,322.92,-10.7156,-16.7432,179.275,1.23047,-145.679,672
1571222415,322.92,-10.7156,-16.7432,179.275,1.23047,-145.679,672
1571222415,322.92,-10.7156,-16.7432,179.275,1.23047,-145.679,672
1571222415,322.92,-10.7156,-16.8548,179.275,1.23047,-145.679,672
1571222415,322.92,-10.7156,-16.8548,179.253,1.23047,-145.679,672
1571222415,322.92,-10.7156,-16.8548,179.253,1.23047,-145.679,668
1571222415,322.92,-10.7156,-16.8548,179.253,1.23047,-145.679,668
1571222415,322.92,-10.7156,-16.8548,179.253,1.23047,-145.679,668
1571222415,322.92,-10.7156,-16.8548,179.253,1.23047,-145.679,668
1571222415,322.92,-10.8272,-16.8548,179.253,1.23047,-145.679,668
1571222415,322.92,-10.8272,-16.8548,179.253,1.23047,-145.679,668
1571222415,322.92,-10.8272,-16.8548,179.253,1.23047,-145.679,668
1571222415,322.92,-10.8272,-16.8548,179.253,1.23047,-145.679,668
1571222415,322.92,-10.8272,-16.8548,179.253,1.23047,-145.679,668
1571222415,322.92,-10.8272,-16.8548,179.253,1.23047,-145.679,668
1571222415,322.92,-10.8272,-16.8548,179.253,1.23047,-145.679,668
1571222416,322.92,-10.8272,-16.8548,179.253,1.23047,-145.679,668
1571222416,322.92,-10.8272,-16.8548,179.253,1.23047,-145.679,668
1571222416,322.92,-10.8272,-16.8548,179.253,1.23047,-145.679,668
1571222416,322.92,-10.8272,-16.8548,179.253,1.2085,-145.679,668
1571222416,322.92,-10.8272,-16.8548,179.253,1.2085,-145.679,668
1571222416,322.92,-10.8272,-16.8548,179.253,1.2085,-145.679,668
1571222416,322.92,-10.8272,-16.8548,179.253,1.2085,-145.679,668
1571222416,322.92,-10.8272,-16.8548,179.253,1.2085,-145.679,668
1571222416,322.92,-10.8272,-16.8548,179.253,1.2085,-145.679,668
1571222416,322.92,-10.8272,-16.8548,179.253,1.2085,-145.679,668
1571222416,322.92,-10.8272,-16.8548,179.253,1.2085,-145.679,672
1571222416,322.92,-10.8272,-16.8548,179.253,1.2085,-145.679,672
1571222416,322.92,-10.8272,-16.8548,179.275,1.2085,-145.679,672
1571222416,322.92,-10.7156,-16.8548,179.275,1.23047,-145.679,672
1571222416,322.92,-10.7156,-16.8548,179.275,1.23047,-145.679,672
1571222416,322.92,-10.7156,-16.8548,179.275,1.23047,-145.679,672
1571222416,322.92,-10.7156,-16.8548,179.275,1.23047,-145.679,672
1571222416,322.92,-10.7156,-16.8548,179.275,1.23047,-145.679,672
1571222416,322.92,-10.7156,-16.8548,179.275,1.23047,-145.679,672
1571222416,322.92,-10.7156,-16.8548,179.275,1.23047,-145.679,672
1571222416,322.92,-10.7156,-16.8548,179.275,1.23047,-145.679,672
1571222416,322.92,-10.7156,-16.8548,179.275,1.23047,-145.679,672
1571222416,322.92,-10.7156,-16.8548,179.275,1.23047,-145.679,668
1571222416,322.92,-10.7156,-16.8548,179.275,1.23047,-145.679,668
1571222416,322.92,-10.7156,-16.8548,179.275,1.23047,-145.679,668
1571222416,322.92,-10.7156,-16.8548,179.275,1.23047,-145.679,668
1571222416,322.92,-10.7156,-16.8548,179.275,1.23047,-145.679,668
1571222416,322.92,-10.7156,-16.7432,179.275,1.23047,-145.679,668
1571222416,322.92,-10.7156,-16.7432,179.275,1.23047,-145.679,668
1571222416,322.92,-10.7156,-16.7432,179.275,1.23047,-145.679,668
1571222416,322.92,-10.7156,-16.7432,179.275,1.23047,-145.679,668
1571222416,322.92,-10.7156,-16.7432,179.275,1.23047,-145.679,668
1571222416,322.92,-10.7156,-16.7432,179.275,1.23047,-145.679,668
1571222416,322.92,-10.7156,-16.7432,179.275,1.23047,-145.679,668
1571222416,322.92,-10.7156,-16.7432,179.275,1.23047,-145.679,668
1571222416,322.92,-10.7156,-16.7432,179.275,1.23047,-145.679,668
1571222416,322.92,-10.7156,-16.7432,179.275,1.23047,-145.679,668
1571222416,322.92,-10.7156,-16.7432,179.275,1.23047,-145.679,668
1571222416,322.92,-10.7156,-16.7432,179.275,1.23047,-145.679,672
1571222416,322.92,-10.7156,-16.7432,179.275,1.23047,-145.679,672
1571222416,322.92,-10.7156,-16.7432,179.275,1.23047,-145.679,672
1571222416,322.92,-10.7156,-16.7432,179.275,1.23047,-145.679,672
1571222416,322.92,-10.7156,-16.7432,179.275,1.23047,-145.679,672
1571222416,322.92,-10.7156,-16.7432,179.275,1.23047,-145.679,672
1571222416,322.92,-10.7156,-16.7432,179.275,1.23047,-145.679,672
1571222416,322.92,-10.7156,-16.7432,179.275,1.23047,-145.679,676
1571222416,322.92,-10.7156,-16.8548,179.275,1.23047,-145.679,676
1571222416,322.92,-10.7156,-16.8548,179.275,1.23047,-145.679,676
1571222416,322.92,-10.7156,-16.8548,179.275,1.23047,-145.679,676
1571222416,322.92,-10.7156,-16.8548,179.275,1.23047,-145.679,676
1571222416,322.92,-10.7156,-16.8548,179.275,1.23047,-145.679,676
1571222416,322.92,-10.7156,-16.8548,179.275,1.23047,-145.679,676
1571222416,322.92,-10.7156,-16.8548,179.275,1.23047,-145.679,676
1571222416,322.92,-10.7156,-16.8548,179.275,1.23047,-145.679,676
1571222416,322.92,-10.7156,-16.8548,179.275,1.23047,-145.679,676
1571222416,322.92,-10.7156,-16.8548,179.275,1.2085,-145.679,676
1571222416,322.92,-10.7156,-16.8548,179.275,1.2085,-145.679,676
1571222416,322.92,-10.7156,-16.8548,179.275,1.2085,-145.679,676
1571222416,322.92,-10.7156,-16.8548,179.275,1.2085,-145.679,672
1571222416,322.92,-10.7156,-16.8548,179.275,1.2085,-145.679,672
1571222416,322.92,-10.7156,-16.8548,179.275,1.2085,-145.679,672
1571222416,322.92,-10.7156,-16.8548,179.275,1.2085,-145.679,672
1571222416,322.92,-10.7156,-16.8548,179.275,1.2085,-145.679,672
1571222416,322.92,-10.7156,-16.8548,179.275,1.2085,-145.679,672
1571222416,322.92,-10.7156,-16.8548,179.275,1.2085,-145.679,672
1571222416,322.92,-10.7156,-16.8548,179.275,1.2085,-145.679,672
1571222416,322.92,-10.7156,-16.8548,179.275,1.2085,-145.679,672
1571222416,322.92,-10.7156,-16.8548,179.275,1.2085,-145.679,672
1571222416,322.92,-10.7156,-16.8548,179.275,1.2085,-145.679,672
1571222416,322.92,-10.7156,-16.8548,179.275,1.2085,-145.679,672
1571222416,322.92,-10.7156,-16.8548,179.275,1.2085,-145.679,672
1571222416,322.92,-10.7156,-16.8548,179.275,1.23047,-145.679,672
1571222416,322.92,-10.7156,-16.8548,179.275,1.23047,-145.679,672
1571222416,322.92,-10.7156,-16.8548,179.275,1.23047,-145.679,672
1571222416,322.92,-10.7156,-16.8548,179.275,1.23047,-145.701,672
1571222416,322.92,-10.7156,-16.8548,179.275,1.23047,-145.701,672
1571222416,322.92,-10.7156,-16.8548,179.275,1.23047,-145.701,672
1571222416,322.92,-10.7156,-16.8548,179.275,1.23047,-145.701,672
1571222416,322.92,-10.7156,-16.7432,179.275,1.23047,-145.701,672
1571222416,322.92,-10.7156,-16.7432,179.275,1.23047,-145.701,672
1571222416,322.92,-10.7156,-16.7432,179.275,1.23047,-145.679,672
1571222416,322.92,-10.7156,-16.7432,179.275,1.23047,-145.679,668
1571222416,322.92,-10.7156,-16.7432,179.275,1.23047,-145.679,668
1571222416,322.92,-10.7156,-16.7432,179.275,1.23047,-145.679,668
1571222416,322.92,-10.7156,-16.7432,179.275,1.23047,-145.679,668
1571222416,322.92,-10.7156,-16.7432,179.275,1.23047,-145.679,668
1571222416,322.92,-10.7156,-16.7432,179.275,1.23047,-145.679,668
1571222416,322.92,-10.7156,-16.7432,179.253,1.25244,-145.679,668
1571222416,322.92,-10.7156,-16.7432,179.253,1.23047,-145.679,664
1571222416,322.92,-10.7156,-16.7432,179.253,1.23047,-145.679,664
1571222416,322.92,-10.7156,-16.7432,179.253,1.23047,-145.679,664
1571222416,322.92,-10.7156,-16.7432,179.253,1.23047,-145.679,664
1571222416,322.92,-10.7156,-16.7432,179.253,1.23047,-145.679,664
1571222416,322.92,-10.7156,-16.7432,179.253,1.23047,-145.679,664
1571222416,322.92,-10.7156,-16.7432,179.253,1.23047,-145.679,664
1571222416,322.92,-10.7156,-16.7432,179.253,1.23047,-145.679,664
1571222416,322.92,-10.7156,-16.7432,179.253,1.23047,-145.679,664
1571222416,322.92,-10.7156,-16.7432,179.253,1.23047,-145.679,664
1571222416,322.92,-10.7156,-16.7432,179.253,1.23047,-145.679,664
1571222416,322.92,-10.7156,-16.7432,179.253,1.23047,-145.679,664
1571222417,322.92,-10.7156,-16.7432,179.253,1.23047,-145.679,664
1571222417,322.92,-10.7156,-16.7432,179.275,1.23047,-145.679,664
1571222417,322.92,-10.7156,-16.7432,179.275,1.23047,-145.679,664
1571222417,322.92,-10.7156,-16.8548,179.275,1.23047,-145.679,664
1571222417,322.92,-10.7156,-16.8548,179.275,1.23047,-145.679,664
1571222417,322.92,-10.7156,-16.8548,179.275,1.23047,-145.679,664
1571222417,322.92,-10.7156,-16.8548,179.275,1.23047,-145.679,664
1571222417,322.92,-10.7156,-16.8548,179.275,1.23047,-145.679,664
1571222417,322.92,-10.7156,-16.8548,179.275,1.23047,-145.679,664
1571222417,322.92,-10.7156,-16.8548,179.275,1.23047,-145.679,660
1571222417,322.92,-10.7156,-16.8548,179.275,1.23047,-145.679,660
1571222417,322.92,-10.7156,-16.8548,179.275,1.23047,-145.679,660
1571222417,322.92,-10.7156,-16.8548,179.253,1.23047,-145.679,660
1571222417,322.92,-10.7156,-16.7432,179.253,1.23047,-145.679,660
1571222417,322.92,-10.7156,-16.7432,179.253,1.23047,-145.679,660
1571222417,322.92,-10.8272,-16.7432,179.253,1.23047,-145.679,660
1571222417,322.92,-10.8272,-16.7432,179.253,1.23047,-145.679,664
1571222417,322.92,-10.7156,-16.7432,179.253,1.23047,-145.679,664
1571222417,322.92,-10.7156,-16.7432,179.253,1.23047,-145.679,664
1571222417,322.92,-10.7156,-16.7432,179.253,1.23047,-145.679,664
1571222417,322.92,-10.7156,-16.7432,179.253,1.23047,-145.679,664
1571222417,322.92,-10.7156,-16.7432,179.275,1.23047,-145.679,664
1571222417,322.92,-10.7156,-16.7432,179.275,1.23047,-145.679,664
1571222417,322.92,-10.7156,-16.7432,179.275,1.23047,-145.679,664
1571222417,322.92,-10.7156,-16.7432,179.275,1.23047,-145.679,664
1571222417,322.92,-10.7156,-16.7432,179.275,1.23047,-145.679,664
1571222417,322.92,-10.7156,-16.7432,179.275,1.23047,-145.679,668
1571222417,322.92,-10.7156,-16.7432,179.275,1.23047,-145.679,668
1571222417,322.92,-10.7156,-16.7432,179.275,1.23047,-145.679,668
1571222417,322.92,-10.7156,-16.7432,179.275,1.23047,-145.679,668
1571222417,322.92,-10.7156,-16.7432,179.275,1.23047,-145.679,668
1571222417,322.92,-10.7156,-16.7432,179.275,1.23047,-145.679,668
1571222417,322.92,-10.7156,-16.7432,179.275,1.23047,-145.679,668
1571222417,322.92,-10.7156,-16.7432,179.275,1.23047,-145.679,668
1571222417,322.92,-10.7156,-16.7432,179.275,1.23047,-145.679,668
1571222417,322.92,-10.7156,-16.7432,179.275,1.23047,-145.679,668
1571222417,322.92,-10.7156,-16.7432,179.275,1.23047,-145.679,668
1571222417,322.92,-10.7156,-16.7432,179.275,1.23047,-145.679,668
1571222417,322.92,-10.7156,-16.7432,179.275,1.23047,-145.679,668
1571222417,322.92,-10.7156,-16.7432,179.275,1.23047,-145.679,668
1571222417,322.92,-10.7156,-16.7432,179.275,1.23047,-145.679,668
1571222417,322.92,-10.7156,-16.7432,179.275,1.23047,-145.679,668
1571222417,322.92,-10.7156,-16.7432,179.275,1.23047,-145.679,668
1571222417,322.92,-10.7156,-16.7432,179.275,1.23047,-145.679,664
1571222417,322.92,-10.7156,-16.7432,179.275,1.23047,-145.679,664
1571222417,322.92,-10.7156,-16.7432,179.275,1.23047,-145.679,664
1571222417,322.92,-10.7156,-16.7432,179.275,1.23047,-145.679,664
1571222417,322.92,-10.7156,-16.7432,179.253,1.23047,-145.679,664
1571222417,322.92,-10.7156,-16.7432,179.253,1.23047,-145.679,664
1571222417,322.92,-10.7156,-16.7432,179.253,1.23047,-145.679,664
1571222417,322.92,-10.7156,-16.7432,179.253,1.23047,-145.679,664
1571222417,322.92,-10.7156,-16.7432,179.253,1.23047,-145.679,664
1571222417,322.92,-10.7156,-16.7432,179.253,1.23047,-145.679,664
1571222417,322.92,-10.7156,-16.7432,179.253,1.23047,-145.679,664
1571222417,322.92,-10.7156,-16.7432,179.253,1.23047,-145.679,664
1571222417,322.92,-10.7156,-16.7432,179.253,1.23047,-145.679,664
1571222417,322.92,-10.7156,-16.7432,179.253,1.23047,-145.679,664
1571222417,322.92,-10.7156,-16.7432,179.253,1.23047,-145.679,664
1571222417,322.92,-10.7156,-16.8548,179.253,1.23047,-145.679,664
1571222417,322.92,-10.7156,-16.8548,179.253,1.23047,-145.679,664
1571222417,322.92,-10.7156,-16.8548,179.253,1.23047,-145.657,664
1571222417,322.92,-10.8272,-16.8548,179.253,1.23047,-145.657,664
1571222417,322.92,-10.8272,-16.8548,179.253,1.23047,-145.657,664
1571222417,322.92,-10.8272,-16.7432,179.253,1.23047,-145.657,664
1571222417,322.92,-10.8272,-16.7432,179.253,1.23047,-145.657,668
1571222417,322.92,-10.8272,-16.7432,179.253,1.23047,-145.657,668
1571222417,322.92,-10.8272,-16.7432,179.253,1.23047,-145.657,668
1571222417,322.92,-10.8272,-16.7432,179.253,1.23047,-145.657,668
1571222417,322.92,-10.8272,-16.7432,179.253,1.23047,-145.657,668
1571222417,322.92,-10.8272,-16.7432,179.253,1.23047,-145.679,668
1571222417,322.92,-10.8272,-16.7432,179.253,1.23047,-145.679,668
1571222417,322.92,-10.8272,-16.7432,179.253,1.23047,-145.679,672
1571222417,322.92,-10.8272,-16.7432,179.253,1.23047,-145.679,672
1571222417,322.92,-10.7156,-16.7432,179.253,1.23047,-145.679,672
1571222417,322.92,-10.7156,-16.7432,179.253,1.23047,-145.679,672
1571222417,322.92,-10.7156,-16.7432,179.275,1.23047,-145.679,672
1571222417,322.92,-10.7156,-16.7432,179.275,1.23047,-145.679,672
1571222417,322.92,-10.7156,-16.8548,179.275,1.23047,-145.679,672
1571222417,322.92,-10.7156,-16.8548,179.275,1.23047,-145.679,672
1571222417,322.92,-10.7156,-16.8548,179.275,1.23047,-145.679,672
1571222417,322.92,-10.7156,-16.8548,179.275,1.23047,-145.679,672
1571222417,322.92,-10.7156,-16.8548,179.275,1.2085,-145.679,672
1571222417,322.92,-10.7156,-16.8548,179.275,1.2085,-145.679,672
1571222417,322.92,-10.7156,-16.8548,179.275,1.2085,-145.679,672
1571222417,322.92,-10.7156,-16.8548,179.275,1.2085,-145.679,672
1571222417,322.92,-10.7156,-16.8548,179.275,1.2085,-145.679,672
1571222417,322.92,-10.7156,-16.8548,179.275,1.2085,-145.679,672
1571222417,322.92,-10.7156,-16.8548,179.275,1.2085,-145.679,668
1571222417,322.92,-10.7156,-16.8548,179.275,1.2085,-145.679,668
1571222417,322.92,-10.7156,-16.8548,179.275,1.2085,-145.679,668
1571222417,322.92,-10.7156,-16.8548,179.275,1.2085,-145.679,668
1571222417,322.92,-10.7156,-16.8548,179.275,1.2085,-145.679,668
1571222417,322.92,-10.7156,-16.8548,179.275,1.2085,-145.679,668
1571222417,322.92,-10.7156,-16.8548,179.275,1.2085,-145.679,668
1571222417,322.92,-10.7156,-16.8548,179.275,1.2085,-145.679,668
1571222417,322.92,-10.7156,-16.8548,179.275,1.2085,-145.679,668
1571222417,322.92,-10.7156,-16.8548,179.275,1.2085,-145.679,672
1571222417,322.92,-10.7156,-16.8548,179.275,1.2085,-145.679,672
1571222417,322.92,-10.7156,-16.8548,179.275,1.2085,-145.679,672
1571222417,322.92,-10.7156,-16.8548,179.275,1.2085,-145.679,672
1571222418,322.92,-10.7156,-16.8548,179.275,1.2085,-145.679,672
1571222418,322.92,-10.7156,-16.8548,179.275,1.2085,-145.679,672
1571222418,322.92,-10.7156,-16.8548,179.275,1.2085,-145.679,672
1571222418,322.92,-10.7156,-16.8548,179.275,1.2085,-145.679,672
1571222418,322.92,-10.7156,-16.8548,179.275,1.2085,-145.679,672
1571222418,322.92,-10.7156,-16.8548,179.275,1.2085,-145.679,676
1571222418,322.92,-10.7156,-16.8548,179.275,1.2085,-145.679,676
1571222418,322.92,-10.7156,-16.8548,179.275,1.2085,-145.679,676
1571222418,322.92,-10.7156,-16.8548,179.275,1.2085,-145.679,676
1571222418,322.92,-10.7156,-16.8548,179.275,1.2085,-145.679,676
1571222418,322.92,-10.7156,-16.8548,179.275,1.2085,-145.679,676
1571222418,322.92,-10.7156,-16.8548,179.275,1.2085,-145.679,676
1571222418,322.92,-10.7156,-16.8548,179.275,1.2085,-145.679,676
1571222418,322.92,-10.7156,-16.8548,179.275,1.2085,-145.679,676
1571222418,322.92,-10.7156,-16.8548,179.275,1.2085,-145.679,676
1571222418,322.92,-10.7156,-16.8548,179.275,1.2085,-145.679,676
1571222418,322.92,-10.7156,-16.8548,179.275,1.2085,-145.657,676
1571222418,322.92,-10.7156,-16.8548,179.275,1.2085,-145.657,676
1571222418,322.92,-10.7156,-16.8548,179.275,1.2085,-145.657,676
1571222418,322.92,-10.7156,-16.8548,179.275,1.2085,-145.657,676
1571222418,322.92,-10.7156,-16.8548,179.275,1.2085,-145.657,676
1571222418,322.92,-10.7156,-16.8548,179.275,1.2085,-145.657,676
1571222418,322.92,-10.7156,-16.8548,179.275,1.2085,-145.657,676
1571222418,322.92,-10.7156,-16.8548,179.275,1.2085,-145.657,676
1571222418,322.92,-10.7156,-16.8548,179.275,1.2085,-145.657,676
1571222418,322.92,-10.7156,-16.8548,179.275,1.2085,-145.679,676
1571222418,322.92,-10.7156,-16.8548,179.275,1.2085,-145.679,676
1571222418,322.92,-10.7156,-16.8548,179.275,1.2085,-145.679,680
1571222418,322.92,-10.7156,-16.8548,179.275,1.2085,-145.679,680
1571222418,322.92,-10.7156,-16.8548,179.275,1.2085,-145.679,680
1571222418,322.92,-10.7156,-16.8548,179.275,1.2085,-145.679,680
1571222418,322.92,-10.7156,-16.8548,179.275,1.2085,-145.679,680
1571222418,322.92,-10.7156,-16.8548,179.275,1.2085,-145.679,680
1571222418,322.92,-10.7156,-16.8548,179.275,1.2085,-145.679,680
1571222418,322.92,-10.7156,-16.8548,179.275,1.2085,-145.679,680
1571222418,322.92,-10.7156,-16.8548,179.275,1.2085,-145.679,680
1571222418,322.92,-10.7156,-16.8548,179.275,1.2085,-145.679,680
1571222418,322.92,-10.7156,-16.8548,179.275,1.2085,-145.679,680
1571222418,322.92,-10.7156,-16.8548,179.275,1.2085,-145.679,684
1571222418,322.92,-10.7156,-16.8548,179.275,1.2085,-145.679,684
1571222418,322.92,-10.7156,-16.8548,179.275,1.2085,-145.679,684
1571222418,322.92,-10.7156,-16.8548,179.275,1.2085,-145.679,684
1571222418,322.92,-10.7156,-16.8548,179.275,1.2085,-145.679,680
1571222418,322.92,-10.7156,-16.8548,179.275,1.2085,-145.679,680
1571222418,322.92,-10.7156,-16.8548,179.275,1.23047,-145.679,680
1571222418,322.92,-10.7156,-16.8548,179.275,1.23047,-145.679,680
1571222418,322.92,-10.7156,-16.7432,179.275,1.23047,-145.679,680
1571222418,322.92,-10.7156,-16.7432,179.297,1.23047,-145.679,680
1571222418,322.92,-10.7156,-16.7432,179.297,1.23047,-145.679,680
1571222418,322.92,-10.7156,-16.7432,179.297,1.23047,-145.679,680
1571222418,322.92,-10.7156,-16.7432,179.297,1.23047,-145.679,680
1571222418,322.92,-10.7156,-16.7432,179.297,1.23047,-145.679,680
1571222418,322.92,-10.7156,-16.7432,179.297,1.23047,-145.679,680
1571222418,322.92,-10.7156,-16.8548,179.297,1.23047,-145.679,680
1571222418,322.92,-10.7156,-16.8548,179.297,1.23047,-145.679,680
1571222418,322.92,-10.7156,-16.8548,179.297,1.23047,-145.679,680
1571222418,322.92,-10.7156,-16.8548,179.297,1.2085,-145.679,680
1571222418,322.92,-10.7156,-16.8548,179.297,1.2085,-145.679,680
1571222418,322.92,-10.7156,-16.8548,179.297,1.2085,-145.679,680
1571222418,322.92,-10.7156,-16.8548,179.275,1.2085,-145.679,680
1571222418,322.92,-10.7156,-16.8548,179.275,1.2085,-145.679,680
1571222418,322.92,-10.7156,-16.8548,179.275,1.2085,-145.679,680
1571222418,322.92,-10.7156,-16.8548,179.275,1.2085,-145.679,680
1571222418,322.92,-10.7156,-16.8548,179.275,1.23047,-145.679,680
1571222418,322.92,-10.7156,-16.8548,179.275,1.23047,-145.679,680
1571222418,322.92,-10.7156,-16.8548,179.275,1.23047,-145.679,680
1571222418,322.92,-10.7156,-16.8548,179.275,1.2085,-145.679,680
1571222418,322.92,-10.7156,-16.8548,179.275,1.2085,-145.679,680
1571222418,322.92,-10.7156,-16.8548,179.275,1.2085,-145.679,680
1571222418,322.92,-10.7156,-16.8548,179.275,1.2085,-145.679,680
1571222418,322.92,-10.7156,-16.8548,179.275,1.2085,-145.679,680
1571222418,322.92,-10.7156,-16.8548,179.275,1.2085,-145.679,680
1571222418,322.92,-10.7156,-16.8548,179.275,1.2085,-145.679,680
1571222418,322.92,-10.7156,-16.8548,179.275,1.2085,-145.679,680
1571222418,322.92,-10.7156,-16.8548,179.275,1.2085,-145.679,680
1571222418,322.92,-10.7156,-16.8548,179.275,1.2085,-145.679,680
1571222418,322.92,-10.7156,-16.8548,179.275,1.2085,-145.679,680
1571222418,322.92,-10.7156,-16.8548,179.275,1.2085,-145.679,680
1571222423,361.094,-51.3457,-16.6315,179.385,1.3623,-145.525,760
1571222423,361.094,-51.3457,-16.6315,179.385,1.3623,-145.525,760
1571222423,361.094,-51.3457,-16.6315,179.385,1.3623,-145.525,760
1571222423,361.094,-51.3457,-16.6315,179.385,1.3623,-145.525,760
1571222423,361.094,-51.3457,-16.6315,179.385,1.3623,-145.525,760
1571222423,361.094,-51.3457,-16.6315,179.385,1.3623,-145.525,764
1571222423,361.094,-51.3457,-16.6315,179.385,1.3623,-145.525,764
1571222423,361.094,-51.3457,-16.6315,179.385,1.38428,-145.525,764
1571222423,361.094,-51.3457,-16.6315,179.385,1.38428,-145.525,764
1571222423,361.094,-51.3457,-16.6315,179.385,1.38428,-145.525,760
1571222423,361.094,-51.3457,-16.6315,179.385,1.38428,-145.525,760
1571222423,361.094,-51.3457,-16.6315,179.407,1.38428,-145.525,760
1571222423,361.094,-51.3457,-16.6315,179.407,1.38428,-145.525,760
1571222423,361.094,-51.3457,-16.6315,179.407,1.38428,-145.525,760
1571222423,361.094,-51.3457,-16.6315,179.407,1.38428,-145.525,760
1571222423,361.094,-51.3457,-16.6315,179.385,1.38428,-145.525,760
1571222423,361.094,-51.3457,-16.6315,179.385,1.38428,-145.525,760
1571222423,361.094,-51.3457,-16.6315,179.385,1.38428,-145.525,756
1571222423,361.094,-51.3457,-16.6315,179.385,1.38428,-145.525,756
1571222423,361.094,-51.3457,-16.6315,179.385,1.3623,-145.525,756
1571222423,361.094,-51.3457,-16.6315,179.385,1.3623,-145.525,756
1571222423,361.094,-51.3457,-16.6315,179.385,1.3623,-145.525,756
1571222423,361.094,-51.3457,-16.6315,179.385,1.3623,-145.525,752
1571222423,361.094,-51.3457,-16.6315,179.385,1.3623,-145.525,752
1571222423,361.094,-51.3457,-16.6315,179.385,1.3623,-145.525,752
1571222423,361.094,-51.3457,-16.6315,179.385,1.3623,-145.525,752
1571222423,361.094,-51.3457,-16.6315,179.385,1.3623,-145.525,752
1571222423,361.094,-51.3457,-16.6315,179.385,1.3623,-145.525,752
1571222423,361.094,-51.3457,-16.6315,179.385,1.3623,-145.525,752
1571222423,361.094,-51.3457,-16.6315,179.385,1.3623,-145.525,752
1571222423,361.094,-51.3457,-16.6315,179.385,1.3623,-145.525,752
1571222423,361.094,-51.3457,-16.6315,179.385,1.3623,-145.525,752
1571222423,361.094,-51.3457,-16.6315,179.385,1.3623,-145.525,752
1571222423,361.094,-51.3457,-16.6315,179.385,1.3623,-145.525,752
1571222423,361.094,-51.3457,-16.6315,179.385,1.3623,-145.503,756
1571222423,361.094,-51.3457,-16.6315,179.385,1.3623,-145.503,756
1571222423,361.094,-51.3457,-16.6315,179.385,1.3623,-145.503,756
1571222423,361.094,-51.3457,-16.6315,179.385,1.3623,-145.503,756
1571222423,361.094,-51.3457,-16.6315,179.385,1.3623,-145.503,756
1571222423,361.094,-51.3457,-16.7432,179.385,1.3623,-145.503,756
1571222423,361.094,-51.3457,-16.7432,179.385,1.3623,-145.503,756
1571222423,361.094,-51.3457,-16.7432,179.385,1.3623,-145.503,756
1571222423,361.094,-51.3457,-16.7432,179.385,1.3623,-145.503,756
1571222423,361.094,-51.3457,-16.7432,179.385,1.3623,-145.503,756
1571222423,361.094,-51.3457,-16.7432,179.385,1.3623,-145.503,756
1571222423,361.094,-51.3457,-16.7432,179.385,1.34033,-145.503,760
1571222423,361.094,-51.3457,-16.7432,179.385,1.34033,-145.503,760
1571222424,361.094,-51.3457,-16.7432,179.385,1.34033,-145.503,760
1571222424,361.094,-51.3457,-16.7432,179.385,1.34033,-145.525,760
1571222424,361.094,-51.3457,-16.7432,179.385,1.34033,-145.525,760
1571222424,361.094,-51.3457,-16.7432,179.385,1.34033,-145.525,760
1571222424,361.094,-51.3457,-16.7432,179.385,1.34033,-145.525,760
1571222424,361.094,-51.3457,-16.7432,179.385,1.34033,-145.525,760
1571222424,361.094,-51.3457,-16.7432,179.385,1.34033,-145.525,760
1571222424,361.094,-51.3457,-16.7432,179.385,1.31836,-145.525,764
1571222424,361.094,-51.3457,-16.7432,179.385,1.31836,-145.525,764
1571222424,361.094,-51.3457,-16.7432,179.363,1.31836,-145.525,764
1571222424,361.094,-51.3457,-16.7432,179.363,1.31836,-145.525,764
1571222424,361.094,-51.3457,-16.7432,179.363,1.31836,-145.525,764
1571222424,361.094,-51.3457,-16.8548,179.385,1.31836,-145.525,764
1571222424,361.094,-51.3457,-16.8548,179.385,1.31836,-145.525,764
1571222424,361.094,-51.3457,-16.8548,179.385,1.31836,-145.525,764
1571222424,361.094,-51.3457,-16.8548,179.385,1.31836,-145.525,768
1571222424,361.094,-51.3457,-16.8548,179.385,1.31836,-145.525,768
1571222424,361.094,-51.3457,-16.7432,179.385,1.31836,-145.525,768
1571222424,361.094,-51.3457,-16.7432,179.385,1.31836,-145.525,768
1571222424,361.094,-51.3457,-16.7432,179.385,1.31836,-145.525,768
1571222424,361.094,-51.3457,-16.7432,179.363,1.31836,-145.525,768
1571222424,361.094,-51.4573,-16.7432,179.363,1.31836,-145.503,768
1571222424,361.094,-51.4573,-16.7432,179.363,1.31836,-145.503,768
1571222424,361.094,-51.4573,-16.7432,179.363,1.31836,-145.503,768
1571222424,361.094,-51.4573,-16.7432,179.363,1.31836,-145.503,768
1571222424,361.094,-51.4573,-16.7432,179.363,1.31836,-145.503,768
1571222424,361.094,-51.4573,-16.7432,179.363,1.31836,-145.503,768
1571222424,361.094,-51.4573,-16.7432,179.363,1.31836,-145.503,768
1571222424,361.094,-51.4573,-16.7432,179.363,1.31836,-145.503,768
1571222424,361.094,-51.4573,-16.7432,179.363,1.31836,-145.503,768
1571222424,361.094,-51.4573,-16.7432,179.363,1.31836,-145.503,768
1571222424,361.094,-51.4573,-16.7432,179.363,1.31836,-145.503,768
1571222424,361.094,-51.4573,-16.7432,179.363,1.31836,-145.503,768
1571222424,361.094,-51.4573,-16.7432,179.363,1.34033,-145.503,764
1571222424,361.094,-51.4573,-16.7432,179.363,1.34033,-145.503,764
1571222424,361.094,-51.4573,-16.7432,179.363,1.34033,-145.503,764
1571222424,361.094,-51.4573,-16.7432,179.363,1.34033,-145.503,764
1571222424,361.094,-51.4573,-16.7432,179.363,1.34033,-145.503,764
1571222424,361.094,-51.4573,-16.7432,179.363,1.34033,-145.503,764
1571222424,361.094,-51.4573,-16.7432,179.363,1.34033,-145.503,764
1571222424,361.094,-51.4573,-16.7432,179.363,1.34033,-145.503,764
1571222424,361.094,-51.4573,-16.7432,179.363,1.34033,-145.503,764
1571222424,361.094,-51.4573,-16.7432,179.363,1.34033,-145.525,764
1571222424,361.094,-51.4573,-16.7432,179.363,1.34033,-145.525,764
1571222424,361.094,-51.4573,-16.7432,179.363,1.34033,-145.525,764
1571222424,361.094,-51.4573,-16.6315,179.363,1.3623,-145.525,764
1571222424,361.094,-51.4573,-16.6315,179.363,1.3623,-145.525,764
1571222424,361.094,-51.4573,-16.6315,179.363,1.3623,-145.525,764
1571222424,361.094,-51.3457,-16.6315,179.363,1.3623,-145.525,760
1571222424,361.094,-51.3457,-16.6315,179.385,1.3623,-145.525,760
1571222424,361.094,-51.3457,-16.6315,179.385,1.3623,-145.525,760
1571222424,361.094,-51.3457,-16.6315,179.385,1.3623,-145.525,760
1571222424,361.094,-51.3457,-16.6315,179.385,1.3623,-145.525,760
1571222424,361.094,-51.3457,-16.7432,179.385,1.3623,-145.525,760
1571222424,361.094,-51.3457,-16.7432,179.385,1.3623,-145.525,760
1571222424,361.094,-51.3457,-16.7432,179.385,1.3623,-145.525,756
1571222424,361.094,-51.3457,-16.7432,179.385,1.3623,-145.525,756
1571222424,361.094,-51.3457,-16.7432,179.385,1.34033,-145.525,756
1571222424,361.094,-51.3457,-16.7432,179.385,1.34033,-145.525,756
1571222424,361.094,-51.3457,-16.7432,179.385,1.34033,-145.525,756
1571222424,361.094,-51.3457,-16.7432,179.385,1.34033,-145.525,752
1571222424,361.094,-51.3457,-16.7432,179.385,1.34033,-145.525,752
1571222424,361.094,-51.4573,-16.7432,179.385,1.34033,-145.525,752
1571222424,361.094,-51.4573,-16.7432,179.385,1.34033,-145.525,752
1571222424,361.206,-51.4573,-16.7432,179.385,1.34033,-145.525,752
1571222424,361.206,-51.4573,-16.7432,179.385,1.34033,-145.525,752
1571222424,361.206,-51.4573,-16.7432,179.385,1.34033,-145.525,748
1571222424,361.206,-51.4573,-16.7432,179.385,1.34033,-145.525,748
1571222424,361.206,-51.4573,-16.7432,179.385,1.34033,-145.525,748
1571222424,361.206,-51.4573,-16.7432,179.385,1.3623,-145.525,748
1571222424,361.206,-51.4573,-16.7432,179.385,1.3623,-145.525,748
1571222424,361.206,-51.4573,-16.7432,179.385,1.3623,-145.525,748
1571222424,361.206,-51.4573,-16.7432,179.385,1.3623,-145.525,748
1571222424,361.206,-51.4573,-16.7432,179.385,1.3623,-145.525,748
1571222424,361.206,-51.4573,-16.7432,179.385,1.3623,-145.525,748
1571222424,361.206,-51.4573,-16.7432,179.385,1.34033,-145.525,748
1571222424,361.206,-51.4573,-16.7432,179.385,1.34033,-145.525,748
1571222424,361.206,-51.4573,-16.7432,179.385,1.34033,-145.525,748
1571222424,361.094,-51.4573,-16.7432,179.385,1.34033,-145.525,748
1571222424,361.094,-51.4573,-16.7432,179.385,1.34033,-145.525,748
1571222424,361.094,-51.4573,-16.7432,179.385,1.34033,-145.525,748
1571222424,361.094,-51.4573,-16.7432,179.385,1.34033,-145.525,748
1571222424,361.094,-51.3457,-16.7432,179.385,1.34033,-145.525,748
1571222424,361.094,-51.3457,-16.7432,179.385,1.3623,-145.525,748
1571222424,361.094,-51.3457,-16.7432,179.385,1.3623,-145.525,748
1571222424,361.094,-51.3457,-16.7432,179.385,1.3623,-145.525,748
1571222424,361.094,-51.3457,-16.7432,179.385,1.3623,-145.525,748
1571222424,361.094,-51.3457,-16.7432,179.385,1.3623,-145.525,752
1571222424,361.094,-51.3457,-16.7432,179.407,1.3623,-145.525,752
1571222424,361.094,-51.3457,-16.7432,179.407,1.3623,-145.525,752
1571222424,361.094,-51.3457,-16.7432,179.407,1.3623,-145.503,752
1571222424,361.094,-51.3457,-16.7432,179.407,1.3623,-145.503,752
1571222424,361.094,-51.3457,-16.7432,179.407,1.3623,-145.503,752
1571222424,361.094,-51.3457,-16.7432,179.407,1.3623,-145.503,756
1571222424,361.094,-51.3457,-16.7432,179.407,1.3623,-145.503,756
1571222424,361.094,-51.3457,-16.7432,179.407,1.3623,-145.503,756
1571222424,361.094,-51.3457,-16.7432,179.407,1.3623,-145.503,756
1571222424,361.094,-51.3457,-16.7432,179.407,1.3623,-145.503,756
1571222424,361.094,-51.3457,-16.7432,179.407,1.3623,-145.503,756
1571222424,361.094,-51.3457,-16.7432,179.407,1.3623,-145.503,756
1571222425,361.094,-51.3457,-16.7432,179.407,1.34033,-145.503,760
1571222425,361.094,-51.3457,-16.7432,179.407,1.34033,-145.503,760
1571222425,361.094,-51.3457,-16.7432,179.407,1.34033,-145.503,760
1571222425,361.094,-51.3457,-16.7432,179.407,1.34033,-145.503,760
1571222425,361.094,-51.3457,-16.7432,179.407,1.34033,-145.503,760
1571222425,361.094,-51.3457,-16.7432,179.407,1.34033,-145.503,760
1571222425,361.094,-51.3457,-16.7432,179.385,1.34033,-145.503,760
1571222425,361.094,-51.3457,-16.7432,179.385,1.34033,-145.503,760
1571222425,361.094,-51.3457,-16.7432,179.385,1.34033,-145.503,756
1571222425,361.094,-51.3457,-16.7432,179.385,1.34033,-145.503,756
1571222425,361.094,-51.3457,-16.7432,179.385,1.34033,-145.503,756
1571222425,361.094,-51.3457,-16.7432,179.385,1.34033,-145.503,756
1571222425,361.094,-51.3457,-16.7432,179.385,1.34033,-145.503,756
1571222425,361.094,-51.3457,-16.7432,179.385,1.34033,-145.503,756
1571222425,361.094,-51.3457,-16.7432,179.385,1.34033,-145.503,752
1571222425,361.094,-51.3457,-16.7432,179.385,1.34033,-145.503,752
1571222425,361.094,-51.3457,-16.7432,179.385,1.34033,-145.503,752
1571222425,361.094,-51.3457,-16.7432,179.385,1.34033,-145.503,752
1571222425,361.094,-51.3457,-16.7432,179.385,1.34033,-145.503,752
1571222425,361.094,-51.3457,-16.7432,179.385,1.34033,-145.503,752
1571222425,361.094,-51.3457,-16.7432,179.385,1.34033,-145.503,752
1571222425,361.094,-51.3457,-16.7432,179.385,1.34033,-145.503,752
1571222425,361.094,-51.3457,-16.7432,179.385,1.34033,-145.503,752
1571222425,361.094,-51.3457,-16.7432,179.385,1.34033,-145.503,752
1571222425,361.094,-51.3457,-16.7432,179.385,1.34033,-145.503,752
1571222425,361.094,-51.3457,-16.7432,179.385,1.34033,-145.503,748
1571222425,361.094,-51.3457,-16.7432,179.385,1.34033,-145.503,748
1571222425,361.094,-51.4573,-16.7432,179.385,1.34033,-145.503,748
1571222425,361.094,-51.4573,-16.7432,179.385,1.31836,-145.503,748
1571222425,361.094,-51.4573,-16.7432,179.363,1.31836,-145.503,748
1571222425,361.094,-51.4573,-16.7432,179.363,1.31836,-145.503,748
1571222425,361.094,-51.4573,-16.7432,179.363,1.31836,-145.503,748
1571222425,361.094,-51.4573,-16.7432,179.363,1.31836,-145.503,748
1571222425,361.206,-51.4573,-16.7432,179.363,1.31836,-145.503,748
1571222425,361.206,-51.4573,-16.7432,179.363,1.31836,-145.503,748
1571222425,361.206,-51.4573,-16.7432,179.363,1.34033,-145.503,748
1571222425,361.206,-51.4573,-16.7432,179.363,1.34033,-145.503,748
1571222425,361.206,-51.4573,-16.7432,179.363,1.34033,-145.503,748
1571222425,361.206,-51.4573,-16.7432,179.363,1.34033,-145.503,748
1571222425,361.094,-51.4573,-16.7432,179.363,1.34033,-145.503,748
1571222425,361.094,-51.4573,-16.7432,179.363,1.34033,-145.503,748
1571222425,361.094,-51.4573,-16.7432,179.363,1.34033,-145.503,748
1571222425,361.094,-51.4573,-16.7432,179.363,1.34033,-145.503,748
1571222425,361.094,-51.4573,-16.7432,179.363,1.34033,-145.503,748
1571222425,361.094,-51.4573,-16.7432,179.363,1.34033,-145.503,752
1571222425,361.094,-51.3457,-16.7432,179.363,1.34033,-145.503,752
1571222425,361.094,-51.3457,-16.7432,179.363,1.34033,-145.503,752
1571222425,361.094,-51.3457,-16.7432,179.363,1.34033,-145.503,752
1571222425,361.094,-51.3457,-16.7432,179.385,1.34033,-145.503,756
1571222425,361.094,-51.3457,-16.7432,179.385,1.34033,-145.503,756
1571222425,361.094,-51.3457,-16.7432,179.385,1.34033,-145.503,756
1571222425,361.094,-51.3457,-16.7432,179.385,1.34033,-145.503,756
1571222425,361.094,-51.3457,-16.7432,179.385,1.34033,-145.503,756
1571222425,361.094,-51.3457,-16.7432,179.385,1.34033,-145.503,760
1571222425,361.094,-51.3457,-16.7432,179.385,1.34033,-145.503,760
1571222425,361.094,-51.3457,-16.7432,179.385,1.34033,-145.503,760
1571222425,361.094,-51.3457,-16.7432,179.385,1.34033,-145.503,760
1571222425,361.094,-51.3457,-16.7432,179.385,1.34033,-145.503,760
1571222425,361.094,-51.3457,-16.7432,179.385,1.34033,-145.503,760
1571222425,361.094,-51.3457,-16.7432,179.385,1.34033,-145.525,764
1571222425,361.094,-51.3457,-16.7432,179.385,1.34033,-145.525,764
1571222425,361.094,-51.3457,-16.7432,179.385,1.34033,-145.525,764
1571222425,361.094,-51.3457,-16.7432,179.385,1.34033,-145.525,764
1571222425,361.094,-51.3457,-16.7432,179.385,1.34033,-145.525,764
1571222425,361.094,-51.3457,-16.7432,179.385,1.34033,-145.525,768
1571222425,361.094,-51.3457,-16.7432,179.385,1.34033,-145.525,768
1571222425,361.094,-51.3457,-16.7432,179.385,1.34033,-145.525,768
1571222425,361.094,-51.3457,-16.7432,179.385,1.31836,-145.525,768
1571222425,361.094,-51.3457,-16.7432,179.385,1.31836,-145.525,768
1571222425,361.094,-51.3457,-16.7432,179.385,1.31836,-145.525,768
1571222425,361.094,-51.3457,-16.8548,179.385,1.31836,-145.525,768
1571222425,361.094,-51.3457,-16.8548,179.385,1.31836,-145.525,768
1571222425,361.094,-51.3457,-16.8548,179.385,1.31836,-145.525,768
1571222425,361.094,-51.3457,-16.8548,179.385,1.31836,-145.525,768
1571222425,361.094,-51.3457,-16.8548,179.385,1.31836,-145.525,768
1571222425,361.094,-51.3457,-16.8548,179.385,1.31836,-145.525,764
1571222425,361.094,-51.3457,-16.8548,179.385,1.31836,-145.525,764
1571222425,361.094,-51.3457,-16.7432,179.385,1.31836,-145.525,764
1571222425,361.094,-51.3457,-16.7432,179.385,1.31836,-145.525,764
1571222425,361.094,-51.3457,-16.7432,179.385,1.31836,-145.525,764
1571222425,361.094,-51.3457,-16.7432,179.385,1.31836,-145.525,764
1571222425,361.094,-51.3457,-16.7432,179.363,1.31836,-145.525,764
1571222425,361.094,-51.4573,-16.7432,179.363,1.31836,-145.525,764
1571222425,361.094,-51.4573,-16.7432,179.363,1.31836,-145.525,764
1571222425,361.094,-51.4573,-16.7432,179.363,1.31836,-145.525,764
1571222425,361.094,-51.4573,-16.7432,179.363,1.31836,-145.525,764
1571222425,361.094,-51.4573,-16.7432,179.363,1.34033,-145.503,764
1571222425,361.094,-51.4573,-16.7432,179.363,1.34033,-145.503,764
1571222425,361.094,-51.4573,-16.7432,179.363,1.34033,-145.503,764
1571222425,361.094,-51.4573,-16.7432,179.363,1.34033,-145.503,764
1571222425,361.094,-51.4573,-16.7432,179.341,1.34033,-145.503,764
1571222425,361.094,-51.4573,-16.6315,179.341,1.3623,-145.503,764
1571222425,361.094,-51.4573,-16.6315,179.341,1.3623,-145.503,764
1571222425,361.094,-51.4573,-16.6315,179.341,1.3623,-145.503,760
1571222425,361.094,-51.4573,-16.6315,179.341,1.3623,-145.503,760
1571222425,361.206,-51.4573,-16.6315,179.363,1.3623,-145.503,760
1571222425,361.206,-51.4573,-16.6315,179.363,1.3623,-145.503,760
1571222425,361.206,-51.4573,-16.6315,179.363,1.3623,-145.503,760
1571222425,361.206,-51.4573,-16.6315,179.363,1.3623,-145.503,756
1571222425,361.206,-51.4573,-16.6315,179.363,1.3623,-145.503,756
1571222426,361.206,-51.4573,-16.6315,179.363,1.3623,-145.503,756
1571222426,361.206,-51.4573,-16.6315,179.363,1.3623,-145.503,756
1571222426,361.206,-51.4573,-16.6315,179.363,1.3623,-145.503,752
1571222426,361.206,-51.4573,-16.6315,179.363,1.3623,-145.503,752
1571222426,361.206,-51.4573,-16.6315,179.363,1.3623,-145.525,752
1571222426,361.206,-51.4573,-16.6315,179.363,1.3623,-145.525,752
1571222426,361.206,-51.4573,-16.6315,179.363,1.3623,-145.525,752
1571222426,361.206,-51.4573,-16.7432,179.363,1.3623,-145.525,748
1571222426,361.206,-51.4573,-16.7432,179.363,1.3623,-145.525,748
1571222426,361.206,-51.4573,-16.7432,179.363,1.34033,-145.525,748
1571222426,361.206,-51.4573,-16.7432,179.363,1.34033,-145.525,748
1571222426,361.206,-51.4573,-16.7432,179.363,1.34033,-145.525,748
1571222426,361.206,-51.4573,-16.7432,179.363,1.34033,-145.525,744
1571222426,361.206,-51.4573,-16.7432,179.363,1.34033,-145.525,744
1571222426,361.206,-51.4573,-16.7432,179.363,1.34033,-145.525,744
1571222426,361.206,-51.4573,-16.7432,179.363,1.34033,-145.525,744
1571222426,361.206,-51.4573,-16.7432,179.363,1.34033,-145.525,740
1571222426,361.206,-51.4573,-16.7432,179.363,1.34033,-145.525,740
1571222426,361.206,-51.4573,-16.7432,179.363,1.34033,-145.525,740
1571222426,361.206,-51.4573,-16.7432,179.363,1.34033,-145.525,740
1571222426,361.206,-51.4573,-16.7432,179.363,1.34033,-145.525,740
1571222426,361.206,-51.4573,-16.7432,179.363,1.34033,-145.525,740
1571222426,361.206,-51.4573,-16.7432,179.363,1.34033,-145.525,740
1571222426,361.206,-51.4573,-16.7432,179.363,1.34033,-145.525,740
1571222426,361.206,-51.4573,-16.7432,179.363,1.3623,-145.503,740
1571222426,361.206,-51.4573,-16.7432,179.363,1.3623,-145.503,740
1571222426,361.206,-51.4573,-16.7432,179.363,1.3623,-145.503,740
1571222426,361.206,-51.4573,-16.6315,179.363,1.3623,-145.503,740
1571222426,361.206,-51.4573,-16.6315,179.363,1.3623,-145.503,740
1571222426,361.206,-51.4573,-16.6315,179.363,1.3623,-145.503,744
1571222426,361.206,-51.4573,-16.6315,179.385,1.3623,-145.503,744
1571222426,361.206,-51.3457,-16.6315,179.385,1.3623,-145.503,744
1571222426,361.206,-51.3457,-16.6315,179.385,1.3623,-145.503,744
1571222426,361.206,-51.3457,-16.6315,179.385,1.3623,-145.503,748
1571222426,361.206,-51.3457,-16.6315,179.385,1.3623,-145.503,748
1571222426,361.206,-51.3457,-16.6315,179.385,1.3623,-145.503,748
1571222426,361.206,-51.3457,-16.6315,179.385,1.3623,-145.503,748
1571222426,361.206,-51.3457,-16.6315,179.385,1.3623,-145.503,752
1571222426,361.206,-51.3457,-16.6315,179.407,1.3623,-145.503,752
1571222426,361.206,-51.3457,-16.6315,179.407,1.3623,-145.503,752
1571222426,361.206,-51.3457,-16.6315,179.407,1.3623,-145.503,752
1571222426,361.206,-51.3457,-16.6315,179.407,1.3623,-145.503,756
1571222426,361.206,-51.3457,-16.6315,179.407,1.3623,-145.503,756
1571222426,361.206,-51.3457,-16.6315,179.407,1.3623,-145.503,756
1571222426,361.206,-51.3457,-16.6315,179.407,1.3623,-145.503,756
1571222426,361.094,-51.2341,-16.6315,179.407,1.3623,-145.503,760
1571222426,361.094,-51.2341,-16.6315,179.407,1.3623,-145.503,760
1571222426,361.094,-51.2341,-16.6315,179.407,1.3623,-145.503,760
1571222426,361.094,-51.2341,-16.6315,179.407,1.38428,-145.503,760
1571222426,361.094,-51.2341,-16.6315,179.407,1.38428,-145.503,764
1571222426,361.094,-51.2341,-16.6315,179.407,1.38428,-145.503,764
1571222426,361.094,-51.2341,-16.6315,179.407,1.38428,-145.503,764
1571222426,361.094,-51.3457,-16.6315,179.407,1.38428,-145.503,764
1571222426,361.094,-51.3457,-16.6315,179.407,1.38428,-145.503,764
1571222426,361.094,-51.3457,-16.6315,179.407,1.38428,-145.503,768
1571222426,361.094,-51.3457,-16.6315,179.407,1.3623,-145.503,768
1571222426,361.094,-51.3457,-16.6315,179.407,1.3623,-145.503,768
1571222426,361.094,-51.3457,-16.6315,179.407,1.3623,-145.503,768
1571222426,361.094,-51.3457,-16.6315,179.407,1.3623,-145.503,768
1571222426,361.094,-51.3457,-16.6315,179.385,1.3623,-145.503,768
1571222426,361.094,-51.3457,-16.6315,179.385,1.3623,-145.503,768
1571222426,361.094,-51.3457,-16.6315,179.385,1.3623,-145.503,768
1571222426,361.094,-51.3457,-16.6315,179.385,1.3623,-145.503,768
1571222426,361.094,-51.3457,-16.6315,179.385,1.3623,-145.503,768
1571222426,361.094,-51.3457,-16.6315,179.385,1.3623,-145.503,772
1571222426,361.094,-51.3457,-16.6315,179.385,1.3623,-145.503,772
1571222426,361.094,-51.3457,-16.6315,179.385,1.3623,-145.503,772
1571222426,361.094,-51.3457,-16.6315,179.385,1.3623,-145.503,772
1571222426,361.094,-51.3457,-16.6315,179.385,1.3623,-145.503,772
1571222426,361.094,-51.3457,-16.6315,179.385,1.3623,-145.503,772
1571222426,361.094,-51.3457,-16.6315,179.385,1.3623,-145.503,776
1571222426,361.094,-51.3457,-16.6315,179.385,1.3623,-145.503,776
1571222426,361.094,-51.3457,-16.6315,179.385,1.3623,-145.503,776
