time,x,y,z,ax,ay,az,q
1569660947,285.304,29.9145,-16.7432,179.121,1.25244,-144.91,288
1569660947,285.304,29.9145,-16.7432,179.121,1.25244,-144.91,288
1569660947,285.304,29.9145,-16.7432,179.121,1.25244,-144.91,288
1569660947,285.304,29.9145,-16.7432,179.121,1.25244,-144.91,288
1569660947,285.304,29.9145,-16.7432,179.099,1.25244,-144.91,288
1569660947,285.304,29.9145,-16.7432,179.099,1.25244,-144.91,288
1569660947,285.304,29.9145,-16.7432,179.099,1.25244,-144.91,288
1569660947,285.304,29.9145,-16.7432,179.099,1.25244,-144.91,288
1569660947,285.304,29.9145,-16.7432,179.099,1.25244,-144.91,288
1569660947,285.304,29.9145,-16.7432,179.099,1.25244,-144.91,288
1569660947,285.304,29.9145,-16.7432,179.099,1.25244,-144.91,288
1569660947,285.304,29.9145,-16.7432,179.099,1.25244,-144.91,288
1569660947,285.304,29.9145,-16.7432,179.099,1.25244,-144.91,288
1569660947,285.304,29.9145,-16.7432,179.099,1.25244,-144.91,288
1569660947,285.304,29.9145,-16.7432,179.099,1.25244,-144.91,288
1569660947,285.304,29.9145,-16.7432,179.099,1.25244,-144.91,288
1569660947,285.304,29.9145,-16.7432,179.099,1.25244,-144.91,288
1569660947,285.304,29.9145,-16.7432,179.099,1.25244,-144.91,288
1569660947,285.304,29.9145,-16.7432,179.099,1.25244,-144.91,288
1569660947,285.304,29.9145,-16.7432,179.099,1.25244,-144.91,288
1569660947,285.304,29.9145,-16.7432,179.099,1.25244,-144.91,288
1569660947,285.304,29.9145,-16.7432,179.099,1.25244,-144.91,288
1569660947,285.304,29.9145,-16.7432,179.099,1.25244,-144.91,288
1569660947,285.304,29.9145,-16.7432,179.099,1.25244,-144.91,288
1569660947,285.304,29.9145,-16.7432,179.099,1.25244,-144.91,288
1569660947,285.304,29.9145,-16.7432,179.099,1.25244,-144.91,288
1569660947,285.304,29.9145,-16.7432,179.099,1.25244,-144.91,288
1569660947,285.304,29.9145,-16.7432,179.099,1.25244,-144.91,288
1569660947,285.304,29.9145,-16.7432,179.099,1.25244,-144.91,288
1569660947,285.304,29.9145,-16.7432,179.099,1.25244,-144.91,288
1569660947,285.304,29.9145,-16.7432,179.099,1.25244,-144.91,288
1569660947,285.304,29.9145,-16.7432,179.099,1.25244,-144.91,288
1569660947,285.304,29.9145,-16.7432,179.099,1.25244,-144.91,288
1569660947,285.304,29.9145,-16.7432,179.099,1.25244,-144.932,288
1569660947,285.304,29.9145,-16.7432,179.099,1.25244,-144.932,288
1569660947,285.304,29.9145,-16.7432,179.099,1.25244,-144.932,288
1569660947,285.304,29.9145,-16.7432,179.099,1.25244,-144.932,288
1569660947,285.304,29.9145,-16.7432,179.099,1.25244,-144.932,288
1569660947,285.304,29.9145,-16.7432,179.099,1.25244,-144.932,288
1569660947,285.304,29.9145,-16.7432,179.099,1.25244,-144.932,292
1569660947,285.304,29.9145,-16.7432,179.099,1.25244,-144.932,292
1569660948,285.304,29.9145,-16.7432,179.099,1.25244,-144.932,292
1569660948,285.304,29.9145,-16.7432,179.099,1.25244,-144.932,292
1569660948,285.304,29.9145,-16.7432,179.099,1.25244,-144.932,292
1569660948,285.304,29.9145,-16.7432,179.099,1.25244,-144.932,292
1569660948,285.304,29.9145,-16.7432,179.099,1.25244,-144.932,292
1569660948,285.304,29.9145,-16.7432,179.099,1.25244,-144.932,292
1569660948,285.304,29.9145,-16.7432,179.099,1.25244,-144.932,292
1569660948,285.304,29.9145,-16.7432,179.099,1.25244,-144.932,292
1569660948,285.304,29.9145,-16.7432,179.099,1.25244,-144.91,292
1569660948,285.304,29.9145,-16.7432,179.099,1.25244,-144.91,292
1569660948,285.304,29.9145,-16.7432,179.099,1.25244,-144.91,292
1569660948,285.304,29.9145,-16.7432,179.099,1.25244,-144.91,292
1569660948,285.304,29.9145,-16.7432,179.099,1.25244,-144.91,292
1569660948,285.304,29.9145,-16.7432,179.099,1.25244,-144.91,292
1569660948,285.304,29.9145,-16.7432,179.099,1.25244,-144.91,292
1569660948,285.304,29.9145,-16.7432,179.099,1.25244,-144.91,292
1569660948,285.304,29.9145,-16.7432,179.099,1.25244,-144.91,292
1569660948,285.304,29.9145,-16.7432,179.099,1.25244,-144.91,292
1569660948,285.304,29.9145,-16.7432,179.099,1.25244,-144.91,292
1569660948,285.304,29.9145,-16.7432,179.099,1.25244,-144.91,292
1569660948,285.304,29.9145,-16.7432,179.099,1.25244,-144.91,292
1569660948,285.304,29.9145,-16.7432,179.099,1.25244,-144.91,292
1569660948,285.304,29.9145,-16.7432,179.099,1.25244,-144.91,292
1569660948,285.304,29.9145,-16.7432,179.099,1.25244,-144.91,292
1569660948,285.304,29.9145,-16.7432,179.099,1.25244,-144.91,292
1569660948,285.304,29.9145,-16.7432,179.099,1.25244,-144.91,292
1569660948,285.304,29.9145,-16.7432,179.099,1.25244,-144.91,292
1569660948,285.304,29.9145,-16.7432,179.099,1.25244,-144.91,292
1569660948,285.304,29.9145,-16.7432,179.099,1.25244,-144.91,292
1569660948,285.304,29.9145,-16.7432,179.099,1.25244,-144.91,292
1569660948,285.304,29.9145,-16.7432,179.099,1.25244,-144.91,292
1569660948,285.304,29.9145,-16.7432,179.099,1.25244,-144.91,292
1569660948,285.304,29.9145,-16.7432,179.099,1.25244,-144.91,292
1569660948,285.304,29.9145,-16.7432,179.099,1.25244,-144.91,292
1569660948,285.304,29.9145,-16.7432,179.099,1.25244,-144.91,292
1569660948,285.304,29.9145,-16.7432,179.099,1.25244,-144.91,292
1569660948,285.304,29.9145,-16.7432,179.099,1.25244,-144.91,292
1569660948,285.304,29.9145,-16.7432,179.099,1.25244,-144.91,288
1569660948,285.304,29.9145,-16.7432,179.099,1.25244,-144.91,288
1569660948,285.304,29.9145,-16.7432,179.099,1.25244,-144.91,288
1569660948,285.304,29.9145,-16.7432,179.099,1.25244,-144.91,288
1569660948,285.304,29.9145,-16.7432,179.099,1.25244,-144.91,288
1569660948,285.304,29.9145,-16.7432,179.099,1.25244,-144.91,288
1569660948,285.304,29.9145,-16.7432,179.099,1.25244,-144.91,288
1569660948,285.304,29.9145,-16.7432,179.099,1.25244,-144.91,288
1569660948,285.304,29.9145,-16.7432,179.099,1.25244,-144.91,288
1569660948,285.304,29.9145,-16.7432,179.099,1.25244,-144.91,288
1569660948,285.304,29.9145,-16.7432,179.099,1.25244,-144.91,288
1569660948,285.304,29.9145,-16.7432,179.099,1.25244,-144.91,288
1569660948,285.304,29.9145,-16.7432,179.099,1.25244,-144.91,288
1569660948,285.304,29.9145,-16.7432,179.099,1.25244,-144.91,288
1569660948,285.304,29.9145,-16.7432,179.121,1.25244,-144.91,288
1569660948,285.304,29.9145,-16.7432,179.121,1.25244,-144.91,288
1569660948,285.304,29.9145,-16.7432,179.121,1.25244,-144.91,288
1569660948,285.304,29.9145,-16.7432,179.121,1.25244,-144.91,288
1569660948,285.304,29.9145,-16.7432,179.121,1.25244,-144.91,288
1569660948,285.304,29.9145,-16.7432,179.121,1.25244,-144.91,288
1569660948,285.304,29.9145,-16.7432,179.121,1.25244,-144.91,288
1569660948,285.304,29.9145,-16.7432,179.121,1.25244,-144.91,288
1569660948,285.304,29.9145,-16.7432,179.121,1.25244,-144.91,288
1569660948,285.304,29.9145,-16.7432,179.121,1.25244,-144.91,288
1569660948,285.304,29.9145,-16.7432,179.121,1.25244,-144.91,288
1569660948,285.304,29.9145,-16.7432,179.121,1.25244,-144.91,288
1569660948,285.304,29.9145,-16.7432,179.121,1.25244,-144.91,288
1569660948,285.304,29.9145,-16.7432,179.121,1.25244,-144.91,288
1569660948,285.304,29.9145,-16.7432,179.121,1.25244,-144.91,288
1569660948,285.304,29.9145,-16.7432,179.121,1.25244,-144.91,288
1569660948,285.304,29.9145,-16.7432,179.121,1.25244,-144.91,288
1569660948,285.304,29.9145,-16.7432,179.121,1.25244,-144.91,288
1569660948,285.304,29.9145,-16.7432,179.121,1.25244,-144.91,288
1569660948,285.304,29.9145,-16.7432,179.121,1.25244,-144.91,288
1569660948,285.304,29.9145,-16.7432,179.121,1.25244,-144.91,288
1569660948,285.304,29.9145,-16.7432,179.121,1.25244,-144.91,288
1569660948,285.304,29.9145,-16.7432,179.121,1.25244,-144.91,288
1569660948,285.304,29.9145,-16.7432,179.121,1.25244,-144.91,288
1569660948,285.304,29.9145,-16.7432,179.121,1.25244,-144.91,288
1569660948,285.304,29.9145,-16.7432,179.121,1.25244,-144.91,284
1569660948,285.304,29.9145,-16.7432,179.121,1.25244,-144.91,284
1569660948,285.304,29.9145,-16.7432,179.121,1.25244,-144.91,284
1569660948,285.304,29.9145,-16.7432,179.121,1.25244,-144.91,284
1569660948,285.304,29.9145,-16.7432,179.121,1.25244,-144.91,284
1569660948,285.304,29.9145,-16.7432,179.121,1.25244,-144.91,284
1569660948,285.304,29.9145,-16.7432,179.121,1.25244,-144.932,284
1569660948,285.304,29.9145,-16.7432,179.121,1.25244,-144.932,284
1569660948,285.304,29.9145,-16.7432,179.121,1.25244,-144.932,284
1569660948,285.304,29.9145,-16.7432,179.121,1.25244,-144.932,284
1569660948,285.304,29.9145,-16.7432,179.121,1.25244,-144.932,284
1569660948,285.304,29.9145,-16.7432,179.121,1.25244,-144.932,284
1569660948,285.304,29.9145,-16.7432,179.121,1.25244,-144.932,284
1569660948,285.304,30.0261,-16.7432,179.121,1.25244,-144.932,284
1569660948,285.304,30.0261,-16.7432,179.121,1.25244,-144.932,284
1569660948,285.304,30.0261,-16.7432,179.121,1.25244,-144.932,284
1569660948,285.304,30.0261,-16.7432,179.121,1.25244,-144.932,284
1569660948,285.304,30.0261,-16.7432,179.121,1.25244,-144.932,284
1569660948,285.304,30.0261,-16.7432,179.121,1.25244,-144.932,284
1569660948,285.304,29.9145,-16.7432,179.121,1.25244,-144.932,288
1569660948,285.304,29.9145,-16.7432,179.121,1.25244,-144.932,288
1569660948,285.304,29.9145,-16.7432,179.121,1.25244,-144.932,288
1569660948,285.304,29.9145,-16.7432,179.121,1.25244,-144.932,288
1569660948,285.304,29.9145,-16.7432,179.121,1.25244,-144.932,288
1569660949,285.304,29.9145,-16.7432,179.121,1.25244,-144.932,288
1569660949,285.304,29.9145,-16.7432,179.121,1.25244,-144.932,288
1569660949,285.304,29.9145,-16.7432,179.121,1.25244,-144.932,288
1569660949,285.304,29.9145,-16.7432,179.121,1.25244,-144.932,288
1569660949,285.304,29.9145,-16.7432,179.121,1.25244,-144.932,288
1569660949,285.304,29.9145,-16.7432,179.121,1.25244,-144.932,288
1569660949,285.304,29.9145,-16.7432,179.121,1.25244,-144.932,288
1569660949,285.304,29.9145,-16.7432,179.121,1.25244,-144.932,288
1569660949,285.304,29.9145,-16.7432,179.121,1.25244,-144.932,288
1569660949,285.304,29.9145,-16.7432,179.121,1.25244,-144.932,288
1569660949,285.304,29.9145,-16.7432,179.121,1.25244,-144.932,288
1569660949,285.304,29.9145,-16.7432,179.121,1.25244,-144.932,288
1569660949,285.304,29.9145,-16.7432,179.121,1.25244,-144.932,288
1569660949,285.304,29.9145,-16.7432,179.121,1.25244,-144.932,288
1569660949,285.304,29.9145,-16.7432,179.099,1.25244,-144.932,288
1569660949,285.304,29.9145,-16.7432,179.099,1.25244,-144.932,292
1569660949,285.304,29.9145,-16.7432,179.099,1.25244,-144.932,292
1569660949,285.304,29.9145,-16.7432,179.099,1.25244,-144.932,292
1569660949,285.304,29.9145,-16.7432,179.099,1.25244,-144.932,292
1569660949,285.304,29.9145,-16.7432,179.099,1.25244,-144.932,292
1569660949,285.304,29.9145,-16.7432,179.099,1.25244,-144.932,292
1569660949,285.304,29.9145,-16.6315,179.099,1.25244,-144.932,292
1569660949,285.304,29.9145,-16.6315,179.121,1.25244,-144.932,292
1569660949,285.304,29.9145,-16.6315,179.121,1.25244,-144.932,292
1569660949,285.304,29.9145,-16.6315,179.121,1.25244,-144.932,292
1569660949,285.304,29.9145,-16.6315,179.121,1.25244,-144.932,296
1569660949,285.304,29.9145,-16.6315,179.121,1.25244,-144.932,296
1569660949,285.304,29.9145,-16.7432,179.121,1.25244,-144.932,296
1569660949,285.304,29.9145,-16.7432,179.121,1.25244,-144.932,296
1569660949,285.304,29.9145,-16.7432,179.121,1.25244,-144.932,296
1569660949,285.304,29.9145,-16.7432,179.121,1.25244,-144.932,296
1569660949,285.304,29.9145,-16.7432,179.121,1.25244,-144.932,296
1569660949,285.304,29.9145,-16.7432,179.121,1.25244,-144.932,296
1569660949,285.304,29.9145,-16.7432,179.121,1.25244,-144.932,296
1569660949,285.304,29.9145,-16.7432,179.121,1.25244,-144.932,296
1569660949,285.304,29.9145,-16.7432,179.121,1.25244,-144.932,296
1569660949,285.304,29.9145,-16.7432,179.121,1.25244,-144.932,296
1569660949,285.304,29.9145,-16.7432,179.121,1.25244,-144.932,296
1569660949,285.304,29.9145,-16.7432,179.121,1.25244,-144.932,296
1569660949,285.304,29.9145,-16.7432,179.121,1.25244,-144.932,292
1569660949,285.304,29.9145,-16.7432,179.121,1.25244,-144.932,292
1569660949,285.304,29.9145,-16.7432,179.121,1.25244,-144.932,292
1569660949,285.304,29.9145,-16.7432,179.121,1.25244,-144.932,292
1569660949,285.304,29.9145,-16.7432,179.121,1.25244,-144.932,292
1569660949,285.304,29.9145,-16.7432,179.121,1.25244,-144.932,292
1569660949,285.304,29.9145,-16.7432,179.121,1.25244,-144.932,292
1569660949,285.304,29.9145,-16.7432,179.121,1.25244,-144.932,292
1569660949,285.304,29.9145,-16.7432,179.121,1.25244,-144.932,292
1569660949,285.304,29.9145,-16.7432,179.121,1.25244,-144.932,292
1569660949,285.304,29.9145,-16.7432,179.121,1.25244,-144.932,292
1569660949,285.304,29.9145,-16.7432,179.121,1.25244,-144.932,292
1569660949,285.304,29.9145,-16.7432,179.121,1.25244,-144.932,292
1569660949,285.304,29.9145,-16.7432,179.121,1.25244,-144.932,292
1569660949,285.304,29.9145,-16.7432,179.121,1.25244,-144.932,292
1569660949,285.304,29.9145,-16.7432,179.121,1.25244,-144.932,292
1569660949,285.304,29.9145,-16.7432,179.121,1.25244,-144.932,292
1569660949,285.304,29.9145,-16.7432,179.121,1.25244,-144.932,292
1569660949,285.304,29.9145,-16.7432,179.121,1.25244,-144.932,292
1569660949,285.304,29.9145,-16.7432,179.121,1.25244,-144.932,292
1569660949,285.304,29.9145,-16.7432,179.121,1.25244,-144.932,292
1569660949,285.304,29.9145,-16.7432,179.121,1.25244,-144.932,292
1569660949,285.304,29.9145,-16.7432,179.121,1.25244,-144.932,292
1569660949,285.304,29.9145,-16.7432,179.121,1.25244,-144.932,292
1569660949,285.304,29.9145,-16.7432,179.121,1.25244,-144.932,292
1569660949,285.304,29.9145,-16.7432,179.121,1.25244,-144.932,296
1569660949,285.304,29.9145,-16.7432,179.121,1.25244,-144.932,296
1569660949,285.304,29.9145,-16.7432,179.121,1.25244,-144.932,296
1569660949,285.304,29.9145,-16.7432,179.121,1.25244,-144.932,296
1569660949,285.304,29.9145,-16.7432,179.121,1.25244,-144.932,296
1569660949,285.304,29.9145,-16.7432,179.121,1.25244,-144.932,296
1569660949,285.304,29.9145,-16.7432,179.121,1.25244,-144.932,296
1569660949,285.304,29.9145,-16.7432,179.121,1.25244,-144.932,296
1569660949,285.304,29.9145,-16.7432,179.121,1.25244,-144.932,296
1569660949,285.304,29.9145,-16.7432,179.121,1.25244,-144.91,296
1569660949,285.304,29.9145,-16.7432,179.121,1.25244,-144.91,296
1569660949,285.304,29.9145,-16.7432,179.121,1.25244,-144.91,296
1569660949,285.304,29.9145,-16.7432,179.121,1.25244,-144.91,296
1569660949,285.304,29.9145,-16.7432,179.121,1.25244,-144.91,296
1569660949,285.304,29.9145,-16.7432,179.121,1.25244,-144.91,296
1569660949,285.304,29.9145,-16.7432,179.121,1.25244,-144.91,296
1569660949,285.304,29.9145,-16.7432,179.121,1.25244,-144.91,296
1569660949,285.304,29.9145,-16.7432,179.121,1.25244,-144.91,296
1569660949,285.304,29.9145,-16.7432,179.099,1.25244,-144.91,296
1569660949,285.304,29.9145,-16.7432,179.099,1.25244,-144.91,296
1569660949,285.304,29.9145,-16.7432,179.099,1.25244,-144.91,296
1569660949,285.304,29.9145,-16.7432,179.099,1.25244,-144.91,296
1569660949,285.304,29.9145,-16.7432,179.099,1.25244,-144.91,296
1569660949,285.304,29.9145,-16.7432,179.099,1.25244,-144.91,296
1569660949,285.304,29.9145,-16.7432,179.099,1.25244,-144.91,296
1569660949,285.304,29.9145,-16.7432,179.099,1.25244,-144.91,296
1569660949,285.304,29.9145,-16.7432,179.099,1.25244,-144.91,296
1569660949,285.304,29.9145,-16.7432,179.099,1.25244,-144.91,296
1569660949,285.304,29.9145,-16.7432,179.099,1.25244,-144.91,296
1569660949,285.304,29.9145,-16.7432,179.099,1.25244,-144.91,296
1569660949,285.304,29.9145,-16.7432,179.099,1.25244,-144.91,296
1569660949,285.304,29.9145,-16.7432,179.099,1.25244,-144.91,292
1569660949,285.304,29.9145,-16.7432,179.099,1.25244,-144.91,292
1569660949,285.304,29.9145,-16.7432,179.099,1.25244,-144.91,292
1569660949,285.304,29.9145,-16.7432,179.099,1.25244,-144.91,292
1569660949,285.304,29.9145,-16.7432,179.099,1.25244,-144.91,292
1569660950,285.304,29.9145,-16.7432,179.099,1.25244,-144.91,292
1569660950,285.304,29.9145,-16.7432,179.099,1.25244,-144.91,292
1569660950,285.304,29.9145,-16.7432,179.099,1.25244,-144.91,292
1569660950,285.304,29.9145,-16.7432,179.099,1.25244,-144.91,292
1569660950,285.304,29.9145,-16.7432,179.099,1.25244,-144.91,292
1569660950,285.304,29.9145,-16.7432,179.099,1.25244,-144.91,292
1569660950,285.304,29.9145,-16.7432,179.099,1.25244,-144.91,292
1569660950,285.304,29.9145,-16.7432,179.099,1.25244,-144.91,292
1569660950,285.304,29.9145,-16.7432,179.099,1.25244,-144.91,292
1569660950,285.304,29.9145,-16.7432,179.121,1.25244,-144.91,292
1569660950,285.304,29.9145,-16.7432,179.121,1.25244,-144.91,292
1569660950,285.304,29.9145,-16.7432,179.121,1.25244,-144.91,292
1569660950,285.304,29.9145,-16.7432,179.121,1.25244,-144.91,292
1569660950,285.304,29.9145,-16.7432,179.121,1.25244,-144.91,292
1569660950,285.304,29.9145,-16.7432,179.121,1.25244,-144.91,292
1569660950,285.304,29.9145,-16.7432,179.121,1.25244,-144.91,292
1569660950,285.304,29.9145,-16.7432,179.121,1.25244,-144.91,292
1569660950,285.304,29.9145,-16.7432,179.121,1.25244,-144.91,292
1569660950,285.304,29.9145,-16.7432,179.121,1.25244,-144.91,292
1569660950,285.304,29.9145,-16.7432,179.121,1.25244,-144.91,292
1569660950,285.304,29.9145,-16.7432,179.099,1.25244,-144.91,292
1569660950,285.304,29.9145,-16.7432,179.099,1.25244,-144.91,292
1569660950,285.304,29.9145,-16.7432,179.099,1.25244,-144.91,292
1569660950,285.304,29.9145,-16.7432,179.099,1.25244,-144.91,292
1569660950,285.304,29.9145,-16.7432,179.099,1.25244,-144.91,292
1569660950,285.304,29.9145,-16.7432,179.099,1.25244,-144.91,292
1569660950,285.304,29.9145,-16.7432,179.099,1.25244,-144.91,292
1569660950,285.304,29.9145,-16.7432,179.099,1.25244,-144.91,292
1569660950,285.304,29.9145,-16.7432,179.099,1.25244,-144.91,292
1569660950,285.304,29.9145,-16.7432,179.121,1.25244,-144.91,292
1569660950,285.304,29.9145,-16.7432,179.121,1.25244,-144.91,292
1569660950,285.304,29.9145,-16.7432,179.121,1.25244,-144.91,292
1569660950,285.304,29.9145,-16.7432,179.121,1.25244,-144.91,292
1569660950,285.304,29.9145,-16.7432,179.121,1.25244,-144.91,292
1569660950,285.304,29.9145,-16.7432,179.121,1.25244,-144.91,292
1569660950,285.304,30.0261,-16.7432,179.121,1.25244,-144.932,292
1569660950,285.304,30.0261,-16.7432,179.121,1.25244,-144.932,292
1569660950,285.304,30.0261,-16.7432,179.121,1.25244,-144.932,292
1569660950,285.304,30.0261,-16.7432,179.121,1.25244,-144.932,292
1569660950,285.304,30.0261,-16.7432,179.121,1.25244,-144.932,292
1569660950,285.304,30.0261,-16.7432,179.121,1.25244,-144.932,292
1569660950,285.304,30.0261,-16.7432,179.121,1.25244,-144.932,292
1569660950,285.304,30.0261,-16.7432,179.121,1.25244,-144.932,292
1569660950,285.304,30.0261,-16.7432,179.121,1.25244,-144.932,292
1569660950,285.304,30.0261,-16.7432,179.121,1.25244,-144.932,292
1569660950,285.304,30.0261,-16.7432,179.121,1.25244,-144.932,292
1569660950,285.304,29.9145,-16.7432,179.121,1.25244,-144.932,292
1569660950,285.304,29.9145,-16.7432,179.121,1.25244,-144.932,292
1569660950,285.304,29.9145,-16.7432,179.121,1.25244,-144.932,292
1569660950,285.304,29.9145,-16.7432,179.121,1.25244,-144.932,292
1569660950,285.304,29.9145,-16.7432,179.121,1.25244,-144.932,292
1569660950,285.304,29.9145,-16.7432,179.121,1.25244,-144.932,292
1569660950,285.304,29.9145,-16.7432,179.121,1.25244,-144.932,292
1569660950,285.304,29.9145,-16.7432,179.121,1.25244,-144.932,292
1569660950,285.304,29.9145,-16.7432,179.121,1.25244,-144.932,292
1569660950,285.304,29.9145,-16.7432,179.121,1.25244,-144.932,292
1569660950,285.304,29.9145,-16.7432,179.121,1.25244,-144.932,292
1569660950,285.304,29.9145,-16.7432,179.121,1.25244,-144.932,292
1569660950,285.304,29.9145,-16.7432,179.121,1.25244,-144.932,292
1569660950,285.304,29.9145,-16.7432,179.121,1.25244,-144.932,292
1569660950,285.304,29.9145,-16.7432,179.121,1.25244,-144.932,292
1569660950,285.304,29.9145,-16.7432,179.121,1.25244,-144.932,288
1569660950,285.304,29.9145,-16.7432,179.121,1.23047,-144.932,288
1569660950,285.304,29.9145,-16.7432,179.121,1.23047,-144.932,288
1569660950,285.304,29.9145,-16.7432,179.121,1.23047,-144.932,288
1569660950,285.304,29.9145,-16.7432,179.121,1.23047,-144.932,288
1569660950,285.304,29.9145,-16.7432,179.121,1.23047,-144.932,288
1569660950,285.304,29.9145,-16.7432,179.121,1.23047,-144.932,288
1569660950,285.304,29.9145,-16.7432,179.121,1.23047,-144.932,288
1569660950,285.304,29.9145,-16.7432,179.121,1.23047,-144.932,288
1569660950,285.304,29.9145,-16.7432,179.121,1.23047,-144.932,288
1569660950,285.304,29.9145,-16.7432,179.121,1.23047,-144.932,288
1569660950,285.304,29.9145,-16.7432,179.121,1.23047,-144.932,288
1569660950,285.304,29.9145,-16.7432,179.121,1.23047,-144.932,288
1569660950,285.304,29.9145,-16.7432,179.121,1.23047,-144.932,288
1569660950,285.304,29.9145,-16.7432,179.121,1.23047,-144.932,288
1569660950,285.304,29.9145,-16.7432,179.121,1.23047,-144.932,288
1569660950,285.304,29.9145,-16.7432,179.121,1.23047,-144.932,288
1569660950,285.304,29.9145,-16.7432,179.121,1.23047,-144.932,288
1569660950,285.304,29.9145,-16.7432,179.121,1.23047,-144.932,288
1569660950,285.304,29.9145,-16.7432,179.121,1.23047,-144.932,284
1569660950,285.304,29.9145,-16.7432,179.121,1.23047,-144.932,284
1569660950,285.304,29.9145,-16.7432,179.121,1.23047,-144.932,284
1569660950,285.304,29.9145,-16.7432,179.121,1.23047,-144.932,284
1569660950,285.304,29.9145,-16.7432,179.121,1.23047,-144.932,284
1569660950,285.304,29.9145,-16.7432,179.121,1.23047,-144.932,284
1569660950,285.304,29.9145,-16.7432,179.121,1.23047,-144.932,284
1569660950,285.304,29.9145,-16.7432,179.121,1.23047,-144.932,284
1569660950,285.304,29.9145,-16.7432,179.121,1.23047,-144.932,284
1569660950,285.304,29.9145,-16.7432,179.121,1.23047,-144.932,284
1569660950,285.304,29.9145,-16.7432,179.121,1.23047,-144.932,284
1569660950,285.304,29.9145,-16.7432,179.121,1.23047,-144.932,284
1569660950,285.304,29.9145,-16.7432,179.121,1.23047,-144.932,284
1569660950,285.304,29.9145,-16.7432,179.121,1.23047,-144.932,284
1569660950,285.304,29.9145,-16.7432,179.121,1.23047,-144.932,284
1569660950,285.304,29.9145,-16.7432,179.121,1.25244,-144.932,284
1569660950,285.304,29.9145,-16.7432,179.121,1.25244,-144.932,284
1569660950,285.304,29.9145,-16.7432,179.121,1.25244,-144.932,284
1569660950,285.304,29.9145,-16.7432,179.121,1.25244,-144.932,284
1569660950,285.304,29.9145,-16.7432,179.121,1.25244,-144.932,284
1569660951,285.304,29.9145,-16.7432,179.121,1.25244,-144.932,284
1569660951,285.304,29.9145,-16.7432,179.121,1.25244,-144.932,284
1569660951,285.304,29.9145,-16.7432,179.121,1.25244,-144.932,284
1569660951,285.304,29.9145,-16.7432,179.121,1.25244,-144.932,284
1569660951,285.304,29.9145,-16.7432,179.121,1.25244,-144.932,288
1569660951,285.304,29.9145,-16.7432,179.099,1.25244,-144.932,288
1569660951,285.304,29.9145,-16.7432,179.099,1.25244,-144.932,288
1569660951,285.304,29.9145,-16.7432,179.099,1.25244,-144.932,288
1569660951,285.304,29.9145,-16.7432,179.099,1.25244,-144.932,288
1569660951,285.304,29.9145,-16.7432,179.099,1.25244,-144.932,288
1569660951,285.304,29.9145,-16.7432,179.099,1.25244,-144.932,288
1569660951,285.304,29.9145,-16.7432,179.099,1.25244,-144.932,288
1569660951,285.304,29.9145,-16.7432,179.099,1.25244,-144.932,292
1569660951,285.304,29.9145,-16.7432,179.099,1.25244,-144.932,292
1569660951,285.304,29.9145,-16.7432,179.099,1.25244,-144.932,292
1569660951,285.304,29.9145,-16.7432,179.099,1.25244,-144.932,292
1569660951,285.304,29.9145,-16.7432,179.099,1.25244,-144.932,292
1569660951,285.304,29.9145,-16.7432,179.099,1.25244,-144.932,292
1569660951,285.304,29.9145,-16.7432,179.121,1.25244,-144.932,292
1569660951,285.304,29.9145,-16.7432,179.121,1.25244,-144.932,292
1569660951,285.304,29.9145,-16.7432,179.121,1.25244,-144.91,292
1569660951,285.304,29.9145,-16.7432,179.121,1.25244,-144.91,292
1569660951,285.304,29.9145,-16.7432,179.121,1.25244,-144.91,292
1569660951,285.304,29.9145,-16.7432,179.121,1.25244,-144.932,292
1569660951,285.304,29.9145,-16.7432,179.099,1.25244,-144.932,292
1569660951,285.304,29.9145,-16.7432,179.099,1.25244,-144.932,296
1569660951,285.304,29.9145,-16.7432,179.099,1.25244,-144.932,296
1569660951,285.304,29.9145,-16.7432,179.099,1.25244,-144.932,296
1569660951,285.304,29.9145,-16.7432,179.099,1.25244,-144.932,296
1569660951,285.304,29.9145,-16.7432,179.099,1.25244,-144.932,296
1569660951,285.304,29.9145,-16.7432,179.099,1.25244,-144.932,296
1569660951,285.304,29.9145,-16.7432,179.099,1.25244,-144.932,296
1569660951,285.304,29.9145,-16.7432,179.099,1.25244,-144.932,296
1569660951,285.304,29.9145,-16.7432,179.099,1.25244,-144.932,296
1569660951,285.304,29.9145,-16.7432,179.099,1.25244,-144.932,296
1569660951,285.304,29.9145,-16.7432,179.099,1.25244,-144.932,296
1569660951,285.304,29.9145,-16.7432,179.099,1.25244,-144.932,296
1569660951,285.304,29.9145,-16.7432,179.099,1.25244,-144.932,296
1569660951,285.304,29.9145,-16.7432,179.099,1.25244,-144.932,296
1569660951,285.304,29.9145,-16.7432,179.099,1.25244,-144.932,296
1569660951,285.304,29.9145,-16.7432,179.099,1.25244,-144.932,296
1569660951,285.304,29.9145,-16.7432,179.099,1.25244,-144.932,292
1569660951,285.304,29.9145,-16.7432,179.121,1.25244,-144.932,292
1569660951,285.304,29.9145,-16.7432,179.121,1.25244,-144.932,292
1569660951,285.304,29.9145,-16.7432,179.121,1.25244,-144.932,292
1569660951,285.304,29.9145,-16.7432,179.121,1.25244,-144.932,292
1569660951,285.304,29.9145,-16.7432,179.121,1.25244,-144.932,292
1569660951,285.304,29.9145,-16.7432,179.121,1.25244,-144.932,292
1569660951,285.304,29.9145,-16.7432,179.121,1.25244,-144.932,292
1569660951,285.304,29.9145,-16.7432,179.099,1.25244,-144.932,292
1569660951,285.304,29.9145,-16.7432,179.099,1.25244,-144.932,292
1569660951,285.304,29.9145,-16.7432,179.099,1.25244,-144.932,292
1569660951,285.304,29.9145,-16.7432,179.099,1.25244,-144.932,292
1569660951,285.304,29.9145,-16.7432,179.099,1.25244,-144.932,292
1569660951,285.304,29.9145,-16.7432,179.099,1.25244,-144.932,292
1569660951,285.304,29.9145,-16.7432,179.099,1.25244,-144.932,292
1569660951,285.304,29.9145,-16.7432,179.099,1.25244,-144.932,292
1569660951,285.304,29.9145,-16.7432,179.099,1.25244,-144.932,292
1569660951,285.304,29.9145,-16.7432,179.099,1.25244,-144.91,292
1569660951,285.304,29.9145,-16.7432,179.099,1.25244,-144.91,292
1569660951,285.304,29.9145,-16.7432,179.099,1.25244,-144.91,292
1569660951,285.304,29.9145,-16.7432,179.099,1.25244,-144.91,292
1569660951,285.304,29.9145,-16.7432,179.099,1.25244,-144.91,292
1569660951,285.304,29.9145,-16.7432,179.099,1.25244,-144.91,292
1569660951,285.304,29.9145,-16.7432,179.099,1.23047,-144.91,292
1569660951,285.304,29.9145,-16.7432,179.099,1.23047,-144.91,292
1569660951,285.304,29.9145,-16.7432,179.099,1.23047,-144.91,292
1569660951,285.304,29.9145,-16.7432,179.099,1.23047,-144.91,292
1569660951,285.304,29.9145,-16.7432,179.099,1.23047,-144.91,292
1569660951,285.304,29.9145,-16.7432,179.099,1.23047,-144.932,292
1569660951,285.304,29.9145,-16.7432,179.099,1.23047,-144.932,292
1569660951,285.304,29.9145,-16.7432,179.099,1.23047,-144.932,292
1569660951,285.304,29.9145,-16.7432,179.099,1.23047,-144.932,292
1569660951,285.304,29.9145,-16.7432,179.099,1.23047,-144.932,292
1569660951,285.304,29.9145,-16.7432,179.099,1.25244,-144.932,292
1569660951,285.304,29.9145,-16.7432,179.099,1.25244,-144.932,292
1569660951,285.304,29.9145,-16.7432,179.099,1.25244,-144.932,292
1569660951,285.304,29.9145,-16.7432,179.099,1.25244,-144.932,292
1569660951,285.304,29.9145,-16.7432,179.099,1.25244,-144.932,292
1569660951,285.304,29.9145,-16.7432,179.099,1.25244,-144.932,292
1569660951,285.304,29.9145,-16.7432,179.099,1.25244,-144.932,292
1569660951,285.304,29.9145,-16.7432,179.099,1.25244,-144.932,292
1569660951,285.304,29.9145,-16.7432,179.099,1.25244,-144.932,292
1569660951,285.304,29.9145,-16.7432,179.099,1.25244,-144.932,292
1569660951,285.304,29.9145,-16.7432,179.121,1.25244,-144.932,292
1569660951,285.304,29.9145,-16.7432,179.121,1.25244,-144.932,292
1569660951,285.304,29.9145,-16.7432,179.121,1.25244,-144.932,292
1569660951,285.304,29.9145,-16.7432,179.121,1.25244,-144.932,292
1569660951,285.304,29.9145,-16.7432,179.121,1.25244,-144.932,292
1569660951,285.304,29.9145,-16.7432,179.121,1.25244,-144.932,292
1569660951,285.304,29.9145,-16.7432,179.121,1.25244,-144.932,292
1569660951,285.304,29.9145,-16.7432,179.121,1.25244,-144.932,292
1569660951,285.304,29.9145,-16.7432,179.121,1.23047,-144.932,292
1569660951,285.304,29.9145,-16.7432,179.121,1.23047,-144.932,292
1569660951,285.304,29.9145,-16.7432,179.121,1.23047,-144.932,292
1569660951,285.304,29.9145,-16.7432,179.121,1.23047,-144.932,292
1569660951,285.304,29.9145,-16.7432,179.121,1.23047,-144.932,292
1569660951,285.304,29.9145,-16.7432,179.121,1.23047,-144.932,292
1569660951,285.304,29.9145,-16.7432,179.121,1.25244,-144.932,292
1569660951,285.304,29.9145,-16.7432,179.121,1.25244,-144.932,296
1569660952,285.304,29.9145,-16.7432,179.121,1.25244,-144.932,296
1569660952,285.304,29.9145,-16.7432,179.121,1.25244,-144.932,296
1569660952,285.304,29.9145,-16.7432,179.121,1.25244,-144.932,296
1569660952,285.304,29.9145,-16.7432,179.121,1.25244,-144.932,296
1569660952,285.304,29.9145,-16.7432,179.121,1.25244,-144.932,296
1569660952,285.304,29.9145,-16.7432,179.121,1.25244,-144.932,296
1569660952,285.304,29.9145,-16.7432,179.121,1.25244,-144.932,296
1569660952,285.304,29.9145,-16.7432,179.121,1.25244,-144.932,296
1569660952,285.304,29.9145,-16.7432,179.121,1.25244,-144.932,296
1569660952,285.304,29.9145,-16.7432,179.121,1.25244,-144.932,296
1569660952,285.304,29.9145,-16.7432,179.121,1.25244,-144.932,296
1569660952,285.304,29.9145,-16.7432,179.121,1.25244,-144.932,296
1569660952,285.304,29.9145,-16.7432,179.121,1.25244,-144.932,296
1569660952,285.304,29.9145,-16.7432,179.121,1.25244,-144.932,296
1569660952,285.304,29.9145,-16.7432,179.121,1.25244,-144.932,296
1569660952,285.304,29.9145,-16.7432,179.121,1.25244,-144.932,296
1569660952,285.304,29.9145,-16.7432,179.121,1.23047,-144.932,296
1569660952,285.304,29.9145,-16.7432,179.121,1.23047,-144.932,296
1569660952,285.304,29.9145,-16.7432,179.121,1.23047,-144.932,296
1569660952,285.304,29.9145,-16.7432,179.121,1.23047,-144.932,296
1569660952,285.304,29.9145,-16.7432,179.121,1.23047,-144.932,296
1569660952,285.304,29.9145,-16.7432,179.121,1.23047,-144.932,296
1569660952,285.304,29.9145,-16.7432,179.121,1.23047,-144.932,296
1569660952,285.304,29.9145,-16.7432,179.121,1.23047,-144.932,296
1569660952,285.304,29.9145,-16.7432,179.121,1.23047,-144.932,300
1569660952,285.304,29.9145,-16.7432,179.121,1.23047,-144.932,300
1569660952,285.304,29.9145,-16.7432,179.121,1.23047,-144.932,300
1569660952,285.304,29.9145,-16.7432,179.121,1.23047,-144.932,300
1569660952,285.304,30.0261,-16.7432,179.121,1.23047,-144.932,300
1569660952,285.304,30.0261,-16.7432,179.121,1.23047,-144.932,300
1569660952,285.304,30.0261,-16.7432,179.121,1.23047,-144.932,300
1569660952,285.304,30.0261,-16.7432,179.121,1.23047,-144.932,296
1569660952,285.304,30.0261,-16.7432,179.121,1.23047,-144.932,296
1569660952,285.304,30.0261,-16.7432,179.121,1.23047,-144.932,296
1569660952,285.304,30.0261,-16.7432,179.121,1.23047,-144.932,296
1569660952,285.304,30.0261,-16.7432,179.121,1.23047,-144.932,296
1569660952,285.304,29.9145,-16.7432,179.121,1.23047,-144.932,296
1569660952,285.304,29.9145,-16.7432,179.121,1.23047,-144.932,296
1569660952,285.304,29.9145,-16.7432,179.121,1.23047,-144.91,296
1569660952,285.304,29.9145,-16.7432,179.121,1.23047,-144.91,296
1569660952,285.304,29.9145,-16.7432,179.121,1.23047,-144.932,296
1569660952,285.304,29.9145,-16.7432,179.121,1.23047,-144.932,296
1569660952,285.304,29.9145,-16.7432,179.121,1.23047,-144.932,296
1569660952,285.304,29.9145,-16.7432,179.121,1.25244,-144.932,296
1569660952,285.304,29.9145,-16.7432,179.121,1.25244,-144.932,296
1569660952,285.304,29.9145,-16.7432,179.121,1.23047,-144.932,296
1569660952,285.304,29.9145,-16.7432,179.121,1.23047,-144.932,296
1569660952,285.304,29.9145,-16.7432,179.121,1.23047,-144.91,296
1569660952,285.304,29.9145,-16.7432,179.121,1.23047,-144.91,296
1569660952,285.304,29.9145,-16.7432,179.121,1.23047,-144.91,296
1569660952,285.304,29.9145,-16.7432,179.121,1.23047,-144.91,296
1569660952,285.304,29.9145,-16.7432,179.121,1.23047,-144.91,296
1569660952,285.304,29.9145,-16.7432,179.121,1.23047,-144.91,296
1569660952,285.304,29.9145,-16.7432,179.121,1.23047,-144.91,296
1569660952,285.304,29.9145,-16.7432,179.121,1.23047,-144.91,296
1569660952,285.304,29.9145,-16.7432,179.121,1.23047,-144.91,296
1569660952,285.304,29.9145,-16.7432,179.121,1.23047,-144.91,296
1569660952,285.304,29.9145,-16.7432,179.121,1.23047,-144.91,296
1569660952,285.304,29.9145,-16.7432,179.099,1.23047,-144.91,292
1569660960,300.596,13.5062,-16.7432,179.165,1.05469,-144.668,308
1569660960,300.596,13.5062,-16.7432,179.165,1.05469,-144.668,308
1569660960,300.596,13.5062,-16.7432,179.165,1.05469,-144.668,308
1569660960,300.596,13.5062,-16.7432,179.165,1.05469,-144.668,308
1569660960,300.596,13.5062,-16.7432,179.165,1.05469,-144.668,308
1569660960,300.596,13.5062,-16.7432,179.165,1.05469,-144.668,308
1569660960,300.596,13.5062,-16.7432,179.165,1.05469,-144.646,308
1569660960,300.596,13.5062,-16.7432,179.165,1.05469,-144.646,308
1569660960,300.596,13.5062,-16.7432,179.165,1.05469,-144.646,308
1569660960,300.596,13.5062,-16.7432,179.165,1.07666,-144.646,308
1569660960,300.596,13.5062,-16.7432,179.165,1.07666,-144.646,308
1569660960,300.596,13.5062,-16.7432,179.165,1.07666,-144.646,308
1569660960,300.596,13.5062,-16.7432,179.165,1.07666,-144.646,312
1569660960,300.596,13.5062,-16.7432,179.165,1.07666,-144.646,312
1569660960,300.596,13.5062,-16.7432,179.165,1.07666,-144.646,312
1569660960,300.596,13.5062,-16.7432,179.165,1.07666,-144.646,312
1569660960,300.596,13.5062,-16.7432,179.165,1.07666,-144.646,312
1569660960,300.596,13.5062,-16.7432,179.187,1.07666,-144.646,312
1569660960,300.596,13.5062,-16.7432,179.187,1.07666,-144.646,308
1569660960,300.596,13.5062,-16.7432,179.187,1.05469,-144.646,308
1569660960,300.596,13.5062,-16.7432,179.187,1.05469,-144.646,308
1569660960,300.596,13.5062,-16.7432,179.187,1.05469,-144.646,308
1569660960,300.596,13.5062,-16.7432,179.187,1.05469,-144.646,308
1569660960,300.596,13.5062,-16.7432,179.187,1.05469,-144.646,308
1569660960,300.596,13.5062,-16.7432,179.187,1.05469,-144.646,308
1569660960,300.596,13.5062,-16.7432,179.187,1.05469,-144.646,308
1569660960,300.596,13.5062,-16.7432,179.187,1.05469,-144.646,308
1569660960,300.596,13.5062,-16.7432,179.187,1.05469,-144.646,308
1569660960,300.596,13.5062,-16.7432,179.187,1.05469,-144.646,308
1569660960,300.596,13.5062,-16.7432,179.187,1.05469,-144.646,308
1569660960,300.596,13.5062,-16.7432,179.187,1.05469,-144.646,308
1569660960,300.596,13.5062,-16.7432,179.187,1.05469,-144.646,308
1569660960,300.596,13.5062,-16.7432,179.187,1.05469,-144.646,308
1569660960,300.596,13.5062,-16.7432,179.187,1.05469,-144.646,308
1569660960,300.596,13.5062,-16.7432,179.187,1.05469,-144.646,308
1569660960,300.596,13.5062,-16.7432,179.187,1.05469,-144.646,308
1569660960,300.596,13.5062,-16.7432,179.187,1.05469,-144.646,308
1569660960,300.596,13.5062,-16.7432,179.187,1.05469,-144.646,308
1569660960,300.596,13.5062,-16.8548,179.187,1.05469,-144.646,308
1569660960,300.596,13.5062,-16.8548,179.187,1.05469,-144.646,308
1569660960,300.596,13.5062,-16.8548,179.187,1.05469,-144.646,308
1569660960,300.596,13.5062,-16.8548,179.187,1.05469,-144.646,308
1569660960,300.596,13.5062,-16.8548,179.187,1.05469,-144.646,308
1569660960,300.596,13.5062,-16.8548,179.187,1.05469,-144.646,308
1569660960,300.596,13.5062,-16.8548,179.187,1.05469,-144.646,308
1569660960,300.596,13.5062,-16.8548,179.187,1.05469,-144.646,308
1569660960,300.596,13.5062,-16.8548,179.187,1.05469,-144.646,308
1569660960,300.596,13.5062,-16.8548,179.187,1.05469,-144.646,308
1569660960,300.596,13.5062,-16.8548,179.187,1.05469,-144.646,308
1569660960,300.596,13.5062,-16.8548,179.187,1.03271,-144.646,308
1569660960,300.596,13.5062,-16.8548,179.187,1.03271,-144.646,308
1569660960,300.596,13.5062,-16.8548,179.187,1.03271,-144.646,308
1569660960,300.596,13.5062,-16.8548,179.187,1.03271,-144.646,308
1569660960,300.596,13.5062,-16.8548,179.187,1.03271,-144.646,308
1569660960,300.596,13.5062,-16.8548,179.187,1.03271,-144.646,308
1569660960,300.596,13.5062,-16.8548,179.187,1.03271,-144.646,308
1569660960,300.596,13.5062,-16.8548,179.187,1.05469,-144.646,308
1569660960,300.596,13.5062,-16.8548,179.187,1.05469,-144.646,308
1569660960,300.596,13.5062,-16.8548,179.187,1.05469,-144.646,308
1569660960,300.596,13.5062,-16.8548,179.187,1.05469,-144.646,308
1569660960,300.596,13.5062,-16.8548,179.187,1.05469,-144.646,308
1569660960,300.596,13.5062,-16.8548,179.187,1.05469,-144.646,308
1569660960,300.596,13.5062,-16.8548,179.187,1.05469,-144.646,308
1569660960,300.596,13.5062,-16.8548,179.187,1.05469,-144.646,308
1569660960,300.596,13.5062,-16.8548,179.187,1.05469,-144.646,312
1569660960,300.596,13.5062,-16.8548,179.187,1.05469,-144.646,312
1569660960,300.596,13.5062,-16.8548,179.187,1.05469,-144.646,312
1569660960,300.596,13.5062,-16.8548,179.187,1.05469,-144.646,312
1569660960,300.596,13.5062,-16.8548,179.187,1.05469,-144.646,312
1569660960,300.596,13.5062,-16.7432,179.165,1.05469,-144.646,312
1569660960,300.596,13.5062,-16.7432,179.165,1.05469,-144.646,312
1569660960,300.596,13.5062,-16.7432,179.165,1.05469,-144.646,312
1569660960,300.596,13.5062,-16.7432,179.165,1.05469,-144.646,312
1569660960,300.596,13.5062,-16.7432,179.165,1.05469,-144.646,312
1569660960,300.596,13.5062,-16.7432,179.165,1.05469,-144.646,312
1569660960,300.596,13.5062,-16.7432,179.165,1.05469,-144.646,316
1569660960,300.596,13.5062,-16.7432,179.165,1.05469,-144.646,316
1569660960,300.596,13.5062,-16.7432,179.165,1.05469,-144.646,316
1569660960,300.596,13.5062,-16.7432,179.165,1.05469,-144.646,316
1569660960,300.596,13.5062,-16.8548,179.165,1.05469,-144.646,316
1569660960,300.596,13.5062,-16.7432,179.165,1.05469,-144.646,316
1569660960,300.596,13.5062,-16.7432,179.165,1.05469,-144.646,316
1569660960,300.596,13.5062,-16.8548,179.165,1.05469,-144.646,312
1569660960,300.596,13.5062,-16.8548,179.165,1.05469,-144.646,312
1569660960,300.596,13.5062,-16.7432,179.165,1.05469,-144.646,312
1569660960,300.596,13.5062,-16.8548,179.165,1.05469,-144.646,312
1569660960,300.596,13.5062,-16.8548,179.187,1.05469,-144.646,312
1569660961,300.596,13.5062,-16.8548,179.187,1.05469,-144.646,312
1569660961,300.596,13.5062,-16.8548,179.187,1.05469,-144.646,312
1569660961,300.596,13.5062,-16.8548,179.187,1.05469,-144.646,312
1569660961,300.596,13.5062,-16.8548,179.187,1.05469,-144.646,312
1569660961,300.596,13.5062,-16.8548,179.187,1.05469,-144.646,308
1569660961,300.596,13.5062,-16.8548,179.187,1.05469,-144.646,308
1569660961,300.596,13.5062,-16.8548,179.187,1.05469,-144.646,308
1569660961,300.596,13.5062,-16.7432,179.187,1.05469,-144.646,308
1569660961,300.596,13.5062,-16.7432,179.187,1.05469,-144.646,308
1569660961,300.596,13.5062,-16.7432,179.187,1.05469,-144.646,308
1569660961,300.596,13.5062,-16.7432,179.187,1.05469,-144.646,308
1569660961,300.596,13.5062,-16.7432,179.187,1.05469,-144.646,308
1569660961,300.596,13.5062,-16.7432,179.187,1.05469,-144.646,308
1569660961,300.596,13.5062,-16.7432,179.187,1.05469,-144.646,308
1569660961,300.596,13.5062,-16.7432,179.187,1.05469,-144.646,308
1569660961,300.596,13.5062,-16.7432,179.187,1.05469,-144.646,308
1569660961,300.596,13.5062,-16.7432,179.187,1.05469,-144.646,308
1569660961,300.596,13.5062,-16.7432,179.187,1.05469,-144.646,308
1569660961,300.596,13.5062,-16.7432,179.187,1.05469,-144.646,308
1569660961,300.596,13.5062,-16.8548,179.187,1.05469,-144.646,308
1569660961,300.596,13.5062,-16.8548,179.187,1.05469,-144.646,308
1569660961,300.596,13.5062,-16.8548,179.187,1.05469,-144.646,308
1569660961,300.596,13.5062,-16.8548,179.165,1.05469,-144.646,308
1569660961,300.596,13.5062,-16.8548,179.165,1.05469,-144.646,308
1569660961,300.596,13.5062,-16.8548,179.165,1.05469,-144.646,308
1569660961,300.596,13.5062,-16.8548,179.165,1.05469,-144.646,308
1569660961,300.596,13.5062,-16.8548,179.165,1.05469,-144.646,312
1569660961,300.596,13.5062,-16.8548,179.165,1.05469,-144.646,312
1569660961,300.596,13.5062,-16.8548,179.165,1.05469,-144.646,312
1569660961,300.596,13.5062,-16.8548,179.165,1.05469,-144.646,312
1569660961,300.596,13.5062,-16.8548,179.165,1.03271,-144.646,312
1569660961,300.596,13.5062,-16.8548,179.165,1.03271,-144.646,312
1569660961,300.596,13.5062,-16.8548,179.165,1.05469,-144.646,312
1569660961,300.596,13.5062,-16.8548,179.165,1.05469,-144.646,312
1569660961,300.596,13.5062,-16.8548,179.165,1.05469,-144.646,312
1569660961,300.596,13.5062,-16.8548,179.187,1.05469,-144.646,312
1569660961,300.596,13.5062,-16.8548,179.187,1.05469,-144.646,312
1569660961,300.596,13.5062,-16.8548,179.187,1.05469,-144.646,312
1569660961,300.596,13.5062,-16.8548,179.187,1.05469,-144.646,312
1569660961,300.596,13.5062,-16.8548,179.187,1.05469,-144.646,312
1569660961,300.596,13.5062,-16.8548,179.187,1.05469,-144.646,312
1569660961,300.596,13.5062,-16.8548,179.187,1.05469,-144.646,312
1569660961,300.596,13.5062,-16.8548,179.187,1.05469,-144.646,312
1569660961,300.596,13.5062,-16.8548,179.187,1.05469,-144.646,312
1569660961,300.596,13.5062,-16.8548,179.187,1.05469,-144.646,312
1569660961,300.596,13.5062,-16.8548,179.187,1.05469,-144.646,312
1569660961,300.596,13.5062,-16.8548,179.187,1.05469,-144.646,312
1569660961,300.596,13.5062,-16.8548,179.187,1.05469,-144.646,312
1569660961,300.596,13.5062,-16.8548,179.187,1.05469,-144.646,312
1569660961,300.596,13.5062,-16.8548,179.187,1.05469,-144.646,312
1569660961,300.596,13.5062,-16.7432,179.187,1.05469,-144.646,312
1569660961,300.596,13.5062,-16.7432,179.187,1.05469,-144.646,312
1569660961,300.596,13.5062,-16.7432,179.187,1.05469,-144.646,312
1569660961,300.596,13.5062,-16.7432,179.187,1.05469,-144.646,312
1569660961,300.596,13.5062,-16.7432,179.187,1.05469,-144.646,308
1569660961,300.596,13.5062,-16.7432,179.187,1.05469,-144.646,308
1569660961,300.596,13.5062,-16.7432,179.187,1.05469,-144.646,308
1569660961,300.596,13.5062,-16.7432,179.187,1.05469,-144.646,308
1569660961,300.596,13.5062,-16.7432,179.187,1.05469,-144.646,308
1569660961,300.596,13.5062,-16.7432,179.187,1.05469,-144.646,308
1569660961,300.596,13.5062,-16.7432,179.187,1.05469,-144.646,308
1569660961,300.596,13.5062,-16.7432,179.187,1.05469,-144.646,308
1569660961,300.596,13.5062,-16.7432,179.187,1.05469,-144.646,308
1569660961,300.596,13.5062,-16.7432,179.187,1.05469,-144.646,308
1569660961,300.596,13.5062,-16.7432,179.187,1.05469,-144.646,308
1569660961,300.596,13.5062,-16.7432,179.187,1.05469,-144.646,308
1569660961,300.596,13.5062,-16.7432,179.187,1.05469,-144.646,308
1569660961,300.596,13.5062,-16.7432,179.187,1.05469,-144.646,308
1569660961,300.596,13.5062,-16.7432,179.187,1.05469,-144.646,308
1569660961,300.596,13.5062,-16.7432,179.187,1.05469,-144.646,308
1569660961,300.596,13.5062,-16.7432,179.187,1.05469,-144.646,308
1569660961,300.596,13.5062,-16.7432,179.187,1.05469,-144.646,308
1569660961,300.596,13.5062,-16.7432,179.187,1.05469,-144.646,308
1569660961,300.596,13.5062,-16.7432,179.187,1.05469,-144.646,304
1569660961,300.596,13.5062,-16.7432,179.187,1.05469,-144.646,304
1569660961,300.596,13.5062,-16.7432,179.187,1.05469,-144.646,304
1569660961,300.596,13.5062,-16.7432,179.187,1.05469,-144.646,304
1569660961,300.596,13.5062,-16.7432,179.187,1.05469,-144.646,304
1569660961,300.596,13.5062,-16.7432,179.187,1.05469,-144.646,304
1569660961,300.596,13.5062,-16.7432,179.187,1.05469,-144.646,304
1569660961,300.596,13.5062,-16.7432,179.187,1.05469,-144.646,304
1569660961,300.596,13.5062,-16.7432,179.187,1.05469,-144.646,304
1569660961,300.596,13.5062,-16.7432,179.187,1.05469,-144.646,304
1569660961,300.596,13.5062,-16.7432,179.187,1.05469,-144.646,304
1569660961,300.596,13.5062,-16.7432,179.187,1.05469,-144.646,304
1569660961,300.596,13.5062,-16.7432,179.187,1.05469,-144.646,304
1569660961,300.596,13.5062,-16.7432,179.187,1.05469,-144.646,304
1569660961,300.596,13.5062,-16.7432,179.187,1.05469,-144.646,304
1569660961,300.596,13.5062,-16.7432,179.187,1.05469,-144.646,304
1569660961,300.596,13.5062,-16.7432,179.187,1.05469,-144.646,304
1569660961,300.596,13.5062,-16.7432,179.187,1.05469,-144.646,304
1569660961,300.596,13.5062,-16.7432,179.187,1.05469,-144.646,304
1569660961,300.596,13.5062,-16.7432,179.187,1.05469,-144.646,304
1569660961,300.596,13.5062,-16.7432,179.187,1.05469,-144.646,304
1569660961,300.596,13.5062,-16.7432,179.187,1.05469,-144.646,304
1569660961,300.596,13.5062,-16.7432,179.187,1.05469,-144.646,304
1569660961,300.596,13.5062,-16.7432,179.187,1.05469,-144.646,304
1569660961,300.596,13.5062,-16.7432,179.187,1.05469,-144.646,304
1569660961,300.596,13.5062,-16.7432,179.187,1.05469,-144.646,304
1569660962,300.596,13.5062,-16.7432,179.187,1.05469,-144.646,304
1569660962,300.596,13.5062,-16.7432,179.187,1.05469,-144.646,304
1569660962,300.596,13.5062,-16.7432,179.187,1.05469,-144.646,304
1569660962,300.596,13.5062,-16.7432,179.187,1.05469,-144.646,304
1569660962,300.596,13.5062,-16.7432,179.187,1.05469,-144.646,304
1569660962,300.596,13.5062,-16.7432,179.187,1.05469,-144.646,304
1569660962,300.596,13.5062,-16.7432,179.187,1.05469,-144.646,304
1569660962,300.596,13.5062,-16.7432,179.187,1.05469,-144.646,304
1569660962,300.596,13.5062,-16.7432,179.187,1.05469,-144.646,304
1569660962,300.596,13.5062,-16.7432,179.187,1.05469,-144.646,304
1569660962,300.596,13.5062,-16.7432,179.187,1.05469,-144.646,304
1569660962,300.596,13.5062,-16.7432,179.187,1.05469,-144.646,304
1569660962,300.596,13.5062,-16.7432,179.187,1.05469,-144.646,304
1569660962,300.596,13.5062,-16.7432,179.187,1.05469,-144.646,304
1569660962,300.596,13.5062,-16.7432,179.187,1.05469,-144.646,304
1569660962,300.596,13.5062,-16.7432,179.187,1.05469,-144.646,304
1569660962,300.596,13.5062,-16.7432,179.187,1.05469,-144.646,304
1569660962,300.596,13.5062,-16.7432,179.187,1.05469,-144.646,304
1569660962,300.596,13.5062,-16.7432,179.187,1.05469,-144.646,304
1569660962,300.596,13.5062,-16.7432,179.187,1.05469,-144.646,304
1569660962,300.596,13.5062,-16.7432,179.187,1.05469,-144.646,304
1569660962,300.596,13.5062,-16.7432,179.187,1.05469,-144.646,304
1569660962,300.596,13.5062,-16.7432,179.187,1.05469,-144.646,304
1569660962,300.596,13.5062,-16.7432,179.187,1.05469,-144.646,304
1569660962,300.596,13.5062,-16.7432,179.187,1.05469,-144.646,304
1569660962,300.596,13.5062,-16.7432,179.187,1.05469,-144.646,304
1569660962,300.596,13.5062,-16.7432,179.187,1.05469,-144.646,304
1569660962,300.596,13.5062,-16.7432,179.187,1.05469,-144.646,304
1569660962,300.596,13.5062,-16.7432,179.187,1.05469,-144.646,304
1569660962,300.596,13.5062,-16.7432,179.187,1.05469,-144.646,304
1569660962,300.596,13.5062,-16.7432,179.187,1.05469,-144.646,304
1569660962,300.596,13.5062,-16.7432,179.187,1.05469,-144.646,304
1569660962,300.596,13.5062,-16.7432,179.187,1.05469,-144.646,304
1569660962,300.596,13.5062,-16.7432,179.187,1.05469,-144.646,304
1569660962,300.596,13.5062,-16.7432,179.187,1.05469,-144.646,304
1569660962,300.596,13.5062,-16.7432,179.187,1.05469,-144.646,304
1569660962,300.596,13.5062,-16.7432,179.187,1.05469,-144.646,304
1569660962,300.596,13.5062,-16.7432,179.187,1.05469,-144.646,304
1569660962,300.596,13.5062,-16.7432,179.187,1.05469,-144.646,304
1569660962,300.596,13.5062,-16.7432,179.187,1.05469,-144.646,304
1569660962,300.596,13.5062,-16.7432,179.187,1.05469,-144.646,304
1569660962,300.596,13.5062,-16.7432,179.187,1.05469,-144.646,304
1569660962,300.596,13.5062,-16.7432,179.187,1.05469,-144.646,300
1569660962,300.596,13.5062,-16.7432,179.187,1.05469,-144.646,300
1569660962,300.596,13.5062,-16.7432,179.187,1.05469,-144.646,300
1569660962,300.596,13.5062,-16.7432,179.187,1.05469,-144.646,300
1569660962,300.596,13.5062,-16.7432,179.187,1.05469,-144.646,300
1569660962,300.596,13.5062,-16.7432,179.187,1.05469,-144.646,300
1569660962,300.596,13.5062,-16.7432,179.187,1.05469,-144.646,300
1569660962,300.596,13.5062,-16.7432,179.187,1.05469,-144.646,300
1569660962,300.596,13.5062,-16.7432,179.187,1.05469,-144.646,300
1569660962,300.596,13.5062,-16.7432,179.187,1.05469,-144.646,300
1569660962,300.596,13.5062,-16.7432,179.187,1.05469,-144.646,300
1569660962,300.596,13.5062,-16.7432,179.187,1.05469,-144.646,300
1569660962,300.596,13.5062,-16.7432,179.187,1.05469,-144.646,300
1569660962,300.596,13.5062,-16.7432,179.187,1.05469,-144.646,300
1569660962,300.596,13.5062,-16.7432,179.187,1.05469,-144.646,300
1569660962,300.596,13.5062,-16.7432,179.187,1.05469,-144.646,304
1569660962,300.596,13.5062,-16.7432,179.187,1.05469,-144.646,304
1569660962,300.596,13.5062,-16.7432,179.187,1.05469,-144.646,304
1569660962,300.596,13.5062,-16.7432,179.187,1.05469,-144.646,304
1569660962,300.596,13.5062,-16.7432,179.187,1.05469,-144.646,304
1569660962,300.596,13.5062,-16.7432,179.187,1.05469,-144.646,304
1569660962,300.596,13.5062,-16.7432,179.187,1.05469,-144.646,304
1569660962,300.596,13.5062,-16.7432,179.187,1.05469,-144.646,304
1569660962,300.596,13.5062,-16.7432,179.187,1.05469,-144.646,308
1569660962,300.596,13.5062,-16.7432,179.187,1.05469,-144.646,308
1569660962,300.596,13.5062,-16.7432,179.187,1.05469,-144.646,308
1569660962,300.596,13.5062,-16.7432,179.187,1.05469,-144.646,308
1569660962,300.596,13.5062,-16.7432,179.187,1.05469,-144.646,308
1569660962,300.596,13.5062,-16.7432,179.187,1.05469,-144.646,308
1569660962,300.596,13.5062,-16.7432,179.187,1.05469,-144.646,308
1569660962,300.596,13.5062,-16.7432,179.187,1.05469,-144.646,308
1569660962,300.596,13.5062,-16.7432,179.187,1.05469,-144.646,308
1569660962,300.596,13.5062,-16.7432,179.187,1.05469,-144.646,308
1569660962,300.596,13.5062,-16.7432,179.187,1.05469,-144.646,308
1569660962,300.596,13.5062,-16.7432,179.187,1.05469,-144.646,308
1569660962,300.596,13.5062,-16.7432,179.187,1.05469,-144.646,308
1569660962,300.596,13.5062,-16.7432,179.187,1.05469,-144.646,308
1569660962,300.596,13.5062,-16.7432,179.187,1.05469,-144.646,308
1569660962,300.596,13.5062,-16.7432,179.187,1.05469,-144.646,308
1569660962,300.596,13.5062,-16.7432,179.187,1.05469,-144.646,308
1569660962,300.596,13.5062,-16.7432,179.187,1.05469,-144.646,308
1569660962,300.596,13.5062,-16.8548,179.187,1.05469,-144.646,308
1569660962,300.596,13.5062,-16.8548,179.187,1.05469,-144.646,308
1569660962,300.596,13.5062,-16.8548,179.187,1.05469,-144.646,308
1569660962,300.596,13.5062,-16.8548,179.187,1.05469,-144.646,308
1569660962,300.596,13.5062,-16.8548,179.187,1.05469,-144.646,308
1569660962,300.596,13.5062,-16.8548,179.187,1.05469,-144.646,308
1569660962,300.596,13.5062,-16.8548,179.187,1.05469,-144.646,308
1569660962,300.596,13.5062,-16.8548,179.187,1.05469,-144.646,308
1569660962,300.596,13.5062,-16.8548,179.187,1.05469,-144.646,308
1569660962,300.596,13.5062,-16.8548,179.187,1.05469,-144.646,312
1569660962,300.596,13.5062,-16.8548,179.187,1.05469,-144.646,312
1569660962,300.596,13.5062,-16.8548,179.187,1.05469,-144.646,312
1569660962,300.596,13.5062,-16.8548,179.187,1.05469,-144.646,312
1569660962,300.596,13.5062,-16.8548,179.187,1.05469,-144.646,312
1569660962,300.596,13.5062,-16.8548,179.187,1.05469,-144.646,312
1569660962,300.596,13.5062,-16.8548,179.187,1.05469,-144.646,312
1569660962,300.596,13.5062,-16.8548,179.209,1.05469,-144.646,312
1569660963,300.596,13.5062,-16.8548,179.209,1.05469,-144.646,312
1569660963,300.596,13.5062,-16.8548,179.209,1.05469,-144.646,312
1569660963,300.596,13.5062,-16.7432,179.209,1.05469,-144.646,312
1569660963,300.596,13.5062,-16.7432,179.209,1.05469,-144.646,312
1569660963,300.596,13.5062,-16.7432,179.209,1.05469,-144.646,312
1569660963,300.596,13.5062,-16.7432,179.187,1.05469,-144.646,316
1569660963,300.596,13.5062,-16.7432,179.187,1.05469,-144.646,316
1569660963,300.596,13.5062,-16.7432,179.187,1.05469,-144.646,316
1569660963,300.596,13.5062,-16.7432,179.187,1.05469,-144.646,316
1569660963,300.596,13.5062,-16.7432,179.187,1.05469,-144.646,316
1569660963,300.596,13.5062,-16.7432,179.187,1.05469,-144.646,316
1569660963,300.596,13.5062,-16.7432,179.187,1.05469,-144.646,316
1569660963,300.596,13.5062,-16.7432,179.187,1.05469,-144.646,316
1569660963,300.596,13.5062,-16.7432,179.187,1.05469,-144.646,316
1569660963,300.596,13.5062,-16.7432,179.187,1.05469,-144.646,316
1569660963,300.596,13.5062,-16.7432,179.187,1.05469,-144.646,316
1569660963,300.596,13.5062,-16.7432,179.187,1.05469,-144.646,316
1569660963,300.596,13.5062,-16.7432,179.187,1.05469,-144.646,316
1569660963,300.596,13.5062,-16.7432,179.187,1.05469,-144.646,316
1569660963,300.596,13.5062,-16.7432,179.187,1.05469,-144.646,316
1569660963,300.596,13.5062,-16.7432,179.187,1.05469,-144.646,316
1569660963,300.596,13.5062,-16.7432,179.187,1.05469,-144.646,320
1569660963,300.596,13.5062,-16.7432,179.187,1.05469,-144.624,320
1569660963,300.596,13.5062,-16.8548,179.187,1.05469,-144.624,320
1569660963,300.596,13.5062,-16.8548,179.187,1.05469,-144.624,320
1569660963,300.596,13.5062,-16.8548,179.187,1.05469,-144.646,320
1569660963,300.596,13.5062,-16.8548,179.187,1.05469,-144.646,320
1569660963,300.596,13.5062,-16.8548,179.187,1.05469,-144.646,320
1569660963,300.596,13.5062,-16.8548,179.187,1.05469,-144.646,320
1569660963,300.596,13.5062,-16.8548,179.187,1.03271,-144.646,324
1569660963,300.596,13.5062,-16.8548,179.187,1.03271,-144.646,324
1569660963,300.596,13.5062,-16.8548,179.187,1.03271,-144.646,324
1569660963,300.596,13.5062,-16.8548,179.187,1.03271,-144.646,324
1569660963,300.596,13.5062,-16.8548,179.187,1.03271,-144.646,324
1569660963,300.596,13.5062,-16.8548,179.187,1.03271,-144.646,324
1569660963,300.596,13.5062,-16.8548,179.187,1.03271,-144.646,324
1569660963,300.596,13.5062,-16.8548,179.187,1.03271,-144.646,324
1569660963,300.596,13.5062,-16.8548,179.187,1.03271,-144.646,324
1569660963,300.596,13.5062,-16.8548,179.187,1.03271,-144.646,324
1569660963,300.596,13.5062,-16.8548,179.187,1.03271,-144.646,324
1569660963,300.596,13.5062,-16.8548,179.187,1.03271,-144.646,324
1569660963,300.596,13.5062,-16.8548,179.187,1.03271,-144.646,324
1569660963,300.596,13.5062,-16.8548,179.187,1.03271,-144.646,324
1569660963,300.596,13.5062,-16.8548,179.187,1.03271,-144.646,324
1569660963,300.596,13.5062,-16.8548,179.187,1.03271,-144.646,324
1569660963,300.596,13.5062,-16.8548,179.187,1.05469,-144.646,324
1569660963,300.596,13.5062,-16.8548,179.187,1.05469,-144.646,320
1569660963,300.596,13.5062,-16.8548,179.187,1.05469,-144.646,320
1569660963,300.596,13.5062,-16.8548,179.209,1.05469,-144.646,320
1569660963,300.596,13.5062,-16.8548,179.209,1.05469,-144.646,320
1569660963,300.596,13.5062,-16.8548,179.209,1.05469,-144.646,320
1569660963,300.596,13.5062,-16.8548,179.209,1.05469,-144.646,320
1569660963,300.596,13.5062,-16.8548,179.209,1.05469,-144.646,320
1569660963,300.596,13.5062,-16.8548,179.209,1.05469,-144.646,320
1569660963,300.596,13.5062,-16.7432,179.209,1.05469,-144.646,320
1569660963,300.596,13.5062,-16.7432,179.209,1.05469,-144.646,320
1569660963,300.596,13.5062,-16.7432,179.209,1.05469,-144.646,320
1569660963,300.596,13.5062,-16.7432,179.209,1.05469,-144.646,320
1569660963,300.596,13.5062,-16.7432,179.209,1.05469,-144.646,316
1569660963,300.596,13.5062,-16.7432,179.209,1.05469,-144.646,316
1569660963,300.596,13.5062,-16.7432,179.209,1.05469,-144.646,316
1569660963,300.596,13.5062,-16.7432,179.209,1.05469,-144.646,316
1569660963,300.596,13.5062,-16.7432,179.209,1.05469,-144.646,316
1569660963,300.596,13.5062,-16.7432,179.209,1.05469,-144.646,316
1569660963,300.596,13.5062,-16.7432,179.209,1.05469,-144.646,316
1569660963,300.596,13.5062,-16.7432,179.209,1.05469,-144.646,316
1569660963,300.596,13.5062,-16.7432,179.209,1.05469,-144.646,316
1569660963,300.596,13.5062,-16.8548,179.209,1.05469,-144.646,316
1569660963,300.596,13.5062,-16.8548,179.209,1.05469,-144.646,316
1569660963,300.596,13.5062,-16.8548,179.209,1.05469,-144.646,316
1569660963,300.596,13.5062,-16.8548,179.209,1.05469,-144.646,316
1569660963,300.596,13.5062,-16.8548,179.209,1.05469,-144.646,316
1569660963,300.596,13.5062,-16.8548,179.209,1.05469,-144.646,312
1569660963,300.596,13.5062,-16.8548,179.209,1.05469,-144.646,312
1569660963,300.596,13.5062,-16.8548,179.209,1.05469,-144.646,312
1569660963,300.596,13.5062,-16.8548,179.209,1.05469,-144.646,312
1569660963,300.596,13.5062,-16.8548,179.209,1.05469,-144.646,312
1569660963,300.596,13.5062,-16.8548,179.209,1.05469,-144.646,312
1569660963,300.596,13.5062,-16.8548,179.209,1.05469,-144.646,312
1569660963,300.596,13.5062,-16.8548,179.209,1.05469,-144.646,312
1569660963,300.596,13.5062,-16.8548,179.209,1.05469,-144.646,312
1569660963,300.596,13.5062,-16.8548,179.209,1.05469,-144.646,308
1569660963,300.596,13.5062,-16.8548,179.209,1.05469,-144.646,308
1569660963,300.596,13.5062,-16.8548,179.187,1.05469,-144.646,308
1569660963,300.596,13.5062,-16.8548,179.187,1.05469,-144.646,308
1569660963,300.596,13.5062,-16.8548,179.187,1.05469,-144.646,308
1569660963,300.596,13.5062,-16.8548,179.187,1.05469,-144.646,308
1569660963,300.596,13.5062,-16.8548,179.187,1.05469,-144.646,308
1569660963,300.596,13.5062,-16.8548,179.187,1.05469,-144.646,308
1569660963,300.596,13.5062,-16.8548,179.187,1.05469,-144.646,308
1569660963,300.596,13.5062,-16.8548,179.187,1.05469,-144.646,308
1569660963,300.596,13.5062,-16.8548,179.209,1.05469,-144.646,308
1569660963,300.596,13.5062,-16.8548,179.209,1.05469,-144.646,308
1569660963,300.596,13.5062,-16.8548,179.209,1.05469,-144.646,308
1569660963,300.596,13.5062,-16.8548,179.209,1.05469,-144.646,308
1569660963,300.596,13.5062,-16.8548,179.209,1.05469,-144.646,308
1569660963,300.596,13.5062,-16.8548,179.209,1.05469,-144.646,308
1569660963,300.596,13.5062,-16.8548,179.209,1.05469,-144.646,308
1569660963,300.596,13.5062,-16.8548,179.209,1.05469,-144.646,308
1569660963,300.596,13.5062,-16.8548,179.209,1.05469,-144.646,308
1569660964,300.596,13.5062,-16.8548,179.209,1.03271,-144.646,308
1569660964,300.596,13.5062,-16.8548,179.209,1.03271,-144.646,308
1569660964,300.596,13.5062,-16.8548,179.209,1.03271,-144.646,308
1569660964,300.596,13.5062,-16.8548,179.209,1.03271,-144.646,312
1569660964,300.596,13.5062,-16.8548,179.209,1.03271,-144.646,312
1569660964,300.596,13.5062,-16.8548,179.209,1.03271,-144.646,312
1569660964,300.596,13.5062,-16.8548,179.209,1.03271,-144.646,312
1569660964,300.596,13.5062,-16.8548,179.209,1.03271,-144.646,312
1569660964,300.596,13.5062,-16.8548,179.209,1.05469,-144.646,312
1569660964,300.596,13.5062,-16.8548,179.209,1.05469,-144.646,312
1569660964,300.596,13.5062,-16.8548,179.209,1.05469,-144.646,312
1569660964,300.596,13.5062,-16.8548,179.209,1.05469,-144.646,312
1569660964,300.596,13.5062,-16.8548,179.209,1.05469,-144.646,312
1569660964,300.596,13.5062,-16.8548,179.209,1.05469,-144.646,312
1569660964,300.596,13.5062,-16.8548,179.209,1.05469,-144.646,312
1569660964,300.596,13.5062,-16.8548,179.209,1.03271,-144.646,312
1569660964,300.596,13.5062,-16.8548,179.209,1.03271,-144.646,312
1569660964,300.596,13.5062,-16.8548,179.209,1.03271,-144.646,312
1569660964,300.596,13.5062,-16.8548,179.209,1.03271,-144.646,312
1569660964,300.596,13.5062,-16.8548,179.209,1.03271,-144.646,312
1569660964,300.596,13.5062,-16.8548,179.209,1.03271,-144.646,312
1569660964,300.596,13.5062,-16.8548,179.209,1.03271,-144.646,312
1569660964,300.596,13.5062,-16.8548,179.209,1.03271,-144.646,312
1569660964,300.596,13.5062,-16.8548,179.187,1.03271,-144.646,312
1569660964,300.596,13.5062,-16.8548,179.187,1.03271,-144.646,312
1569660964,300.596,13.5062,-16.8548,179.187,1.03271,-144.646,316
1569660964,300.484,13.5062,-16.8548,179.187,1.05469,-144.646,316
1569660964,300.484,13.5062,-16.8548,179.187,1.05469,-144.646,316
1569660964,300.484,13.5062,-16.8548,179.187,1.05469,-144.646,316
1569660964,300.484,13.5062,-16.8548,179.187,1.03271,-144.646,316
1569660964,300.484,13.5062,-16.8548,179.187,1.03271,-144.646,316
1569660964,300.484,13.5062,-16.8548,179.187,1.03271,-144.646,316
1569660964,300.484,13.5062,-16.8548,179.187,1.03271,-144.646,316
1569660964,300.484,13.5062,-16.8548,179.187,1.03271,-144.646,316
1569660964,300.484,13.5062,-16.8548,179.187,1.03271,-144.646,316
1569660964,300.596,13.5062,-16.8548,179.187,1.03271,-144.646,316
1569660964,300.596,13.5062,-16.8548,179.187,1.03271,-144.646,316
1569660964,300.596,13.5062,-16.8548,179.187,1.03271,-144.646,316
1569660964,300.596,13.5062,-16.8548,179.187,1.03271,-144.646,316
1569660964,300.596,13.5062,-16.8548,179.187,1.03271,-144.646,316
1569660964,300.596,13.5062,-16.8548,179.187,1.03271,-144.646,316
1569660964,300.596,13.5062,-16.8548,179.187,1.03271,-144.646,316
1569660964,300.596,13.5062,-16.8548,179.187,1.05469,-144.646,316
1569660964,300.596,13.5062,-16.8548,179.187,1.05469,-144.646,312
1569660964,300.596,13.5062,-16.8548,179.187,1.05469,-144.646,312
1569660964,300.596,13.5062,-16.8548,179.187,1.05469,-144.646,312
1569660964,300.596,13.5062,-16.8548,179.187,1.05469,-144.646,312
1569660964,300.596,13.5062,-16.8548,179.187,1.05469,-144.646,312
1569660964,300.596,13.5062,-16.8548,179.187,1.05469,-144.646,312
1569660964,300.596,13.5062,-16.8548,179.187,1.05469,-144.646,312
1569660964,300.596,13.5062,-16.8548,179.187,1.05469,-144.646,312
1569660964,300.596,13.5062,-16.7432,179.187,1.05469,-144.646,312
1569660964,300.596,13.5062,-16.7432,179.187,1.05469,-144.646,312
1569660964,300.596,13.5062,-16.7432,179.187,1.05469,-144.646,312
1569660964,300.596,13.5062,-16.7432,179.187,1.05469,-144.646,312
1569660964,300.596,13.5062,-16.8548,179.187,1.05469,-144.646,312
1569660964,300.596,13.5062,-16.8548,179.187,1.05469,-144.646,312
1569660964,300.596,13.5062,-16.8548,179.187,1.05469,-144.646,316
1569660964,300.596,13.5062,-16.8548,179.187,1.05469,-144.646,316
1569660964,300.596,13.5062,-16.8548,179.187,1.05469,-144.646,316
1569660964,300.596,13.5062,-16.8548,179.187,1.05469,-144.646,316
1569660964,300.596,13.5062,-16.8548,179.187,1.05469,-144.646,316
1569660964,300.596,13.5062,-16.8548,179.187,1.05469,-144.668,316
1569660964,300.596,13.5062,-16.8548,179.187,1.03271,-144.668,316
1569660964,300.596,13.5062,-16.8548,179.187,1.03271,-144.668,316
1569660964,300.596,13.5062,-16.8548,179.187,1.03271,-144.668,316
1569660964,300.596,13.5062,-16.8548,179.187,1.03271,-144.668,316
1569660964,300.596,13.5062,-16.8548,179.187,1.05469,-144.668,316
1569660964,300.596,13.5062,-16.8548,179.187,1.05469,-144.668,316
1569660964,300.596,13.5062,-16.8548,179.187,1.05469,-144.668,316
1569660964,300.596,13.5062,-16.8548,179.187,1.05469,-144.668,312
1569660964,300.596,13.5062,-16.8548,179.187,1.05469,-144.668,312
1569660964,300.596,13.5062,-16.8548,179.187,1.05469,-144.668,312
1569660964,300.596,13.5062,-16.8548,179.187,1.05469,-144.668,312
1569660964,300.596,13.5062,-16.8548,179.187,1.05469,-144.668,312
1569660964,300.596,13.5062,-16.8548,179.187,1.05469,-144.668,312
1569660964,300.596,13.5062,-16.8548,179.187,1.05469,-144.668,312
1569660964,300.484,13.5062,-16.8548,179.187,1.05469,-144.668,312
1569660964,300.484,13.5062,-16.8548,179.187,1.05469,-144.668,312
1569660964,300.484,13.5062,-16.8548,179.187,1.05469,-144.668,312
1569660964,300.596,13.5062,-16.8548,179.187,1.05469,-144.668,312
1569660964,300.596,13.5062,-16.7432,179.187,1.05469,-144.668,312
1569660964,300.596,13.5062,-16.7432,179.187,1.05469,-144.668,312
1569660964,300.596,13.5062,-16.7432,179.187,1.05469,-144.668,312
1569660964,300.596,13.5062,-16.7432,179.187,1.05469,-144.668,312
1569660964,300.596,13.5062,-16.7432,179.187,1.05469,-144.668,312
1569660964,300.596,13.5062,-16.7432,179.187,1.05469,-144.668,316
1569660964,300.596,13.5062,-16.7432,179.165,1.05469,-144.668,316
1569660964,300.596,13.5062,-16.7432,179.165,1.05469,-144.646,316
1569660964,300.596,13.5062,-16.7432,179.165,1.05469,-144.646,316
1569660964,300.596,13.5062,-16.7432,179.165,1.05469,-144.646,316
1569660964,300.596,13.5062,-16.7432,179.165,1.05469,-144.646,316
1569660964,300.596,13.5062,-16.7432,179.165,1.05469,-144.646,316
1569660964,300.596,13.5062,-16.7432,179.165,1.05469,-144.646,316
1569660964,300.596,13.5062,-16.7432,179.165,1.05469,-144.646,316
1569660964,300.596,13.5062,-16.7432,179.165,1.05469,-144.646,316
1569660964,300.596,13.5062,-16.7432,179.165,1.05469,-144.646,316
1569660964,300.596,13.5062,-16.7432,179.165,1.05469,-144.668,316
1569660964,300.596,13.5062,-16.7432,179.165,1.05469,-144.668,316
1569660964,300.596,13.5062,-16.7432,179.165,1.05469,-144.668,316
1569660964,300.484,13.5062,-16.7432,179.165,1.05469,-144.668,316
1569660965,300.484,13.5062,-16.7432,179.165,1.05469,-144.668,316
1569660965,300.484,13.5062,-16.7432,179.165,1.05469,-144.668,316
1569660965,300.484,13.5062,-16.7432,179.165,1.05469,-144.668,320
1569660965,300.484,13.5062,-16.7432,179.165,1.05469,-144.668,320
1569660965,300.484,13.5062,-16.7432,179.165,1.05469,-144.668,320
1569660965,300.484,13.5062,-16.7432,179.165,1.05469,-144.668,320
1569660965,300.484,13.5062,-16.7432,179.165,1.05469,-144.668,320
1569660965,300.484,13.5062,-16.7432,179.165,1.05469,-144.668,320
1569660965,300.484,13.5062,-16.7432,179.165,1.05469,-144.668,320
1569660965,300.484,13.5062,-16.7432,179.165,1.05469,-144.668,320
1569660965,300.484,13.5062,-16.8548,179.165,1.05469,-144.668,324
1569660965,300.484,13.5062,-16.8548,179.165,1.05469,-144.646,324
1569660965,300.484,13.5062,-16.8548,179.165,1.05469,-144.646,324
1569660975,323.701,-10.8272,-16.4083,179.231,1.25244,-144.954,348
1569660975,323.701,-10.8272,-16.4083,179.231,1.25244,-144.954,348
1569660975,323.701,-10.8272,-16.4083,179.231,1.25244,-144.954,348
1569660975,323.701,-10.8272,-16.4083,179.231,1.25244,-144.954,348
1569660975,323.701,-10.8272,-16.4083,179.231,1.25244,-144.954,352
1569660975,323.701,-10.8272,-16.4083,179.231,1.25244,-144.954,352
1569660975,323.701,-10.8272,-16.4083,179.231,1.25244,-144.954,352
1569660975,323.59,-10.8272,-16.4083,179.231,1.25244,-144.954,352
1569660975,323.59,-10.8272,-16.4083,179.231,1.25244,-144.976,352
1569660975,323.59,-10.8272,-16.4083,179.231,1.25244,-144.976,352
1569660975,323.59,-10.8272,-16.4083,179.231,1.25244,-144.976,352
1569660975,323.59,-10.8272,-16.4083,179.231,1.25244,-144.976,352
1569660975,323.59,-10.8272,-16.4083,179.231,1.25244,-144.976,352
1569660975,323.59,-10.8272,-16.4083,179.231,1.25244,-144.976,352
1569660975,323.701,-10.8272,-16.4083,179.231,1.25244,-144.976,352
1569660975,323.701,-10.8272,-16.4083,179.231,1.25244,-144.976,352
1569660975,323.701,-10.8272,-16.4083,179.231,1.25244,-144.976,352
1569660975,323.701,-10.8272,-16.4083,179.231,1.25244,-144.976,352
1569660975,323.701,-10.8272,-16.4083,179.231,1.25244,-144.976,352
1569660975,323.701,-10.8272,-16.4083,179.231,1.25244,-144.976,352
1569660975,323.701,-10.8272,-16.4083,179.231,1.25244,-144.976,352
1569660975,323.701,-10.8272,-16.4083,179.231,1.25244,-144.976,352
1569660975,323.701,-10.9389,-16.4083,179.231,1.25244,-144.976,352
1569660975,323.701,-10.9389,-16.4083,179.231,1.25244,-144.976,352
1569660975,323.701,-10.9389,-16.4083,179.231,1.25244,-144.976,352
1569660975,323.701,-10.8272,-16.4083,179.231,1.25244,-144.976,352
1569660975,323.701,-10.8272,-16.4083,179.231,1.25244,-144.976,352
1569660975,323.701,-10.8272,-16.5199,179.231,1.25244,-144.976,352
1569660975,323.701,-10.8272,-16.5199,179.231,1.25244,-144.976,352
1569660975,323.701,-10.8272,-16.5199,179.231,1.25244,-144.976,352
1569660975,323.701,-10.9389,-16.5199,179.231,1.25244,-144.976,352
1569660975,323.701,-10.9389,-16.5199,179.231,1.25244,-144.976,352
1569660975,323.701,-10.9389,-16.5199,179.231,1.25244,-144.976,352
1569660975,323.701,-10.9389,-16.5199,179.231,1.25244,-144.976,352
1569660975,323.701,-10.9389,-16.5199,179.231,1.25244,-144.976,352
1569660975,323.701,-10.9389,-16.5199,179.209,1.25244,-144.976,352
1569660975,323.701,-10.9389,-16.5199,179.209,1.25244,-144.976,352
1569660975,323.701,-10.9389,-16.5199,179.209,1.25244,-144.976,352
1569660975,323.701,-10.9389,-16.5199,179.209,1.25244,-144.976,352
1569660975,323.701,-10.9389,-16.5199,179.209,1.25244,-144.976,352
1569660975,323.701,-10.9389,-16.5199,179.209,1.25244,-144.976,352
1569660975,323.701,-10.9389,-16.5199,179.209,1.25244,-144.976,352
1569660975,323.701,-10.9389,-16.5199,179.231,1.25244,-144.976,352
1569660975,323.701,-10.9389,-16.5199,179.231,1.25244,-144.976,352
1569660975,323.701,-10.9389,-16.5199,179.231,1.25244,-144.976,348
1569660975,323.701,-10.9389,-16.5199,179.231,1.25244,-144.976,348
1569660975,323.701,-10.9389,-16.5199,179.231,1.25244,-144.976,348
1569660975,323.701,-10.9389,-16.5199,179.231,1.25244,-144.976,348
1569660975,323.701,-10.9389,-16.5199,179.231,1.25244,-144.976,348
1569660975,323.701,-10.9389,-16.5199,179.231,1.25244,-144.976,348
1569660975,323.701,-10.9389,-16.5199,179.231,1.25244,-144.976,348
1569660975,323.701,-10.9389,-16.5199,179.231,1.25244,-144.976,348
1569660975,323.701,-10.9389,-16.5199,179.231,1.25244,-144.976,348
1569660975,323.701,-10.9389,-16.5199,179.231,1.25244,-144.976,348
1569660975,323.701,-10.9389,-16.4083,179.231,1.25244,-144.976,348
1569660975,323.701,-10.9389,-16.4083,179.231,1.25244,-144.976,348
1569660975,323.701,-10.9389,-16.4083,179.231,1.25244,-144.976,344
1569660975,323.701,-10.9389,-16.4083,179.231,1.25244,-144.976,344
1569660975,323.701,-10.9389,-16.4083,179.231,1.25244,-144.976,344
1569660975,323.701,-10.9389,-16.4083,179.231,1.25244,-144.976,344
1569660975,323.701,-10.9389,-16.4083,179.231,1.25244,-144.976,344
1569660975,323.701,-10.9389,-16.4083,179.231,1.25244,-144.976,344
1569660975,323.701,-10.9389,-16.5199,179.231,1.25244,-144.976,344
1569660975,323.701,-10.9389,-16.5199,179.231,1.25244,-144.976,344
1569660975,323.701,-10.9389,-16.5199,179.231,1.25244,-144.976,344
1569660975,323.701,-10.9389,-16.5199,179.231,1.25244,-144.976,344
1569660975,323.701,-10.9389,-16.5199,179.231,1.25244,-144.976,348
1569660975,323.701,-10.9389,-16.5199,179.231,1.25244,-144.976,348
1569660975,323.701,-10.9389,-16.5199,179.231,1.25244,-144.976,348
1569660975,323.701,-10.9389,-16.5199,179.231,1.25244,-144.976,348
1569660975,323.701,-10.9389,-16.5199,179.231,1.25244,-144.976,348
1569660975,323.701,-10.9389,-16.5199,179.231,1.25244,-144.976,348
1569660975,323.701,-10.9389,-16.5199,179.231,1.25244,-144.976,348
1569660975,323.701,-10.9389,-16.5199,179.231,1.25244,-144.976,348
1569660975,323.701,-10.9389,-16.4083,179.231,1.25244,-144.976,348
1569660975,323.701,-10.9389,-16.4083,179.231,1.25244,-144.976,348
1569660976,323.701,-10.9389,-16.4083,179.231,1.25244,-144.976,348
1569660976,323.701,-10.9389,-16.4083,179.231,1.25244,-144.976,348
1569660976,323.701,-10.9389,-16.4083,179.231,1.25244,-144.976,352
1569660976,323.701,-10.9389,-16.4083,179.231,1.25244,-144.976,352
1569660976,323.701,-10.9389,-16.4083,179.231,1.27441,-144.976,352
1569660976,323.701,-10.9389,-16.4083,179.231,1.27441,-144.976,352
1569660976,323.701,-10.9389,-16.4083,179.209,1.27441,-144.976,352
1569660976,323.701,-10.9389,-16.4083,179.209,1.25244,-144.976,356
1569660976,323.701,-10.9389,-16.4083,179.209,1.25244,-144.976,356
1569660976,323.701,-10.9389,-16.4083,179.209,1.25244,-144.976,356
1569660976,323.701,-10.9389,-16.4083,179.209,1.25244,-144.976,356
1569660976,323.701,-10.9389,-16.4083,179.209,1.25244,-144.976,356
1569660976,323.701,-10.9389,-16.4083,179.209,1.25244,-144.976,356
1569660976,323.701,-10.9389,-16.4083,179.209,1.25244,-144.976,356
1569660976,323.701,-10.9389,-16.5199,179.231,1.25244,-144.976,356
1569660976,323.701,-10.9389,-16.5199,179.231,1.25244,-144.976,356
1569660976,323.701,-10.9389,-16.5199,179.231,1.25244,-144.954,356
1569660976,323.701,-10.9389,-16.5199,179.231,1.25244,-144.954,356
1569660976,323.701,-10.9389,-16.5199,179.231,1.25244,-144.954,356
1569660976,323.701,-10.8272,-16.5199,179.231,1.25244,-144.954,356
1569660976,323.701,-10.8272,-16.5199,179.231,1.25244,-144.954,356
1569660976,323.701,-10.8272,-16.5199,179.231,1.25244,-144.954,352
1569660976,323.701,-10.8272,-16.5199,179.231,1.25244,-144.954,352
1569660976,323.701,-10.8272,-16.5199,179.231,1.25244,-144.954,352
1569660976,323.701,-10.8272,-16.5199,179.231,1.25244,-144.954,352
1569660976,323.701,-10.8272,-16.5199,179.231,1.25244,-144.954,352
1569660976,323.701,-10.8272,-16.5199,179.231,1.25244,-144.954,352
1569660976,323.701,-10.8272,-16.5199,179.231,1.23047,-144.954,352
1569660976,323.701,-10.8272,-16.5199,179.231,1.23047,-144.954,348
1569660976,323.701,-10.8272,-16.5199,179.231,1.23047,-144.954,348
1569660976,323.701,-10.8272,-16.5199,179.231,1.23047,-144.954,348
1569660976,323.701,-10.8272,-16.5199,179.231,1.23047,-144.954,348
1569660976,323.701,-10.8272,-16.5199,179.231,1.23047,-144.954,348
1569660976,323.701,-10.8272,-16.5199,179.231,1.23047,-144.954,348
1569660976,323.701,-10.8272,-16.5199,179.231,1.23047,-144.954,348
1569660976,323.701,-10.8272,-16.5199,179.231,1.23047,-144.954,348
1569660976,323.701,-10.9389,-16.5199,179.231,1.23047,-144.954,348
1569660976,323.701,-10.9389,-16.5199,179.231,1.23047,-144.954,348
1569660976,323.701,-10.9389,-16.5199,179.231,1.23047,-144.954,348
1569660976,323.701,-10.9389,-16.5199,179.231,1.23047,-144.954,348
1569660976,323.701,-10.9389,-16.5199,179.231,1.23047,-144.954,348
1569660976,323.701,-10.9389,-16.5199,179.231,1.25244,-144.954,348
1569660976,323.701,-10.9389,-16.5199,179.231,1.25244,-144.954,348
1569660976,323.701,-10.9389,-16.5199,179.231,1.25244,-144.954,352
1569660976,323.701,-10.8272,-16.5199,179.231,1.25244,-144.954,352
1569660976,323.701,-10.8272,-16.5199,179.231,1.25244,-144.954,352
1569660976,323.701,-10.8272,-16.5199,179.231,1.25244,-144.954,352
1569660976,323.701,-10.8272,-16.5199,179.231,1.25244,-144.954,352
1569660976,323.701,-10.8272,-16.5199,179.231,1.25244,-144.954,352
1569660976,323.701,-10.8272,-16.5199,179.231,1.25244,-144.954,352
1569660976,323.701,-10.8272,-16.5199,179.231,1.25244,-144.954,352
1569660976,323.701,-10.8272,-16.5199,179.231,1.25244,-144.954,356
1569660976,323.701,-10.8272,-16.5199,179.231,1.25244,-144.954,356
1569660976,323.701,-10.8272,-16.5199,179.231,1.25244,-144.954,356
1569660976,323.701,-10.8272,-16.5199,179.231,1.25244,-144.954,356
1569660976,323.701,-10.8272,-16.5199,179.231,1.25244,-144.976,356
1569660976,323.701,-10.8272,-16.5199,179.231,1.25244,-144.954,356
1569660976,323.701,-10.8272,-16.5199,179.231,1.25244,-144.954,356
1569660976,323.701,-10.8272,-16.5199,179.231,1.25244,-144.954,356
1569660976,323.701,-10.8272,-16.5199,179.231,1.25244,-144.954,356
1569660976,323.701,-10.8272,-16.5199,179.231,1.25244,-144.954,356
1569660976,323.701,-10.8272,-16.5199,179.231,1.25244,-144.954,356
1569660976,323.701,-10.8272,-16.4083,179.231,1.25244,-144.954,356
1569660976,323.701,-10.8272,-16.4083,179.231,1.25244,-144.954,356
1569660976,323.701,-10.9389,-16.4083,179.231,1.25244,-144.954,356
1569660976,323.701,-10.9389,-16.4083,179.231,1.25244,-144.954,356
1569660976,323.701,-10.9389,-16.4083,179.231,1.25244,-144.954,356
1569660976,323.701,-10.9389,-16.4083,179.231,1.25244,-144.954,356
1569660976,323.701,-10.9389,-16.4083,179.231,1.25244,-144.954,356
1569660976,323.701,-10.9389,-16.4083,179.231,1.25244,-144.954,356
1569660976,323.701,-10.9389,-16.4083,179.231,1.25244,-144.954,352
1569660976,323.701,-10.9389,-16.4083,179.231,1.25244,-144.954,352
1569660976,323.701,-10.9389,-16.4083,179.231,1.25244,-144.954,352
1569660976,323.701,-10.9389,-16.4083,179.231,1.25244,-144.954,352
1569660976,323.701,-10.9389,-16.4083,179.231,1.25244,-144.954,352
1569660976,323.701,-10.9389,-16.4083,179.231,1.25244,-144.954,352
1569660976,323.701,-10.9389,-16.4083,179.231,1.25244,-144.954,352
1569660976,323.701,-10.9389,-16.4083,179.231,1.25244,-144.954,352
1569660976,323.701,-10.9389,-16.4083,179.231,1.25244,-144.954,352
1569660976,323.701,-10.9389,-16.4083,179.231,1.25244,-144.954,352
1569660976,323.701,-10.9389,-16.5199,179.231,1.25244,-144.954,352
1569660976,323.701,-10.9389,-16.5199,179.231,1.25244,-144.954,352
1569660976,323.701,-10.9389,-16.5199,179.231,1.25244,-144.954,352
1569660976,323.701,-10.9389,-16.5199,179.231,1.25244,-144.954,352
1569660976,323.701,-10.9389,-16.5199,179.231,1.25244,-144.954,352
1569660976,323.701,-10.9389,-16.5199,179.209,1.25244,-144.954,352
1569660976,323.701,-10.9389,-16.5199,179.209,1.25244,-144.954,352
1569660976,323.701,-10.9389,-16.5199,179.209,1.25244,-144.954,352
1569660976,323.701,-10.9389,-16.5199,179.209,1.25244,-144.954,352
1569660976,323.701,-10.9389,-16.5199,179.209,1.25244,-144.954,352
1569660976,323.701,-10.9389,-16.5199,179.209,1.25244,-144.954,352
1569660976,323.59,-10.9389,-16.5199,179.209,1.25244,-144.954,352
1569660976,323.59,-10.9389,-16.5199,179.209,1.25244,-144.954,352
1569660976,323.59,-10.9389,-16.5199,179.209,1.25244,-144.954,352
1569660976,323.59,-10.9389,-16.5199,179.209,1.25244,-144.954,356
1569660976,323.59,-10.9389,-16.5199,179.209,1.25244,-144.954,356
1569660976,323.59,-10.9389,-16.5199,179.209,1.25244,-144.976,356
1569660976,323.59,-10.9389,-16.5199,179.209,1.25244,-144.976,356
1569660976,323.59,-10.9389,-16.5199,179.231,1.25244,-144.976,356
1569660976,323.59,-10.9389,-16.5199,179.231,1.25244,-144.976,356
1569660977,323.59,-10.9389,-16.5199,179.231,1.25244,-144.976,356
1569660977,323.59,-10.9389,-16.5199,179.231,1.25244,-144.976,356
1569660977,323.59,-10.9389,-16.5199,179.231,1.25244,-144.976,356
1569660977,323.59,-10.9389,-16.5199,179.231,1.25244,-144.976,356
1569660977,323.59,-10.9389,-16.4083,179.231,1.25244,-144.976,356
1569660977,323.59,-10.9389,-16.4083,179.231,1.25244,-144.976,356
1569660977,323.59,-10.9389,-16.4083,179.231,1.25244,-144.976,356
1569660977,323.59,-10.8272,-16.4083,179.231,1.25244,-144.976,356
1569660977,323.59,-10.8272,-16.4083,179.231,1.25244,-144.976,356
1569660977,323.59,-10.8272,-16.4083,179.231,1.25244,-144.976,356
1569660977,323.59,-10.8272,-16.5199,179.231,1.25244,-144.976,356
1569660977,323.59,-10.8272,-16.5199,179.231,1.25244,-144.976,356
1569660977,323.59,-10.8272,-16.5199,179.231,1.25244,-144.976,360
1569660977,323.59,-10.8272,-16.5199,179.231,1.25244,-144.976,360
1569660977,323.59,-10.8272,-16.5199,179.231,1.25244,-144.976,360
1569660977,323.59,-10.8272,-16.5199,179.231,1.25244,-144.976,360
1569660977,323.59,-10.8272,-16.5199,179.231,1.23047,-144.976,360
1569660977,323.59,-10.8272,-16.5199,179.231,1.23047,-144.976,360
1569660977,323.59,-10.8272,-16.5199,179.231,1.23047,-144.976,364
1569660977,323.59,-10.8272,-16.5199,179.231,1.23047,-144.976,364
1569660977,323.59,-10.8272,-16.5199,179.231,1.23047,-144.976,364
1569660977,323.59,-10.8272,-16.5199,179.231,1.23047,-144.976,364
1569660977,323.59,-10.8272,-16.5199,179.231,1.23047,-144.976,364
1569660977,323.59,-10.8272,-16.5199,179.231,1.23047,-144.976,364
1569660977,323.59,-10.8272,-16.5199,179.231,1.23047,-144.976,364
1569660977,323.59,-10.8272,-16.5199,179.231,1.23047,-144.976,364
1569660977,323.59,-10.8272,-16.5199,179.231,1.23047,-144.954,364
1569660977,323.59,-10.8272,-16.5199,179.231,1.23047,-144.954,364
1569660977,323.59,-10.8272,-16.5199,179.231,1.23047,-144.954,364
1569660977,323.59,-10.8272,-16.5199,179.231,1.23047,-144.954,364
1569660977,323.59,-10.8272,-16.5199,179.231,1.23047,-144.954,364
1569660977,323.59,-10.8272,-16.5199,179.231,1.23047,-144.954,364
1569660977,323.59,-10.8272,-16.5199,179.231,1.23047,-144.954,364
1569660977,323.59,-10.8272,-16.5199,179.231,1.23047,-144.954,364
1569660977,323.59,-10.8272,-16.5199,179.231,1.23047,-144.954,364
1569660977,323.59,-10.8272,-16.5199,179.231,1.23047,-144.976,364
1569660977,323.59,-10.8272,-16.5199,179.231,1.23047,-144.976,364
1569660977,323.59,-10.8272,-16.5199,179.231,1.23047,-144.976,364
1569660977,323.59,-10.8272,-16.5199,179.231,1.23047,-144.976,364
1569660977,323.59,-10.8272,-16.5199,179.231,1.25244,-144.976,364
1569660977,323.59,-10.8272,-16.5199,179.231,1.25244,-144.976,364
1569660977,323.59,-10.8272,-16.5199,179.231,1.25244,-144.976,364
1569660977,323.59,-10.8272,-16.5199,179.231,1.25244,-144.976,364
1569660977,323.701,-10.8272,-16.5199,179.231,1.25244,-144.976,364
1569660977,323.701,-10.8272,-16.4083,179.231,1.25244,-144.976,364
1569660977,323.701,-10.8272,-16.4083,179.231,1.25244,-144.976,364
1569660977,323.701,-10.8272,-16.4083,179.231,1.25244,-144.976,364
1569660977,323.701,-10.8272,-16.4083,179.231,1.25244,-144.976,364
1569660977,323.701,-10.8272,-16.4083,179.231,1.25244,-144.976,364
1569660977,323.701,-10.8272,-16.4083,179.253,1.25244,-144.976,364
1569660977,323.701,-10.8272,-16.4083,179.253,1.25244,-144.976,364
1569660977,323.701,-10.8272,-16.4083,179.253,1.25244,-144.976,364
1569660977,323.701,-10.8272,-16.4083,179.253,1.25244,-144.976,364
1569660977,323.701,-10.8272,-16.4083,179.231,1.25244,-144.976,364
1569660977,323.701,-10.8272,-16.4083,179.231,1.25244,-144.976,360
1569660977,323.701,-10.8272,-16.4083,179.231,1.25244,-144.976,360
1569660977,323.701,-10.8272,-16.5199,179.231,1.25244,-144.976,360
1569660977,323.701,-10.8272,-16.5199,179.231,1.25244,-144.976,360
1569660977,323.701,-10.8272,-16.5199,179.231,1.25244,-144.976,360
1569660977,323.701,-10.8272,-16.5199,179.231,1.25244,-144.976,360
1569660977,323.701,-10.8272,-16.5199,179.231,1.25244,-144.976,356
1569660977,323.701,-10.8272,-16.5199,179.231,1.25244,-144.976,356
1569660977,323.701,-10.8272,-16.5199,179.231,1.25244,-144.976,356
1569660977,323.701,-10.8272,-16.5199,179.231,1.25244,-144.976,356
1569660977,323.701,-10.8272,-16.5199,179.231,1.25244,-144.976,356
1569660977,323.701,-10.8272,-16.5199,179.231,1.25244,-144.976,356
1569660977,323.701,-10.8272,-16.5199,179.231,1.25244,-144.976,356
1569660977,323.701,-10.8272,-16.5199,179.231,1.25244,-144.976,356
1569660977,323.701,-10.8272,-16.5199,179.231,1.25244,-144.976,356
1569660977,323.701,-10.8272,-16.5199,179.231,1.25244,-144.976,356
1569660977,323.701,-10.8272,-16.5199,179.231,1.25244,-144.976,356
1569660977,323.701,-10.8272,-16.5199,179.231,1.25244,-144.976,356
1569660977,323.701,-10.8272,-16.4083,179.231,1.25244,-144.976,356
1569660977,323.701,-10.8272,-16.4083,179.231,1.25244,-144.976,356
1569660977,323.701,-10.8272,-16.5199,179.231,1.25244,-144.976,356
1569660977,323.701,-10.8272,-16.4083,179.231,1.25244,-144.976,356
1569660977,323.701,-10.8272,-16.4083,179.231,1.25244,-144.976,356
1569660977,323.701,-10.8272,-16.4083,179.231,1.25244,-144.976,356
1569660977,323.701,-10.8272,-16.4083,179.231,1.25244,-144.976,356
1569660977,323.701,-10.8272,-16.4083,179.231,1.25244,-144.976,356
1569660977,323.701,-10.8272,-16.4083,179.231,1.25244,-144.976,356
1569660977,323.701,-10.8272,-16.4083,179.231,1.25244,-144.976,356
1569660977,323.701,-10.8272,-16.4083,179.231,1.25244,-144.976,356
1569660977,323.701,-10.8272,-16.4083,179.231,1.25244,-144.976,356
1569660977,323.701,-10.8272,-16.5199,179.231,1.25244,-144.954,356
1569660977,323.701,-10.8272,-16.5199,179.231,1.25244,-144.954,356
1569660977,323.701,-10.8272,-16.5199,179.231,1.25244,-144.954,356
1569660977,323.701,-10.8272,-16.5199,179.231,1.25244,-144.954,356
1569660977,323.701,-10.8272,-16.5199,179.231,1.25244,-144.954,356
1569660977,323.701,-10.8272,-16.5199,179.231,1.25244,-144.954,356
1569660977,323.701,-10.8272,-16.5199,179.231,1.25244,-144.954,356
1569660977,323.701,-10.8272,-16.5199,179.231,1.25244,-144.954,356
1569660977,323.701,-10.8272,-16.5199,179.231,1.25244,-144.954,356
1569660977,323.701,-10.8272,-16.5199,179.231,1.25244,-144.954,356
1569660977,323.701,-10.8272,-16.5199,179.231,1.25244,-144.954,356
1569660977,323.701,-10.8272,-16.5199,179.231,1.25244,-144.954,356
1569660977,323.701,-10.8272,-16.5199,179.231,1.25244,-144.954,356
1569660977,323.701,-10.9389,-16.5199,179.231,1.25244,-144.954,356
1569660977,323.701,-10.9389,-16.5199,179.231,1.25244,-144.954,356
1569660977,323.701,-10.9389,-16.5199,179.231,1.25244,-144.954,356
1569660978,323.701,-10.9389,-16.5199,179.209,1.25244,-144.954,356
1569660978,323.701,-10.9389,-16.5199,179.209,1.25244,-144.954,356
1569660978,323.701,-10.9389,-16.5199,179.209,1.25244,-144.954,356
1569660978,323.701,-10.9389,-16.5199,179.209,1.25244,-144.954,356
1569660978,323.701,-10.9389,-16.5199,179.209,1.25244,-144.954,356
1569660978,323.701,-10.9389,-16.5199,179.209,1.25244,-144.954,356
1569660978,323.701,-10.9389,-16.5199,179.209,1.25244,-144.954,356
1569660978,323.701,-10.9389,-16.5199,179.209,1.25244,-144.954,356
1569660978,323.701,-10.9389,-16.5199,179.209,1.25244,-144.976,356
1569660978,323.701,-10.9389,-16.5199,179.209,1.25244,-144.976,356
1569660978,323.701,-10.9389,-16.5199,179.209,1.25244,-144.976,356
1569660978,323.701,-10.9389,-16.5199,179.209,1.25244,-144.976,356
1569660978,323.701,-10.9389,-16.5199,179.209,1.25244,-144.976,356
1569660978,323.701,-10.9389,-16.5199,179.231,1.25244,-144.976,356
1569660978,323.701,-10.9389,-16.5199,179.231,1.25244,-144.976,356
1569660978,323.701,-10.9389,-16.5199,179.231,1.25244,-144.976,356
1569660978,323.701,-10.9389,-16.5199,179.231,1.25244,-144.976,352
1569660978,323.701,-10.9389,-16.5199,179.231,1.25244,-144.976,352
1569660978,323.701,-10.8272,-16.5199,179.231,1.25244,-144.976,352
1569660978,323.701,-10.8272,-16.5199,179.231,1.25244,-144.976,352
1569660978,323.701,-10.8272,-16.5199,179.231,1.25244,-144.976,352
1569660978,323.701,-10.9389,-16.5199,179.231,1.25244,-144.976,352
1569660978,323.701,-10.9389,-16.5199,179.231,1.25244,-144.976,352
1569660978,323.701,-10.9389,-16.5199,179.231,1.23047,-144.976,352
1569660978,323.701,-10.9389,-16.5199,179.231,1.23047,-144.976,352
1569660978,323.701,-10.9389,-16.5199,179.231,1.23047,-144.976,352
1569660978,323.701,-10.9389,-16.5199,179.231,1.23047,-144.976,352
1569660978,323.701,-10.9389,-16.5199,179.209,1.23047,-144.976,352
1569660978,323.701,-10.9389,-16.5199,179.209,1.23047,-144.954,352
1569660978,323.701,-10.9389,-16.5199,179.209,1.23047,-144.954,356
1569660978,323.701,-10.9389,-16.5199,179.209,1.23047,-144.954,356
1569660978,323.701,-10.9389,-16.5199,179.231,1.23047,-144.954,356
1569660978,323.701,-10.9389,-16.5199,179.231,1.23047,-144.954,356
1569660978,323.701,-10.9389,-16.5199,179.231,1.23047,-144.954,356
1569660978,323.701,-10.9389,-16.5199,179.231,1.23047,-144.954,356
1569660978,323.701,-10.9389,-16.5199,179.231,1.23047,-144.954,356
1569660978,323.701,-10.9389,-16.5199,179.231,1.23047,-144.954,356
1569660978,323.701,-10.9389,-16.5199,179.231,1.23047,-144.954,356
1569660978,323.701,-10.9389,-16.5199,179.231,1.23047,-144.954,356
1569660978,323.701,-10.9389,-16.5199,179.231,1.23047,-144.954,356
1569660978,323.701,-10.9389,-16.5199,179.231,1.23047,-144.954,356
1569660978,323.701,-10.9389,-16.5199,179.231,1.23047,-144.954,356
1569660978,323.701,-10.9389,-16.5199,179.231,1.23047,-144.954,356
1569660978,323.701,-10.9389,-16.5199,179.231,1.23047,-144.954,356
1569660978,323.701,-10.9389,-16.5199,179.231,1.2085,-144.954,356
1569660978,323.701,-10.9389,-16.5199,179.231,1.2085,-144.954,352
1569660978,323.701,-10.9389,-16.5199,179.231,1.2085,-144.954,352
1569660978,323.701,-10.9389,-16.5199,179.231,1.2085,-144.954,352
1569660978,323.701,-10.9389,-16.5199,179.231,1.2085,-144.954,352
1569660978,323.701,-10.9389,-16.5199,179.231,1.2085,-144.954,352
1569660978,323.701,-10.9389,-16.5199,179.231,1.2085,-144.954,352
1569660978,323.701,-10.9389,-16.5199,179.231,1.2085,-144.954,352
1569660978,323.701,-10.9389,-16.5199,179.231,1.2085,-144.954,352
1569660978,323.701,-10.9389,-16.5199,179.231,1.2085,-144.954,352
1569660978,323.701,-10.9389,-16.5199,179.231,1.2085,-144.954,352
1569660978,323.701,-10.9389,-16.6315,179.231,1.2085,-144.954,352
1569660978,323.701,-10.9389,-16.6315,179.231,1.2085,-144.954,352
1569660978,323.701,-10.9389,-16.6315,179.231,1.2085,-144.954,352
1569660978,323.701,-10.9389,-16.6315,179.231,1.2085,-144.954,352
1569660978,323.701,-10.9389,-16.6315,179.231,1.2085,-144.954,352
1569660978,323.701,-10.9389,-16.6315,179.231,1.2085,-144.954,352
1569660978,323.701,-10.9389,-16.6315,179.231,1.2085,-144.954,352
1569660978,323.701,-10.9389,-16.6315,179.231,1.2085,-144.954,352
1569660978,323.701,-10.9389,-16.6315,179.231,1.2085,-144.954,352
1569660978,323.701,-10.9389,-16.5199,179.231,1.2085,-144.954,352
1569660978,323.701,-10.9389,-16.5199,179.231,1.2085,-144.954,352
1569660978,323.701,-10.9389,-16.5199,179.231,1.2085,-144.954,352
1569660978,323.701,-10.9389,-16.5199,179.231,1.2085,-144.954,352
1569660978,323.701,-10.9389,-16.5199,179.209,1.2085,-144.954,352
1569660978,323.701,-10.9389,-16.5199,179.209,1.2085,-144.954,352
1569660978,323.701,-10.9389,-16.5199,179.209,1.23047,-144.954,352
1569660978,323.701,-10.9389,-16.5199,179.209,1.23047,-144.954,352
1569660978,323.701,-10.9389,-16.5199,179.209,1.23047,-144.954,352
1569660978,323.701,-10.9389,-16.5199,179.209,1.23047,-144.954,352
1569660978,323.701,-10.9389,-16.5199,179.209,1.23047,-144.954,352
1569660978,323.701,-10.9389,-16.5199,179.209,1.23047,-144.954,352
1569660978,323.701,-10.9389,-16.5199,179.209,1.23047,-144.954,352
1569660978,323.701,-10.9389,-16.5199,179.209,1.23047,-144.954,352
1569660978,323.701,-10.9389,-16.5199,179.209,1.23047,-144.954,352
1569660978,323.701,-10.9389,-16.5199,179.209,1.23047,-144.954,352
1569660978,323.701,-10.9389,-16.5199,179.209,1.23047,-144.954,356
1569660978,323.701,-10.9389,-16.5199,179.209,1.23047,-144.954,356
1569660978,323.701,-10.9389,-16.5199,179.209,1.23047,-144.954,356
1569660978,323.701,-10.9389,-16.5199,179.209,1.23047,-144.954,356
1569660978,323.701,-10.9389,-16.5199,179.209,1.23047,-144.954,352
1569660978,323.701,-10.9389,-16.5199,179.209,1.23047,-144.954,352
1569660978,323.701,-10.9389,-16.5199,179.209,1.23047,-144.954,352
1569660978,323.701,-10.9389,-16.5199,179.231,1.23047,-144.954,352
1569660978,323.701,-10.9389,-16.5199,179.231,1.23047,-144.954,352
1569660978,323.701,-10.9389,-16.5199,179.231,1.23047,-144.954,352
1569660978,323.701,-10.9389,-16.5199,179.231,1.23047,-144.954,352
1569660978,323.701,-10.9389,-16.5199,179.231,1.23047,-144.954,352
1569660978,323.701,-10.9389,-16.5199,179.231,1.23047,-144.954,352
1569660978,323.701,-10.9389,-16.5199,179.231,1.23047,-144.954,352
1569660978,323.701,-10.9389,-16.5199,179.231,1.23047,-144.954,352
1569660978,323.701,-10.8272,-16.5199,179.231,1.23047,-144.954,352
1569660978,323.701,-10.8272,-16.5199,179.231,1.23047,-144.954,352
1569660978,323.701,-10.8272,-16.5199,179.231,1.23047,-144.954,352
1569660978,323.701,-10.8272,-16.5199,179.231,1.23047,-144.954,352
1569660978,323.701,-10.8272,-16.5199,179.231,1.23047,-144.954,352
1569660979,323.701,-10.8272,-16.5199,179.231,1.23047,-144.954,352
1569660979,323.701,-10.8272,-16.5199,179.231,1.23047,-144.954,352
1569660979,323.701,-10.8272,-16.5199,179.231,1.23047,-144.954,352
1569660979,323.701,-10.8272,-16.5199,179.231,1.23047,-144.954,352
1569660979,323.701,-10.8272,-16.5199,179.231,1.23047,-144.954,352
1569660979,323.59,-10.8272,-16.5199,179.231,1.23047,-144.954,356
1569660979,323.59,-10.8272,-16.5199,179.231,1.23047,-144.954,356
1569660979,323.59,-10.8272,-16.5199,179.231,1.23047,-144.954,356
1569660979,323.59,-10.8272,-16.5199,179.231,1.23047,-144.954,356
1569660979,323.59,-10.8272,-16.5199,179.231,1.23047,-144.954,356
1569660979,323.59,-10.8272,-16.5199,179.231,1.23047,-144.954,356
1569660979,323.59,-10.8272,-16.5199,179.231,1.23047,-144.954,356
1569660979,323.59,-10.8272,-16.5199,179.231,1.23047,-144.954,356
1569660979,323.59,-10.8272,-16.5199,179.231,1.23047,-144.954,356
1569660979,323.59,-10.8272,-16.5199,179.231,1.23047,-144.954,356
1569660979,323.59,-10.9389,-16.5199,179.231,1.23047,-144.954,356
1569660979,323.59,-10.9389,-16.5199,179.231,1.23047,-144.954,356
1569660979,323.59,-10.9389,-16.5199,179.209,1.23047,-144.954,356
1569660979,323.59,-10.9389,-16.5199,179.209,1.23047,-144.954,356
1569660979,323.59,-10.9389,-16.5199,179.209,1.23047,-144.954,356
1569660979,323.59,-10.9389,-16.5199,179.209,1.23047,-144.954,356
1569660979,323.59,-10.8272,-16.5199,179.231,1.23047,-144.954,356
1569660979,323.59,-10.8272,-16.5199,179.231,1.23047,-144.954,356
1569660979,323.59,-10.8272,-16.5199,179.231,1.23047,-144.954,356
1569660979,323.59,-10.8272,-16.5199,179.231,1.23047,-144.954,356
1569660979,323.59,-10.8272,-16.5199,179.231,1.23047,-144.954,356
1569660979,323.59,-10.8272,-16.5199,179.231,1.23047,-144.954,356
1569660979,323.59,-10.8272,-16.5199,179.231,1.25244,-144.954,356
1569660979,323.59,-10.8272,-16.5199,179.231,1.25244,-144.954,356
1569660979,323.59,-10.8272,-16.5199,179.231,1.25244,-144.954,356
1569660979,323.59,-10.8272,-16.5199,179.231,1.23047,-144.954,356
1569660979,323.59,-10.8272,-16.5199,179.231,1.23047,-144.954,356
1569660979,323.59,-10.8272,-16.5199,179.231,1.23047,-144.954,356
1569660979,323.59,-10.8272,-16.5199,179.231,1.23047,-144.954,356
1569660979,323.59,-10.8272,-16.5199,179.231,1.23047,-144.954,356
1569660979,323.59,-10.8272,-16.5199,179.231,1.23047,-144.954,356
1569660979,323.59,-10.8272,-16.5199,179.231,1.23047,-144.954,356
1569660979,323.59,-10.8272,-16.5199,179.231,1.23047,-144.954,356
1569660979,323.59,-10.8272,-16.5199,179.231,1.23047,-144.954,356
1569660979,323.59,-10.8272,-16.5199,179.231,1.23047,-144.954,356
1569660979,323.59,-10.8272,-16.5199,179.231,1.25244,-144.954,356
1569660979,323.59,-10.8272,-16.5199,179.231,1.25244,-144.954,356
1569660979,323.59,-10.8272,-16.5199,179.231,1.25244,-144.954,356
1569660979,323.59,-10.8272,-16.5199,179.231,1.25244,-144.954,360
1569660979,323.59,-10.8272,-16.5199,179.231,1.25244,-144.954,360
1569660979,323.59,-10.8272,-16.5199,179.231,1.25244,-144.954,360
1569660979,323.59,-10.8272,-16.5199,179.231,1.25244,-144.954,360
1569660979,323.59,-10.9389,-16.5199,179.231,1.25244,-144.954,360
1569660979,323.59,-10.9389,-16.5199,179.231,1.25244,-144.954,360
1569660979,323.59,-10.9389,-16.5199,179.209,1.25244,-144.954,360
1569660979,323.59,-10.9389,-16.5199,179.209,1.25244,-144.954,360
1569660979,323.59,-10.9389,-16.5199,179.209,1.25244,-144.954,364
1569660979,323.59,-10.9389,-16.4083,179.209,1.25244,-144.954,364
1569660979,323.59,-10.9389,-16.4083,179.209,1.25244,-144.954,364
1569660979,323.59,-10.9389,-16.4083,179.209,1.25244,-144.954,364
1569660979,323.59,-10.9389,-16.4083,179.209,1.25244,-144.954,364
1569660979,323.59,-10.9389,-16.4083,179.209,1.25244,-144.954,364
1569660979,323.59,-10.9389,-16.4083,179.209,1.25244,-144.954,364
1569660979,323.59,-10.9389,-16.4083,179.209,1.25244,-144.954,364
1569660979,323.59,-10.9389,-16.4083,179.209,1.25244,-144.954,364
1569660979,323.59,-10.9389,-16.4083,179.209,1.25244,-144.954,364
1569660979,323.59,-10.9389,-16.4083,179.209,1.25244,-144.954,364
1569660979,323.59,-10.9389,-16.4083,179.209,1.25244,-144.954,364
1569660979,323.59,-10.9389,-16.4083,179.209,1.25244,-144.954,364
1569660979,323.701,-10.9389,-16.4083,179.209,1.25244,-144.954,364
1569660979,323.701,-10.9389,-16.4083,179.209,1.25244,-144.954,360
1569660979,323.701,-10.9389,-16.4083,179.209,1.25244,-144.954,360
1569660979,323.701,-10.9389,-16.4083,179.209,1.25244,-144.954,360
1569660979,323.701,-10.9389,-16.4083,179.209,1.25244,-144.954,360
1569660979,323.701,-10.9389,-16.4083,179.209,1.25244,-144.954,360
1569660979,323.701,-10.9389,-16.4083,179.209,1.25244,-144.954,360
1569660979,323.701,-10.9389,-16.4083,179.209,1.25244,-144.954,360
1569660979,323.701,-10.9389,-16.4083,179.209,1.25244,-144.954,360
1569660979,323.701,-10.9389,-16.4083,179.209,1.25244,-144.954,356
1569660979,323.59,-10.9389,-16.4083,179.209,1.25244,-144.954,356
1569660979,323.701,-10.9389,-16.4083,179.209,1.25244,-144.954,356
1569660979,323.701,-10.9389,-16.4083,179.209,1.25244,-144.954,356
1569660979,323.701,-10.9389,-16.4083,179.209,1.25244,-144.954,356
1569660979,323.701,-10.9389,-16.4083,179.209,1.25244,-144.954,356
1569660979,323.701,-10.9389,-16.4083,179.209,1.25244,-144.954,356
1569660979,323.701,-10.9389,-16.4083,179.209,1.25244,-144.954,356
1569660979,323.701,-10.9389,-16.4083,179.209,1.25244,-144.954,356
1569660979,323.701,-10.9389,-16.4083,179.209,1.25244,-144.954,356
1569660979,323.701,-10.9389,-16.4083,179.231,1.25244,-144.954,356
1569660979,323.701,-10.9389,-16.4083,179.231,1.25244,-144.954,356
1569660979,323.701,-10.9389,-16.5199,179.231,1.25244,-144.954,356
1569660979,323.701,-10.9389,-16.5199,179.231,1.25244,-144.954,356
1569660979,323.701,-10.9389,-16.5199,179.231,1.25244,-144.954,356
1569660979,323.701,-10.9389,-16.5199,179.209,1.25244,-144.954,356
1569660979,323.701,-10.9389,-16.5199,179.209,1.25244,-144.954,356
1569660979,323.701,-10.9389,-16.5199,179.209,1.25244,-144.954,356
1569660979,323.701,-10.9389,-16.5199,179.209,1.25244,-144.954,356
1569660979,323.701,-10.9389,-16.5199,179.209,1.25244,-144.954,356
1569660979,323.701,-10.9389,-16.5199,179.209,1.25244,-144.954,356
1569660979,323.701,-10.9389,-16.5199,179.209,1.25244,-144.954,356
1569660979,323.701,-10.9389,-16.5199,179.231,1.25244,-144.954,356
1569660979,323.701,-10.9389,-16.5199,179.231,1.25244,-144.954,356
1569660979,323.701,-10.8272,-16.5199,179.231,1.25244,-144.954,356
1569660979,323.701,-10.8272,-16.5199,179.231,1.25244,-144.954,356
1569660979,323.701,-10.8272,-16.5199,179.231,1.25244,-144.954,356
1569660980,323.701,-10.8272,-16.5199,179.231,1.25244,-144.954,356
1569660980,323.701,-10.8272,-16.5199,179.231,1.25244,-144.954,356
1569660980,323.701,-10.8272,-16.5199,179.231,1.25244,-144.954,352
1569660980,323.701,-10.8272,-16.5199,179.231,1.23047,-144.954,352
1569660980,323.701,-10.8272,-16.5199,179.231,1.23047,-144.954,352
1569660980,323.701,-10.8272,-16.5199,179.231,1.23047,-144.954,356
1569660980,323.701,-10.8272,-16.5199,179.231,1.23047,-144.954,356
1569660980,323.701,-10.8272,-16.5199,179.231,1.23047,-144.954,356
1569660980,323.701,-10.8272,-16.5199,179.231,1.23047,-144.954,356
1569660980,323.701,-10.8272,-16.5199,179.231,1.23047,-144.954,356
1569660980,323.701,-10.8272,-16.5199,179.231,1.25244,-144.954,356
1569660980,323.701,-10.8272,-16.5199,179.231,1.25244,-144.954,356
1569660980,323.701,-10.8272,-16.5199,179.231,1.25244,-144.954,356
1569660980,323.701,-10.8272,-16.5199,179.231,1.25244,-144.954,356
1569660980,323.701,-10.8272,-16.5199,179.231,1.25244,-144.954,356
1569660980,323.701,-10.8272,-16.5199,179.231,1.25244,-144.954,356
1569660980,323.701,-10.8272,-16.5199,179.231,1.25244,-144.954,356
1569660980,323.701,-10.8272,-16.5199,179.231,1.25244,-144.954,356
1569660980,323.701,-10.8272,-16.5199,179.231,1.25244,-144.954,356
1569660980,323.701,-10.8272,-16.5199,179.231,1.25244,-144.954,356
1569660980,323.701,-10.8272,-16.5199,179.231,1.25244,-144.954,356
1569660980,323.701,-10.8272,-16.5199,179.231,1.25244,-144.954,356
1569660980,323.701,-10.8272,-16.5199,179.231,1.25244,-144.954,356
1569660980,323.701,-10.8272,-16.5199,179.253,1.25244,-144.976,356
1569660988,362.099,-52.1271,-15.9618,179.319,1.64795,-144.668,432
1569660988,362.099,-52.1271,-15.9618,179.319,1.64795,-144.668,432
1569660988,362.099,-52.1271,-15.9618,179.319,1.64795,-144.668,436
1569660988,362.099,-52.1271,-15.9618,179.319,1.64795,-144.668,436
1569660988,362.099,-52.1271,-15.9618,179.319,1.64795,-144.668,440
1569660988,362.099,-52.1271,-15.9618,179.319,1.64795,-144.668,440
1569660988,362.099,-52.1271,-15.9618,179.319,1.64795,-144.668,440
1569660988,362.099,-52.1271,-15.9618,179.319,1.64795,-144.668,440
1569660988,362.099,-52.1271,-15.9618,179.319,1.64795,-144.668,444
1569660988,362.099,-52.1271,-15.9618,179.319,1.64795,-144.646,444
1569660988,362.099,-52.1271,-15.9618,179.319,1.64795,-144.646,444
1569660988,362.099,-52.1271,-15.9618,179.319,1.64795,-144.646,444
1569660988,362.099,-52.1271,-15.9618,179.297,1.64795,-144.646,444
1569660988,362.099,-52.1271,-15.9618,179.297,1.64795,-144.646,444
1569660988,361.987,-52.1271,-15.9618,179.297,1.64795,-144.646,448
1569660988,361.987,-52.1271,-15.9618,179.297,1.62598,-144.646,448
1569660988,361.987,-52.1271,-15.9618,179.297,1.62598,-144.646,448
1569660988,361.987,-52.1271,-15.9618,179.297,1.62598,-144.646,448
1569660988,361.987,-52.1271,-15.9618,179.297,1.62598,-144.646,448
1569660988,361.987,-52.1271,-15.9618,179.297,1.62598,-144.646,448
1569660988,361.987,-52.1271,-15.9618,179.319,1.62598,-144.646,448
1569660988,361.987,-52.1271,-15.9618,179.319,1.62598,-144.646,448
1569660988,361.987,-52.1271,-15.9618,179.319,1.62598,-144.646,444
1569660988,361.987,-52.1271,-15.9618,179.319,1.62598,-144.646,444
1569660988,361.987,-52.1271,-15.9618,179.319,1.62598,-144.624,444
1569660988,362.099,-52.1271,-15.9618,179.319,1.62598,-144.624,444
1569660988,362.099,-52.1271,-15.9618,179.319,1.64795,-144.624,444
1569660988,362.099,-52.1271,-15.9618,179.319,1.64795,-144.624,444
1569660988,362.099,-52.1271,-15.9618,179.319,1.64795,-144.624,444
1569660988,362.099,-52.1271,-15.9618,179.319,1.64795,-144.624,440
1569660988,362.099,-52.1271,-15.8502,179.319,1.64795,-144.624,440
1569660988,362.099,-52.1271,-15.8502,179.319,1.64795,-144.624,440
1569660988,362.099,-52.1271,-15.8502,179.297,1.64795,-144.624,440
1569660988,362.099,-52.1271,-15.8502,179.297,1.64795,-144.624,440
1569660988,362.099,-52.1271,-15.8502,179.297,1.64795,-144.624,436
1569660988,362.099,-52.1271,-15.8502,179.297,1.64795,-144.624,436
1569660988,362.099,-52.1271,-15.8502,179.297,1.64795,-144.624,436
1569660988,362.099,-52.1271,-15.8502,179.297,1.64795,-144.624,436
1569660988,362.099,-52.1271,-15.8502,179.319,1.64795,-144.624,436
1569660988,362.099,-52.1271,-15.8502,179.319,1.64795,-144.624,436
1569660988,362.099,-52.1271,-15.8502,179.319,1.64795,-144.624,436
1569660988,362.099,-52.1271,-15.8502,179.319,1.64795,-144.624,436
1569660988,362.099,-52.1271,-15.8502,179.319,1.66992,-144.646,436
1569660988,362.099,-52.1271,-15.8502,179.319,1.66992,-144.646,436
1569660988,362.099,-52.1271,-15.8502,179.341,1.66992,-144.646,436
1569660988,362.099,-52.0154,-15.8502,179.341,1.66992,-144.646,436
1569660988,362.099,-52.0154,-15.8502,179.341,1.66992,-144.646,436
1569660988,362.099,-52.0154,-15.8502,179.341,1.66992,-144.646,436
1569660988,362.099,-52.0154,-15.8502,179.341,1.66992,-144.646,436
1569660988,362.099,-52.0154,-15.8502,179.341,1.66992,-144.646,436
1569660988,362.099,-52.0154,-15.8502,179.341,1.66992,-144.646,436
1569660988,362.099,-52.0154,-15.8502,179.341,1.66992,-144.646,436
1569660988,362.099,-52.0154,-15.8502,179.341,1.66992,-144.646,440
1569660988,362.099,-52.0154,-15.8502,179.341,1.64795,-144.646,440
1569660988,362.099,-52.0154,-15.8502,179.341,1.64795,-144.646,440
1569660988,362.099,-52.0154,-15.8502,179.319,1.64795,-144.646,440
1569660988,362.099,-52.0154,-15.8502,179.319,1.64795,-144.646,440
1569660988,362.099,-52.0154,-15.8502,179.319,1.64795,-144.646,440
1569660988,362.099,-52.1271,-15.8502,179.319,1.64795,-144.646,440
1569660988,362.099,-52.1271,-15.8502,179.319,1.64795,-144.646,440
1569660988,362.099,-52.1271,-15.8502,179.319,1.64795,-144.646,440
1569660988,362.099,-52.1271,-15.8502,179.319,1.64795,-144.646,440
1569660988,362.099,-52.1271,-15.8502,179.319,1.66992,-144.646,440
1569660988,362.099,-52.1271,-15.8502,179.319,1.66992,-144.646,440
1569660988,362.099,-52.1271,-15.8502,179.319,1.66992,-144.646,440
1569660988,362.099,-52.1271,-15.8502,179.319,1.66992,-144.646,440
1569660988,362.099,-52.1271,-15.8502,179.319,1.66992,-144.646,440
1569660988,362.099,-52.1271,-15.8502,179.319,1.66992,-144.646,440
1569660988,362.099,-52.1271,-15.8502,179.319,1.66992,-144.646,436
1569660988,362.099,-52.1271,-15.8502,179.319,1.66992,-144.646,436
1569660988,362.099,-52.1271,-15.8502,179.319,1.66992,-144.646,436
1569660988,362.099,-52.1271,-15.8502,179.319,1.66992,-144.646,436
1569660988,362.099,-52.1271,-15.8502,179.319,1.66992,-144.646,436
1569660988,362.099,-52.1271,-15.8502,179.319,1.66992,-144.646,436
1569660988,362.099,-52.1271,-15.8502,179.319,1.66992,-144.646,436
1569660988,362.099,-52.1271,-15.8502,179.319,1.66992,-144.646,436
1569660988,362.099,-52.1271,-15.8502,179.319,1.66992,-144.646,436
1569660988,362.099,-52.1271,-15.8502,179.319,1.66992,-144.646,436
1569660988,362.099,-52.1271,-15.8502,179.319,1.66992,-144.646,436
1569660988,362.099,-52.1271,-15.8502,179.319,1.66992,-144.646,436
1569660988,362.099,-52.1271,-15.8502,179.319,1.66992,-144.646,432
1569660988,362.099,-52.1271,-15.8502,179.319,1.66992,-144.646,432
1569660988,362.21,-52.1271,-15.8502,179.319,1.66992,-144.646,432
1569660988,362.21,-52.1271,-15.8502,179.319,1.66992,-144.646,432
1569660988,362.21,-52.1271,-15.7386,179.319,1.66992,-144.646,432
1569660988,362.21,-52.1271,-15.7386,179.319,1.66992,-144.646,436
1569660988,362.21,-52.1271,-15.7386,179.319,1.66992,-144.646,436
1569660989,362.21,-52.1271,-15.8502,179.319,1.66992,-144.646,436
1569660989,362.21,-52.1271,-15.8502,179.319,1.66992,-144.646,436
1569660989,362.21,-52.1271,-15.8502,179.319,1.66992,-144.646,436
1569660989,362.21,-52.1271,-15.8502,179.319,1.66992,-144.646,436
1569660989,362.21,-52.1271,-15.8502,179.319,1.66992,-144.646,436
1569660989,362.099,-52.1271,-15.8502,179.319,1.66992,-144.646,440
1569660989,362.099,-52.1271,-15.8502,179.319,1.66992,-144.646,440
1569660989,362.099,-52.1271,-15.8502,179.319,1.66992,-144.646,440
1569660989,362.099,-52.1271,-15.8502,179.319,1.66992,-144.624,440
1569660989,362.099,-52.0154,-15.8502,179.319,1.66992,-144.624,440
1569660989,362.099,-52.0154,-15.8502,179.341,1.66992,-144.624,444
1569660989,362.099,-52.0154,-15.8502,179.341,1.66992,-144.624,444
1569660989,362.099,-52.0154,-15.8502,179.341,1.66992,-144.624,444
1569660989,362.099,-52.0154,-15.8502,179.341,1.69189,-144.624,444
1569660989,362.099,-52.0154,-15.8502,179.341,1.69189,-144.624,444
1569660989,362.099,-52.0154,-15.7386,179.341,1.69189,-144.624,444
1569660989,362.099,-52.0154,-15.7386,179.341,1.69189,-144.624,448
1569660989,362.099,-52.0154,-15.8502,179.363,1.69189,-144.624,448
1569660989,362.099,-52.0154,-15.8502,179.363,1.69189,-144.624,448
1569660989,362.099,-52.0154,-15.8502,179.363,1.69189,-144.624,448
1569660989,362.099,-52.0154,-15.8502,179.363,1.66992,-144.646,448
1569660989,362.099,-52.0154,-15.8502,179.363,1.66992,-144.646,448
1569660989,362.099,-52.0154,-15.8502,179.363,1.66992,-144.646,452
1569660989,362.099,-52.0154,-15.8502,179.363,1.66992,-144.646,452
1569660989,362.099,-52.0154,-15.8502,179.363,1.66992,-144.646,452
1569660989,362.099,-52.0154,-15.8502,179.363,1.66992,-144.646,452
1569660989,362.099,-52.0154,-15.8502,179.363,1.64795,-144.646,452
1569660989,362.099,-52.0154,-15.8502,179.363,1.64795,-144.646,452
1569660989,362.099,-52.0154,-15.8502,179.363,1.64795,-144.646,452
1569660989,362.099,-52.0154,-15.8502,179.363,1.64795,-144.646,452
1569660989,362.099,-52.0154,-15.8502,179.341,1.64795,-144.646,452
1569660989,362.099,-52.0154,-15.8502,179.341,1.64795,-144.646,452
1569660989,362.099,-52.0154,-15.8502,179.341,1.64795,-144.646,448
1569660989,362.099,-52.0154,-15.8502,179.341,1.64795,-144.646,448
1569660989,362.099,-52.0154,-15.8502,179.341,1.64795,-144.646,448
1569660989,362.099,-52.0154,-15.8502,179.341,1.66992,-144.646,448
1569660989,362.099,-52.0154,-15.8502,179.341,1.66992,-144.646,448
1569660989,362.099,-52.0154,-15.8502,179.341,1.66992,-144.646,444
1569660989,362.099,-52.0154,-15.8502,179.341,1.66992,-144.646,444
1569660989,362.099,-52.0154,-15.8502,179.319,1.66992,-144.646,444
1569660989,362.099,-52.0154,-15.8502,179.319,1.66992,-144.646,444
1569660989,362.099,-52.0154,-15.8502,179.319,1.66992,-144.646,440
1569660989,362.099,-52.0154,-15.8502,179.319,1.66992,-144.646,440
1569660989,362.099,-52.0154,-15.8502,179.319,1.66992,-144.646,440
1569660989,362.099,-52.0154,-15.8502,179.319,1.66992,-144.646,440
1569660989,362.099,-52.0154,-15.8502,179.319,1.66992,-144.646,440
1569660989,362.099,-52.0154,-15.8502,179.319,1.66992,-144.646,440
1569660989,362.099,-52.0154,-15.8502,179.319,1.66992,-144.646,436
1569660989,362.099,-52.0154,-15.8502,179.319,1.66992,-144.646,436
1569660989,362.099,-52.0154,-15.8502,179.341,1.66992,-144.646,436
1569660989,362.099,-52.0154,-15.8502,179.341,1.66992,-144.646,436
1569660989,362.099,-52.0154,-15.8502,179.341,1.66992,-144.646,436
1569660989,362.099,-52.0154,-15.8502,179.341,1.66992,-144.646,436
1569660989,362.099,-52.0154,-15.8502,179.341,1.66992,-144.646,436
1569660989,362.099,-52.0154,-15.8502,179.341,1.64795,-144.668,436
1569660989,362.099,-52.0154,-15.8502,179.341,1.64795,-144.668,436
1569660989,362.099,-52.0154,-15.8502,179.341,1.64795,-144.668,436
1569660989,362.099,-52.0154,-15.8502,179.341,1.64795,-144.668,440
1569660989,362.099,-52.0154,-15.8502,179.341,1.64795,-144.668,440
1569660989,362.099,-52.0154,-15.8502,179.341,1.64795,-144.668,440
1569660989,362.099,-52.0154,-15.8502,179.341,1.64795,-144.668,440
1569660989,362.099,-52.0154,-15.8502,179.341,1.64795,-144.668,440
1569660989,362.099,-52.0154,-15.8502,179.341,1.64795,-144.668,440
1569660989,362.099,-52.0154,-15.8502,179.341,1.64795,-144.668,440
1569660989,362.099,-52.0154,-15.8502,179.341,1.64795,-144.668,440
1569660989,362.099,-52.0154,-15.8502,179.341,1.64795,-144.668,440
1569660989,362.099,-51.9038,-15.8502,179.363,1.64795,-144.668,440
1569660989,362.099,-51.9038,-15.8502,179.363,1.64795,-144.668,440
1569660989,362.099,-51.9038,-15.8502,179.363,1.64795,-144.668,440
1569660989,362.099,-51.9038,-15.8502,179.363,1.64795,-144.668,440
1569660989,362.099,-51.9038,-15.8502,179.363,1.64795,-144.668,440
1569660989,362.099,-51.9038,-15.8502,179.363,1.64795,-144.668,436
1569660989,362.099,-51.9038,-15.8502,179.363,1.64795,-144.668,436
1569660989,362.099,-51.9038,-15.8502,179.363,1.64795,-144.668,436
1569660989,362.099,-51.9038,-15.8502,179.363,1.64795,-144.668,436
1569660989,362.099,-51.9038,-15.8502,179.363,1.64795,-144.668,432
1569660989,362.099,-51.9038,-15.8502,179.363,1.66992,-144.668,432
1569660989,362.099,-51.9038,-15.8502,179.363,1.66992,-144.668,432
1569660989,362.099,-52.0154,-15.8502,179.363,1.66992,-144.668,432
1569660989,362.099,-52.0154,-15.8502,179.363,1.66992,-144.668,428
1569660989,362.099,-52.0154,-15.7386,179.363,1.66992,-144.668,428
1569660989,362.099,-52.0154,-15.7386,179.363,1.66992,-144.646,428
1569660989,362.099,-52.0154,-15.7386,179.363,1.69189,-144.646,428
1569660989,362.099,-52.0154,-15.7386,179.363,1.69189,-144.646,424
1569660989,362.099,-52.0154,-15.7386,179.363,1.69189,-144.646,424
1569660989,362.099,-52.0154,-15.7386,179.363,1.69189,-144.646,424
1569660989,362.099,-52.0154,-15.7386,179.363,1.69189,-144.646,424
1569660989,362.099,-52.0154,-15.7386,179.363,1.69189,-144.646,424
1569660989,362.099,-52.0154,-15.7386,179.363,1.69189,-144.646,424
1569660989,362.099,-51.9038,-15.7386,179.363,1.69189,-144.646,424
1569660989,362.099,-51.9038,-15.7386,179.363,1.69189,-144.646,424
1569660989,362.099,-51.9038,-15.7386,179.363,1.69189,-144.646,424
1569660989,362.099,-51.9038,-15.7386,179.363,1.69189,-144.646,424
1569660989,362.099,-51.9038,-15.7386,179.363,1.69189,-144.646,424
1569660989,362.099,-51.9038,-15.7386,179.363,1.69189,-144.646,424
1569660989,362.099,-51.9038,-15.7386,179.363,1.69189,-144.646,424
1569660989,362.099,-51.9038,-15.7386,179.363,1.69189,-144.646,424
1569660989,362.099,-51.9038,-15.7386,179.363,1.69189,-144.646,424
1569660989,362.099,-51.9038,-15.7386,179.363,1.69189,-144.646,424
1569660989,362.099,-51.9038,-15.7386,179.363,1.69189,-144.646,424
1569660990,362.099,-51.9038,-15.7386,179.363,1.69189,-144.646,424
1569660990,362.099,-51.9038,-15.7386,179.363,1.69189,-144.646,424
1569660990,362.099,-51.9038,-15.7386,179.363,1.69189,-144.646,428
1569660990,362.099,-51.9038,-15.7386,179.363,1.69189,-144.646,428
1569660990,362.099,-51.9038,-15.7386,179.363,1.69189,-144.668,428
1569660990,362.099,-51.9038,-15.7386,179.363,1.69189,-144.668,424
1569660990,362.099,-51.9038,-15.7386,179.363,1.66992,-144.668,424
1569660990,362.099,-51.9038,-15.8502,179.363,1.66992,-144.668,424
1569660990,362.099,-51.9038,-15.8502,179.363,1.66992,-144.668,424
1569660990,362.099,-51.9038,-15.8502,179.363,1.66992,-144.668,424
1569660990,362.099,-51.9038,-15.8502,179.363,1.66992,-144.668,420
1569660990,362.099,-51.9038,-15.8502,179.363,1.66992,-144.668,420
1569660990,362.099,-51.9038,-15.8502,179.363,1.66992,-144.668,420
1569660990,362.099,-51.9038,-15.8502,179.363,1.66992,-144.668,420
1569660990,362.099,-51.9038,-15.8502,179.363,1.66992,-144.668,416
1569660990,362.099,-51.9038,-15.8502,179.363,1.66992,-144.668,416
1569660990,362.099,-51.9038,-15.8502,179.363,1.66992,-144.668,416
1569660990,362.099,-51.9038,-15.8502,179.363,1.66992,-144.668,416
1569660990,362.099,-52.0154,-15.8502,179.363,1.66992,-144.668,412
1569660990,362.099,-52.0154,-15.8502,179.363,1.66992,-144.668,412
1569660990,362.099,-52.0154,-15.8502,179.341,1.66992,-144.668,412
1569660990,362.099,-52.0154,-15.8502,179.341,1.66992,-144.668,412
1569660990,362.099,-52.0154,-15.8502,179.341,1.66992,-144.668,408
1569660990,362.099,-52.0154,-15.8502,179.341,1.66992,-144.668,408
1569660990,362.099,-52.0154,-15.8502,179.341,1.66992,-144.668,408
1569660990,362.099,-52.0154,-15.8502,179.341,1.66992,-144.668,408
1569660990,362.099,-52.0154,-15.8502,179.341,1.66992,-144.668,408
1569660990,362.099,-52.0154,-15.8502,179.341,1.66992,-144.668,404
1569660990,362.099,-52.0154,-15.8502,179.341,1.66992,-144.668,404
1569660990,362.099,-52.0154,-15.8502,179.341,1.66992,-144.646,404
1569660990,362.099,-52.0154,-15.8502,179.341,1.66992,-144.646,404
1569660990,362.099,-52.0154,-15.8502,179.341,1.66992,-144.646,404
1569660990,362.099,-52.0154,-15.8502,179.341,1.66992,-144.646,404
1569660990,362.099,-52.0154,-15.8502,179.341,1.66992,-144.646,404
1569660990,362.099,-52.0154,-15.8502,179.341,1.66992,-144.646,404
1569660990,362.099,-52.0154,-15.8502,179.341,1.66992,-144.646,404
1569660990,362.099,-52.0154,-15.8502,179.341,1.66992,-144.646,404
1569660990,362.099,-52.0154,-15.8502,179.341,1.66992,-144.646,404
1569660990,362.099,-52.0154,-15.8502,179.341,1.66992,-144.646,404
1569660990,362.099,-52.0154,-15.8502,179.341,1.66992,-144.646,408
1569660990,362.099,-52.0154,-15.8502,179.341,1.66992,-144.646,408
1569660990,362.099,-52.0154,-15.8502,179.341,1.66992,-144.646,408
1569660990,362.099,-52.0154,-15.8502,179.341,1.66992,-144.646,408
1569660990,362.099,-52.0154,-15.8502,179.341,1.66992,-144.646,408
1569660990,362.099,-52.0154,-15.8502,179.341,1.66992,-144.646,408
1569660990,362.099,-52.0154,-15.8502,179.341,1.66992,-144.646,408
1569660990,362.099,-52.0154,-15.8502,179.341,1.66992,-144.646,412
1569660990,362.099,-52.0154,-15.8502,179.341,1.66992,-144.646,412
1569660990,362.099,-52.0154,-15.8502,179.341,1.66992,-144.646,412
1569660990,362.099,-52.0154,-15.8502,179.341,1.64795,-144.646,412
1569660990,362.099,-52.0154,-15.8502,179.341,1.64795,-144.646,416
1569660990,362.099,-52.0154,-15.8502,179.341,1.64795,-144.646,416
1569660990,362.099,-52.0154,-15.8502,179.341,1.64795,-144.646,420
1569660990,362.099,-52.0154,-15.8502,179.341,1.64795,-144.646,420
1569660990,362.099,-52.0154,-15.8502,179.341,1.64795,-144.646,420
1569660990,362.099,-52.0154,-15.8502,179.341,1.64795,-144.646,424
1569660990,362.099,-52.0154,-15.8502,179.341,1.64795,-144.646,424
1569660990,362.099,-52.0154,-15.8502,179.341,1.64795,-144.646,424
1569660990,362.099,-52.0154,-15.8502,179.341,1.64795,-144.646,428
1569660990,362.099,-51.9038,-15.8502,179.341,1.64795,-144.646,428
1569660990,362.099,-51.9038,-15.8502,179.363,1.64795,-144.646,428
1569660990,362.099,-51.9038,-15.8502,179.363,1.64795,-144.646,428
1569660990,362.099,-51.9038,-15.8502,179.363,1.64795,-144.646,432
1569660990,362.099,-51.9038,-15.8502,179.363,1.64795,-144.646,432
1569660990,362.099,-51.9038,-15.8502,179.363,1.64795,-144.646,432
1569660990,362.099,-51.9038,-15.8502,179.363,1.64795,-144.646,432
1569660990,362.099,-51.9038,-15.8502,179.363,1.64795,-144.646,436
1569660990,362.099,-51.9038,-15.8502,179.363,1.64795,-144.646,436
1569660990,362.099,-51.9038,-15.8502,179.363,1.64795,-144.646,436
1569660990,362.099,-51.9038,-15.8502,179.363,1.64795,-144.646,436
1569660990,362.099,-51.9038,-15.8502,179.363,1.64795,-144.646,436
1569660990,362.099,-51.9038,-15.8502,179.363,1.64795,-144.646,436
1569660990,362.099,-51.9038,-15.8502,179.363,1.64795,-144.646,436
1569660990,362.099,-51.9038,-15.8502,179.363,1.64795,-144.646,436
1569660990,362.099,-51.9038,-15.8502,179.363,1.64795,-144.646,436
1569660990,362.099,-51.9038,-15.8502,179.363,1.64795,-144.646,436
1569660990,362.099,-51.9038,-15.8502,179.363,1.64795,-144.646,436
1569660990,362.099,-51.9038,-15.8502,179.363,1.64795,-144.646,436
1569660990,362.099,-51.9038,-15.8502,179.363,1.64795,-144.646,436
1569660990,362.099,-51.9038,-15.8502,179.363,1.64795,-144.646,436
1569660990,362.099,-51.9038,-15.8502,179.363,1.64795,-144.646,436
1569660990,362.099,-51.9038,-15.8502,179.363,1.64795,-144.646,436
1569660990,362.099,-51.9038,-15.8502,179.363,1.64795,-144.646,436
1569660990,362.099,-51.9038,-15.8502,179.363,1.64795,-144.646,436
1569660990,362.099,-51.9038,-15.8502,179.363,1.64795,-144.646,436
1569660990,362.099,-51.9038,-15.8502,179.363,1.64795,-144.646,436
1569660990,362.099,-52.0154,-15.8502,179.363,1.64795,-144.646,436
1569660990,362.099,-52.0154,-15.8502,179.363,1.64795,-144.646,436
1569660990,362.099,-52.0154,-15.8502,179.341,1.64795,-144.646,436
1569660990,362.099,-52.0154,-15.8502,179.341,1.64795,-144.646,436
1569660990,362.099,-52.0154,-15.8502,179.341,1.64795,-144.646,436
1569660990,362.099,-52.0154,-15.8502,179.341,1.64795,-144.646,436
1569660990,362.099,-52.0154,-15.8502,179.341,1.64795,-144.646,436
1569660990,362.099,-52.0154,-15.8502,179.341,1.64795,-144.646,436
1569660990,362.099,-52.0154,-15.8502,179.341,1.64795,-144.646,436
1569660990,362.099,-52.0154,-15.8502,179.341,1.64795,-144.646,436
1569660990,362.099,-52.0154,-15.8502,179.341,1.64795,-144.646,436
1569660990,362.099,-52.0154,-15.8502,179.341,1.64795,-144.646,436
1569660990,362.099,-52.0154,-15.8502,179.341,1.64795,-144.646,436
1569660990,362.099,-52.0154,-15.8502,179.341,1.64795,-144.646,436
1569660991,362.099,-52.0154,-15.8502,179.341,1.64795,-144.646,436
1569660991,362.099,-52.0154,-15.8502,179.341,1.64795,-144.646,436
1569660991,362.099,-52.0154,-15.8502,179.341,1.64795,-144.646,436
1569660991,362.099,-52.0154,-15.8502,179.341,1.64795,-144.646,436
1569660991,362.099,-52.0154,-15.8502,179.341,1.64795,-144.646,436
1569660991,362.099,-52.0154,-15.8502,179.363,1.64795,-144.646,436
1569660991,362.099,-52.0154,-15.8502,179.363,1.64795,-144.646,436
1569660991,362.099,-52.0154,-15.8502,179.363,1.64795,-144.646,436
1569660991,362.099,-52.0154,-15.8502,179.363,1.64795,-144.646,436
1569660991,362.099,-52.0154,-15.8502,179.363,1.64795,-144.646,436
1569660991,362.099,-52.0154,-15.8502,179.363,1.64795,-144.646,436
1569660991,362.099,-52.0154,-15.8502,179.363,1.64795,-144.646,436
1569660991,362.099,-52.0154,-15.8502,179.363,1.64795,-144.646,436
1569660991,362.099,-52.0154,-15.8502,179.363,1.64795,-144.646,436
1569660991,362.099,-52.0154,-15.8502,179.363,1.64795,-144.646,436
1569660991,362.099,-52.0154,-15.8502,179.363,1.64795,-144.646,432
1569660991,362.099,-52.0154,-15.8502,179.341,1.64795,-144.646,432
1569660991,362.099,-52.0154,-15.8502,179.341,1.64795,-144.646,432
1569660991,362.099,-52.0154,-15.8502,179.341,1.64795,-144.646,432
1569660991,362.099,-52.0154,-15.8502,179.341,1.64795,-144.646,432
1569660991,362.099,-52.0154,-15.8502,179.341,1.64795,-144.624,432
1569660991,362.099,-52.0154,-15.8502,179.341,1.64795,-144.624,432
1569660991,362.099,-52.0154,-15.8502,179.341,1.64795,-144.624,432
