time,x,y,z,ax,ay,az,q
1569661712,282.066,-96.5522,-16.5199,179.67,1.4502,-144.668,300
1569661712,282.066,-96.5522,-16.5199,179.67,1.4502,-144.668,300
1569661712,282.066,-96.5522,-16.5199,179.67,1.4502,-144.69,300
1569661712,282.066,-96.5522,-16.5199,179.67,1.4502,-144.69,304
1569661712,282.066,-96.5522,-16.5199,179.692,1.4502,-144.69,304
1569661712,282.066,-96.5522,-16.5199,179.692,1.4502,-144.69,304
1569661712,282.066,-96.5522,-16.5199,179.692,1.4502,-144.69,304
1569661712,282.066,-96.5522,-16.5199,179.692,1.4502,-144.69,304
1569661712,282.066,-96.5522,-16.5199,179.692,1.4502,-144.69,304
1569661712,282.066,-96.5522,-16.5199,179.692,1.4502,-144.69,304
1569661712,282.066,-96.5522,-16.5199,179.692,1.4502,-144.69,304
1569661712,282.066,-96.5522,-16.5199,179.692,1.4502,-144.69,304
1569661712,282.066,-96.5522,-16.5199,179.692,1.4502,-144.69,304
1569661712,282.066,-96.5522,-16.5199,179.692,1.4502,-144.69,304
1569661712,282.066,-96.5522,-16.5199,179.692,1.4502,-144.69,304
1569661712,282.066,-96.5522,-16.5199,179.692,1.4502,-144.69,304
1569661712,282.066,-96.5522,-16.5199,179.692,1.4502,-144.69,304
1569661712,282.066,-96.5522,-16.5199,179.692,1.4502,-144.69,300
1569661712,282.066,-96.5522,-16.5199,179.692,1.4502,-144.69,300
1569661712,282.066,-96.5522,-16.5199,179.692,1.4502,-144.69,300
1569661712,282.066,-96.5522,-16.5199,179.692,1.47217,-144.69,300
1569661712,282.066,-96.5522,-16.5199,179.692,1.47217,-144.69,300
1569661712,282.066,-96.5522,-16.5199,179.692,1.47217,-144.69,300
1569661712,282.066,-96.5522,-16.5199,179.692,1.47217,-144.69,300
1569661712,282.066,-96.5522,-16.5199,179.692,1.47217,-144.69,300
1569661712,282.066,-96.5522,-16.5199,179.692,1.47217,-144.69,300
1569661712,282.066,-96.5522,-16.5199,179.692,1.47217,-144.69,300
1569661712,282.066,-96.5522,-16.5199,179.692,1.47217,-144.69,300
1569661712,282.066,-96.5522,-16.5199,179.692,1.47217,-144.69,300
1569661712,282.066,-96.5522,-16.5199,179.692,1.47217,-144.69,300
1569661712,282.066,-96.5522,-16.5199,179.692,1.47217,-144.69,300
1569661712,282.066,-96.5522,-16.5199,179.692,1.47217,-144.69,300
1569661712,282.066,-96.5522,-16.4083,179.692,1.47217,-144.69,300
1569661712,282.066,-96.5522,-16.4083,179.692,1.47217,-144.69,300
1569661712,282.066,-96.5522,-16.4083,179.692,1.47217,-144.69,300
1569661712,282.066,-96.5522,-16.4083,179.692,1.47217,-144.69,300
1569661712,282.066,-96.5522,-16.4083,179.692,1.47217,-144.69,300
1569661712,282.066,-96.5522,-16.4083,179.692,1.47217,-144.69,300
1569661712,282.066,-96.5522,-16.4083,179.692,1.47217,-144.69,300
1569661712,282.066,-96.5522,-16.4083,179.692,1.47217,-144.69,300
1569661712,282.066,-96.5522,-16.4083,179.692,1.47217,-144.69,300
1569661712,282.066,-96.5522,-16.4083,179.692,1.47217,-144.69,300
1569661712,282.066,-96.5522,-16.4083,179.692,1.47217,-144.69,300
1569661712,282.066,-96.5522,-16.4083,179.692,1.47217,-144.69,300
1569661712,282.066,-96.5522,-16.4083,179.692,1.47217,-144.69,300
1569661712,282.066,-96.5522,-16.4083,179.692,1.47217,-144.69,300
1569661712,282.066,-96.5522,-16.4083,179.692,1.47217,-144.69,300
1569661712,282.066,-96.5522,-16.4083,179.692,1.47217,-144.69,300
1569661712,282.066,-96.5522,-16.4083,179.67,1.47217,-144.69,300
1569661712,282.066,-96.5522,-16.4083,179.67,1.49414,-144.69,300
1569661712,282.066,-96.5522,-16.4083,179.67,1.49414,-144.69,300
1569661712,282.066,-96.5522,-16.4083,179.67,1.49414,-144.69,300
1569661712,282.066,-96.5522,-16.4083,179.67,1.49414,-144.69,300
1569661712,282.066,-96.5522,-16.4083,179.67,1.49414,-144.69,300
1569661713,282.066,-96.5522,-16.4083,179.67,1.49414,-144.69,300
1569661713,282.066,-96.5522,-16.4083,179.67,1.49414,-144.69,300
1569661713,282.066,-96.5522,-16.4083,179.67,1.47217,-144.69,300
1569661713,282.066,-96.5522,-16.4083,179.67,1.47217,-144.69,300
1569661713,282.066,-96.5522,-16.4083,179.67,1.47217,-144.69,300
1569661713,282.066,-96.5522,-16.4083,179.67,1.47217,-144.69,300
1569661713,282.066,-96.5522,-16.4083,179.67,1.47217,-144.69,300
1569661713,282.066,-96.6639,-16.4083,179.67,1.47217,-144.69,300
1569661713,282.066,-96.6639,-16.4083,179.67,1.47217,-144.69,300
1569661713,282.066,-96.6639,-16.4083,179.67,1.47217,-144.69,300
1569661713,282.066,-96.6639,-16.4083,179.67,1.47217,-144.69,300
1569661713,282.066,-96.6639,-16.4083,179.67,1.47217,-144.69,300
1569661713,282.066,-96.6639,-16.4083,179.67,1.47217,-144.69,300
1569661713,282.066,-96.6639,-16.4083,179.67,1.47217,-144.69,300
1569661713,282.066,-96.6639,-16.4083,179.67,1.47217,-144.69,300
1569661713,282.066,-96.6639,-16.4083,179.67,1.47217,-144.69,300
1569661713,282.066,-96.6639,-16.4083,179.67,1.47217,-144.69,300
1569661713,282.066,-96.6639,-16.4083,179.67,1.47217,-144.69,300
1569661713,282.066,-96.6639,-16.4083,179.67,1.47217,-144.69,300
1569661713,282.066,-96.6639,-16.4083,179.67,1.47217,-144.69,300
1569661713,282.066,-96.5522,-16.4083,179.67,1.47217,-144.69,300
1569661713,282.066,-96.5522,-16.4083,179.67,1.47217,-144.69,300
1569661713,282.066,-96.5522,-16.4083,179.67,1.47217,-144.69,300
1569661713,282.066,-96.5522,-16.4083,179.67,1.47217,-144.69,300
1569661713,282.066,-96.5522,-16.4083,179.67,1.47217,-144.69,300
1569661713,282.066,-96.5522,-16.4083,179.67,1.47217,-144.69,300
1569661713,282.066,-96.5522,-16.4083,179.67,1.47217,-144.69,300
1569661713,282.066,-96.5522,-16.4083,179.67,1.47217,-144.69,300
1569661713,282.066,-96.5522,-16.4083,179.67,1.47217,-144.69,300
1569661713,282.066,-96.5522,-16.4083,179.67,1.47217,-144.69,300
1569661713,282.066,-96.5522,-16.4083,179.67,1.47217,-144.69,300
1569661713,282.066,-96.5522,-16.4083,179.67,1.47217,-144.69,300
1569661713,282.066,-96.5522,-16.4083,179.67,1.47217,-144.69,300
1569661713,282.066,-96.5522,-16.4083,179.67,1.47217,-144.668,304
1569661713,282.066,-96.5522,-16.4083,179.67,1.47217,-144.668,304
1569661713,282.066,-96.5522,-16.4083,179.67,1.47217,-144.668,304
1569661713,282.066,-96.5522,-16.4083,179.67,1.47217,-144.668,304
1569661713,282.066,-96.5522,-16.4083,179.67,1.47217,-144.668,304
1569661713,282.066,-96.5522,-16.4083,179.67,1.47217,-144.668,304
1569661713,282.066,-96.5522,-16.4083,179.67,1.47217,-144.668,304
1569661713,282.066,-96.5522,-16.4083,179.67,1.47217,-144.668,304
1569661713,282.066,-96.5522,-16.4083,179.67,1.47217,-144.668,304
1569661713,282.066,-96.5522,-16.4083,179.67,1.47217,-144.668,304
1569661713,282.066,-96.5522,-16.4083,179.67,1.47217,-144.668,308
1569661713,282.066,-96.5522,-16.4083,179.67,1.47217,-144.668,308
1569661713,282.066,-96.5522,-16.4083,179.67,1.47217,-144.668,308
1569661713,282.066,-96.5522,-16.4083,179.67,1.47217,-144.668,308
1569661713,282.066,-96.5522,-16.4083,179.67,1.47217,-144.668,308
1569661713,282.066,-96.5522,-16.4083,179.67,1.47217,-144.668,308
1569661713,282.066,-96.5522,-16.4083,179.67,1.47217,-144.668,308
1569661713,282.066,-96.5522,-16.4083,179.67,1.47217,-144.668,308
1569661713,282.066,-96.5522,-16.4083,179.67,1.47217,-144.668,308
1569661713,282.066,-96.5522,-16.4083,179.67,1.47217,-144.668,308
1569661713,281.955,-96.5522,-16.4083,179.67,1.47217,-144.668,308
1569661713,281.955,-96.5522,-16.4083,179.67,1.47217,-144.668,308
1569661713,281.955,-96.6639,-16.4083,179.67,1.47217,-144.668,308
1569661713,281.955,-96.6639,-16.4083,179.67,1.47217,-144.668,308
1569661713,281.955,-96.6639,-16.4083,179.67,1.47217,-144.668,308
1569661713,281.955,-96.6639,-16.4083,179.67,1.47217,-144.668,308
1569661713,281.955,-96.6639,-16.4083,179.67,1.47217,-144.668,308
1569661713,281.955,-96.5522,-16.4083,179.67,1.47217,-144.668,308
1569661713,281.955,-96.5522,-16.4083,179.67,1.47217,-144.668,308
1569661713,281.955,-96.5522,-16.4083,179.67,1.47217,-144.668,308
1569661713,281.955,-96.5522,-16.4083,179.67,1.47217,-144.668,308
1569661713,281.955,-96.5522,-16.4083,179.67,1.47217,-144.668,308
1569661713,281.955,-96.5522,-16.4083,179.67,1.47217,-144.668,308
1569661713,281.955,-96.5522,-16.4083,179.67,1.47217,-144.668,308
1569661713,281.955,-96.5522,-16.4083,179.67,1.47217,-144.668,308
1569661713,281.955,-96.5522,-16.4083,179.67,1.47217,-144.668,308
1569661713,281.955,-96.5522,-16.4083,179.67,1.47217,-144.668,308
1569661713,281.955,-96.5522,-16.4083,179.67,1.47217,-144.668,308
1569661713,282.066,-96.5522,-16.4083,179.67,1.47217,-144.668,308
1569661713,282.066,-96.5522,-16.4083,179.67,1.47217,-144.668,308
1569661713,282.066,-96.5522,-16.4083,179.67,1.47217,-144.668,308
1569661713,282.066,-96.5522,-16.4083,179.67,1.47217,-144.668,308
1569661713,282.066,-96.5522,-16.4083,179.67,1.47217,-144.668,308
1569661713,282.066,-96.5522,-16.4083,179.67,1.47217,-144.668,308
1569661713,282.066,-96.5522,-16.4083,179.67,1.47217,-144.668,308
1569661713,282.066,-96.5522,-16.4083,179.67,1.47217,-144.668,308
1569661713,282.066,-96.5522,-16.4083,179.67,1.47217,-144.668,308
1569661713,282.066,-96.5522,-16.4083,179.67,1.47217,-144.668,308
1569661713,282.066,-96.5522,-16.4083,179.67,1.47217,-144.668,308
1569661713,282.066,-96.5522,-16.4083,179.67,1.47217,-144.668,308
1569661713,282.066,-96.5522,-16.4083,179.67,1.47217,-144.668,304
1569661713,282.066,-96.5522,-16.4083,179.67,1.47217,-144.668,304
1569661713,282.066,-96.5522,-16.4083,179.67,1.47217,-144.668,304
1569661713,282.066,-96.5522,-16.4083,179.67,1.47217,-144.668,304
1569661713,282.066,-96.5522,-16.4083,179.67,1.47217,-144.69,304
1569661713,282.066,-96.5522,-16.4083,179.67,1.49414,-144.69,304
1569661713,282.066,-96.5522,-16.4083,179.67,1.49414,-144.69,304
1569661713,282.066,-96.5522,-16.4083,179.67,1.49414,-144.69,304
1569661713,282.066,-96.5522,-16.4083,179.67,1.49414,-144.69,304
1569661713,282.066,-96.5522,-16.4083,179.67,1.49414,-144.69,300
1569661713,282.066,-96.5522,-16.4083,179.67,1.49414,-144.69,300
1569661713,282.066,-96.6639,-16.4083,179.67,1.49414,-144.69,300
1569661713,282.066,-96.6639,-16.4083,179.67,1.49414,-144.69,300
1569661713,282.066,-96.6639,-16.4083,179.67,1.49414,-144.69,300
1569661713,282.066,-96.6639,-16.4083,179.67,1.49414,-144.69,300
1569661713,282.066,-96.6639,-16.4083,179.67,1.49414,-144.69,300
1569661713,282.066,-96.6639,-16.4083,179.67,1.49414,-144.69,300
1569661714,282.066,-96.6639,-16.4083,179.67,1.49414,-144.69,300
1569661714,282.066,-96.6639,-16.4083,179.67,1.49414,-144.69,300
1569661714,282.066,-96.6639,-16.4083,179.67,1.49414,-144.69,300
1569661714,282.066,-96.5522,-16.4083,179.67,1.49414,-144.69,300
1569661714,282.066,-96.5522,-16.4083,179.67,1.49414,-144.69,300
1569661714,282.066,-96.5522,-16.4083,179.67,1.47217,-144.69,300
1569661714,282.066,-96.5522,-16.4083,179.67,1.47217,-144.69,300
1569661714,282.066,-96.5522,-16.4083,179.67,1.47217,-144.69,300
1569661714,282.066,-96.5522,-16.4083,179.67,1.47217,-144.69,300
1569661714,282.066,-96.5522,-16.4083,179.692,1.47217,-144.69,300
1569661714,282.066,-96.5522,-16.4083,179.692,1.47217,-144.69,300
1569661714,282.066,-96.5522,-16.4083,179.692,1.47217,-144.69,300
1569661714,282.066,-96.5522,-16.4083,179.692,1.47217,-144.69,300
1569661714,282.066,-96.5522,-16.4083,179.692,1.47217,-144.69,300
1569661714,282.066,-96.5522,-16.4083,179.692,1.47217,-144.69,300
1569661714,282.066,-96.5522,-16.4083,179.692,1.47217,-144.69,300
1569661714,282.066,-96.5522,-16.4083,179.692,1.47217,-144.69,300
1569661714,282.066,-96.5522,-16.4083,179.692,1.47217,-144.69,304
1569661714,282.066,-96.5522,-16.4083,179.692,1.47217,-144.69,304
1569661714,282.066,-96.5522,-16.4083,179.692,1.47217,-144.69,304
1569661714,282.066,-96.5522,-16.4083,179.692,1.47217,-144.69,304
1569661714,282.066,-96.5522,-16.4083,179.692,1.47217,-144.69,304
1569661714,282.066,-96.5522,-16.4083,179.692,1.47217,-144.69,304
1569661714,282.066,-96.5522,-16.4083,179.692,1.47217,-144.69,304
1569661714,282.066,-96.5522,-16.4083,179.692,1.47217,-144.69,304
1569661714,282.066,-96.5522,-16.4083,179.692,1.47217,-144.69,304
1569661714,282.066,-96.5522,-16.4083,179.692,1.47217,-144.69,304
1569661714,282.066,-96.5522,-16.4083,179.692,1.47217,-144.69,304
1569661714,282.066,-96.5522,-16.5199,179.692,1.47217,-144.69,304
1569661714,282.066,-96.5522,-16.5199,179.692,1.47217,-144.69,304
1569661714,282.066,-96.5522,-16.5199,179.692,1.47217,-144.69,304
1569661714,282.066,-96.5522,-16.5199,179.692,1.47217,-144.69,304
1569661714,282.066,-96.5522,-16.4083,179.692,1.47217,-144.69,304
1569661714,282.066,-96.5522,-16.5199,179.692,1.47217,-144.668,304
1569661714,282.066,-96.5522,-16.5199,179.692,1.47217,-144.668,304
1569661714,282.066,-96.5522,-16.4083,179.692,1.47217,-144.668,304
1569661714,282.066,-96.5522,-16.4083,179.692,1.47217,-144.668,304
1569661714,282.066,-96.5522,-16.4083,179.692,1.47217,-144.668,304
1569661714,282.066,-96.5522,-16.4083,179.692,1.47217,-144.668,304
1569661714,282.066,-96.5522,-16.4083,179.692,1.47217,-144.668,304
1569661714,282.066,-96.5522,-16.4083,179.692,1.47217,-144.668,304
1569661714,282.066,-96.5522,-16.4083,179.692,1.47217,-144.668,304
1569661714,282.066,-96.5522,-16.4083,179.692,1.47217,-144.668,304
1569661714,282.066,-96.5522,-16.4083,179.67,1.47217,-144.668,304
1569661714,282.066,-96.5522,-16.4083,179.67,1.47217,-144.668,304
1569661714,282.066,-96.5522,-16.4083,179.67,1.47217,-144.668,304
1569661714,282.066,-96.5522,-16.4083,179.692,1.47217,-144.668,304
1569661714,282.066,-96.5522,-16.4083,179.692,1.47217,-144.668,304
1569661714,282.066,-96.5522,-16.4083,179.692,1.47217,-144.668,304
1569661714,282.066,-96.5522,-16.4083,179.692,1.47217,-144.668,304
1569661714,282.066,-96.5522,-16.4083,179.692,1.47217,-144.668,304
1569661714,282.066,-96.5522,-16.4083,179.692,1.47217,-144.668,304
1569661714,282.066,-96.5522,-16.4083,179.67,1.47217,-144.668,304
1569661714,282.066,-96.5522,-16.4083,179.67,1.47217,-144.668,304
1569661714,282.066,-96.5522,-16.4083,179.67,1.47217,-144.668,304
1569661714,282.066,-96.5522,-16.4083,179.67,1.47217,-144.668,304
1569661714,282.066,-96.5522,-16.5199,179.67,1.47217,-144.668,304
1569661714,282.066,-96.5522,-16.5199,179.67,1.47217,-144.668,304
1569661714,282.066,-96.5522,-16.5199,179.67,1.47217,-144.668,304
1569661714,282.066,-96.5522,-16.5199,179.67,1.47217,-144.668,304
1569661714,282.066,-96.5522,-16.5199,179.692,1.47217,-144.668,304
1569661714,282.066,-96.5522,-16.5199,179.692,1.47217,-144.668,304
1569661714,282.066,-96.5522,-16.5199,179.692,1.47217,-144.668,304
1569661714,282.066,-96.5522,-16.5199,179.692,1.47217,-144.668,304
1569661714,282.066,-96.5522,-16.5199,179.692,1.47217,-144.668,304
1569661714,282.066,-96.5522,-16.4083,179.692,1.47217,-144.668,304
1569661714,282.066,-96.5522,-16.4083,179.692,1.47217,-144.668,304
1569661714,282.066,-96.5522,-16.4083,179.692,1.47217,-144.668,304
1569661714,282.066,-96.5522,-16.4083,179.692,1.47217,-144.668,304
1569661714,282.066,-96.5522,-16.4083,179.692,1.47217,-144.668,304
1569661714,282.066,-96.5522,-16.4083,179.692,1.47217,-144.668,304
1569661714,282.066,-96.5522,-16.4083,179.692,1.47217,-144.668,304
1569661714,282.066,-96.5522,-16.4083,179.692,1.47217,-144.668,304
1569661714,282.066,-96.5522,-16.4083,179.692,1.47217,-144.668,304
1569661714,282.066,-96.5522,-16.4083,179.692,1.47217,-144.668,304
1569661714,282.066,-96.5522,-16.4083,179.692,1.47217,-144.668,308
1569661714,282.066,-96.5522,-16.4083,179.692,1.47217,-144.668,308
1569661714,282.066,-96.5522,-16.4083,179.67,1.47217,-144.668,308
1569661714,282.066,-96.5522,-16.4083,179.67,1.47217,-144.668,308
1569661714,282.066,-96.5522,-16.4083,179.67,1.47217,-144.668,308
1569661714,282.066,-96.5522,-16.4083,179.67,1.47217,-144.668,308
1569661714,282.066,-96.5522,-16.4083,179.67,1.47217,-144.668,308
1569661714,282.066,-96.5522,-16.4083,179.67,1.47217,-144.668,308
1569661714,282.066,-96.5522,-16.4083,179.67,1.47217,-144.668,308
1569661714,282.066,-96.5522,-16.4083,179.67,1.47217,-144.668,308
1569661714,282.066,-96.6639,-16.4083,179.67,1.47217,-144.668,308
1569661714,282.066,-96.6639,-16.4083,179.67,1.47217,-144.668,308
1569661714,282.066,-96.6639,-16.4083,179.67,1.47217,-144.668,308
1569661714,282.066,-96.6639,-16.4083,179.67,1.47217,-144.668,312
1569661714,282.066,-96.6639,-16.4083,179.67,1.47217,-144.668,312
1569661714,282.066,-96.6639,-16.4083,179.67,1.47217,-144.668,312
1569661714,282.066,-96.6639,-16.4083,179.67,1.47217,-144.668,308
1569661714,282.066,-96.5522,-16.4083,179.67,1.47217,-144.668,308
1569661714,282.066,-96.5522,-16.4083,179.67,1.47217,-144.668,308
1569661714,282.066,-96.5522,-16.4083,179.67,1.47217,-144.668,308
1569661714,282.066,-96.5522,-16.4083,179.67,1.47217,-144.668,308
1569661714,282.066,-96.5522,-16.4083,179.67,1.47217,-144.668,308
1569661714,282.066,-96.5522,-16.4083,179.67,1.47217,-144.668,308
1569661714,282.066,-96.5522,-16.4083,179.67,1.47217,-144.668,308
1569661714,282.066,-96.5522,-16.4083,179.67,1.47217,-144.668,308
1569661715,282.066,-96.5522,-16.4083,179.67,1.47217,-144.668,308
1569661715,282.066,-96.5522,-16.4083,179.67,1.47217,-144.668,308
1569661715,282.066,-96.5522,-16.4083,179.67,1.47217,-144.668,308
1569661715,282.066,-96.5522,-16.4083,179.67,1.47217,-144.668,308
1569661715,282.066,-96.5522,-16.4083,179.67,1.47217,-144.668,308
1569661715,282.066,-96.5522,-16.4083,179.67,1.47217,-144.668,308
1569661715,282.066,-96.5522,-16.4083,179.67,1.47217,-144.668,308
1569661715,282.066,-96.5522,-16.4083,179.67,1.47217,-144.668,308
1569661715,282.066,-96.5522,-16.4083,179.67,1.47217,-144.668,308
1569661715,282.066,-96.5522,-16.4083,179.67,1.47217,-144.668,308
1569661715,282.066,-96.5522,-16.4083,179.67,1.47217,-144.668,308
1569661715,282.066,-96.5522,-16.4083,179.67,1.47217,-144.668,308
1569661715,282.066,-96.5522,-16.4083,179.67,1.47217,-144.668,304
1569661715,282.066,-96.5522,-16.4083,179.67,1.47217,-144.668,304
1569661715,282.066,-96.5522,-16.4083,179.67,1.47217,-144.668,304
1569661715,282.066,-96.5522,-16.4083,179.67,1.47217,-144.668,304
1569661715,282.066,-96.5522,-16.4083,179.67,1.47217,-144.668,304
1569661715,282.066,-96.5522,-16.4083,179.67,1.47217,-144.668,304
1569661715,282.066,-96.5522,-16.4083,179.67,1.47217,-144.668,304
1569661715,282.066,-96.5522,-16.4083,179.67,1.47217,-144.668,304
1569661715,282.066,-96.5522,-16.4083,179.67,1.47217,-144.668,304
1569661715,282.066,-96.5522,-16.4083,179.67,1.47217,-144.668,304
1569661715,282.066,-96.5522,-16.4083,179.67,1.47217,-144.668,304
1569661715,282.066,-96.5522,-16.4083,179.67,1.47217,-144.668,304
1569661715,282.066,-96.5522,-16.4083,179.67,1.47217,-144.668,304
1569661715,282.066,-96.5522,-16.4083,179.67,1.47217,-144.668,304
1569661715,282.066,-96.5522,-16.4083,179.67,1.47217,-144.668,304
1569661715,282.066,-96.5522,-16.4083,179.67,1.47217,-144.668,304
1569661715,282.066,-96.5522,-16.4083,179.67,1.47217,-144.668,304
1569661715,281.955,-96.5522,-16.4083,179.67,1.47217,-144.668,304
1569661715,281.955,-96.5522,-16.4083,179.67,1.47217,-144.668,304
1569661715,281.955,-96.5522,-16.4083,179.67,1.47217,-144.668,304
1569661715,281.955,-96.5522,-16.4083,179.67,1.47217,-144.668,304
1569661715,281.955,-96.5522,-16.4083,179.67,1.47217,-144.668,304
1569661715,281.955,-96.5522,-16.4083,179.67,1.47217,-144.668,304
1569661715,281.955,-96.5522,-16.4083,179.67,1.47217,-144.668,304
1569661715,281.955,-96.5522,-16.4083,179.67,1.47217,-144.668,304
1569661715,281.955,-96.5522,-16.4083,179.67,1.47217,-144.668,304
1569661715,281.955,-96.5522,-16.4083,179.67,1.47217,-144.668,304
1569661715,281.955,-96.6639,-16.4083,179.67,1.47217,-144.668,304
1569661715,281.955,-96.6639,-16.4083,179.67,1.47217,-144.668,304
1569661715,282.066,-96.6639,-16.4083,179.67,1.47217,-144.668,304
1569661715,282.066,-96.6639,-16.4083,179.67,1.47217,-144.668,304
1569661715,282.066,-96.6639,-16.4083,179.67,1.47217,-144.668,304
1569661715,282.066,-96.6639,-16.4083,179.67,1.47217,-144.668,304
1569661715,282.066,-96.6639,-16.5199,179.67,1.47217,-144.668,304
1569661715,282.066,-96.6639,-16.5199,179.67,1.47217,-144.668,304
1569661715,282.066,-96.6639,-16.5199,179.67,1.47217,-144.668,304
1569661715,282.066,-96.6639,-16.5199,179.67,1.47217,-144.668,304
1569661715,282.066,-96.6639,-16.5199,179.67,1.47217,-144.668,304
1569661715,282.066,-96.6639,-16.4083,179.67,1.47217,-144.668,304
1569661715,282.066,-96.6639,-16.4083,179.67,1.47217,-144.668,304
1569661715,282.066,-96.6639,-16.4083,179.67,1.47217,-144.668,304
1569661715,282.066,-96.6639,-16.4083,179.67,1.47217,-144.668,304
1569661715,282.066,-96.6639,-16.4083,179.67,1.47217,-144.668,304
1569661715,282.066,-96.6639,-16.4083,179.67,1.47217,-144.668,304
1569661715,282.066,-96.6639,-16.4083,179.67,1.47217,-144.668,300
1569661715,282.066,-96.6639,-16.4083,179.67,1.47217,-144.668,300
1569661715,282.066,-96.6639,-16.4083,179.67,1.47217,-144.668,300
1569661715,282.066,-96.6639,-16.4083,179.67,1.47217,-144.668,300
1569661715,282.066,-96.6639,-16.4083,179.67,1.47217,-144.668,300
1569661715,282.066,-96.6639,-16.4083,179.67,1.47217,-144.668,300
1569661715,282.066,-96.6639,-16.4083,179.67,1.47217,-144.668,300
1569661715,282.066,-96.5522,-16.4083,179.67,1.47217,-144.668,300
1569661715,282.066,-96.5522,-16.4083,179.67,1.47217,-144.69,300
1569661715,281.955,-96.5522,-16.4083,179.67,1.47217,-144.69,300
1569661715,281.955,-96.5522,-16.4083,179.67,1.47217,-144.69,300
1569661715,281.955,-96.5522,-16.4083,179.67,1.47217,-144.69,300
1569661715,282.066,-96.6639,-16.4083,179.67,1.47217,-144.69,300
1569661715,281.955,-96.6639,-16.4083,179.67,1.47217,-144.69,300
1569661715,281.955,-96.6639,-16.4083,179.67,1.47217,-144.69,300
1569661715,281.955,-96.6639,-16.4083,179.67,1.47217,-144.69,300
1569661715,281.955,-96.5522,-16.4083,179.67,1.47217,-144.69,304
1569661715,281.955,-96.5522,-16.4083,179.67,1.47217,-144.69,304
1569661715,281.955,-96.5522,-16.4083,179.67,1.47217,-144.69,304
1569661715,281.955,-96.5522,-16.4083,179.67,1.47217,-144.69,304
1569661715,281.955,-96.5522,-16.4083,179.67,1.47217,-144.69,304
1569661715,281.955,-96.5522,-16.4083,179.67,1.47217,-144.69,304
1569661715,281.955,-96.5522,-16.4083,179.67,1.47217,-144.69,308
1569661715,281.955,-96.5522,-16.4083,179.67,1.47217,-144.69,308
1569661715,281.955,-96.5522,-16.4083,179.67,1.47217,-144.69,308
1569661715,281.955,-96.5522,-16.4083,179.67,1.47217,-144.69,308
1569661715,281.955,-96.5522,-16.4083,179.67,1.47217,-144.69,308
1569661715,281.955,-96.5522,-16.4083,179.67,1.47217,-144.69,312
1569661715,281.955,-96.5522,-16.4083,179.67,1.47217,-144.69,312
1569661715,281.955,-96.5522,-16.4083,179.67,1.47217,-144.69,312
1569661715,281.955,-96.5522,-16.4083,179.67,1.47217,-144.69,312
1569661715,281.955,-96.5522,-16.4083,179.67,1.47217,-144.69,312
1569661715,281.955,-96.5522,-16.4083,179.67,1.47217,-144.69,312
1569661715,281.955,-96.5522,-16.4083,179.67,1.47217,-144.69,312
1569661715,281.955,-96.5522,-16.4083,179.67,1.47217,-144.69,312
1569661715,281.955,-96.5522,-16.4083,179.67,1.47217,-144.69,312
1569661715,281.955,-96.5522,-16.4083,179.67,1.47217,-144.69,312
1569661715,281.955,-96.5522,-16.4083,179.67,1.47217,-144.69,312
1569661715,281.955,-96.5522,-16.4083,179.67,1.47217,-144.69,312
1569661715,281.955,-96.5522,-16.4083,179.67,1.47217,-144.69,312
1569661715,281.955,-96.5522,-16.4083,179.67,1.47217,-144.69,312
1569661715,281.955,-96.5522,-16.4083,179.67,1.47217,-144.69,312
1569661715,281.955,-96.5522,-16.4083,179.67,1.47217,-144.69,312
1569661715,281.955,-96.5522,-16.4083,179.67,1.47217,-144.69,308
1569661716,281.955,-96.5522,-16.4083,179.67,1.47217,-144.69,308
1569661716,281.955,-96.5522,-16.4083,179.692,1.47217,-144.69,308
1569661716,281.955,-96.5522,-16.4083,179.692,1.47217,-144.69,308
1569661716,281.955,-96.5522,-16.4083,179.692,1.47217,-144.69,308
1569661716,281.955,-96.5522,-16.4083,179.692,1.47217,-144.69,308
1569661716,281.955,-96.5522,-16.4083,179.692,1.47217,-144.69,308
1569661716,281.955,-96.5522,-16.4083,179.692,1.47217,-144.69,308
1569661716,281.955,-96.5522,-16.4083,179.692,1.47217,-144.69,308
1569661716,282.066,-96.5522,-16.4083,179.692,1.47217,-144.69,308
1569661716,282.066,-96.5522,-16.4083,179.692,1.47217,-144.69,308
1569661716,282.066,-96.5522,-16.4083,179.692,1.47217,-144.69,304
1569661716,282.066,-96.5522,-16.4083,179.692,1.47217,-144.69,304
1569661716,282.066,-96.5522,-16.4083,179.692,1.47217,-144.69,304
1569661716,282.066,-96.5522,-16.4083,179.692,1.47217,-144.69,304
1569661716,282.066,-96.5522,-16.4083,179.692,1.47217,-144.69,304
1569661716,282.066,-96.5522,-16.4083,179.692,1.47217,-144.69,304
1569661716,282.066,-96.5522,-16.4083,179.692,1.47217,-144.69,304
1569661716,282.066,-96.5522,-16.4083,179.692,1.47217,-144.69,300
1569661716,282.066,-96.5522,-16.4083,179.692,1.47217,-144.69,300
1569661716,282.066,-96.5522,-16.4083,179.692,1.47217,-144.69,300
1569661716,282.066,-96.5522,-16.4083,179.692,1.47217,-144.69,300
1569661716,282.066,-96.5522,-16.4083,179.692,1.47217,-144.69,300
1569661716,282.066,-96.5522,-16.4083,179.692,1.47217,-144.69,300
1569661716,282.066,-96.5522,-16.4083,179.692,1.47217,-144.69,300
1569661716,282.066,-96.5522,-16.4083,179.692,1.47217,-144.69,300
1569661716,282.066,-96.5522,-16.4083,179.692,1.47217,-144.69,300
1569661716,282.066,-96.5522,-16.4083,179.692,1.47217,-144.69,300
1569661716,282.066,-96.5522,-16.4083,179.692,1.47217,-144.69,300
1569661716,282.066,-96.5522,-16.4083,179.692,1.47217,-144.69,300
1569661716,282.066,-96.5522,-16.4083,179.692,1.47217,-144.69,300
1569661716,281.955,-96.5522,-16.4083,179.692,1.47217,-144.69,300
1569661716,281.955,-96.5522,-16.4083,179.692,1.47217,-144.69,304
1569661716,281.955,-96.5522,-16.4083,179.692,1.47217,-144.69,304
1569661716,281.955,-96.5522,-16.4083,179.692,1.47217,-144.69,304
1569661716,281.955,-96.5522,-16.4083,179.692,1.47217,-144.69,304
1569661716,282.066,-96.5522,-16.4083,179.692,1.47217,-144.69,304
1569661716,282.066,-96.5522,-16.4083,179.692,1.47217,-144.69,304
1569661716,282.066,-96.5522,-16.4083,179.692,1.47217,-144.69,304
1569661716,282.066,-96.5522,-16.4083,179.692,1.47217,-144.69,304
1569661716,282.066,-96.5522,-16.4083,179.692,1.47217,-144.69,304
1569661716,282.066,-96.5522,-16.4083,179.692,1.47217,-144.69,304
1569661716,282.066,-96.5522,-16.4083,179.692,1.47217,-144.69,304
1569661716,282.066,-96.5522,-16.4083,179.692,1.47217,-144.69,304
1569661716,281.955,-96.5522,-16.4083,179.692,1.47217,-144.69,304
1569661716,281.955,-96.5522,-16.4083,179.692,1.47217,-144.69,304
1569661716,281.955,-96.5522,-16.4083,179.692,1.47217,-144.69,304
1569661716,281.955,-96.5522,-16.4083,179.692,1.47217,-144.69,304
1569661716,281.955,-96.5522,-16.4083,179.692,1.47217,-144.69,304
1569661716,281.955,-96.5522,-16.4083,179.692,1.47217,-144.69,304
1569661716,281.955,-96.5522,-16.4083,179.692,1.47217,-144.69,304
1569661716,281.955,-96.5522,-16.4083,179.692,1.47217,-144.69,304
1569661716,281.955,-96.5522,-16.4083,179.692,1.47217,-144.69,304
1569661716,282.066,-96.5522,-16.4083,179.692,1.47217,-144.69,304
1569661716,282.066,-96.5522,-16.4083,179.692,1.47217,-144.69,304
1569661716,282.066,-96.5522,-16.4083,179.692,1.47217,-144.69,304
1569661716,282.066,-96.5522,-16.4083,179.692,1.47217,-144.69,304
1569661716,282.066,-96.5522,-16.4083,179.692,1.47217,-144.69,304
1569661716,282.066,-96.5522,-16.4083,179.692,1.47217,-144.69,304
1569661716,282.066,-96.5522,-16.4083,179.692,1.47217,-144.69,304
1569661716,282.066,-96.5522,-16.4083,179.692,1.47217,-144.69,304
1569661716,282.066,-96.5522,-16.4083,179.692,1.47217,-144.69,304
1569661716,282.066,-96.5522,-16.4083,179.692,1.47217,-144.69,304
1569661716,282.066,-96.5522,-16.4083,179.692,1.47217,-144.69,304
1569661716,282.066,-96.5522,-16.4083,179.692,1.47217,-144.69,304
1569661716,282.066,-96.5522,-16.4083,179.692,1.47217,-144.69,304
1569661716,282.066,-96.5522,-16.4083,179.692,1.47217,-144.69,304
1569661716,282.066,-96.5522,-16.4083,179.692,1.47217,-144.69,304
1569661716,282.066,-96.5522,-16.4083,179.692,1.47217,-144.69,304
1569661716,282.066,-96.5522,-16.4083,179.692,1.47217,-144.69,304
1569661716,282.066,-96.5522,-16.4083,179.692,1.47217,-144.69,304
1569661716,282.066,-96.5522,-16.4083,179.67,1.47217,-144.69,304
1569661716,282.066,-96.5522,-16.4083,179.67,1.47217,-144.69,304
1569661716,282.066,-96.5522,-16.4083,179.67,1.47217,-144.69,304
1569661716,282.066,-96.5522,-16.4083,179.67,1.47217,-144.69,304
1569661716,282.066,-96.5522,-16.4083,179.67,1.47217,-144.69,304
1569661716,282.066,-96.5522,-16.4083,179.67,1.47217,-144.69,304
1569661716,282.066,-96.5522,-16.4083,179.67,1.47217,-144.69,304
1569661716,282.066,-96.5522,-16.4083,179.67,1.47217,-144.69,304
1569661716,282.066,-96.5522,-16.4083,179.67,1.47217,-144.69,304
1569661716,282.066,-96.5522,-16.4083,179.67,1.47217,-144.69,304
1569661716,282.066,-96.5522,-16.4083,179.67,1.47217,-144.69,304
1569661716,282.066,-96.5522,-16.4083,179.67,1.47217,-144.69,304
1569661716,282.066,-96.5522,-16.4083,179.67,1.47217,-144.69,304
1569661716,282.066,-96.5522,-16.4083,179.67,1.47217,-144.69,304
1569661716,282.066,-96.5522,-16.4083,179.67,1.47217,-144.69,304
1569661716,281.955,-96.5522,-16.4083,179.67,1.47217,-144.69,304
1569661716,281.955,-96.5522,-16.4083,179.67,1.47217,-144.69,304
1569661716,281.955,-96.5522,-16.4083,179.67,1.47217,-144.69,304
1569661716,281.955,-96.5522,-16.4083,179.67,1.47217,-144.69,304
1569661716,281.955,-96.5522,-16.4083,179.67,1.47217,-144.668,304
1569661716,281.955,-96.5522,-16.4083,179.67,1.47217,-144.668,304
1569661716,281.955,-96.5522,-16.4083,179.67,1.47217,-144.668,304
1569661716,281.955,-96.5522,-16.4083,179.67,1.47217,-144.668,304
1569661716,281.955,-96.5522,-16.4083,179.67,1.47217,-144.668,304
1569661716,281.955,-96.5522,-16.4083,179.67,1.47217,-144.668,304
1569661716,281.955,-96.5522,-16.4083,179.67,1.47217,-144.668,304
1569661716,281.955,-96.5522,-16.4083,179.67,1.47217,-144.668,304
1569661716,281.955,-96.5522,-16.4083,179.67,1.47217,-144.668,304
1569661716,281.955,-96.5522,-16.4083,179.67,1.47217,-144.668,304
1569661716,281.955,-96.5522,-16.4083,179.67,1.47217,-144.668,304
1569661717,281.955,-96.5522,-16.4083,179.67,1.47217,-144.668,304
1569661717,281.955,-96.5522,-16.4083,179.67,1.47217,-144.668,304
1569661717,281.955,-96.5522,-16.4083,179.67,1.47217,-144.668,304
1569661717,281.955,-96.5522,-16.4083,179.67,1.47217,-144.668,304
1569661717,281.955,-96.5522,-16.4083,179.67,1.47217,-144.668,304
1569661717,281.955,-96.5522,-16.4083,179.67,1.47217,-144.668,304
1569661717,281.955,-96.5522,-16.4083,179.67,1.47217,-144.668,304
1569661717,281.955,-96.5522,-16.4083,179.67,1.47217,-144.668,304
1569661717,281.955,-96.5522,-16.4083,179.67,1.47217,-144.668,304
1569661717,281.955,-96.5522,-16.4083,179.67,1.47217,-144.668,304
1569661717,281.955,-96.5522,-16.4083,179.67,1.47217,-144.668,304
1569661717,281.955,-96.5522,-16.4083,179.692,1.47217,-144.69,304
1569661717,281.955,-96.5522,-16.4083,179.692,1.47217,-144.69,308
1569661717,281.955,-96.5522,-16.4083,179.692,1.47217,-144.69,308
1569661717,281.955,-96.5522,-16.4083,179.692,1.47217,-144.69,308
1569661717,281.955,-96.5522,-16.4083,179.692,1.47217,-144.69,308
1569661717,281.955,-96.5522,-16.4083,179.692,1.47217,-144.69,308
1569661717,281.955,-96.5522,-16.4083,179.692,1.47217,-144.69,308
1569661717,281.955,-96.5522,-16.4083,179.692,1.47217,-144.69,308
1569661717,281.955,-96.5522,-16.4083,179.692,1.47217,-144.69,312
1569661717,281.955,-96.5522,-16.4083,179.692,1.47217,-144.69,312
1569661717,281.955,-96.5522,-16.5199,179.692,1.47217,-144.69,312
1569661717,281.955,-96.5522,-16.5199,179.692,1.47217,-144.69,312
1569661717,281.955,-96.5522,-16.5199,179.692,1.47217,-144.69,312
1569661717,281.955,-96.5522,-16.5199,179.692,1.47217,-144.69,312
1569661717,281.955,-96.5522,-16.5199,179.692,1.47217,-144.668,312
1569661717,281.955,-96.5522,-16.5199,179.692,1.47217,-144.668,316
1569661717,281.955,-96.5522,-16.5199,179.692,1.47217,-144.668,316
1569661717,281.955,-96.5522,-16.5199,179.692,1.47217,-144.668,316
1569661717,281.955,-96.5522,-16.5199,179.692,1.4502,-144.668,316
1569661717,281.955,-96.5522,-16.5199,179.67,1.4502,-144.668,316
1569661717,281.955,-96.5522,-16.5199,179.67,1.4502,-144.668,316
1569661717,281.955,-96.5522,-16.5199,179.67,1.4502,-144.668,316
1569661717,281.955,-96.5522,-16.5199,179.67,1.4502,-144.668,316
1569661717,281.955,-96.5522,-16.5199,179.67,1.4502,-144.69,316
1569661717,281.955,-96.5522,-16.5199,179.67,1.4502,-144.69,316
1569661717,281.955,-96.5522,-16.5199,179.67,1.4502,-144.69,316
1569661717,281.955,-96.5522,-16.5199,179.67,1.4502,-144.69,316
1569661717,281.955,-96.5522,-16.5199,179.67,1.4502,-144.69,316
1569661717,281.955,-96.5522,-16.5199,179.67,1.4502,-144.69,312
1569661717,281.955,-96.5522,-16.5199,179.67,1.4502,-144.69,312
1569661717,281.955,-96.5522,-16.5199,179.67,1.4502,-144.69,312
1569661717,281.955,-96.5522,-16.5199,179.67,1.4502,-144.69,312
1569661717,281.955,-96.5522,-16.5199,179.67,1.4502,-144.69,312
1569661717,281.955,-96.5522,-16.5199,179.67,1.4502,-144.69,312
1569661717,281.955,-96.5522,-16.5199,179.67,1.4502,-144.69,312
1569661722,297.359,-112.961,-16.4083,179.736,1.38428,-144.448,332
1569661722,297.359,-112.961,-16.4083,179.736,1.38428,-144.448,332
1569661722,297.359,-112.961,-16.4083,179.736,1.38428,-144.47,332
1569661723,297.359,-112.961,-16.4083,179.736,1.3623,-144.47,332
1569661723,297.359,-112.961,-16.4083,179.736,1.3623,-144.47,332
1569661723,297.359,-112.961,-16.4083,179.736,1.3623,-144.47,332
1569661723,297.359,-112.961,-16.4083,179.736,1.3623,-144.47,332
1569661723,297.359,-112.961,-16.4083,179.736,1.3623,-144.47,332
1569661723,297.359,-112.961,-16.4083,179.736,1.3623,-144.47,332
1569661723,297.359,-112.961,-16.4083,179.736,1.3623,-144.47,332
1569661723,297.359,-112.961,-16.4083,179.736,1.3623,-144.47,332
1569661723,297.359,-112.961,-16.4083,179.736,1.3623,-144.47,332
1569661723,297.359,-112.961,-16.4083,179.736,1.3623,-144.47,332
1569661723,297.359,-112.961,-16.4083,179.736,1.3623,-144.47,332
1569661723,297.359,-112.961,-16.4083,179.736,1.3623,-144.47,332
1569661723,297.359,-112.961,-16.4083,179.736,1.3623,-144.47,332
1569661723,297.359,-112.961,-16.4083,179.736,1.3623,-144.47,332
1569661723,297.359,-112.961,-16.4083,179.736,1.3623,-144.47,332
1569661723,297.359,-112.961,-16.4083,179.714,1.3623,-144.47,332
1569661723,297.247,-112.961,-16.4083,179.714,1.3623,-144.47,332
1569661723,297.247,-112.961,-16.4083,179.714,1.3623,-144.47,332
1569661723,297.247,-112.961,-16.4083,179.714,1.3623,-144.47,332
1569661723,297.247,-112.961,-16.4083,179.714,1.3623,-144.448,332
1569661723,297.247,-112.961,-16.4083,179.714,1.3623,-144.448,332
1569661723,297.247,-112.961,-16.4083,179.714,1.3623,-144.448,336
1569661723,297.247,-112.961,-16.4083,179.714,1.3623,-144.448,336
1569661723,297.247,-112.961,-16.4083,179.714,1.3623,-144.448,336
1569661723,297.247,-112.961,-16.4083,179.714,1.3623,-144.448,336
1569661723,297.247,-112.961,-16.4083,179.714,1.3623,-144.448,336
1569661723,297.247,-112.961,-16.4083,179.714,1.3623,-144.448,336
1569661723,297.247,-112.961,-16.4083,179.714,1.3623,-144.448,336
1569661723,297.247,-112.961,-16.4083,179.714,1.3623,-144.448,336
1569661723,297.247,-112.961,-16.4083,179.714,1.3623,-144.448,336
1569661723,297.247,-112.961,-16.4083,179.714,1.3623,-144.448,336
1569661723,297.359,-112.961,-16.4083,179.714,1.3623,-144.448,336
1569661723,297.359,-112.961,-16.4083,179.714,1.3623,-144.448,336
1569661723,297.359,-112.961,-16.4083,179.714,1.3623,-144.448,336
1569661723,297.359,-112.961,-16.4083,179.714,1.3623,-144.448,332
1569661723,297.359,-112.961,-16.4083,179.714,1.3623,-144.448,332
1569661723,297.359,-112.961,-16.4083,179.714,1.3623,-144.448,332
1569661723,297.359,-112.961,-16.4083,179.714,1.3623,-144.448,332
1569661723,297.359,-112.961,-16.4083,179.714,1.38428,-144.448,332
1569661723,297.359,-112.961,-16.4083,179.714,1.38428,-144.448,332
1569661723,297.359,-112.961,-16.4083,179.714,1.38428,-144.448,328
1569661723,297.359,-112.961,-16.4083,179.714,1.38428,-144.448,328
1569661723,297.359,-112.961,-16.4083,179.714,1.38428,-144.448,328
1569661723,297.359,-112.961,-16.4083,179.714,1.38428,-144.448,328
1569661723,297.359,-112.961,-16.4083,179.714,1.38428,-144.448,328
1569661723,297.359,-112.961,-16.4083,179.714,1.38428,-144.47,328
1569661723,297.359,-112.961,-16.4083,179.714,1.38428,-144.47,328
1569661723,297.359,-112.961,-16.4083,179.714,1.38428,-144.47,328
1569661723,297.359,-112.961,-16.4083,179.714,1.38428,-144.47,324
1569661723,297.359,-112.961,-16.4083,179.714,1.38428,-144.47,324
1569661723,297.359,-112.961,-16.4083,179.714,1.38428,-144.47,324
1569661723,297.359,-112.961,-16.4083,179.714,1.38428,-144.47,324
1569661723,297.359,-112.961,-16.4083,179.714,1.38428,-144.47,324
1569661723,297.359,-112.961,-16.4083,179.714,1.38428,-144.47,324
1569661723,297.359,-112.961,-16.4083,179.714,1.38428,-144.47,324
1569661723,297.359,-112.961,-16.4083,179.714,1.38428,-144.47,328
1569661723,297.359,-112.961,-16.4083,179.714,1.38428,-144.47,328
1569661723,297.359,-112.961,-16.4083,179.714,1.38428,-144.47,328
1569661723,297.359,-112.961,-16.4083,179.714,1.38428,-144.47,328
1569661723,297.359,-112.961,-16.4083,179.736,1.38428,-144.47,328
1569661723,297.359,-112.961,-16.4083,179.736,1.38428,-144.47,328
1569661723,297.359,-112.961,-16.4083,179.736,1.38428,-144.448,328
1569661723,297.359,-112.961,-16.4083,179.736,1.38428,-144.448,328
1569661723,297.359,-112.961,-16.4083,179.736,1.38428,-144.448,328
1569661723,297.359,-112.961,-16.4083,179.736,1.38428,-144.448,328
1569661723,297.359,-112.961,-16.4083,179.736,1.38428,-144.448,328
1569661723,297.359,-112.961,-16.4083,179.736,1.38428,-144.448,328
1569661723,297.359,-112.961,-16.4083,179.736,1.38428,-144.448,328
1569661723,297.359,-112.961,-16.4083,179.736,1.38428,-144.448,328
1569661723,297.359,-112.961,-16.4083,179.736,1.38428,-144.448,328
1569661723,297.359,-112.961,-16.4083,179.736,1.38428,-144.448,328
1569661723,297.359,-112.961,-16.4083,179.736,1.38428,-144.448,328
1569661723,297.359,-112.961,-16.4083,179.736,1.38428,-144.448,328
1569661723,297.359,-112.961,-16.4083,179.736,1.38428,-144.448,328
1569661723,297.359,-112.961,-16.4083,179.736,1.38428,-144.448,328
1569661723,297.359,-112.961,-16.4083,179.736,1.38428,-144.448,328
1569661723,297.359,-112.961,-16.4083,179.736,1.38428,-144.448,328
1569661723,297.359,-112.961,-16.4083,179.736,1.38428,-144.448,332
1569661723,297.359,-112.961,-16.4083,179.736,1.38428,-144.448,332
1569661723,297.359,-112.961,-16.4083,179.736,1.38428,-144.448,332
1569661723,297.359,-112.961,-16.4083,179.736,1.38428,-144.448,332
1569661723,297.359,-112.961,-16.4083,179.736,1.38428,-144.448,332
1569661723,297.359,-112.961,-16.4083,179.736,1.38428,-144.448,332
1569661723,297.359,-112.961,-16.4083,179.736,1.38428,-144.448,332
1569661723,297.359,-112.961,-16.4083,179.736,1.38428,-144.448,332
1569661723,297.359,-112.961,-16.4083,179.736,1.38428,-144.448,332
1569661723,297.359,-112.961,-16.4083,179.736,1.38428,-144.448,332
1569661723,297.359,-112.961,-16.4083,179.736,1.38428,-144.448,332
1569661723,297.359,-112.961,-16.4083,179.736,1.38428,-144.448,332
1569661723,297.359,-112.961,-16.4083,179.736,1.38428,-144.448,332
1569661723,297.359,-112.961,-16.4083,179.714,1.38428,-144.448,332
1569661723,297.359,-112.961,-16.4083,179.714,1.38428,-144.448,332
1569661723,297.359,-112.961,-16.4083,179.714,1.38428,-144.448,328
1569661723,297.359,-112.961,-16.4083,179.714,1.38428,-144.448,328
1569661723,297.359,-112.961,-16.4083,179.714,1.38428,-144.448,328
1569661723,297.359,-112.961,-16.4083,179.714,1.38428,-144.448,328
1569661723,297.359,-112.961,-16.4083,179.714,1.38428,-144.448,328
1569661723,297.359,-112.961,-16.4083,179.714,1.38428,-144.448,332
1569661723,297.359,-112.961,-16.4083,179.714,1.38428,-144.448,332
1569661723,297.359,-112.961,-16.2967,179.714,1.38428,-144.448,332
1569661724,297.359,-112.961,-16.2967,179.714,1.38428,-144.448,332
1569661724,297.359,-112.961,-16.2967,179.714,1.38428,-144.448,328
1569661724,297.359,-112.961,-16.2967,179.714,1.38428,-144.448,328
1569661724,297.359,-112.961,-16.2967,179.714,1.38428,-144.448,328
1569661724,297.359,-112.961,-16.2967,179.714,1.38428,-144.448,328
1569661724,297.359,-112.961,-16.2967,179.714,1.38428,-144.448,328
1569661724,297.359,-112.961,-16.2967,179.714,1.38428,-144.448,328
1569661724,297.359,-112.961,-16.2967,179.714,1.38428,-144.448,328
1569661724,297.359,-112.961,-16.2967,179.714,1.38428,-144.448,328
1569661724,297.359,-112.961,-16.2967,179.714,1.38428,-144.448,324
1569661724,297.359,-112.961,-16.2967,179.714,1.38428,-144.448,324
1569661724,297.359,-112.961,-16.2967,179.714,1.40625,-144.448,324
1569661724,297.359,-112.961,-16.2967,179.714,1.40625,-144.448,324
1569661724,297.359,-112.961,-16.2967,179.736,1.40625,-144.448,324
1569661724,297.359,-112.961,-16.2967,179.736,1.38428,-144.448,324
1569661724,297.359,-112.961,-16.2967,179.736,1.38428,-144.448,324
1569661724,297.359,-112.961,-16.2967,179.736,1.38428,-144.448,324
1569661724,297.359,-112.961,-16.2967,179.736,1.38428,-144.448,324
1569661724,297.359,-112.961,-16.2967,179.736,1.38428,-144.448,324
1569661724,297.359,-112.961,-16.2967,179.736,1.38428,-144.448,324
1569661724,297.359,-112.961,-16.2967,179.736,1.38428,-144.448,324
1569661724,297.359,-112.961,-16.2967,179.736,1.38428,-144.448,320
1569661724,297.359,-112.961,-16.2967,179.736,1.38428,-144.448,320
1569661724,297.359,-112.961,-16.2967,179.736,1.38428,-144.448,320
1569661724,297.359,-112.961,-16.2967,179.736,1.38428,-144.448,320
1569661724,297.359,-112.961,-16.4083,179.736,1.38428,-144.448,320
1569661724,297.359,-112.961,-16.4083,179.736,1.38428,-144.448,320
1569661724,297.359,-112.961,-16.4083,179.736,1.38428,-144.448,320
1569661724,297.359,-112.961,-16.4083,179.736,1.38428,-144.448,320
1569661724,297.359,-112.961,-16.4083,179.736,1.38428,-144.448,320
1569661724,297.359,-112.961,-16.4083,179.736,1.38428,-144.448,320
1569661724,297.359,-112.961,-16.4083,179.736,1.38428,-144.448,320
1569661724,297.359,-112.961,-16.4083,179.736,1.38428,-144.448,320
1569661724,297.359,-112.961,-16.4083,179.736,1.38428,-144.448,320
1569661724,297.359,-112.961,-16.4083,179.736,1.38428,-144.448,320
1569661724,297.359,-112.961,-16.4083,179.736,1.38428,-144.448,316
1569661724,297.359,-112.961,-16.4083,179.736,1.38428,-144.448,316
1569661724,297.359,-112.961,-16.4083,179.736,1.38428,-144.448,316
1569661724,297.359,-112.961,-16.4083,179.736,1.38428,-144.448,316
1569661724,297.359,-112.961,-16.4083,179.736,1.38428,-144.448,316
1569661724,297.359,-112.961,-16.4083,179.736,1.38428,-144.448,316
1569661724,297.359,-112.961,-16.4083,179.736,1.38428,-144.448,316
1569661724,297.359,-112.961,-16.4083,179.736,1.38428,-144.448,316
1569661724,297.359,-112.961,-16.4083,179.736,1.38428,-144.448,316
1569661724,297.359,-112.961,-16.4083,179.736,1.38428,-144.448,316
1569661724,297.359,-112.961,-16.4083,179.736,1.38428,-144.448,316
1569661724,297.359,-112.961,-16.4083,179.736,1.38428,-144.448,316
1569661724,297.359,-112.961,-16.4083,179.736,1.38428,-144.448,316
1569661724,297.359,-112.961,-16.4083,179.736,1.38428,-144.448,316
1569661724,297.359,-112.961,-16.4083,179.736,1.38428,-144.448,316
1569661724,297.359,-112.961,-16.4083,179.736,1.38428,-144.448,316
1569661724,297.359,-112.961,-16.4083,179.736,1.38428,-144.448,316
1569661724,297.359,-112.961,-16.4083,179.736,1.38428,-144.448,316
1569661724,297.359,-112.961,-16.4083,179.736,1.38428,-144.448,316
1569661724,297.359,-112.961,-16.4083,179.736,1.38428,-144.448,316
1569661724,297.359,-112.961,-16.4083,179.736,1.38428,-144.448,316
1569661724,297.359,-112.961,-16.4083,179.736,1.38428,-144.448,316
1569661724,297.359,-112.961,-16.4083,179.736,1.38428,-144.448,316
1569661724,297.359,-112.961,-16.4083,179.736,1.38428,-144.448,316
1569661724,297.359,-112.961,-16.4083,179.736,1.38428,-144.448,320
1569661724,297.359,-112.961,-16.4083,179.758,1.38428,-144.448,320
1569661724,297.359,-112.961,-16.4083,179.758,1.38428,-144.448,320
1569661724,297.359,-112.961,-16.4083,179.736,1.38428,-144.448,320
1569661724,297.359,-112.961,-16.4083,179.736,1.38428,-144.448,320
1569661724,297.359,-112.961,-16.4083,179.736,1.38428,-144.448,320
1569661724,297.359,-112.961,-16.4083,179.736,1.38428,-144.448,320
1569661724,297.359,-112.961,-16.4083,179.736,1.38428,-144.448,320
1569661724,297.359,-112.961,-16.4083,179.736,1.38428,-144.448,320
1569661724,297.359,-112.961,-16.4083,179.736,1.3623,-144.448,324
1569661724,297.359,-112.961,-16.4083,179.736,1.3623,-144.448,324
1569661724,297.359,-112.961,-16.4083,179.736,1.3623,-144.47,324
1569661724,297.359,-112.961,-16.4083,179.736,1.3623,-144.47,324
1569661724,297.359,-112.961,-16.4083,179.736,1.3623,-144.47,324
1569661724,297.359,-112.961,-16.4083,179.736,1.3623,-144.448,324
1569661724,297.359,-112.961,-16.4083,179.736,1.3623,-144.448,324
1569661724,297.359,-112.961,-16.4083,179.736,1.3623,-144.448,324
1569661724,297.359,-112.961,-16.4083,179.736,1.3623,-144.448,328
1569661724,297.359,-112.961,-16.4083,179.736,1.3623,-144.448,328
1569661724,297.359,-112.961,-16.4083,179.736,1.3623,-144.448,328
1569661724,297.359,-112.961,-16.4083,179.714,1.3623,-144.448,328
1569661724,297.359,-112.961,-16.4083,179.714,1.3623,-144.448,328
1569661724,297.359,-112.961,-16.4083,179.714,1.3623,-144.448,328
1569661724,297.359,-112.961,-16.4083,179.714,1.3623,-144.448,328
1569661724,297.359,-112.961,-16.4083,179.714,1.3623,-144.448,328
1569661724,297.359,-112.961,-16.4083,179.714,1.3623,-144.448,328
1569661724,297.359,-112.961,-16.4083,179.714,1.3623,-144.448,328
1569661724,297.359,-112.961,-16.4083,179.714,1.3623,-144.448,328
1569661724,297.359,-112.961,-16.4083,179.714,1.3623,-144.448,324
1569661724,297.359,-112.961,-16.4083,179.714,1.3623,-144.448,324
1569661724,297.359,-112.961,-16.4083,179.714,1.3623,-144.448,324
1569661724,297.359,-112.961,-16.4083,179.714,1.3623,-144.448,324
1569661724,297.359,-112.961,-16.4083,179.714,1.3623,-144.448,324
1569661724,297.359,-112.961,-16.4083,179.714,1.3623,-144.448,324
1569661724,297.359,-112.961,-16.4083,179.714,1.3623,-144.448,324
1569661724,297.359,-112.961,-16.4083,179.714,1.3623,-144.448,324
1569661724,297.359,-112.961,-16.4083,179.714,1.3623,-144.448,324
1569661724,297.359,-112.961,-16.4083,179.714,1.3623,-144.448,324
1569661724,297.359,-112.961,-16.4083,179.714,1.3623,-144.448,324
1569661724,297.359,-112.961,-16.4083,179.714,1.3623,-144.448,324
1569661724,297.359,-112.961,-16.4083,179.714,1.3623,-144.448,324
1569661725,297.359,-112.961,-16.4083,179.714,1.3623,-144.448,324
1569661725,297.359,-112.961,-16.4083,179.714,1.3623,-144.448,324
1569661725,297.359,-112.961,-16.4083,179.714,1.3623,-144.448,324
1569661725,297.359,-112.961,-16.4083,179.714,1.3623,-144.448,324
1569661725,297.359,-112.961,-16.4083,179.714,1.3623,-144.448,324
1569661725,297.359,-112.961,-16.4083,179.736,1.3623,-144.448,324
1569661725,297.359,-112.961,-16.4083,179.736,1.3623,-144.47,324
1569661725,297.359,-112.961,-16.4083,179.736,1.3623,-144.47,328
1569661725,297.359,-112.961,-16.4083,179.736,1.3623,-144.47,328
1569661725,297.359,-112.961,-16.4083,179.736,1.3623,-144.47,328
1569661725,297.359,-112.961,-16.4083,179.736,1.3623,-144.47,328
1569661725,297.359,-112.961,-16.4083,179.736,1.3623,-144.47,328
1569661725,297.359,-112.961,-16.4083,179.736,1.3623,-144.47,328
1569661725,297.247,-112.961,-16.4083,179.736,1.3623,-144.47,328
1569661725,297.247,-112.961,-16.4083,179.736,1.3623,-144.47,328
1569661725,297.247,-112.961,-16.4083,179.736,1.3623,-144.47,328
1569661725,297.247,-112.961,-16.4083,179.736,1.3623,-144.47,328
1569661725,297.247,-112.961,-16.4083,179.736,1.3623,-144.47,328
1569661725,297.359,-112.961,-16.4083,179.736,1.3623,-144.47,332
1569661725,297.359,-112.961,-16.4083,179.736,1.3623,-144.47,332
1569661725,297.359,-112.961,-16.4083,179.736,1.3623,-144.47,328
1569661725,297.359,-112.961,-16.4083,179.736,1.3623,-144.47,328
1569661725,297.359,-112.961,-16.4083,179.736,1.3623,-144.47,328
1569661725,297.359,-112.961,-16.4083,179.736,1.3623,-144.47,328
1569661725,297.359,-112.961,-16.4083,179.736,1.3623,-144.47,328
1569661725,297.359,-112.961,-16.4083,179.736,1.3623,-144.47,328
1569661725,297.359,-112.961,-16.4083,179.736,1.3623,-144.47,328
1569661725,297.359,-112.961,-16.4083,179.736,1.3623,-144.47,328
1569661725,297.359,-112.961,-16.4083,179.736,1.3623,-144.47,328
1569661725,297.359,-112.961,-16.4083,179.736,1.3623,-144.47,328
1569661725,297.359,-112.961,-16.4083,179.736,1.3623,-144.47,328
1569661725,297.359,-112.961,-16.4083,179.736,1.3623,-144.47,328
1569661725,297.359,-112.961,-16.4083,179.736,1.38428,-144.47,328
1569661725,297.359,-112.961,-16.4083,179.736,1.38428,-144.47,328
1569661725,297.359,-112.961,-16.4083,179.736,1.38428,-144.47,328
1569661725,297.359,-112.961,-16.4083,179.736,1.38428,-144.47,328
1569661725,297.359,-112.961,-16.4083,179.736,1.38428,-144.47,328
1569661725,297.359,-112.961,-16.4083,179.736,1.38428,-144.47,328
1569661725,297.359,-112.961,-16.4083,179.736,1.38428,-144.47,328
1569661725,297.359,-112.961,-16.4083,179.736,1.38428,-144.47,328
1569661725,297.359,-112.961,-16.4083,179.736,1.38428,-144.47,328
1569661725,297.359,-112.961,-16.4083,179.736,1.38428,-144.47,328
1569661725,297.359,-112.961,-16.4083,179.736,1.38428,-144.47,332
1569661725,297.359,-112.961,-16.4083,179.736,1.38428,-144.47,332
1569661725,297.359,-112.961,-16.4083,179.736,1.38428,-144.47,332
1569661725,297.359,-112.961,-16.4083,179.736,1.38428,-144.47,332
1569661725,297.359,-112.961,-16.4083,179.736,1.38428,-144.47,332
1569661725,297.359,-112.961,-16.4083,179.736,1.38428,-144.47,332
1569661725,297.359,-112.961,-16.4083,179.736,1.38428,-144.47,332
1569661725,297.359,-112.961,-16.4083,179.714,1.38428,-144.47,332
1569661725,297.359,-112.961,-16.4083,179.714,1.38428,-144.47,332
1569661725,297.359,-112.961,-16.4083,179.714,1.38428,-144.47,332
1569661725,297.359,-112.961,-16.4083,179.714,1.38428,-144.47,328
1569661725,297.359,-112.961,-16.4083,179.714,1.38428,-144.47,328
1569661725,297.359,-112.961,-16.4083,179.714,1.38428,-144.47,328
1569661725,297.359,-112.961,-16.4083,179.714,1.38428,-144.47,328
1569661725,297.359,-112.961,-16.4083,179.714,1.38428,-144.47,328
1569661725,297.359,-112.961,-16.4083,179.714,1.38428,-144.47,328
1569661725,297.359,-112.961,-16.4083,179.714,1.38428,-144.47,328
1569661725,297.359,-112.961,-16.4083,179.714,1.38428,-144.47,328
1569661725,297.359,-112.961,-16.4083,179.714,1.38428,-144.47,328
1569661725,297.359,-112.961,-16.4083,179.714,1.38428,-144.448,328
1569661725,297.359,-112.961,-16.4083,179.714,1.38428,-144.448,328
1569661725,297.359,-112.961,-16.4083,179.714,1.38428,-144.448,328
1569661725,297.359,-112.961,-16.4083,179.714,1.38428,-144.448,324
1569661725,297.359,-112.961,-16.4083,179.714,1.38428,-144.448,324
1569661725,297.359,-112.961,-16.4083,179.714,1.38428,-144.448,324
1569661725,297.359,-112.961,-16.4083,179.714,1.38428,-144.448,324
1569661725,297.359,-112.961,-16.4083,179.714,1.38428,-144.448,324
1569661725,297.359,-112.961,-16.4083,179.736,1.38428,-144.448,324
1569661725,297.359,-112.961,-16.4083,179.736,1.38428,-144.448,324
1569661725,297.359,-112.961,-16.4083,179.736,1.38428,-144.448,324
1569661725,297.359,-112.961,-16.4083,179.736,1.38428,-144.448,324
1569661725,297.359,-112.961,-16.4083,179.736,1.38428,-144.448,324
1569661725,297.359,-112.961,-16.4083,179.736,1.38428,-144.448,324
1569661725,297.359,-112.961,-16.4083,179.736,1.38428,-144.448,324
1569661725,297.359,-112.961,-16.4083,179.736,1.38428,-144.448,324
1569661725,297.359,-112.961,-16.4083,179.736,1.38428,-144.448,324
1569661725,297.359,-112.961,-16.4083,179.736,1.38428,-144.448,324
1569661725,297.359,-112.961,-16.4083,179.736,1.38428,-144.448,324
1569661725,297.359,-112.961,-16.4083,179.714,1.38428,-144.47,324
1569661725,297.359,-112.961,-16.4083,179.714,1.38428,-144.47,324
1569661725,297.359,-112.961,-16.4083,179.714,1.38428,-144.47,324
1569661725,297.359,-112.961,-16.4083,179.714,1.38428,-144.47,324
1569661725,297.359,-112.961,-16.4083,179.714,1.38428,-144.47,324
1569661725,297.359,-112.961,-16.4083,179.714,1.38428,-144.47,324
1569661725,297.359,-112.961,-16.4083,179.714,1.38428,-144.47,324
1569661725,297.359,-112.961,-16.4083,179.714,1.38428,-144.47,324
1569661725,297.359,-112.961,-16.4083,179.714,1.38428,-144.47,324
1569661725,297.359,-112.961,-16.4083,179.714,1.38428,-144.47,324
1569661725,297.359,-112.961,-16.4083,179.714,1.38428,-144.47,324
1569661725,297.359,-112.961,-16.4083,179.714,1.38428,-144.47,324
1569661725,297.359,-112.961,-16.2967,179.714,1.38428,-144.47,324
1569661725,297.359,-112.961,-16.2967,179.714,1.38428,-144.47,324
1569661725,297.359,-112.961,-16.2967,179.714,1.38428,-144.47,320
1569661725,297.359,-112.961,-16.2967,179.714,1.38428,-144.47,324
1569661725,297.359,-112.961,-16.2967,179.714,1.38428,-144.47,324
1569661725,297.359,-112.961,-16.2967,179.714,1.38428,-144.47,324
1569661725,297.359,-112.961,-16.2967,179.714,1.38428,-144.47,324
1569661725,297.359,-112.961,-16.2967,179.714,1.38428,-144.47,324
1569661726,297.359,-112.961,-16.2967,179.714,1.38428,-144.47,324
1569661726,297.359,-112.961,-16.2967,179.714,1.38428,-144.47,324
1569661726,297.359,-112.961,-16.2967,179.714,1.38428,-144.47,324
1569661726,297.359,-112.961,-16.2967,179.714,1.38428,-144.47,324
1569661726,297.359,-112.961,-16.2967,179.714,1.38428,-144.47,324
1569661726,297.359,-112.961,-16.2967,179.714,1.38428,-144.47,324
1569661726,297.359,-112.961,-16.2967,179.714,1.38428,-144.47,324
1569661726,297.359,-112.961,-16.2967,179.714,1.38428,-144.47,324
1569661726,297.359,-112.961,-16.2967,179.714,1.38428,-144.47,324
1569661726,297.359,-112.961,-16.2967,179.714,1.38428,-144.47,324
1569661726,297.359,-112.961,-16.2967,179.714,1.38428,-144.47,324
1569661726,297.359,-112.961,-16.2967,179.714,1.38428,-144.47,324
1569661726,297.359,-112.961,-16.2967,179.714,1.38428,-144.47,324
1569661726,297.359,-112.961,-16.2967,179.714,1.38428,-144.47,324
1569661726,297.359,-112.961,-16.2967,179.714,1.38428,-144.47,324
1569661726,297.359,-112.961,-16.2967,179.714,1.38428,-144.47,324
1569661726,297.359,-112.961,-16.2967,179.714,1.38428,-144.47,324
1569661726,297.359,-112.961,-16.2967,179.714,1.38428,-144.47,328
1569661726,297.359,-112.961,-16.2967,179.714,1.38428,-144.47,328
1569661726,297.247,-112.961,-16.4083,179.714,1.38428,-144.47,328
1569661726,297.247,-112.961,-16.4083,179.714,1.38428,-144.47,328
1569661726,297.247,-112.961,-16.4083,179.714,1.38428,-144.47,328
1569661726,297.247,-112.961,-16.4083,179.714,1.38428,-144.47,328
1569661726,297.247,-112.961,-16.4083,179.714,1.38428,-144.47,328
1569661726,297.247,-112.961,-16.4083,179.714,1.3623,-144.47,328
1569661726,297.359,-112.961,-16.4083,179.714,1.3623,-144.47,328
1569661726,297.359,-112.961,-16.4083,179.714,1.3623,-144.47,328
1569661726,297.359,-112.961,-16.4083,179.714,1.3623,-144.47,328
1569661726,297.359,-112.961,-16.4083,179.714,1.3623,-144.47,328
1569661726,297.359,-112.961,-16.4083,179.714,1.3623,-144.47,328
1569661726,297.359,-112.961,-16.4083,179.714,1.3623,-144.47,328
1569661726,297.359,-112.961,-16.4083,179.714,1.3623,-144.47,328
1569661726,297.359,-112.961,-16.4083,179.714,1.3623,-144.47,328
1569661726,297.359,-112.961,-16.4083,179.714,1.3623,-144.47,328
1569661726,297.359,-112.961,-16.4083,179.714,1.3623,-144.47,328
1569661726,297.359,-112.961,-16.4083,179.714,1.3623,-144.448,324
1569661726,297.359,-112.961,-16.4083,179.714,1.3623,-144.448,324
1569661726,297.359,-112.961,-16.4083,179.714,1.3623,-144.47,324
1569661726,297.359,-112.961,-16.4083,179.736,1.3623,-144.47,324
1569661726,297.359,-112.961,-16.4083,179.736,1.3623,-144.47,324
1569661726,297.359,-112.961,-16.4083,179.736,1.3623,-144.47,324
1569661726,297.359,-112.961,-16.4083,179.736,1.3623,-144.47,324
1569661726,297.359,-112.961,-16.4083,179.736,1.3623,-144.47,324
1569661726,297.359,-112.961,-16.4083,179.736,1.3623,-144.47,328
1569661726,297.359,-112.961,-16.4083,179.736,1.3623,-144.47,328
1569661726,297.359,-112.961,-16.4083,179.714,1.3623,-144.47,328
1569661726,297.359,-112.961,-16.4083,179.714,1.3623,-144.47,328
1569661726,297.359,-112.961,-16.4083,179.714,1.3623,-144.47,328
1569661726,297.359,-112.961,-16.4083,179.714,1.3623,-144.47,328
1569661726,297.359,-112.961,-16.4083,179.714,1.3623,-144.47,328
1569661726,297.359,-112.961,-16.4083,179.714,1.3623,-144.47,324
1569661726,297.359,-112.961,-16.4083,179.714,1.38428,-144.47,324
1569661726,297.359,-112.961,-16.4083,179.714,1.38428,-144.47,324
1569661726,297.359,-112.961,-16.4083,179.714,1.38428,-144.47,324
1569661726,297.359,-112.961,-16.4083,179.714,1.38428,-144.47,324
1569661726,297.359,-112.961,-16.4083,179.714,1.38428,-144.47,324
1569661726,297.359,-112.961,-16.4083,179.714,1.38428,-144.47,324
1569661726,297.359,-112.961,-16.4083,179.736,1.38428,-144.47,324
1569661726,297.359,-112.961,-16.4083,179.736,1.38428,-144.47,324
1569661726,297.359,-112.961,-16.4083,179.736,1.38428,-144.47,324
1569661726,297.359,-112.961,-16.4083,179.736,1.38428,-144.47,324
1569661726,297.359,-112.961,-16.4083,179.736,1.38428,-144.47,324
1569661726,297.359,-112.961,-16.4083,179.736,1.38428,-144.47,320
1569661726,297.359,-112.961,-16.4083,179.736,1.38428,-144.47,320
1569661726,297.359,-112.961,-16.4083,179.736,1.38428,-144.47,320
1569661726,297.359,-112.961,-16.4083,179.736,1.38428,-144.47,320
1569661726,297.359,-112.961,-16.4083,179.736,1.38428,-144.47,320
1569661726,297.359,-112.961,-16.4083,179.736,1.38428,-144.47,320
1569661726,297.359,-112.961,-16.4083,179.736,1.3623,-144.47,324
1569661726,297.359,-112.961,-16.4083,179.714,1.3623,-144.47,324
1569661726,297.359,-112.961,-16.4083,179.714,1.3623,-144.47,324
1569661726,297.359,-112.961,-16.4083,179.714,1.3623,-144.47,324
1569661726,297.359,-112.961,-16.4083,179.714,1.3623,-144.47,324
1569661726,297.359,-112.961,-16.4083,179.714,1.3623,-144.47,324
1569661726,297.359,-112.961,-16.4083,179.714,1.3623,-144.47,324
1569661726,297.359,-112.961,-16.4083,179.714,1.3623,-144.47,324
1569661726,297.359,-112.961,-16.4083,179.714,1.3623,-144.448,324
1569661726,297.359,-112.961,-16.4083,179.714,1.3623,-144.448,324
1569661726,297.359,-112.961,-16.4083,179.714,1.3623,-144.448,324
1569661726,297.359,-112.961,-16.4083,179.714,1.3623,-144.448,324
1569661726,297.359,-112.961,-16.4083,179.714,1.3623,-144.47,324
1569661726,297.359,-112.961,-16.4083,179.714,1.3623,-144.47,324
1569661726,297.359,-112.961,-16.4083,179.736,1.38428,-144.47,324
1569661726,297.359,-112.961,-16.4083,179.736,1.38428,-144.47,324
1569661726,297.359,-112.961,-16.4083,179.736,1.38428,-144.47,324
1569661726,297.359,-112.961,-16.4083,179.736,1.38428,-144.47,324
1569661726,297.359,-112.961,-16.4083,179.736,1.38428,-144.47,324
1569661726,297.359,-112.961,-16.4083,179.736,1.38428,-144.47,324
1569661726,297.359,-112.961,-16.4083,179.736,1.38428,-144.448,324
1569661726,297.359,-112.961,-16.4083,179.736,1.38428,-144.448,324
1569661726,297.359,-112.961,-16.4083,179.736,1.38428,-144.448,320
1569661726,297.359,-112.961,-16.4083,179.736,1.38428,-144.448,320
1569661726,297.359,-112.961,-16.4083,179.736,1.38428,-144.448,320
1569661726,297.359,-112.961,-16.4083,179.736,1.3623,-144.448,320
1569661726,297.359,-112.961,-16.4083,179.736,1.3623,-144.448,320
1569661726,297.359,-112.961,-16.4083,179.736,1.3623,-144.448,320
1569661726,297.359,-112.961,-16.4083,179.736,1.3623,-144.47,320
1569661726,297.359,-112.961,-16.4083,179.736,1.3623,-144.47,320
1569661726,297.359,-112.961,-16.4083,179.736,1.3623,-144.47,320
1569661726,297.359,-112.961,-16.4083,179.736,1.3623,-144.47,320
1569661727,297.359,-112.961,-16.4083,179.736,1.3623,-144.47,320
1569661727,297.359,-112.961,-16.4083,179.736,1.3623,-144.47,320
1569661727,297.359,-112.961,-16.4083,179.736,1.3623,-144.47,320
1569661727,297.359,-112.961,-16.4083,179.736,1.3623,-144.47,320
1569661727,297.359,-112.961,-16.4083,179.736,1.3623,-144.47,320
1569661727,297.359,-112.961,-16.4083,179.736,1.3623,-144.47,320
1569661727,297.359,-112.961,-16.4083,179.736,1.3623,-144.47,320
1569661727,297.359,-112.961,-16.4083,179.736,1.3623,-144.47,320
1569661727,297.359,-112.961,-16.4083,179.736,1.3623,-144.47,320
1569661727,297.359,-112.961,-16.4083,179.736,1.3623,-144.47,324
1569661727,297.359,-112.961,-16.4083,179.736,1.3623,-144.47,324
1569661727,297.359,-112.961,-16.4083,179.736,1.38428,-144.47,324
1569661727,297.359,-112.961,-16.4083,179.736,1.38428,-144.47,324
1569661727,297.359,-112.961,-16.4083,179.736,1.38428,-144.47,324
1569661727,297.359,-112.961,-16.4083,179.736,1.38428,-144.47,324
1569661727,297.359,-112.961,-16.4083,179.758,1.38428,-144.47,324
1569661727,297.359,-112.961,-16.4083,179.758,1.38428,-144.47,324
1569661727,297.359,-112.961,-16.2967,179.758,1.38428,-144.47,324
1569661727,297.359,-112.961,-16.2967,179.758,1.38428,-144.47,324
1569661727,297.359,-112.961,-16.2967,179.758,1.38428,-144.47,324
1569661727,297.359,-112.961,-16.2967,179.758,1.38428,-144.47,324
1569661727,297.359,-112.961,-16.2967,179.758,1.38428,-144.47,324
1569661727,297.359,-112.849,-16.2967,179.758,1.38428,-144.47,324
1569661727,297.359,-112.849,-16.2967,179.758,1.40625,-144.47,324
1569661727,297.359,-112.849,-16.2967,179.758,1.40625,-144.47,324
1569661727,297.359,-112.849,-16.2967,179.758,1.40625,-144.47,324
1569661727,297.359,-112.849,-16.2967,179.758,1.40625,-144.47,324
1569661727,297.359,-112.961,-16.2967,179.758,1.40625,-144.448,324
1569661727,297.359,-112.961,-16.2967,179.758,1.40625,-144.448,324
1569661727,297.359,-112.961,-16.2967,179.758,1.40625,-144.448,324
1569661727,297.359,-112.961,-16.2967,179.758,1.38428,-144.448,324
1569661727,297.359,-112.961,-16.2967,179.758,1.38428,-144.448,324
1569661727,297.359,-112.961,-16.2967,179.758,1.38428,-144.448,324
1569661727,297.359,-112.961,-16.2967,179.758,1.38428,-144.448,324
1569661727,297.359,-112.961,-16.2967,179.758,1.38428,-144.448,324
1569661727,297.359,-112.961,-16.2967,179.758,1.38428,-144.448,324
1569661727,297.359,-112.961,-16.2967,179.758,1.38428,-144.448,324
1569661727,297.359,-112.961,-16.2967,179.736,1.38428,-144.448,324
1569661727,297.359,-112.961,-16.2967,179.736,1.38428,-144.448,324
1569661727,297.359,-112.961,-16.2967,179.736,1.38428,-144.448,324
1569661727,297.359,-112.961,-16.2967,179.736,1.38428,-144.448,324
1569661727,297.359,-112.961,-16.2967,179.736,1.38428,-144.448,324
1569661727,297.359,-112.961,-16.2967,179.736,1.38428,-144.448,324
1569661727,297.359,-112.961,-16.2967,179.736,1.38428,-144.448,324
1569661727,297.359,-112.961,-16.2967,179.736,1.38428,-144.448,324
1569661727,297.359,-112.961,-16.4083,179.736,1.38428,-144.448,324
1569661727,297.359,-112.961,-16.4083,179.736,1.38428,-144.448,324
1569661727,297.359,-112.961,-16.4083,179.736,1.3623,-144.448,324
1569661727,297.359,-112.961,-16.4083,179.736,1.3623,-144.448,324
1569661727,297.359,-112.961,-16.4083,179.736,1.3623,-144.448,324
1569661727,297.359,-112.961,-16.4083,179.736,1.3623,-144.448,324
1569661727,297.359,-112.961,-16.4083,179.736,1.3623,-144.448,324
1569661727,297.359,-112.961,-16.4083,179.736,1.3623,-144.448,320
1569661727,297.359,-112.961,-16.4083,179.736,1.3623,-144.448,320
1569661727,297.359,-112.961,-16.4083,179.736,1.3623,-144.448,320
1569661727,297.359,-112.961,-16.4083,179.736,1.3623,-144.448,320
1569661727,297.359,-112.961,-16.4083,179.736,1.3623,-144.448,320
1569661727,297.359,-112.961,-16.4083,179.736,1.3623,-144.448,320
1569661727,297.359,-112.961,-16.4083,179.736,1.3623,-144.448,320
1569661727,297.359,-112.961,-16.4083,179.736,1.3623,-144.448,316
1569661727,297.359,-112.961,-16.4083,179.736,1.3623,-144.448,316
1569661727,297.359,-112.961,-16.4083,179.736,1.3623,-144.448,316
1569661727,297.359,-112.961,-16.4083,179.736,1.3623,-144.448,316
1569661727,297.359,-112.961,-16.4083,179.736,1.3623,-144.448,316
1569661727,297.359,-112.961,-16.4083,179.736,1.3623,-144.448,316
1569661727,297.359,-112.961,-16.4083,179.736,1.3623,-144.448,316
1569661727,297.359,-112.961,-16.4083,179.736,1.3623,-144.448,316
1569661727,297.359,-112.961,-16.4083,179.736,1.3623,-144.448,316
1569661727,297.359,-112.961,-16.4083,179.736,1.3623,-144.448,316
1569661727,297.359,-112.961,-16.4083,179.736,1.3623,-144.448,320
1569661727,297.359,-112.961,-16.4083,179.736,1.3623,-144.448,320
1569661727,297.359,-112.961,-16.4083,179.736,1.3623,-144.448,320
1569661727,297.359,-112.961,-16.4083,179.736,1.3623,-144.448,320
1569661727,297.359,-112.961,-16.4083,179.736,1.3623,-144.448,320
1569661727,297.359,-112.961,-16.4083,179.736,1.38428,-144.448,320
1569661727,297.359,-112.961,-16.4083,179.736,1.38428,-144.448,320
1569661727,297.359,-112.961,-16.4083,179.736,1.38428,-144.448,320
1569661727,297.359,-112.961,-16.4083,179.736,1.38428,-144.448,320
1569661727,297.359,-112.961,-16.2967,179.736,1.38428,-144.448,324
1569661727,297.359,-112.961,-16.2967,179.714,1.38428,-144.448,324
1569661727,297.359,-112.961,-16.2967,179.714,1.38428,-144.448,324
1569661727,297.359,-112.961,-16.2967,179.736,1.38428,-144.448,324
1569661727,297.359,-112.961,-16.2967,179.736,1.38428,-144.448,324
1569661727,297.359,-112.961,-16.2967,179.736,1.38428,-144.47,324
1569661727,297.359,-112.961,-16.2967,179.736,1.38428,-144.47,324
1569661727,297.359,-112.961,-16.2967,179.736,1.38428,-144.47,324
1569661727,297.359,-112.961,-16.2967,179.736,1.38428,-144.47,324
1569661727,297.359,-112.961,-16.2967,179.736,1.38428,-144.47,324
1569661727,297.359,-112.961,-16.2967,179.736,1.38428,-144.47,324
1569661727,297.359,-112.961,-16.2967,179.736,1.38428,-144.47,324
1569661727,297.359,-112.961,-16.2967,179.736,1.38428,-144.47,324
1569661727,297.359,-112.961,-16.4083,179.736,1.38428,-144.47,324
1569661727,297.359,-112.961,-16.4083,179.736,1.38428,-144.47,324
1569661727,297.359,-112.961,-16.4083,179.736,1.38428,-144.47,324
1569661727,297.359,-112.961,-16.4083,179.736,1.38428,-144.47,320
1569661727,297.359,-112.961,-16.4083,179.736,1.38428,-144.47,320
1569661727,297.359,-112.961,-16.4083,179.736,1.38428,-144.47,320
1569661738,320.353,-137.294,-16.0734,179.714,1.51611,-144.756,396
1569661738,320.353,-137.294,-16.0734,179.714,1.51611,-144.756,396
1569661738,320.353,-137.294,-16.0734,179.714,1.51611,-144.756,396
1569661738,320.353,-137.294,-16.0734,179.714,1.49414,-144.756,396
1569661738,320.353,-137.294,-16.0734,179.714,1.49414,-144.756,396
1569661738,320.353,-137.294,-16.0734,179.714,1.49414,-144.756,396
1569661738,320.353,-137.294,-16.0734,179.714,1.49414,-144.756,396
1569661738,320.353,-137.294,-16.0734,179.714,1.49414,-144.756,396
1569661738,320.353,-137.294,-16.0734,179.714,1.49414,-144.756,396
1569661738,320.353,-137.294,-16.0734,179.714,1.49414,-144.756,396
1569661738,320.353,-137.294,-16.0734,179.714,1.49414,-144.756,396
1569661738,320.353,-137.294,-16.0734,179.714,1.49414,-144.756,396
1569661738,320.353,-137.294,-16.0734,179.714,1.49414,-144.756,396
1569661738,320.353,-137.294,-16.0734,179.714,1.49414,-144.734,396
1569661738,320.353,-137.294,-16.0734,179.714,1.49414,-144.734,396
1569661738,320.353,-137.294,-16.0734,179.692,1.49414,-144.734,392
1569661738,320.353,-137.294,-16.0734,179.692,1.49414,-144.734,392
1569661738,320.353,-137.294,-16.0734,179.714,1.49414,-144.734,392
1569661738,320.353,-137.294,-16.0734,179.714,1.49414,-144.734,392
1569661738,320.353,-137.294,-16.0734,179.714,1.49414,-144.734,392
1569661738,320.353,-137.294,-16.0734,179.714,1.49414,-144.734,392
1569661738,320.353,-137.294,-16.0734,179.714,1.49414,-144.734,392
1569661738,320.353,-137.294,-16.0734,179.714,1.49414,-144.734,392
1569661738,320.353,-137.294,-16.0734,179.714,1.49414,-144.734,392
1569661738,320.353,-137.294,-16.0734,179.692,1.49414,-144.734,392
1569661738,320.353,-137.294,-16.0734,179.692,1.49414,-144.734,392
1569661738,320.353,-137.294,-16.0734,179.692,1.49414,-144.734,392
1569661738,320.353,-137.294,-16.0734,179.692,1.49414,-144.734,392
1569661738,320.353,-137.294,-16.0734,179.692,1.49414,-144.734,392
1569661738,320.353,-137.294,-16.0734,179.692,1.49414,-144.734,392
1569661738,320.353,-137.294,-16.0734,179.692,1.49414,-144.734,396
1569661738,320.353,-137.294,-16.0734,179.692,1.49414,-144.734,396
1569661738,320.353,-137.294,-16.0734,179.692,1.49414,-144.734,396
1569661738,320.353,-137.294,-16.0734,179.692,1.51611,-144.734,396
1569661738,320.353,-137.294,-16.0734,179.692,1.51611,-144.734,396
1569661738,320.353,-137.294,-16.0734,179.692,1.51611,-144.734,400
1569661738,320.353,-137.294,-16.0734,179.692,1.51611,-144.734,400
1569661738,320.353,-137.294,-16.0734,179.714,1.49414,-144.734,400
1569661738,320.353,-137.294,-16.0734,179.714,1.49414,-144.734,400
1569661738,320.353,-137.294,-16.0734,179.714,1.49414,-144.734,400
1569661738,320.353,-137.294,-16.0734,179.714,1.49414,-144.734,400
1569661738,320.353,-137.294,-16.0734,179.714,1.49414,-144.734,400
1569661738,320.353,-137.294,-16.0734,179.714,1.49414,-144.756,400
1569661738,320.353,-137.294,-16.0734,179.714,1.49414,-144.756,400
1569661738,320.353,-137.294,-16.0734,179.714,1.49414,-144.756,400
1569661738,320.353,-137.294,-16.0734,179.714,1.49414,-144.756,400
1569661738,320.353,-137.294,-16.0734,179.714,1.49414,-144.756,400
1569661738,320.353,-137.294,-16.0734,179.714,1.49414,-144.756,400
1569661738,320.353,-137.294,-16.0734,179.714,1.49414,-144.756,400
1569661738,320.353,-137.294,-16.0734,179.714,1.49414,-144.756,400
1569661738,320.353,-137.294,-16.0734,179.714,1.49414,-144.756,400
1569661738,320.353,-137.294,-16.0734,179.714,1.49414,-144.756,400
1569661738,320.353,-137.294,-16.0734,179.714,1.49414,-144.734,400
1569661739,320.353,-137.294,-16.0734,179.714,1.49414,-144.734,400
1569661739,320.353,-137.294,-16.0734,179.714,1.49414,-144.756,400
1569661739,320.353,-137.294,-16.0734,179.714,1.49414,-144.756,396
1569661739,320.353,-137.294,-16.0734,179.714,1.49414,-144.756,396
1569661739,320.353,-137.294,-16.0734,179.714,1.49414,-144.756,396
1569661739,320.353,-137.294,-16.0734,179.714,1.49414,-144.756,396
1569661739,320.353,-137.294,-16.0734,179.714,1.49414,-144.756,396
1569661739,320.353,-137.294,-16.0734,179.714,1.51611,-144.756,396
1569661739,320.353,-137.294,-16.0734,179.714,1.51611,-144.734,396
1569661739,320.353,-137.294,-16.0734,179.692,1.51611,-144.734,396
1569661739,320.353,-137.294,-16.0734,179.692,1.51611,-144.734,396
1569661739,320.353,-137.294,-16.0734,179.692,1.51611,-144.734,396
1569661739,320.353,-137.294,-16.0734,179.692,1.51611,-144.734,396
1569661739,320.353,-137.294,-16.0734,179.692,1.51611,-144.734,396
1569661739,320.353,-137.294,-16.0734,179.692,1.51611,-144.734,400
1569661739,320.353,-137.294,-16.0734,179.692,1.51611,-144.734,400
1569661739,320.353,-137.294,-16.0734,179.692,1.51611,-144.734,400
1569661739,320.353,-137.294,-16.0734,179.692,1.51611,-144.734,400
1569661739,320.353,-137.294,-16.0734,179.692,1.51611,-144.734,400
1569661739,320.353,-137.294,-16.0734,179.692,1.49414,-144.734,400
1569661739,320.353,-137.294,-16.0734,179.692,1.49414,-144.734,400
1569661739,320.353,-137.294,-16.0734,179.692,1.49414,-144.734,400
1569661739,320.353,-137.294,-16.0734,179.692,1.49414,-144.734,404
1569661739,320.353,-137.294,-16.0734,179.692,1.49414,-144.734,404
1569661739,320.353,-137.294,-16.0734,179.692,1.49414,-144.734,404
1569661739,320.353,-137.294,-16.0734,179.692,1.49414,-144.734,404
1569661739,320.353,-137.294,-16.0734,179.692,1.49414,-144.734,404
1569661739,320.353,-137.294,-16.0734,179.692,1.49414,-144.734,404
1569661739,320.353,-137.294,-16.0734,179.692,1.49414,-144.734,404
1569661739,320.353,-137.294,-16.0734,179.692,1.49414,-144.734,404
1569661739,320.353,-137.294,-16.0734,179.692,1.49414,-144.734,404
1569661739,320.353,-137.294,-16.0734,179.692,1.49414,-144.734,404
1569661739,320.353,-137.294,-16.0734,179.692,1.49414,-144.734,404
1569661739,320.353,-137.294,-16.0734,179.692,1.49414,-144.734,404
1569661739,320.353,-137.294,-16.0734,179.692,1.49414,-144.734,400
1569661739,320.353,-137.294,-16.0734,179.692,1.49414,-144.734,400
1569661739,320.353,-137.294,-16.0734,179.67,1.49414,-144.734,400
1569661739,320.353,-137.294,-16.0734,179.67,1.49414,-144.734,400
1569661739,320.353,-137.294,-16.0734,179.67,1.49414,-144.734,400
1569661739,320.353,-137.294,-16.0734,179.692,1.49414,-144.734,404
1569661739,320.353,-137.294,-16.0734,179.692,1.49414,-144.734,404
1569661739,320.353,-137.294,-16.0734,179.692,1.49414,-144.734,404
1569661739,320.241,-137.294,-16.0734,179.692,1.49414,-144.734,404
1569661739,320.241,-137.294,-16.0734,179.692,1.49414,-144.734,404
1569661739,320.241,-137.294,-16.0734,179.692,1.49414,-144.734,404
1569661739,320.241,-137.294,-16.0734,179.692,1.49414,-144.734,404
1569661739,320.241,-137.294,-16.0734,179.692,1.49414,-144.734,408
1569661739,320.241,-137.294,-16.0734,179.692,1.49414,-144.734,408
1569661739,320.241,-137.294,-16.0734,179.692,1.49414,-144.734,408
1569661739,320.241,-137.294,-16.0734,179.692,1.49414,-144.734,408
1569661739,320.241,-137.294,-16.0734,179.692,1.49414,-144.734,408
1569661739,320.241,-137.294,-16.0734,179.692,1.49414,-144.734,408
1569661739,320.241,-137.294,-16.0734,179.692,1.49414,-144.734,408
1569661739,320.241,-137.294,-16.0734,179.692,1.49414,-144.734,408
1569661739,320.241,-137.294,-16.0734,179.692,1.49414,-144.756,408
1569661739,320.241,-137.294,-16.0734,179.692,1.49414,-144.756,408
1569661739,320.241,-137.294,-16.0734,179.692,1.49414,-144.756,412
1569661739,320.241,-137.294,-16.0734,179.692,1.49414,-144.756,412
1569661739,320.241,-137.294,-16.0734,179.692,1.49414,-144.756,412
1569661739,320.241,-137.294,-16.0734,179.692,1.49414,-144.756,412
1569661739,320.241,-137.294,-16.0734,179.692,1.49414,-144.756,412
1569661739,320.241,-137.294,-16.0734,179.692,1.49414,-144.756,412
1569661739,320.241,-137.294,-16.0734,179.692,1.49414,-144.756,412
1569661739,320.241,-137.294,-16.0734,179.692,1.49414,-144.756,408
1569661739,320.241,-137.294,-16.0734,179.692,1.49414,-144.756,408
1569661739,320.241,-137.294,-16.0734,179.692,1.49414,-144.756,408
1569661739,320.241,-137.294,-16.0734,179.692,1.49414,-144.756,408
1569661739,320.241,-137.294,-16.0734,179.692,1.49414,-144.756,408
1569661739,320.241,-137.294,-16.0734,179.692,1.49414,-144.756,408
1569661739,320.241,-137.294,-16.0734,179.692,1.49414,-144.756,408
1569661739,320.241,-137.294,-16.0734,179.67,1.49414,-144.756,408
1569661739,320.241,-137.294,-16.0734,179.67,1.47217,-144.756,408
1569661739,320.241,-137.294,-16.0734,179.67,1.47217,-144.756,408
1569661739,320.241,-137.294,-16.0734,179.67,1.47217,-144.756,408
1569661739,320.241,-137.294,-16.0734,179.67,1.47217,-144.756,408
1569661739,320.241,-137.294,-16.0734,179.67,1.47217,-144.756,408
1569661739,320.241,-137.294,-16.0734,179.67,1.47217,-144.756,408
1569661739,320.241,-137.294,-16.0734,179.67,1.47217,-144.756,408
1569661739,320.241,-137.294,-16.0734,179.67,1.47217,-144.756,408
1569661739,320.241,-137.294,-16.0734,179.67,1.49414,-144.756,412
1569661739,320.241,-137.294,-16.0734,179.67,1.49414,-144.756,412
1569661739,320.241,-137.294,-16.0734,179.67,1.49414,-144.756,412
1569661739,320.241,-137.294,-16.0734,179.67,1.49414,-144.756,412
1569661739,320.241,-137.294,-16.0734,179.67,1.49414,-144.756,416
1569661739,320.241,-137.294,-16.0734,179.67,1.49414,-144.756,416
1569661739,320.241,-137.294,-16.0734,179.67,1.49414,-144.756,416
1569661739,320.241,-137.406,-16.0734,179.67,1.49414,-144.756,416
1569661739,320.241,-137.406,-16.0734,179.67,1.49414,-144.756,416
1569661739,320.241,-137.406,-16.0734,179.67,1.49414,-144.756,416
1569661739,320.241,-137.406,-16.0734,179.67,1.49414,-144.756,416
1569661739,320.353,-137.406,-16.0734,179.67,1.49414,-144.756,416
1569661739,320.353,-137.406,-16.0734,179.67,1.49414,-144.756,416
1569661739,320.353,-137.406,-16.0734,179.67,1.49414,-144.756,416
1569661739,320.353,-137.406,-16.0734,179.67,1.49414,-144.756,416
1569661739,320.353,-137.406,-16.0734,179.67,1.49414,-144.756,416
1569661739,320.353,-137.406,-16.0734,179.67,1.51611,-144.756,416
1569661739,320.353,-137.406,-15.9618,179.67,1.51611,-144.756,416
1569661739,320.353,-137.406,-15.9618,179.67,1.51611,-144.756,416
1569661739,320.353,-137.406,-15.9618,179.67,1.51611,-144.756,416
1569661739,320.353,-137.406,-15.9618,179.67,1.51611,-144.756,416
1569661740,320.353,-137.406,-15.9618,179.67,1.51611,-144.756,416
1569661740,320.353,-137.406,-15.9618,179.67,1.51611,-144.756,412
1569661740,320.353,-137.406,-15.9618,179.67,1.51611,-144.756,412
1569661740,320.353,-137.406,-15.9618,179.67,1.51611,-144.756,412
1569661740,320.353,-137.406,-15.9618,179.67,1.51611,-144.734,412
1569661740,320.353,-137.406,-15.9618,179.67,1.51611,-144.734,412
1569661740,320.353,-137.406,-15.9618,179.67,1.51611,-144.734,412
1569661740,320.353,-137.294,-15.9618,179.67,1.51611,-144.734,412
1569661740,320.353,-137.294,-15.9618,179.67,1.51611,-144.734,412
1569661740,320.353,-137.294,-15.9618,179.67,1.51611,-144.734,412
1569661740,320.353,-137.294,-15.9618,179.67,1.49414,-144.734,412
1569661740,320.353,-137.294,-15.9618,179.67,1.49414,-144.734,412
1569661740,320.353,-137.294,-15.9618,179.67,1.49414,-144.734,412
1569661740,320.353,-137.294,-16.0734,179.67,1.49414,-144.734,408
1569661740,320.353,-137.294,-16.0734,179.67,1.49414,-144.734,408
1569661740,320.353,-137.294,-16.0734,179.67,1.49414,-144.734,408
1569661740,320.353,-137.294,-16.0734,179.67,1.49414,-144.734,408
1569661740,320.353,-137.294,-16.0734,179.67,1.49414,-144.734,408
1569661740,320.353,-137.294,-16.0734,179.67,1.49414,-144.734,408
1569661740,320.353,-137.294,-16.0734,179.67,1.49414,-144.734,408
1569661740,320.353,-137.294,-16.0734,179.67,1.49414,-144.734,408
1569661740,320.353,-137.294,-16.0734,179.67,1.49414,-144.734,408
1569661740,320.353,-137.294,-16.0734,179.67,1.49414,-144.734,408
1569661740,320.353,-137.294,-16.0734,179.67,1.49414,-144.734,408
1569661740,320.353,-137.294,-16.0734,179.67,1.49414,-144.734,408
1569661740,320.353,-137.294,-16.0734,179.67,1.49414,-144.734,408
1569661740,320.353,-137.294,-16.0734,179.67,1.49414,-144.734,408
1569661740,320.353,-137.294,-16.0734,179.67,1.49414,-144.734,408
1569661740,320.353,-137.294,-16.0734,179.67,1.49414,-144.734,408
1569661740,320.353,-137.294,-16.0734,179.67,1.49414,-144.734,408
1569661740,320.353,-137.294,-16.0734,179.67,1.49414,-144.734,408
1569661740,320.353,-137.294,-16.0734,179.692,1.49414,-144.734,404
1569661740,320.353,-137.294,-16.0734,179.692,1.49414,-144.734,404
1569661740,320.353,-137.294,-16.0734,179.692,1.47217,-144.734,404
1569661740,320.353,-137.294,-16.0734,179.692,1.49414,-144.734,404
1569661740,320.353,-137.294,-16.0734,179.692,1.49414,-144.734,404
1569661740,320.353,-137.294,-16.0734,179.692,1.49414,-144.734,404
1569661740,320.353,-137.294,-16.0734,179.692,1.49414,-144.734,404
1569661740,320.353,-137.294,-16.0734,179.692,1.49414,-144.734,404
1569661740,320.353,-137.294,-16.0734,179.692,1.49414,-144.734,404
1569661740,320.353,-137.294,-16.0734,179.692,1.49414,-144.734,404
1569661740,320.353,-137.294,-16.0734,179.692,1.49414,-144.734,404
1569661740,320.353,-137.294,-16.0734,179.692,1.49414,-144.734,404
1569661740,320.353,-137.294,-16.0734,179.692,1.49414,-144.734,404
1569661740,320.353,-137.294,-16.0734,179.692,1.49414,-144.734,408
1569661740,320.353,-137.294,-16.0734,179.692,1.49414,-144.734,408
1569661740,320.353,-137.294,-16.0734,179.692,1.49414,-144.734,408
1569661740,320.353,-137.294,-16.0734,179.692,1.49414,-144.734,408
1569661740,320.353,-137.294,-16.0734,179.692,1.49414,-144.734,408
1569661740,320.353,-137.294,-16.0734,179.67,1.49414,-144.734,408
1569661740,320.353,-137.294,-16.0734,179.67,1.49414,-144.734,408
1569661740,320.353,-137.294,-16.0734,179.67,1.49414,-144.734,408
1569661740,320.353,-137.294,-16.0734,179.67,1.49414,-144.734,412
1569661740,320.353,-137.294,-16.0734,179.67,1.49414,-144.734,412
1569661740,320.353,-137.294,-16.0734,179.67,1.49414,-144.734,412
1569661740,320.353,-137.294,-16.0734,179.67,1.49414,-144.734,408
1569661740,320.353,-137.294,-16.0734,179.67,1.49414,-144.734,408
1569661740,320.353,-137.294,-16.0734,179.692,1.49414,-144.734,408
1569661740,320.353,-137.294,-16.0734,179.692,1.49414,-144.734,408
1569661740,320.353,-137.294,-16.0734,179.692,1.49414,-144.734,408
1569661740,320.353,-137.294,-16.0734,179.692,1.49414,-144.734,408
1569661740,320.353,-137.294,-16.0734,179.692,1.49414,-144.734,408
1569661740,320.353,-137.294,-16.0734,179.692,1.49414,-144.734,408
1569661740,320.353,-137.294,-16.0734,179.692,1.49414,-144.734,408
1569661740,320.353,-137.294,-16.0734,179.692,1.49414,-144.734,408
1569661740,320.353,-137.294,-16.0734,179.692,1.49414,-144.734,408
1569661740,320.353,-137.294,-16.0734,179.692,1.49414,-144.734,408
1569661740,320.353,-137.294,-16.0734,179.692,1.49414,-144.734,408
1569661740,320.353,-137.294,-16.0734,179.692,1.49414,-144.734,404
1569661740,320.353,-137.294,-16.0734,179.714,1.49414,-144.734,404
1569661740,320.353,-137.294,-16.0734,179.714,1.47217,-144.734,404
1569661740,320.353,-137.294,-16.0734,179.714,1.47217,-144.734,404
1569661740,320.353,-137.294,-16.0734,179.714,1.47217,-144.734,404
1569661740,320.353,-137.294,-16.0734,179.714,1.47217,-144.734,400
1569661740,320.353,-137.294,-16.0734,179.714,1.47217,-144.734,400
1569661740,320.353,-137.294,-16.0734,179.714,1.47217,-144.756,400
1569661740,320.353,-137.294,-16.0734,179.714,1.47217,-144.756,400
1569661740,320.353,-137.294,-16.0734,179.714,1.47217,-144.756,400
1569661740,320.353,-137.294,-16.0734,179.714,1.49414,-144.756,400
1569661740,320.353,-137.294,-16.0734,179.714,1.49414,-144.756,400
1569661740,320.353,-137.294,-16.0734,179.714,1.49414,-144.734,400
1569661740,320.353,-137.294,-16.0734,179.714,1.49414,-144.734,400
1569661740,320.353,-137.294,-16.0734,179.714,1.49414,-144.734,400
1569661740,320.353,-137.294,-16.0734,179.714,1.49414,-144.734,400
1569661740,320.353,-137.294,-16.0734,179.714,1.49414,-144.734,400
1569661740,320.353,-137.294,-16.0734,179.714,1.49414,-144.734,400
1569661740,320.353,-137.294,-15.9618,179.714,1.49414,-144.734,400
1569661740,320.353,-137.294,-15.9618,179.692,1.49414,-144.734,400
1569661740,320.353,-137.294,-15.9618,179.692,1.49414,-144.734,400
1569661740,320.353,-137.294,-15.9618,179.692,1.51611,-144.734,400
1569661740,320.353,-137.294,-15.9618,179.692,1.51611,-144.734,400
1569661740,320.353,-137.294,-15.9618,179.692,1.49414,-144.734,400
1569661740,320.353,-137.294,-15.9618,179.692,1.49414,-144.734,400
1569661740,320.353,-137.294,-15.9618,179.692,1.49414,-144.734,400
1569661740,320.353,-137.294,-15.9618,179.692,1.49414,-144.734,400
1569661740,320.353,-137.294,-15.9618,179.692,1.49414,-144.734,400
1569661740,320.353,-137.294,-15.9618,179.67,1.49414,-144.734,400
1569661740,320.353,-137.294,-15.9618,179.67,1.49414,-144.734,400
1569661740,320.353,-137.294,-15.9618,179.67,1.49414,-144.734,400
1569661740,320.353,-137.406,-15.9618,179.67,1.49414,-144.734,400
1569661741,320.353,-137.406,-15.9618,179.67,1.49414,-144.734,404
1569661741,320.353,-137.406,-15.9618,179.67,1.49414,-144.734,404
1569661741,320.353,-137.406,-15.9618,179.67,1.49414,-144.734,404
1569661741,320.353,-137.406,-15.9618,179.67,1.49414,-144.734,404
1569661741,320.353,-137.294,-16.0734,179.67,1.49414,-144.734,404
1569661741,320.353,-137.294,-16.0734,179.67,1.49414,-144.734,404
1569661741,320.353,-137.294,-15.9618,179.67,1.51611,-144.734,404
1569661741,320.353,-137.294,-15.9618,179.67,1.51611,-144.734,404
1569661741,320.353,-137.294,-15.9618,179.67,1.51611,-144.734,404
1569661741,320.353,-137.294,-15.9618,179.67,1.51611,-144.734,404
1569661741,320.353,-137.294,-15.9618,179.67,1.51611,-144.734,404
1569661741,320.353,-137.294,-15.9618,179.67,1.51611,-144.734,404
1569661741,320.353,-137.294,-15.9618,179.67,1.51611,-144.734,408
1569661741,320.353,-137.294,-15.9618,179.67,1.51611,-144.734,408
1569661741,320.353,-137.294,-15.9618,179.67,1.51611,-144.734,408
1569661741,320.353,-137.294,-15.9618,179.67,1.51611,-144.734,408
1569661741,320.353,-137.294,-15.9618,179.67,1.51611,-144.734,408
1569661741,320.353,-137.294,-15.9618,179.67,1.51611,-144.734,408
1569661741,320.353,-137.294,-15.9618,179.692,1.51611,-144.734,408
1569661741,320.353,-137.294,-15.9618,179.692,1.51611,-144.734,412
1569661741,320.353,-137.294,-15.9618,179.692,1.51611,-144.734,412
1569661741,320.353,-137.294,-15.9618,179.692,1.51611,-144.734,412
1569661741,320.353,-137.294,-15.9618,179.692,1.51611,-144.756,412
1569661741,320.353,-137.294,-15.9618,179.692,1.51611,-144.756,412
1569661741,320.353,-137.294,-15.9618,179.692,1.51611,-144.756,412
1569661741,320.353,-137.294,-15.9618,179.692,1.51611,-144.756,412
1569661741,320.353,-137.294,-15.9618,179.692,1.51611,-144.756,412
1569661741,320.353,-137.294,-15.9618,179.692,1.51611,-144.756,412
1569661741,320.353,-137.294,-15.9618,179.692,1.51611,-144.756,412
1569661741,320.353,-137.294,-15.9618,179.692,1.51611,-144.756,412
1569661741,320.353,-137.294,-15.9618,179.692,1.51611,-144.756,412
1569661741,320.353,-137.294,-15.9618,179.692,1.51611,-144.756,412
1569661741,320.353,-137.294,-15.9618,179.692,1.51611,-144.756,412
1569661741,320.353,-137.294,-15.9618,179.692,1.51611,-144.756,412
1569661741,320.353,-137.294,-15.9618,179.692,1.51611,-144.756,412
1569661741,320.353,-137.294,-15.9618,179.692,1.51611,-144.756,412
1569661741,320.353,-137.294,-15.9618,179.692,1.51611,-144.756,412
1569661741,320.353,-137.294,-15.9618,179.692,1.51611,-144.756,412
1569661741,320.353,-137.294,-15.9618,179.692,1.51611,-144.756,412
1569661741,320.353,-137.294,-15.9618,179.692,1.51611,-144.756,412
1569661741,320.353,-137.294,-15.9618,179.692,1.51611,-144.756,412
1569661741,320.353,-137.294,-15.9618,179.692,1.51611,-144.756,412
1569661741,320.353,-137.294,-15.9618,179.692,1.51611,-144.756,412
1569661741,320.353,-137.294,-15.9618,179.692,1.51611,-144.756,412
1569661741,320.353,-137.294,-15.9618,179.714,1.51611,-144.756,412
1569661741,320.353,-137.294,-15.9618,179.714,1.51611,-144.756,412
1569661741,320.353,-137.294,-15.9618,179.714,1.51611,-144.756,412
1569661741,320.353,-137.294,-15.9618,179.714,1.51611,-144.756,412
1569661741,320.353,-137.294,-15.9618,179.714,1.51611,-144.756,416
1569661741,320.353,-137.294,-15.9618,179.714,1.51611,-144.756,416
1569661741,320.353,-137.294,-15.9618,179.714,1.51611,-144.756,416
1569661741,320.353,-137.294,-15.9618,179.714,1.51611,-144.734,416
1569661741,320.353,-137.294,-15.9618,179.714,1.51611,-144.734,416
1569661741,320.353,-137.294,-15.9618,179.714,1.51611,-144.734,416
1569661741,320.353,-137.294,-15.9618,179.714,1.51611,-144.734,416
1569661741,320.353,-137.294,-15.9618,179.714,1.51611,-144.734,416
1569661741,320.353,-137.294,-15.9618,179.714,1.51611,-144.734,416
1569661741,320.353,-137.294,-15.9618,179.714,1.51611,-144.734,416
1569661741,320.353,-137.294,-15.9618,179.714,1.51611,-144.734,416
1569661741,320.353,-137.294,-15.9618,179.714,1.51611,-144.734,416
1569661741,320.353,-137.294,-15.9618,179.714,1.51611,-144.734,416
1569661741,320.353,-137.294,-15.9618,179.714,1.51611,-144.734,416
1569661741,320.353,-137.294,-15.9618,179.714,1.51611,-144.734,416
1569661741,320.353,-137.294,-15.9618,179.714,1.51611,-144.734,416
1569661741,320.353,-137.294,-15.9618,179.714,1.51611,-144.734,412
1569661741,320.353,-137.294,-15.9618,179.714,1.51611,-144.734,412
1569661741,320.353,-137.294,-15.9618,179.714,1.51611,-144.734,412
1569661741,320.353,-137.294,-15.9618,179.714,1.51611,-144.734,412
1569661741,320.353,-137.294,-15.9618,179.714,1.51611,-144.734,412
1569661741,320.353,-137.294,-15.9618,179.714,1.51611,-144.734,412
1569661741,320.353,-137.294,-15.9618,179.692,1.51611,-144.734,412
1569661741,320.353,-137.294,-15.9618,179.692,1.51611,-144.734,412
1569661741,320.353,-137.294,-15.9618,179.692,1.51611,-144.734,412
1569661741,320.353,-137.294,-15.9618,179.692,1.51611,-144.734,412
1569661741,320.353,-137.294,-15.9618,179.692,1.51611,-144.734,412
1569661741,320.353,-137.294,-15.9618,179.692,1.51611,-144.734,408
1569661741,320.353,-137.294,-15.9618,179.692,1.51611,-144.734,408
1569661741,320.353,-137.294,-15.9618,179.692,1.49414,-144.734,408
1569661741,320.353,-137.294,-15.9618,179.692,1.49414,-144.734,404
1569661741,320.353,-137.294,-15.9618,179.692,1.49414,-144.734,404
1569661741,320.353,-137.294,-15.9618,179.692,1.49414,-144.734,404
1569661741,320.353,-137.294,-15.9618,179.692,1.49414,-144.734,400
1569661741,320.353,-137.294,-15.9618,179.692,1.49414,-144.734,400
1569661741,320.353,-137.294,-15.9618,179.692,1.49414,-144.734,396
1569661741,320.353,-137.294,-15.9618,179.692,1.49414,-144.734,396
1569661741,320.353,-137.294,-15.9618,179.692,1.49414,-144.734,396
1569661741,320.353,-137.294,-15.9618,179.692,1.49414,-144.734,392
1569661741,320.353,-137.294,-15.9618,179.692,1.49414,-144.734,392
1569661741,320.353,-137.294,-15.9618,179.692,1.49414,-144.734,392
1569661741,320.353,-137.294,-15.9618,179.692,1.49414,-144.734,388
1569661741,320.353,-137.294,-15.9618,179.692,1.49414,-144.734,388
1569661741,320.353,-137.294,-15.9618,179.692,1.49414,-144.734,388
1569661741,320.353,-137.294,-15.9618,179.692,1.49414,-144.734,388
1569661741,320.353,-137.294,-15.9618,179.692,1.49414,-144.734,388
1569661741,320.353,-137.294,-15.9618,179.692,1.49414,-144.734,388
1569661741,320.353,-137.294,-15.9618,179.692,1.49414,-144.734,388
1569661741,320.353,-137.294,-15.9618,179.692,1.49414,-144.734,388
1569661741,320.353,-137.294,-16.0734,179.692,1.49414,-144.734,388
1569661741,320.353,-137.294,-16.0734,179.692,1.49414,-144.734,388
1569661741,320.353,-137.294,-16.0734,179.67,1.49414,-144.734,388
1569661742,320.353,-137.294,-16.0734,179.692,1.49414,-144.734,388
1569661742,320.353,-137.294,-16.0734,179.692,1.49414,-144.734,388
1569661742,320.353,-137.294,-16.0734,179.692,1.49414,-144.734,388
1569661742,320.353,-137.294,-16.0734,179.692,1.49414,-144.734,388
1569661742,320.353,-137.294,-16.0734,179.692,1.49414,-144.734,388
1569661742,320.353,-137.294,-16.0734,179.692,1.49414,-144.734,388
1569661742,320.353,-137.294,-16.0734,179.692,1.49414,-144.734,388
1569661742,320.353,-137.294,-16.0734,179.692,1.49414,-144.734,388
1569661742,320.353,-137.294,-16.0734,179.692,1.49414,-144.756,388
1569661742,320.353,-137.294,-16.0734,179.692,1.49414,-144.756,388
1569661742,320.353,-137.294,-16.0734,179.692,1.49414,-144.756,388
1569661742,320.353,-137.294,-16.0734,179.692,1.49414,-144.756,388
1569661742,320.353,-137.294,-16.0734,179.692,1.49414,-144.756,388
1569661742,320.353,-137.294,-16.0734,179.692,1.49414,-144.756,388
1569661742,320.353,-137.294,-16.0734,179.692,1.49414,-144.756,388
1569661742,320.353,-137.294,-16.0734,179.692,1.49414,-144.756,388
1569661742,320.353,-137.294,-16.0734,179.692,1.49414,-144.756,388
1569661742,320.353,-137.294,-16.0734,179.692,1.49414,-144.756,388
1569661742,320.353,-137.294,-16.0734,179.692,1.49414,-144.756,388
1569661742,320.353,-137.294,-16.0734,179.67,1.49414,-144.756,388
1569661742,320.353,-137.294,-16.0734,179.67,1.49414,-144.756,388
1569661742,320.353,-137.406,-16.0734,179.67,1.49414,-144.756,388
1569661742,320.353,-137.406,-16.0734,179.67,1.49414,-144.756,388
1569661742,320.353,-137.406,-16.0734,179.67,1.49414,-144.756,388
1569661742,320.353,-137.406,-16.0734,179.67,1.49414,-144.734,388
1569661742,320.353,-137.406,-16.0734,179.67,1.49414,-144.734,388
1569661742,320.353,-137.406,-16.0734,179.67,1.47217,-144.734,388
1569661742,320.353,-137.406,-16.0734,179.67,1.47217,-144.734,388
1569661742,320.353,-137.406,-16.0734,179.67,1.47217,-144.734,388
1569661742,320.353,-137.406,-16.0734,179.67,1.47217,-144.734,388
1569661742,320.353,-137.406,-16.0734,179.67,1.47217,-144.734,388
1569661742,320.353,-137.406,-16.0734,179.67,1.47217,-144.734,388
1569661742,320.353,-137.406,-16.0734,179.67,1.47217,-144.734,388
1569661742,320.353,-137.406,-16.0734,179.67,1.47217,-144.734,388
1569661742,320.353,-137.406,-16.0734,179.67,1.47217,-144.734,388
1569661742,320.353,-137.406,-16.0734,179.67,1.47217,-144.756,388
1569661742,320.353,-137.406,-16.0734,179.67,1.47217,-144.756,392
1569661742,320.353,-137.406,-16.0734,179.67,1.47217,-144.756,392
1569661742,320.353,-137.406,-16.0734,179.67,1.49414,-144.756,392
1569661742,320.353,-137.406,-16.0734,179.67,1.49414,-144.756,392
1569661742,320.353,-137.406,-16.0734,179.67,1.49414,-144.756,392
1569661742,320.353,-137.406,-16.0734,179.67,1.49414,-144.756,392
1569661742,320.353,-137.294,-16.0734,179.67,1.49414,-144.756,392
1569661742,320.353,-137.294,-16.0734,179.692,1.49414,-144.756,392
1569661742,320.353,-137.294,-16.0734,179.692,1.49414,-144.756,392
1569661742,320.353,-137.294,-16.0734,179.67,1.49414,-144.756,396
1569661742,320.353,-137.294,-16.0734,179.67,1.49414,-144.756,396
1569661742,320.353,-137.406,-16.0734,179.67,1.49414,-144.756,396
1569661742,320.353,-137.406,-16.0734,179.67,1.49414,-144.756,396
1569661742,320.353,-137.406,-16.0734,179.67,1.49414,-144.756,396
1569661742,320.353,-137.406,-16.0734,179.67,1.49414,-144.756,400
1569661742,320.353,-137.406,-16.0734,179.67,1.49414,-144.756,400
1569661742,320.353,-137.406,-16.0734,179.67,1.49414,-144.756,400
1569661742,320.353,-137.406,-16.0734,179.67,1.49414,-144.756,400
1569661742,320.353,-137.406,-16.0734,179.67,1.49414,-144.756,400
1569661742,320.353,-137.406,-16.0734,179.67,1.49414,-144.734,404
1569661742,320.353,-137.406,-16.0734,179.67,1.49414,-144.734,404
1569661742,320.353,-137.406,-16.0734,179.67,1.49414,-144.734,404
1569661742,320.353,-137.406,-16.0734,179.67,1.49414,-144.734,404
1569661742,320.353,-137.406,-16.0734,179.67,1.49414,-144.734,404
1569661742,320.353,-137.406,-16.0734,179.67,1.49414,-144.734,404
1569661742,320.353,-137.406,-16.0734,179.67,1.49414,-144.734,408
1569661742,320.353,-137.406,-16.0734,179.67,1.49414,-144.734,408
1569661742,320.353,-137.406,-16.0734,179.67,1.49414,-144.734,408
1569661742,320.353,-137.406,-16.0734,179.67,1.49414,-144.734,408
1569661742,320.353,-137.406,-16.0734,179.67,1.49414,-144.734,408
1569661742,320.353,-137.406,-16.0734,179.67,1.49414,-144.734,408
1569661742,320.353,-137.406,-16.0734,179.67,1.49414,-144.734,408
1569661742,320.353,-137.406,-16.0734,179.67,1.49414,-144.734,408
1569661742,320.353,-137.294,-16.0734,179.692,1.49414,-144.734,408
1569661742,320.353,-137.294,-16.0734,179.692,1.49414,-144.734,408
1569661742,320.353,-137.294,-16.0734,179.692,1.49414,-144.734,408
1569661742,320.353,-137.294,-16.0734,179.692,1.49414,-144.734,408
1569661742,320.353,-137.294,-16.0734,179.692,1.49414,-144.734,408
1569661742,320.353,-137.294,-16.0734,179.692,1.49414,-144.734,408
1569661742,320.353,-137.294,-16.0734,179.692,1.49414,-144.734,408
1569661742,320.353,-137.294,-16.0734,179.692,1.49414,-144.734,408
1569661742,320.353,-137.294,-16.0734,179.692,1.49414,-144.734,408
1569661742,320.353,-137.294,-16.0734,179.692,1.49414,-144.734,408
1569661742,320.353,-137.294,-16.0734,179.692,1.49414,-144.734,408
1569661742,320.353,-137.294,-16.0734,179.692,1.49414,-144.734,408
1569661742,320.353,-137.294,-16.0734,179.692,1.49414,-144.734,408
1569661742,320.353,-137.294,-16.0734,179.692,1.49414,-144.734,408
1569661742,320.353,-137.294,-16.0734,179.692,1.49414,-144.734,408
1569661742,320.353,-137.294,-16.0734,179.692,1.49414,-144.734,408
1569661742,320.353,-137.294,-16.0734,179.692,1.49414,-144.734,412
1569661742,320.353,-137.294,-16.0734,179.692,1.49414,-144.734,412
1569661742,320.353,-137.294,-16.0734,179.692,1.49414,-144.734,412
1569661742,320.353,-137.294,-16.0734,179.692,1.49414,-144.734,412
1569661742,320.353,-137.294,-16.0734,179.692,1.49414,-144.734,412
1569661742,320.353,-137.294,-16.0734,179.692,1.49414,-144.734,412
1569661742,320.353,-137.294,-16.0734,179.692,1.49414,-144.734,412
1569661742,320.353,-137.294,-16.0734,179.692,1.49414,-144.734,412
1569661742,320.353,-137.294,-16.0734,179.692,1.49414,-144.756,412
1569661742,320.353,-137.294,-16.0734,179.692,1.49414,-144.756,412
1569661742,320.353,-137.294,-16.0734,179.692,1.49414,-144.756,412
1569661742,320.353,-137.294,-16.0734,179.692,1.49414,-144.756,412
1569661742,320.353,-137.294,-16.0734,179.692,1.49414,-144.756,412
1569661742,320.353,-137.294,-16.0734,179.692,1.49414,-144.756,412
1569661742,320.353,-137.294,-16.0734,179.692,1.49414,-144.756,412
1569661743,320.353,-137.294,-16.0734,179.692,1.49414,-144.756,412
1569661743,320.353,-137.294,-16.0734,179.692,1.49414,-144.756,412
1569661743,320.353,-137.294,-16.0734,179.692,1.49414,-144.756,412
1569661743,320.353,-137.294,-16.0734,179.692,1.49414,-144.756,412
1569661743,320.353,-137.294,-16.0734,179.692,1.49414,-144.756,412
1569661743,320.353,-137.294,-16.0734,179.692,1.49414,-144.756,412
1569661743,320.353,-137.294,-16.0734,179.692,1.49414,-144.756,412
1569661743,320.353,-137.294,-16.0734,179.692,1.49414,-144.756,412
1569661743,320.353,-137.294,-16.0734,179.692,1.49414,-144.734,412
1569661743,320.353,-137.294,-16.0734,179.692,1.49414,-144.734,412
1569661743,320.353,-137.294,-16.0734,179.692,1.49414,-144.756,412
1569661743,320.353,-137.294,-16.0734,179.692,1.49414,-144.756,412
1569661743,320.353,-137.294,-16.0734,179.692,1.49414,-144.756,412
1569661743,320.353,-137.294,-16.0734,179.692,1.49414,-144.756,412
1569661743,320.353,-137.294,-16.0734,179.692,1.49414,-144.756,412
1569661743,320.353,-137.294,-16.0734,179.692,1.49414,-144.756,412
1569661743,320.353,-137.294,-16.0734,179.692,1.49414,-144.756,412
1569661743,320.353,-137.294,-16.0734,179.692,1.49414,-144.756,412
1569661743,320.353,-137.294,-16.0734,179.692,1.49414,-144.756,412
1569661743,320.353,-137.294,-16.0734,179.692,1.49414,-144.756,408
1569661743,320.353,-137.294,-16.0734,179.692,1.49414,-144.756,408
1569661743,320.353,-137.294,-16.0734,179.692,1.49414,-144.756,408
1569661743,320.353,-137.294,-16.0734,179.692,1.49414,-144.756,408
1569661743,320.353,-137.294,-16.0734,179.692,1.49414,-144.756,408
1569661743,320.353,-137.294,-16.0734,179.692,1.49414,-144.756,408
1569661743,320.353,-137.294,-16.0734,179.692,1.49414,-144.756,404
1569661743,320.353,-137.294,-16.0734,179.692,1.49414,-144.734,404
1569661743,320.353,-137.294,-16.0734,179.692,1.49414,-144.734,404
1569661743,320.353,-137.294,-16.0734,179.692,1.49414,-144.734,404
1569661743,320.353,-137.294,-16.0734,179.692,1.49414,-144.734,404
1569661743,320.353,-137.294,-16.0734,179.692,1.49414,-144.734,404
1569661743,320.353,-137.294,-16.0734,179.692,1.49414,-144.734,404
1569661743,320.353,-137.294,-16.0734,179.692,1.49414,-144.734,404
1569661743,320.353,-137.294,-16.0734,179.692,1.49414,-144.734,404
1569661743,320.353,-137.294,-16.0734,179.692,1.49414,-144.734,404
1569661743,320.353,-137.294,-16.0734,179.692,1.49414,-144.734,404
1569661743,320.353,-137.294,-15.9618,179.714,1.49414,-144.734,404
1569661743,320.353,-137.294,-15.9618,179.714,1.51611,-144.734,404
1569661743,320.353,-137.294,-15.9618,179.714,1.51611,-144.734,404
1569661743,320.353,-137.294,-15.9618,179.714,1.51611,-144.734,404
1569661743,320.353,-137.294,-15.9618,179.714,1.51611,-144.734,404
1569661743,320.353,-137.294,-15.9618,179.714,1.51611,-144.734,404
1569661743,320.353,-137.294,-15.9618,179.714,1.51611,-144.734,404
1569661743,320.353,-137.294,-15.9618,179.714,1.51611,-144.734,404
1569661743,320.353,-137.294,-15.9618,179.714,1.51611,-144.734,404
1569661743,320.353,-137.294,-15.9618,179.714,1.51611,-144.734,404
1569661743,320.353,-137.294,-15.9618,179.714,1.51611,-144.734,400
1569661764,358.527,-178.371,-15.1805,179.604,1.91162,-144.602,496
1569661764,358.527,-178.371,-15.1805,179.604,1.91162,-144.602,496
1569661764,358.527,-178.371,-15.1805,179.604,1.93359,-144.602,492
1569661764,358.527,-178.371,-15.0688,179.604,1.93359,-144.602,492
1569661764,358.527,-178.371,-15.0688,179.604,1.93359,-144.602,492
1569661764,358.527,-178.371,-15.0688,179.604,1.93359,-144.602,492
1569661764,358.527,-178.371,-15.0688,179.604,1.93359,-144.602,492
1569661764,358.527,-178.371,-15.0688,179.604,1.93359,-144.602,492
1569661764,358.527,-178.371,-15.0688,179.604,1.95557,-144.602,492
1569661764,358.527,-178.371,-15.0688,179.604,1.95557,-144.602,492
1569661764,358.527,-178.371,-15.0688,179.604,1.95557,-144.602,492
1569661764,358.527,-178.371,-15.0688,179.604,1.95557,-144.602,492
1569661764,358.527,-178.371,-15.0688,179.604,1.95557,-144.602,492
1569661764,358.527,-178.371,-15.0688,179.604,1.93359,-144.602,492
1569661765,358.527,-178.371,-15.0688,179.604,1.93359,-144.602,492
1569661765,358.527,-178.371,-15.0688,179.604,1.93359,-144.602,492
1569661765,358.527,-178.371,-15.0688,179.604,1.93359,-144.602,492
1569661765,358.639,-178.371,-15.0688,179.604,1.93359,-144.602,492
1569661765,358.639,-178.371,-15.0688,179.604,1.93359,-144.602,492
1569661765,358.639,-178.371,-15.0688,179.604,1.93359,-144.602,492
1569661765,358.639,-178.371,-15.0688,179.604,1.93359,-144.602,492
1569661765,358.639,-178.371,-15.0688,179.604,1.93359,-144.602,492
1569661765,358.639,-178.371,-15.0688,179.604,1.93359,-144.602,492
1569661765,358.527,-178.371,-15.0688,179.604,1.93359,-144.602,492
1569661765,358.527,-178.371,-15.0688,179.604,1.93359,-144.602,492
1569661765,358.527,-178.371,-15.0688,179.604,1.93359,-144.602,492
1569661765,358.527,-178.371,-15.0688,179.604,1.93359,-144.602,492
1569661765,358.527,-178.371,-15.0688,179.604,1.93359,-144.602,492
1569661765,358.527,-178.371,-15.0688,179.604,1.93359,-144.602,492
1569661765,358.527,-178.371,-15.0688,179.604,1.93359,-144.602,492
1569661765,358.527,-178.371,-15.0688,179.604,1.93359,-144.602,492
1569661765,358.527,-178.371,-15.0688,179.604,1.93359,-144.602,496
1569661765,358.527,-178.371,-15.0688,179.604,1.95557,-144.602,496
1569661765,358.527,-178.371,-15.0688,179.626,1.95557,-144.602,496
1569661765,358.527,-178.259,-15.0688,179.626,1.95557,-144.602,496
1569661765,358.527,-178.259,-15.0688,179.626,1.95557,-144.602,496
1569661765,358.527,-178.259,-14.9572,179.626,1.95557,-144.602,496
1569661765,358.527,-178.259,-14.9572,179.626,1.95557,-144.602,500
1569661765,358.527,-178.259,-14.9572,179.626,1.95557,-144.602,500
1569661765,358.527,-178.259,-14.9572,179.626,1.95557,-144.602,500
1569661765,358.527,-178.259,-14.9572,179.626,1.95557,-144.602,500
1569661765,358.639,-178.259,-14.9572,179.626,1.95557,-144.602,500
1569661765,358.639,-178.259,-15.0688,179.626,1.95557,-144.602,500
1569661765,358.639,-178.259,-15.0688,179.626,1.95557,-144.602,500
1569661765,358.527,-178.259,-15.0688,179.626,1.95557,-144.602,500
1569661765,358.527,-178.259,-15.0688,179.626,1.95557,-144.602,500
1569661765,358.527,-178.259,-15.0688,179.626,1.95557,-144.602,500
1569661765,358.527,-178.259,-15.0688,179.626,1.95557,-144.602,500
1569661765,358.527,-178.259,-15.0688,179.626,1.95557,-144.602,500
1569661765,358.527,-178.259,-15.0688,179.626,1.95557,-144.602,500
1569661765,358.527,-178.371,-15.0688,179.604,1.93359,-144.602,500
1569661765,358.527,-178.371,-15.0688,179.604,1.93359,-144.602,500
1569661765,358.527,-178.371,-15.0688,179.604,1.93359,-144.602,500
1569661765,358.527,-178.371,-15.0688,179.604,1.93359,-144.602,496
1569661765,358.527,-178.371,-15.0688,179.604,1.93359,-144.602,496
1569661765,358.527,-178.371,-15.0688,179.604,1.93359,-144.602,496
1569661765,358.527,-178.371,-15.0688,179.604,1.93359,-144.602,496
1569661765,358.527,-178.371,-15.0688,179.604,1.93359,-144.602,496
1569661765,358.527,-178.371,-15.0688,179.604,1.95557,-144.602,492
1569661765,358.527,-178.371,-14.9572,179.604,1.95557,-144.602,492
1569661765,358.527,-178.371,-14.9572,179.604,1.95557,-144.602,492
1569661765,358.527,-178.259,-14.9572,179.604,1.95557,-144.602,492
1569661765,358.527,-178.259,-14.9572,179.604,1.95557,-144.602,492
1569661765,358.527,-178.259,-14.9572,179.604,1.95557,-144.602,492
1569661765,358.527,-178.259,-14.9572,179.604,1.95557,-144.602,492
1569661765,358.527,-178.259,-14.9572,179.604,1.95557,-144.602,492
1569661765,358.527,-178.259,-14.9572,179.626,1.95557,-144.602,496
1569661765,358.527,-178.259,-14.9572,179.626,1.95557,-144.602,496
1569661765,358.527,-178.259,-14.9572,179.626,1.93359,-144.602,496
1569661765,358.527,-178.259,-15.0688,179.626,1.93359,-144.602,496
1569661765,358.527,-178.259,-15.0688,179.626,1.93359,-144.602,500
1569661765,358.527,-178.259,-15.0688,179.626,1.93359,-144.602,500
1569661765,358.527,-178.259,-15.0688,179.626,1.93359,-144.602,500
1569661765,358.527,-178.259,-15.0688,179.626,1.93359,-144.602,504
1569661765,358.527,-178.259,-15.0688,179.626,1.93359,-144.602,504
1569661765,358.527,-178.259,-15.0688,179.626,1.93359,-144.602,504
1569661765,358.527,-178.259,-15.0688,179.648,1.93359,-144.602,508
1569661765,358.527,-178.259,-15.0688,179.648,1.91162,-144.602,508
1569661765,358.527,-178.259,-15.0688,179.648,1.91162,-144.602,508
1569661765,358.527,-178.259,-15.0688,179.648,1.91162,-144.602,512
1569661765,358.527,-178.259,-15.0688,179.626,1.91162,-144.602,512
1569661765,358.527,-178.259,-15.0688,179.626,1.91162,-144.602,512
1569661765,358.527,-178.259,-15.1805,179.626,1.91162,-144.602,512
1569661765,358.527,-178.259,-15.1805,179.626,1.91162,-144.602,512
1569661765,358.527,-178.259,-15.1805,179.626,1.91162,-144.602,516
1569661765,358.527,-178.259,-15.1805,179.626,1.91162,-144.602,516
1569661765,358.527,-178.259,-15.1805,179.626,1.91162,-144.602,516
1569661765,358.527,-178.259,-15.1805,179.626,1.91162,-144.602,516
1569661765,358.527,-178.259,-15.1805,179.626,1.91162,-144.602,516
1569661765,358.527,-178.259,-15.1805,179.626,1.91162,-144.602,512
1569661765,358.527,-178.259,-15.1805,179.626,1.91162,-144.602,512
1569661765,358.527,-178.259,-15.1805,179.626,1.91162,-144.602,512
1569661765,358.527,-178.259,-15.1805,179.626,1.91162,-144.602,512
1569661765,358.527,-178.259,-15.1805,179.626,1.91162,-144.602,512
1569661765,358.527,-178.259,-15.1805,179.626,1.91162,-144.602,508
1569661765,358.527,-178.259,-15.0688,179.626,1.91162,-144.602,508
1569661765,358.527,-178.259,-15.0688,179.626,1.91162,-144.602,508
1569661765,358.527,-178.259,-15.0688,179.626,1.91162,-144.602,508
1569661765,358.527,-178.259,-15.0688,179.626,1.91162,-144.602,508
1569661765,358.527,-178.259,-15.0688,179.626,1.91162,-144.58,508
1569661765,358.527,-178.259,-15.0688,179.626,1.91162,-144.58,508
1569661765,358.415,-178.259,-15.0688,179.626,1.91162,-144.58,508
1569661765,358.415,-178.259,-15.0688,179.626,1.91162,-144.58,512
1569661765,358.415,-178.147,-15.0688,179.626,1.91162,-144.58,512
1569661765,358.415,-178.147,-15.0688,179.626,1.91162,-144.58,512
1569661765,358.415,-178.147,-15.0688,179.626,1.91162,-144.58,516
1569661765,358.415,-178.147,-15.0688,179.626,1.93359,-144.58,516
1569661765,358.415,-178.147,-15.0688,179.626,1.93359,-144.58,516
1569661765,358.415,-178.147,-15.0688,179.626,1.93359,-144.58,520
1569661765,358.415,-178.147,-14.9572,179.626,1.93359,-144.558,520
1569661765,358.415,-178.147,-14.9572,179.626,1.93359,-144.558,524
1569661765,358.415,-178.147,-14.9572,179.626,1.93359,-144.558,528
1569661765,358.415,-178.147,-14.9572,179.626,1.93359,-144.558,528
1569661765,358.415,-178.147,-14.9572,179.626,1.93359,-144.558,532
1569661766,358.415,-178.147,-14.9572,179.626,1.93359,-144.558,532
1569661766,358.415,-178.259,-14.9572,179.626,1.93359,-144.558,532
1569661766,358.527,-178.259,-14.9572,179.626,1.93359,-144.558,536
1569661766,358.527,-178.259,-14.9572,179.626,1.93359,-144.558,536
1569661766,358.527,-178.259,-14.9572,179.626,1.93359,-144.558,536
1569661766,358.527,-178.259,-14.9572,179.626,1.93359,-144.558,536
1569661766,358.527,-178.259,-15.0688,179.626,1.93359,-144.558,536
1569661766,358.527,-178.259,-15.0688,179.626,1.93359,-144.558,532
1569661766,358.527,-178.259,-15.0688,179.626,1.93359,-144.558,532
1569661766,358.527,-178.259,-15.0688,179.626,1.93359,-144.58,532
1569661766,358.639,-178.259,-15.0688,179.626,1.93359,-144.58,528
1569661766,358.639,-178.259,-14.9572,179.626,1.93359,-144.58,528
1569661766,358.639,-178.259,-14.9572,179.648,1.93359,-144.58,528
1569661766,358.639,-178.259,-14.9572,179.648,1.93359,-144.58,528
1569661766,358.639,-178.259,-14.9572,179.648,1.95557,-144.58,524
1569661766,358.639,-178.259,-14.9572,179.648,1.95557,-144.58,524
1569661766,358.639,-178.259,-14.9572,179.626,1.95557,-144.58,524
1569661766,358.639,-178.259,-14.9572,179.648,1.95557,-144.58,524
1569661766,358.639,-178.259,-14.9572,179.648,1.95557,-144.58,524
1569661766,358.639,-178.259,-14.9572,179.626,1.95557,-144.58,524
1569661766,358.639,-178.259,-14.9572,179.626,1.95557,-144.58,524
1569661766,358.527,-178.259,-14.9572,179.626,1.95557,-144.58,524
1569661766,358.527,-178.259,-14.9572,179.626,1.95557,-144.58,524
1569661766,358.527,-178.259,-14.9572,179.626,1.95557,-144.58,524
1569661766,358.527,-178.259,-14.9572,179.626,1.95557,-144.58,524
1569661766,358.527,-178.259,-14.9572,179.626,1.95557,-144.58,524
1569661766,358.527,-178.259,-14.9572,179.626,1.95557,-144.58,524
1569661766,358.527,-178.259,-14.9572,179.626,1.95557,-144.58,528
1569661766,358.527,-178.259,-14.9572,179.626,1.95557,-144.58,528
1569661766,358.527,-178.259,-14.9572,179.626,1.95557,-144.58,532
1569661766,358.527,-178.259,-14.9572,179.626,1.95557,-144.58,532
1569661766,358.527,-178.259,-14.9572,179.626,1.95557,-144.58,532
1569661766,358.527,-178.259,-14.9572,179.626,1.95557,-144.58,536
1569661766,358.527,-178.259,-14.9572,179.626,1.95557,-144.58,536
1569661766,358.415,-178.259,-14.9572,179.626,1.95557,-144.58,540
1569661766,358.415,-178.259,-14.9572,179.626,1.95557,-144.58,540
1569661766,358.415,-178.259,-14.9572,179.626,1.93359,-144.58,544
1569661766,358.415,-178.259,-14.9572,179.626,1.93359,-144.58,544
1569661766,358.415,-178.259,-14.9572,179.626,1.93359,-144.58,544
1569661766,358.415,-178.259,-14.9572,179.626,1.93359,-144.58,544
1569661766,358.415,-178.259,-14.9572,179.626,1.93359,-144.58,544
1569661766,358.415,-178.259,-14.9572,179.604,1.93359,-144.58,544
1569661766,358.415,-178.259,-14.9572,179.604,1.93359,-144.58,544
1569661766,358.415,-178.259,-14.9572,179.604,1.93359,-144.58,544
1569661766,358.415,-178.259,-14.9572,179.604,1.95557,-144.58,544
1569661766,358.415,-178.259,-14.9572,179.604,1.95557,-144.58,544
1569661766,358.415,-178.259,-14.9572,179.626,1.95557,-144.58,544
1569661766,358.415,-178.259,-14.9572,179.626,1.95557,-144.58,544
1569661766,358.415,-178.259,-14.9572,179.626,1.95557,-144.58,544
1569661766,358.415,-178.259,-14.9572,179.626,1.95557,-144.58,544
1569661766,358.415,-178.259,-14.9572,179.626,1.95557,-144.602,544
1569661766,358.415,-178.147,-14.9572,179.626,1.95557,-144.602,540
1569661766,358.415,-178.147,-14.9572,179.626,1.95557,-144.602,540
1569661766,358.415,-178.147,-14.9572,179.626,1.95557,-144.602,540
1569661766,358.415,-178.147,-14.9572,179.626,1.97754,-144.58,540
1569661766,358.415,-178.147,-14.9572,179.626,1.97754,-144.58,540
1569661766,358.415,-178.259,-14.9572,179.626,1.97754,-144.58,536
1569661766,358.527,-178.259,-14.9572,179.626,1.97754,-144.58,536
1569661766,358.527,-178.259,-14.9572,179.626,1.97754,-144.58,536
1569661766,358.527,-178.259,-14.9572,179.626,1.97754,-144.58,536
1569661766,358.527,-178.259,-14.9572,179.626,1.97754,-144.58,532
1569661766,358.527,-178.259,-14.9572,179.626,1.97754,-144.58,532
1569661766,358.527,-178.259,-14.9572,179.626,1.97754,-144.58,532
1569661766,358.527,-178.259,-14.9572,179.604,1.97754,-144.58,532
1569661766,358.527,-178.259,-14.9572,179.604,1.97754,-144.58,532
1569661766,358.415,-178.259,-14.9572,179.604,1.97754,-144.58,528
1569661766,358.415,-178.259,-14.9572,179.604,1.97754,-144.58,528
1569661766,358.415,-178.259,-14.9572,179.604,1.97754,-144.58,528
1569661766,358.415,-178.259,-14.9572,179.604,1.95557,-144.58,528
1569661766,358.415,-178.259,-14.9572,179.604,1.95557,-144.58,528
1569661766,358.415,-178.259,-14.9572,179.604,1.95557,-144.58,528
1569661766,358.415,-178.259,-14.9572,179.604,1.95557,-144.58,528
1569661766,358.415,-178.259,-14.9572,179.604,1.95557,-144.58,528
1569661766,358.415,-178.259,-14.9572,179.604,1.95557,-144.58,528
1569661766,358.415,-178.259,-14.9572,179.604,1.95557,-144.58,528
1569661766,358.415,-178.259,-14.9572,179.604,1.95557,-144.58,528
1569661766,358.415,-178.259,-14.9572,179.604,1.95557,-144.58,524
1569661766,358.415,-178.371,-14.9572,179.604,1.95557,-144.58,524
1569661766,358.415,-178.371,-14.9572,179.604,1.95557,-144.58,524
1569661766,358.415,-178.371,-14.9572,179.604,1.95557,-144.58,524
1569661766,358.415,-178.371,-14.9572,179.604,1.97754,-144.58,524
1569661766,358.415,-178.371,-14.9572,179.604,1.95557,-144.58,520
1569661766,358.415,-178.371,-14.9572,179.604,1.95557,-144.58,520
1569661766,358.415,-178.371,-14.9572,179.604,1.95557,-144.58,520
1569661766,358.415,-178.371,-14.9572,179.604,1.95557,-144.58,520
1569661766,358.415,-178.371,-14.9572,179.604,1.95557,-144.58,520
1569661766,358.415,-178.371,-14.9572,179.604,1.95557,-144.58,520
1569661766,358.415,-178.371,-14.9572,179.604,1.95557,-144.58,520
1569661766,358.415,-178.371,-14.9572,179.604,1.95557,-144.58,520
1569661766,358.415,-178.371,-14.9572,179.604,1.95557,-144.58,520
1569661766,358.415,-178.371,-14.9572,179.604,1.95557,-144.58,520
1569661766,358.415,-178.371,-14.9572,179.583,1.95557,-144.58,520
1569661766,358.415,-178.371,-14.9572,179.583,1.95557,-144.58,520
1569661766,358.415,-178.371,-14.9572,179.583,1.95557,-144.58,520
1569661766,358.415,-178.371,-14.9572,179.583,1.95557,-144.58,520
1569661766,358.415,-178.371,-14.9572,179.583,1.95557,-144.58,520
1569661766,358.527,-178.371,-14.9572,179.583,1.95557,-144.602,520
1569661766,358.527,-178.371,-14.9572,179.583,1.95557,-144.602,520
1569661766,358.527,-178.371,-14.9572,179.583,1.95557,-144.602,520
1569661766,358.527,-178.371,-14.9572,179.583,1.95557,-144.602,520
1569661767,358.527,-178.371,-14.9572,179.583,1.95557,-144.602,520
1569661767,358.527,-178.371,-14.9572,179.583,1.95557,-144.602,516
1569661767,358.527,-178.371,-14.9572,179.583,1.95557,-144.602,516
1569661767,358.527,-178.371,-14.9572,179.583,1.95557,-144.602,516
1569661767,358.527,-178.371,-14.9572,179.583,1.95557,-144.602,516
1569661767,358.527,-178.371,-14.9572,179.583,1.95557,-144.602,516
1569661767,358.527,-178.371,-15.0688,179.583,1.95557,-144.602,516
1569661767,358.527,-178.371,-15.0688,179.583,1.95557,-144.602,516
1569661767,358.527,-178.371,-15.0688,179.583,1.95557,-144.602,516
1569661767,358.527,-178.371,-15.0688,179.583,1.93359,-144.602,516
1569661767,358.527,-178.371,-15.0688,179.583,1.93359,-144.602,516
1569661767,358.527,-178.371,-15.0688,179.583,1.93359,-144.602,516
1569661767,358.527,-178.371,-15.0688,179.583,1.93359,-144.602,516
1569661767,358.527,-178.371,-15.0688,179.583,1.93359,-144.602,516
1569661767,358.527,-178.371,-15.0688,179.583,1.93359,-144.602,516
1569661767,358.527,-178.371,-15.0688,179.583,1.93359,-144.602,516
1569661767,358.527,-178.371,-15.0688,179.604,1.93359,-144.602,516
1569661767,358.527,-178.371,-15.0688,179.604,1.93359,-144.602,520
1569661767,358.527,-178.371,-15.0688,179.604,1.93359,-144.602,520
1569661767,358.527,-178.371,-15.0688,179.604,1.93359,-144.602,520
1569661767,358.527,-178.371,-15.0688,179.604,1.93359,-144.602,520
1569661767,358.527,-178.371,-15.0688,179.604,1.93359,-144.602,520
1569661767,358.527,-178.371,-15.0688,179.604,1.91162,-144.602,520
1569661767,358.527,-178.259,-15.1805,179.604,1.91162,-144.602,520
1569661767,358.527,-178.259,-15.1805,179.604,1.91162,-144.602,520
1569661767,358.415,-178.259,-15.1805,179.604,1.91162,-144.602,520
1569661767,358.415,-178.259,-15.1805,179.604,1.91162,-144.602,520
1569661767,358.415,-178.259,-15.1805,179.604,1.91162,-144.602,524
1569661767,358.415,-178.259,-15.1805,179.604,1.91162,-144.602,524
1569661767,358.415,-178.259,-15.1805,179.604,1.91162,-144.602,524
1569661767,358.415,-178.259,-15.1805,179.604,1.91162,-144.602,524
1569661767,358.415,-178.259,-15.1805,179.604,1.91162,-144.602,524
1569661767,358.415,-178.259,-15.1805,179.604,1.91162,-144.602,524
1569661767,358.415,-178.259,-15.1805,179.604,1.91162,-144.602,528
1569661767,358.415,-178.259,-15.1805,179.604,1.91162,-144.602,528
1569661767,358.415,-178.259,-15.1805,179.604,1.91162,-144.602,528
1569661767,358.415,-178.259,-15.1805,179.604,1.91162,-144.602,528
1569661767,358.415,-178.259,-15.0688,179.604,1.91162,-144.602,528
1569661767,358.415,-178.259,-15.0688,179.604,1.91162,-144.602,532
1569661767,358.415,-178.259,-15.0688,179.604,1.91162,-144.602,532
1569661767,358.415,-178.259,-15.0688,179.604,1.91162,-144.602,532
1569661767,358.527,-178.259,-15.0688,179.604,1.91162,-144.602,532
1569661767,358.527,-178.259,-15.0688,179.604,1.91162,-144.602,532
1569661767,358.527,-178.259,-15.0688,179.604,1.91162,-144.602,532
1569661767,358.527,-178.259,-15.0688,179.604,1.91162,-144.602,528
1569661767,358.527,-178.259,-15.0688,179.604,1.91162,-144.602,528
1569661767,358.527,-178.259,-15.0688,179.604,1.91162,-144.602,528
1569661767,358.527,-178.259,-15.0688,179.604,1.91162,-144.624,528
1569661767,358.527,-178.259,-15.0688,179.604,1.91162,-144.624,528
1569661767,358.527,-178.259,-15.0688,179.604,1.91162,-144.624,524
1569661767,358.527,-178.259,-15.0688,179.604,1.91162,-144.624,524
1569661767,358.527,-178.259,-15.1805,179.604,1.91162,-144.624,520
1569661767,358.527,-178.259,-15.1805,179.604,1.91162,-144.624,520
1569661767,358.527,-178.259,-15.1805,179.604,1.91162,-144.624,520
1569661767,358.527,-178.259,-15.1805,179.604,1.91162,-144.624,516
1569661767,358.527,-178.259,-15.1805,179.604,1.91162,-144.624,516
1569661767,358.527,-178.371,-15.1805,179.604,1.91162,-144.624,516
1569661767,358.527,-178.371,-15.1805,179.604,1.91162,-144.624,512
1569661767,358.527,-178.371,-15.1805,179.604,1.91162,-144.624,512
1569661767,358.527,-178.371,-15.1805,179.604,1.91162,-144.624,508
1569661767,358.527,-178.371,-15.1805,179.604,1.91162,-144.624,508
1569661767,358.527,-178.371,-15.1805,179.604,1.91162,-144.624,508
1569661767,358.527,-178.371,-15.1805,179.604,1.91162,-144.624,504
1569661767,358.527,-178.371,-15.1805,179.604,1.91162,-144.624,504
1569661767,358.527,-178.371,-15.1805,179.604,1.91162,-144.624,504
1569661767,358.527,-178.371,-15.1805,179.604,1.91162,-144.624,504
1569661767,358.527,-178.371,-15.1805,179.583,1.91162,-144.624,500
1569661767,358.527,-178.371,-15.1805,179.583,1.91162,-144.624,500
1569661767,358.527,-178.371,-15.1805,179.583,1.91162,-144.624,500
1569661767,358.527,-178.371,-15.1805,179.583,1.91162,-144.624,500
1569661767,358.527,-178.371,-15.1805,179.583,1.93359,-144.624,500
1569661767,358.527,-178.371,-15.0688,179.583,1.93359,-144.624,500
1569661767,358.527,-178.371,-15.0688,179.583,1.93359,-144.624,504
1569661767,358.527,-178.371,-15.0688,179.583,1.93359,-144.624,504
1569661767,358.527,-178.371,-15.0688,179.583,1.93359,-144.624,504
1569661767,358.527,-178.371,-15.0688,179.583,1.93359,-144.624,504
1569661767,358.527,-178.371,-15.0688,179.583,1.95557,-144.602,504
1569661767,358.527,-178.371,-15.0688,179.583,1.95557,-144.602,504
1569661767,358.527,-178.371,-15.0688,179.583,1.95557,-144.602,504
1569661767,358.527,-178.371,-14.9572,179.583,1.95557,-144.602,504
1569661767,358.527,-178.371,-14.9572,179.583,1.95557,-144.602,504
1569661767,358.527,-178.371,-14.9572,179.583,1.95557,-144.602,504
1569661767,358.527,-178.371,-14.9572,179.583,1.95557,-144.602,504
1569661767,358.527,-178.371,-14.9572,179.583,1.95557,-144.602,504
1569661767,358.527,-178.371,-14.9572,179.583,1.95557,-144.602,504
1569661767,358.415,-178.371,-14.9572,179.583,1.95557,-144.602,504
1569661767,358.415,-178.371,-14.9572,179.583,1.95557,-144.602,504
1569661767,358.415,-178.371,-14.9572,179.583,1.95557,-144.602,504
1569661767,358.415,-178.371,-14.9572,179.583,1.95557,-144.602,504
1569661767,358.415,-178.371,-14.9572,179.583,1.95557,-144.602,504
1569661767,358.415,-178.371,-14.9572,179.583,1.95557,-144.58,500
1569661767,358.415,-178.371,-14.9572,179.583,1.95557,-144.58,500
1569661767,358.415,-178.371,-14.9572,179.583,1.95557,-144.58,500
1569661767,358.415,-178.371,-14.9572,179.583,1.95557,-144.58,500
1569661767,358.415,-178.371,-14.9572,179.583,1.95557,-144.58,504
1569661767,358.415,-178.371,-14.9572,179.583,1.95557,-144.58,504
