time,x,y,z,ax,ay,az,q
1568038856,267.556,-174.687,-17.3013,-1.2085,1.29639,-157.039,168
1568038856,267.556,-174.687,-17.3013,-1.2085,1.29639,-157.039,168
1568038856,267.556,-174.687,-17.3013,-1.2085,1.29639,-157.039,168
1568038856,267.556,-174.687,-17.3013,-1.2085,1.29639,-157.039,168
1568038856,267.556,-174.687,-17.3013,-1.2085,1.29639,-157.039,168
1568038856,267.556,-174.687,-17.3013,-1.2085,1.29639,-157.039,168
1568038856,267.556,-174.687,-17.3013,-1.2085,1.29639,-157.039,164
1568038856,267.556,-174.687,-17.3013,-1.2085,1.29639,-157.039,164
1568038856,267.556,-174.687,-17.3013,-1.2085,1.29639,-157.039,164
1568038856,267.556,-174.687,-17.3013,-1.2085,1.29639,-157.039,164
1568038856,267.556,-174.687,-17.3013,-1.2085,1.29639,-157.039,164
1568038856,267.556,-174.687,-17.3013,-1.2085,1.29639,-157.039,164
1568038856,267.556,-174.687,-17.3013,-1.2085,1.29639,-157.039,160
1568038856,267.556,-174.687,-17.3013,-1.2085,1.29639,-157.039,160
1568038856,267.556,-174.687,-17.3013,-1.2085,1.29639,-157.039,160
1568038856,267.556,-174.687,-17.3013,-1.2085,1.29639,-157.039,160
1568038856,267.667,-174.687,-17.3013,-1.2085,1.31836,-157.039,160
1568038856,267.667,-174.687,-17.3013,-1.2085,1.31836,-157.039,160
1568038856,267.667,-174.687,-17.3013,-1.2085,1.31836,-157.039,160
1568038856,267.667,-174.687,-17.3013,-1.2085,1.31836,-157.039,156
1568038856,267.667,-174.687,-17.3013,-1.2085,1.31836,-157.039,156
1568038856,267.667,-174.687,-17.3013,-1.2085,1.31836,-157.061,156
1568038856,267.667,-174.687,-17.3013,-1.2085,1.31836,-157.061,156
1568038856,267.667,-174.687,-17.3013,-1.2085,1.29639,-157.061,156
1568038856,267.667,-174.687,-17.3013,-1.2085,1.29639,-157.061,156
1568038856,267.667,-174.687,-17.3013,-1.2085,1.29639,-157.061,156
1568038856,267.667,-174.687,-17.3013,-1.2085,1.29639,-157.061,156
1568038856,267.556,-174.687,-17.3013,-1.2085,1.29639,-157.061,156
1568038856,267.556,-174.687,-17.3013,-1.2085,1.29639,-157.061,156
1568038856,267.556,-174.687,-17.3013,-1.2085,1.29639,-157.061,156
1568038856,267.556,-174.687,-17.3013,-1.2085,1.29639,-157.061,160
1568038856,267.556,-174.687,-17.3013,-1.2085,1.29639,-157.061,160
1568038856,267.556,-174.687,-17.3013,-1.2085,1.29639,-157.061,160
1568038856,267.556,-174.687,-17.3013,-1.2085,1.31836,-157.061,160
1568038856,267.556,-174.687,-17.3013,-1.2085,1.31836,-157.061,160
1568038856,267.556,-174.687,-17.3013,-1.2085,1.31836,-157.061,160
1568038856,267.556,-174.687,-17.3013,-1.2085,1.31836,-157.039,160
1568038856,267.556,-174.687,-17.3013,-1.2085,1.31836,-157.039,160
1568038856,267.556,-174.687,-17.3013,-1.23047,1.31836,-157.039,160
1568038856,267.556,-174.687,-17.3013,-1.23047,1.31836,-157.039,160
1568038856,267.556,-174.687,-17.3013,-1.23047,1.31836,-157.039,160
1568038856,267.556,-174.687,-17.4129,-1.23047,1.31836,-157.039,160
1568038856,267.556,-174.687,-17.4129,-1.23047,1.31836,-157.039,160
1568038856,267.556,-174.687,-17.4129,-1.23047,1.31836,-157.039,160
1568038856,267.556,-174.687,-17.4129,-1.23047,1.31836,-157.039,160
1568038856,267.556,-174.687,-17.4129,-1.23047,1.31836,-157.039,160
1568038856,267.556,-174.799,-17.4129,-1.23047,1.31836,-157.039,160
1568038857,267.556,-174.799,-17.4129,-1.23047,1.31836,-157.039,160
1568038857,267.556,-174.799,-17.4129,-1.23047,1.31836,-157.039,160
1568038857,267.556,-174.799,-17.4129,-1.23047,1.31836,-157.039,160
1568038857,267.556,-174.799,-17.4129,-1.23047,1.31836,-157.039,160
1568038857,267.556,-174.799,-17.4129,-1.23047,1.31836,-157.039,160
1568038857,267.556,-174.687,-17.4129,-1.23047,1.31836,-157.039,160
1568038857,267.556,-174.687,-17.4129,-1.23047,1.31836,-157.039,160
1568038857,267.556,-174.687,-17.4129,-1.23047,1.31836,-157.039,160
1568038857,267.556,-174.687,-17.4129,-1.23047,1.31836,-157.039,160
1568038857,267.556,-174.687,-17.4129,-1.23047,1.31836,-157.039,164
1568038857,267.556,-174.687,-17.4129,-1.23047,1.31836,-157.039,164
1568038857,267.556,-174.687,-17.4129,-1.23047,1.31836,-157.039,164
1568038857,267.556,-174.687,-17.4129,-1.23047,1.31836,-157.039,164
1568038857,267.556,-174.687,-17.4129,-1.23047,1.31836,-157.039,164
1568038857,267.556,-174.687,-17.4129,-1.23047,1.31836,-157.039,164
1568038857,267.556,-174.687,-17.4129,-1.23047,1.31836,-157.039,164
1568038857,267.556,-174.799,-17.3013,-1.23047,1.31836,-157.039,164
1568038857,267.556,-174.799,-17.3013,-1.23047,1.31836,-157.039,164
1568038857,267.556,-174.799,-17.3013,-1.23047,1.31836,-157.039,164
1568038857,267.556,-174.799,-17.3013,-1.23047,1.31836,-157.039,168
1568038857,267.556,-174.799,-17.3013,-1.23047,1.31836,-157.039,168
1568038857,267.556,-174.799,-17.3013,-1.23047,1.31836,-157.039,168
1568038857,267.556,-174.799,-17.3013,-1.23047,1.31836,-157.039,168
1568038857,267.556,-174.799,-17.3013,-1.23047,1.31836,-157.039,168
1568038857,267.556,-174.799,-17.3013,-1.23047,1.31836,-157.039,168
1568038857,267.556,-174.799,-17.3013,-1.23047,1.31836,-157.039,168
1568038857,267.556,-174.799,-17.3013,-1.23047,1.31836,-157.039,168
1568038857,267.556,-174.799,-17.3013,-1.23047,1.31836,-157.039,168
1568038857,267.556,-174.799,-17.3013,-1.23047,1.31836,-157.039,168
1568038857,267.556,-174.687,-17.3013,-1.23047,1.31836,-157.039,168
1568038857,267.556,-174.687,-17.3013,-1.23047,1.31836,-157.039,168
1568038857,267.556,-174.687,-17.3013,-1.23047,1.31836,-157.039,168
1568038857,267.556,-174.687,-17.3013,-1.23047,1.31836,-157.039,168
1568038857,267.556,-174.687,-17.3013,-1.23047,1.31836,-157.039,164
1568038857,267.556,-174.687,-17.3013,-1.23047,1.31836,-157.039,164
1568038857,267.556,-174.687,-17.3013,-1.2085,1.31836,-157.039,164
1568038857,267.556,-174.687,-17.3013,-1.2085,1.31836,-157.039,164
1568038857,267.556,-174.687,-17.3013,-1.2085,1.31836,-157.039,164
1568038857,267.556,-174.687,-17.3013,-1.2085,1.31836,-157.039,168
1568038857,267.556,-174.687,-17.3013,-1.2085,1.31836,-157.039,168
1568038857,267.556,-174.687,-17.3013,-1.2085,1.31836,-157.039,168
1568038857,267.556,-174.687,-17.3013,-1.2085,1.31836,-157.039,168
1568038857,267.556,-174.687,-17.3013,-1.2085,1.31836,-157.039,168
1568038857,267.556,-174.687,-17.3013,-1.2085,1.31836,-157.039,168
1568038857,267.556,-174.687,-17.3013,-1.2085,1.31836,-157.039,168
1568038857,267.556,-174.687,-17.3013,-1.2085,1.31836,-157.039,168
1568038857,267.556,-174.687,-17.4129,-1.2085,1.31836,-157.039,168
1568038857,267.556,-174.687,-17.4129,-1.2085,1.31836,-157.039,168
1568038857,267.556,-174.687,-17.4129,-1.2085,1.31836,-157.039,168
1568038857,267.556,-174.687,-17.4129,-1.2085,1.31836,-157.039,168
1568038857,267.556,-174.687,-17.4129,-1.2085,1.31836,-157.039,168
1568038857,267.556,-174.687,-17.4129,-1.2085,1.31836,-157.039,168
1568038857,267.556,-174.687,-17.4129,-1.2085,1.31836,-157.039,168
1568038857,267.556,-174.687,-17.4129,-1.2085,1.31836,-157.039,168
1568038857,267.556,-174.687,-17.4129,-1.2085,1.31836,-157.039,168
1568038857,267.556,-174.687,-17.4129,-1.2085,1.31836,-157.039,168
1568038857,267.556,-174.687,-17.4129,-1.2085,1.31836,-157.039,168
1568038857,267.556,-174.687,-17.4129,-1.2085,1.31836,-157.039,168
1568038857,267.556,-174.687,-17.4129,-1.2085,1.31836,-157.039,168
1568038857,267.556,-174.687,-17.4129,-1.2085,1.31836,-157.039,168
1568038857,267.556,-174.687,-17.4129,-1.2085,1.31836,-157.039,168
1568038857,267.556,-174.687,-17.4129,-1.2085,1.31836,-157.039,168
1568038857,267.556,-174.687,-17.4129,-1.2085,1.31836,-157.039,168
1568038857,267.556,-174.687,-17.4129,-1.2085,1.31836,-157.039,168
1568038857,267.556,-174.687,-17.4129,-1.2085,1.31836,-157.039,168
1568038857,267.556,-174.687,-17.4129,-1.2085,1.31836,-157.039,168
1568038857,267.556,-174.687,-17.4129,-1.2085,1.31836,-157.039,168
1568038857,267.556,-174.687,-17.4129,-1.2085,1.31836,-157.039,168
1568038857,267.556,-174.687,-17.4129,-1.2085,1.31836,-157.039,168
1568038857,267.556,-174.687,-17.3013,-1.2085,1.29639,-157.039,168
1568038857,267.556,-174.687,-17.3013,-1.23047,1.29639,-157.039,168
1568038857,267.556,-174.687,-17.3013,-1.23047,1.29639,-157.039,168
1568038857,267.556,-174.687,-17.3013,-1.23047,1.29639,-157.039,168
1568038857,267.556,-174.687,-17.3013,-1.23047,1.29639,-157.039,168
1568038857,267.556,-174.687,-17.3013,-1.23047,1.29639,-157.039,168
1568038857,267.556,-174.687,-17.3013,-1.23047,1.29639,-157.039,168
1568038857,267.556,-174.687,-17.3013,-1.23047,1.29639,-157.039,164
1568038857,267.556,-174.687,-17.3013,-1.23047,1.29639,-157.039,164
1568038857,267.556,-174.687,-17.3013,-1.23047,1.29639,-157.039,164
1568038857,267.556,-174.687,-17.3013,-1.23047,1.29639,-157.039,164
1568038857,267.556,-174.687,-17.3013,-1.23047,1.29639,-157.039,164
1568038857,267.556,-174.687,-17.3013,-1.23047,1.29639,-157.039,164
1568038857,267.556,-174.687,-17.3013,-1.23047,1.29639,-157.039,168
1568038857,267.556,-174.687,-17.3013,-1.23047,1.29639,-157.039,168
1568038857,267.556,-174.687,-17.3013,-1.23047,1.29639,-157.039,168
1568038857,267.556,-174.687,-17.3013,-1.23047,1.29639,-157.039,168
1568038857,267.556,-174.687,-17.3013,-1.23047,1.29639,-157.039,168
1568038857,267.556,-174.687,-17.3013,-1.23047,1.29639,-157.039,168
1568038857,267.556,-174.687,-17.3013,-1.23047,1.29639,-157.039,168
1568038857,267.556,-174.687,-17.3013,-1.23047,1.29639,-157.039,168
1568038857,267.556,-174.687,-17.3013,-1.23047,1.29639,-157.039,168
1568038857,267.556,-174.799,-17.3013,-1.23047,1.29639,-157.039,168
1568038857,267.556,-174.799,-17.3013,-1.23047,1.29639,-157.039,168
1568038857,267.556,-174.799,-17.3013,-1.25244,1.29639,-157.039,168
1568038857,267.556,-174.799,-17.3013,-1.25244,1.29639,-157.039,168
1568038857,267.556,-174.799,-17.3013,-1.25244,1.29639,-157.039,168
1568038857,267.556,-174.799,-17.3013,-1.25244,1.29639,-157.039,168
1568038857,267.556,-174.799,-17.3013,-1.25244,1.29639,-157.039,168
1568038857,267.556,-174.799,-17.3013,-1.25244,1.29639,-157.039,168
1568038857,267.556,-174.799,-17.3013,-1.25244,1.29639,-157.061,168
1568038858,267.556,-174.799,-17.3013,-1.25244,1.29639,-157.061,168
1568038858,267.556,-174.687,-17.3013,-1.23047,1.29639,-157.061,168
1568038858,267.556,-174.687,-17.3013,-1.23047,1.29639,-157.061,168
1568038858,267.556,-174.687,-17.3013,-1.23047,1.29639,-157.061,168
1568038858,267.556,-174.687,-17.3013,-1.23047,1.29639,-157.039,168
1568038858,267.556,-174.687,-17.3013,-1.23047,1.29639,-157.039,168
1568038858,267.556,-174.687,-17.3013,-1.23047,1.29639,-157.039,164
1568038858,267.556,-174.687,-17.3013,-1.23047,1.29639,-157.039,164
1568038858,267.556,-174.687,-17.3013,-1.23047,1.29639,-157.039,164
1568038858,267.556,-174.687,-17.3013,-1.23047,1.29639,-157.039,164
1568038858,267.556,-174.687,-17.3013,-1.23047,1.29639,-157.039,164
1568038858,267.556,-174.687,-17.3013,-1.23047,1.29639,-157.039,164
1568038858,267.556,-174.687,-17.3013,-1.23047,1.29639,-157.039,164
1568038858,267.556,-174.687,-17.3013,-1.23047,1.29639,-157.039,164
1568038858,267.556,-174.687,-17.3013,-1.23047,1.29639,-157.039,164
1568038858,267.556,-174.687,-17.3013,-1.23047,1.29639,-157.039,160
1568038858,267.556,-174.687,-17.3013,-1.23047,1.29639,-157.039,160
1568038858,267.556,-174.687,-17.3013,-1.23047,1.29639,-157.039,160
1568038858,267.556,-174.687,-17.3013,-1.23047,1.29639,-157.039,160
1568038858,267.556,-174.687,-17.3013,-1.23047,1.29639,-157.039,160
1568038858,267.556,-174.687,-17.3013,-1.23047,1.29639,-157.039,160
1568038858,267.556,-174.687,-17.3013,-1.23047,1.29639,-157.039,160
1568038858,267.556,-174.687,-17.4129,-1.23047,1.29639,-157.039,156
1568038858,267.556,-174.687,-17.4129,-1.23047,1.31836,-157.039,156
1568038858,267.556,-174.687,-17.4129,-1.23047,1.31836,-157.039,156
1568038858,267.556,-174.687,-17.4129,-1.23047,1.31836,-157.039,156
1568038858,267.556,-174.687,-17.4129,-1.23047,1.31836,-157.039,156
1568038858,267.556,-174.687,-17.4129,-1.23047,1.31836,-157.039,156
1568038858,267.556,-174.687,-17.4129,-1.23047,1.31836,-157.039,156
1568038858,267.556,-174.687,-17.4129,-1.23047,1.31836,-157.039,156
1568038858,267.556,-174.687,-17.4129,-1.23047,1.31836,-157.039,156
1568038858,267.556,-174.687,-17.4129,-1.23047,1.31836,-157.039,156
1568038858,267.556,-174.687,-17.4129,-1.23047,1.31836,-157.039,156
1568038858,267.556,-174.687,-17.4129,-1.23047,1.31836,-157.039,156
1568038858,267.556,-174.687,-17.4129,-1.23047,1.31836,-157.039,156
1568038858,267.556,-174.687,-17.4129,-1.23047,1.31836,-157.039,156
1568038858,267.556,-174.687,-17.4129,-1.23047,1.31836,-157.039,156
1568038858,267.556,-174.687,-17.4129,-1.23047,1.31836,-157.039,156
1568038858,267.556,-174.687,-17.4129,-1.23047,1.31836,-157.039,156
1568038858,267.556,-174.687,-17.4129,-1.23047,1.31836,-157.039,156
1568038858,267.556,-174.687,-17.4129,-1.23047,1.31836,-157.039,156
1568038858,267.556,-174.687,-17.4129,-1.23047,1.31836,-157.039,156
1568038858,267.556,-174.687,-17.4129,-1.23047,1.31836,-157.039,156
1568038858,267.556,-174.687,-17.4129,-1.23047,1.31836,-157.039,156
1568038858,267.556,-174.687,-17.4129,-1.23047,1.31836,-157.039,156
1568038858,267.556,-174.687,-17.4129,-1.23047,1.31836,-157.039,156
1568038858,267.556,-174.687,-17.3013,-1.23047,1.31836,-157.039,160
1568038858,267.556,-174.687,-17.3013,-1.23047,1.31836,-157.039,160
1568038858,267.556,-174.687,-17.3013,-1.23047,1.31836,-157.039,160
1568038858,267.556,-174.687,-17.3013,-1.23047,1.31836,-157.039,160
1568038858,267.556,-174.687,-17.3013,-1.23047,1.31836,-157.039,160
1568038858,267.556,-174.687,-17.3013,-1.23047,1.31836,-157.039,160
1568038858,267.556,-174.687,-17.3013,-1.23047,1.31836,-157.039,160
1568038858,267.556,-174.687,-17.3013,-1.23047,1.31836,-157.039,160
1568038858,267.556,-174.687,-17.3013,-1.2085,1.31836,-157.039,160
1568038858,267.556,-174.687,-17.3013,-1.2085,1.31836,-157.039,160
1568038858,267.556,-174.687,-17.3013,-1.23047,1.31836,-157.039,160
1568038858,267.556,-174.687,-17.3013,-1.23047,1.31836,-157.039,160
1568038858,267.556,-174.687,-17.3013,-1.23047,1.31836,-157.039,160
1568038858,267.556,-174.799,-17.3013,-1.23047,1.31836,-157.039,160
1568038858,267.556,-174.799,-17.3013,-1.23047,1.31836,-157.039,156
1568038858,267.556,-174.799,-17.3013,-1.23047,1.31836,-157.039,156
1568038858,267.556,-174.687,-17.3013,-1.23047,1.31836,-157.039,156
1568038858,267.556,-174.687,-17.3013,-1.23047,1.31836,-157.039,156
1568038858,267.556,-174.687,-17.3013,-1.23047,1.31836,-157.039,156
1568038858,267.556,-174.687,-17.3013,-1.23047,1.31836,-157.039,156
1568038858,267.556,-174.687,-17.3013,-1.23047,1.29639,-157.039,156
1568038858,267.556,-174.687,-17.3013,-1.23047,1.29639,-157.039,160
1568038858,267.556,-174.687,-17.3013,-1.23047,1.29639,-157.039,160
1568038858,267.556,-174.687,-17.3013,-1.23047,1.29639,-157.039,160
1568038858,267.556,-174.687,-17.3013,-1.23047,1.29639,-157.039,160
1568038858,267.556,-174.687,-17.3013,-1.23047,1.29639,-157.039,160
1568038858,267.556,-174.687,-17.3013,-1.23047,1.29639,-157.061,160
1568038858,267.556,-174.687,-17.3013,-1.23047,1.29639,-157.061,160
1568038858,267.556,-174.687,-17.3013,-1.23047,1.29639,-157.061,160
1568038858,267.556,-174.687,-17.3013,-1.23047,1.29639,-157.061,156
1568038858,267.556,-174.687,-17.3013,-1.23047,1.29639,-157.061,156
1568038858,267.556,-174.687,-17.3013,-1.23047,1.29639,-157.061,156
1568038858,267.556,-174.687,-17.3013,-1.23047,1.29639,-157.061,156
1568038858,267.556,-174.687,-17.3013,-1.23047,1.29639,-157.061,156
1568038858,267.556,-174.687,-17.3013,-1.23047,1.29639,-157.061,156
1568038858,267.556,-174.687,-17.3013,-1.23047,1.29639,-157.061,156
1568038858,267.556,-174.687,-17.3013,-1.23047,1.29639,-157.061,156
1568038858,267.556,-174.687,-17.3013,-1.23047,1.29639,-157.061,156
1568038858,267.556,-174.687,-17.3013,-1.23047,1.29639,-157.061,156
1568038858,267.556,-174.687,-17.3013,-1.23047,1.29639,-157.061,156
1568038858,267.556,-174.687,-17.3013,-1.23047,1.29639,-157.061,156
1568038858,267.556,-174.687,-17.3013,-1.23047,1.29639,-157.061,156
1568038858,267.556,-174.687,-17.3013,-1.23047,1.29639,-157.061,156
1568038858,267.556,-174.687,-17.3013,-1.2085,1.31836,-157.061,156
1568038858,267.556,-174.687,-17.3013,-1.2085,1.31836,-157.039,152
1568038858,267.556,-174.687,-17.3013,-1.23047,1.31836,-157.039,152
1568038858,267.556,-174.687,-17.4129,-1.23047,1.31836,-157.039,152
1568038858,267.556,-174.687,-17.4129,-1.23047,1.31836,-157.039,152
1568038858,267.556,-174.687,-17.4129,-1.23047,1.31836,-157.039,152
1568038858,267.556,-174.687,-17.4129,-1.23047,1.31836,-157.039,152
1568038858,267.556,-174.687,-17.4129,-1.23047,1.31836,-157.039,152
1568038858,267.556,-174.687,-17.4129,-1.23047,1.31836,-157.039,152
1568038858,267.556,-174.687,-17.4129,-1.23047,1.31836,-157.039,152
1568038858,267.556,-174.687,-17.4129,-1.23047,1.31836,-157.039,152
1568038859,267.556,-174.687,-17.4129,-1.23047,1.31836,-157.039,152
1568038859,267.556,-174.687,-17.4129,-1.23047,1.31836,-157.039,152
1568038859,267.556,-174.687,-17.4129,-1.23047,1.31836,-157.039,152
1568038859,267.556,-174.687,-17.4129,-1.23047,1.31836,-157.039,152
1568038859,267.556,-174.687,-17.4129,-1.23047,1.31836,-157.039,152
1568038859,267.556,-174.687,-17.4129,-1.2085,1.31836,-157.039,152
1568038859,267.556,-174.687,-17.4129,-1.2085,1.31836,-157.039,152
1568038859,267.556,-174.687,-17.4129,-1.2085,1.31836,-157.039,152
1568038859,267.556,-174.687,-17.4129,-1.2085,1.31836,-157.039,156
1568038859,267.556,-174.687,-17.4129,-1.2085,1.31836,-157.039,156
1568038859,267.556,-174.687,-17.4129,-1.2085,1.31836,-157.039,156
1568038859,267.556,-174.687,-17.4129,-1.2085,1.31836,-157.039,156
1568038859,267.556,-174.687,-17.4129,-1.2085,1.31836,-157.039,156
1568038859,267.556,-174.687,-17.4129,-1.2085,1.31836,-157.039,156
1568038859,267.556,-174.687,-17.4129,-1.2085,1.31836,-157.039,156
1568038859,267.556,-174.687,-17.4129,-1.2085,1.31836,-157.039,156
1568038859,267.556,-174.687,-17.4129,-1.2085,1.31836,-157.039,156
1568038859,267.556,-174.687,-17.4129,-1.2085,1.31836,-157.039,156
1568038859,267.556,-174.687,-17.4129,-1.2085,1.31836,-157.039,156
1568038859,267.556,-174.687,-17.4129,-1.2085,1.31836,-157.039,156
1568038859,267.556,-174.687,-17.4129,-1.2085,1.31836,-157.039,156
1568038859,267.556,-174.687,-17.4129,-1.2085,1.31836,-157.039,156
1568038859,267.556,-174.687,-17.4129,-1.23047,1.31836,-157.039,156
1568038859,267.556,-174.687,-17.4129,-1.23047,1.31836,-157.039,156
1568038859,267.556,-174.687,-17.4129,-1.23047,1.31836,-157.039,156
1568038859,267.556,-174.687,-17.4129,-1.23047,1.31836,-157.039,156
1568038859,267.556,-174.687,-17.4129,-1.23047,1.31836,-157.039,156
1568038859,267.556,-174.687,-17.4129,-1.23047,1.31836,-157.039,156
1568038859,267.556,-174.687,-17.4129,-1.2085,1.31836,-157.039,156
1568038859,267.556,-174.687,-17.4129,-1.2085,1.31836,-157.039,156
1568038859,267.556,-174.687,-17.4129,-1.2085,1.31836,-157.039,156
1568038859,267.556,-174.687,-17.4129,-1.2085,1.31836,-157.039,156
1568038859,267.556,-174.687,-17.3013,-1.2085,1.31836,-157.039,156
1568038859,267.556,-174.687,-17.3013,-1.2085,1.31836,-157.039,156
1568038859,267.556,-174.687,-17.3013,-1.2085,1.31836,-157.039,156
1568038859,267.556,-174.687,-17.3013,-1.2085,1.31836,-157.039,160
1568038859,267.556,-174.687,-17.3013,-1.2085,1.31836,-157.039,160
1568038859,267.556,-174.687,-17.3013,-1.2085,1.31836,-157.039,160
1568038859,267.556,-174.687,-17.3013,-1.2085,1.29639,-157.039,160
1568038859,267.556,-174.575,-17.3013,-1.2085,1.29639,-157.039,160
1568038859,267.556,-174.575,-17.3013,-1.18652,1.29639,-157.039,160
1568038859,267.556,-174.575,-17.4129,-1.18652,1.29639,-157.039,160
1568038859,267.556,-174.575,-17.4129,-1.18652,1.31836,-157.039,160
1568038859,267.556,-174.575,-17.4129,-1.18652,1.31836,-157.039,160
1568038859,267.556,-174.575,-17.4129,-1.18652,1.31836,-157.039,160
1568038859,267.556,-174.575,-17.4129,-1.18652,1.31836,-157.039,160
1568038859,267.556,-174.575,-17.4129,-1.18652,1.31836,-157.039,160
1568038859,267.556,-174.575,-17.4129,-1.18652,1.31836,-157.039,160
1568038859,267.556,-174.575,-17.4129,-1.18652,1.31836,-157.039,164
1568038859,267.556,-174.575,-17.4129,-1.18652,1.31836,-157.039,164
1568038859,267.556,-174.575,-17.4129,-1.18652,1.31836,-157.039,164
1568038859,267.556,-174.575,-17.4129,-1.18652,1.31836,-157.039,164
1568038859,267.556,-174.575,-17.4129,-1.18652,1.31836,-157.039,164
1568038859,267.556,-174.575,-17.4129,-1.2085,1.31836,-157.039,168
1568038859,267.556,-174.575,-17.4129,-1.2085,1.31836,-157.039,168
1568038859,267.556,-174.687,-17.4129,-1.2085,1.31836,-157.039,168
1568038859,267.556,-174.687,-17.4129,-1.2085,1.31836,-157.039,168
1568038859,267.556,-174.687,-17.4129,-1.2085,1.31836,-157.039,168
1568038859,267.556,-174.687,-17.4129,-1.2085,1.31836,-157.039,168
1568038859,267.556,-174.687,-17.4129,-1.2085,1.31836,-157.039,168
1568038859,267.556,-174.687,-17.4129,-1.2085,1.31836,-157.039,168
1568038859,267.556,-174.687,-17.4129,-1.2085,1.31836,-157.039,168
1568038859,267.556,-174.687,-17.4129,-1.2085,1.31836,-157.039,168
1568038859,267.556,-174.687,-17.4129,-1.2085,1.31836,-157.039,168
1568038859,267.556,-174.687,-17.4129,-1.2085,1.31836,-157.039,168
1568038859,267.556,-174.575,-17.4129,-1.2085,1.31836,-157.039,168
1568038859,267.556,-174.575,-17.4129,-1.2085,1.31836,-157.039,168
1568038859,267.556,-174.575,-17.4129,-1.2085,1.31836,-157.039,168
1568038859,267.556,-174.575,-17.4129,-1.2085,1.31836,-157.039,168
1568038859,267.556,-174.575,-17.4129,-1.2085,1.31836,-157.039,168
1568038859,267.556,-174.575,-17.4129,-1.2085,1.31836,-157.039,164
1568038859,267.556,-174.575,-17.4129,-1.2085,1.31836,-157.039,164
1568038859,267.556,-174.687,-17.4129,-1.2085,1.31836,-157.039,164
1568038859,267.556,-174.687,-17.4129,-1.2085,1.31836,-157.039,164
1568038859,267.556,-174.687,-17.4129,-1.2085,1.31836,-157.039,164
1568038859,267.556,-174.687,-17.4129,-1.2085,1.31836,-157.039,164
1568038859,267.556,-174.687,-17.4129,-1.2085,1.31836,-157.039,164
1568038859,267.556,-174.687,-17.4129,-1.2085,1.31836,-157.039,164
1568038859,267.556,-174.687,-17.4129,-1.2085,1.31836,-157.039,164
1568038859,267.556,-174.687,-17.4129,-1.2085,1.31836,-157.039,164
1568038859,267.556,-174.687,-17.4129,-1.2085,1.31836,-157.039,164
1568038859,267.556,-174.687,-17.4129,-1.2085,1.31836,-157.039,164
1568038859,267.556,-174.687,-17.4129,-1.2085,1.31836,-157.039,164
1568038859,267.556,-174.687,-17.4129,-1.2085,1.31836,-157.039,164
1568038859,267.556,-174.687,-17.3013,-1.2085,1.31836,-157.039,164
1568038859,267.556,-174.687,-17.3013,-1.2085,1.31836,-157.039,164
1568038859,267.556,-174.687,-17.3013,-1.23047,1.31836,-157.039,164
1568038859,267.556,-174.687,-17.3013,-1.23047,1.31836,-157.039,164
1568038859,267.556,-174.687,-17.3013,-1.23047,1.31836,-157.039,168
1568038859,267.556,-174.687,-17.3013,-1.23047,1.31836,-157.039,168
1568038859,267.556,-174.687,-17.3013,-1.23047,1.31836,-157.039,168
1568038859,267.556,-174.687,-17.3013,-1.23047,1.31836,-157.039,168
1568038859,267.556,-174.687,-17.3013,-1.23047,1.31836,-157.039,168
1568038859,267.556,-174.687,-17.4129,-1.23047,1.31836,-157.039,168
1568038859,267.556,-174.687,-17.4129,-1.23047,1.31836,-157.039,168
1568038859,267.556,-174.687,-17.4129,-1.23047,1.31836,-157.039,168
1568038859,267.556,-174.687,-17.4129,-1.23047,1.31836,-157.039,168
1568038859,267.556,-174.687,-17.3013,-1.23047,1.31836,-157.039,168
1568038859,267.556,-174.687,-17.3013,-1.23047,1.31836,-157.039,168
1568038859,267.556,-174.687,-17.3013,-1.23047,1.29639,-157.061,168
1568038860,267.556,-174.687,-17.3013,-1.23047,1.29639,-157.061,168
1568038860,267.556,-174.687,-17.3013,-1.23047,1.29639,-157.061,164
1568038860,267.556,-174.687,-17.3013,-1.23047,1.29639,-157.061,164
1568038860,267.556,-174.687,-17.3013,-1.23047,1.29639,-157.061,164
1568038860,267.556,-174.687,-17.3013,-1.23047,1.29639,-157.061,164
1568038860,267.556,-174.687,-17.3013,-1.23047,1.29639,-157.061,164
1568038860,267.556,-174.687,-17.3013,-1.23047,1.29639,-157.061,164
1568038860,267.556,-174.687,-17.3013,-1.23047,1.29639,-157.061,160
1568038860,267.556,-174.687,-17.3013,-1.23047,1.29639,-157.061,160
1568038860,267.556,-174.687,-17.3013,-1.23047,1.29639,-157.061,160
1568038860,267.556,-174.687,-17.3013,-1.2085,1.29639,-157.061,160
1568038860,267.556,-174.687,-17.3013,-1.2085,1.29639,-157.061,160
1568038860,267.556,-174.687,-17.3013,-1.2085,1.29639,-157.061,160
1568038860,267.556,-174.687,-17.3013,-1.2085,1.29639,-157.061,160
1568038860,267.556,-174.687,-17.3013,-1.2085,1.29639,-157.061,160
1568038860,267.556,-174.687,-17.3013,-1.2085,1.29639,-157.061,160
1568038860,267.556,-174.687,-17.3013,-1.2085,1.29639,-157.061,160
1568038860,267.556,-174.687,-17.3013,-1.2085,1.29639,-157.061,160
1568038860,267.556,-174.687,-17.3013,-1.2085,1.29639,-157.061,160
1568038860,267.556,-174.687,-17.3013,-1.2085,1.29639,-157.061,160
1568038860,267.556,-174.687,-17.3013,-1.2085,1.29639,-157.061,160
1568038860,267.556,-174.687,-17.3013,-1.23047,1.29639,-157.061,160
1568038860,267.556,-174.687,-17.3013,-1.23047,1.29639,-157.061,164
1568038860,267.556,-174.687,-17.3013,-1.23047,1.29639,-157.061,164
1568038860,267.556,-174.687,-17.3013,-1.23047,1.29639,-157.061,164
1568038860,267.556,-174.687,-17.3013,-1.23047,1.29639,-157.061,164
1568038860,267.556,-174.687,-17.3013,-1.23047,1.29639,-157.061,164
1568038860,267.556,-174.687,-17.3013,-1.23047,1.29639,-157.061,164
1568038860,267.556,-174.687,-17.3013,-1.23047,1.29639,-157.061,164
1568038860,267.556,-174.687,-17.3013,-1.23047,1.29639,-157.061,164
1568038860,267.556,-174.687,-17.3013,-1.23047,1.29639,-157.061,164
1568038860,267.556,-174.687,-17.3013,-1.23047,1.29639,-157.061,164
1568038860,267.556,-174.687,-17.3013,-1.23047,1.29639,-157.061,164
1568038860,267.556,-174.687,-17.3013,-1.23047,1.29639,-157.061,164
1568038860,267.556,-174.687,-17.4129,-1.23047,1.29639,-157.061,164
1568038860,267.556,-174.687,-17.4129,-1.23047,1.29639,-157.061,164
1568038860,267.556,-174.687,-17.4129,-1.23047,1.29639,-157.061,164
1568038860,267.556,-174.687,-17.4129,-1.23047,1.29639,-157.061,164
1568038860,267.556,-174.687,-17.4129,-1.23047,1.29639,-157.061,164
1568038860,267.556,-174.687,-17.3013,-1.23047,1.29639,-157.061,164
1568038860,267.556,-174.687,-17.3013,-1.23047,1.29639,-157.061,164
1568038860,267.556,-174.687,-17.3013,-1.23047,1.29639,-157.061,164
1568038860,267.556,-174.687,-17.3013,-1.23047,1.29639,-157.061,160
1568038860,267.556,-174.687,-17.3013,-1.23047,1.29639,-157.061,160
1568038860,267.556,-174.687,-17.3013,-1.23047,1.29639,-157.061,160
1568038860,267.556,-174.687,-17.3013,-1.23047,1.29639,-157.061,160
1568038860,267.556,-174.687,-17.3013,-1.23047,1.29639,-157.061,160
1568038860,267.556,-174.687,-17.3013,-1.23047,1.29639,-157.061,160
1568038860,267.556,-174.687,-17.3013,-1.23047,1.29639,-157.061,160
1568038860,267.556,-174.687,-17.3013,-1.23047,1.29639,-157.061,160
1568038860,267.556,-174.687,-17.3013,-1.23047,1.29639,-157.061,160
1568038860,267.556,-174.687,-17.3013,-1.23047,1.29639,-157.061,160
1568038860,267.556,-174.687,-17.3013,-1.23047,1.29639,-157.061,160
1568038860,267.556,-174.687,-17.3013,-1.23047,1.31836,-157.061,160
1568038860,267.556,-174.687,-17.4129,-1.23047,1.31836,-157.061,160
1568038860,267.556,-174.687,-17.4129,-1.23047,1.31836,-157.061,160
1568038860,267.556,-174.687,-17.4129,-1.23047,1.31836,-157.061,160
1568038860,267.556,-174.687,-17.4129,-1.23047,1.31836,-157.039,164
1568038860,267.556,-174.687,-17.4129,-1.23047,1.31836,-157.039,164
1568038860,267.556,-174.687,-17.4129,-1.23047,1.31836,-157.039,164
1568038860,267.556,-174.687,-17.4129,-1.23047,1.31836,-157.061,164
1568038860,267.556,-174.687,-17.3013,-1.23047,1.31836,-157.061,164
1568038860,267.556,-174.687,-17.3013,-1.23047,1.31836,-157.061,164
1568038860,267.556,-174.687,-17.3013,-1.23047,1.31836,-157.061,164
1568038860,267.556,-174.687,-17.3013,-1.25244,1.31836,-157.061,164
1568038860,267.556,-174.687,-17.3013,-1.25244,1.31836,-157.061,164
1568038860,267.556,-174.687,-17.3013,-1.25244,1.29639,-157.061,164
1568038860,267.556,-174.687,-17.3013,-1.23047,1.29639,-157.061,164
1568038860,267.556,-174.687,-17.3013,-1.23047,1.29639,-157.039,164
1568038860,267.556,-174.687,-17.3013,-1.23047,1.29639,-157.039,164
1568038860,267.556,-174.687,-17.3013,-1.23047,1.29639,-157.039,164
1568038860,267.556,-174.687,-17.3013,-1.23047,1.29639,-157.039,164
1568038860,267.556,-174.687,-17.3013,-1.23047,1.29639,-157.039,164
1568038860,267.556,-174.687,-17.3013,-1.23047,1.29639,-157.039,164
1568038860,267.556,-174.687,-17.3013,-1.23047,1.29639,-157.039,164
1568038860,267.556,-174.687,-17.3013,-1.23047,1.29639,-157.039,164
1568038860,267.556,-174.687,-17.3013,-1.23047,1.29639,-157.039,164
1568038860,267.556,-174.687,-17.3013,-1.25244,1.29639,-157.039,164
1568038860,267.556,-174.687,-17.3013,-1.25244,1.29639,-157.039,164
1568038860,267.556,-174.687,-17.3013,-1.25244,1.31836,-157.039,164
1568038860,267.556,-174.687,-17.3013,-1.25244,1.31836,-157.039,164
1568038860,267.556,-174.687,-17.3013,-1.25244,1.31836,-157.039,164
1568038860,267.556,-174.687,-17.4129,-1.25244,1.31836,-157.039,164
1568038860,267.556,-174.687,-17.4129,-1.25244,1.31836,-157.039,164
1568038860,267.556,-174.687,-17.4129,-1.25244,1.31836,-157.039,164
1568038860,267.556,-174.687,-17.3013,-1.25244,1.31836,-157.039,164
1568038860,267.556,-174.687,-17.3013,-1.25244,1.31836,-157.039,164
1568038860,267.556,-174.687,-17.3013,-1.25244,1.31836,-157.039,164
1568038860,267.556,-174.687,-17.3013,-1.25244,1.31836,-157.039,164
1568038860,267.556,-174.687,-17.3013,-1.23047,1.31836,-157.039,164
1568038860,267.556,-174.687,-17.3013,-1.23047,1.31836,-157.039,164
1568038860,267.556,-174.687,-17.3013,-1.23047,1.31836,-157.039,164
1568038860,267.556,-174.687,-17.3013,-1.23047,1.31836,-157.039,164
1568038860,267.556,-174.687,-17.3013,-1.23047,1.31836,-157.039,164
1568038860,267.556,-174.687,-17.3013,-1.23047,1.31836,-157.039,164
1568038860,267.556,-174.687,-17.3013,-1.23047,1.31836,-157.039,168
1568038860,267.556,-174.687,-17.3013,-1.23047,1.31836,-157.039,168
1568038860,267.556,-174.687,-17.3013,-1.23047,1.31836,-157.039,168
1568038860,267.556,-174.687,-17.3013,-1.23047,1.31836,-157.039,168
1568038860,267.556,-174.687,-17.3013,-1.23047,1.29639,-157.039,168
1568038861,267.556,-174.687,-17.3013,-1.23047,1.29639,-157.039,168
1568038861,267.556,-174.687,-17.3013,-1.23047,1.29639,-157.039,172
1568038861,267.556,-174.687,-17.3013,-1.23047,1.29639,-157.039,172
1568038861,267.556,-174.687,-17.3013,-1.23047,1.29639,-157.039,172
1568038861,267.556,-174.687,-17.3013,-1.23047,1.29639,-157.039,172
1568038861,267.556,-174.687,-17.3013,-1.23047,1.29639,-157.039,172
1568038861,267.556,-174.687,-17.3013,-1.23047,1.29639,-157.039,172
1568038861,267.556,-174.687,-17.3013,-1.23047,1.29639,-157.039,172
1568038861,267.556,-174.687,-17.3013,-1.23047,1.29639,-157.039,172
1568038861,267.556,-174.687,-17.3013,-1.23047,1.29639,-157.039,172
1568038861,267.556,-174.687,-17.3013,-1.23047,1.29639,-157.039,172
1568038861,267.556,-174.687,-17.3013,-1.23047,1.29639,-157.039,172
1568038861,267.556,-174.687,-17.3013,-1.23047,1.29639,-157.039,172
1568038861,267.556,-174.687,-17.3013,-1.23047,1.29639,-157.039,168
1568038861,267.556,-174.687,-17.3013,-1.23047,1.29639,-157.039,168
1568038861,267.556,-174.687,-17.3013,-1.23047,1.29639,-157.039,168
1568038861,267.556,-174.687,-17.3013,-1.23047,1.29639,-157.039,168
1568038861,267.556,-174.687,-17.3013,-1.23047,1.29639,-157.039,168
1568038861,267.556,-174.687,-17.3013,-1.23047,1.29639,-157.061,168
1568038861,267.556,-174.687,-17.3013,-1.23047,1.29639,-157.039,168
1568038861,267.556,-174.687,-17.3013,-1.23047,1.29639,-157.039,168
1568038861,267.556,-174.687,-17.3013,-1.23047,1.29639,-157.039,168
1568038861,267.556,-174.687,-17.3013,-1.23047,1.29639,-157.039,168
1568038861,267.556,-174.687,-17.3013,-1.23047,1.29639,-157.039,168
1568038861,267.556,-174.687,-17.3013,-1.23047,1.29639,-157.039,172
1568038861,267.556,-174.687,-17.3013,-1.23047,1.29639,-157.039,172
1568038861,267.556,-174.687,-17.3013,-1.23047,1.29639,-157.039,172
1568038861,267.556,-174.687,-17.3013,-1.23047,1.29639,-157.039,172
1568038861,267.556,-174.687,-17.3013,-1.23047,1.29639,-157.039,172
1568038861,267.556,-174.687,-17.3013,-1.23047,1.29639,-157.039,172
1568038861,267.556,-174.687,-17.3013,-1.23047,1.29639,-157.039,172
1568038861,267.556,-174.687,-17.3013,-1.23047,1.29639,-157.039,172
1568038861,267.556,-174.687,-17.3013,-1.23047,1.29639,-157.039,172
1568038861,267.556,-174.687,-17.3013,-1.23047,1.31836,-157.039,172
1568038861,267.556,-174.687,-17.3013,-1.23047,1.31836,-157.039,172
1568038861,267.556,-174.687,-17.3013,-1.23047,1.31836,-157.039,172
1568038861,267.556,-174.687,-17.3013,-1.23047,1.31836,-157.039,172
1568038861,267.556,-174.687,-17.3013,-1.23047,1.31836,-157.039,172
1568038861,267.556,-174.687,-17.3013,-1.23047,1.31836,-157.039,172
1568038861,267.556,-174.687,-17.3013,-1.23047,1.31836,-157.039,172
1568038861,267.556,-174.687,-17.3013,-1.23047,1.31836,-157.039,172
1568038861,267.556,-174.687,-17.3013,-1.23047,1.31836,-157.039,172
1568038861,267.556,-174.687,-17.3013,-1.23047,1.31836,-157.039,172
1568038861,267.556,-174.687,-17.3013,-1.23047,1.31836,-157.039,172
1568038861,267.556,-174.687,-17.3013,-1.23047,1.31836,-157.039,172
1568038861,267.556,-174.687,-17.3013,-1.23047,1.31836,-157.039,172
1568038861,267.556,-174.687,-17.3013,-1.23047,1.31836,-157.039,172
1568038861,267.556,-174.687,-17.3013,-1.23047,1.31836,-157.039,172
1568038861,267.556,-174.687,-17.3013,-1.23047,1.31836,-157.039,172
1568038861,267.556,-174.687,-17.3013,-1.23047,1.31836,-157.039,172
1568038861,267.556,-174.687,-17.4129,-1.23047,1.31836,-157.039,172
1568038861,267.556,-174.687,-17.4129,-1.23047,1.31836,-157.039,172
1568038861,267.556,-174.687,-17.4129,-1.23047,1.31836,-157.039,172
1568038868,252.04,-158.279,-17.4129,-1.23047,0.966797,-156.643,156
1568038868,252.04,-158.279,-17.4129,-1.23047,0.98877,-156.643,152
1568038868,252.04,-158.279,-17.4129,-1.23047,0.98877,-156.643,152
1568038868,252.04,-158.279,-17.4129,-1.23047,0.98877,-156.643,152
1568038868,252.04,-158.279,-17.4129,-1.23047,0.98877,-156.643,152
1568038868,252.04,-158.279,-17.4129,-1.23047,0.98877,-156.643,152
1568038868,252.04,-158.279,-17.4129,-1.23047,0.98877,-156.643,152
1568038868,252.04,-158.279,-17.4129,-1.23047,0.98877,-156.643,152
1568038868,252.04,-158.279,-17.4129,-1.23047,0.98877,-156.643,152
1568038868,252.04,-158.279,-17.4129,-1.23047,0.98877,-156.643,152
1568038868,252.04,-158.279,-17.4129,-1.23047,0.98877,-156.643,152
1568038868,252.04,-158.279,-17.4129,-1.23047,0.98877,-156.643,152
1568038868,252.04,-158.279,-17.4129,-1.23047,0.98877,-156.643,152
1568038868,252.04,-158.279,-17.4129,-1.23047,0.98877,-156.643,152
1568038868,252.04,-158.279,-17.4129,-1.23047,0.98877,-156.643,152
1568038868,252.04,-158.279,-17.4129,-1.23047,0.98877,-156.643,152
1568038868,252.04,-158.279,-17.4129,-1.23047,0.98877,-156.643,152
1568038868,252.04,-158.279,-17.4129,-1.23047,0.98877,-156.643,152
1568038868,252.04,-158.279,-17.4129,-1.23047,0.98877,-156.643,152
1568038868,252.04,-158.279,-17.4129,-1.23047,0.98877,-156.643,152
1568038868,252.04,-158.279,-17.4129,-1.23047,0.98877,-156.643,152
1568038868,252.04,-158.279,-17.4129,-1.23047,0.98877,-156.643,148
1568038868,252.04,-158.279,-17.4129,-1.23047,0.98877,-156.643,148
1568038868,252.04,-158.279,-17.4129,-1.23047,0.98877,-156.643,148
1568038868,252.04,-158.279,-17.4129,-1.23047,0.98877,-156.643,148
1568038868,252.04,-158.279,-17.4129,-1.23047,0.98877,-156.643,148
1568038868,252.04,-158.279,-17.4129,-1.23047,0.98877,-156.643,148
1568038868,252.04,-158.279,-17.4129,-1.23047,0.98877,-156.643,148
1568038868,252.04,-158.279,-17.4129,-1.23047,0.98877,-156.643,148
1568038868,252.04,-158.279,-17.4129,-1.23047,0.98877,-156.643,148
1568038868,252.04,-158.279,-17.4129,-1.23047,0.98877,-156.643,148
1568038868,252.04,-158.279,-17.4129,-1.23047,0.98877,-156.643,148
1568038868,252.04,-158.279,-17.4129,-1.23047,0.98877,-156.643,148
1568038868,252.04,-158.279,-17.4129,-1.23047,0.98877,-156.643,148
1568038868,252.04,-158.279,-17.4129,-1.23047,0.98877,-156.643,148
1568038868,252.04,-158.279,-17.4129,-1.23047,0.98877,-156.643,148
1568038868,252.04,-158.279,-17.4129,-1.23047,0.98877,-156.643,148
1568038868,252.04,-158.279,-17.4129,-1.23047,0.98877,-156.643,148
1568038868,252.04,-158.279,-17.4129,-1.23047,0.98877,-156.643,148
1568038868,252.04,-158.279,-17.4129,-1.23047,0.98877,-156.643,148
1568038868,252.04,-158.279,-17.4129,-1.23047,0.98877,-156.643,148
1568038868,252.04,-158.279,-17.4129,-1.23047,0.98877,-156.643,148
1568038868,252.04,-158.279,-17.4129,-1.23047,0.98877,-156.643,148
1568038868,252.04,-158.279,-17.4129,-1.23047,0.98877,-156.643,148
1568038868,252.04,-158.279,-17.4129,-1.23047,0.98877,-156.643,148
1568038869,252.04,-158.279,-17.4129,-1.23047,0.98877,-156.643,148
1568038869,252.04,-158.279,-17.4129,-1.23047,0.98877,-156.643,148
1568038869,252.04,-158.279,-17.4129,-1.23047,0.98877,-156.643,152
1568038869,252.04,-158.279,-17.4129,-1.23047,0.98877,-156.643,152
1568038869,252.04,-158.279,-17.4129,-1.23047,0.98877,-156.643,152
1568038869,252.04,-158.279,-17.4129,-1.23047,0.98877,-156.643,152
1568038869,252.04,-158.279,-17.4129,-1.23047,0.98877,-156.643,152
1568038869,252.04,-158.279,-17.4129,-1.23047,0.98877,-156.643,152
1568038869,252.04,-158.279,-17.4129,-1.23047,0.98877,-156.643,152
1568038869,252.04,-158.279,-17.4129,-1.23047,0.98877,-156.643,152
1568038869,252.04,-158.279,-17.4129,-1.23047,0.98877,-156.643,152
1568038869,252.04,-158.279,-17.4129,-1.23047,0.98877,-156.643,152
1568038869,252.04,-158.279,-17.4129,-1.23047,0.98877,-156.643,152
1568038869,252.04,-158.279,-17.4129,-1.23047,0.98877,-156.643,152
1568038869,252.04,-158.279,-17.4129,-1.23047,0.98877,-156.643,152
1568038869,252.04,-158.279,-17.4129,-1.23047,0.98877,-156.643,156
1568038869,252.04,-158.279,-17.4129,-1.23047,0.98877,-156.643,156
1568038869,252.04,-158.279,-17.4129,-1.23047,0.98877,-156.643,156
1568038869,252.04,-158.279,-17.4129,-1.23047,0.98877,-156.643,156
1568038869,252.04,-158.279,-17.4129,-1.23047,0.98877,-156.643,156
1568038869,252.04,-158.279,-17.4129,-1.25244,0.98877,-156.643,160
1568038869,252.04,-158.279,-17.4129,-1.25244,0.98877,-156.643,160
1568038869,252.04,-158.279,-17.4129,-1.25244,0.98877,-156.643,160
1568038869,252.04,-158.279,-17.4129,-1.25244,0.98877,-156.643,160
1568038869,252.04,-158.279,-17.4129,-1.25244,0.98877,-156.643,160
1568038869,252.04,-158.279,-17.4129,-1.25244,0.98877,-156.643,160
1568038869,252.04,-158.279,-17.4129,-1.25244,0.98877,-156.643,160
1568038869,252.04,-158.279,-17.4129,-1.25244,0.98877,-156.643,164
1568038869,252.04,-158.279,-17.4129,-1.25244,0.98877,-156.643,164
1568038869,252.04,-158.279,-17.4129,-1.25244,0.98877,-156.643,164
1568038869,252.04,-158.279,-17.4129,-1.25244,0.98877,-156.643,164
1568038869,252.04,-158.279,-17.4129,-1.23047,0.98877,-156.643,164
1568038869,252.04,-158.279,-17.4129,-1.23047,0.98877,-156.643,164
1568038869,252.04,-158.279,-17.4129,-1.23047,0.98877,-156.643,164
1568038869,252.04,-158.279,-17.4129,-1.23047,0.98877,-156.643,164
1568038869,252.04,-158.279,-17.4129,-1.23047,0.98877,-156.643,164
1568038869,252.04,-158.279,-17.4129,-1.23047,0.98877,-156.643,164
1568038869,252.04,-158.279,-17.4129,-1.23047,0.98877,-156.643,164
1568038869,252.04,-158.279,-17.4129,-1.23047,0.98877,-156.643,164
1568038869,252.04,-158.279,-17.4129,-1.23047,0.98877,-156.643,164
1568038869,252.04,-158.279,-17.4129,-1.23047,0.98877,-156.643,164
1568038869,252.04,-158.279,-17.4129,-1.23047,0.98877,-156.643,164
1568038869,252.04,-158.279,-17.4129,-1.23047,0.98877,-156.643,164
1568038869,252.04,-158.279,-17.4129,-1.23047,0.98877,-156.643,164
1568038869,252.04,-158.279,-17.4129,-1.23047,0.98877,-156.643,164
1568038869,252.04,-158.279,-17.4129,-1.23047,0.98877,-156.643,160
1568038869,252.04,-158.279,-17.4129,-1.23047,0.98877,-156.643,160
1568038869,252.04,-158.279,-17.4129,-1.23047,0.98877,-156.643,160
1568038869,252.04,-158.279,-17.4129,-1.23047,0.98877,-156.643,160
1568038869,252.04,-158.279,-17.4129,-1.23047,0.98877,-156.643,160
1568038869,252.04,-158.279,-17.4129,-1.23047,0.98877,-156.643,160
1568038869,252.04,-158.279,-17.4129,-1.23047,0.98877,-156.643,160
1568038869,252.04,-158.279,-17.5245,-1.23047,0.98877,-156.621,160
1568038869,252.04,-158.279,-17.5245,-1.23047,0.98877,-156.621,160
1568038869,252.04,-158.279,-17.5245,-1.23047,0.98877,-156.621,160
1568038869,252.04,-158.279,-17.5245,-1.23047,0.98877,-156.621,156
1568038869,252.04,-158.279,-17.5245,-1.23047,0.98877,-156.621,156
1568038869,252.04,-158.279,-17.5245,-1.23047,0.98877,-156.621,156
1568038869,252.04,-158.279,-17.5245,-1.23047,0.98877,-156.621,156
1568038869,252.04,-158.279,-17.5245,-1.23047,0.98877,-156.621,156
1568038869,252.04,-158.167,-17.5245,-1.23047,0.98877,-156.621,156
1568038869,252.04,-158.167,-17.5245,-1.23047,0.98877,-156.621,156
1568038869,252.04,-158.167,-17.5245,-1.23047,0.98877,-156.621,156
1568038869,252.04,-158.167,-17.5245,-1.23047,0.98877,-156.621,156
1568038869,252.04,-158.167,-17.5245,-1.23047,0.98877,-156.621,156
1568038869,252.04,-158.167,-17.5245,-1.23047,0.98877,-156.621,156
1568038869,252.04,-158.167,-17.5245,-1.2085,0.98877,-156.621,156
1568038869,252.04,-158.167,-17.5245,-1.2085,0.98877,-156.621,156
1568038869,252.04,-158.167,-17.5245,-1.2085,0.98877,-156.621,156
1568038869,252.04,-158.167,-17.5245,-1.2085,0.98877,-156.621,156
1568038869,252.04,-158.167,-17.5245,-1.2085,0.98877,-156.621,156
1568038869,252.04,-158.167,-17.5245,-1.2085,0.98877,-156.621,156
1568038869,252.04,-158.167,-17.5245,-1.2085,0.98877,-156.621,156
1568038869,252.04,-158.167,-17.5245,-1.2085,0.98877,-156.621,156
1568038869,252.04,-158.167,-17.5245,-1.2085,0.98877,-156.621,156
1568038869,252.04,-158.167,-17.5245,-1.2085,0.98877,-156.621,156
1568038869,252.04,-158.167,-17.5245,-1.2085,0.98877,-156.621,156
1568038869,252.04,-158.167,-17.5245,-1.2085,0.98877,-156.621,156
1568038869,252.04,-158.167,-17.5245,-1.2085,0.98877,-156.621,156
1568038869,252.04,-158.167,-17.4129,-1.2085,0.98877,-156.621,156
1568038869,252.04,-158.167,-17.4129,-1.2085,0.98877,-156.621,156
1568038869,252.04,-158.167,-17.4129,-1.2085,0.98877,-156.621,156
1568038869,252.04,-158.167,-17.4129,-1.2085,0.98877,-156.621,156
1568038869,252.04,-158.167,-17.4129,-1.2085,0.98877,-156.621,156
1568038869,252.04,-158.167,-17.4129,-1.23047,0.98877,-156.621,152
1568038869,252.04,-158.167,-17.4129,-1.23047,0.98877,-156.621,152
1568038869,252.04,-158.167,-17.4129,-1.23047,0.98877,-156.621,152
1568038869,252.04,-158.167,-17.4129,-1.23047,0.98877,-156.621,152
1568038869,252.04,-158.167,-17.4129,-1.23047,0.98877,-156.621,152
1568038869,252.04,-158.167,-17.4129,-1.23047,0.98877,-156.621,152
1568038869,252.04,-158.167,-17.4129,-1.23047,0.98877,-156.621,152
1568038869,252.04,-158.167,-17.4129,-1.23047,0.98877,-156.621,152
1568038869,252.04,-158.167,-17.4129,-1.23047,0.98877,-156.621,152
1568038869,252.04,-158.167,-17.4129,-1.23047,0.98877,-156.621,152
1568038869,252.04,-158.167,-17.4129,-1.23047,0.98877,-156.621,152
1568038869,252.04,-158.167,-17.4129,-1.23047,0.98877,-156.621,152
1568038869,252.04,-158.167,-17.4129,-1.23047,0.98877,-156.621,152
1568038869,252.04,-158.167,-17.4129,-1.23047,0.98877,-156.621,152
1568038869,252.04,-158.167,-17.4129,-1.23047,0.98877,-156.621,152
1568038869,252.04,-158.167,-17.4129,-1.23047,0.98877,-156.621,152
1568038870,252.04,-158.167,-17.4129,-1.23047,0.98877,-156.621,152
1568038870,252.04,-158.167,-17.4129,-1.23047,0.98877,-156.621,152
1568038870,252.04,-158.167,-17.4129,-1.23047,0.98877,-156.621,152
1568038870,252.04,-158.167,-17.4129,-1.23047,0.98877,-156.621,152
1568038870,252.04,-158.167,-17.4129,-1.23047,0.98877,-156.621,152
1568038870,252.04,-158.167,-17.4129,-1.23047,0.98877,-156.621,152
1568038870,252.04,-158.167,-17.4129,-1.23047,0.98877,-156.621,152
1568038870,252.04,-158.167,-17.4129,-1.23047,0.98877,-156.621,152
1568038870,252.04,-158.167,-17.4129,-1.23047,0.98877,-156.643,152
1568038870,252.04,-158.167,-17.4129,-1.23047,0.98877,-156.643,152
1568038870,252.04,-158.167,-17.4129,-1.23047,0.98877,-156.643,152
1568038870,252.04,-158.167,-17.4129,-1.23047,0.98877,-156.643,152
1568038870,252.04,-158.167,-17.4129,-1.23047,0.98877,-156.643,152
1568038870,252.04,-158.167,-17.4129,-1.23047,0.98877,-156.643,152
1568038870,252.04,-158.167,-17.4129,-1.23047,0.98877,-156.643,152
1568038870,252.04,-158.167,-17.4129,-1.23047,0.98877,-156.643,152
1568038870,252.04,-158.167,-17.4129,-1.23047,0.98877,-156.643,152
1568038870,252.04,-158.167,-17.4129,-1.23047,0.98877,-156.643,152
1568038870,252.04,-158.279,-17.4129,-1.23047,0.98877,-156.643,152
1568038870,252.04,-158.279,-17.4129,-1.23047,0.98877,-156.643,152
1568038870,252.04,-158.279,-17.4129,-1.23047,0.98877,-156.643,152
1568038870,252.04,-158.279,-17.4129,-1.23047,0.98877,-156.643,152
1568038870,252.04,-158.279,-17.4129,-1.23047,0.98877,-156.643,152
1568038870,252.04,-158.279,-17.4129,-1.23047,0.98877,-156.643,152
1568038870,252.04,-158.279,-17.4129,-1.23047,0.98877,-156.643,152
1568038870,252.04,-158.167,-17.4129,-1.23047,0.98877,-156.643,152
1568038870,252.04,-158.167,-17.4129,-1.23047,0.98877,-156.643,152
1568038870,252.04,-158.167,-17.4129,-1.23047,0.98877,-156.643,152
1568038870,252.04,-158.167,-17.4129,-1.2085,0.98877,-156.643,152
1568038870,252.04,-158.167,-17.4129,-1.2085,0.98877,-156.643,152
1568038870,252.04,-158.167,-17.4129,-1.2085,0.98877,-156.643,152
1568038870,252.04,-158.167,-17.4129,-1.2085,0.98877,-156.643,152
1568038870,252.04,-158.167,-17.4129,-1.2085,0.98877,-156.643,152
1568038870,252.04,-158.167,-17.4129,-1.2085,0.98877,-156.643,152
1568038870,252.04,-158.167,-17.4129,-1.23047,0.98877,-156.643,152
1568038870,252.04,-158.167,-17.4129,-1.23047,0.98877,-156.643,152
1568038870,252.04,-158.167,-17.4129,-1.23047,0.98877,-156.643,152
1568038870,252.04,-158.167,-17.4129,-1.23047,0.98877,-156.643,152
1568038870,252.04,-158.167,-17.4129,-1.23047,0.98877,-156.643,152
1568038870,252.04,-158.167,-17.4129,-1.23047,0.98877,-156.643,152
1568038870,252.04,-158.167,-17.4129,-1.23047,0.98877,-156.643,152
1568038870,252.04,-158.167,-17.4129,-1.23047,0.98877,-156.643,152
1568038870,252.04,-158.167,-17.4129,-1.23047,0.98877,-156.643,152
1568038870,252.04,-158.167,-17.4129,-1.23047,0.98877,-156.643,152
1568038870,252.04,-158.167,-17.4129,-1.23047,0.98877,-156.643,152
1568038870,252.04,-158.167,-17.4129,-1.23047,0.98877,-156.643,152
1568038870,252.04,-158.167,-17.4129,-1.23047,0.98877,-156.643,152
1568038870,252.04,-158.167,-17.4129,-1.23047,0.98877,-156.643,152
1568038870,252.04,-158.167,-17.4129,-1.23047,0.98877,-156.643,148
1568038870,252.04,-158.167,-17.4129,-1.23047,0.98877,-156.643,148
1568038870,252.04,-158.279,-17.4129,-1.23047,0.966797,-156.643,148
1568038870,252.04,-158.279,-17.4129,-1.23047,0.966797,-156.643,148
1568038870,252.04,-158.279,-17.4129,-1.23047,0.966797,-156.643,148
1568038870,252.04,-158.279,-17.4129,-1.23047,0.966797,-156.643,148
1568038870,252.04,-158.279,-17.4129,-1.23047,0.966797,-156.643,148
1568038870,252.04,-158.279,-17.4129,-1.23047,0.966797,-156.643,148
1568038870,252.04,-158.279,-17.4129,-1.23047,0.966797,-156.643,148
1568038870,252.04,-158.279,-17.4129,-1.23047,0.966797,-156.643,148
1568038870,252.04,-158.279,-17.4129,-1.23047,0.966797,-156.643,148
1568038870,252.04,-158.279,-17.4129,-1.23047,0.966797,-156.643,148
1568038870,252.04,-158.279,-17.4129,-1.23047,0.966797,-156.643,148
1568038870,252.04,-158.279,-17.4129,-1.23047,0.966797,-156.643,148
1568038870,252.04,-158.279,-17.4129,-1.23047,0.966797,-156.643,148
1568038870,252.04,-158.279,-17.4129,-1.23047,0.966797,-156.643,148
1568038870,252.04,-158.279,-17.4129,-1.23047,0.966797,-156.643,148
1568038870,252.04,-158.279,-17.4129,-1.23047,0.966797,-156.643,148
1568038870,252.04,-158.279,-17.4129,-1.23047,0.966797,-156.643,148
1568038870,252.04,-158.279,-17.4129,-1.23047,0.966797,-156.643,148
1568038870,252.04,-158.279,-17.4129,-1.23047,0.966797,-156.643,148
1568038870,252.04,-158.279,-17.4129,-1.23047,0.966797,-156.643,148
1568038870,252.04,-158.279,-17.4129,-1.23047,0.966797,-156.643,148
1568038870,252.04,-158.279,-17.4129,-1.23047,0.966797,-156.643,148
1568038870,252.04,-158.279,-17.4129,-1.23047,0.966797,-156.643,148
1568038870,252.04,-158.279,-17.4129,-1.23047,0.966797,-156.643,148
1568038870,252.04,-158.279,-17.4129,-1.23047,0.966797,-156.643,148
1568038870,252.04,-158.279,-17.4129,-1.23047,0.966797,-156.643,148
1568038870,252.04,-158.279,-17.4129,-1.23047,0.966797,-156.643,148
1568038870,252.04,-158.279,-17.4129,-1.23047,0.966797,-156.643,148
1568038870,252.04,-158.279,-17.4129,-1.23047,0.966797,-156.643,148
1568038870,252.04,-158.279,-17.4129,-1.23047,0.966797,-156.643,148
1568038870,252.04,-158.279,-17.4129,-1.23047,0.966797,-156.643,148
1568038870,252.04,-158.279,-17.4129,-1.23047,0.966797,-156.643,152
1568038870,252.04,-158.279,-17.4129,-1.23047,0.966797,-156.643,152
1568038870,252.04,-158.279,-17.4129,-1.23047,0.966797,-156.643,152
1568038870,252.04,-158.279,-17.4129,-1.23047,0.966797,-156.643,152
1568038870,252.04,-158.279,-17.4129,-1.23047,0.966797,-156.643,152
1568038870,252.04,-158.279,-17.4129,-1.23047,0.966797,-156.643,152
1568038870,252.04,-158.279,-17.4129,-1.23047,0.966797,-156.643,152
1568038870,252.04,-158.279,-17.4129,-1.23047,0.966797,-156.643,152
1568038870,252.04,-158.279,-17.4129,-1.23047,0.966797,-156.643,152
1568038870,252.04,-158.279,-17.4129,-1.23047,0.966797,-156.643,152
1568038870,252.04,-158.279,-17.4129,-1.23047,0.966797,-156.643,152
1568038870,252.04,-158.279,-17.4129,-1.23047,0.966797,-156.643,152
1568038870,252.04,-158.279,-17.4129,-1.23047,0.966797,-156.643,152
1568038870,252.04,-158.279,-17.4129,-1.23047,0.966797,-156.643,152
1568038870,252.04,-158.279,-17.4129,-1.23047,0.966797,-156.643,152
1568038870,252.04,-158.279,-17.4129,-1.23047,0.966797,-156.643,152
1568038870,252.04,-158.279,-17.4129,-1.23047,0.966797,-156.643,152
1568038870,252.04,-158.279,-17.4129,-1.23047,0.966797,-156.643,152
1568038870,252.04,-158.279,-17.4129,-1.23047,0.966797,-156.643,152
1568038871,252.04,-158.279,-17.4129,-1.23047,0.966797,-156.643,152
1568038871,252.04,-158.279,-17.4129,-1.23047,0.966797,-156.643,152
1568038871,252.04,-158.279,-17.4129,-1.23047,0.966797,-156.643,152
1568038871,252.04,-158.279,-17.4129,-1.23047,0.966797,-156.643,152
1568038871,252.04,-158.279,-17.4129,-1.23047,0.966797,-156.643,152
1568038871,252.04,-158.279,-17.4129,-1.23047,0.966797,-156.643,152
1568038871,252.04,-158.279,-17.4129,-1.23047,0.966797,-156.643,152
1568038871,252.04,-158.279,-17.4129,-1.23047,0.966797,-156.643,152
1568038871,252.04,-158.279,-17.4129,-1.23047,0.966797,-156.643,152
1568038871,252.04,-158.279,-17.4129,-1.23047,0.966797,-156.643,152
1568038871,252.04,-158.279,-17.4129,-1.23047,0.966797,-156.643,152
1568038871,252.04,-158.279,-17.4129,-1.23047,0.966797,-156.643,152
1568038871,252.04,-158.279,-17.4129,-1.23047,0.966797,-156.643,152
1568038871,252.04,-158.279,-17.4129,-1.23047,0.966797,-156.643,152
1568038871,252.04,-158.279,-17.4129,-1.23047,0.98877,-156.643,152
1568038871,252.04,-158.279,-17.4129,-1.23047,0.98877,-156.643,152
1568038871,252.04,-158.279,-17.4129,-1.23047,0.98877,-156.643,152
1568038871,252.04,-158.279,-17.4129,-1.23047,0.98877,-156.643,152
1568038871,252.04,-158.279,-17.4129,-1.23047,0.98877,-156.643,152
1568038871,252.04,-158.279,-17.4129,-1.23047,0.98877,-156.643,152
1568038871,252.04,-158.279,-17.4129,-1.23047,0.98877,-156.643,152
1568038871,252.04,-158.279,-17.4129,-1.23047,0.98877,-156.643,152
1568038871,252.04,-158.279,-17.4129,-1.23047,0.98877,-156.643,152
1568038871,252.04,-158.279,-17.4129,-1.23047,0.98877,-156.643,152
1568038871,252.04,-158.279,-17.4129,-1.23047,0.98877,-156.643,152
1568038871,252.04,-158.279,-17.4129,-1.23047,0.98877,-156.643,152
1568038871,252.04,-158.279,-17.4129,-1.23047,0.98877,-156.643,152
1568038871,252.04,-158.279,-17.4129,-1.23047,0.98877,-156.643,152
1568038871,252.04,-158.279,-17.4129,-1.23047,0.98877,-156.643,152
1568038871,252.04,-158.279,-17.4129,-1.23047,0.98877,-156.643,152
1568038871,252.04,-158.279,-17.4129,-1.23047,0.98877,-156.643,152
1568038871,252.04,-158.279,-17.4129,-1.23047,0.98877,-156.643,156
1568038871,252.04,-158.279,-17.4129,-1.23047,0.98877,-156.643,156
1568038871,252.04,-158.279,-17.4129,-1.23047,0.98877,-156.643,156
1568038871,252.04,-158.279,-17.4129,-1.23047,0.98877,-156.643,156
1568038871,252.04,-158.279,-17.4129,-1.23047,0.98877,-156.643,156
1568038871,252.04,-158.279,-17.4129,-1.23047,0.98877,-156.643,156
1568038871,252.04,-158.279,-17.4129,-1.23047,0.98877,-156.643,156
1568038871,252.04,-158.279,-17.4129,-1.23047,0.98877,-156.643,156
1568038871,252.04,-158.279,-17.4129,-1.23047,0.98877,-156.643,156
1568038871,252.04,-158.279,-17.4129,-1.23047,0.98877,-156.643,156
1568038871,252.04,-158.279,-17.4129,-1.23047,0.98877,-156.643,156
1568038871,252.04,-158.279,-17.4129,-1.23047,0.98877,-156.643,156
1568038871,252.04,-158.279,-17.4129,-1.23047,0.98877,-156.643,156
1568038871,252.04,-158.279,-17.5245,-1.23047,0.98877,-156.643,156
1568038871,252.04,-158.279,-17.5245,-1.23047,0.98877,-156.643,156
1568038871,252.04,-158.279,-17.5245,-1.23047,0.98877,-156.643,156
1568038871,252.04,-158.279,-17.4129,-1.23047,0.98877,-156.643,156
1568038871,252.04,-158.279,-17.4129,-1.23047,0.98877,-156.643,156
1568038871,252.04,-158.279,-17.4129,-1.23047,0.98877,-156.643,156
1568038871,252.04,-158.279,-17.4129,-1.23047,0.98877,-156.643,156
1568038871,252.04,-158.279,-17.4129,-1.23047,0.98877,-156.643,156
1568038871,252.04,-158.279,-17.4129,-1.23047,0.98877,-156.643,156
1568038871,252.04,-158.279,-17.4129,-1.23047,0.98877,-156.643,156
1568038871,252.04,-158.279,-17.4129,-1.23047,0.98877,-156.643,156
1568038871,252.04,-158.279,-17.4129,-1.23047,0.98877,-156.643,156
1568038871,252.04,-158.279,-17.4129,-1.23047,0.98877,-156.643,156
1568038871,252.04,-158.279,-17.4129,-1.23047,0.98877,-156.643,156
1568038871,252.04,-158.279,-17.4129,-1.23047,0.98877,-156.643,156
1568038871,252.04,-158.279,-17.4129,-1.23047,0.966797,-156.643,156
1568038871,252.04,-158.279,-17.4129,-1.23047,0.966797,-156.643,156
1568038871,252.04,-158.279,-17.4129,-1.23047,0.966797,-156.643,156
1568038871,252.04,-158.279,-17.4129,-1.23047,0.966797,-156.643,156
1568038871,252.04,-158.279,-17.4129,-1.23047,0.966797,-156.643,156
1568038871,252.04,-158.279,-17.4129,-1.23047,0.966797,-156.643,156
1568038871,252.04,-158.279,-17.4129,-1.23047,0.98877,-156.643,156
1568038871,252.04,-158.279,-17.4129,-1.23047,0.98877,-156.643,156
1568038871,252.04,-158.279,-17.4129,-1.23047,0.98877,-156.643,156
1568038871,252.04,-158.279,-17.4129,-1.23047,0.98877,-156.643,156
1568038871,252.04,-158.279,-17.4129,-1.23047,0.98877,-156.643,156
1568038871,252.04,-158.279,-17.4129,-1.23047,0.98877,-156.643,156
1568038871,252.04,-158.279,-17.4129,-1.23047,0.98877,-156.643,156
1568038871,252.04,-158.279,-17.4129,-1.23047,0.98877,-156.643,156
1568038871,252.04,-158.279,-17.4129,-1.23047,0.98877,-156.643,156
1568038871,252.04,-158.279,-17.4129,-1.23047,0.98877,-156.643,156
1568038871,252.04,-158.279,-17.4129,-1.23047,0.98877,-156.643,156
1568038871,252.04,-158.279,-17.4129,-1.23047,0.98877,-156.643,156
1568038871,252.04,-158.279,-17.4129,-1.23047,0.98877,-156.643,156
1568038871,252.04,-158.279,-17.4129,-1.23047,0.98877,-156.643,156
1568038871,252.04,-158.279,-17.4129,-1.23047,0.98877,-156.643,156
1568038871,252.04,-158.167,-17.4129,-1.23047,0.98877,-156.643,156
1568038871,252.04,-158.167,-17.4129,-1.23047,0.98877,-156.643,156
1568038871,252.04,-158.167,-17.4129,-1.23047,0.98877,-156.643,156
1568038871,252.04,-158.167,-17.4129,-1.2085,0.98877,-156.643,156
1568038871,252.04,-158.167,-17.4129,-1.2085,0.98877,-156.643,156
1568038871,252.04,-158.167,-17.4129,-1.2085,0.98877,-156.643,156
1568038871,252.04,-158.167,-17.4129,-1.2085,0.98877,-156.643,156
1568038871,252.04,-158.167,-17.4129,-1.2085,0.98877,-156.643,156
1568038871,252.04,-158.167,-17.4129,-1.2085,0.98877,-156.643,156
1568038871,252.04,-158.167,-17.4129,-1.2085,0.98877,-156.643,156
1568038871,252.04,-158.167,-17.4129,-1.2085,0.98877,-156.643,156
1568038871,252.04,-158.167,-17.4129,-1.23047,0.98877,-156.643,156
1568038871,252.04,-158.167,-17.4129,-1.23047,0.98877,-156.643,156
1568038871,252.04,-158.167,-17.4129,-1.23047,0.98877,-156.643,156
1568038871,252.04,-158.167,-17.4129,-1.23047,0.98877,-156.643,156
1568038871,252.04,-158.167,-17.4129,-1.23047,0.98877,-156.643,156
1568038871,252.04,-158.167,-17.4129,-1.23047,0.98877,-156.643,156
1568038871,252.04,-158.167,-17.4129,-1.23047,0.98877,-156.643,156
1568038871,252.04,-158.167,-17.4129,-1.23047,0.98877,-156.643,152
1568038871,252.04,-158.167,-17.4129,-1.23047,0.98877,-156.643,152
1568038872,252.04,-158.167,-17.4129,-1.2085,0.98877,-156.643,152
1568038872,252.04,-158.167,-17.4129,-1.2085,0.98877,-156.643,152
1568038872,252.04,-158.167,-17.4129,-1.2085,0.98877,-156.643,152
1568038872,252.04,-158.167,-17.4129,-1.2085,0.98877,-156.643,152
1568038872,252.04,-158.167,-17.4129,-1.2085,0.98877,-156.643,152
1568038872,252.04,-158.167,-17.4129,-1.2085,0.98877,-156.643,152
1568038872,252.04,-158.167,-17.4129,-1.2085,0.98877,-156.643,152
1568038872,252.04,-158.167,-17.4129,-1.2085,0.98877,-156.643,152
1568038872,252.04,-158.167,-17.4129,-1.2085,0.98877,-156.643,152
1568038872,252.04,-158.167,-17.4129,-1.2085,0.98877,-156.643,152
1568038872,252.04,-158.167,-17.4129,-1.2085,0.98877,-156.643,152
1568038872,252.04,-158.167,-17.4129,-1.2085,0.98877,-156.643,152
1568038872,252.04,-158.167,-17.4129,-1.2085,0.98877,-156.643,152
1568038872,252.04,-158.167,-17.4129,-1.2085,0.98877,-156.643,152
1568038872,252.04,-158.167,-17.4129,-1.2085,0.98877,-156.643,152
1568038872,252.04,-158.167,-17.4129,-1.2085,0.98877,-156.643,152
1568038872,252.04,-158.167,-17.4129,-1.2085,0.98877,-156.643,152
1568038872,252.04,-158.167,-17.4129,-1.2085,0.98877,-156.643,152
1568038872,252.04,-158.167,-17.4129,-1.2085,0.98877,-156.643,152
1568038872,252.04,-158.167,-17.4129,-1.2085,0.98877,-156.643,148
1568038872,252.04,-158.167,-17.4129,-1.2085,0.98877,-156.643,148
1568038872,252.04,-158.167,-17.4129,-1.2085,0.98877,-156.643,148
1568038872,252.04,-158.167,-17.4129,-1.2085,0.98877,-156.643,148
1568038872,252.04,-158.167,-17.4129,-1.2085,0.98877,-156.643,148
1568038872,252.04,-158.167,-17.4129,-1.2085,0.98877,-156.643,148
1568038872,252.04,-158.167,-17.4129,-1.2085,0.98877,-156.643,148
1568038872,252.04,-158.167,-17.4129,-1.2085,0.98877,-156.643,148
1568038872,252.04,-158.167,-17.4129,-1.2085,0.98877,-156.643,148
1568038872,252.04,-158.167,-17.4129,-1.2085,0.98877,-156.643,148
1568038872,252.04,-158.167,-17.4129,-1.2085,0.98877,-156.643,152
1568038872,252.04,-158.167,-17.4129,-1.23047,0.98877,-156.643,152
1568038872,252.04,-158.167,-17.4129,-1.23047,0.98877,-156.643,152
1568038872,252.04,-158.167,-17.4129,-1.23047,0.98877,-156.643,152
1568038872,252.04,-158.167,-17.4129,-1.23047,0.98877,-156.643,152
1568038872,252.04,-158.167,-17.4129,-1.23047,0.98877,-156.643,152
1568038872,252.04,-158.167,-17.4129,-1.23047,0.98877,-156.643,152
1568038872,252.04,-158.167,-17.4129,-1.23047,0.98877,-156.643,152
1568038872,252.04,-158.167,-17.4129,-1.23047,0.98877,-156.643,152
1568038872,252.04,-158.167,-17.4129,-1.23047,0.98877,-156.643,152
1568038872,252.04,-158.167,-17.4129,-1.23047,0.98877,-156.643,152
1568038872,252.04,-158.167,-17.4129,-1.23047,0.98877,-156.643,152
1568038872,252.04,-158.167,-17.4129,-1.23047,0.98877,-156.643,152
1568038872,252.04,-158.167,-17.4129,-1.23047,0.98877,-156.643,152
1568038872,252.04,-158.167,-17.4129,-1.23047,0.98877,-156.643,152
1568038872,252.04,-158.167,-17.4129,-1.23047,0.98877,-156.643,152
1568038872,252.04,-158.167,-17.4129,-1.23047,0.98877,-156.643,152
1568038872,252.04,-158.167,-17.4129,-1.23047,0.98877,-156.643,152
1568038872,252.04,-158.167,-17.4129,-1.23047,0.98877,-156.643,152
1568038872,252.04,-158.167,-17.4129,-1.2085,0.98877,-156.643,152
1568038872,252.04,-158.167,-17.4129,-1.2085,0.98877,-156.643,152
1568038872,252.04,-158.167,-17.4129,-1.2085,0.98877,-156.643,152
1568038872,252.04,-158.167,-17.4129,-1.2085,0.98877,-156.643,152
1568038872,252.04,-158.167,-17.4129,-1.2085,0.98877,-156.643,152
1568038872,252.04,-158.167,-17.4129,-1.2085,0.98877,-156.643,152
1568038872,252.04,-158.167,-17.4129,-1.2085,0.98877,-156.643,152
1568038872,252.04,-158.167,-17.4129,-1.2085,0.98877,-156.643,152
1568038872,252.04,-158.167,-17.4129,-1.2085,0.98877,-156.643,152
1568038872,252.04,-158.167,-17.4129,-1.2085,0.98877,-156.643,152
1568038872,252.04,-158.167,-17.4129,-1.2085,0.98877,-156.643,152
1568038872,252.04,-158.167,-17.4129,-1.2085,0.98877,-156.643,152
1568038872,252.04,-158.167,-17.4129,-1.2085,0.98877,-156.643,152
1568038872,252.04,-158.167,-17.4129,-1.2085,0.98877,-156.643,152
1568038872,252.04,-158.167,-17.4129,-1.2085,0.98877,-156.643,152
1568038872,252.04,-158.167,-17.4129,-1.2085,0.98877,-156.643,152
1568038872,252.04,-158.167,-17.4129,-1.2085,0.98877,-156.643,152
1568038872,252.04,-158.167,-17.4129,-1.2085,0.98877,-156.643,152
1568038872,252.04,-158.167,-17.4129,-1.2085,0.98877,-156.643,152
1568038872,252.04,-158.167,-17.4129,-1.2085,0.98877,-156.643,152
1568038872,252.04,-158.167,-17.4129,-1.2085,0.98877,-156.643,152
1568038872,252.04,-158.167,-17.4129,-1.2085,0.98877,-156.643,152
1568038872,252.04,-158.167,-17.5245,-1.2085,0.98877,-156.643,152
1568038872,252.04,-158.167,-17.5245,-1.2085,0.98877,-156.643,152
1568038872,252.04,-158.167,-17.5245,-1.2085,0.98877,-156.643,152
1568038872,252.04,-158.167,-17.5245,-1.2085,0.98877,-156.643,152
1568038872,252.04,-158.167,-17.5245,-1.2085,0.98877,-156.643,152
1568038872,252.04,-158.167,-17.5245,-1.2085,0.98877,-156.643,152
1568038872,252.04,-158.167,-17.5245,-1.2085,0.98877,-156.643,148
1568038872,252.04,-158.167,-17.5245,-1.2085,0.98877,-156.643,148
1568038872,252.04,-158.167,-17.5245,-1.2085,0.98877,-156.643,148
1568038872,252.04,-158.167,-17.5245,-1.2085,0.98877,-156.643,148
1568038872,252.04,-158.167,-17.5245,-1.23047,0.98877,-156.643,148
1568038872,252.04,-158.279,-17.5245,-1.23047,0.98877,-156.643,148
1568038872,252.04,-158.279,-17.5245,-1.2085,0.98877,-156.643,148
1568038872,252.04,-158.279,-17.5245,-1.2085,0.98877,-156.643,148
1568038872,252.04,-158.279,-17.5245,-1.2085,0.98877,-156.643,148
1568038872,252.04,-158.279,-17.5245,-1.2085,0.98877,-156.621,148
1568038872,252.04,-158.279,-17.5245,-1.2085,0.98877,-156.621,148
1568038872,252.04,-158.279,-17.5245,-1.2085,1.01074,-156.621,148
1568038872,252.04,-158.279,-17.5245,-1.2085,1.01074,-156.621,148
1568038872,252.04,-158.279,-17.5245,-1.2085,1.01074,-156.621,148
1568038872,252.04,-158.279,-17.5245,-1.23047,1.01074,-156.621,148
1568038872,252.04,-158.279,-17.5245,-1.23047,1.01074,-156.643,144
1568038872,252.04,-158.279,-17.5245,-1.23047,1.01074,-156.643,144
1568038872,252.04,-158.279,-17.5245,-1.23047,1.01074,-156.643,144
1568038872,252.04,-158.279,-17.5245,-1.23047,1.01074,-156.643,144
1568038872,252.04,-158.279,-17.5245,-1.23047,1.01074,-156.643,144
1568038872,252.04,-158.279,-17.5245,-1.23047,0.98877,-156.643,144
1568038872,252.04,-158.279,-17.5245,-1.23047,0.98877,-156.643,144
1568038872,252.04,-158.279,-17.5245,-1.23047,0.98877,-156.643,144
1568038872,252.04,-158.279,-17.5245,-1.23047,0.98877,-156.643,144
1568038873,252.04,-158.279,-17.4129,-1.23047,0.98877,-156.643,148
1568038873,252.04,-158.279,-17.4129,-1.23047,0.98877,-156.643,148
1568038873,252.04,-158.279,-17.4129,-1.23047,0.98877,-156.643,148
1568038873,252.04,-158.279,-17.4129,-1.23047,0.98877,-156.643,144
1568038873,252.04,-158.279,-17.4129,-1.23047,0.98877,-156.643,144
1568038873,252.04,-158.279,-17.4129,-1.23047,0.98877,-156.643,144
1568038873,252.04,-158.279,-17.4129,-1.23047,0.98877,-156.643,144
1568038873,252.04,-158.279,-17.4129,-1.23047,0.98877,-156.643,144
1568038873,252.04,-158.279,-17.4129,-1.23047,0.98877,-156.643,144
1568038873,252.04,-158.279,-17.4129,-1.23047,0.98877,-156.643,144
1568038873,252.04,-158.279,-17.4129,-1.23047,0.98877,-156.643,144
1568038873,252.04,-158.279,-17.4129,-1.23047,0.98877,-156.643,144
1568038873,252.04,-158.279,-17.4129,-1.23047,0.98877,-156.643,144
1568038873,252.04,-158.279,-17.4129,-1.23047,0.98877,-156.643,140
1568038873,252.04,-158.279,-17.4129,-1.23047,0.98877,-156.643,140
1568038873,252.04,-158.279,-17.4129,-1.23047,0.98877,-156.643,140
1568038873,252.04,-158.279,-17.4129,-1.23047,0.98877,-156.643,140
1568038873,252.04,-158.279,-17.4129,-1.23047,0.98877,-156.643,140
1568038873,252.04,-158.279,-17.4129,-1.23047,0.98877,-156.643,140
1568038873,252.04,-158.279,-17.4129,-1.23047,0.98877,-156.643,140
1568038873,252.04,-158.279,-17.4129,-1.23047,0.98877,-156.643,140
1568038873,252.04,-158.279,-17.4129,-1.23047,0.98877,-156.643,140
1568038873,252.04,-158.279,-17.4129,-1.2085,0.98877,-156.643,140
1568038873,252.04,-158.279,-17.4129,-1.2085,0.98877,-156.643,140
1568038873,252.04,-158.167,-17.4129,-1.2085,0.98877,-156.643,140
1568038873,252.04,-158.167,-17.4129,-1.2085,0.98877,-156.643,140
1568038873,252.04,-158.167,-17.4129,-1.2085,0.98877,-156.643,144
1568038873,252.04,-158.167,-17.4129,-1.2085,0.98877,-156.643,144
1568038873,252.04,-158.167,-17.4129,-1.2085,0.98877,-156.643,144
1568038873,252.04,-158.167,-17.4129,-1.2085,0.98877,-156.643,144
1568038873,252.04,-158.167,-17.4129,-1.2085,0.98877,-156.643,144
1568038873,252.04,-158.167,-17.4129,-1.2085,0.98877,-156.643,144
1568038873,252.04,-158.167,-17.4129,-1.2085,0.98877,-156.643,144
1568038873,252.04,-158.167,-17.4129,-1.2085,0.98877,-156.643,144
1568038873,252.04,-158.167,-17.4129,-1.2085,0.98877,-156.643,144
1568038873,252.04,-158.167,-17.4129,-1.2085,0.98877,-156.643,144
1568038873,252.04,-158.167,-17.4129,-1.2085,0.98877,-156.643,144
1568038873,252.04,-158.167,-17.4129,-1.2085,0.98877,-156.643,144
1568038873,252.04,-158.167,-17.4129,-1.2085,0.98877,-156.643,144
1568038873,252.04,-158.167,-17.4129,-1.23047,0.98877,-156.643,144
1568038873,252.04,-158.167,-17.4129,-1.23047,0.98877,-156.643,144
1568038873,252.04,-158.167,-17.4129,-1.23047,0.98877,-156.643,144
1568038873,252.04,-158.279,-17.4129,-1.23047,0.98877,-156.643,144
1568038873,252.04,-158.279,-17.4129,-1.23047,0.98877,-156.643,144
1568038873,252.04,-158.279,-17.4129,-1.23047,0.98877,-156.643,144
1568038873,252.04,-158.279,-17.4129,-1.23047,0.98877,-156.643,144
1568038873,252.04,-158.279,-17.4129,-1.23047,0.98877,-156.643,144
1568038873,252.04,-158.279,-17.4129,-1.23047,0.98877,-156.643,144
1568038873,252.04,-158.279,-17.4129,-1.23047,0.98877,-156.643,144
1568038873,252.04,-158.279,-17.4129,-1.23047,0.98877,-156.643,144
1568038873,252.04,-158.279,-17.4129,-1.23047,0.98877,-156.643,144
1568038873,252.04,-158.279,-17.4129,-1.23047,0.98877,-156.643,144
1568038873,252.04,-158.279,-17.4129,-1.23047,0.98877,-156.643,144
1568038873,252.04,-158.279,-17.4129,-1.23047,0.98877,-156.643,144
1568038873,252.04,-158.279,-17.4129,-1.23047,0.98877,-156.643,148
1568038879,228.488,-133.834,-17.4129,-1.2085,1.12061,-156.863,140
1568038879,228.488,-133.834,-17.4129,-1.2085,1.12061,-156.863,140
1568038879,228.488,-133.834,-17.4129,-1.2085,1.12061,-156.863,140
1568038879,228.488,-133.834,-17.4129,-1.2085,1.12061,-156.863,140
1568038879,228.488,-133.834,-17.4129,-1.2085,1.12061,-156.863,140
1568038879,228.488,-133.834,-17.4129,-1.2085,1.12061,-156.863,140
1568038879,228.488,-133.834,-17.4129,-1.2085,1.12061,-156.863,140
1568038879,228.488,-133.834,-17.4129,-1.2085,1.12061,-156.863,140
1568038879,228.488,-133.834,-17.4129,-1.2085,1.12061,-156.863,140
1568038879,228.488,-133.834,-17.4129,-1.2085,1.12061,-156.863,140
1568038879,228.488,-133.945,-17.4129,-1.2085,1.12061,-156.863,140
1568038879,228.488,-133.834,-17.4129,-1.2085,1.12061,-156.863,140
1568038879,228.488,-133.834,-17.4129,-1.2085,1.12061,-156.863,140
1568038879,228.488,-133.834,-17.4129,-1.2085,1.12061,-156.863,140
1568038879,228.488,-133.834,-17.4129,-1.2085,1.12061,-156.863,140
1568038879,228.488,-133.834,-17.4129,-1.2085,1.12061,-156.863,140
1568038879,228.488,-133.834,-17.4129,-1.2085,1.12061,-156.863,140
1568038879,228.488,-133.834,-17.4129,-1.2085,1.12061,-156.863,140
1568038879,228.488,-133.834,-17.4129,-1.2085,1.12061,-156.863,144
1568038879,228.488,-133.834,-17.4129,-1.2085,1.12061,-156.863,144
1568038879,228.488,-133.834,-17.4129,-1.2085,1.12061,-156.863,144
1568038880,228.488,-133.834,-17.4129,-1.2085,1.12061,-156.863,144
1568038880,228.488,-133.834,-17.4129,-1.2085,1.12061,-156.863,144
1568038880,228.488,-133.834,-17.4129,-1.2085,1.12061,-156.863,144
1568038880,228.488,-133.834,-17.4129,-1.2085,1.12061,-156.863,144
1568038880,228.488,-133.834,-17.4129,-1.2085,1.12061,-156.863,144
1568038880,228.488,-133.834,-17.4129,-1.2085,1.12061,-156.863,144
1568038880,228.488,-133.834,-17.4129,-1.2085,1.12061,-156.863,144
1568038880,228.488,-133.834,-17.4129,-1.2085,1.12061,-156.863,144
1568038880,228.488,-133.834,-17.4129,-1.2085,1.12061,-156.863,144
1568038880,228.488,-133.834,-17.4129,-1.2085,1.12061,-156.863,144
1568038880,228.488,-133.834,-17.4129,-1.2085,1.12061,-156.863,140
1568038880,228.488,-133.834,-17.4129,-1.2085,1.12061,-156.863,140
1568038880,228.488,-133.834,-17.4129,-1.2085,1.12061,-156.863,140
1568038880,228.488,-133.834,-17.4129,-1.2085,1.12061,-156.863,140
1568038880,228.488,-133.834,-17.4129,-1.2085,1.12061,-156.863,140
1568038880,228.488,-133.834,-17.4129,-1.2085,1.12061,-156.863,140
1568038880,228.488,-133.834,-17.4129,-1.2085,1.12061,-156.863,140
1568038880,228.488,-133.834,-17.4129,-1.2085,1.12061,-156.863,140
1568038880,228.488,-133.834,-17.4129,-1.2085,1.12061,-156.863,140
1568038880,228.488,-133.834,-17.4129,-1.2085,1.12061,-156.863,140
1568038880,228.488,-133.834,-17.4129,-1.2085,1.12061,-156.863,140
1568038880,228.488,-133.834,-17.4129,-1.2085,1.12061,-156.863,140
1568038880,228.488,-133.834,-17.4129,-1.2085,1.12061,-156.863,140
1568038880,228.488,-133.834,-17.4129,-1.2085,1.12061,-156.863,140
1568038880,228.488,-133.834,-17.4129,-1.2085,1.12061,-156.863,140
1568038880,228.488,-133.834,-17.4129,-1.2085,1.12061,-156.863,140
1568038880,228.488,-133.834,-17.4129,-1.2085,1.12061,-156.863,140
1568038880,228.488,-133.834,-17.4129,-1.2085,1.12061,-156.841,140
1568038880,228.488,-133.834,-17.4129,-1.2085,1.12061,-156.841,140
1568038880,228.488,-133.834,-17.4129,-1.2085,1.12061,-156.841,140
1568038880,228.488,-133.834,-17.4129,-1.2085,1.12061,-156.841,140
1568038880,228.488,-133.834,-17.4129,-1.2085,1.12061,-156.841,140
1568038880,228.488,-133.834,-17.4129,-1.2085,1.12061,-156.841,140
1568038880,228.488,-133.834,-17.4129,-1.2085,1.12061,-156.841,140
1568038880,228.488,-133.834,-17.4129,-1.2085,1.12061,-156.841,140
1568038880,228.488,-133.834,-17.4129,-1.2085,1.12061,-156.841,140
1568038880,228.488,-133.834,-17.4129,-1.2085,1.12061,-156.841,140
1568038880,228.488,-133.945,-17.4129,-1.2085,1.12061,-156.841,140
1568038880,228.488,-133.945,-17.4129,-1.2085,1.12061,-156.841,140
1568038880,228.488,-133.945,-17.4129,-1.2085,1.12061,-156.841,140
1568038880,228.488,-133.945,-17.4129,-1.2085,1.12061,-156.841,140
1568038880,228.488,-133.945,-17.4129,-1.2085,1.12061,-156.841,140
1568038880,228.488,-133.945,-17.4129,-1.2085,1.12061,-156.841,140
1568038880,228.488,-133.945,-17.4129,-1.2085,1.12061,-156.841,140
1568038880,228.488,-133.945,-17.4129,-1.2085,1.12061,-156.841,140
1568038880,228.488,-133.834,-17.4129,-1.2085,1.12061,-156.841,140
1568038880,228.488,-133.834,-17.4129,-1.2085,1.12061,-156.863,140
1568038880,228.488,-133.834,-17.4129,-1.2085,1.12061,-156.863,140
1568038880,228.488,-133.834,-17.4129,-1.2085,1.12061,-156.863,140
1568038880,228.488,-133.834,-17.4129,-1.2085,1.12061,-156.863,140
1568038880,228.488,-133.834,-17.4129,-1.2085,1.12061,-156.863,140
1568038880,228.488,-133.834,-17.4129,-1.2085,1.12061,-156.863,140
1568038880,228.488,-133.834,-17.4129,-1.2085,1.12061,-156.863,140
1568038880,228.488,-133.834,-17.4129,-1.2085,1.12061,-156.863,140
1568038880,228.488,-133.834,-17.4129,-1.2085,1.12061,-156.863,140
1568038880,228.488,-133.834,-17.4129,-1.2085,1.12061,-156.863,140
1568038880,228.488,-133.834,-17.4129,-1.2085,1.12061,-156.863,140
1568038880,228.488,-133.834,-17.4129,-1.2085,1.12061,-156.863,140
1568038880,228.488,-133.834,-17.4129,-1.2085,1.12061,-156.863,140
1568038880,228.488,-133.834,-17.4129,-1.2085,1.12061,-156.863,140
1568038880,228.488,-133.834,-17.4129,-1.2085,1.12061,-156.863,140
1568038880,228.377,-133.834,-17.4129,-1.2085,1.12061,-156.841,140
1568038880,228.377,-133.834,-17.4129,-1.2085,1.12061,-156.841,144
1568038880,228.377,-133.945,-17.4129,-1.23047,1.12061,-156.841,144
1568038880,228.488,-133.945,-17.4129,-1.23047,1.12061,-156.863,144
1568038880,228.488,-133.945,-17.4129,-1.23047,1.12061,-156.863,144
1568038880,228.488,-133.945,-17.4129,-1.23047,1.12061,-156.863,144
1568038880,228.488,-133.834,-17.4129,-1.23047,1.12061,-156.863,144
1568038880,228.488,-133.834,-17.4129,-1.23047,1.12061,-156.863,144
1568038880,228.488,-133.834,-17.4129,-1.2085,1.12061,-156.863,144
1568038880,228.488,-133.834,-17.4129,-1.2085,1.12061,-156.863,144
1568038880,228.488,-133.834,-17.4129,-1.2085,1.12061,-156.863,144
1568038880,228.488,-133.834,-17.4129,-1.2085,1.12061,-156.863,144
1568038880,228.488,-133.834,-17.4129,-1.2085,1.12061,-156.863,144
1568038880,228.488,-133.834,-17.4129,-1.2085,1.12061,-156.863,144
1568038880,228.488,-133.834,-17.4129,-1.2085,1.12061,-156.863,144
1568038880,228.488,-133.834,-17.4129,-1.2085,1.12061,-156.863,144
1568038880,228.488,-133.834,-17.4129,-1.2085,1.12061,-156.841,144
1568038880,228.488,-133.834,-17.4129,-1.2085,1.12061,-156.841,144
1568038880,228.488,-133.834,-17.4129,-1.2085,1.12061,-156.841,144
1568038880,228.488,-133.834,-17.4129,-1.2085,1.12061,-156.841,144
1568038880,228.377,-133.834,-17.4129,-1.2085,1.12061,-156.841,144
1568038880,228.377,-133.834,-17.4129,-1.2085,1.12061,-156.841,144
1568038880,228.377,-133.834,-17.4129,-1.2085,1.12061,-156.841,144
1568038880,228.377,-133.834,-17.4129,-1.2085,1.12061,-156.841,148
1568038880,228.377,-133.834,-17.4129,-1.2085,1.12061,-156.841,148
1568038880,228.488,-133.834,-17.4129,-1.2085,1.12061,-156.841,148
1568038880,228.488,-133.834,-17.4129,-1.2085,1.12061,-156.841,148
1568038880,228.488,-133.834,-17.4129,-1.2085,1.12061,-156.841,148
1568038880,228.488,-133.834,-17.4129,-1.2085,1.12061,-156.841,148
1568038880,228.488,-133.834,-17.4129,-1.2085,1.12061,-156.841,148
1568038880,228.488,-133.834,-17.4129,-1.2085,1.12061,-156.841,148
1568038880,228.488,-133.834,-17.4129,-1.2085,1.12061,-156.841,148
1568038880,228.488,-133.834,-17.4129,-1.2085,1.12061,-156.841,148
1568038880,228.488,-133.834,-17.4129,-1.2085,1.12061,-156.841,148
1568038880,228.488,-133.834,-17.4129,-1.2085,1.12061,-156.841,148
1568038880,228.488,-133.834,-17.4129,-1.2085,1.12061,-156.841,148
1568038880,228.488,-133.834,-17.4129,-1.2085,1.12061,-156.841,148
1568038880,228.377,-133.834,-17.4129,-1.2085,1.12061,-156.841,148
1568038880,228.377,-133.834,-17.4129,-1.2085,1.12061,-156.841,148
1568038881,228.377,-133.834,-17.4129,-1.2085,1.12061,-156.841,148
1568038881,228.377,-133.834,-17.4129,-1.2085,1.12061,-156.841,148
1568038881,228.377,-133.834,-17.4129,-1.2085,1.12061,-156.841,148
1568038881,228.377,-133.834,-17.4129,-1.2085,1.12061,-156.841,148
1568038881,228.377,-133.834,-17.4129,-1.2085,1.12061,-156.841,148
1568038881,228.377,-133.834,-17.4129,-1.2085,1.12061,-156.841,148
1568038881,228.377,-133.834,-17.4129,-1.2085,1.12061,-156.841,148
1568038881,228.377,-133.834,-17.4129,-1.2085,1.12061,-156.841,148
1568038881,228.377,-133.834,-17.4129,-1.2085,1.12061,-156.863,148
1568038881,228.377,-133.834,-17.4129,-1.2085,1.12061,-156.863,148
1568038881,228.377,-133.834,-17.4129,-1.2085,1.12061,-156.863,148
1568038881,228.488,-133.834,-17.4129,-1.2085,1.12061,-156.863,148
1568038881,228.377,-133.834,-17.4129,-1.2085,1.12061,-156.863,148
1568038881,228.377,-133.834,-17.4129,-1.2085,1.12061,-156.863,148
1568038881,228.377,-133.834,-17.4129,-1.2085,1.12061,-156.863,148
1568038881,228.377,-133.834,-17.4129,-1.2085,1.12061,-156.863,148
1568038881,228.377,-133.834,-17.4129,-1.2085,1.12061,-156.863,148
1568038881,228.377,-133.834,-17.4129,-1.2085,1.12061,-156.863,148
1568038881,228.377,-133.834,-17.4129,-1.2085,1.12061,-156.863,148
1568038881,228.488,-133.834,-17.4129,-1.2085,1.12061,-156.863,148
1568038881,228.488,-133.834,-17.4129,-1.2085,1.12061,-156.863,148
1568038881,228.488,-133.834,-17.4129,-1.2085,1.12061,-156.863,144
1568038881,228.488,-133.834,-17.4129,-1.2085,1.12061,-156.863,144
1568038881,228.488,-133.834,-17.4129,-1.2085,1.12061,-156.863,144
1568038881,228.488,-133.834,-17.4129,-1.2085,1.12061,-156.863,144
1568038881,228.488,-133.834,-17.4129,-1.2085,1.12061,-156.863,144
1568038881,228.488,-133.834,-17.4129,-1.2085,1.12061,-156.863,144
1568038881,228.488,-133.834,-17.4129,-1.2085,1.12061,-156.863,144
1568038881,228.488,-133.834,-17.4129,-1.2085,1.12061,-156.863,144
1568038881,228.488,-133.834,-17.4129,-1.2085,1.12061,-156.863,144
1568038881,228.377,-133.834,-17.4129,-1.2085,1.12061,-156.863,144
1568038881,228.377,-133.834,-17.4129,-1.2085,1.12061,-156.863,144
1568038881,228.377,-133.834,-17.4129,-1.2085,1.12061,-156.863,144
1568038881,228.377,-133.834,-17.4129,-1.2085,1.12061,-156.863,144
1568038881,228.377,-133.834,-17.4129,-1.2085,1.12061,-156.863,144
1568038881,228.377,-133.834,-17.4129,-1.2085,1.12061,-156.863,144
1568038881,228.377,-133.834,-17.4129,-1.2085,1.12061,-156.863,144
1568038881,228.377,-133.834,-17.4129,-1.2085,1.12061,-156.863,144
1568038881,228.377,-133.834,-17.4129,-1.2085,1.12061,-156.863,144
1568038881,228.377,-133.834,-17.4129,-1.2085,1.12061,-156.863,144
1568038881,228.377,-133.834,-17.4129,-1.2085,1.12061,-156.863,144
1568038881,228.377,-133.834,-17.4129,-1.2085,1.12061,-156.863,144
1568038881,228.377,-133.834,-17.4129,-1.2085,1.12061,-156.863,144
1568038881,228.377,-133.834,-17.4129,-1.2085,1.12061,-156.863,144
1568038881,228.377,-133.834,-17.4129,-1.2085,1.12061,-156.863,144
1568038881,228.377,-133.834,-17.4129,-1.2085,1.12061,-156.841,144
1568038881,228.377,-133.834,-17.4129,-1.2085,1.14258,-156.841,144
1568038881,228.377,-133.834,-17.4129,-1.2085,1.14258,-156.841,144
1568038881,228.377,-133.834,-17.4129,-1.2085,1.14258,-156.841,144
1568038881,228.377,-133.834,-17.4129,-1.2085,1.14258,-156.841,144
1568038881,228.377,-133.834,-17.4129,-1.2085,1.14258,-156.841,144
1568038881,228.377,-133.834,-17.4129,-1.2085,1.14258,-156.841,144
1568038881,228.377,-133.834,-17.4129,-1.2085,1.14258,-156.841,144
1568038881,228.377,-133.834,-17.4129,-1.2085,1.14258,-156.841,144
1568038881,228.377,-133.834,-17.4129,-1.2085,1.14258,-156.841,144
1568038881,228.377,-133.834,-17.4129,-1.2085,1.14258,-156.841,144
1568038881,228.488,-133.834,-17.4129,-1.2085,1.14258,-156.841,144
1568038881,228.488,-133.834,-17.4129,-1.2085,1.14258,-156.841,140
1568038881,228.488,-133.834,-17.4129,-1.2085,1.14258,-156.841,140
1568038881,228.488,-133.834,-17.4129,-1.2085,1.14258,-156.841,140
1568038881,228.488,-133.834,-17.4129,-1.2085,1.14258,-156.841,140
1568038881,228.488,-133.834,-17.4129,-1.2085,1.14258,-156.841,140
1568038881,228.488,-133.834,-17.4129,-1.2085,1.14258,-156.841,140
1568038881,228.488,-133.834,-17.4129,-1.2085,1.14258,-156.841,140
1568038881,228.488,-133.834,-17.4129,-1.2085,1.14258,-156.841,140
1568038881,228.488,-133.834,-17.4129,-1.2085,1.14258,-156.841,140
1568038881,228.488,-133.834,-17.4129,-1.2085,1.14258,-156.841,140
1568038881,228.488,-133.834,-17.4129,-1.2085,1.14258,-156.841,140
1568038881,228.488,-133.834,-17.4129,-1.2085,1.14258,-156.841,140
1568038881,228.488,-133.834,-17.4129,-1.2085,1.14258,-156.841,140
1568038881,228.488,-133.834,-17.4129,-1.2085,1.14258,-156.841,140
1568038881,228.488,-133.834,-17.4129,-1.2085,1.14258,-156.841,140
1568038881,228.488,-133.834,-17.4129,-1.2085,1.14258,-156.841,140
1568038881,228.488,-133.834,-17.4129,-1.2085,1.14258,-156.841,140
1568038881,228.488,-133.834,-17.4129,-1.2085,1.14258,-156.841,140
1568038881,228.488,-133.834,-17.4129,-1.2085,1.14258,-156.841,140
1568038881,228.488,-133.834,-17.4129,-1.2085,1.14258,-156.841,140
1568038881,228.488,-133.834,-17.4129,-1.2085,1.14258,-156.841,140
1568038881,228.488,-133.834,-17.4129,-1.2085,1.14258,-156.841,144
1568038881,228.488,-133.834,-17.4129,-1.2085,1.12061,-156.841,144
1568038881,228.488,-133.834,-17.4129,-1.2085,1.12061,-156.841,144
1568038881,228.488,-133.834,-17.4129,-1.2085,1.12061,-156.841,144
1568038881,228.488,-133.834,-17.4129,-1.2085,1.12061,-156.841,140
1568038881,228.488,-133.834,-17.4129,-1.2085,1.12061,-156.841,140
1568038881,228.488,-133.834,-17.4129,-1.2085,1.12061,-156.841,140
1568038881,228.488,-133.834,-17.4129,-1.2085,1.12061,-156.841,140
1568038881,228.488,-133.834,-17.4129,-1.2085,1.12061,-156.841,140
1568038881,228.488,-133.834,-17.4129,-1.2085,1.12061,-156.841,140
1568038881,228.488,-133.834,-17.4129,-1.2085,1.12061,-156.841,140
1568038881,228.488,-133.834,-17.4129,-1.2085,1.12061,-156.841,140
1568038881,228.488,-133.834,-17.4129,-1.2085,1.12061,-156.841,140
1568038881,228.488,-133.834,-17.4129,-1.2085,1.12061,-156.841,140
1568038881,228.488,-133.834,-17.4129,-1.2085,1.12061,-156.841,140
1568038881,228.488,-133.834,-17.4129,-1.2085,1.12061,-156.841,140
1568038881,228.488,-133.834,-17.4129,-1.2085,1.12061,-156.841,140
1568038881,228.488,-133.834,-17.4129,-1.2085,1.12061,-156.841,140
1568038881,228.488,-133.834,-17.4129,-1.2085,1.12061,-156.841,140
1568038881,228.488,-133.834,-17.4129,-1.2085,1.12061,-156.841,140
1568038881,228.488,-133.834,-17.4129,-1.2085,1.12061,-156.841,140
1568038881,228.488,-133.834,-17.4129,-1.2085,1.12061,-156.841,140
1568038882,228.488,-133.834,-17.4129,-1.2085,1.12061,-156.841,140
1568038882,228.488,-133.834,-17.4129,-1.2085,1.12061,-156.841,140
1568038882,228.488,-133.834,-17.4129,-1.2085,1.12061,-156.841,140
1568038882,228.488,-133.834,-17.4129,-1.2085,1.12061,-156.841,140
1568038882,228.488,-133.834,-17.4129,-1.2085,1.12061,-156.863,140
1568038882,228.377,-133.834,-17.4129,-1.2085,1.12061,-156.863,140
1568038882,228.377,-133.834,-17.4129,-1.2085,1.12061,-156.863,140
1568038882,228.377,-133.834,-17.4129,-1.2085,1.12061,-156.863,140
1568038882,228.377,-133.945,-17.4129,-1.2085,1.12061,-156.863,140
1568038882,228.377,-133.945,-17.4129,-1.23047,1.12061,-156.863,140
1568038882,228.377,-133.945,-17.4129,-1.23047,1.12061,-156.863,144
1568038882,228.377,-133.945,-17.4129,-1.23047,1.12061,-156.863,144
1568038882,228.377,-133.945,-17.4129,-1.23047,1.12061,-156.863,144
1568038882,228.377,-133.945,-17.4129,-1.23047,1.12061,-156.863,144
1568038882,228.377,-133.945,-17.4129,-1.23047,1.12061,-156.841,144
1568038882,228.377,-133.945,-17.4129,-1.23047,1.12061,-156.841,144
1568038882,228.377,-133.945,-17.4129,-1.23047,1.12061,-156.841,144
1568038882,228.377,-133.945,-17.4129,-1.23047,1.12061,-156.841,144
1568038882,228.377,-133.945,-17.4129,-1.23047,1.12061,-156.841,144
1568038882,228.377,-133.945,-17.4129,-1.23047,1.12061,-156.841,144
1568038882,228.377,-133.945,-17.4129,-1.23047,1.12061,-156.841,144
1568038882,228.377,-133.945,-17.4129,-1.23047,1.12061,-156.841,144
1568038882,228.377,-133.945,-17.4129,-1.23047,1.12061,-156.841,144
1568038882,228.377,-133.945,-17.4129,-1.23047,1.12061,-156.841,144
1568038882,228.488,-133.945,-17.4129,-1.2085,1.12061,-156.841,144
1568038882,228.488,-133.834,-17.4129,-1.2085,1.12061,-156.841,144
1568038882,228.488,-133.834,-17.4129,-1.2085,1.12061,-156.841,144
1568038882,228.488,-133.834,-17.4129,-1.2085,1.12061,-156.841,144
1568038882,228.488,-133.834,-17.4129,-1.2085,1.12061,-156.841,144
1568038882,228.488,-133.834,-17.4129,-1.2085,1.12061,-156.841,144
1568038882,228.488,-133.834,-17.4129,-1.2085,1.12061,-156.841,144
1568038882,228.488,-133.834,-17.4129,-1.2085,1.12061,-156.841,144
1568038882,228.488,-133.834,-17.4129,-1.2085,1.12061,-156.841,144
1568038882,228.488,-133.834,-17.4129,-1.2085,1.12061,-156.841,144
1568038882,228.488,-133.834,-17.4129,-1.2085,1.12061,-156.841,144
1568038882,228.488,-133.834,-17.4129,-1.2085,1.12061,-156.841,144
1568038882,228.488,-133.834,-17.4129,-1.2085,1.12061,-156.841,144
1568038882,228.488,-133.834,-17.4129,-1.2085,1.12061,-156.841,144
1568038882,228.488,-133.834,-17.4129,-1.2085,1.12061,-156.841,140
1568038882,228.488,-133.834,-17.4129,-1.2085,1.12061,-156.841,140
1568038882,228.488,-133.834,-17.4129,-1.2085,1.12061,-156.841,140
1568038882,228.488,-133.834,-17.4129,-1.2085,1.12061,-156.841,140
1568038882,228.488,-133.834,-17.4129,-1.2085,1.12061,-156.841,140
1568038882,228.488,-133.834,-17.4129,-1.2085,1.12061,-156.841,140
1568038882,228.488,-133.834,-17.4129,-1.2085,1.12061,-156.841,140
1568038882,228.488,-133.834,-17.4129,-1.2085,1.12061,-156.841,140
1568038882,228.488,-133.834,-17.4129,-1.2085,1.12061,-156.841,140
1568038882,228.488,-133.834,-17.4129,-1.2085,1.12061,-156.841,144
1568038882,228.488,-133.834,-17.4129,-1.2085,1.12061,-156.841,144
1568038882,228.488,-133.834,-17.4129,-1.2085,1.12061,-156.841,144
1568038882,228.488,-133.834,-17.4129,-1.2085,1.12061,-156.841,144
1568038882,228.488,-133.834,-17.4129,-1.2085,1.12061,-156.841,144
1568038882,228.488,-133.834,-17.4129,-1.2085,1.12061,-156.841,144
1568038882,228.488,-133.834,-17.4129,-1.2085,1.12061,-156.841,144
1568038882,228.488,-133.834,-17.4129,-1.2085,1.12061,-156.841,144
1568038882,228.488,-133.834,-17.4129,-1.2085,1.12061,-156.841,144
1568038882,228.488,-133.834,-17.4129,-1.2085,1.12061,-156.841,144
1568038882,228.488,-133.834,-17.4129,-1.2085,1.12061,-156.841,144
1568038882,228.488,-133.834,-17.4129,-1.2085,1.12061,-156.841,144
1568038882,228.488,-133.834,-17.4129,-1.2085,1.12061,-156.841,144
1568038882,228.488,-133.834,-17.4129,-1.2085,1.12061,-156.841,144
1568038882,228.488,-133.834,-17.4129,-1.2085,1.12061,-156.841,144
1568038882,228.488,-133.834,-17.4129,-1.2085,1.12061,-156.841,144
1568038882,228.488,-133.834,-17.4129,-1.2085,1.12061,-156.841,144
1568038882,228.488,-133.834,-17.4129,-1.2085,1.12061,-156.841,144
1568038882,228.488,-133.834,-17.4129,-1.2085,1.12061,-156.841,144
1568038882,228.488,-133.834,-17.4129,-1.2085,1.12061,-156.841,144
1568038882,228.488,-133.834,-17.4129,-1.2085,1.12061,-156.841,144
1568038882,228.488,-133.834,-17.4129,-1.2085,1.12061,-156.841,144
1568038882,228.488,-133.834,-17.4129,-1.2085,1.12061,-156.863,144
1568038882,228.488,-133.834,-17.4129,-1.2085,1.12061,-156.863,144
1568038882,228.488,-133.834,-17.4129,-1.2085,1.12061,-156.863,144
1568038882,228.488,-133.834,-17.4129,-1.2085,1.12061,-156.863,144
1568038882,228.488,-133.834,-17.4129,-1.2085,1.12061,-156.863,144
1568038882,228.488,-133.834,-17.4129,-1.2085,1.12061,-156.863,144
1568038882,228.488,-133.834,-17.4129,-1.2085,1.12061,-156.863,144
1568038882,228.488,-133.834,-17.4129,-1.2085,1.12061,-156.863,144
1568038882,228.488,-133.834,-17.4129,-1.2085,1.12061,-156.863,144
1568038882,228.488,-133.834,-17.4129,-1.2085,1.12061,-156.863,144
1568038882,228.488,-133.834,-17.4129,-1.2085,1.12061,-156.863,144
1568038882,228.488,-133.834,-17.4129,-1.2085,1.12061,-156.863,144
1568038882,228.488,-133.834,-17.4129,-1.2085,1.12061,-156.863,144
1568038882,228.488,-133.834,-17.4129,-1.2085,1.12061,-156.863,144
1568038882,228.488,-133.834,-17.4129,-1.2085,1.12061,-156.863,144
1568038882,228.488,-133.834,-17.4129,-1.2085,1.12061,-156.841,144
1568038882,228.488,-133.834,-17.4129,-1.2085,1.12061,-156.841,144
1568038882,228.488,-133.834,-17.4129,-1.2085,1.12061,-156.841,144
1568038882,228.488,-133.834,-17.4129,-1.2085,1.12061,-156.841,144
1568038882,228.488,-133.834,-17.4129,-1.2085,1.12061,-156.841,144
1568038882,228.488,-133.834,-17.4129,-1.2085,1.12061,-156.841,144
1568038882,228.488,-133.834,-17.4129,-1.2085,1.12061,-156.841,144
1568038882,228.488,-133.834,-17.4129,-1.2085,1.12061,-156.841,144
1568038882,228.488,-133.834,-17.4129,-1.2085,1.12061,-156.841,144
1568038882,228.488,-133.834,-17.4129,-1.2085,1.12061,-156.841,144
1568038882,228.488,-133.834,-17.4129,-1.2085,1.12061,-156.841,144
1568038882,228.488,-133.834,-17.4129,-1.2085,1.12061,-156.841,144
1568038882,228.488,-133.834,-17.4129,-1.2085,1.12061,-156.863,144
1568038882,228.488,-133.834,-17.4129,-1.2085,1.12061,-156.863,144
1568038882,228.488,-133.834,-17.4129,-1.2085,1.12061,-156.863,144
1568038882,228.488,-133.834,-17.4129,-1.2085,1.12061,-156.863,144
1568038883,228.488,-133.834,-17.3013,-1.2085,1.12061,-156.863,144
1568038883,228.488,-133.945,-17.3013,-1.2085,1.09863,-156.863,144
1568038883,228.488,-133.945,-17.3013,-1.2085,1.09863,-156.863,144
1568038883,228.488,-133.945,-17.3013,-1.2085,1.09863,-156.863,144
1568038883,228.488,-133.945,-17.3013,-1.2085,1.09863,-156.863,144
1568038883,228.488,-133.945,-17.3013,-1.2085,1.09863,-156.863,144
1568038883,228.488,-133.945,-17.3013,-1.2085,1.09863,-156.863,140
1568038883,228.488,-133.945,-17.3013,-1.2085,1.09863,-156.863,140
1568038883,228.488,-133.945,-17.3013,-1.2085,1.09863,-156.863,140
1568038883,228.488,-133.945,-17.3013,-1.2085,1.09863,-156.863,140
1568038883,228.488,-133.945,-17.3013,-1.2085,1.09863,-156.863,140
1568038883,228.488,-133.945,-17.3013,-1.2085,1.09863,-156.863,140
1568038883,228.488,-133.945,-17.3013,-1.2085,1.09863,-156.863,140
1568038883,228.488,-133.945,-17.3013,-1.23047,1.09863,-156.863,140
1568038883,228.488,-133.945,-17.3013,-1.23047,1.09863,-156.863,140
1568038883,228.488,-133.945,-17.3013,-1.23047,1.09863,-156.863,140
1568038883,228.488,-133.945,-17.3013,-1.23047,1.09863,-156.863,140
1568038883,228.488,-133.945,-17.4129,-1.23047,1.09863,-156.863,140
1568038883,228.488,-133.945,-17.4129,-1.23047,1.12061,-156.863,140
1568038883,228.488,-133.945,-17.4129,-1.23047,1.12061,-156.863,140
1568038883,228.488,-133.945,-17.4129,-1.23047,1.12061,-156.863,140
1568038883,228.488,-133.945,-17.4129,-1.23047,1.12061,-156.863,136
1568038883,228.488,-133.945,-17.4129,-1.23047,1.12061,-156.863,136
1568038883,228.488,-133.945,-17.4129,-1.2085,1.12061,-156.863,136
1568038883,228.488,-133.945,-17.4129,-1.2085,1.12061,-156.863,136
1568038883,228.488,-133.945,-17.4129,-1.2085,1.12061,-156.863,136
1568038883,228.488,-133.945,-17.4129,-1.2085,1.12061,-156.863,136
1568038883,228.488,-133.834,-17.4129,-1.2085,1.12061,-156.863,136
1568038883,228.488,-133.834,-17.4129,-1.2085,1.12061,-156.863,136
1568038883,228.488,-133.834,-17.4129,-1.2085,1.12061,-156.863,136
1568038883,228.488,-133.834,-17.4129,-1.2085,1.12061,-156.863,136
1568038883,228.488,-133.834,-17.4129,-1.2085,1.12061,-156.863,136
1568038883,228.488,-133.834,-17.4129,-1.2085,1.12061,-156.863,136
1568038883,228.488,-133.834,-17.4129,-1.2085,1.12061,-156.863,136
1568038883,228.488,-133.834,-17.4129,-1.2085,1.12061,-156.863,136
1568038883,228.488,-133.834,-17.4129,-1.2085,1.12061,-156.863,136
1568038883,228.488,-133.834,-17.4129,-1.2085,1.12061,-156.863,136
1568038883,228.488,-133.834,-17.4129,-1.2085,1.12061,-156.863,136
1568038883,228.488,-133.834,-17.4129,-1.2085,1.12061,-156.863,136
1568038883,228.488,-133.834,-17.4129,-1.2085,1.12061,-156.863,136
1568038883,228.488,-133.834,-17.4129,-1.2085,1.12061,-156.863,136
1568038883,228.488,-133.834,-17.4129,-1.2085,1.12061,-156.841,136
1568038883,228.488,-133.834,-17.4129,-1.2085,1.12061,-156.841,136
1568038883,228.488,-133.834,-17.4129,-1.2085,1.12061,-156.841,136
1568038883,228.488,-133.834,-17.4129,-1.2085,1.12061,-156.841,136
1568038883,228.488,-133.834,-17.4129,-1.2085,1.12061,-156.841,136
1568038883,228.488,-133.834,-17.4129,-1.2085,1.12061,-156.841,136
1568038883,228.488,-133.834,-17.4129,-1.2085,1.12061,-156.841,136
1568038883,228.488,-133.834,-17.4129,-1.2085,1.12061,-156.841,136
1568038883,228.488,-133.834,-17.4129,-1.2085,1.12061,-156.841,136
1568038883,228.488,-133.834,-17.4129,-1.2085,1.12061,-156.841,136
1568038883,228.488,-133.834,-17.4129,-1.2085,1.12061,-156.841,136
1568038883,228.488,-133.834,-17.4129,-1.2085,1.12061,-156.841,136
1568038883,228.488,-133.834,-17.4129,-1.2085,1.12061,-156.841,136
1568038883,228.488,-133.834,-17.4129,-1.2085,1.12061,-156.841,140
1568038883,228.488,-133.834,-17.4129,-1.2085,1.12061,-156.841,140
1568038883,228.488,-133.834,-17.4129,-1.2085,1.12061,-156.841,140
1568038883,228.488,-133.834,-17.4129,-1.2085,1.12061,-156.841,140
1568038883,228.488,-133.834,-17.4129,-1.2085,1.12061,-156.841,140
1568038883,228.488,-133.834,-17.4129,-1.2085,1.12061,-156.841,140
1568038883,228.488,-133.834,-17.4129,-1.2085,1.12061,-156.841,140
1568038883,228.488,-133.834,-17.4129,-1.2085,1.12061,-156.841,140
1568038883,228.488,-133.834,-17.4129,-1.2085,1.12061,-156.841,140
1568038883,228.377,-133.834,-17.4129,-1.2085,1.12061,-156.841,140
1568038883,228.377,-133.834,-17.4129,-1.2085,1.12061,-156.841,140
1568038883,228.377,-133.834,-17.4129,-1.2085,1.12061,-156.841,140
1568038883,228.377,-133.834,-17.4129,-1.2085,1.12061,-156.841,140
1568038883,228.377,-133.834,-17.4129,-1.2085,1.12061,-156.841,140
1568038883,228.377,-133.834,-17.4129,-1.2085,1.12061,-156.841,144
1568038883,228.377,-133.834,-17.4129,-1.2085,1.12061,-156.841,144
1568038883,228.377,-133.834,-17.4129,-1.2085,1.12061,-156.841,144
1568038883,228.377,-133.834,-17.4129,-1.2085,1.12061,-156.841,144
1568038883,228.377,-133.834,-17.4129,-1.2085,1.12061,-156.841,144
1568038883,228.377,-133.834,-17.4129,-1.2085,1.12061,-156.841,144
1568038883,228.377,-133.834,-17.4129,-1.2085,1.12061,-156.841,144
1568038883,228.377,-133.834,-17.4129,-1.2085,1.12061,-156.841,144
1568038883,228.377,-133.834,-17.4129,-1.2085,1.12061,-156.841,144
1568038883,228.377,-133.834,-17.4129,-1.2085,1.12061,-156.841,144
1568038883,228.377,-133.834,-17.4129,-1.2085,1.12061,-156.841,144
1568038883,228.377,-133.834,-17.4129,-1.2085,1.12061,-156.841,144
1568038883,228.377,-133.834,-17.4129,-1.2085,1.12061,-156.841,144
1568038883,228.377,-133.834,-17.4129,-1.2085,1.12061,-156.841,144
1568038883,228.377,-133.834,-17.4129,-1.2085,1.12061,-156.841,144
1568038883,228.377,-133.834,-17.4129,-1.2085,1.12061,-156.841,144
1568038883,228.377,-133.834,-17.4129,-1.2085,1.12061,-156.841,144
1568038883,228.377,-133.834,-17.4129,-1.2085,1.12061,-156.841,144
1568038883,228.377,-133.834,-17.4129,-1.2085,1.12061,-156.841,144
1568038883,228.377,-133.834,-17.4129,-1.2085,1.12061,-156.841,144
1568038883,228.488,-133.834,-17.4129,-1.2085,1.12061,-156.841,144
1568038883,228.488,-133.834,-17.4129,-1.2085,1.12061,-156.841,144
1568038883,228.488,-133.834,-17.4129,-1.2085,1.12061,-156.841,144
1568038883,228.488,-133.834,-17.4129,-1.2085,1.12061,-156.841,144
1568038883,228.488,-133.834,-17.4129,-1.2085,1.12061,-156.841,144
1568038883,228.488,-133.834,-17.4129,-1.2085,1.12061,-156.841,144
1568038883,228.488,-133.834,-17.4129,-1.2085,1.12061,-156.841,144
1568038883,228.488,-133.834,-17.4129,-1.2085,1.12061,-156.841,144
1568038883,228.488,-133.834,-17.4129,-1.2085,1.12061,-156.841,144
1568038883,228.377,-133.834,-17.4129,-1.2085,1.12061,-156.863,144
1568038883,228.377,-133.834,-17.4129,-1.2085,1.12061,-156.863,144
1568038883,228.377,-133.834,-17.4129,-1.2085,1.12061,-156.863,144
1568038884,228.377,-133.834,-17.4129,-1.2085,1.12061,-156.863,144
1568038884,228.377,-133.834,-17.4129,-1.2085,1.12061,-156.863,144
1568038884,228.377,-133.834,-17.4129,-1.2085,1.12061,-156.863,144
1568038884,228.377,-133.834,-17.4129,-1.2085,1.12061,-156.863,144
1568038884,228.377,-133.834,-17.4129,-1.2085,1.12061,-156.863,144
1568038884,228.377,-133.834,-17.4129,-1.2085,1.12061,-156.863,144
1568038884,228.377,-133.834,-17.4129,-1.2085,1.12061,-156.863,144
1568038884,228.377,-133.834,-17.4129,-1.2085,1.12061,-156.863,144
1568038884,228.377,-133.834,-17.4129,-1.2085,1.12061,-156.863,144
1568038884,228.377,-133.834,-17.4129,-1.2085,1.12061,-156.863,144
1568038884,228.377,-133.834,-17.4129,-1.2085,1.12061,-156.863,144
1568038884,228.377,-133.834,-17.4129,-1.2085,1.12061,-156.863,144
1568038884,228.377,-133.834,-17.4129,-1.2085,1.12061,-156.863,144
1568038884,228.377,-133.834,-17.4129,-1.2085,1.12061,-156.863,144
1568038884,228.377,-133.834,-17.4129,-1.2085,1.12061,-156.863,144
1568038884,228.377,-133.834,-17.4129,-1.2085,1.12061,-156.863,144
1568038884,228.377,-133.834,-17.4129,-1.2085,1.12061,-156.863,144
1568038884,228.377,-133.834,-17.4129,-1.2085,1.12061,-156.863,144
1568038884,228.377,-133.834,-17.4129,-1.2085,1.12061,-156.863,144
1568038884,228.377,-133.834,-17.4129,-1.2085,1.12061,-156.863,144
1568038884,228.377,-133.834,-17.4129,-1.2085,1.12061,-156.863,144
1568038884,228.377,-133.834,-17.4129,-1.2085,1.12061,-156.863,144
1568038884,228.377,-133.834,-17.4129,-1.2085,1.12061,-156.863,144
1568038884,228.377,-133.834,-17.4129,-1.2085,1.12061,-156.863,144
1568038884,228.377,-133.834,-17.4129,-1.2085,1.12061,-156.863,144
1568038884,228.377,-133.834,-17.4129,-1.2085,1.12061,-156.863,144
1568038884,228.377,-133.834,-17.4129,-1.2085,1.12061,-156.863,144
1568038884,228.377,-133.834,-17.4129,-1.2085,1.12061,-156.863,144
1568038884,228.377,-133.834,-17.4129,-1.2085,1.12061,-156.863,144
1568038884,228.377,-133.834,-17.4129,-1.2085,1.12061,-156.863,144
1568038884,228.377,-133.834,-17.4129,-1.2085,1.12061,-156.863,144
1568038884,228.377,-133.834,-17.4129,-1.2085,1.12061,-156.863,144
1568038884,228.377,-133.834,-17.4129,-1.2085,1.12061,-156.863,144
1568038884,228.377,-133.834,-17.4129,-1.2085,1.12061,-156.863,144
1568038884,228.377,-133.834,-17.4129,-1.2085,1.14258,-156.863,144
1568038884,228.377,-133.834,-17.4129,-1.2085,1.14258,-156.863,144
1568038884,228.377,-133.834,-17.4129,-1.2085,1.14258,-156.863,144
1568038884,228.377,-133.834,-17.4129,-1.2085,1.14258,-156.863,144
1568038884,228.377,-133.834,-17.4129,-1.2085,1.14258,-156.841,144
1568038884,228.377,-133.834,-17.4129,-1.2085,1.14258,-156.841,144
1568038884,228.377,-133.834,-17.4129,-1.2085,1.14258,-156.841,144
1568038884,228.377,-133.834,-17.4129,-1.2085,1.14258,-156.841,144
1568038884,228.377,-133.834,-17.4129,-1.2085,1.14258,-156.841,144
1568038884,228.377,-133.834,-17.4129,-1.2085,1.14258,-156.863,144
1568038884,228.377,-133.834,-17.4129,-1.2085,1.14258,-156.863,144
1568038884,228.488,-133.834,-17.4129,-1.2085,1.14258,-156.863,144
1568038884,228.488,-133.834,-17.4129,-1.2085,1.12061,-156.863,144
1568038884,228.377,-133.834,-17.4129,-1.2085,1.12061,-156.863,144
1568038884,228.377,-133.834,-17.4129,-1.2085,1.12061,-156.863,144
1568038884,228.377,-133.834,-17.4129,-1.2085,1.12061,-156.863,144
1568038884,228.377,-133.834,-17.4129,-1.23047,1.12061,-156.841,140
1568038884,228.377,-133.834,-17.4129,-1.23047,1.12061,-156.841,140
1568038884,228.377,-133.834,-17.4129,-1.23047,1.12061,-156.841,140
1568038884,228.377,-133.834,-17.4129,-1.23047,1.12061,-156.841,140
1568038884,228.377,-133.945,-17.4129,-1.23047,1.12061,-156.841,140
1568038884,228.377,-133.945,-17.4129,-1.23047,1.12061,-156.841,140
1568038884,228.377,-133.834,-17.4129,-1.23047,1.12061,-156.841,140
1568038884,228.377,-133.834,-17.4129,-1.23047,1.12061,-156.841,140
1568038884,228.377,-133.834,-17.4129,-1.2085,1.12061,-156.841,140
1568038884,228.377,-133.834,-17.4129,-1.2085,1.12061,-156.841,140
1568038884,228.377,-133.834,-17.4129,-1.2085,1.12061,-156.841,140
1568038884,228.377,-133.834,-17.4129,-1.2085,1.12061,-156.841,140
1568038884,228.377,-133.834,-17.4129,-1.2085,1.12061,-156.841,140
1568038884,228.377,-133.834,-17.4129,-1.2085,1.12061,-156.841,140
1568038884,228.377,-133.834,-17.4129,-1.2085,1.12061,-156.841,140
1568038884,228.377,-133.834,-17.4129,-1.2085,1.12061,-156.841,140
1568038884,228.377,-133.834,-17.4129,-1.2085,1.12061,-156.841,140
1568038884,228.377,-133.834,-17.4129,-1.2085,1.12061,-156.841,140
1568038884,228.377,-133.834,-17.4129,-1.2085,1.12061,-156.841,140
1568038884,228.377,-133.834,-17.4129,-1.2085,1.12061,-156.841,140
1568038884,228.377,-133.834,-17.4129,-1.2085,1.12061,-156.841,140
1568038884,228.377,-133.834,-17.4129,-1.2085,1.12061,-156.841,140
1568038884,228.377,-133.834,-17.4129,-1.2085,1.12061,-156.841,140
1568038884,228.377,-133.834,-17.4129,-1.2085,1.12061,-156.841,140
1568038884,228.488,-133.834,-17.4129,-1.2085,1.12061,-156.841,140
1568038884,228.377,-133.834,-17.4129,-1.2085,1.12061,-156.841,140
1568038884,228.377,-133.834,-17.4129,-1.2085,1.12061,-156.841,144
1568038884,228.377,-133.834,-17.4129,-1.2085,1.12061,-156.841,144
1568038884,228.377,-133.834,-17.4129,-1.2085,1.12061,-156.841,144
1568038891,189.086,-93.3152,-17.1896,-1.3623,1.38428,-157.039,100
1568038891,189.086,-93.3152,-17.1896,-1.3623,1.38428,-157.039,100
1568038891,189.086,-93.3152,-17.1896,-1.3623,1.38428,-157.039,100
1568038891,189.086,-93.3152,-17.1896,-1.3623,1.38428,-157.039,104
1568038891,189.086,-93.3152,-17.1896,-1.3623,1.38428,-157.039,104
1568038891,189.086,-93.3152,-17.1896,-1.3623,1.38428,-157.039,104
1568038891,189.086,-93.3152,-17.1896,-1.3623,1.38428,-157.039,104
1568038891,189.086,-93.3152,-17.1896,-1.3623,1.38428,-157.039,104
1568038891,189.086,-93.3152,-17.1896,-1.3623,1.38428,-157.039,104
1568038891,189.086,-93.3152,-17.1896,-1.3623,1.38428,-157.039,104
1568038891,189.086,-93.3152,-17.1896,-1.3623,1.38428,-157.039,104
1568038891,189.086,-93.3152,-17.1896,-1.3623,1.38428,-157.039,104
1568038891,189.086,-93.3152,-17.1896,-1.3623,1.38428,-157.039,104
1568038891,189.086,-93.3152,-17.1896,-1.3623,1.38428,-157.039,104
1568038891,189.086,-93.3152,-17.1896,-1.3623,1.38428,-157.039,104
1568038891,189.086,-93.3152,-17.1896,-1.3623,1.38428,-157.039,104
1568038891,189.086,-93.3152,-17.1896,-1.3623,1.38428,-157.039,104
1568038891,189.086,-93.3152,-17.1896,-1.3623,1.38428,-157.039,104
1568038891,189.086,-93.3152,-17.1896,-1.3623,1.38428,-157.039,104
1568038891,189.086,-93.3152,-17.1896,-1.3623,1.38428,-157.039,104
1568038891,189.086,-93.3152,-17.1896,-1.3623,1.38428,-157.039,104
1568038891,189.086,-93.3152,-17.1896,-1.3623,1.38428,-157.039,104
1568038891,189.086,-93.3152,-17.1896,-1.3623,1.38428,-157.039,104
1568038891,189.086,-93.3152,-17.1896,-1.3623,1.38428,-157.039,104
1568038891,189.086,-93.3152,-17.1896,-1.3623,1.38428,-157.039,104
1568038891,189.086,-93.3152,-17.1896,-1.3623,1.38428,-157.039,104
1568038891,189.086,-93.3152,-17.1896,-1.3623,1.38428,-157.039,104
1568038891,189.086,-93.3152,-17.1896,-1.3623,1.38428,-157.039,104
1568038891,189.086,-93.3152,-17.1896,-1.3623,1.38428,-157.039,104
1568038891,189.086,-93.3152,-17.1896,-1.3623,1.38428,-157.039,104
1568038891,189.086,-93.3152,-17.1896,-1.3623,1.38428,-157.039,104
1568038891,189.086,-93.3152,-17.1896,-1.3623,1.38428,-157.039,104
1568038891,189.086,-93.3152,-17.1896,-1.3623,1.38428,-157.039,104
1568038891,189.086,-93.3152,-17.1896,-1.3623,1.38428,-157.039,104
1568038891,189.086,-93.3152,-17.1896,-1.3623,1.38428,-157.039,104
1568038891,189.086,-93.3152,-17.1896,-1.3623,1.38428,-157.039,100
1568038891,189.086,-93.3152,-17.1896,-1.3623,1.38428,-157.039,100
1568038891,189.086,-93.3152,-17.1896,-1.3623,1.38428,-157.039,100
1568038891,189.086,-93.3152,-17.1896,-1.3623,1.38428,-157.039,100
1568038891,189.086,-93.3152,-17.1896,-1.3623,1.38428,-157.039,100
1568038891,189.086,-93.3152,-17.1896,-1.3623,1.38428,-157.039,100
1568038891,189.086,-93.3152,-17.1896,-1.3623,1.38428,-157.039,100
1568038891,189.086,-93.3152,-17.1896,-1.3623,1.38428,-157.039,100
1568038891,189.086,-93.3152,-17.1896,-1.3623,1.38428,-157.039,100
1568038891,189.086,-93.3152,-17.1896,-1.3623,1.38428,-157.039,100
1568038891,189.086,-93.3152,-17.1896,-1.3623,1.38428,-157.039,100
1568038891,189.086,-93.3152,-17.1896,-1.3623,1.38428,-157.039,100
1568038891,189.086,-93.3152,-17.1896,-1.3623,1.38428,-157.039,100
1568038891,189.086,-93.3152,-17.1896,-1.3623,1.38428,-157.039,100
1568038891,189.086,-93.3152,-17.1896,-1.3623,1.38428,-157.039,100
1568038891,189.086,-93.3152,-17.1896,-1.3623,1.38428,-157.039,100
1568038891,189.086,-93.3152,-17.1896,-1.3623,1.38428,-157.039,100
1568038891,189.086,-93.3152,-17.1896,-1.3623,1.38428,-157.039,100
1568038891,189.086,-93.3152,-17.1896,-1.3623,1.38428,-157.039,100
1568038891,189.086,-93.3152,-17.1896,-1.3623,1.38428,-157.039,100
1568038891,189.086,-93.3152,-17.1896,-1.3623,1.38428,-157.039,100
1568038891,189.086,-93.3152,-17.1896,-1.3623,1.38428,-157.039,100
1568038891,189.086,-93.3152,-17.1896,-1.3623,1.38428,-157.039,100
1568038891,189.086,-93.3152,-17.1896,-1.3623,1.38428,-157.039,100
1568038891,189.086,-93.3152,-17.1896,-1.3623,1.38428,-157.039,100
1568038891,189.086,-93.3152,-17.1896,-1.3623,1.38428,-157.039,100
1568038891,189.086,-93.3152,-17.1896,-1.3623,1.38428,-157.039,100
1568038891,189.086,-93.3152,-17.1896,-1.3623,1.38428,-157.039,100
1568038891,189.086,-93.3152,-17.1896,-1.3623,1.38428,-157.039,100
1568038891,189.086,-93.3152,-17.1896,-1.3623,1.38428,-157.039,100
1568038891,189.086,-93.3152,-17.1896,-1.3623,1.38428,-157.039,100
1568038891,189.086,-93.3152,-17.1896,-1.3623,1.38428,-157.039,100
1568038891,189.086,-93.3152,-17.1896,-1.3623,1.38428,-157.039,100
1568038891,189.086,-93.3152,-17.1896,-1.3623,1.38428,-157.039,100
1568038891,189.086,-93.3152,-17.1896,-1.3623,1.38428,-157.039,100
1568038891,189.086,-93.3152,-17.1896,-1.3623,1.38428,-157.039,100
1568038891,189.086,-93.3152,-17.1896,-1.3623,1.38428,-157.039,100
1568038891,189.086,-93.3152,-17.1896,-1.3623,1.38428,-157.039,100
1568038891,189.086,-93.3152,-17.1896,-1.3623,1.38428,-157.039,100
1568038891,189.086,-93.3152,-17.1896,-1.3623,1.38428,-157.039,100
1568038891,189.086,-93.3152,-17.1896,-1.3623,1.38428,-157.039,100
1568038891,189.086,-93.3152,-17.1896,-1.3623,1.38428,-157.039,100
1568038891,189.086,-93.3152,-17.1896,-1.3623,1.38428,-157.039,100
1568038891,189.086,-93.3152,-17.1896,-1.3623,1.38428,-157.039,100
1568038891,189.086,-93.3152,-17.1896,-1.3623,1.38428,-157.039,100
1568038891,189.086,-93.3152,-17.1896,-1.3623,1.38428,-157.039,100
1568038891,189.086,-93.3152,-17.1896,-1.3623,1.38428,-157.039,100
1568038891,189.086,-93.3152,-17.1896,-1.3623,1.38428,-157.039,100
1568038891,189.086,-93.3152,-17.1896,-1.3623,1.38428,-157.039,100
1568038891,189.086,-93.3152,-17.1896,-1.3623,1.38428,-157.017,96
1568038891,189.086,-93.3152,-17.1896,-1.3623,1.38428,-157.017,96
1568038891,189.086,-93.3152,-17.1896,-1.3623,1.38428,-157.017,96
1568038891,189.086,-93.3152,-17.1896,-1.3623,1.38428,-157.039,96
1568038891,189.086,-93.3152,-17.1896,-1.3623,1.38428,-157.039,96
1568038891,189.086,-93.3152,-17.1896,-1.3623,1.38428,-157.039,96
1568038891,189.086,-93.3152,-17.1896,-1.3623,1.38428,-157.039,96
1568038891,189.086,-93.3152,-17.1896,-1.3623,1.38428,-157.039,96
1568038892,189.086,-93.3152,-17.1896,-1.3623,1.38428,-157.039,96
1568038892,189.086,-93.3152,-17.1896,-1.3623,1.38428,-157.039,96
1568038892,189.086,-93.3152,-17.1896,-1.3623,1.38428,-157.039,96
1568038892,189.086,-93.3152,-17.1896,-1.3623,1.38428,-157.039,96
1568038892,189.086,-93.3152,-17.1896,-1.3623,1.38428,-157.017,96
1568038892,189.086,-93.3152,-17.1896,-1.3623,1.38428,-157.017,96
1568038892,189.086,-93.3152,-17.1896,-1.3623,1.38428,-157.017,100
1568038892,189.086,-93.3152,-17.1896,-1.3623,1.38428,-157.017,100
1568038892,189.086,-93.3152,-17.1896,-1.3623,1.38428,-157.017,100
1568038892,189.086,-93.3152,-17.1896,-1.3623,1.38428,-157.017,100
1568038892,189.086,-93.3152,-17.1896,-1.3623,1.38428,-157.017,100
1568038892,189.086,-93.3152,-17.1896,-1.3623,1.38428,-157.017,100
1568038892,189.086,-93.3152,-17.1896,-1.3623,1.38428,-157.017,100
1568038892,189.086,-93.3152,-17.1896,-1.3623,1.38428,-157.017,100
1568038892,189.086,-93.3152,-17.1896,-1.3623,1.38428,-157.017,100
1568038892,189.086,-93.3152,-17.1896,-1.3623,1.38428,-157.039,100
1568038892,189.086,-93.3152,-17.1896,-1.3623,1.38428,-157.039,100
1568038892,189.086,-93.3152,-17.1896,-1.3623,1.38428,-157.039,100
1568038892,189.086,-93.3152,-17.1896,-1.3623,1.38428,-157.039,100
1568038892,189.086,-93.3152,-17.1896,-1.3623,1.38428,-157.039,100
1568038892,189.086,-93.3152,-17.1896,-1.3623,1.38428,-157.039,100
1568038892,189.086,-93.3152,-17.1896,-1.3623,1.38428,-157.039,100
1568038892,189.086,-93.3152,-17.1896,-1.3623,1.38428,-157.039,100
1568038892,189.086,-93.3152,-17.1896,-1.3623,1.38428,-157.039,100
1568038892,189.086,-93.3152,-17.1896,-1.3623,1.38428,-157.039,100
1568038892,189.086,-93.3152,-17.1896,-1.3623,1.38428,-157.039,100
1568038892,189.086,-93.3152,-17.1896,-1.3623,1.38428,-157.039,100
1568038892,189.086,-93.3152,-17.1896,-1.3623,1.38428,-157.039,100
1568038892,189.086,-93.3152,-17.1896,-1.3623,1.38428,-157.039,100
1568038892,189.086,-93.3152,-17.1896,-1.3623,1.38428,-157.039,100
1568038892,189.086,-93.3152,-17.1896,-1.3623,1.38428,-157.039,100
1568038892,189.086,-93.3152,-17.1896,-1.3623,1.38428,-157.039,100
1568038892,189.086,-93.3152,-17.1896,-1.3623,1.38428,-157.039,100
1568038892,189.086,-93.3152,-17.1896,-1.3623,1.38428,-157.039,100
1568038892,189.086,-93.3152,-17.1896,-1.3623,1.38428,-157.039,100
1568038892,189.086,-93.3152,-17.1896,-1.3623,1.38428,-157.039,100
1568038892,189.086,-93.3152,-17.1896,-1.3623,1.38428,-157.039,100
1568038892,189.086,-93.3152,-17.1896,-1.3623,1.38428,-157.039,100
1568038892,189.086,-93.3152,-17.1896,-1.3623,1.38428,-157.039,100
1568038892,189.086,-93.3152,-17.1896,-1.3623,1.38428,-157.039,100
1568038892,189.086,-93.3152,-17.1896,-1.3623,1.38428,-157.039,96
1568038892,189.086,-93.3152,-17.1896,-1.3623,1.38428,-157.039,96
1568038892,189.086,-93.3152,-17.1896,-1.3623,1.38428,-157.039,96
1568038892,189.086,-93.3152,-17.1896,-1.3623,1.38428,-157.039,96
1568038892,189.086,-93.3152,-17.1896,-1.3623,1.38428,-157.039,96
1568038892,189.086,-93.3152,-17.1896,-1.3623,1.38428,-157.039,100
1568038892,189.086,-93.3152,-17.1896,-1.3623,1.38428,-157.039,100
1568038892,189.086,-93.3152,-17.1896,-1.3623,1.38428,-157.039,100
1568038892,189.086,-93.3152,-17.1896,-1.3623,1.38428,-157.039,100
1568038892,189.086,-93.3152,-17.1896,-1.3623,1.38428,-157.039,100
1568038892,189.086,-93.3152,-17.1896,-1.3623,1.38428,-157.039,100
1568038892,189.086,-93.3152,-17.1896,-1.3623,1.38428,-157.039,100
1568038892,189.086,-93.3152,-17.1896,-1.3623,1.38428,-157.039,100
1568038892,189.086,-93.3152,-17.1896,-1.3623,1.38428,-157.039,100
1568038892,189.086,-93.3152,-17.1896,-1.3623,1.38428,-157.039,100
1568038892,189.086,-93.3152,-17.1896,-1.3623,1.38428,-157.039,100
1568038892,189.086,-93.3152,-17.1896,-1.3623,1.38428,-157.039,100
1568038892,189.086,-93.3152,-17.1896,-1.3623,1.38428,-157.039,100
1568038892,189.086,-93.3152,-17.1896,-1.3623,1.38428,-157.039,100
1568038892,189.086,-93.3152,-17.1896,-1.3623,1.38428,-157.039,100
1568038892,189.086,-93.3152,-17.1896,-1.3623,1.38428,-157.039,100
1568038892,189.086,-93.3152,-17.1896,-1.3623,1.38428,-157.039,100
1568038892,189.086,-93.3152,-17.1896,-1.3623,1.38428,-157.039,100
1568038892,189.086,-93.3152,-17.1896,-1.3623,1.38428,-157.039,100
1568038892,189.086,-93.3152,-17.1896,-1.3623,1.38428,-157.039,100
1568038892,189.086,-93.3152,-17.1896,-1.3623,1.38428,-157.039,100
1568038892,189.086,-93.3152,-17.1896,-1.3623,1.38428,-157.039,100
1568038892,189.086,-93.3152,-17.1896,-1.3623,1.38428,-157.039,100
1568038892,189.086,-93.3152,-17.1896,-1.3623,1.38428,-157.039,100
1568038892,189.086,-93.3152,-17.1896,-1.3623,1.38428,-157.039,100
1568038892,189.086,-93.3152,-17.1896,-1.3623,1.38428,-157.039,100
1568038892,189.086,-93.3152,-17.1896,-1.3623,1.38428,-157.039,100
1568038892,189.086,-93.3152,-17.1896,-1.3623,1.38428,-157.039,100
1568038892,189.086,-93.3152,-17.1896,-1.3623,1.38428,-157.039,100
1568038892,189.086,-93.3152,-17.1896,-1.3623,1.38428,-157.039,100
1568038892,189.086,-93.3152,-17.1896,-1.3623,1.38428,-157.039,100
1568038892,189.086,-93.3152,-17.1896,-1.38428,1.38428,-157.039,100
1568038892,189.086,-93.3152,-17.1896,-1.38428,1.38428,-157.039,100
1568038892,189.086,-93.3152,-17.1896,-1.38428,1.38428,-157.039,100
1568038892,189.086,-93.3152,-17.1896,-1.38428,1.38428,-157.039,100
1568038892,189.086,-93.3152,-17.1896,-1.38428,1.38428,-157.039,100
1568038892,189.086,-93.3152,-17.1896,-1.38428,1.38428,-157.039,100
1568038892,189.086,-93.3152,-17.1896,-1.38428,1.38428,-157.039,100
1568038892,189.086,-93.3152,-17.1896,-1.38428,1.38428,-157.039,100
1568038892,189.086,-93.3152,-17.1896,-1.38428,1.38428,-157.039,100
1568038892,189.086,-93.3152,-17.1896,-1.38428,1.38428,-157.039,100
1568038892,189.086,-93.3152,-17.1896,-1.38428,1.38428,-157.039,100
1568038892,189.086,-93.3152,-17.1896,-1.38428,1.38428,-157.039,100
1568038892,189.086,-93.3152,-17.1896,-1.38428,1.38428,-157.039,100
1568038892,189.086,-93.3152,-17.1896,-1.38428,1.38428,-157.039,100
1568038892,189.086,-93.3152,-17.1896,-1.38428,1.38428,-157.039,100
1568038892,189.086,-93.3152,-17.1896,-1.38428,1.38428,-157.039,100
1568038892,189.086,-93.3152,-17.1896,-1.3623,1.38428,-157.039,100
1568038892,189.086,-93.3152,-17.1896,-1.3623,1.38428,-157.039,100
1568038892,189.086,-93.3152,-17.1896,-1.3623,1.38428,-157.039,100
1568038892,189.086,-93.3152,-17.1896,-1.3623,1.38428,-157.039,100
1568038892,189.086,-93.3152,-17.1896,-1.3623,1.38428,-157.039,100
1568038892,189.086,-93.3152,-17.1896,-1.3623,1.38428,-157.039,100
1568038892,189.086,-93.3152,-17.1896,-1.3623,1.38428,-157.039,100
1568038892,189.086,-93.3152,-17.1896,-1.3623,1.38428,-157.039,100
1568038893,189.086,-93.3152,-17.1896,-1.3623,1.38428,-157.039,100
1568038893,189.086,-93.3152,-17.1896,-1.3623,1.38428,-157.039,100
1568038893,189.086,-93.3152,-17.1896,-1.3623,1.38428,-157.039,100
1568038893,189.086,-93.3152,-17.1896,-1.3623,1.38428,-157.039,100
1568038893,189.086,-93.3152,-17.1896,-1.3623,1.38428,-157.039,100
1568038893,189.086,-93.3152,-17.1896,-1.3623,1.38428,-157.039,100
1568038893,189.086,-93.3152,-17.1896,-1.3623,1.38428,-157.039,100
1568038893,189.086,-93.3152,-17.1896,-1.3623,1.38428,-157.039,100
1568038893,189.086,-93.3152,-17.1896,-1.3623,1.38428,-157.039,100
1568038893,189.086,-93.3152,-17.1896,-1.3623,1.38428,-157.039,100
1568038893,189.086,-93.3152,-17.1896,-1.3623,1.38428,-157.039,100
1568038893,189.086,-93.3152,-17.1896,-1.3623,1.38428,-157.039,100
1568038893,189.086,-93.3152,-17.1896,-1.3623,1.38428,-157.039,100
1568038893,189.086,-93.3152,-17.1896,-1.3623,1.38428,-157.039,100
1568038893,189.086,-93.3152,-17.1896,-1.3623,1.38428,-157.039,100
1568038893,189.086,-93.3152,-17.1896,-1.3623,1.38428,-157.039,100
1568038893,189.086,-93.3152,-17.1896,-1.3623,1.38428,-157.039,100
1568038893,189.086,-93.3152,-17.1896,-1.3623,1.38428,-157.039,100
1568038893,189.086,-93.3152,-17.1896,-1.3623,1.38428,-157.039,100
1568038893,189.086,-93.3152,-17.1896,-1.3623,1.38428,-157.039,100
1568038893,189.086,-93.3152,-17.1896,-1.3623,1.38428,-157.039,100
1568038893,189.086,-93.3152,-17.1896,-1.3623,1.38428,-157.039,100
1568038893,189.086,-93.3152,-17.1896,-1.3623,1.38428,-157.039,100
1568038893,189.086,-93.3152,-17.1896,-1.3623,1.38428,-157.039,100
1568038893,189.086,-93.3152,-17.1896,-1.3623,1.38428,-157.039,100
1568038893,189.086,-93.3152,-17.1896,-1.3623,1.38428,-157.039,100
1568038893,189.086,-93.3152,-17.1896,-1.3623,1.38428,-157.039,100
1568038893,189.086,-93.3152,-17.1896,-1.3623,1.38428,-157.039,100
1568038893,189.086,-93.3152,-17.1896,-1.3623,1.38428,-157.039,100
1568038893,189.086,-93.3152,-17.1896,-1.3623,1.38428,-157.039,100
1568038893,189.086,-93.3152,-17.1896,-1.3623,1.38428,-157.039,100
1568038893,189.086,-93.3152,-17.1896,-1.3623,1.38428,-157.039,100
1568038893,189.086,-93.3152,-17.1896,-1.3623,1.38428,-157.039,100
1568038893,189.086,-93.3152,-17.1896,-1.3623,1.38428,-157.039,100
1568038893,189.086,-93.3152,-17.1896,-1.3623,1.38428,-157.039,100
1568038893,189.086,-93.3152,-17.1896,-1.3623,1.38428,-157.039,100
1568038893,189.086,-93.3152,-17.1896,-1.3623,1.38428,-157.039,100
1568038893,189.086,-93.3152,-17.1896,-1.3623,1.38428,-157.039,100
1568038893,189.086,-93.3152,-17.1896,-1.3623,1.38428,-157.039,100
1568038893,189.086,-93.3152,-17.1896,-1.3623,1.38428,-157.039,100
1568038893,189.086,-93.3152,-17.1896,-1.3623,1.38428,-157.039,100
1568038893,189.086,-93.3152,-17.1896,-1.3623,1.38428,-157.039,100
1568038893,189.086,-93.3152,-17.1896,-1.3623,1.38428,-157.039,100
1568038893,189.086,-93.3152,-17.1896,-1.3623,1.38428,-157.039,100
1568038893,189.086,-93.3152,-17.1896,-1.3623,1.38428,-157.039,100
1568038893,189.086,-93.3152,-17.1896,-1.3623,1.38428,-157.039,100
1568038893,189.086,-93.3152,-17.1896,-1.3623,1.38428,-157.039,100
1568038893,189.086,-93.3152,-17.1896,-1.3623,1.38428,-157.039,100
1568038893,189.086,-93.3152,-17.1896,-1.3623,1.38428,-157.039,100
1568038893,189.086,-93.3152,-17.1896,-1.3623,1.38428,-157.039,100
1568038893,189.086,-93.3152,-17.1896,-1.3623,1.38428,-157.039,100
1568038893,189.086,-93.3152,-17.1896,-1.3623,1.38428,-157.039,100
1568038893,189.086,-93.3152,-17.1896,-1.3623,1.38428,-157.039,100
1568038893,189.086,-93.3152,-17.1896,-1.3623,1.38428,-157.039,100
1568038893,189.086,-93.3152,-17.1896,-1.3623,1.38428,-157.039,100
1568038893,189.086,-93.3152,-17.1896,-1.3623,1.38428,-157.039,100
1568038893,189.086,-93.3152,-17.1896,-1.3623,1.38428,-157.039,100
1568038893,189.086,-93.3152,-17.1896,-1.3623,1.38428,-157.039,100
1568038893,189.086,-93.3152,-17.1896,-1.3623,1.38428,-157.039,100
1568038893,189.086,-93.3152,-17.1896,-1.3623,1.38428,-157.039,100
1568038893,189.086,-93.3152,-17.1896,-1.3623,1.38428,-157.039,100
1568038893,189.086,-93.3152,-17.1896,-1.3623,1.38428,-157.039,104
1568038893,189.086,-93.3152,-17.1896,-1.3623,1.38428,-157.039,104
1568038893,189.086,-93.3152,-17.1896,-1.3623,1.38428,-157.039,104
1568038893,189.086,-93.3152,-17.1896,-1.3623,1.38428,-157.039,104
1568038893,189.086,-93.3152,-17.1896,-1.3623,1.38428,-157.039,104
1568038893,189.086,-93.3152,-17.1896,-1.3623,1.38428,-157.039,104
1568038893,189.086,-93.3152,-17.1896,-1.3623,1.38428,-157.039,104
1568038893,189.086,-93.3152,-17.1896,-1.3623,1.38428,-157.039,104
1568038893,189.086,-93.3152,-17.1896,-1.3623,1.38428,-157.039,104
1568038893,189.086,-93.3152,-17.1896,-1.3623,1.38428,-157.039,104
1568038893,189.086,-93.3152,-17.1896,-1.3623,1.38428,-157.039,104
1568038893,189.086,-93.3152,-17.1896,-1.3623,1.38428,-157.039,104
1568038893,189.086,-93.3152,-17.1896,-1.3623,1.38428,-157.039,104
1568038893,189.086,-93.3152,-17.1896,-1.3623,1.38428,-157.039,104
1568038893,189.086,-93.3152,-17.1896,-1.3623,1.38428,-157.039,104
1568038893,189.086,-93.3152,-17.1896,-1.3623,1.38428,-157.039,104
1568038893,189.086,-93.3152,-17.1896,-1.3623,1.40625,-157.039,104
1568038893,189.086,-93.3152,-17.1896,-1.3623,1.38428,-157.039,104
1568038893,189.086,-93.3152,-17.1896,-1.3623,1.38428,-157.039,104
1568038893,189.086,-93.3152,-17.1896,-1.3623,1.38428,-157.039,104
1568038893,189.086,-93.3152,-17.1896,-1.3623,1.38428,-157.039,104
1568038893,189.086,-93.3152,-17.1896,-1.3623,1.38428,-157.039,100
1568038893,189.086,-93.3152,-17.1896,-1.3623,1.38428,-157.039,100
1568038893,189.086,-93.3152,-17.1896,-1.3623,1.38428,-157.039,100
1568038893,189.086,-93.3152,-17.1896,-1.3623,1.38428,-157.039,100
1568038893,189.086,-93.3152,-17.1896,-1.3623,1.38428,-157.039,100
1568038893,189.086,-93.3152,-17.1896,-1.3623,1.38428,-157.039,100
1568038893,189.086,-93.3152,-17.1896,-1.3623,1.38428,-157.039,100
1568038893,189.086,-93.3152,-17.1896,-1.3623,1.38428,-157.039,100
1568038893,189.086,-93.3152,-17.1896,-1.3623,1.38428,-157.039,100
1568038893,189.086,-93.3152,-17.1896,-1.3623,1.38428,-157.039,100
1568038893,189.086,-93.3152,-17.1896,-1.3623,1.38428,-157.039,100
