time,x,y,z,ax,ay,az,q
1571130397,245.343,31.0307,-16.9664,179.187,1.27441,-145.547,444
1571130397,245.343,31.0307,-16.9664,179.209,1.27441,-145.547,444
1571130397,245.343,31.0307,-16.9664,179.209,1.27441,-145.547,444
1571130397,245.343,31.0307,-16.9664,179.209,1.27441,-145.547,444
1571130397,245.343,31.0307,-16.9664,179.209,1.27441,-145.547,444
1571130397,245.343,31.0307,-16.9664,179.209,1.27441,-145.547,444
1571130397,245.343,31.0307,-16.9664,179.209,1.27441,-145.547,444
1571130397,245.343,31.0307,-16.9664,179.209,1.27441,-145.547,440
1571130397,245.343,31.0307,-16.9664,179.209,1.27441,-145.547,440
1571130397,245.343,31.0307,-16.9664,179.209,1.27441,-145.547,440
1571130397,245.343,31.0307,-16.9664,179.209,1.27441,-145.547,440
1571130397,245.343,31.0307,-16.9664,179.209,1.27441,-145.547,440
1571130397,245.343,31.0307,-16.9664,179.209,1.27441,-145.547,440
1571130397,245.343,31.0307,-16.9664,179.209,1.27441,-145.547,440
1571130397,245.343,31.0307,-16.9664,179.209,1.27441,-145.547,440
1571130397,245.343,31.0307,-16.9664,179.209,1.27441,-145.547,440
1571130397,245.343,31.0307,-16.9664,179.209,1.27441,-145.547,440
1571130397,245.343,31.0307,-16.9664,179.209,1.27441,-145.547,440
1571130397,245.343,31.0307,-16.9664,179.209,1.27441,-145.547,440
1571130397,245.343,31.0307,-16.9664,179.209,1.27441,-145.547,440
1571130397,245.343,31.0307,-16.9664,179.209,1.27441,-145.547,440
1571130397,245.343,31.0307,-16.9664,179.209,1.27441,-145.547,444
1571130397,245.343,31.0307,-16.9664,179.209,1.27441,-145.547,444
1571130397,245.343,31.0307,-16.9664,179.209,1.27441,-145.547,444
1571130397,245.232,31.0307,-16.9664,179.209,1.27441,-145.547,444
1571130397,245.232,31.0307,-16.9664,179.209,1.27441,-145.547,444
1571130397,245.343,31.0307,-16.9664,179.209,1.27441,-145.547,444
1571130397,245.343,31.0307,-16.9664,179.209,1.27441,-145.547,444
1571130397,245.343,31.0307,-16.9664,179.209,1.27441,-145.547,444
1571130397,245.343,31.0307,-16.9664,179.209,1.27441,-145.569,444
1571130397,245.343,31.0307,-16.9664,179.209,1.27441,-145.569,444
1571130397,245.343,31.0307,-16.9664,179.209,1.27441,-145.569,444
1571130397,245.343,31.0307,-16.9664,179.209,1.27441,-145.569,444
1571130397,245.343,31.0307,-16.9664,179.187,1.27441,-145.569,444
1571130397,245.343,31.0307,-16.9664,179.187,1.27441,-145.569,444
1571130397,245.343,31.0307,-16.9664,179.187,1.27441,-145.569,440
1571130397,245.343,31.0307,-16.9664,179.187,1.27441,-145.569,440
1571130397,245.343,31.0307,-16.9664,179.187,1.27441,-145.569,440
1571130397,245.343,31.0307,-16.9664,179.187,1.27441,-145.569,440
1571130397,245.343,31.0307,-16.9664,179.187,1.27441,-145.569,440
1571130397,245.343,31.0307,-16.9664,179.187,1.27441,-145.569,440
1571130397,245.343,31.0307,-16.9664,179.187,1.27441,-145.569,440
1571130397,245.343,31.0307,-16.9664,179.187,1.27441,-145.569,440
1571130397,245.343,31.0307,-16.9664,179.187,1.27441,-145.569,440
1571130397,245.343,31.0307,-16.9664,179.187,1.27441,-145.569,440
1571130397,245.343,31.0307,-16.9664,179.187,1.27441,-145.547,440
1571130397,245.343,31.0307,-16.9664,179.187,1.27441,-145.547,440
1571130397,245.343,31.0307,-16.9664,179.187,1.27441,-145.547,440
1571130397,245.343,31.0307,-16.9664,179.209,1.27441,-145.547,440
1571130397,245.343,31.0307,-16.9664,179.209,1.27441,-145.547,440
1571130397,245.343,31.0307,-16.9664,179.209,1.27441,-145.547,444
1571130397,245.343,31.0307,-16.9664,179.209,1.27441,-145.547,444
1571130397,245.343,31.0307,-16.9664,179.209,1.27441,-145.547,444
1571130397,245.343,31.0307,-16.9664,179.209,1.27441,-145.547,444
1571130397,245.343,31.0307,-16.8548,179.209,1.27441,-145.547,444
1571130397,245.343,31.0307,-16.8548,179.209,1.27441,-145.547,440
1571130397,245.343,31.0307,-16.8548,179.209,1.27441,-145.547,440
1571130397,245.343,31.0307,-16.8548,179.209,1.27441,-145.547,440
1571130397,245.343,31.0307,-16.8548,179.209,1.27441,-145.547,440
1571130397,245.343,31.0307,-16.9664,179.209,1.27441,-145.547,440
1571130397,245.343,31.0307,-16.9664,179.209,1.27441,-145.547,440
1571130397,245.343,31.0307,-16.9664,179.209,1.27441,-145.547,440
1571130397,245.343,31.0307,-16.9664,179.209,1.27441,-145.547,440
1571130397,245.343,31.0307,-16.9664,179.209,1.27441,-145.547,440
1571130397,245.343,31.0307,-16.9664,179.209,1.27441,-145.547,440
1571130397,245.343,31.0307,-16.9664,179.209,1.27441,-145.547,440
1571130397,245.343,31.0307,-16.9664,179.187,1.27441,-145.547,440
1571130397,245.343,31.0307,-16.9664,179.187,1.27441,-145.547,440
1571130397,245.343,31.0307,-16.9664,179.187,1.27441,-145.547,440
1571130397,245.343,31.0307,-16.9664,179.187,1.27441,-145.547,440
1571130397,245.343,31.0307,-16.9664,179.187,1.27441,-145.547,440
1571130397,245.343,31.0307,-16.9664,179.187,1.27441,-145.547,440
1571130397,245.343,31.0307,-16.9664,179.187,1.27441,-145.547,440
1571130397,245.343,31.0307,-16.9664,179.187,1.27441,-145.547,440
1571130397,245.343,31.0307,-16.9664,179.187,1.27441,-145.547,440
1571130397,245.343,31.0307,-16.9664,179.187,1.27441,-145.547,440
1571130397,245.343,31.0307,-16.9664,179.187,1.27441,-145.547,440
1571130397,245.343,31.0307,-16.9664,179.187,1.27441,-145.547,440
1571130397,245.343,31.0307,-16.9664,179.187,1.27441,-145.547,440
1571130397,245.343,31.0307,-16.9664,179.187,1.27441,-145.547,440
1571130397,245.343,31.0307,-16.9664,179.187,1.27441,-145.547,440
1571130397,245.343,31.0307,-16.9664,179.187,1.27441,-145.547,440
1571130397,245.343,31.0307,-16.9664,179.187,1.27441,-145.547,440
1571130397,245.343,31.0307,-16.9664,179.187,1.27441,-145.547,440
1571130397,245.343,31.0307,-16.9664,179.187,1.27441,-145.547,440
1571130397,245.343,31.0307,-16.9664,179.187,1.27441,-145.547,440
1571130397,245.343,31.0307,-16.9664,179.187,1.27441,-145.547,440
1571130397,245.343,31.0307,-16.9664,179.187,1.27441,-145.547,440
1571130397,245.343,31.0307,-16.9664,179.187,1.27441,-145.547,440
1571130397,245.343,31.0307,-16.9664,179.187,1.27441,-145.547,440
1571130397,245.343,31.0307,-16.9664,179.187,1.27441,-145.547,440
1571130397,245.343,31.0307,-16.9664,179.187,1.27441,-145.547,440
1571130397,245.343,31.0307,-16.9664,179.187,1.27441,-145.547,440
1571130397,245.343,31.0307,-16.9664,179.187,1.27441,-145.547,440
1571130398,245.343,31.0307,-16.9664,179.187,1.27441,-145.547,440
1571130398,245.343,31.0307,-16.9664,179.187,1.27441,-145.547,440
1571130398,245.343,31.0307,-16.9664,179.187,1.27441,-145.547,440
1571130398,245.343,31.0307,-16.9664,179.187,1.27441,-145.547,440
1571130398,245.343,31.0307,-16.9664,179.187,1.27441,-145.547,440
1571130398,245.343,31.0307,-16.9664,179.187,1.27441,-145.547,440
1571130398,245.343,31.0307,-16.9664,179.209,1.27441,-145.547,440
1571130398,245.343,31.0307,-16.9664,179.209,1.27441,-145.547,440
1571130398,245.343,31.0307,-16.9664,179.209,1.27441,-145.547,440
1571130398,245.343,31.0307,-16.9664,179.209,1.27441,-145.547,440
1571130398,245.343,31.0307,-16.9664,179.209,1.27441,-145.547,440
1571130398,245.343,31.0307,-16.9664,179.209,1.27441,-145.547,440
1571130398,245.343,31.0307,-16.9664,179.209,1.27441,-145.547,440
1571130398,245.343,31.0307,-16.9664,179.209,1.27441,-145.547,440
1571130398,245.343,31.0307,-16.9664,179.209,1.27441,-145.547,440
1571130398,245.343,31.0307,-16.9664,179.209,1.27441,-145.547,440
1571130398,245.343,31.0307,-16.9664,179.209,1.27441,-145.547,440
1571130398,245.343,31.0307,-16.9664,179.209,1.27441,-145.547,436
1571130398,245.343,31.0307,-16.9664,179.209,1.27441,-145.547,436
1571130398,245.343,31.0307,-16.9664,179.209,1.27441,-145.547,436
1571130398,245.343,31.0307,-16.9664,179.209,1.27441,-145.547,436
1571130398,245.343,31.0307,-16.9664,179.209,1.27441,-145.547,436
1571130398,245.343,31.0307,-16.9664,179.209,1.27441,-145.547,436
1571130398,245.343,31.0307,-16.9664,179.209,1.27441,-145.547,436
1571130398,245.343,31.0307,-16.9664,179.209,1.27441,-145.547,436
1571130398,245.343,31.0307,-16.9664,179.209,1.27441,-145.547,436
1571130398,245.343,31.1423,-16.9664,179.209,1.27441,-145.547,436
1571130398,245.343,31.1423,-16.9664,179.209,1.27441,-145.547,436
1571130398,245.343,31.1423,-16.9664,179.209,1.27441,-145.547,436
1571130398,245.343,31.1423,-16.9664,179.209,1.27441,-145.547,436
1571130398,245.343,31.1423,-16.9664,179.209,1.27441,-145.547,436
1571130398,245.343,31.1423,-16.9664,179.209,1.27441,-145.547,436
1571130398,245.343,31.1423,-16.9664,179.209,1.27441,-145.547,436
1571130398,245.343,31.1423,-16.9664,179.209,1.27441,-145.547,436
1571130398,245.343,31.1423,-16.9664,179.209,1.27441,-145.547,436
1571130398,245.343,31.1423,-16.9664,179.209,1.27441,-145.547,436
1571130398,245.343,31.1423,-16.9664,179.209,1.27441,-145.547,436
1571130398,245.343,31.1423,-16.9664,179.209,1.27441,-145.547,436
1571130398,245.343,31.1423,-16.9664,179.209,1.27441,-145.547,436
1571130398,245.343,31.1423,-16.9664,179.209,1.27441,-145.547,436
1571130398,245.343,31.1423,-16.9664,179.209,1.27441,-145.547,436
1571130398,245.343,31.0307,-16.9664,179.209,1.27441,-145.547,436
1571130398,245.343,31.0307,-16.9664,179.209,1.27441,-145.547,436
1571130398,245.343,31.0307,-16.9664,179.209,1.27441,-145.547,436
1571130398,245.343,31.0307,-16.9664,179.209,1.27441,-145.547,436
1571130398,245.343,31.0307,-16.9664,179.209,1.27441,-145.547,436
1571130398,245.343,31.0307,-16.9664,179.209,1.27441,-145.547,436
1571130398,245.343,31.0307,-16.9664,179.209,1.27441,-145.547,436
1571130398,245.343,31.0307,-16.9664,179.209,1.27441,-145.547,436
1571130398,245.343,31.0307,-16.9664,179.209,1.27441,-145.547,436
1571130398,245.343,31.0307,-16.9664,179.209,1.27441,-145.547,436
1571130398,245.343,31.0307,-16.9664,179.209,1.27441,-145.547,436
1571130398,245.343,31.0307,-16.9664,179.209,1.27441,-145.547,436
1571130398,245.343,31.0307,-16.9664,179.209,1.27441,-145.547,436
1571130398,245.343,31.0307,-16.9664,179.209,1.27441,-145.547,436
1571130398,245.343,31.0307,-16.9664,179.209,1.27441,-145.547,436
1571130398,245.343,31.0307,-16.9664,179.209,1.27441,-145.547,436
1571130398,245.343,31.0307,-16.9664,179.209,1.27441,-145.547,436
1571130398,245.343,31.0307,-16.9664,179.209,1.27441,-145.547,436
1571130398,245.343,31.0307,-16.9664,179.209,1.27441,-145.547,436
1571130398,245.343,31.0307,-16.9664,179.209,1.27441,-145.547,436
1571130398,245.343,31.0307,-16.9664,179.209,1.27441,-145.547,436
1571130398,245.343,31.0307,-16.9664,179.209,1.27441,-145.547,436
1571130398,245.343,31.0307,-16.9664,179.209,1.27441,-145.547,436
1571130398,245.343,31.0307,-16.9664,179.209,1.27441,-145.547,436
1571130398,245.343,31.0307,-16.9664,179.209,1.27441,-145.547,436
1571130398,245.343,31.0307,-16.9664,179.209,1.27441,-145.547,436
1571130398,245.343,31.0307,-16.9664,179.209,1.27441,-145.547,436
1571130398,245.343,31.0307,-16.9664,179.209,1.27441,-145.547,436
1571130398,245.343,31.0307,-16.9664,179.209,1.27441,-145.547,436
1571130398,245.343,31.0307,-16.9664,179.209,1.27441,-145.547,436
1571130398,245.343,31.0307,-16.9664,179.209,1.27441,-145.547,436
1571130398,245.343,31.0307,-16.9664,179.209,1.27441,-145.547,436
1571130398,245.343,31.0307,-16.9664,179.209,1.27441,-145.547,436
1571130398,245.343,31.0307,-16.9664,179.209,1.27441,-145.547,436
1571130398,245.343,31.0307,-16.9664,179.209,1.27441,-145.547,436
1571130398,245.343,31.0307,-16.9664,179.209,1.27441,-145.547,436
1571130398,245.343,31.0307,-16.9664,179.209,1.27441,-145.547,432
1571130398,245.343,31.0307,-16.9664,179.209,1.27441,-145.547,432
1571130398,245.343,31.0307,-16.9664,179.209,1.27441,-145.547,432
1571130398,245.343,31.0307,-16.9664,179.209,1.27441,-145.547,432
1571130398,245.343,31.0307,-16.9664,179.209,1.27441,-145.547,436
1571130398,245.343,31.0307,-16.9664,179.209,1.27441,-145.569,436
1571130398,245.343,31.0307,-16.9664,179.209,1.27441,-145.569,436
1571130398,245.343,31.0307,-16.9664,179.209,1.27441,-145.569,436
1571130398,245.343,31.0307,-16.9664,179.209,1.27441,-145.569,436
1571130398,245.343,31.0307,-16.9664,179.209,1.27441,-145.569,436
1571130398,245.343,31.0307,-16.9664,179.209,1.27441,-145.569,436
1571130398,245.343,31.0307,-16.9664,179.209,1.27441,-145.569,436
1571130398,245.343,31.0307,-16.9664,179.209,1.27441,-145.569,436
1571130398,245.343,31.0307,-16.9664,179.209,1.27441,-145.569,436
1571130398,245.343,31.0307,-16.9664,179.209,1.27441,-145.569,436
1571130398,245.343,31.0307,-16.9664,179.209,1.27441,-145.569,436
1571130398,245.343,31.0307,-16.9664,179.209,1.27441,-145.547,436
1571130398,245.343,31.0307,-16.9664,179.209,1.27441,-145.547,436
1571130398,245.343,31.0307,-16.9664,179.209,1.27441,-145.547,436
1571130398,245.343,31.0307,-16.9664,179.209,1.27441,-145.547,436
1571130398,245.343,31.0307,-16.9664,179.209,1.27441,-145.547,436
1571130398,245.343,31.0307,-16.9664,179.209,1.27441,-145.547,436
1571130398,245.343,31.0307,-16.9664,179.209,1.27441,-145.547,436
1571130399,245.343,31.0307,-16.9664,179.209,1.27441,-145.547,436
1571130399,245.343,31.0307,-16.9664,179.209,1.27441,-145.547,436
1571130399,245.343,31.0307,-16.9664,179.209,1.27441,-145.547,436
1571130399,245.343,31.0307,-16.9664,179.209,1.27441,-145.547,436
1571130399,245.343,31.0307,-16.9664,179.209,1.27441,-145.547,436
1571130399,245.343,31.0307,-16.9664,179.209,1.27441,-145.547,436
1571130399,245.343,31.0307,-16.9664,179.209,1.27441,-145.547,436
1571130399,245.343,31.0307,-16.9664,179.209,1.27441,-145.547,436
1571130399,245.343,31.0307,-16.9664,179.209,1.27441,-145.547,436
1571130399,245.343,31.0307,-16.9664,179.209,1.27441,-145.547,436
1571130399,245.343,31.0307,-16.9664,179.209,1.27441,-145.547,436
1571130399,245.343,31.0307,-16.9664,179.209,1.27441,-145.547,436
1571130399,245.343,31.0307,-16.9664,179.209,1.27441,-145.547,436
1571130399,245.343,31.0307,-16.9664,179.209,1.27441,-145.547,436
1571130399,245.343,31.0307,-16.9664,179.209,1.27441,-145.547,436
1571130399,245.343,31.0307,-16.9664,179.209,1.27441,-145.547,436
1571130399,245.343,31.0307,-16.9664,179.209,1.27441,-145.547,436
1571130399,245.343,31.0307,-16.9664,179.209,1.27441,-145.547,436
1571130399,245.343,31.0307,-16.9664,179.209,1.27441,-145.547,436
1571130399,245.343,31.0307,-16.9664,179.209,1.27441,-145.547,436
1571130399,245.343,31.0307,-16.9664,179.209,1.27441,-145.547,436
1571130399,245.343,31.0307,-16.9664,179.209,1.27441,-145.547,436
1571130399,245.343,31.0307,-16.9664,179.209,1.27441,-145.547,440
1571130399,245.343,31.0307,-16.9664,179.209,1.27441,-145.547,440
1571130399,245.343,31.0307,-16.9664,179.209,1.27441,-145.547,440
1571130399,245.343,31.0307,-16.9664,179.209,1.27441,-145.547,440
1571130399,245.343,31.0307,-16.9664,179.209,1.27441,-145.547,440
1571130399,245.343,31.0307,-16.9664,179.209,1.27441,-145.547,440
1571130399,245.343,31.0307,-16.9664,179.209,1.27441,-145.547,440
1571130399,245.343,31.0307,-16.9664,179.209,1.27441,-145.547,440
1571130399,245.343,31.0307,-16.9664,179.209,1.27441,-145.547,440
1571130399,245.343,31.0307,-16.9664,179.209,1.27441,-145.547,440
1571130399,245.343,31.0307,-16.9664,179.209,1.27441,-145.547,440
1571130399,245.343,31.0307,-16.9664,179.209,1.27441,-145.547,436
1571130399,245.343,31.0307,-16.9664,179.209,1.27441,-145.547,436
1571130399,245.343,31.0307,-16.9664,179.209,1.27441,-145.547,436
1571130399,245.343,31.0307,-16.9664,179.209,1.27441,-145.547,436
1571130399,245.343,31.0307,-16.9664,179.209,1.27441,-145.547,436
1571130399,245.343,31.0307,-16.9664,179.209,1.27441,-145.547,436
1571130399,245.343,31.0307,-16.9664,179.209,1.27441,-145.547,436
1571130399,245.343,31.0307,-16.9664,179.209,1.27441,-145.547,436
1571130399,245.343,31.0307,-16.9664,179.187,1.27441,-145.547,436
1571130399,245.343,31.0307,-16.9664,179.187,1.27441,-145.547,436
1571130399,245.343,31.0307,-16.9664,179.187,1.27441,-145.547,436
1571130399,245.343,31.0307,-16.9664,179.187,1.27441,-145.547,436
1571130399,245.343,31.0307,-16.9664,179.187,1.27441,-145.547,436
1571130399,245.343,31.0307,-16.9664,179.187,1.27441,-145.547,436
1571130399,245.343,31.0307,-16.9664,179.187,1.27441,-145.547,436
1571130399,245.343,31.0307,-16.9664,179.187,1.27441,-145.547,436
1571130399,245.343,31.0307,-16.9664,179.187,1.27441,-145.547,436
1571130399,245.343,31.0307,-16.9664,179.209,1.27441,-145.547,436
1571130399,245.343,31.0307,-16.9664,179.209,1.27441,-145.547,436
1571130399,245.343,31.0307,-16.9664,179.209,1.27441,-145.547,440
1571130399,245.343,31.0307,-16.9664,179.209,1.27441,-145.547,440
1571130399,245.343,31.0307,-16.9664,179.209,1.27441,-145.547,440
1571130399,245.343,31.0307,-16.9664,179.209,1.27441,-145.547,440
1571130399,245.343,31.0307,-16.9664,179.209,1.27441,-145.547,440
1571130399,245.343,31.0307,-16.9664,179.209,1.27441,-145.547,440
1571130399,245.343,31.0307,-16.9664,179.209,1.27441,-145.547,440
1571130399,245.343,31.0307,-16.9664,179.209,1.27441,-145.547,440
1571130399,245.343,31.0307,-16.9664,179.209,1.27441,-145.547,440
1571130399,245.343,31.0307,-16.9664,179.209,1.27441,-145.547,440
1571130399,245.343,31.0307,-16.9664,179.209,1.27441,-145.547,440
1571130399,245.343,31.0307,-16.9664,179.209,1.27441,-145.547,440
1571130399,245.343,31.0307,-16.9664,179.209,1.27441,-145.547,440
1571130399,245.343,31.0307,-16.9664,179.209,1.27441,-145.547,440
1571130399,245.343,31.0307,-16.9664,179.209,1.27441,-145.547,440
1571130399,245.343,31.0307,-16.9664,179.209,1.27441,-145.547,440
1571130399,245.343,31.0307,-16.9664,179.209,1.27441,-145.547,440
1571130399,245.343,31.0307,-16.9664,179.209,1.27441,-145.547,440
1571130399,245.343,31.0307,-16.9664,179.209,1.27441,-145.547,440
1571130399,245.343,31.0307,-16.9664,179.209,1.27441,-145.547,440
1571130399,245.343,31.0307,-16.9664,179.209,1.27441,-145.547,440
1571130399,245.343,31.0307,-16.9664,179.209,1.27441,-145.547,440
1571130399,245.343,31.0307,-16.9664,179.209,1.27441,-145.547,440
1571130399,245.343,31.0307,-16.9664,179.209,1.27441,-145.547,440
1571130399,245.343,31.0307,-16.9664,179.209,1.27441,-145.547,440
1571130399,245.343,31.0307,-16.9664,179.209,1.27441,-145.547,440
1571130399,245.343,31.0307,-16.9664,179.209,1.27441,-145.547,440
1571130399,245.343,31.0307,-16.9664,179.209,1.27441,-145.547,440
1571130399,245.343,31.0307,-16.9664,179.209,1.27441,-145.547,440
1571130399,245.343,31.0307,-16.9664,179.209,1.27441,-145.547,440
1571130399,245.343,31.0307,-16.9664,179.209,1.27441,-145.547,440
1571130399,245.343,31.0307,-16.9664,179.209,1.27441,-145.547,440
1571130399,245.343,31.0307,-16.9664,179.209,1.27441,-145.547,440
1571130399,245.343,31.0307,-16.9664,179.209,1.27441,-145.547,440
1571130399,245.343,31.0307,-16.9664,179.209,1.27441,-145.547,440
1571130399,245.343,31.0307,-16.9664,179.209,1.27441,-145.547,440
1571130399,245.343,31.0307,-16.9664,179.209,1.27441,-145.547,440
1571130399,245.343,31.0307,-16.9664,179.209,1.27441,-145.547,440
1571130399,245.343,31.0307,-16.9664,179.209,1.27441,-145.547,440
1571130399,245.343,31.0307,-16.9664,179.209,1.27441,-145.547,440
1571130399,245.343,31.0307,-16.9664,179.209,1.27441,-145.547,440
1571130399,245.343,31.0307,-16.9664,179.209,1.27441,-145.547,440
1571130399,245.343,31.0307,-16.9664,179.209,1.27441,-145.547,440
1571130399,245.343,31.0307,-16.9664,179.209,1.27441,-145.547,440
1571130399,245.343,31.0307,-16.9664,179.209,1.27441,-145.547,440
1571130399,245.343,31.0307,-16.9664,179.209,1.27441,-145.547,440
1571130399,245.343,31.0307,-16.9664,179.209,1.27441,-145.547,440
1571130399,245.343,31.0307,-16.9664,179.209,1.27441,-145.547,440
1571130400,245.343,31.0307,-16.9664,179.209,1.27441,-145.547,440
1571130400,245.343,31.0307,-16.9664,179.209,1.27441,-145.547,444
1571130400,245.343,31.0307,-16.9664,179.209,1.27441,-145.547,444
1571130400,245.343,31.0307,-16.9664,179.209,1.27441,-145.547,444
1571130400,245.343,31.0307,-16.9664,179.209,1.27441,-145.547,444
1571130400,245.343,31.0307,-16.9664,179.209,1.27441,-145.547,444
1571130400,245.343,31.0307,-16.9664,179.209,1.27441,-145.547,444
1571130400,245.343,31.0307,-16.9664,179.209,1.27441,-145.547,444
1571130400,245.343,31.0307,-16.9664,179.209,1.27441,-145.547,444
1571130400,245.343,31.0307,-16.9664,179.209,1.27441,-145.547,444
1571130400,245.343,31.0307,-16.9664,179.209,1.27441,-145.547,444
1571130400,245.343,31.0307,-16.9664,179.209,1.27441,-145.547,444
1571130400,245.343,31.0307,-16.9664,179.209,1.27441,-145.547,444
1571130400,245.343,31.0307,-16.9664,179.209,1.27441,-145.547,440
1571130400,245.343,31.0307,-16.9664,179.209,1.27441,-145.547,440
1571130400,245.343,31.0307,-16.9664,179.209,1.27441,-145.547,440
1571130400,245.343,31.0307,-16.9664,179.209,1.27441,-145.547,440
1571130400,245.343,31.0307,-16.9664,179.209,1.27441,-145.547,440
1571130400,245.343,31.0307,-16.9664,179.209,1.27441,-145.547,440
1571130400,245.343,31.0307,-16.9664,179.209,1.27441,-145.547,440
1571130400,245.343,31.0307,-16.9664,179.209,1.27441,-145.547,440
1571130400,245.343,31.0307,-16.9664,179.209,1.27441,-145.547,440
1571130400,245.343,31.0307,-16.9664,179.209,1.27441,-145.547,440
1571130400,245.343,31.0307,-16.9664,179.209,1.27441,-145.547,440
1571130400,245.343,31.0307,-16.9664,179.209,1.27441,-145.547,440
1571130400,245.343,31.0307,-16.9664,179.209,1.27441,-145.547,440
1571130400,245.343,31.0307,-16.9664,179.209,1.27441,-145.547,440
1571130400,245.343,31.0307,-16.9664,179.209,1.27441,-145.547,440
1571130400,245.343,31.0307,-16.9664,179.209,1.27441,-145.547,440
1571130400,245.343,31.0307,-16.9664,179.209,1.27441,-145.547,440
1571130400,245.343,31.0307,-16.9664,179.209,1.27441,-145.547,440
1571130400,245.343,31.0307,-16.9664,179.209,1.27441,-145.547,440
1571130400,245.343,31.0307,-16.9664,179.209,1.27441,-145.547,440
1571130400,245.343,31.0307,-16.9664,179.209,1.27441,-145.547,440
1571130400,245.343,31.0307,-16.9664,179.209,1.27441,-145.547,440
1571130400,245.343,31.0307,-16.9664,179.209,1.27441,-145.547,440
1571130400,245.343,31.0307,-16.9664,179.209,1.27441,-145.547,440
1571130400,245.343,31.0307,-16.9664,179.209,1.27441,-145.547,440
1571130400,245.343,31.0307,-16.9664,179.209,1.27441,-145.547,440
1571130400,245.343,31.0307,-16.9664,179.209,1.27441,-145.547,440
1571130400,245.343,31.0307,-16.9664,179.209,1.27441,-145.547,444
1571130400,245.343,31.0307,-16.9664,179.209,1.27441,-145.547,444
1571130400,245.343,31.0307,-16.9664,179.209,1.27441,-145.547,444
1571130400,245.343,31.0307,-16.9664,179.209,1.27441,-145.547,444
1571130400,245.343,31.0307,-16.9664,179.209,1.27441,-145.547,444
1571130400,245.343,31.0307,-16.9664,179.209,1.27441,-145.547,444
1571130400,245.343,31.0307,-16.9664,179.209,1.27441,-145.547,444
1571130400,245.343,31.0307,-16.9664,179.209,1.27441,-145.547,444
1571130400,245.343,31.0307,-16.9664,179.209,1.27441,-145.547,444
1571130400,245.343,31.0307,-16.9664,179.209,1.27441,-145.547,444
1571130400,245.343,31.0307,-16.9664,179.209,1.27441,-145.569,444
1571130400,245.343,31.0307,-16.9664,179.209,1.27441,-145.569,444
1571130400,245.343,31.0307,-16.9664,179.209,1.27441,-145.569,444
1571130400,245.343,31.0307,-16.9664,179.209,1.27441,-145.569,444
1571130400,245.343,31.0307,-16.9664,179.209,1.27441,-145.569,444
1571130400,245.343,31.0307,-16.9664,179.209,1.27441,-145.569,444
1571130400,245.343,31.0307,-16.9664,179.209,1.27441,-145.569,444
1571130400,245.343,31.0307,-16.9664,179.209,1.27441,-145.569,444
1571130400,245.343,31.0307,-16.9664,179.209,1.27441,-145.569,444
1571130400,245.343,31.0307,-16.9664,179.209,1.27441,-145.569,444
1571130400,245.343,31.0307,-16.9664,179.209,1.27441,-145.569,444
1571130400,245.343,31.0307,-16.9664,179.209,1.27441,-145.569,444
1571130400,245.343,31.0307,-16.9664,179.209,1.27441,-145.569,444
1571130400,245.343,31.0307,-16.9664,179.209,1.27441,-145.569,444
1571130400,245.343,31.0307,-16.9664,179.209,1.27441,-145.569,444
1571130400,245.343,31.0307,-16.9664,179.209,1.27441,-145.569,440
1571130400,245.343,31.0307,-16.9664,179.209,1.27441,-145.569,440
1571130400,245.343,31.0307,-16.9664,179.209,1.27441,-145.569,440
1571130400,245.343,31.0307,-16.9664,179.209,1.27441,-145.569,440
1571130400,245.343,31.0307,-16.9664,179.209,1.27441,-145.547,440
1571130400,245.343,31.0307,-16.9664,179.209,1.27441,-145.547,440
1571130400,245.343,31.0307,-16.9664,179.209,1.27441,-145.547,440
1571130400,245.343,31.0307,-16.9664,179.209,1.27441,-145.547,440
1571130400,245.343,31.0307,-16.9664,179.209,1.27441,-145.569,440
1571130400,245.343,31.0307,-16.9664,179.209,1.27441,-145.569,440
1571130400,245.343,31.0307,-16.9664,179.209,1.27441,-145.569,440
1571130400,245.343,31.0307,-16.9664,179.209,1.27441,-145.569,440
1571130400,245.343,31.0307,-16.9664,179.209,1.27441,-145.569,440
1571130400,245.343,31.0307,-16.9664,179.209,1.27441,-145.569,440
1571130400,245.343,31.0307,-16.9664,179.209,1.27441,-145.569,440
1571130400,245.343,31.0307,-16.9664,179.209,1.27441,-145.569,440
1571130400,245.343,31.0307,-16.9664,179.209,1.27441,-145.569,440
1571130400,245.343,31.0307,-16.9664,179.209,1.27441,-145.569,440
1571130400,245.343,31.0307,-16.9664,179.187,1.27441,-145.569,440
1571130400,245.343,31.0307,-16.9664,179.187,1.27441,-145.569,440
1571130400,245.343,31.0307,-16.9664,179.187,1.27441,-145.569,440
1571130400,245.343,31.0307,-16.9664,179.187,1.27441,-145.569,440
1571130400,245.343,31.0307,-16.9664,179.187,1.27441,-145.569,440
1571130400,245.343,31.0307,-16.9664,179.187,1.27441,-145.569,440
1571130400,245.343,31.0307,-16.9664,179.187,1.27441,-145.569,440
1571130400,245.343,31.0307,-16.9664,179.187,1.27441,-145.569,440
1571130400,245.343,31.0307,-16.9664,179.187,1.27441,-145.569,440
1571130400,245.343,31.0307,-16.9664,179.187,1.27441,-145.569,440
1571130400,245.343,31.0307,-16.9664,179.187,1.27441,-145.569,440
1571130400,245.343,31.0307,-16.9664,179.187,1.27441,-145.569,440
1571130400,245.343,31.0307,-16.9664,179.187,1.27441,-145.569,440
1571130400,245.343,31.0307,-16.9664,179.209,1.27441,-145.569,440
1571130400,245.343,31.0307,-16.9664,179.209,1.27441,-145.547,440
1571130400,245.343,31.0307,-16.9664,179.209,1.27441,-145.547,440
1571130400,245.343,31.0307,-16.9664,179.209,1.27441,-145.547,440
1571130401,245.343,31.0307,-16.9664,179.209,1.27441,-145.547,440
1571130401,245.343,31.0307,-16.9664,179.209,1.27441,-145.547,440
1571130401,245.343,31.0307,-16.9664,179.209,1.27441,-145.547,440
1571130401,245.343,31.0307,-16.9664,179.209,1.27441,-145.547,440
1571130401,245.343,31.0307,-16.9664,179.209,1.27441,-145.547,440
1571130401,245.343,31.0307,-16.9664,179.209,1.27441,-145.547,440
1571130401,245.343,31.0307,-16.9664,179.209,1.27441,-145.547,440
1571130401,245.343,31.0307,-16.9664,179.209,1.27441,-145.547,440
1571130401,245.343,31.0307,-16.9664,179.209,1.27441,-145.547,440
1571130401,245.343,31.0307,-16.9664,179.209,1.27441,-145.547,440
1571130401,245.343,31.0307,-16.9664,179.209,1.27441,-145.547,440
1571130401,245.343,31.0307,-16.9664,179.209,1.27441,-145.547,440
1571130401,245.343,31.0307,-16.9664,179.209,1.27441,-145.547,444
1571130401,245.343,31.0307,-16.9664,179.209,1.27441,-145.547,444
1571130401,245.343,31.0307,-16.9664,179.209,1.27441,-145.547,444
1571130401,245.343,31.0307,-16.9664,179.209,1.27441,-145.547,444
1571130401,245.343,31.0307,-16.9664,179.209,1.27441,-145.547,444
1571130401,245.343,31.0307,-16.9664,179.209,1.27441,-145.547,444
1571130401,245.343,31.0307,-16.9664,179.209,1.27441,-145.547,444
1571130401,245.343,31.0307,-16.9664,179.209,1.27441,-145.547,444
1571130401,245.343,31.0307,-16.9664,179.209,1.27441,-145.547,444
1571130401,245.343,31.0307,-16.9664,179.209,1.27441,-145.547,444
1571130401,245.343,31.0307,-16.9664,179.209,1.27441,-145.547,444
1571130401,245.343,31.0307,-16.9664,179.209,1.27441,-145.547,444
1571130401,245.343,31.0307,-16.9664,179.209,1.27441,-145.547,440
1571130401,245.343,31.0307,-16.9664,179.209,1.27441,-145.547,440
1571130401,245.343,31.0307,-16.9664,179.209,1.27441,-145.547,440
1571130401,245.343,31.0307,-16.9664,179.209,1.27441,-145.547,440
1571130401,245.343,31.0307,-16.9664,179.209,1.27441,-145.547,440
1571130401,245.343,31.0307,-16.9664,179.209,1.27441,-145.547,440
1571130401,245.343,31.0307,-16.9664,179.209,1.27441,-145.547,440
1571130401,245.343,31.0307,-16.9664,179.209,1.27441,-145.547,440
1571130401,245.343,31.0307,-16.9664,179.209,1.27441,-145.547,440
1571130401,245.343,31.0307,-16.9664,179.209,1.27441,-145.547,440
1571130401,245.343,31.0307,-16.9664,179.209,1.27441,-145.547,440
1571130401,245.343,31.0307,-16.9664,179.209,1.27441,-145.547,440
1571130401,245.343,31.0307,-16.9664,179.209,1.27441,-145.547,440
1571130401,245.343,31.0307,-16.9664,179.209,1.27441,-145.569,440
1571130401,245.343,31.0307,-16.9664,179.209,1.27441,-145.569,440
1571130401,245.343,31.0307,-16.9664,179.209,1.27441,-145.569,440
1571130401,245.343,31.0307,-16.9664,179.209,1.27441,-145.569,440
1571130401,245.343,31.0307,-16.9664,179.209,1.27441,-145.569,440
1571130401,245.343,31.0307,-16.9664,179.209,1.27441,-145.569,440
1571130401,245.343,31.0307,-16.9664,179.209,1.27441,-145.569,440
1571130401,245.343,31.0307,-16.9664,179.209,1.27441,-145.569,440
1571130401,245.343,31.0307,-16.9664,179.209,1.27441,-145.569,440
1571130401,245.343,31.0307,-16.9664,179.209,1.27441,-145.569,440
1571130401,245.343,31.0307,-16.9664,179.209,1.27441,-145.569,440
1571130401,245.343,31.0307,-16.9664,179.209,1.27441,-145.569,440
1571130401,245.343,31.0307,-16.9664,179.209,1.27441,-145.569,440
1571130401,245.343,31.0307,-16.9664,179.209,1.27441,-145.569,440
1571130401,245.343,31.0307,-16.9664,179.209,1.27441,-145.547,440
1571130401,245.343,31.0307,-16.9664,179.209,1.27441,-145.547,440
1571130401,245.343,31.0307,-16.9664,179.209,1.27441,-145.569,440
1571130401,245.343,31.0307,-16.9664,179.209,1.27441,-145.569,440
1571130401,245.343,31.0307,-16.9664,179.209,1.27441,-145.569,440
1571130401,245.343,31.0307,-16.9664,179.209,1.27441,-145.569,440
1571130401,245.343,31.0307,-16.9664,179.209,1.27441,-145.569,440
1571130401,245.343,31.0307,-16.9664,179.209,1.27441,-145.569,440
1571130401,245.343,31.0307,-16.9664,179.209,1.27441,-145.569,440
1571130401,245.343,31.0307,-16.9664,179.209,1.27441,-145.569,440
1571130401,245.343,31.0307,-16.9664,179.209,1.27441,-145.569,440
1571130401,245.343,31.0307,-16.9664,179.209,1.27441,-145.569,440
1571130401,245.343,31.0307,-16.9664,179.209,1.27441,-145.569,440
1571130401,245.343,31.0307,-16.9664,179.209,1.27441,-145.569,440
1571130401,245.343,31.0307,-16.9664,179.209,1.27441,-145.569,440
1571130401,245.343,31.0307,-16.9664,179.209,1.27441,-145.569,440
1571130401,245.343,31.0307,-16.9664,179.209,1.27441,-145.569,440
1571130401,245.343,31.0307,-16.9664,179.209,1.27441,-145.569,440
1571130401,245.343,31.0307,-16.9664,179.209,1.27441,-145.569,440
1571130401,245.343,31.0307,-16.9664,179.209,1.27441,-145.569,440
1571130401,245.343,31.0307,-16.9664,179.209,1.27441,-145.569,440
1571130401,245.343,31.0307,-16.9664,179.209,1.27441,-145.569,440
1571130401,245.343,31.0307,-16.9664,179.209,1.27441,-145.569,440
1571130401,245.343,31.0307,-16.9664,179.209,1.25244,-145.569,440
1571130401,245.343,31.0307,-16.9664,179.209,1.25244,-145.569,440
1571130401,245.343,31.0307,-16.9664,179.209,1.25244,-145.569,440
1571130401,245.343,31.0307,-16.9664,179.209,1.25244,-145.569,440
1571130401,245.343,31.0307,-16.9664,179.209,1.25244,-145.569,440
1571130401,245.343,31.0307,-16.9664,179.209,1.25244,-145.569,440
1571130401,245.343,31.0307,-16.9664,179.209,1.25244,-145.569,440
1571130401,245.343,31.0307,-16.9664,179.209,1.25244,-145.569,440
1571130401,245.343,31.0307,-16.9664,179.209,1.25244,-145.569,440
1571130401,245.343,31.0307,-16.9664,179.209,1.25244,-145.569,440
1571130401,245.343,31.0307,-16.9664,179.209,1.25244,-145.569,440
1571130401,245.343,31.0307,-16.9664,179.209,1.25244,-145.569,440
1571130401,245.343,31.0307,-16.9664,179.209,1.25244,-145.569,440
1571130401,245.343,31.0307,-16.9664,179.209,1.27441,-145.569,440
1571130401,245.343,31.0307,-16.9664,179.209,1.27441,-145.569,440
1571130401,245.343,31.0307,-16.9664,179.209,1.27441,-145.569,440
1571130401,245.343,31.0307,-16.9664,179.209,1.27441,-145.569,440
1571130401,245.343,31.0307,-16.9664,179.209,1.27441,-145.569,440
1571130401,245.343,31.0307,-16.9664,179.209,1.27441,-145.569,440
1571130401,245.343,31.0307,-16.9664,179.209,1.27441,-145.569,440
1571130401,245.343,31.0307,-16.9664,179.209,1.27441,-145.569,440
1571130401,245.343,31.0307,-16.9664,179.209,1.27441,-145.569,440
1571130401,245.343,31.0307,-16.9664,179.209,1.27441,-145.569,440
1571130401,245.343,31.0307,-16.9664,179.209,1.27441,-145.569,440
1571130401,245.343,31.0307,-16.9664,179.209,1.27441,-145.569,440
1571130401,245.343,31.0307,-16.9664,179.209,1.27441,-145.569,440
1571130402,245.343,31.0307,-16.9664,179.209,1.27441,-145.569,440
1571130402,245.343,31.0307,-16.9664,179.209,1.27441,-145.569,440
1571130402,245.343,31.0307,-16.9664,179.209,1.27441,-145.569,440
1571130402,245.343,31.0307,-16.9664,179.209,1.27441,-145.569,440
1571130402,245.343,31.0307,-16.9664,179.209,1.27441,-145.547,440
1571130402,245.343,31.0307,-16.9664,179.209,1.27441,-145.547,440
1571130406,260.635,14.734,-16.9664,179.297,1.12061,-145.327,488
1571130406,260.635,14.734,-16.9664,179.297,1.12061,-145.327,488
1571130406,260.635,14.734,-16.9664,179.297,1.12061,-145.327,484
1571130406,260.635,14.734,-16.9664,179.297,1.12061,-145.327,484
1571130406,260.635,14.734,-16.9664,179.297,1.12061,-145.327,484
1571130406,260.635,14.734,-16.9664,179.297,1.14258,-145.327,484
1571130406,260.635,14.734,-16.9664,179.297,1.14258,-145.327,484
1571130406,260.635,14.734,-16.9664,179.297,1.14258,-145.327,484
1571130406,260.635,14.734,-16.9664,179.297,1.14258,-145.327,484
1571130406,260.635,14.734,-16.9664,179.297,1.14258,-145.327,484
1571130406,260.635,14.734,-16.9664,179.297,1.14258,-145.327,484
1571130406,260.635,14.734,-16.9664,179.297,1.14258,-145.327,484
1571130406,260.635,14.734,-16.9664,179.297,1.14258,-145.327,484
1571130406,260.635,14.734,-16.9664,179.297,1.14258,-145.327,484
1571130406,260.635,14.734,-16.9664,179.297,1.14258,-145.327,484
1571130406,260.635,14.734,-16.9664,179.297,1.14258,-145.327,484
1571130406,260.635,14.734,-16.9664,179.297,1.14258,-145.327,484
1571130406,260.635,14.734,-16.9664,179.297,1.14258,-145.327,484
1571130406,260.635,14.734,-16.9664,179.297,1.14258,-145.327,484
1571130406,260.635,14.734,-16.9664,179.297,1.14258,-145.327,484
1571130406,260.635,14.734,-16.9664,179.297,1.14258,-145.327,488
1571130406,260.635,14.734,-16.9664,179.297,1.14258,-145.327,488
1571130406,260.635,14.734,-16.9664,179.297,1.14258,-145.327,488
1571130406,260.635,14.734,-16.9664,179.297,1.14258,-145.327,488
1571130406,260.635,14.734,-16.9664,179.297,1.14258,-145.327,488
1571130406,260.635,14.734,-16.9664,179.297,1.14258,-145.327,488
1571130406,260.635,14.734,-16.9664,179.297,1.14258,-145.327,488
1571130406,260.635,14.734,-16.9664,179.297,1.14258,-145.327,488
1571130406,260.635,14.734,-16.9664,179.297,1.14258,-145.327,488
1571130406,260.635,14.734,-16.9664,179.297,1.14258,-145.327,488
1571130406,260.635,14.734,-16.9664,179.297,1.14258,-145.327,488
1571130406,260.635,14.734,-16.9664,179.297,1.14258,-145.327,488
1571130406,260.635,14.734,-16.9664,179.297,1.14258,-145.327,488
1571130406,260.635,14.734,-16.9664,179.297,1.14258,-145.327,488
1571130406,260.635,14.734,-16.9664,179.297,1.14258,-145.327,488
1571130406,260.635,14.734,-16.9664,179.297,1.14258,-145.327,488
1571130406,260.635,14.734,-16.9664,179.297,1.14258,-145.327,488
1571130406,260.635,14.734,-16.9664,179.297,1.14258,-145.327,488
1571130406,260.635,14.734,-16.9664,179.297,1.14258,-145.327,488
1571130406,260.635,14.734,-16.9664,179.297,1.14258,-145.327,488
1571130406,260.635,14.734,-16.9664,179.297,1.14258,-145.327,488
1571130406,260.635,14.734,-16.9664,179.297,1.14258,-145.327,488
1571130406,260.635,14.734,-16.9664,179.297,1.14258,-145.327,488
1571130406,260.635,14.734,-16.9664,179.297,1.14258,-145.327,488
1571130406,260.635,14.734,-16.9664,179.297,1.14258,-145.327,492
1571130406,260.635,14.734,-16.9664,179.297,1.14258,-145.327,492
1571130406,260.635,14.734,-16.9664,179.297,1.14258,-145.327,492
1571130406,260.635,14.734,-16.9664,179.297,1.14258,-145.327,492
1571130406,260.635,14.734,-16.9664,179.297,1.14258,-145.327,492
1571130406,260.635,14.734,-16.9664,179.297,1.14258,-145.327,492
1571130406,260.635,14.734,-16.9664,179.297,1.14258,-145.327,492
1571130406,260.635,14.734,-16.9664,179.297,1.14258,-145.327,492
1571130406,260.635,14.734,-16.9664,179.297,1.14258,-145.327,492
1571130406,260.635,14.734,-16.9664,179.297,1.14258,-145.327,492
1571130406,260.635,14.734,-16.9664,179.297,1.14258,-145.327,492
1571130406,260.635,14.734,-16.9664,179.297,1.14258,-145.327,492
1571130406,260.635,14.734,-16.9664,179.297,1.14258,-145.327,492
1571130406,260.635,14.734,-16.9664,179.297,1.14258,-145.327,492
1571130406,260.635,14.734,-16.9664,179.297,1.14258,-145.327,492
1571130406,260.635,14.734,-16.9664,179.297,1.14258,-145.327,492
1571130406,260.635,14.734,-16.9664,179.297,1.14258,-145.327,492
1571130406,260.635,14.734,-16.9664,179.297,1.12061,-145.327,492
1571130406,260.635,14.734,-16.9664,179.297,1.12061,-145.327,492
1571130406,260.635,14.734,-16.9664,179.297,1.12061,-145.327,492
1571130406,260.635,14.734,-16.9664,179.297,1.12061,-145.327,492
1571130406,260.635,14.734,-16.9664,179.297,1.12061,-145.327,492
1571130406,260.635,14.734,-16.9664,179.297,1.12061,-145.327,492
1571130406,260.635,14.734,-16.9664,179.297,1.12061,-145.327,492
1571130406,260.635,14.734,-16.9664,179.297,1.12061,-145.327,492
1571130406,260.635,14.734,-16.9664,179.297,1.12061,-145.327,492
1571130406,260.635,14.734,-16.9664,179.297,1.12061,-145.327,492
1571130406,260.635,14.734,-16.9664,179.297,1.12061,-145.327,492
1571130406,260.635,14.734,-16.9664,179.297,1.12061,-145.327,492
1571130406,260.635,14.734,-16.9664,179.297,1.12061,-145.327,492
1571130406,260.635,14.734,-16.9664,179.297,1.12061,-145.327,492
1571130406,260.635,14.734,-16.9664,179.297,1.12061,-145.327,492
1571130406,260.635,14.734,-16.9664,179.297,1.12061,-145.327,492
1571130406,260.635,14.734,-16.9664,179.297,1.12061,-145.327,492
1571130406,260.635,14.734,-16.9664,179.297,1.12061,-145.327,492
1571130406,260.635,14.734,-16.9664,179.297,1.12061,-145.327,492
1571130406,260.635,14.734,-16.9664,179.297,1.12061,-145.327,492
1571130406,260.635,14.734,-16.9664,179.297,1.12061,-145.327,492
1571130406,260.635,14.734,-16.9664,179.297,1.12061,-145.327,492
1571130406,260.635,14.734,-16.9664,179.297,1.14258,-145.327,492
1571130406,260.635,14.734,-16.9664,179.297,1.14258,-145.327,492
1571130406,260.635,14.734,-16.9664,179.297,1.14258,-145.327,492
1571130406,260.635,14.734,-16.9664,179.297,1.14258,-145.327,492
1571130406,260.635,14.734,-16.9664,179.297,1.14258,-145.327,492
1571130406,260.635,14.734,-16.9664,179.297,1.14258,-145.327,492
1571130406,260.635,14.734,-16.9664,179.297,1.14258,-145.327,492
1571130406,260.635,14.734,-16.9664,179.297,1.14258,-145.327,492
1571130406,260.635,14.734,-16.9664,179.297,1.14258,-145.327,492
1571130406,260.635,14.734,-16.9664,179.297,1.14258,-145.327,492
1571130406,260.635,14.734,-16.9664,179.297,1.14258,-145.327,492
1571130406,260.635,14.734,-16.9664,179.297,1.14258,-145.327,492
1571130406,260.635,14.734,-16.9664,179.297,1.14258,-145.327,488
1571130406,260.635,14.734,-16.9664,179.297,1.14258,-145.327,488
1571130407,260.635,14.734,-16.9664,179.297,1.14258,-145.327,488
1571130407,260.635,14.734,-16.9664,179.297,1.14258,-145.327,488
1571130407,260.635,14.734,-16.9664,179.297,1.14258,-145.327,488
1571130407,260.635,14.734,-16.9664,179.297,1.14258,-145.327,488
1571130407,260.635,14.734,-16.9664,179.297,1.14258,-145.327,488
1571130407,260.635,14.734,-16.9664,179.297,1.14258,-145.327,488
1571130407,260.635,14.734,-16.9664,179.297,1.14258,-145.327,488
1571130407,260.635,14.734,-16.9664,179.297,1.14258,-145.327,484
1571130407,260.635,14.734,-16.9664,179.297,1.14258,-145.327,484
1571130407,260.635,14.734,-16.9664,179.297,1.14258,-145.327,484
1571130407,260.635,14.734,-16.9664,179.297,1.14258,-145.327,484
1571130407,260.635,14.734,-16.9664,179.297,1.14258,-145.327,484
1571130407,260.635,14.734,-16.9664,179.297,1.14258,-145.327,484
1571130407,260.635,14.734,-16.9664,179.297,1.14258,-145.327,484
1571130407,260.635,14.734,-16.9664,179.297,1.14258,-145.327,484
1571130407,260.635,14.734,-16.9664,179.297,1.14258,-145.327,484
1571130407,260.635,14.734,-16.9664,179.297,1.14258,-145.327,484
1571130407,260.635,14.734,-16.9664,179.297,1.14258,-145.327,484
1571130407,260.635,14.734,-16.9664,179.297,1.14258,-145.327,484
1571130407,260.635,14.734,-16.9664,179.297,1.14258,-145.327,484
1571130407,260.635,14.734,-16.9664,179.297,1.14258,-145.327,484
1571130407,260.635,14.734,-16.9664,179.297,1.14258,-145.327,488
1571130407,260.635,14.734,-16.9664,179.297,1.14258,-145.327,488
1571130407,260.635,14.734,-16.9664,179.297,1.14258,-145.327,488
1571130407,260.635,14.734,-16.9664,179.297,1.14258,-145.327,488
1571130407,260.635,14.734,-16.9664,179.297,1.14258,-145.327,488
1571130407,260.635,14.734,-16.9664,179.297,1.14258,-145.327,492
1571130407,260.635,14.734,-16.9664,179.297,1.14258,-145.327,492
1571130407,260.635,14.734,-16.9664,179.297,1.14258,-145.327,492
1571130407,260.635,14.734,-16.9664,179.297,1.14258,-145.327,492
1571130407,260.635,14.734,-16.9664,179.297,1.14258,-145.327,492
1571130407,260.635,14.734,-16.9664,179.297,1.14258,-145.327,492
1571130407,260.635,14.734,-16.9664,179.297,1.14258,-145.327,492
1571130407,260.635,14.734,-16.9664,179.297,1.14258,-145.327,492
1571130407,260.635,14.734,-16.9664,179.297,1.14258,-145.327,496
1571130407,260.635,14.734,-16.9664,179.297,1.14258,-145.327,496
1571130407,260.635,14.734,-16.9664,179.297,1.14258,-145.327,496
1571130407,260.635,14.734,-16.9664,179.297,1.14258,-145.327,496
1571130407,260.635,14.734,-16.9664,179.297,1.14258,-145.327,496
1571130407,260.635,14.734,-16.9664,179.297,1.14258,-145.327,496
1571130407,260.635,14.734,-16.9664,179.297,1.14258,-145.327,496
1571130407,260.635,14.734,-16.9664,179.297,1.14258,-145.327,496
1571130407,260.635,14.734,-16.9664,179.297,1.14258,-145.327,496
1571130407,260.635,14.734,-16.9664,179.297,1.14258,-145.327,496
1571130407,260.635,14.734,-16.9664,179.297,1.14258,-145.327,496
1571130407,260.635,14.734,-16.9664,179.297,1.14258,-145.327,496
1571130407,260.635,14.734,-16.9664,179.297,1.14258,-145.327,496
1571130407,260.635,14.734,-16.9664,179.297,1.14258,-145.327,496
1571130407,260.635,14.734,-16.9664,179.297,1.14258,-145.327,496
1571130407,260.635,14.734,-16.9664,179.297,1.14258,-145.327,496
1571130407,260.635,14.734,-16.9664,179.297,1.14258,-145.327,496
1571130407,260.635,14.734,-16.9664,179.297,1.14258,-145.327,496
1571130407,260.635,14.734,-16.9664,179.297,1.14258,-145.327,496
1571130407,260.635,14.734,-16.9664,179.297,1.14258,-145.327,492
1571130407,260.635,14.734,-16.9664,179.297,1.14258,-145.327,492
1571130407,260.635,14.734,-16.9664,179.297,1.14258,-145.327,492
1571130407,260.635,14.734,-16.9664,179.297,1.14258,-145.327,492
1571130407,260.635,14.734,-16.9664,179.275,1.14258,-145.327,492
1571130407,260.635,14.734,-16.9664,179.275,1.14258,-145.327,492
1571130407,260.635,14.734,-16.9664,179.275,1.14258,-145.327,492
1571130407,260.635,14.734,-16.9664,179.275,1.14258,-145.327,492
1571130407,260.635,14.734,-16.9664,179.275,1.14258,-145.327,492
1571130407,260.635,14.734,-16.9664,179.275,1.14258,-145.327,492
1571130407,260.635,14.734,-16.9664,179.275,1.14258,-145.327,492
1571130407,260.635,14.734,-16.9664,179.275,1.14258,-145.327,492
1571130407,260.635,14.734,-16.9664,179.275,1.14258,-145.327,492
1571130407,260.635,14.734,-16.9664,179.275,1.14258,-145.327,492
1571130407,260.635,14.734,-16.9664,179.275,1.14258,-145.327,492
1571130407,260.635,14.734,-16.9664,179.275,1.14258,-145.327,492
1571130407,260.635,14.734,-16.9664,179.275,1.14258,-145.327,492
1571130407,260.635,14.734,-16.9664,179.275,1.14258,-145.327,492
1571130407,260.635,14.734,-16.9664,179.275,1.14258,-145.327,492
1571130407,260.635,14.734,-16.9664,179.275,1.14258,-145.327,492
1571130407,260.635,14.734,-16.9664,179.275,1.14258,-145.327,496
1571130407,260.635,14.734,-16.9664,179.275,1.14258,-145.327,496
1571130407,260.635,14.734,-16.9664,179.275,1.14258,-145.327,496
1571130407,260.635,14.734,-16.9664,179.275,1.14258,-145.327,496
1571130407,260.635,14.734,-16.9664,179.275,1.14258,-145.327,496
1571130407,260.635,14.734,-16.9664,179.275,1.14258,-145.327,496
1571130407,260.635,14.734,-16.9664,179.275,1.14258,-145.327,496
1571130407,260.635,14.734,-16.9664,179.275,1.14258,-145.327,496
1571130407,260.635,14.734,-16.9664,179.275,1.14258,-145.327,496
1571130407,260.635,14.734,-16.9664,179.275,1.14258,-145.327,496
1571130407,260.635,14.734,-16.9664,179.275,1.14258,-145.327,496
1571130407,260.635,14.734,-16.9664,179.297,1.14258,-145.327,496
1571130407,260.635,14.734,-16.9664,179.297,1.14258,-145.327,496
1571130407,260.635,14.734,-16.9664,179.297,1.14258,-145.327,496
1571130407,260.635,14.734,-16.9664,179.297,1.14258,-145.327,496
1571130407,260.635,14.734,-16.9664,179.297,1.14258,-145.327,496
1571130407,260.635,14.734,-16.9664,179.297,1.14258,-145.327,492
1571130407,260.635,14.734,-16.9664,179.297,1.14258,-145.327,492
1571130407,260.635,14.734,-16.9664,179.297,1.14258,-145.327,492
1571130407,260.635,14.734,-16.9664,179.297,1.14258,-145.327,492
1571130407,260.635,14.734,-16.9664,179.297,1.14258,-145.327,492
1571130407,260.635,14.734,-16.9664,179.297,1.14258,-145.327,492
1571130407,260.635,14.734,-16.9664,179.297,1.14258,-145.327,492
1571130407,260.635,14.734,-16.9664,179.297,1.14258,-145.327,492
1571130407,260.635,14.734,-16.9664,179.297,1.14258,-145.327,492
1571130407,260.635,14.734,-16.9664,179.297,1.14258,-145.327,492
1571130407,260.635,14.734,-16.9664,179.297,1.14258,-145.327,492
1571130408,260.635,14.734,-16.9664,179.297,1.14258,-145.327,492
1571130408,260.635,14.734,-16.9664,179.297,1.14258,-145.327,492
1571130408,260.635,14.734,-16.9664,179.297,1.14258,-145.327,492
1571130408,260.635,14.734,-16.9664,179.297,1.14258,-145.327,492
1571130408,260.635,14.734,-16.9664,179.297,1.14258,-145.327,492
1571130408,260.635,14.734,-16.9664,179.297,1.14258,-145.327,492
1571130408,260.635,14.734,-16.9664,179.297,1.14258,-145.327,488
1571130408,260.635,14.734,-16.9664,179.297,1.14258,-145.327,488
1571130408,260.635,14.734,-16.9664,179.297,1.14258,-145.327,488
1571130408,260.635,14.734,-16.9664,179.297,1.14258,-145.327,488
1571130408,260.635,14.734,-16.9664,179.297,1.14258,-145.327,488
1571130408,260.635,14.734,-16.9664,179.297,1.14258,-145.327,488
1571130408,260.635,14.734,-16.9664,179.297,1.14258,-145.327,488
1571130408,260.635,14.734,-16.9664,179.297,1.14258,-145.327,488
1571130408,260.635,14.734,-16.9664,179.297,1.14258,-145.327,488
1571130408,260.635,14.734,-16.9664,179.297,1.14258,-145.327,488
1571130408,260.635,14.734,-16.9664,179.297,1.14258,-145.327,488
1571130408,260.635,14.734,-16.9664,179.297,1.14258,-145.327,488
1571130408,260.635,14.734,-16.9664,179.297,1.14258,-145.327,488
1571130408,260.635,14.734,-16.9664,179.297,1.14258,-145.327,484
1571130408,260.635,14.734,-16.9664,179.297,1.14258,-145.327,484
1571130408,260.635,14.734,-16.9664,179.297,1.14258,-145.327,484
1571130408,260.635,14.734,-16.9664,179.297,1.14258,-145.327,484
1571130408,260.635,14.734,-16.9664,179.297,1.14258,-145.327,484
1571130408,260.635,14.734,-16.9664,179.297,1.14258,-145.327,484
1571130408,260.635,14.734,-16.9664,179.297,1.14258,-145.327,488
1571130408,260.635,14.734,-16.9664,179.297,1.14258,-145.327,488
1571130408,260.635,14.734,-16.9664,179.297,1.14258,-145.327,488
1571130408,260.635,14.734,-16.9664,179.297,1.14258,-145.327,488
1571130408,260.635,14.734,-16.9664,179.297,1.14258,-145.327,488
1571130408,260.635,14.734,-16.9664,179.297,1.14258,-145.327,488
1571130408,260.635,14.734,-16.9664,179.297,1.14258,-145.327,488
1571130408,260.635,14.734,-16.9664,179.297,1.14258,-145.327,488
1571130408,260.635,14.734,-16.9664,179.297,1.14258,-145.327,488
1571130408,260.635,14.734,-16.9664,179.297,1.14258,-145.327,488
1571130408,260.635,14.734,-16.9664,179.297,1.14258,-145.327,488
1571130408,260.635,14.734,-16.9664,179.297,1.14258,-145.327,488
1571130408,260.635,14.734,-16.9664,179.297,1.14258,-145.327,488
1571130408,260.635,14.734,-16.9664,179.297,1.14258,-145.327,488
1571130408,260.635,14.734,-16.9664,179.297,1.14258,-145.327,488
1571130408,260.635,14.734,-16.9664,179.297,1.14258,-145.327,488
1571130408,260.635,14.734,-16.9664,179.297,1.14258,-145.327,488
1571130408,260.635,14.734,-16.9664,179.297,1.14258,-145.327,488
1571130408,260.635,14.734,-16.9664,179.297,1.14258,-145.327,488
1571130408,260.635,14.734,-16.9664,179.297,1.14258,-145.327,488
1571130408,260.635,14.734,-16.9664,179.297,1.14258,-145.327,488
1571130408,260.635,14.734,-16.9664,179.297,1.14258,-145.327,488
1571130408,260.635,14.734,-16.9664,179.297,1.14258,-145.327,488
1571130408,260.635,14.734,-16.9664,179.297,1.14258,-145.327,488
1571130408,260.635,14.734,-16.9664,179.297,1.14258,-145.327,488
1571130408,260.635,14.734,-16.9664,179.297,1.14258,-145.327,488
1571130408,260.635,14.734,-16.9664,179.297,1.14258,-145.327,488
1571130408,260.635,14.734,-16.9664,179.297,1.14258,-145.327,488
1571130408,260.635,14.734,-16.9664,179.297,1.14258,-145.327,488
1571130408,260.635,14.734,-16.9664,179.297,1.14258,-145.327,488
1571130408,260.635,14.734,-16.9664,179.297,1.14258,-145.327,488
1571130408,260.635,14.734,-16.9664,179.297,1.14258,-145.327,488
1571130408,260.635,14.734,-16.9664,179.297,1.14258,-145.327,488
1571130408,260.635,14.734,-16.9664,179.297,1.14258,-145.327,488
1571130408,260.635,14.734,-16.9664,179.297,1.14258,-145.327,488
1571130408,260.635,14.734,-16.9664,179.297,1.14258,-145.327,488
1571130408,260.635,14.734,-16.9664,179.297,1.14258,-145.327,492
1571130408,260.635,14.734,-16.9664,179.297,1.14258,-145.327,492
1571130408,260.635,14.734,-16.9664,179.297,1.14258,-145.327,492
1571130408,260.635,14.734,-16.9664,179.297,1.14258,-145.327,492
1571130408,260.635,14.734,-16.9664,179.297,1.14258,-145.327,492
1571130408,260.635,14.734,-16.9664,179.297,1.14258,-145.327,492
1571130408,260.635,14.734,-16.9664,179.297,1.14258,-145.327,492
1571130408,260.635,14.734,-16.9664,179.297,1.14258,-145.327,492
1571130408,260.635,14.734,-16.9664,179.297,1.14258,-145.327,492
1571130408,260.635,14.734,-16.9664,179.297,1.14258,-145.327,488
1571130408,260.635,14.734,-16.9664,179.297,1.14258,-145.327,488
1571130408,260.635,14.734,-16.9664,179.297,1.14258,-145.327,488
1571130408,260.635,14.734,-16.9664,179.297,1.14258,-145.327,488
1571130408,260.635,14.734,-16.9664,179.297,1.14258,-145.327,488
1571130408,260.635,14.734,-16.9664,179.297,1.14258,-145.327,488
1571130408,260.635,14.734,-16.9664,179.297,1.14258,-145.327,488
1571130408,260.635,14.734,-16.9664,179.297,1.14258,-145.327,488
1571130408,260.635,14.734,-16.9664,179.297,1.14258,-145.327,488
1571130408,260.635,14.734,-16.9664,179.297,1.14258,-145.327,484
1571130408,260.635,14.734,-16.9664,179.297,1.14258,-145.327,484
1571130408,260.635,14.734,-16.9664,179.297,1.14258,-145.327,484
1571130408,260.635,14.734,-16.9664,179.297,1.14258,-145.327,484
1571130408,260.635,14.734,-16.9664,179.297,1.14258,-145.327,484
1571130408,260.635,14.734,-16.9664,179.297,1.14258,-145.327,484
1571130408,260.635,14.734,-16.9664,179.297,1.14258,-145.327,484
1571130408,260.635,14.734,-16.9664,179.297,1.14258,-145.327,484
1571130408,260.635,14.734,-16.9664,179.297,1.14258,-145.327,484
1571130408,260.635,14.734,-16.9664,179.297,1.14258,-145.327,484
1571130408,260.635,14.734,-16.9664,179.297,1.14258,-145.327,484
1571130408,260.635,14.734,-16.9664,179.297,1.14258,-145.327,484
1571130408,260.635,14.734,-16.9664,179.297,1.14258,-145.327,484
1571130408,260.635,14.734,-16.9664,179.297,1.14258,-145.327,484
1571130408,260.635,14.734,-16.9664,179.297,1.12061,-145.327,484
1571130408,260.635,14.734,-16.9664,179.297,1.12061,-145.327,484
1571130408,260.635,14.734,-16.9664,179.297,1.12061,-145.327,484
1571130408,260.635,14.734,-16.9664,179.297,1.12061,-145.327,484
1571130408,260.635,14.734,-16.9664,179.297,1.12061,-145.327,484
1571130408,260.635,14.734,-16.9664,179.297,1.12061,-145.327,484
1571130408,260.635,14.734,-16.9664,179.297,1.12061,-145.327,484
1571130409,260.635,14.734,-16.9664,179.297,1.12061,-145.327,484
1571130409,260.635,14.734,-16.9664,179.297,1.12061,-145.327,484
1571130409,260.635,14.734,-16.9664,179.297,1.12061,-145.327,484
1571130409,260.635,14.734,-16.9664,179.297,1.14258,-145.327,484
1571130409,260.635,14.734,-16.9664,179.297,1.14258,-145.327,488
1571130409,260.635,14.734,-16.9664,179.297,1.14258,-145.327,488
1571130409,260.635,14.734,-16.9664,179.297,1.14258,-145.327,488
1571130409,260.635,14.734,-16.9664,179.297,1.14258,-145.327,488
1571130409,260.635,14.734,-16.9664,179.297,1.14258,-145.327,488
1571130409,260.635,14.734,-16.9664,179.297,1.14258,-145.327,488
1571130409,260.635,14.734,-16.9664,179.297,1.14258,-145.327,488
1571130409,260.635,14.734,-16.9664,179.297,1.14258,-145.327,488
1571130409,260.635,14.734,-16.9664,179.297,1.14258,-145.327,488
1571130409,260.635,14.734,-16.9664,179.297,1.14258,-145.327,488
1571130409,260.635,14.734,-16.9664,179.297,1.14258,-145.327,488
1571130409,260.635,14.734,-16.9664,179.297,1.14258,-145.327,488
1571130409,260.635,14.734,-16.9664,179.297,1.14258,-145.327,488
1571130409,260.635,14.734,-16.9664,179.297,1.14258,-145.327,488
1571130409,260.635,14.734,-16.9664,179.297,1.14258,-145.327,488
1571130409,260.635,14.734,-16.9664,179.297,1.14258,-145.327,492
1571130409,260.635,14.734,-16.9664,179.297,1.14258,-145.327,492
1571130409,260.635,14.734,-16.9664,179.297,1.14258,-145.327,492
1571130409,260.635,14.734,-16.9664,179.297,1.14258,-145.327,492
1571130409,260.635,14.734,-16.9664,179.297,1.14258,-145.327,492
1571130409,260.635,14.734,-16.9664,179.297,1.14258,-145.327,492
1571130409,260.635,14.734,-16.9664,179.297,1.14258,-145.327,492
1571130409,260.635,14.734,-16.9664,179.297,1.14258,-145.327,492
1571130409,260.635,14.734,-16.9664,179.297,1.14258,-145.327,492
1571130409,260.635,14.734,-16.9664,179.297,1.14258,-145.327,492
1571130409,260.635,14.734,-16.9664,179.297,1.14258,-145.327,492
1571130409,260.635,14.734,-16.9664,179.297,1.14258,-145.327,496
1571130409,260.635,14.734,-16.9664,179.297,1.14258,-145.327,496
1571130409,260.635,14.734,-16.9664,179.297,1.14258,-145.327,496
1571130409,260.635,14.734,-16.9664,179.297,1.14258,-145.327,496
1571130409,260.635,14.734,-16.9664,179.297,1.14258,-145.327,496
1571130409,260.635,14.734,-16.9664,179.297,1.14258,-145.327,496
1571130409,260.635,14.734,-16.9664,179.297,1.14258,-145.327,496
1571130409,260.635,14.734,-16.9664,179.297,1.14258,-145.327,496
1571130409,260.635,14.734,-16.9664,179.297,1.14258,-145.327,496
1571130409,260.635,14.734,-16.9664,179.297,1.14258,-145.327,496
1571130409,260.635,14.734,-16.9664,179.297,1.14258,-145.327,496
1571130409,260.635,14.734,-16.9664,179.297,1.14258,-145.327,496
1571130409,260.635,14.734,-16.9664,179.297,1.14258,-145.327,496
1571130409,260.635,14.734,-16.9664,179.297,1.14258,-145.327,496
1571130409,260.635,14.734,-16.9664,179.297,1.14258,-145.327,496
1571130409,260.635,14.734,-16.9664,179.297,1.14258,-145.327,496
1571130409,260.635,14.734,-16.9664,179.297,1.14258,-145.327,496
1571130409,260.635,14.734,-16.9664,179.297,1.14258,-145.327,496
1571130409,260.635,14.734,-16.9664,179.297,1.14258,-145.327,496
1571130409,260.635,14.734,-16.9664,179.297,1.14258,-145.327,496
1571130409,260.635,14.734,-16.9664,179.297,1.14258,-145.327,496
1571130409,260.635,14.734,-16.9664,179.297,1.14258,-145.327,496
1571130409,260.635,14.734,-16.9664,179.297,1.14258,-145.327,496
1571130409,260.635,14.734,-16.9664,179.297,1.14258,-145.327,496
1571130409,260.635,14.734,-16.9664,179.297,1.14258,-145.327,496
1571130409,260.635,14.734,-16.9664,179.297,1.14258,-145.327,496
1571130409,260.635,14.734,-16.9664,179.297,1.14258,-145.327,496
1571130409,260.635,14.734,-16.9664,179.297,1.14258,-145.327,496
1571130409,260.635,14.734,-16.9664,179.297,1.14258,-145.327,496
1571130409,260.635,14.734,-16.9664,179.297,1.14258,-145.327,496
1571130409,260.635,14.734,-16.9664,179.297,1.14258,-145.327,496
1571130409,260.635,14.734,-16.9664,179.297,1.14258,-145.327,496
1571130409,260.635,14.734,-16.9664,179.297,1.14258,-145.327,496
1571130409,260.635,14.734,-16.9664,179.297,1.14258,-145.327,496
1571130409,260.635,14.734,-16.9664,179.297,1.14258,-145.327,496
1571130409,260.635,14.734,-16.9664,179.297,1.14258,-145.327,496
1571130409,260.635,14.734,-16.9664,179.297,1.14258,-145.327,492
1571130409,260.635,14.734,-16.9664,179.297,1.14258,-145.327,492
1571130409,260.635,14.734,-16.9664,179.297,1.14258,-145.327,492
1571130409,260.635,14.734,-16.9664,179.297,1.14258,-145.327,492
1571130409,260.635,14.734,-16.9664,179.297,1.14258,-145.327,492
1571130409,260.635,14.734,-16.9664,179.297,1.12061,-145.327,492
1571130409,260.635,14.734,-16.9664,179.297,1.12061,-145.327,492
1571130409,260.635,14.734,-16.9664,179.297,1.12061,-145.327,492
1571130409,260.635,14.734,-16.9664,179.297,1.12061,-145.327,492
1571130409,260.635,14.734,-16.9664,179.297,1.12061,-145.327,492
1571130409,260.635,14.734,-16.9664,179.297,1.12061,-145.327,492
1571130409,260.635,14.734,-16.9664,179.297,1.12061,-145.327,492
1571130409,260.635,14.734,-16.9664,179.297,1.14258,-145.327,492
1571130409,260.635,14.734,-16.9664,179.297,1.14258,-145.327,492
1571130409,260.635,14.734,-16.9664,179.297,1.14258,-145.327,492
1571130409,260.635,14.734,-16.9664,179.297,1.14258,-145.327,492
1571130409,260.635,14.734,-16.9664,179.297,1.14258,-145.327,492
1571130409,260.635,14.734,-16.9664,179.297,1.14258,-145.327,492
1571130409,260.635,14.734,-16.9664,179.297,1.14258,-145.327,492
1571130409,260.635,14.734,-16.9664,179.297,1.14258,-145.327,492
1571130409,260.635,14.734,-16.9664,179.297,1.14258,-145.327,492
1571130409,260.635,14.734,-16.9664,179.297,1.14258,-145.327,492
1571130409,260.635,14.734,-16.9664,179.297,1.14258,-145.327,492
1571130409,260.635,14.734,-16.9664,179.297,1.14258,-145.327,492
1571130409,260.635,14.734,-16.9664,179.297,1.14258,-145.327,492
1571130409,260.635,14.734,-16.9664,179.297,1.14258,-145.327,492
1571130409,260.635,14.734,-16.9664,179.297,1.14258,-145.327,492
1571130409,260.635,14.734,-16.9664,179.297,1.14258,-145.327,492
1571130409,260.635,14.734,-16.9664,179.297,1.14258,-145.327,492
1571130409,260.635,14.734,-16.9664,179.297,1.14258,-145.327,492
1571130409,260.635,14.734,-16.9664,179.297,1.14258,-145.327,492
1571130409,260.635,14.734,-16.9664,179.297,1.14258,-145.327,492
1571130409,260.635,14.734,-16.9664,179.297,1.14258,-145.327,492
1571130409,260.635,14.734,-16.9664,179.297,1.14258,-145.327,492
1571130410,260.635,14.734,-16.9664,179.297,1.14258,-145.327,492
1571130410,260.635,14.734,-16.9664,179.297,1.14258,-145.327,492
1571130410,260.635,14.734,-16.9664,179.297,1.14258,-145.327,492
1571130410,260.635,14.734,-16.9664,179.297,1.14258,-145.327,488
1571130410,260.635,14.734,-16.9664,179.297,1.14258,-145.327,488
1571130410,260.635,14.734,-16.9664,179.297,1.14258,-145.327,488
1571130410,260.635,14.734,-16.9664,179.297,1.14258,-145.327,488
1571130410,260.635,14.734,-16.9664,179.297,1.14258,-145.327,488
1571130410,260.635,14.734,-16.9664,179.297,1.14258,-145.327,488
1571130410,260.635,14.734,-16.9664,179.297,1.14258,-145.327,488
1571130410,260.635,14.734,-16.9664,179.297,1.14258,-145.327,488
1571130410,260.635,14.734,-16.9664,179.297,1.14258,-145.327,488
1571130410,260.635,14.734,-16.9664,179.297,1.14258,-145.327,488
1571130410,260.635,14.734,-16.9664,179.297,1.14258,-145.327,488
1571130410,260.635,14.734,-16.9664,179.297,1.14258,-145.327,488
1571130410,260.635,14.734,-16.9664,179.297,1.14258,-145.327,488
1571130410,260.635,14.734,-16.9664,179.297,1.14258,-145.327,488
1571130410,260.635,14.734,-16.9664,179.297,1.14258,-145.327,488
1571130410,260.635,14.734,-16.9664,179.297,1.14258,-145.327,488
1571130410,260.635,14.734,-16.9664,179.297,1.14258,-145.327,488
1571130410,260.635,14.734,-16.9664,179.297,1.14258,-145.327,488
1571130410,260.635,14.734,-16.9664,179.297,1.14258,-145.327,492
1571130410,260.635,14.734,-16.9664,179.297,1.14258,-145.327,492
1571130410,260.635,14.734,-16.9664,179.297,1.14258,-145.327,492
1571130410,260.635,14.734,-16.9664,179.297,1.14258,-145.327,492
1571130410,260.635,14.734,-16.9664,179.297,1.14258,-145.327,492
1571130410,260.635,14.734,-16.9664,179.297,1.14258,-145.327,492
1571130410,260.635,14.734,-16.9664,179.297,1.14258,-145.327,492
1571130410,260.635,14.734,-16.9664,179.297,1.14258,-145.327,492
1571130410,260.635,14.734,-16.9664,179.297,1.14258,-145.327,492
1571130410,260.635,14.734,-16.9664,179.297,1.14258,-145.327,492
1571130410,260.635,14.734,-16.9664,179.297,1.14258,-145.327,492
1571130410,260.635,14.734,-16.9664,179.297,1.14258,-145.327,492
1571130410,260.635,14.734,-16.9664,179.297,1.14258,-145.327,492
1571130410,260.635,14.734,-16.9664,179.297,1.14258,-145.327,492
1571130410,260.635,14.734,-16.9664,179.297,1.14258,-145.327,492
1571130410,260.635,14.734,-16.9664,179.297,1.14258,-145.327,492
1571130410,260.635,14.734,-16.9664,179.297,1.14258,-145.327,492
1571130410,260.635,14.734,-16.9664,179.297,1.14258,-145.327,492
1571130410,260.635,14.734,-16.9664,179.297,1.14258,-145.327,492
1571130410,260.635,14.734,-16.9664,179.297,1.14258,-145.327,492
1571130410,260.635,14.734,-16.9664,179.297,1.14258,-145.327,492
1571130410,260.635,14.734,-16.9664,179.297,1.14258,-145.327,492
1571130410,260.635,14.734,-16.9664,179.297,1.14258,-145.327,492
1571130410,260.635,14.734,-16.9664,179.297,1.14258,-145.327,492
1571130410,260.635,14.734,-16.9664,179.297,1.14258,-145.327,492
1571130410,260.635,14.734,-16.9664,179.297,1.14258,-145.327,492
1571130410,260.635,14.734,-16.9664,179.297,1.14258,-145.327,488
1571130410,260.635,14.734,-16.9664,179.297,1.14258,-145.327,488
1571130410,260.635,14.734,-16.9664,179.297,1.14258,-145.327,488
1571130410,260.635,14.734,-16.9664,179.297,1.14258,-145.327,488
1571130410,260.635,14.734,-16.9664,179.297,1.14258,-145.327,488
1571130410,260.635,14.734,-16.9664,179.297,1.14258,-145.327,488
1571130410,260.635,14.734,-16.9664,179.297,1.14258,-145.327,488
1571130410,260.635,14.734,-16.9664,179.297,1.14258,-145.327,488
1571130410,260.635,14.734,-16.9664,179.297,1.14258,-145.327,488
1571130410,260.635,14.734,-16.9664,179.297,1.14258,-145.327,488
1571130410,260.635,14.734,-16.9664,179.297,1.14258,-145.327,488
1571130410,260.635,14.734,-16.9664,179.297,1.14258,-145.327,488
1571130410,260.635,14.734,-16.9664,179.297,1.14258,-145.327,488
1571130410,260.635,14.734,-16.9664,179.297,1.14258,-145.327,488
1571130410,260.635,14.734,-16.9664,179.297,1.14258,-145.327,484
1571130410,260.635,14.734,-16.9664,179.297,1.14258,-145.327,484
1571130410,260.635,14.734,-16.9664,179.297,1.14258,-145.327,484
1571130410,260.635,14.734,-16.9664,179.297,1.14258,-145.327,484
1571130410,260.635,14.734,-16.9664,179.297,1.14258,-145.327,484
1571130410,260.635,14.734,-16.9664,179.297,1.14258,-145.327,484
1571130410,260.635,14.734,-16.9664,179.297,1.14258,-145.327,484
1571130410,260.635,14.734,-16.9664,179.297,1.14258,-145.327,484
1571130410,260.635,14.734,-16.9664,179.297,1.14258,-145.327,484
1571130410,260.635,14.734,-16.9664,179.297,1.14258,-145.327,484
1571130410,260.635,14.734,-16.9664,179.297,1.14258,-145.327,484
1571130410,260.635,14.734,-16.9664,179.297,1.14258,-145.327,484
1571130410,260.635,14.734,-16.9664,179.297,1.14258,-145.327,484
1571130410,260.635,14.734,-16.9664,179.297,1.14258,-145.327,484
1571130410,260.635,14.734,-16.9664,179.297,1.14258,-145.327,484
1571130410,260.635,14.734,-16.9664,179.297,1.14258,-145.327,484
1571130410,260.635,14.734,-16.9664,179.297,1.14258,-145.327,484
1571130410,260.635,14.734,-16.9664,179.297,1.14258,-145.327,484
1571130410,260.635,14.734,-16.9664,179.297,1.14258,-145.327,484
1571130410,260.635,14.734,-16.9664,179.297,1.14258,-145.327,484
1571130410,260.635,14.734,-16.9664,179.297,1.14258,-145.327,484
1571130410,260.635,14.734,-16.9664,179.297,1.14258,-145.327,484
1571130410,260.635,14.734,-16.9664,179.297,1.14258,-145.327,484
1571130410,260.635,14.734,-16.9664,179.297,1.14258,-145.327,484
1571130410,260.635,14.734,-16.9664,179.297,1.14258,-145.327,484
1571130410,260.635,14.734,-16.9664,179.297,1.14258,-145.327,484
1571130410,260.635,14.734,-16.9664,179.297,1.14258,-145.327,484
1571130410,260.635,14.734,-16.9664,179.297,1.14258,-145.327,484
1571130410,260.635,14.734,-16.9664,179.297,1.14258,-145.327,484
1571130410,260.635,14.734,-16.9664,179.297,1.14258,-145.327,484
1571130410,260.635,14.734,-16.9664,179.297,1.14258,-145.327,484
1571130410,260.635,14.734,-16.9664,179.297,1.14258,-145.327,484
1571130410,260.635,14.734,-16.9664,179.297,1.14258,-145.327,484
1571130410,260.635,14.734,-16.9664,179.297,1.14258,-145.327,484
1571130410,260.635,14.734,-16.9664,179.297,1.14258,-145.327,484
1571130410,260.635,14.734,-16.9664,179.297,1.14258,-145.327,488
1571130410,260.635,14.734,-16.9664,179.297,1.14258,-145.327,488
1571130410,260.635,14.734,-16.9664,179.297,1.14258,-145.327,488
1571130410,260.635,14.734,-16.9664,179.297,1.14258,-145.327,488
1571130411,260.635,14.734,-16.9664,179.297,1.14258,-145.327,488
1571130411,260.635,14.734,-16.9664,179.297,1.14258,-145.327,488
1571130411,260.635,14.734,-16.9664,179.297,1.14258,-145.327,488
1571130414,283.629,-9.48779,-16.7432,179.363,1.27441,-145.635,576
1571130414,283.629,-9.48779,-16.7432,179.363,1.27441,-145.635,576
1571130414,283.629,-9.48779,-16.7432,179.363,1.29639,-145.635,576
1571130414,283.629,-9.48779,-16.7432,179.363,1.29639,-145.635,576
1571130414,283.629,-9.48779,-16.7432,179.363,1.29639,-145.635,576
1571130414,283.629,-9.48779,-16.7432,179.363,1.29639,-145.635,576
1571130414,283.629,-9.48779,-16.7432,179.363,1.29639,-145.635,576
1571130414,283.629,-9.48779,-16.7432,179.363,1.29639,-145.635,576
1571130414,283.629,-9.48779,-16.7432,179.363,1.29639,-145.635,576
1571130414,283.629,-9.48779,-16.7432,179.363,1.29639,-145.635,576
1571130414,283.629,-9.48779,-16.7432,179.363,1.29639,-145.635,576
1571130414,283.629,-9.48779,-16.7432,179.363,1.29639,-145.635,576
1571130414,283.629,-9.48779,-16.7432,179.363,1.29639,-145.635,576
1571130414,283.629,-9.48779,-16.7432,179.363,1.29639,-145.635,576
1571130414,283.629,-9.48779,-16.7432,179.363,1.29639,-145.635,576
1571130414,283.629,-9.48779,-16.7432,179.363,1.29639,-145.635,576
1571130414,283.629,-9.48779,-16.7432,179.363,1.29639,-145.635,576
1571130414,283.629,-9.48779,-16.7432,179.363,1.29639,-145.635,576
1571130414,283.629,-9.48779,-16.7432,179.363,1.29639,-145.635,576
1571130414,283.629,-9.48779,-16.7432,179.363,1.29639,-145.635,576
1571130414,283.629,-9.48779,-16.7432,179.363,1.29639,-145.635,576
1571130414,283.629,-9.48779,-16.7432,179.363,1.29639,-145.635,576
1571130414,283.629,-9.48779,-16.7432,179.363,1.29639,-145.635,576
1571130414,283.629,-9.48779,-16.7432,179.363,1.29639,-145.635,576
1571130414,283.741,-9.48779,-16.7432,179.363,1.29639,-145.635,576
1571130414,283.741,-9.48779,-16.7432,179.363,1.29639,-145.635,576
1571130414,283.741,-9.48779,-16.7432,179.363,1.29639,-145.635,576
1571130414,283.741,-9.48779,-16.7432,179.363,1.29639,-145.635,576
1571130414,283.741,-9.48779,-16.7432,179.363,1.29639,-145.635,576
1571130414,283.741,-9.48779,-16.7432,179.363,1.29639,-145.635,576
1571130414,283.741,-9.48779,-16.7432,179.363,1.29639,-145.635,580
1571130414,283.741,-9.48779,-16.7432,179.363,1.29639,-145.635,580
1571130414,283.741,-9.48779,-16.7432,179.363,1.29639,-145.635,580
1571130414,283.741,-9.48779,-16.7432,179.363,1.29639,-145.635,580
1571130414,283.629,-9.48779,-16.7432,179.363,1.29639,-145.635,580
1571130414,283.629,-9.48779,-16.7432,179.363,1.29639,-145.635,576
1571130414,283.629,-9.48779,-16.7432,179.363,1.29639,-145.635,576
1571130414,283.629,-9.48779,-16.7432,179.363,1.29639,-145.635,576
1571130414,283.629,-9.48779,-16.7432,179.363,1.29639,-145.635,576
1571130414,283.629,-9.48779,-16.7432,179.363,1.29639,-145.635,576
1571130414,283.629,-9.48779,-16.7432,179.363,1.29639,-145.635,576
1571130414,283.629,-9.48779,-16.7432,179.363,1.29639,-145.635,576
1571130414,283.629,-9.48779,-16.7432,179.363,1.29639,-145.635,576
1571130414,283.629,-9.48779,-16.7432,179.363,1.29639,-145.635,576
1571130414,283.629,-9.48779,-16.7432,179.363,1.29639,-145.635,576
1571130414,283.629,-9.48779,-16.7432,179.363,1.29639,-145.635,576
1571130414,283.629,-9.48779,-16.7432,179.363,1.29639,-145.635,576
1571130414,283.629,-9.48779,-16.7432,179.363,1.29639,-145.635,576
1571130414,283.629,-9.48779,-16.7432,179.363,1.29639,-145.635,576
1571130414,283.629,-9.48779,-16.7432,179.363,1.29639,-145.635,576
1571130414,283.629,-9.48779,-16.7432,179.363,1.29639,-145.635,576
1571130414,283.741,-9.48779,-16.7432,179.363,1.29639,-145.635,576
1571130414,283.741,-9.48779,-16.7432,179.363,1.29639,-145.635,576
1571130414,283.741,-9.48779,-16.7432,179.363,1.29639,-145.635,576
1571130414,283.741,-9.48779,-16.7432,179.363,1.29639,-145.635,576
1571130414,283.741,-9.48779,-16.7432,179.363,1.29639,-145.635,576
1571130414,283.741,-9.48779,-16.7432,179.363,1.29639,-145.635,576
1571130414,283.741,-9.48779,-16.7432,179.363,1.29639,-145.635,576
1571130414,283.741,-9.48779,-16.7432,179.363,1.29639,-145.635,576
1571130415,283.741,-9.48779,-16.7432,179.363,1.29639,-145.635,576
1571130415,283.741,-9.48779,-16.7432,179.363,1.29639,-145.635,576
1571130415,283.741,-9.48779,-16.7432,179.363,1.29639,-145.635,576
1571130415,283.741,-9.48779,-16.6315,179.363,1.29639,-145.635,576
1571130415,283.741,-9.48779,-16.6315,179.363,1.29639,-145.635,576
1571130415,283.741,-9.48779,-16.6315,179.363,1.29639,-145.635,576
1571130415,283.741,-9.48779,-16.6315,179.363,1.29639,-145.635,576
1571130415,283.741,-9.48779,-16.6315,179.363,1.29639,-145.635,572
1571130415,283.741,-9.48779,-16.6315,179.363,1.29639,-145.635,572
1571130415,283.741,-9.48779,-16.6315,179.363,1.29639,-145.635,572
1571130415,283.741,-9.48779,-16.6315,179.363,1.29639,-145.635,572
1571130415,283.741,-9.48779,-16.6315,179.363,1.29639,-145.635,572
1571130415,283.741,-9.48779,-16.6315,179.363,1.29639,-145.635,572
1571130415,283.741,-9.48779,-16.6315,179.363,1.29639,-145.635,572
1571130415,283.741,-9.48779,-16.6315,179.363,1.29639,-145.635,572
1571130415,283.629,-9.48779,-16.6315,179.363,1.29639,-145.635,572
1571130415,283.629,-9.48779,-16.7432,179.363,1.29639,-145.635,572
1571130415,283.629,-9.48779,-16.7432,179.363,1.29639,-145.635,572
1571130415,283.629,-9.48779,-16.7432,179.363,1.29639,-145.635,572
1571130415,283.629,-9.48779,-16.7432,179.363,1.29639,-145.635,572
1571130415,283.629,-9.48779,-16.7432,179.363,1.29639,-145.635,572
1571130415,283.629,-9.48779,-16.7432,179.363,1.29639,-145.635,572
1571130415,283.629,-9.48779,-16.7432,179.363,1.29639,-145.635,572
1571130415,283.629,-9.48779,-16.7432,179.363,1.29639,-145.635,572
1571130415,283.629,-9.48779,-16.7432,179.363,1.29639,-145.635,572
1571130415,283.629,-9.48779,-16.7432,179.363,1.29639,-145.635,572
1571130415,283.629,-9.48779,-16.7432,179.363,1.29639,-145.635,572
1571130415,283.629,-9.48779,-16.7432,179.363,1.29639,-145.635,572
1571130415,283.629,-9.48779,-16.7432,179.363,1.29639,-145.613,572
1571130415,283.629,-9.48779,-16.7432,179.363,1.29639,-145.613,572
1571130415,283.629,-9.48779,-16.7432,179.363,1.29639,-145.613,572
1571130415,283.741,-9.48779,-16.7432,179.363,1.29639,-145.613,572
1571130415,283.741,-9.48779,-16.7432,179.363,1.29639,-145.613,572
1571130415,283.741,-9.48779,-16.7432,179.363,1.29639,-145.613,572
1571130415,283.741,-9.48779,-16.7432,179.363,1.29639,-145.613,572
1571130415,283.741,-9.48779,-16.7432,179.363,1.29639,-145.613,568
1571130415,283.741,-9.48779,-16.7432,179.363,1.27441,-145.613,568
1571130415,283.741,-9.48779,-16.7432,179.363,1.27441,-145.613,568
1571130415,283.741,-9.48779,-16.7432,179.363,1.27441,-145.613,568
1571130415,283.741,-9.48779,-16.7432,179.363,1.27441,-145.613,568
1571130415,283.741,-9.48779,-16.7432,179.363,1.27441,-145.613,568
1571130415,283.741,-9.48779,-16.7432,179.363,1.27441,-145.613,568
1571130415,283.741,-9.48779,-16.7432,179.363,1.27441,-145.613,568
1571130415,283.741,-9.48779,-16.7432,179.363,1.27441,-145.613,568
1571130415,283.741,-9.48779,-16.7432,179.363,1.27441,-145.635,568
1571130415,283.741,-9.48779,-16.7432,179.363,1.27441,-145.635,568
1571130415,283.741,-9.48779,-16.7432,179.363,1.27441,-145.635,568
1571130415,283.741,-9.48779,-16.7432,179.363,1.27441,-145.635,568
1571130415,283.741,-9.48779,-16.7432,179.363,1.29639,-145.635,568
1571130415,283.741,-9.48779,-16.7432,179.363,1.29639,-145.635,568
1571130415,283.741,-9.48779,-16.7432,179.363,1.29639,-145.635,568
1571130415,283.741,-9.48779,-16.7432,179.363,1.29639,-145.635,568
1571130415,283.741,-9.48779,-16.7432,179.363,1.29639,-145.635,568
1571130415,283.741,-9.48779,-16.7432,179.363,1.29639,-145.635,568
1571130415,283.741,-9.48779,-16.7432,179.363,1.29639,-145.635,568
1571130415,283.741,-9.48779,-16.6315,179.363,1.29639,-145.635,568
1571130415,283.741,-9.48779,-16.6315,179.363,1.29639,-145.635,572
1571130415,283.741,-9.48779,-16.6315,179.363,1.29639,-145.635,572
1571130415,283.741,-9.48779,-16.6315,179.363,1.29639,-145.635,572
1571130415,283.741,-9.48779,-16.6315,179.363,1.29639,-145.635,572
1571130415,283.741,-9.48779,-16.6315,179.363,1.29639,-145.635,572
1571130415,283.741,-9.48779,-16.6315,179.385,1.29639,-145.635,572
1571130415,283.741,-9.48779,-16.6315,179.385,1.29639,-145.635,572
1571130415,283.741,-9.48779,-16.7432,179.385,1.29639,-145.635,572
1571130415,283.629,-9.48779,-16.7432,179.385,1.29639,-145.635,572
1571130415,283.629,-9.48779,-16.7432,179.385,1.29639,-145.635,572
1571130415,283.629,-9.48779,-16.7432,179.385,1.29639,-145.635,572
1571130415,283.629,-9.48779,-16.7432,179.385,1.29639,-145.635,572
1571130415,283.629,-9.48779,-16.7432,179.385,1.29639,-145.635,572
1571130415,283.629,-9.48779,-16.7432,179.385,1.29639,-145.635,576
1571130415,283.629,-9.48779,-16.7432,179.385,1.29639,-145.635,576
1571130415,283.629,-9.48779,-16.7432,179.385,1.29639,-145.635,576
1571130415,283.629,-9.48779,-16.7432,179.385,1.29639,-145.635,576
1571130415,283.629,-9.48779,-16.7432,179.385,1.29639,-145.635,576
1571130415,283.629,-9.48779,-16.7432,179.385,1.29639,-145.635,576
1571130415,283.629,-9.48779,-16.7432,179.385,1.27441,-145.635,576
1571130415,283.629,-9.48779,-16.7432,179.385,1.27441,-145.635,576
1571130415,283.629,-9.48779,-16.7432,179.385,1.27441,-145.635,576
1571130415,283.629,-9.48779,-16.7432,179.385,1.27441,-145.635,576
1571130415,283.741,-9.48779,-16.7432,179.385,1.27441,-145.635,576
1571130415,283.741,-9.48779,-16.7432,179.385,1.27441,-145.635,576
1571130415,283.741,-9.48779,-16.7432,179.385,1.27441,-145.635,576
1571130415,283.741,-9.48779,-16.7432,179.363,1.27441,-145.635,576
1571130415,283.741,-9.48779,-16.7432,179.363,1.27441,-145.635,576
1571130415,283.741,-9.48779,-16.7432,179.363,1.27441,-145.635,576
1571130415,283.741,-9.48779,-16.7432,179.363,1.27441,-145.635,572
1571130415,283.741,-9.48779,-16.7432,179.363,1.27441,-145.613,572
1571130415,283.741,-9.48779,-16.7432,179.363,1.27441,-145.613,572
1571130415,283.741,-9.48779,-16.7432,179.363,1.27441,-145.613,572
1571130415,283.741,-9.48779,-16.7432,179.363,1.27441,-145.613,572
1571130415,283.741,-9.48779,-16.7432,179.363,1.27441,-145.613,572
1571130415,283.741,-9.48779,-16.7432,179.363,1.27441,-145.613,572
1571130415,283.741,-9.48779,-16.7432,179.363,1.27441,-145.613,572
1571130415,283.741,-9.48779,-16.7432,179.363,1.27441,-145.613,572
1571130415,283.741,-9.48779,-16.7432,179.363,1.27441,-145.613,572
1571130415,283.741,-9.48779,-16.7432,179.363,1.27441,-145.613,572
1571130415,283.741,-9.48779,-16.7432,179.363,1.27441,-145.613,572
1571130415,283.741,-9.48779,-16.7432,179.363,1.29639,-145.613,572
1571130415,283.741,-9.48779,-16.7432,179.363,1.29639,-145.613,572
1571130415,283.741,-9.48779,-16.7432,179.363,1.29639,-145.613,572
1571130416,283.741,-9.48779,-16.7432,179.363,1.29639,-145.613,572
1571130416,283.741,-9.48779,-16.7432,179.363,1.29639,-145.613,572
1571130416,283.741,-9.48779,-16.7432,179.363,1.29639,-145.613,572
1571130416,283.741,-9.48779,-16.7432,179.363,1.29639,-145.613,572
1571130416,283.741,-9.48779,-16.7432,179.363,1.29639,-145.613,572
1571130416,283.741,-9.48779,-16.7432,179.363,1.29639,-145.613,572
1571130416,283.741,-9.48779,-16.7432,179.363,1.29639,-145.613,572
1571130416,283.741,-9.48779,-16.7432,179.363,1.29639,-145.613,568
1571130416,283.741,-9.48779,-16.7432,179.363,1.29639,-145.613,568
1571130416,283.741,-9.48779,-16.7432,179.363,1.29639,-145.613,568
1571130416,283.741,-9.48779,-16.7432,179.363,1.29639,-145.613,568
1571130416,283.629,-9.48779,-16.7432,179.363,1.29639,-145.613,568
1571130416,283.629,-9.48779,-16.7432,179.363,1.29639,-145.613,568
1571130416,283.629,-9.48779,-16.7432,179.363,1.29639,-145.613,568
1571130416,283.629,-9.48779,-16.7432,179.363,1.29639,-145.613,568
1571130416,283.741,-9.48779,-16.7432,179.363,1.29639,-145.613,568
1571130416,283.629,-9.48779,-16.7432,179.363,1.29639,-145.613,568
1571130416,283.629,-9.48779,-16.7432,179.363,1.29639,-145.613,568
1571130416,283.741,-9.48779,-16.7432,179.363,1.29639,-145.613,568
1571130416,283.741,-9.48779,-16.7432,179.363,1.29639,-145.613,568
1571130416,283.741,-9.48779,-16.7432,179.363,1.29639,-145.613,568
1571130416,283.741,-9.48779,-16.6315,179.363,1.29639,-145.613,568
1571130416,283.741,-9.48779,-16.6315,179.363,1.29639,-145.613,568
1571130416,283.741,-9.48779,-16.6315,179.363,1.29639,-145.613,568
1571130416,283.741,-9.48779,-16.6315,179.363,1.29639,-145.613,568
1571130416,283.741,-9.48779,-16.6315,179.363,1.29639,-145.613,568
1571130416,283.741,-9.48779,-16.6315,179.363,1.29639,-145.613,568
1571130416,283.741,-9.48779,-16.6315,179.363,1.29639,-145.613,568
1571130416,283.741,-9.48779,-16.6315,179.363,1.29639,-145.613,568
1571130416,283.741,-9.48779,-16.6315,179.363,1.29639,-145.613,568
1571130416,283.741,-9.48779,-16.6315,179.363,1.29639,-145.613,568
1571130416,283.741,-9.48779,-16.7432,179.363,1.29639,-145.613,568
1571130416,283.741,-9.48779,-16.7432,179.363,1.29639,-145.613,568
1571130416,283.741,-9.48779,-16.7432,179.363,1.29639,-145.613,568
1571130416,283.741,-9.48779,-16.7432,179.363,1.29639,-145.613,568
1571130416,283.741,-9.48779,-16.7432,179.363,1.29639,-145.613,568
1571130416,283.741,-9.48779,-16.7432,179.363,1.29639,-145.613,568
1571130416,283.741,-9.48779,-16.7432,179.363,1.29639,-145.613,568
1571130416,283.741,-9.48779,-16.7432,179.363,1.29639,-145.613,568
1571130416,283.741,-9.48779,-16.7432,179.363,1.29639,-145.613,568
1571130416,283.741,-9.48779,-16.7432,179.363,1.29639,-145.613,568
1571130416,283.741,-9.48779,-16.7432,179.363,1.29639,-145.613,568
1571130416,283.741,-9.48779,-16.7432,179.363,1.29639,-145.613,568
1571130416,283.741,-9.48779,-16.7432,179.363,1.29639,-145.613,568
1571130416,283.741,-9.48779,-16.6315,179.363,1.29639,-145.613,568
1571130416,283.741,-9.48779,-16.6315,179.363,1.29639,-145.613,568
1571130416,283.741,-9.48779,-16.6315,179.363,1.29639,-145.613,568
1571130416,283.741,-9.48779,-16.6315,179.363,1.29639,-145.613,568
1571130416,283.741,-9.48779,-16.6315,179.363,1.29639,-145.613,568
1571130416,283.741,-9.48779,-16.6315,179.363,1.29639,-145.613,568
1571130416,283.741,-9.48779,-16.6315,179.363,1.29639,-145.613,568
1571130416,283.741,-9.48779,-16.6315,179.363,1.29639,-145.613,568
1571130416,283.741,-9.48779,-16.6315,179.363,1.29639,-145.613,568
1571130416,283.741,-9.48779,-16.6315,179.363,1.29639,-145.613,568
1571130416,283.741,-9.48779,-16.6315,179.363,1.29639,-145.613,568
1571130416,283.741,-9.48779,-16.6315,179.363,1.29639,-145.613,568
1571130416,283.741,-9.48779,-16.6315,179.363,1.29639,-145.613,572
1571130416,283.741,-9.48779,-16.6315,179.363,1.29639,-145.613,572
1571130416,283.741,-9.48779,-16.6315,179.363,1.29639,-145.613,572
1571130416,283.741,-9.48779,-16.6315,179.363,1.29639,-145.613,572
1571130416,283.741,-9.48779,-16.6315,179.363,1.29639,-145.613,572
1571130416,283.741,-9.48779,-16.6315,179.363,1.29639,-145.613,572
1571130416,283.741,-9.48779,-16.6315,179.363,1.29639,-145.613,572
1571130416,283.741,-9.48779,-16.6315,179.363,1.29639,-145.613,572
1571130416,283.741,-9.48779,-16.6315,179.363,1.29639,-145.613,572
1571130416,283.741,-9.48779,-16.6315,179.363,1.29639,-145.613,572
1571130416,283.741,-9.48779,-16.6315,179.363,1.29639,-145.613,572
1571130416,283.741,-9.48779,-16.6315,179.363,1.29639,-145.613,572
1571130416,283.741,-9.48779,-16.6315,179.363,1.29639,-145.613,572
1571130416,283.741,-9.48779,-16.7432,179.363,1.29639,-145.613,572
1571130416,283.741,-9.48779,-16.7432,179.363,1.29639,-145.635,572
1571130416,283.741,-9.48779,-16.7432,179.363,1.29639,-145.635,572
1571130416,283.741,-9.48779,-16.7432,179.363,1.29639,-145.635,568
1571130416,283.741,-9.48779,-16.7432,179.363,1.29639,-145.635,568
1571130416,283.741,-9.48779,-16.7432,179.363,1.29639,-145.635,568
1571130416,283.741,-9.48779,-16.7432,179.363,1.29639,-145.635,568
1571130416,283.741,-9.48779,-16.7432,179.363,1.29639,-145.635,568
1571130416,283.741,-9.48779,-16.7432,179.363,1.29639,-145.635,568
1571130416,283.741,-9.48779,-16.7432,179.363,1.29639,-145.635,568
1571130416,283.741,-9.48779,-16.7432,179.363,1.29639,-145.635,568
1571130416,283.741,-9.48779,-16.7432,179.363,1.29639,-145.635,568
1571130416,283.741,-9.48779,-16.7432,179.363,1.29639,-145.635,568
1571130416,283.741,-9.48779,-16.7432,179.363,1.29639,-145.635,568
1571130416,283.741,-9.48779,-16.7432,179.363,1.29639,-145.635,568
1571130416,283.741,-9.48779,-16.7432,179.363,1.29639,-145.613,568
1571130416,283.741,-9.48779,-16.7432,179.363,1.29639,-145.613,568
1571130416,283.741,-9.48779,-16.7432,179.363,1.29639,-145.613,568
1571130416,283.741,-9.48779,-16.7432,179.363,1.27441,-145.613,568
1571130416,283.741,-9.48779,-16.7432,179.363,1.27441,-145.613,568
1571130416,283.741,-9.48779,-16.7432,179.385,1.27441,-145.613,568
1571130416,283.741,-9.48779,-16.7432,179.385,1.27441,-145.613,568
1571130416,283.741,-9.48779,-16.7432,179.385,1.27441,-145.613,564
1571130416,283.741,-9.48779,-16.7432,179.385,1.27441,-145.613,564
1571130416,283.741,-9.48779,-16.7432,179.385,1.27441,-145.613,564
1571130416,283.741,-9.48779,-16.7432,179.385,1.27441,-145.613,564
1571130416,283.741,-9.48779,-16.7432,179.385,1.27441,-145.613,564
1571130416,283.741,-9.48779,-16.7432,179.385,1.27441,-145.613,564
1571130416,283.741,-9.48779,-16.7432,179.385,1.27441,-145.613,564
1571130416,283.741,-9.48779,-16.7432,179.385,1.27441,-145.613,568
1571130416,283.741,-9.48779,-16.7432,179.385,1.27441,-145.613,568
1571130417,283.741,-9.48779,-16.7432,179.385,1.27441,-145.613,568
1571130417,283.741,-9.48779,-16.7432,179.385,1.27441,-145.613,568
1571130417,283.741,-9.48779,-16.7432,179.385,1.27441,-145.613,568
1571130417,283.741,-9.48779,-16.7432,179.385,1.27441,-145.613,568
1571130417,283.741,-9.48779,-16.7432,179.385,1.27441,-145.613,568
1571130417,283.741,-9.48779,-16.7432,179.385,1.27441,-145.613,568
1571130417,283.741,-9.48779,-16.7432,179.385,1.27441,-145.613,568
1571130417,283.741,-9.48779,-16.7432,179.385,1.27441,-145.613,568
1571130417,283.741,-9.48779,-16.7432,179.385,1.27441,-145.613,568
1571130417,283.741,-9.48779,-16.7432,179.385,1.27441,-145.635,568
1571130417,283.741,-9.48779,-16.7432,179.385,1.27441,-145.635,572
1571130417,283.741,-9.48779,-16.7432,179.385,1.27441,-145.635,572
1571130417,283.741,-9.48779,-16.7432,179.385,1.27441,-145.635,572
1571130417,283.741,-9.48779,-16.7432,179.385,1.29639,-145.635,572
1571130417,283.741,-9.48779,-16.7432,179.385,1.29639,-145.635,572
1571130417,283.741,-9.48779,-16.7432,179.385,1.29639,-145.635,572
1571130417,283.741,-9.48779,-16.7432,179.385,1.29639,-145.635,572
1571130417,283.741,-9.48779,-16.7432,179.385,1.29639,-145.635,572
1571130417,283.741,-9.48779,-16.7432,179.385,1.29639,-145.635,572
1571130417,283.741,-9.48779,-16.7432,179.385,1.29639,-145.635,572
1571130417,283.741,-9.48779,-16.7432,179.385,1.29639,-145.635,572
1571130417,283.741,-9.48779,-16.7432,179.385,1.29639,-145.635,572
1571130417,283.741,-9.48779,-16.7432,179.385,1.29639,-145.635,572
1571130417,283.741,-9.48779,-16.7432,179.385,1.29639,-145.613,572
1571130417,283.741,-9.48779,-16.6315,179.385,1.29639,-145.613,572
1571130417,283.741,-9.48779,-16.6315,179.385,1.29639,-145.613,572
1571130417,283.629,-9.48779,-16.6315,179.385,1.29639,-145.613,576
1571130417,283.629,-9.48779,-16.6315,179.385,1.29639,-145.613,576
1571130417,283.629,-9.48779,-16.6315,179.385,1.29639,-145.613,576
1571130417,283.629,-9.48779,-16.6315,179.385,1.29639,-145.613,576
1571130417,283.629,-9.48779,-16.6315,179.385,1.29639,-145.613,576
1571130417,283.629,-9.48779,-16.6315,179.385,1.29639,-145.613,576
1571130417,283.629,-9.48779,-16.6315,179.385,1.29639,-145.613,576
1571130417,283.629,-9.48779,-16.6315,179.385,1.29639,-145.613,580
1571130417,283.629,-9.48779,-16.6315,179.385,1.29639,-145.613,580
1571130417,283.629,-9.48779,-16.6315,179.385,1.29639,-145.635,580
1571130417,283.629,-9.48779,-16.6315,179.385,1.29639,-145.635,580
1571130417,283.629,-9.48779,-16.6315,179.385,1.29639,-145.635,580
1571130417,283.629,-9.48779,-16.7432,179.385,1.29639,-145.635,580
1571130417,283.629,-9.48779,-16.7432,179.385,1.29639,-145.635,580
1571130417,283.629,-9.48779,-16.7432,179.385,1.29639,-145.635,580
1571130417,283.629,-9.48779,-16.7432,179.385,1.29639,-145.635,580
1571130417,283.629,-9.48779,-16.7432,179.385,1.29639,-145.635,580
1571130417,283.629,-9.48779,-16.7432,179.385,1.29639,-145.635,580
1571130417,283.629,-9.48779,-16.7432,179.385,1.29639,-145.635,580
1571130417,283.629,-9.48779,-16.7432,179.385,1.29639,-145.635,580
1571130417,283.629,-9.48779,-16.7432,179.385,1.29639,-145.635,580
1571130417,283.629,-9.48779,-16.7432,179.385,1.29639,-145.635,580
1571130417,283.741,-9.48779,-16.7432,179.385,1.29639,-145.635,580
1571130417,283.741,-9.48779,-16.7432,179.385,1.29639,-145.635,580
1571130417,283.741,-9.48779,-16.7432,179.385,1.29639,-145.635,580
1571130417,283.741,-9.48779,-16.7432,179.385,1.29639,-145.635,580
1571130417,283.741,-9.48779,-16.7432,179.385,1.29639,-145.635,580
1571130417,283.741,-9.48779,-16.7432,179.385,1.29639,-145.635,580
1571130417,283.741,-9.48779,-16.7432,179.385,1.29639,-145.635,580
1571130417,283.741,-9.48779,-16.7432,179.385,1.29639,-145.613,580
1571130417,283.741,-9.48779,-16.7432,179.385,1.29639,-145.613,580
1571130417,283.741,-9.48779,-16.7432,179.385,1.29639,-145.613,580
1571130417,283.741,-9.48779,-16.6315,179.385,1.29639,-145.613,576
1571130417,283.741,-9.48779,-16.6315,179.385,1.29639,-145.613,576
1571130417,283.741,-9.48779,-16.6315,179.385,1.29639,-145.613,576
1571130417,283.741,-9.48779,-16.6315,179.385,1.29639,-145.613,576
1571130417,283.741,-9.48779,-16.6315,179.385,1.29639,-145.613,576
1571130417,283.741,-9.48779,-16.6315,179.385,1.29639,-145.613,576
1571130417,283.741,-9.48779,-16.6315,179.385,1.29639,-145.613,576
1571130417,283.741,-9.48779,-16.6315,179.385,1.29639,-145.613,576
1571130417,283.741,-9.48779,-16.6315,179.385,1.29639,-145.613,576
1571130417,283.741,-9.48779,-16.6315,179.385,1.29639,-145.613,576
1571130417,283.741,-9.48779,-16.6315,179.385,1.29639,-145.613,572
1571130417,283.741,-9.48779,-16.7432,179.385,1.29639,-145.613,572
1571130417,283.741,-9.48779,-16.7432,179.385,1.29639,-145.613,572
1571130417,283.741,-9.48779,-16.7432,179.363,1.29639,-145.613,572
1571130417,283.741,-9.48779,-16.7432,179.363,1.29639,-145.613,572
1571130417,283.741,-9.48779,-16.7432,179.363,1.29639,-145.613,572
1571130417,283.741,-9.48779,-16.7432,179.363,1.29639,-145.613,572
1571130417,283.741,-9.48779,-16.7432,179.363,1.29639,-145.613,572
1571130417,283.741,-9.48779,-16.7432,179.363,1.29639,-145.613,572
1571130417,283.741,-9.48779,-16.7432,179.363,1.29639,-145.613,572
1571130417,283.741,-9.48779,-16.7432,179.363,1.29639,-145.613,572
1571130417,283.741,-9.48779,-16.7432,179.363,1.29639,-145.613,572
1571130417,283.741,-9.48779,-16.7432,179.363,1.29639,-145.613,572
1571130417,283.741,-9.48779,-16.7432,179.363,1.29639,-145.613,572
1571130417,283.741,-9.48779,-16.7432,179.363,1.29639,-145.613,572
1571130417,283.741,-9.48779,-16.7432,179.363,1.29639,-145.613,572
1571130417,283.741,-9.59941,-16.7432,179.363,1.29639,-145.613,572
1571130417,283.741,-9.59941,-16.7432,179.363,1.29639,-145.613,572
1571130417,283.741,-9.59941,-16.7432,179.363,1.29639,-145.613,572
1571130417,283.741,-9.59941,-16.7432,179.363,1.29639,-145.613,572
1571130417,283.741,-9.59941,-16.7432,179.363,1.29639,-145.613,572
1571130417,283.741,-9.59941,-16.7432,179.363,1.29639,-145.613,572
1571130417,283.741,-9.59941,-16.7432,179.363,1.29639,-145.613,572
1571130417,283.741,-9.59941,-16.7432,179.363,1.29639,-145.613,572
1571130417,283.741,-9.59941,-16.7432,179.363,1.29639,-145.613,572
1571130417,283.741,-9.59941,-16.7432,179.363,1.29639,-145.613,572
1571130417,283.741,-9.59941,-16.7432,179.363,1.29639,-145.635,572
1571130417,283.741,-9.59941,-16.6315,179.363,1.29639,-145.635,572
1571130417,283.741,-9.59941,-16.6315,179.363,1.29639,-145.635,572
1571130417,283.741,-9.59941,-16.6315,179.363,1.29639,-145.635,572
1571130417,283.741,-9.59941,-16.6315,179.363,1.29639,-145.635,572
1571130417,283.741,-9.59941,-16.6315,179.363,1.29639,-145.635,572
1571130418,283.741,-9.48779,-16.6315,179.363,1.29639,-145.635,572
1571130418,283.741,-9.48779,-16.6315,179.363,1.29639,-145.635,572
1571130418,283.741,-9.48779,-16.6315,179.363,1.29639,-145.613,572
1571130418,283.741,-9.48779,-16.6315,179.363,1.29639,-145.613,572
1571130418,283.741,-9.48779,-16.6315,179.363,1.29639,-145.613,572
1571130418,283.741,-9.48779,-16.6315,179.363,1.29639,-145.613,572
1571130418,283.741,-9.48779,-16.6315,179.363,1.29639,-145.613,572
1571130418,283.741,-9.48779,-16.6315,179.363,1.29639,-145.613,572
1571130418,283.741,-9.48779,-16.6315,179.363,1.29639,-145.613,572
1571130418,283.741,-9.48779,-16.6315,179.363,1.29639,-145.613,572
1571130418,283.741,-9.48779,-16.6315,179.363,1.29639,-145.613,568
1571130418,283.741,-9.48779,-16.6315,179.363,1.29639,-145.613,568
1571130418,283.741,-9.48779,-16.7432,179.363,1.29639,-145.613,568
1571130418,283.741,-9.48779,-16.7432,179.363,1.29639,-145.635,568
1571130418,283.741,-9.48779,-16.7432,179.363,1.29639,-145.635,568
1571130418,283.741,-9.48779,-16.7432,179.363,1.29639,-145.635,568
1571130418,283.741,-9.48779,-16.7432,179.363,1.29639,-145.635,568
1571130418,283.741,-9.48779,-16.7432,179.363,1.29639,-145.635,568
1571130418,283.741,-9.48779,-16.7432,179.363,1.29639,-145.635,568
1571130418,283.741,-9.48779,-16.7432,179.363,1.29639,-145.635,568
1571130418,283.629,-9.48779,-16.7432,179.363,1.29639,-145.635,568
1571130418,283.629,-9.48779,-16.7432,179.363,1.29639,-145.635,568
1571130418,283.629,-9.59941,-16.7432,179.363,1.29639,-145.635,568
1571130418,283.629,-9.59941,-16.7432,179.341,1.29639,-145.635,572
1571130418,283.629,-9.59941,-16.7432,179.341,1.29639,-145.635,572
1571130418,283.629,-9.59941,-16.7432,179.341,1.29639,-145.635,572
1571130418,283.629,-9.59941,-16.7432,179.341,1.29639,-145.635,572
1571130418,283.629,-9.59941,-16.7432,179.341,1.29639,-145.635,572
1571130418,283.629,-9.59941,-16.7432,179.341,1.29639,-145.635,572
1571130418,283.629,-9.59941,-16.7432,179.341,1.29639,-145.635,572
1571130418,283.629,-9.59941,-16.7432,179.341,1.29639,-145.635,572
1571130418,283.629,-9.59941,-16.6315,179.341,1.29639,-145.635,572
1571130418,283.629,-9.59941,-16.6315,179.341,1.29639,-145.635,572
1571130418,283.629,-9.59941,-16.6315,179.341,1.29639,-145.635,572
1571130418,283.629,-9.59941,-16.6315,179.341,1.29639,-145.635,572
1571130418,283.629,-9.59941,-16.6315,179.341,1.29639,-145.635,572
1571130418,283.629,-9.59941,-16.6315,179.341,1.29639,-145.635,572
1571130418,283.629,-9.59941,-16.6315,179.341,1.29639,-145.635,572
1571130418,283.629,-9.59941,-16.6315,179.363,1.29639,-145.635,572
1571130418,283.629,-9.59941,-16.6315,179.363,1.29639,-145.635,572
1571130418,283.629,-9.59941,-16.6315,179.363,1.29639,-145.635,572
1571130418,283.629,-9.59941,-16.6315,179.363,1.29639,-145.635,572
1571130418,283.629,-9.59941,-16.6315,179.363,1.29639,-145.635,572
1571130418,283.629,-9.48779,-16.6315,179.363,1.29639,-145.635,572
1571130418,283.629,-9.48779,-16.6315,179.363,1.29639,-145.635,572
1571130418,283.741,-9.48779,-16.6315,179.363,1.29639,-145.635,572
1571130418,283.741,-9.48779,-16.7432,179.363,1.29639,-145.635,572
1571130418,283.741,-9.48779,-16.7432,179.363,1.29639,-145.635,572
1571130418,283.741,-9.48779,-16.7432,179.363,1.29639,-145.613,572
1571130418,283.741,-9.48779,-16.7432,179.363,1.29639,-145.613,572
1571130418,283.741,-9.48779,-16.7432,179.363,1.29639,-145.613,572
1571130418,283.741,-9.48779,-16.7432,179.363,1.29639,-145.613,572
1571130418,283.741,-9.48779,-16.7432,179.363,1.29639,-145.613,572
1571130418,283.741,-9.48779,-16.7432,179.363,1.29639,-145.613,572
1571130418,283.741,-9.48779,-16.7432,179.363,1.29639,-145.613,572
1571130418,283.741,-9.48779,-16.7432,179.363,1.29639,-145.613,572
1571130418,283.741,-9.48779,-16.7432,179.363,1.29639,-145.613,572
1571130418,283.741,-9.48779,-16.7432,179.363,1.29639,-145.613,572
1571130418,283.741,-9.48779,-16.7432,179.363,1.29639,-145.613,572
1571130418,283.741,-9.48779,-16.7432,179.363,1.29639,-145.613,572
1571130418,283.741,-9.59941,-16.7432,179.363,1.29639,-145.613,572
1571130418,283.741,-9.59941,-16.7432,179.363,1.29639,-145.613,572
1571130418,283.741,-9.59941,-16.6315,179.363,1.29639,-145.613,572
1571130418,283.741,-9.59941,-16.6315,179.363,1.29639,-145.613,572
1571130418,283.741,-9.59941,-16.6315,179.341,1.29639,-145.613,572
1571130418,283.741,-9.59941,-16.6315,179.341,1.29639,-145.613,572
1571130418,283.741,-9.59941,-16.6315,179.341,1.29639,-145.613,572
1571130418,283.741,-9.59941,-16.6315,179.341,1.29639,-145.613,572
1571130418,283.741,-9.59941,-16.6315,179.341,1.29639,-145.613,572
1571130418,283.741,-9.59941,-16.6315,179.341,1.29639,-145.613,568
1571130418,283.741,-9.59941,-16.6315,179.341,1.31836,-145.613,568
1571130418,283.741,-9.59941,-16.6315,179.341,1.31836,-145.613,568
1571130418,283.741,-9.59941,-16.6315,179.341,1.31836,-145.613,568
1571130418,283.741,-9.59941,-16.6315,179.341,1.31836,-145.613,568
1571130418,283.741,-9.59941,-16.6315,179.341,1.31836,-145.613,568
1571130418,283.741,-9.59941,-16.6315,179.341,1.31836,-145.613,568
1571130418,283.741,-9.59941,-16.6315,179.341,1.31836,-145.613,568
1571130418,283.741,-9.59941,-16.6315,179.341,1.29639,-145.613,568
1571130418,283.741,-9.59941,-16.6315,179.341,1.29639,-145.613,568
1571130418,283.741,-9.59941,-16.6315,179.341,1.29639,-145.613,568
1571130418,283.741,-9.59941,-16.6315,179.341,1.29639,-145.613,568
1571130418,283.741,-9.59941,-16.6315,179.341,1.29639,-145.613,568
1571130418,283.741,-9.59941,-16.6315,179.341,1.29639,-145.613,568
1571130418,283.741,-9.59941,-16.6315,179.341,1.29639,-145.613,564
1571130418,283.741,-9.59941,-16.6315,179.341,1.29639,-145.613,564
1571130418,283.741,-9.59941,-16.6315,179.341,1.29639,-145.613,564
1571130418,283.741,-9.59941,-16.6315,179.341,1.29639,-145.613,564
1571130418,283.741,-9.59941,-16.6315,179.341,1.29639,-145.613,564
1571130418,283.741,-9.59941,-16.6315,179.341,1.29639,-145.613,564
1571130418,283.741,-9.59941,-16.6315,179.341,1.29639,-145.613,564
1571130418,283.741,-9.59941,-16.6315,179.341,1.29639,-145.613,564
1571130418,283.741,-9.59941,-16.7432,179.341,1.29639,-145.613,564
1571130418,283.741,-9.59941,-16.7432,179.341,1.29639,-145.613,568
1571130418,283.741,-9.59941,-16.7432,179.341,1.29639,-145.613,568
1571130418,283.741,-9.59941,-16.7432,179.363,1.29639,-145.613,568
1571130418,283.741,-9.59941,-16.7432,179.363,1.29639,-145.613,568
1571130418,283.741,-9.59941,-16.7432,179.363,1.29639,-145.613,568
1571130418,283.741,-9.48779,-16.7432,179.363,1.29639,-145.613,568
1571130418,283.741,-9.59941,-16.7432,179.363,1.29639,-145.613,568
1571130418,283.741,-9.59941,-16.7432,179.363,1.29639,-145.613,568
1571130419,283.741,-9.59941,-16.7432,179.363,1.29639,-145.613,568
1571130419,283.741,-9.59941,-16.7432,179.363,1.29639,-145.613,568
1571130419,283.741,-9.59941,-16.7432,179.363,1.29639,-145.613,568
1571130419,283.741,-9.59941,-16.7432,179.363,1.29639,-145.613,568
1571130419,283.741,-9.59941,-16.7432,179.341,1.29639,-145.613,568
1571130419,283.741,-9.59941,-16.7432,179.341,1.29639,-145.613,572
1571130419,283.741,-9.59941,-16.7432,179.341,1.29639,-145.613,572
1571130419,283.741,-9.59941,-16.7432,179.341,1.29639,-145.613,572
1571130419,283.741,-9.59941,-16.7432,179.341,1.29639,-145.613,572
1571130419,283.741,-9.59941,-16.7432,179.341,1.29639,-145.613,572
1571130419,283.741,-9.59941,-16.7432,179.341,1.29639,-145.613,572
1571130419,283.741,-9.59941,-16.6315,179.341,1.29639,-145.613,572
1571130419,283.741,-9.59941,-16.6315,179.363,1.29639,-145.613,572
1571130419,283.741,-9.59941,-16.6315,179.363,1.29639,-145.613,572
1571130419,283.741,-9.59941,-16.6315,179.363,1.29639,-145.613,572
1571130419,283.741,-9.59941,-16.6315,179.363,1.29639,-145.613,572
1571130419,283.741,-9.59941,-16.6315,179.363,1.29639,-145.613,572
1571130419,283.741,-9.48779,-16.6315,179.363,1.29639,-145.613,572
1571130419,283.741,-9.48779,-16.6315,179.363,1.31836,-145.613,572
1571130419,283.741,-9.48779,-16.6315,179.363,1.31836,-145.613,572
1571130419,283.741,-9.48779,-16.6315,179.363,1.31836,-145.613,568
1571130419,283.741,-9.48779,-16.6315,179.363,1.31836,-145.613,572
1571130419,283.741,-9.48779,-16.6315,179.363,1.31836,-145.613,572
1571130419,283.741,-9.48779,-16.6315,179.363,1.31836,-145.613,572
1571130419,283.741,-9.48779,-16.6315,179.363,1.31836,-145.613,572
1571130419,283.741,-9.48779,-16.6315,179.363,1.31836,-145.613,572
1571130419,283.741,-9.48779,-16.6315,179.363,1.31836,-145.613,572
1571130419,283.741,-9.59941,-16.6315,179.363,1.31836,-145.613,572
1571130419,283.741,-9.48779,-16.6315,179.363,1.31836,-145.613,572
1571130419,283.741,-9.48779,-16.6315,179.363,1.31836,-145.613,572
1571130419,283.741,-9.48779,-16.6315,179.363,1.31836,-145.613,572
1571130419,283.741,-9.48779,-16.6315,179.363,1.31836,-145.613,572
1571130419,283.741,-9.48779,-16.6315,179.363,1.31836,-145.613,572
1571130419,283.741,-9.48779,-16.6315,179.363,1.29639,-145.613,572
1571130419,283.741,-9.48779,-16.6315,179.363,1.29639,-145.613,572
1571130419,283.741,-9.48779,-16.6315,179.363,1.29639,-145.613,572
1571130419,283.741,-9.48779,-16.6315,179.363,1.29639,-145.613,572
1571130419,283.741,-9.48779,-16.6315,179.363,1.29639,-145.613,572
1571130419,283.741,-9.48779,-16.6315,179.363,1.29639,-145.613,572
1571130419,283.741,-9.48779,-16.6315,179.363,1.29639,-145.613,572
1571130419,283.741,-9.48779,-16.6315,179.363,1.29639,-145.613,572
1571130423,322.138,-50.1179,-16.4083,179.517,1.4502,-145.657,664
1571130423,322.138,-50.1179,-16.4083,179.517,1.4502,-145.657,668
1571130423,322.138,-50.1179,-16.4083,179.517,1.47217,-145.657,668
1571130423,322.138,-50.1179,-16.4083,179.517,1.47217,-145.657,668
1571130423,322.138,-50.1179,-16.4083,179.517,1.47217,-145.657,668
1571130423,322.138,-50.1179,-16.4083,179.517,1.47217,-145.657,668
1571130423,322.138,-50.1179,-16.4083,179.517,1.47217,-145.657,668
1571130423,322.138,-50.1179,-16.4083,179.517,1.47217,-145.657,668
1571130423,322.138,-50.1179,-16.4083,179.517,1.47217,-145.657,668
1571130423,322.138,-50.1179,-16.4083,179.517,1.47217,-145.657,668
1571130423,322.138,-50.1179,-16.4083,179.517,1.47217,-145.657,668
1571130423,322.138,-50.1179,-16.4083,179.517,1.47217,-145.657,668
1571130423,322.138,-50.1179,-16.4083,179.517,1.47217,-145.657,668
1571130423,322.138,-50.1179,-16.4083,179.517,1.47217,-145.657,668
1571130423,322.138,-50.1179,-16.4083,179.517,1.47217,-145.657,668
1571130423,322.138,-50.1179,-16.4083,179.517,1.47217,-145.657,668
1571130423,322.138,-50.1179,-16.4083,179.517,1.4502,-145.657,668
1571130423,322.138,-50.1179,-16.4083,179.517,1.4502,-145.657,672
1571130423,322.138,-50.1179,-16.4083,179.539,1.4502,-145.657,672
1571130423,322.138,-50.1179,-16.4083,179.539,1.4502,-145.657,672
1571130423,322.138,-50.1179,-16.4083,179.539,1.4502,-145.657,672
1571130423,322.138,-50.1179,-16.4083,179.539,1.4502,-145.657,672
1571130423,322.138,-50.0062,-16.4083,179.539,1.4502,-145.657,672
1571130423,322.138,-50.0062,-16.4083,179.539,1.4502,-145.657,672
1571130423,322.138,-50.0062,-16.4083,179.539,1.4502,-145.657,668
1571130423,322.138,-50.0062,-16.4083,179.539,1.4502,-145.679,668
1571130423,322.138,-50.0062,-16.4083,179.539,1.4502,-145.679,668
1571130423,322.138,-50.0062,-16.4083,179.539,1.4502,-145.679,668
1571130423,322.138,-50.0062,-16.4083,179.539,1.4502,-145.679,668
1571130423,322.138,-50.0062,-16.4083,179.539,1.47217,-145.679,668
1571130423,322.138,-50.0062,-16.4083,179.539,1.47217,-145.679,668
1571130423,322.138,-50.0062,-16.4083,179.539,1.47217,-145.679,668
1571130423,322.138,-50.0062,-16.4083,179.539,1.47217,-145.679,668
1571130423,322.138,-50.0062,-16.4083,179.539,1.47217,-145.679,668
1571130423,322.138,-50.0062,-16.4083,179.539,1.47217,-145.679,668
1571130423,322.138,-50.0062,-16.4083,179.539,1.47217,-145.657,668
1571130423,322.138,-50.0062,-16.4083,179.539,1.47217,-145.657,668
1571130423,322.138,-50.0062,-16.4083,179.539,1.47217,-145.657,668
1571130423,322.138,-50.0062,-16.4083,179.539,1.47217,-145.657,668
1571130423,322.138,-50.0062,-16.4083,179.539,1.47217,-145.657,668
1571130423,322.138,-50.0062,-16.4083,179.539,1.47217,-145.657,668
1571130423,322.138,-50.0062,-16.4083,179.539,1.47217,-145.657,668
1571130423,322.138,-50.0062,-16.4083,179.539,1.47217,-145.657,668
1571130423,322.138,-50.0062,-16.4083,179.539,1.47217,-145.657,664
1571130423,322.138,-50.0062,-16.4083,179.561,1.47217,-145.657,664
1571130423,322.138,-50.0062,-16.4083,179.561,1.47217,-145.657,664
1571130423,322.138,-50.0062,-16.4083,179.561,1.47217,-145.657,664
1571130423,322.138,-50.0062,-16.4083,179.561,1.47217,-145.679,664
1571130423,322.138,-50.0062,-16.4083,179.561,1.47217,-145.679,664
1571130423,322.138,-50.0062,-16.4083,179.561,1.47217,-145.679,664
1571130423,322.138,-50.0062,-16.4083,179.561,1.47217,-145.679,664
1571130423,322.138,-50.0062,-16.4083,179.561,1.47217,-145.679,664
1571130423,322.138,-50.0062,-16.4083,179.561,1.47217,-145.679,664
1571130423,322.138,-50.0062,-16.4083,179.561,1.47217,-145.679,664
1571130423,322.138,-50.0062,-16.4083,179.561,1.47217,-145.679,664
1571130423,322.138,-50.0062,-16.4083,179.561,1.47217,-145.679,664
1571130423,322.138,-50.0062,-16.4083,179.561,1.4502,-145.679,664
1571130423,322.138,-50.0062,-16.4083,179.561,1.4502,-145.679,664
1571130423,322.138,-50.0062,-16.4083,179.561,1.4502,-145.679,664
1571130423,322.138,-50.0062,-16.5199,179.561,1.4502,-145.679,664
1571130423,322.138,-50.0062,-16.5199,179.561,1.4502,-145.679,664
1571130423,322.138,-50.0062,-16.5199,179.561,1.4502,-145.679,664
1571130423,322.138,-50.0062,-16.5199,179.561,1.4502,-145.679,664
1571130423,322.138,-50.0062,-16.5199,179.561,1.4502,-145.679,664
1571130423,322.138,-50.0062,-16.5199,179.561,1.4502,-145.679,668
1571130423,322.138,-50.0062,-16.5199,179.561,1.4502,-145.679,668
1571130423,322.138,-50.0062,-16.5199,179.561,1.4502,-145.679,668
1571130424,322.138,-50.0062,-16.5199,179.561,1.4502,-145.679,668
1571130424,322.138,-50.0062,-16.5199,179.561,1.4502,-145.679,668
1571130424,322.138,-50.0062,-16.5199,179.561,1.4502,-145.679,668
1571130424,322.138,-50.0062,-16.5199,179.561,1.4502,-145.679,668
1571130424,322.138,-50.0062,-16.5199,179.561,1.4502,-145.679,668
1571130424,322.138,-50.0062,-16.5199,179.561,1.4502,-145.679,672
1571130424,322.138,-50.0062,-16.5199,179.561,1.4502,-145.679,672
1571130424,322.138,-50.0062,-16.5199,179.561,1.4502,-145.679,672
1571130424,322.138,-50.0062,-16.5199,179.561,1.4502,-145.679,672
1571130424,322.138,-50.0062,-16.5199,179.561,1.4502,-145.679,672
1571130424,322.138,-50.0062,-16.5199,179.561,1.4502,-145.679,672
1571130424,322.138,-50.0062,-16.5199,179.561,1.4502,-145.679,676
1571130424,322.138,-50.0062,-16.5199,179.561,1.4502,-145.679,676
1571130424,322.138,-50.0062,-16.5199,179.561,1.4502,-145.679,676
1571130424,322.138,-50.0062,-16.5199,179.539,1.4502,-145.679,676
1571130424,322.138,-50.0062,-16.5199,179.539,1.4502,-145.679,676
1571130424,322.138,-50.0062,-16.5199,179.539,1.4502,-145.679,676
1571130424,322.138,-50.0062,-16.5199,179.539,1.4502,-145.679,680
1571130424,322.138,-50.0062,-16.5199,179.539,1.4502,-145.679,680
1571130424,322.138,-50.0062,-16.4083,179.539,1.47217,-145.679,680
1571130424,322.138,-50.0062,-16.4083,179.539,1.47217,-145.679,680
1571130424,322.138,-50.0062,-16.4083,179.539,1.47217,-145.679,680
1571130424,322.138,-50.0062,-16.4083,179.539,1.47217,-145.679,680
1571130424,322.138,-50.0062,-16.4083,179.539,1.4502,-145.679,680
1571130424,322.138,-50.0062,-16.4083,179.539,1.4502,-145.679,680
1571130424,322.138,-50.0062,-16.5199,179.539,1.4502,-145.679,680
1571130424,322.138,-50.0062,-16.5199,179.539,1.4502,-145.679,680
1571130424,322.138,-50.0062,-16.5199,179.539,1.4502,-145.679,680
1571130424,322.138,-50.0062,-16.5199,179.539,1.4502,-145.679,680
1571130424,322.138,-50.0062,-16.5199,179.539,1.4502,-145.679,680
1571130424,322.138,-50.0062,-16.5199,179.539,1.4502,-145.679,680
1571130424,322.027,-50.0062,-16.5199,179.539,1.4502,-145.679,680
1571130424,322.027,-50.0062,-16.5199,179.539,1.4502,-145.657,680
1571130424,322.027,-50.0062,-16.5199,179.539,1.4502,-145.657,680
1571130424,322.027,-50.0062,-16.5199,179.539,1.4502,-145.657,680
1571130424,322.027,-50.0062,-16.5199,179.539,1.4502,-145.657,680
1571130424,322.027,-50.0062,-16.5199,179.539,1.4502,-145.657,680
1571130424,322.027,-50.0062,-16.5199,179.539,1.4502,-145.657,680
1571130424,322.027,-50.0062,-16.5199,179.539,1.4502,-145.657,680
1571130424,322.027,-50.0062,-16.5199,179.539,1.4502,-145.657,680
1571130424,322.027,-50.0062,-16.5199,179.539,1.4502,-145.657,680
1571130424,322.027,-50.0062,-16.5199,179.539,1.4502,-145.657,680
1571130424,322.027,-50.0062,-16.5199,179.539,1.4502,-145.657,680
1571130424,322.027,-50.0062,-16.5199,179.539,1.4502,-145.657,680
1571130424,322.027,-50.0062,-16.5199,179.539,1.4502,-145.657,680
1571130424,322.027,-50.0062,-16.5199,179.539,1.4502,-145.657,680
1571130424,322.027,-50.0062,-16.5199,179.539,1.4502,-145.657,680
1571130424,322.138,-50.0062,-16.5199,179.539,1.4502,-145.657,680
1571130424,322.138,-50.0062,-16.5199,179.539,1.4502,-145.657,680
1571130424,322.138,-50.0062,-16.5199,179.539,1.4502,-145.657,680
1571130424,322.138,-50.0062,-16.5199,179.539,1.4502,-145.657,680
1571130424,322.138,-50.0062,-16.5199,179.539,1.4502,-145.657,680
1571130424,322.138,-50.0062,-16.5199,179.539,1.4502,-145.657,680
1571130424,322.138,-50.0062,-16.5199,179.539,1.4502,-145.657,680
1571130424,322.138,-50.0062,-16.5199,179.539,1.4502,-145.657,680
1571130424,322.138,-50.0062,-16.5199,179.517,1.4502,-145.657,680
1571130424,322.027,-50.1179,-16.5199,179.517,1.4502,-145.657,680
1571130424,322.027,-50.1179,-16.5199,179.517,1.4502,-145.657,680
1571130424,322.027,-50.1179,-16.4083,179.517,1.4502,-145.657,676
1571130424,322.027,-50.1179,-16.4083,179.517,1.4502,-145.657,676
1571130424,322.027,-50.1179,-16.4083,179.517,1.4502,-145.657,676
1571130424,322.027,-50.1179,-16.4083,179.517,1.4502,-145.657,676
1571130424,322.027,-50.1179,-16.5199,179.517,1.4502,-145.657,676
1571130424,322.027,-50.1179,-16.5199,179.517,1.4502,-145.657,676
1571130424,322.027,-50.1179,-16.5199,179.517,1.4502,-145.657,676
1571130424,322.027,-50.1179,-16.5199,179.517,1.4502,-145.657,676
1571130424,322.027,-50.1179,-16.5199,179.517,1.4502,-145.657,676
1571130424,322.027,-50.1179,-16.5199,179.517,1.4502,-145.657,676
1571130424,322.027,-50.1179,-16.5199,179.517,1.4502,-145.657,676
1571130424,322.027,-50.1179,-16.5199,179.517,1.4502,-145.657,676
1571130424,322.027,-50.1179,-16.5199,179.517,1.4502,-145.657,676
1571130424,322.027,-50.1179,-16.5199,179.517,1.4502,-145.657,676
1571130424,322.027,-50.1179,-16.5199,179.517,1.4502,-145.679,672
1571130424,322.138,-50.1179,-16.5199,179.517,1.4502,-145.679,672
1571130424,322.138,-50.1179,-16.5199,179.517,1.4502,-145.679,672
1571130424,322.138,-50.1179,-16.5199,179.517,1.4502,-145.657,672
1571130424,322.138,-50.1179,-16.5199,179.517,1.4502,-145.657,672
1571130424,322.138,-50.1179,-16.5199,179.517,1.4502,-145.657,672
1571130424,322.138,-50.1179,-16.5199,179.517,1.4502,-145.657,672
1571130424,322.138,-50.1179,-16.5199,179.517,1.4502,-145.657,672
1571130424,322.138,-50.1179,-16.5199,179.517,1.4502,-145.657,668
1571130424,322.138,-50.1179,-16.5199,179.517,1.4502,-145.657,668
1571130424,322.138,-50.1179,-16.5199,179.517,1.4502,-145.657,668
1571130424,322.138,-50.1179,-16.5199,179.517,1.4502,-145.657,668
1571130424,322.138,-50.1179,-16.5199,179.517,1.4502,-145.657,668
1571130424,322.138,-50.1179,-16.5199,179.517,1.4502,-145.657,668
1571130424,322.138,-50.1179,-16.5199,179.517,1.4502,-145.657,668
1571130424,322.138,-50.1179,-16.5199,179.517,1.47217,-145.657,664
1571130424,322.138,-50.1179,-16.5199,179.517,1.47217,-145.657,664
1571130424,322.138,-50.1179,-16.5199,179.517,1.47217,-145.657,664
1571130424,322.138,-50.1179,-16.5199,179.517,1.47217,-145.657,664
1571130424,322.138,-50.1179,-16.5199,179.517,1.47217,-145.657,664
1571130424,322.138,-50.1179,-16.5199,179.517,1.47217,-145.657,664
1571130424,322.138,-50.1179,-16.5199,179.517,1.47217,-145.657,664
1571130424,322.138,-50.1179,-16.5199,179.517,1.47217,-145.657,664
1571130424,322.138,-50.1179,-16.5199,179.517,1.47217,-145.657,664
1571130424,322.138,-50.1179,-16.5199,179.517,1.4502,-145.657,664
1571130424,322.138,-50.1179,-16.5199,179.517,1.4502,-145.657,664
1571130424,322.138,-50.1179,-16.5199,179.517,1.4502,-145.657,664
1571130424,322.138,-50.1179,-16.5199,179.517,1.4502,-145.657,668
1571130424,322.138,-50.1179,-16.5199,179.517,1.4502,-145.657,668
1571130425,322.138,-50.1179,-16.5199,179.517,1.4502,-145.657,668
1571130425,322.138,-50.1179,-16.5199,179.517,1.4502,-145.657,668
1571130425,322.138,-50.1179,-16.5199,179.517,1.4502,-145.657,668
1571130425,322.138,-50.1179,-16.5199,179.517,1.4502,-145.657,668
1571130425,322.138,-50.1179,-16.5199,179.517,1.4502,-145.657,668
1571130425,322.138,-50.1179,-16.5199,179.517,1.4502,-145.657,668
1571130425,322.138,-50.1179,-16.5199,179.517,1.4502,-145.657,668
1571130425,322.138,-50.1179,-16.5199,179.517,1.4502,-145.657,664
1571130425,322.138,-50.1179,-16.5199,179.517,1.4502,-145.657,664
1571130425,322.138,-50.1179,-16.5199,179.517,1.4502,-145.657,664
1571130425,322.138,-50.1179,-16.5199,179.517,1.4502,-145.657,664
1571130425,322.138,-50.1179,-16.5199,179.517,1.4502,-145.657,664
1571130425,322.138,-50.1179,-16.5199,179.517,1.4502,-145.657,664
1571130425,322.138,-50.1179,-16.5199,179.517,1.4502,-145.657,664
1571130425,322.138,-50.1179,-16.5199,179.517,1.4502,-145.657,664
1571130425,322.138,-50.1179,-16.5199,179.517,1.4502,-145.657,664
1571130425,322.138,-50.1179,-16.5199,179.517,1.4502,-145.657,664
1571130425,322.138,-50.1179,-16.5199,179.517,1.4502,-145.657,664
1571130425,322.138,-50.1179,-16.5199,179.517,1.4502,-145.657,664
1571130425,322.138,-50.1179,-16.5199,179.517,1.4502,-145.657,664
1571130425,322.138,-50.1179,-16.5199,179.517,1.4502,-145.657,664
1571130425,322.138,-50.1179,-16.5199,179.517,1.4502,-145.657,664
1571130425,322.138,-50.1179,-16.5199,179.517,1.4502,-145.657,664
1571130425,322.138,-50.1179,-16.5199,179.517,1.4502,-145.657,664
1571130425,322.138,-50.1179,-16.5199,179.517,1.4502,-145.657,664
1571130425,322.138,-50.1179,-16.5199,179.517,1.4502,-145.657,664
1571130425,322.138,-50.1179,-16.5199,179.517,1.4502,-145.657,664
1571130425,322.138,-50.1179,-16.5199,179.517,1.4502,-145.657,664
1571130425,322.138,-50.1179,-16.5199,179.517,1.4502,-145.657,664
1571130425,322.138,-50.1179,-16.5199,179.517,1.4502,-145.657,664
1571130425,322.138,-50.1179,-16.5199,179.517,1.4502,-145.657,660
1571130425,322.138,-50.1179,-16.4083,179.517,1.4502,-145.657,660
1571130425,322.138,-50.1179,-16.4083,179.517,1.4502,-145.657,660
1571130425,322.138,-50.1179,-16.4083,179.517,1.4502,-145.657,660
1571130425,322.138,-50.1179,-16.4083,179.517,1.4502,-145.657,660
1571130425,322.138,-50.1179,-16.4083,179.517,1.4502,-145.657,660
1571130425,322.138,-50.1179,-16.4083,179.539,1.4502,-145.657,660
1571130425,322.138,-50.1179,-16.4083,179.539,1.47217,-145.657,660
1571130425,322.138,-50.1179,-16.4083,179.539,1.47217,-145.657,660
1571130425,322.138,-50.1179,-16.4083,179.539,1.47217,-145.657,660
1571130425,322.138,-50.1179,-16.4083,179.539,1.47217,-145.657,660
1571130425,322.138,-50.1179,-16.4083,179.539,1.47217,-145.657,660
1571130425,322.138,-50.1179,-16.4083,179.539,1.47217,-145.657,660
1571130425,322.138,-50.1179,-16.4083,179.539,1.47217,-145.657,656
1571130425,322.138,-50.1179,-16.4083,179.539,1.47217,-145.657,656
1571130425,322.138,-50.1179,-16.4083,179.539,1.47217,-145.657,656
1571130425,322.138,-50.1179,-16.4083,179.539,1.47217,-145.657,656
1571130425,322.138,-50.1179,-16.4083,179.539,1.47217,-145.657,656
1571130425,322.138,-50.1179,-16.4083,179.539,1.47217,-145.657,656
1571130425,322.138,-50.1179,-16.4083,179.539,1.47217,-145.657,656
1571130425,322.138,-50.1179,-16.4083,179.539,1.47217,-145.657,656
1571130425,322.138,-50.1179,-16.4083,179.539,1.47217,-145.657,656
1571130425,322.138,-50.1179,-16.4083,179.539,1.47217,-145.657,656
1571130425,322.138,-50.1179,-16.4083,179.539,1.47217,-145.657,656
1571130425,322.138,-50.1179,-16.4083,179.539,1.47217,-145.657,656
1571130425,322.138,-50.1179,-16.4083,179.539,1.47217,-145.657,656
1571130425,322.138,-50.1179,-16.4083,179.539,1.4502,-145.657,656
1571130425,322.138,-50.1179,-16.4083,179.539,1.4502,-145.657,656
1571130425,322.138,-50.1179,-16.4083,179.539,1.4502,-145.657,656
1571130425,322.138,-50.0062,-16.4083,179.539,1.4502,-145.657,656
1571130425,322.138,-50.0062,-16.4083,179.539,1.4502,-145.657,656
1571130425,322.138,-50.0062,-16.4083,179.539,1.4502,-145.657,656
1571130425,322.138,-50.0062,-16.4083,179.539,1.4502,-145.657,656
1571130425,322.138,-50.0062,-16.4083,179.539,1.4502,-145.657,656
1571130425,322.138,-50.0062,-16.4083,179.539,1.47217,-145.657,656
1571130425,322.138,-50.0062,-16.4083,179.539,1.47217,-145.657,656
1571130425,322.138,-50.0062,-16.4083,179.539,1.47217,-145.657,656
1571130425,322.138,-50.0062,-16.4083,179.539,1.47217,-145.657,656
1571130425,322.138,-50.0062,-16.4083,179.539,1.47217,-145.657,656
1571130425,322.138,-50.0062,-16.4083,179.539,1.47217,-145.657,656
1571130425,322.138,-50.0062,-16.4083,179.539,1.47217,-145.657,656
1571130425,322.138,-50.0062,-16.4083,179.539,1.47217,-145.657,656
1571130425,322.138,-50.0062,-16.4083,179.539,1.47217,-145.657,656
1571130425,322.138,-50.0062,-16.4083,179.539,1.47217,-145.657,656
1571130425,322.138,-50.0062,-16.4083,179.539,1.47217,-145.657,656
1571130425,322.138,-50.0062,-16.4083,179.539,1.47217,-145.657,656
1571130425,322.138,-50.0062,-16.4083,179.539,1.47217,-145.657,656
1571130425,322.138,-50.0062,-16.4083,179.539,1.4502,-145.657,656
1571130425,322.138,-50.0062,-16.4083,179.561,1.4502,-145.657,656
1571130425,322.138,-50.0062,-16.4083,179.561,1.4502,-145.657,656
1571130425,322.138,-50.0062,-16.4083,179.561,1.4502,-145.657,652
1571130425,322.138,-50.0062,-16.4083,179.561,1.4502,-145.657,652
1571130425,322.138,-50.0062,-16.4083,179.561,1.4502,-145.657,652
1571130425,322.138,-50.0062,-16.4083,179.539,1.4502,-145.657,652
1571130425,322.138,-50.0062,-16.4083,179.539,1.4502,-145.657,656
1571130425,322.138,-50.0062,-16.4083,179.539,1.4502,-145.657,656
1571130425,322.138,-50.0062,-16.4083,179.539,1.4502,-145.657,656
1571130425,322.138,-50.0062,-16.4083,179.539,1.4502,-145.657,656
1571130425,322.138,-50.0062,-16.4083,179.539,1.4502,-145.657,656
1571130425,322.138,-50.0062,-16.4083,179.539,1.4502,-145.657,656
1571130425,322.138,-50.0062,-16.5199,179.539,1.4502,-145.657,656
1571130425,322.138,-50.0062,-16.5199,179.539,1.4502,-145.657,656
1571130425,322.138,-50.0062,-16.5199,179.539,1.4502,-145.657,660
1571130425,322.138,-50.0062,-16.5199,179.539,1.4502,-145.657,660
1571130425,322.138,-50.0062,-16.5199,179.539,1.4502,-145.657,660
1571130425,322.138,-50.0062,-16.5199,179.539,1.4502,-145.657,660
1571130425,322.138,-50.0062,-16.5199,179.539,1.4502,-145.657,660
1571130425,322.138,-50.0062,-16.5199,179.539,1.4502,-145.657,664
1571130425,322.138,-50.0062,-16.4083,179.539,1.4502,-145.657,664
1571130425,322.138,-50.0062,-16.4083,179.539,1.4502,-145.657,664
1571130426,322.138,-50.0062,-16.4083,179.539,1.4502,-145.657,664
1571130426,322.138,-50.0062,-16.4083,179.539,1.4502,-145.635,664
1571130426,322.138,-50.0062,-16.4083,179.539,1.4502,-145.635,664
1571130426,322.138,-50.0062,-16.4083,179.539,1.47217,-145.635,664
1571130426,322.138,-50.0062,-16.4083,179.539,1.47217,-145.635,664
1571130426,322.138,-50.1179,-16.4083,179.539,1.47217,-145.635,664
1571130426,322.138,-50.1179,-16.4083,179.539,1.47217,-145.635,664
1571130426,322.138,-50.1179,-16.4083,179.539,1.4502,-145.635,664
1571130426,322.138,-50.1179,-16.4083,179.539,1.4502,-145.635,664
1571130426,322.138,-50.1179,-16.4083,179.539,1.4502,-145.635,664
1571130426,322.138,-50.1179,-16.4083,179.539,1.4502,-145.657,664
1571130426,322.138,-50.1179,-16.4083,179.539,1.4502,-145.657,664
1571130426,322.138,-50.1179,-16.5199,179.539,1.4502,-145.657,664
1571130426,322.138,-50.1179,-16.5199,179.539,1.4502,-145.657,664
1571130426,322.138,-50.1179,-16.5199,179.539,1.4502,-145.657,664
1571130426,322.138,-50.1179,-16.5199,179.539,1.4502,-145.657,664
1571130426,322.138,-50.1179,-16.5199,179.539,1.4502,-145.657,660
1571130426,322.138,-50.1179,-16.5199,179.539,1.4502,-145.657,660
1571130426,322.138,-50.1179,-16.5199,179.539,1.4502,-145.657,660
1571130426,322.138,-50.1179,-16.5199,179.539,1.4502,-145.657,660
1571130426,322.138,-50.1179,-16.5199,179.539,1.4502,-145.657,660
1571130426,322.138,-50.1179,-16.5199,179.539,1.4502,-145.657,660
1571130426,322.138,-50.1179,-16.5199,179.539,1.4502,-145.657,660
1571130426,322.138,-50.1179,-16.5199,179.539,1.4502,-145.657,660
1571130426,322.138,-50.1179,-16.5199,179.539,1.4502,-145.657,660
1571130426,322.138,-50.1179,-16.5199,179.539,1.4502,-145.657,660
1571130426,322.138,-50.1179,-16.5199,179.539,1.4502,-145.657,660
1571130426,322.138,-50.1179,-16.5199,179.539,1.4502,-145.657,660
1571130426,322.138,-50.1179,-16.5199,179.539,1.4502,-145.657,660
1571130426,322.138,-50.1179,-16.5199,179.539,1.4502,-145.657,660
1571130426,322.138,-50.1179,-16.5199,179.539,1.4502,-145.657,660
1571130426,322.138,-50.0062,-16.5199,179.539,1.4502,-145.657,660
1571130426,322.138,-50.0062,-16.5199,179.539,1.4502,-145.657,660
1571130426,322.138,-50.0062,-16.5199,179.539,1.4502,-145.657,660
1571130426,322.138,-50.0062,-16.5199,179.539,1.4502,-145.657,660
1571130426,322.138,-50.0062,-16.5199,179.539,1.4502,-145.657,660
1571130426,322.138,-50.0062,-16.5199,179.539,1.4502,-145.657,664
1571130426,322.138,-50.0062,-16.5199,179.539,1.4502,-145.657,664
1571130426,322.138,-50.0062,-16.5199,179.539,1.4502,-145.657,664
1571130426,322.138,-50.0062,-16.5199,179.539,1.4502,-145.657,664
1571130426,322.138,-50.0062,-16.5199,179.539,1.4502,-145.657,664
1571130426,322.138,-50.0062,-16.5199,179.539,1.4502,-145.657,664
1571130426,322.138,-50.0062,-16.5199,179.539,1.4502,-145.657,664
1571130426,322.138,-50.0062,-16.5199,179.539,1.4502,-145.657,668
1571130426,322.138,-50.0062,-16.5199,179.539,1.4502,-145.657,668
1571130426,322.138,-50.0062,-16.5199,179.539,1.4502,-145.657,668
1571130426,322.138,-50.0062,-16.5199,179.539,1.4502,-145.657,668
1571130426,322.138,-50.0062,-16.5199,179.539,1.4502,-145.657,668
