time,x,y,z,ax,ay,az,q
1570004059,303.386,100.571,-17.4129,178.967,1.3623,-145.151,312
1570004059,303.386,100.571,-17.4129,178.967,1.3623,-145.151,312
1570004059,303.386,100.571,-17.4129,178.967,1.3623,-145.151,312
1570004059,303.386,100.571,-17.4129,178.967,1.3623,-145.151,308
1570004059,303.386,100.571,-17.4129,178.967,1.3623,-145.151,308
1570004059,303.386,100.571,-17.4129,178.967,1.3623,-145.151,308
1570004059,303.386,100.571,-17.4129,178.967,1.3623,-145.151,308
1570004059,303.386,100.571,-17.4129,178.967,1.3623,-145.151,308
1570004059,303.386,100.571,-17.4129,178.967,1.3623,-145.151,308
1570004059,303.386,100.571,-17.4129,178.967,1.3623,-145.151,308
1570004059,303.386,100.571,-17.4129,178.967,1.3623,-145.151,308
1570004059,303.386,100.571,-17.4129,178.967,1.3623,-145.151,304
1570004059,303.386,100.571,-17.4129,178.967,1.3623,-145.151,304
1570004059,303.386,100.571,-17.4129,178.967,1.3623,-145.151,304
1570004059,303.386,100.571,-17.4129,178.967,1.3623,-145.151,304
1570004059,303.386,100.571,-17.4129,178.967,1.3623,-145.151,304
1570004059,303.386,100.571,-17.4129,178.967,1.3623,-145.151,304
1570004059,303.386,100.571,-17.4129,178.967,1.3623,-145.151,304
1570004059,303.386,100.571,-17.4129,178.967,1.3623,-145.151,304
1570004059,303.386,100.571,-17.4129,178.967,1.3623,-145.151,304
1570004059,303.386,100.571,-17.4129,178.967,1.3623,-145.173,304
1570004059,303.386,100.571,-17.4129,178.967,1.3623,-145.173,304
1570004059,303.386,100.571,-17.4129,178.967,1.3623,-145.173,304
1570004059,303.386,100.571,-17.4129,178.967,1.3623,-145.173,304
1570004059,303.386,100.571,-17.4129,178.967,1.3623,-145.173,304
1570004059,303.386,100.571,-17.4129,178.967,1.3623,-145.173,304
1570004059,303.386,100.571,-17.4129,178.967,1.3623,-145.173,304
1570004059,303.386,100.571,-17.4129,178.967,1.3623,-145.173,304
1570004059,303.386,100.571,-17.4129,178.967,1.3623,-145.173,304
1570004059,303.386,100.571,-17.4129,178.967,1.3623,-145.173,300
1570004059,303.386,100.571,-17.4129,178.967,1.3623,-145.173,300
1570004059,303.386,100.571,-17.4129,178.967,1.3623,-145.173,300
1570004059,303.386,100.571,-17.4129,178.967,1.3623,-145.173,300
1570004059,303.386,100.571,-17.4129,178.967,1.3623,-145.173,300
1570004059,303.386,100.571,-17.4129,178.967,1.3623,-145.173,300
1570004059,303.386,100.571,-17.4129,178.967,1.3623,-145.173,300
1570004059,303.386,100.571,-17.4129,178.967,1.3623,-145.173,300
1570004059,303.386,100.571,-17.4129,178.967,1.3623,-145.173,300
1570004059,303.386,100.571,-17.4129,178.967,1.3623,-145.173,300
1570004059,303.386,100.571,-17.4129,178.967,1.3623,-145.173,304
1570004059,303.386,100.571,-17.4129,178.967,1.3623,-145.173,304
1570004059,303.386,100.571,-17.4129,178.967,1.3623,-145.173,304
1570004059,303.386,100.571,-17.4129,178.967,1.3623,-145.173,304
1570004059,303.386,100.571,-17.4129,178.967,1.3623,-145.173,304
1570004059,303.386,100.571,-17.4129,178.967,1.3623,-145.173,304
1570004059,303.386,100.571,-17.4129,178.967,1.3623,-145.173,304
1570004059,303.386,100.571,-17.4129,178.967,1.3623,-145.173,304
1570004059,303.386,100.571,-17.4129,178.967,1.3623,-145.173,304
1570004059,303.386,100.571,-17.4129,178.967,1.3623,-145.173,304
1570004059,303.386,100.571,-17.4129,178.967,1.3623,-145.173,304
1570004059,303.386,100.571,-17.4129,178.967,1.3623,-145.173,304
1570004059,303.386,100.571,-17.4129,178.967,1.3623,-145.173,308
1570004059,303.275,100.571,-17.4129,178.967,1.3623,-145.173,308
1570004059,303.275,100.571,-17.4129,178.967,1.3623,-145.173,308
1570004059,303.275,100.571,-17.4129,178.989,1.3623,-145.173,308
1570004059,303.275,100.571,-17.4129,178.989,1.3623,-145.173,308
1570004059,303.275,100.571,-17.4129,178.989,1.3623,-145.173,308
1570004059,303.275,100.571,-17.4129,178.989,1.3623,-145.173,308
1570004059,303.275,100.571,-17.4129,178.989,1.3623,-145.151,308
1570004059,303.275,100.571,-17.4129,178.989,1.3623,-145.151,308
1570004059,303.275,100.571,-17.4129,178.989,1.3623,-145.151,312
1570004059,303.275,100.571,-17.4129,178.989,1.3623,-145.151,312
1570004059,303.275,100.571,-17.4129,178.989,1.3623,-145.151,312
1570004059,303.275,100.571,-17.4129,178.989,1.3623,-145.151,312
1570004059,303.275,100.571,-17.4129,178.989,1.3623,-145.151,312
1570004059,303.275,100.571,-17.4129,178.989,1.3623,-145.151,312
1570004059,303.275,100.571,-17.4129,178.989,1.3623,-145.151,312
1570004059,303.386,100.571,-17.4129,178.967,1.38428,-145.151,312
1570004059,303.386,100.571,-17.3013,178.967,1.38428,-145.173,312
1570004059,303.386,100.571,-17.3013,178.967,1.38428,-145.173,312
1570004059,303.386,100.571,-17.3013,178.967,1.38428,-145.173,312
1570004059,303.386,100.571,-17.3013,178.967,1.38428,-145.173,312
1570004059,303.386,100.571,-17.3013,178.967,1.38428,-145.173,316
1570004059,303.386,100.571,-17.3013,178.967,1.38428,-145.173,316
1570004059,303.275,100.571,-17.3013,178.967,1.38428,-145.173,316
1570004059,303.386,100.571,-17.3013,178.967,1.38428,-145.173,316
1570004059,303.386,100.571,-17.3013,178.967,1.38428,-145.173,316
1570004059,303.386,100.571,-17.3013,178.989,1.38428,-145.173,316
1570004059,303.386,100.571,-17.3013,178.989,1.38428,-145.173,316
1570004060,303.386,100.571,-17.3013,178.989,1.38428,-145.173,316
1570004060,303.386,100.571,-17.3013,178.989,1.38428,-145.173,312
1570004060,303.386,100.571,-17.3013,178.989,1.38428,-145.173,312
1570004060,303.386,100.571,-17.3013,178.989,1.38428,-145.173,312
1570004060,303.386,100.571,-17.3013,178.989,1.38428,-145.173,312
1570004060,303.386,100.571,-17.3013,178.989,1.38428,-145.173,312
1570004060,303.386,100.571,-17.3013,178.989,1.38428,-145.173,312
1570004060,303.386,100.571,-17.3013,178.989,1.38428,-145.173,312
1570004060,303.386,100.571,-17.3013,178.989,1.38428,-145.173,312
1570004060,303.386,100.571,-17.3013,178.989,1.38428,-145.173,312
1570004060,303.386,100.571,-17.3013,178.989,1.38428,-145.173,308
1570004060,303.386,100.571,-17.3013,178.989,1.38428,-145.173,308
1570004060,303.386,100.571,-17.3013,178.989,1.38428,-145.173,308
1570004060,303.386,100.571,-17.3013,178.967,1.38428,-145.151,308
1570004060,303.386,100.571,-17.3013,178.967,1.38428,-145.151,308
1570004060,303.386,100.571,-17.4129,178.967,1.3623,-145.151,308
1570004060,303.386,100.571,-17.4129,178.967,1.3623,-145.173,308
1570004060,303.386,100.571,-17.4129,178.967,1.3623,-145.173,308
1570004060,303.386,100.571,-17.4129,178.967,1.3623,-145.173,308
1570004060,303.386,100.571,-17.4129,178.967,1.3623,-145.173,308
1570004060,303.386,100.571,-17.4129,178.967,1.3623,-145.173,308
1570004060,303.386,100.571,-17.4129,178.967,1.3623,-145.173,308
1570004060,303.386,100.571,-17.3013,178.967,1.3623,-145.173,308
1570004060,303.386,100.571,-17.3013,178.967,1.38428,-145.173,308
1570004060,303.386,100.571,-17.3013,178.967,1.38428,-145.173,308
1570004060,303.386,100.571,-17.3013,178.967,1.38428,-145.173,308
1570004060,303.386,100.571,-17.3013,178.967,1.38428,-145.173,308
1570004060,303.386,100.571,-17.3013,178.967,1.38428,-145.173,308
1570004060,303.386,100.571,-17.3013,178.967,1.38428,-145.173,312
1570004060,303.386,100.571,-17.3013,178.967,1.38428,-145.173,312
1570004060,303.386,100.571,-17.3013,178.967,1.38428,-145.173,312
1570004060,303.386,100.571,-17.3013,178.967,1.38428,-145.173,312
1570004060,303.386,100.571,-17.3013,178.967,1.38428,-145.173,312
1570004060,303.386,100.571,-17.3013,178.967,1.38428,-145.173,312
1570004060,303.386,100.571,-17.3013,178.967,1.38428,-145.173,312
1570004060,303.386,100.571,-17.3013,178.967,1.38428,-145.173,312
1570004060,303.386,100.571,-17.3013,178.967,1.38428,-145.173,312
1570004060,303.386,100.571,-17.3013,178.967,1.38428,-145.173,312
1570004060,303.386,100.571,-17.3013,178.967,1.38428,-145.173,312
1570004060,303.386,100.571,-17.3013,178.967,1.38428,-145.173,312
1570004060,303.386,100.571,-17.3013,178.967,1.38428,-145.173,312
1570004060,303.386,100.571,-17.3013,178.967,1.38428,-145.173,312
1570004060,303.386,100.571,-17.3013,178.967,1.38428,-145.173,312
1570004060,303.386,100.571,-17.3013,178.967,1.38428,-145.173,312
1570004060,303.386,100.571,-17.3013,178.967,1.3623,-145.173,312
1570004060,303.386,100.571,-17.3013,178.967,1.3623,-145.173,312
1570004060,303.386,100.571,-17.3013,178.967,1.3623,-145.173,312
1570004060,303.386,100.571,-17.3013,178.967,1.38428,-145.173,312
1570004060,303.386,100.571,-17.3013,178.967,1.38428,-145.173,312
1570004060,303.386,100.571,-17.3013,178.967,1.38428,-145.173,312
1570004060,303.386,100.571,-17.3013,178.945,1.38428,-145.173,312
1570004060,303.386,100.571,-17.3013,178.945,1.38428,-145.173,312
1570004060,303.386,100.571,-17.3013,178.945,1.38428,-145.173,312
1570004060,303.386,100.571,-17.3013,178.945,1.38428,-145.173,312
1570004060,303.386,100.571,-17.3013,178.945,1.38428,-145.173,312
1570004060,303.386,100.571,-17.3013,178.945,1.38428,-145.173,312
1570004060,303.386,100.571,-17.3013,178.945,1.38428,-145.173,312
1570004060,303.386,100.571,-17.3013,178.945,1.38428,-145.173,312
1570004060,303.386,100.571,-17.3013,178.945,1.38428,-145.173,312
1570004060,303.386,100.571,-17.3013,178.945,1.38428,-145.173,312
1570004060,303.386,100.571,-17.3013,178.945,1.38428,-145.173,312
1570004060,303.386,100.571,-17.3013,178.945,1.38428,-145.173,312
1570004060,303.386,100.571,-17.3013,178.967,1.38428,-145.173,312
1570004060,303.386,100.571,-17.3013,178.967,1.38428,-145.173,312
1570004060,303.386,100.571,-17.3013,178.967,1.38428,-145.173,312
1570004060,303.386,100.571,-17.3013,178.967,1.38428,-145.173,312
1570004060,303.386,100.571,-17.3013,178.967,1.38428,-145.173,312
1570004060,303.386,100.571,-17.3013,178.967,1.38428,-145.173,312
1570004060,303.386,100.571,-17.3013,178.967,1.40625,-145.173,312
1570004060,303.386,100.571,-17.3013,178.967,1.40625,-145.173,312
1570004060,303.386,100.571,-17.3013,178.967,1.40625,-145.173,312
1570004060,303.386,100.571,-17.3013,178.967,1.40625,-145.173,312
1570004060,303.386,100.571,-17.3013,178.967,1.40625,-145.173,312
1570004060,303.386,100.571,-17.3013,178.967,1.40625,-145.173,312
1570004060,303.386,100.571,-17.3013,178.967,1.40625,-145.173,312
1570004060,303.386,100.571,-17.3013,178.967,1.40625,-145.173,316
1570004060,303.386,100.571,-17.3013,178.967,1.40625,-145.173,316
1570004060,303.386,100.571,-17.3013,178.967,1.40625,-145.173,316
1570004060,303.386,100.571,-17.3013,178.967,1.40625,-145.173,316
1570004060,303.386,100.571,-17.3013,178.967,1.40625,-145.173,316
1570004060,303.386,100.571,-17.3013,178.967,1.40625,-145.173,316
1570004060,303.386,100.571,-17.3013,178.967,1.40625,-145.173,316
1570004060,303.386,100.571,-17.3013,178.967,1.40625,-145.173,316
1570004060,303.275,100.571,-17.3013,178.967,1.40625,-145.173,316
1570004060,303.275,100.571,-17.3013,178.967,1.40625,-145.173,316
1570004060,303.275,100.571,-17.3013,178.967,1.38428,-145.173,316
1570004060,303.275,100.571,-17.3013,178.967,1.38428,-145.173,316
1570004060,303.275,100.571,-17.3013,178.989,1.38428,-145.173,316
1570004060,303.275,100.571,-17.3013,178.989,1.38428,-145.173,316
1570004060,303.275,100.571,-17.3013,178.989,1.38428,-145.173,316
1570004060,303.275,100.571,-17.3013,178.989,1.38428,-145.173,316
1570004060,303.275,100.571,-17.3013,178.989,1.38428,-145.173,316
1570004060,303.275,100.571,-17.3013,178.989,1.38428,-145.173,316
1570004060,303.275,100.571,-17.3013,178.989,1.38428,-145.173,316
1570004060,303.275,100.571,-17.3013,178.989,1.38428,-145.173,316
1570004060,303.275,100.571,-17.3013,178.989,1.38428,-145.173,316
1570004060,303.275,100.571,-17.3013,178.989,1.38428,-145.173,316
1570004060,303.275,100.571,-17.3013,178.989,1.38428,-145.173,316
1570004060,303.275,100.571,-17.3013,178.989,1.38428,-145.173,316
1570004060,303.275,100.571,-17.3013,178.989,1.38428,-145.173,316
1570004061,303.275,100.571,-17.3013,178.989,1.38428,-145.173,316
1570004061,303.275,100.571,-17.3013,178.989,1.38428,-145.173,316
1570004061,303.275,100.571,-17.3013,178.989,1.38428,-145.173,316
1570004061,303.275,100.571,-17.3013,178.989,1.38428,-145.173,316
1570004061,303.275,100.571,-17.3013,178.967,1.38428,-145.173,320
1570004061,303.275,100.571,-17.3013,178.967,1.38428,-145.173,320
1570004061,303.275,100.571,-17.3013,178.967,1.38428,-145.173,320
1570004061,303.275,100.571,-17.3013,178.967,1.38428,-145.173,320
1570004061,303.275,100.571,-17.3013,178.967,1.38428,-145.173,320
1570004061,303.275,100.571,-17.3013,178.967,1.38428,-145.173,320
1570004061,303.275,100.571,-17.3013,178.967,1.38428,-145.173,320
1570004061,303.275,100.571,-17.3013,178.967,1.38428,-145.173,320
1570004061,303.275,100.571,-17.3013,178.967,1.38428,-145.173,320
1570004061,303.386,100.571,-17.3013,178.967,1.38428,-145.173,324
1570004061,303.386,100.571,-17.3013,178.967,1.38428,-145.173,324
1570004061,303.386,100.571,-17.3013,178.967,1.38428,-145.173,324
1570004061,303.386,100.571,-17.3013,178.967,1.38428,-145.173,324
1570004061,303.386,100.571,-17.3013,178.967,1.38428,-145.173,324
1570004061,303.386,100.571,-17.3013,178.967,1.38428,-145.173,324
1570004061,303.386,100.571,-17.3013,178.967,1.38428,-145.173,324
1570004061,303.386,100.571,-17.3013,178.967,1.38428,-145.173,320
1570004061,303.386,100.571,-17.3013,178.967,1.38428,-145.173,320
1570004061,303.386,100.571,-17.3013,178.967,1.38428,-145.173,320
1570004061,303.386,100.571,-17.3013,178.967,1.38428,-145.173,320
1570004061,303.386,100.571,-17.3013,178.967,1.38428,-145.173,320
1570004061,303.386,100.571,-17.3013,178.967,1.38428,-145.173,320
1570004061,303.386,100.571,-17.3013,178.967,1.38428,-145.173,320
1570004061,303.386,100.571,-17.3013,178.967,1.38428,-145.173,316
1570004061,303.386,100.571,-17.3013,178.967,1.38428,-145.173,316
1570004061,303.386,100.571,-17.3013,178.945,1.38428,-145.173,316
1570004061,303.386,100.571,-17.3013,178.945,1.38428,-145.173,316
1570004061,303.386,100.571,-17.3013,178.945,1.38428,-145.173,316
1570004061,303.386,100.571,-17.3013,178.945,1.38428,-145.173,316
1570004061,303.386,100.571,-17.3013,178.945,1.38428,-145.173,316
1570004061,303.386,100.571,-17.3013,178.945,1.38428,-145.173,312
1570004061,303.386,100.571,-17.3013,178.945,1.38428,-145.173,312
1570004061,303.386,100.571,-17.3013,178.945,1.38428,-145.173,312
1570004061,303.386,100.571,-17.3013,178.967,1.3623,-145.173,312
1570004061,303.386,100.571,-17.3013,178.967,1.3623,-145.173,312
1570004061,303.386,100.571,-17.4129,178.967,1.3623,-145.173,312
1570004061,303.386,100.571,-17.4129,178.967,1.3623,-145.173,312
1570004061,303.386,100.571,-17.4129,178.967,1.3623,-145.173,312
1570004061,303.386,100.571,-17.4129,178.967,1.3623,-145.173,312
1570004061,303.386,100.571,-17.4129,178.967,1.3623,-145.173,312
1570004061,303.386,100.571,-17.4129,178.967,1.3623,-145.173,312
1570004061,303.386,100.571,-17.4129,178.967,1.3623,-145.173,312
1570004061,303.386,100.571,-17.4129,178.967,1.3623,-145.173,312
1570004061,303.386,100.571,-17.4129,178.967,1.3623,-145.173,312
1570004061,303.386,100.571,-17.4129,178.967,1.3623,-145.173,312
1570004061,303.386,100.571,-17.4129,178.967,1.3623,-145.173,312
1570004061,303.386,100.571,-17.4129,178.967,1.3623,-145.173,312
1570004061,303.386,100.571,-17.4129,178.967,1.3623,-145.173,308
1570004061,303.386,100.571,-17.4129,178.967,1.3623,-145.173,308
1570004061,303.386,100.571,-17.4129,178.967,1.3623,-145.173,308
1570004061,303.386,100.571,-17.4129,178.967,1.3623,-145.173,308
1570004061,303.386,100.571,-17.4129,178.967,1.3623,-145.173,308
1570004061,303.386,100.571,-17.4129,178.967,1.3623,-145.173,308
1570004061,303.386,100.571,-17.4129,178.967,1.3623,-145.173,308
1570004061,303.386,100.571,-17.4129,178.967,1.3623,-145.173,308
1570004061,303.386,100.571,-17.4129,178.967,1.3623,-145.173,308
1570004061,303.386,100.571,-17.4129,178.967,1.3623,-145.173,308
1570004061,303.386,100.571,-17.4129,178.967,1.3623,-145.173,308
1570004061,303.386,100.571,-17.4129,178.967,1.3623,-145.173,308
1570004061,303.386,100.571,-17.3013,178.967,1.3623,-145.173,308
1570004061,303.386,100.571,-17.3013,178.967,1.3623,-145.173,304
1570004061,303.386,100.571,-17.3013,178.967,1.38428,-145.173,304
1570004061,303.386,100.571,-17.3013,178.967,1.38428,-145.173,304
1570004061,303.386,100.571,-17.3013,178.989,1.38428,-145.173,304
1570004061,303.386,100.571,-17.3013,178.989,1.38428,-145.173,304
1570004061,303.386,100.571,-17.3013,178.989,1.38428,-145.173,304
1570004061,303.386,100.571,-17.3013,178.989,1.38428,-145.173,304
1570004061,303.386,100.571,-17.3013,178.989,1.38428,-145.173,300
1570004061,303.386,100.571,-17.3013,178.989,1.38428,-145.173,300
1570004061,303.386,100.571,-17.3013,178.967,1.38428,-145.173,300
1570004061,303.386,100.571,-17.3013,178.967,1.38428,-145.173,300
1570004061,303.386,100.571,-17.3013,178.967,1.38428,-145.173,300
1570004061,303.386,100.571,-17.3013,178.967,1.38428,-145.173,300
1570004061,303.386,100.571,-17.3013,178.967,1.38428,-145.173,300
1570004061,303.386,100.571,-17.3013,178.967,1.38428,-145.173,300
1570004061,303.386,100.571,-17.3013,178.967,1.38428,-145.173,304
1570004061,303.386,100.571,-17.3013,178.967,1.38428,-145.173,304
1570004061,303.386,100.571,-17.3013,178.967,1.38428,-145.173,304
1570004061,303.386,100.571,-17.3013,178.967,1.38428,-145.173,304
1570004061,303.386,100.571,-17.3013,178.967,1.38428,-145.173,304
1570004061,303.386,100.571,-17.3013,178.967,1.38428,-145.173,304
1570004061,303.386,100.571,-17.3013,178.967,1.38428,-145.173,304
1570004061,303.386,100.571,-17.3013,178.967,1.38428,-145.173,304
1570004061,303.386,100.571,-17.3013,178.967,1.38428,-145.173,304
1570004061,303.386,100.571,-17.4129,178.967,1.3623,-145.173,304
1570004061,303.386,100.571,-17.4129,178.967,1.3623,-145.173,304
1570004061,303.386,100.571,-17.4129,178.967,1.3623,-145.173,304
1570004061,303.386,100.571,-17.4129,178.967,1.3623,-145.173,304
1570004061,303.386,100.571,-17.4129,178.967,1.3623,-145.173,304
1570004061,303.386,100.571,-17.3013,178.967,1.3623,-145.173,304
1570004061,303.386,100.571,-17.3013,178.967,1.38428,-145.173,304
1570004061,303.386,100.571,-17.3013,178.967,1.38428,-145.173,304
1570004061,303.386,100.571,-17.3013,178.967,1.38428,-145.173,304
1570004061,303.386,100.571,-17.3013,178.967,1.38428,-145.173,304
1570004061,303.386,100.571,-17.3013,178.967,1.38428,-145.173,304
1570004061,303.386,100.571,-17.3013,178.967,1.38428,-145.173,304
1570004062,303.386,100.571,-17.3013,178.967,1.38428,-145.173,304
1570004062,303.386,100.571,-17.3013,178.967,1.38428,-145.173,304
1570004062,303.386,100.571,-17.3013,178.967,1.38428,-145.173,304
1570004062,303.386,100.571,-17.3013,178.967,1.38428,-145.173,304
1570004062,303.386,100.571,-17.3013,178.967,1.38428,-145.173,304
1570004062,303.386,100.571,-17.3013,178.967,1.38428,-145.173,304
1570004062,303.386,100.571,-17.3013,178.967,1.38428,-145.173,304
1570004062,303.386,100.571,-17.3013,178.967,1.38428,-145.173,304
1570004062,303.386,100.571,-17.3013,178.967,1.3623,-145.173,304
1570004062,303.386,100.571,-17.3013,178.967,1.3623,-145.173,304
1570004062,303.386,100.571,-17.3013,178.967,1.3623,-145.173,304
1570004062,303.386,100.571,-17.3013,178.967,1.3623,-145.173,304
1570004062,303.386,100.571,-17.3013,178.967,1.3623,-145.173,304
1570004062,303.386,100.571,-17.3013,178.967,1.3623,-145.173,304
1570004062,303.386,100.571,-17.3013,178.967,1.38428,-145.173,304
1570004062,303.386,100.571,-17.3013,178.967,1.38428,-145.173,304
1570004062,303.386,100.571,-17.3013,178.967,1.38428,-145.173,304
1570004062,303.386,100.571,-17.3013,178.967,1.38428,-145.173,304
1570004062,303.386,100.571,-17.3013,178.967,1.38428,-145.173,304
1570004062,303.386,100.571,-17.3013,178.967,1.38428,-145.173,304
1570004062,303.386,100.571,-17.3013,178.967,1.38428,-145.173,304
1570004062,303.386,100.571,-17.3013,178.967,1.38428,-145.173,304
1570004062,303.386,100.571,-17.3013,178.967,1.38428,-145.173,304
1570004062,303.386,100.571,-17.3013,178.967,1.38428,-145.173,304
1570004062,303.386,100.571,-17.3013,178.967,1.38428,-145.173,304
1570004062,303.386,100.571,-17.3013,178.967,1.38428,-145.173,308
1570004062,303.386,100.571,-17.3013,178.967,1.38428,-145.173,308
1570004062,303.386,100.571,-17.3013,178.967,1.38428,-145.173,308
1570004062,303.386,100.571,-17.3013,178.967,1.38428,-145.173,308
1570004062,303.386,100.571,-17.3013,178.967,1.38428,-145.173,308
1570004062,303.386,100.571,-17.3013,178.967,1.38428,-145.173,308
1570004062,303.386,100.571,-17.3013,178.967,1.38428,-145.173,308
1570004062,303.386,100.571,-17.3013,178.967,1.38428,-145.173,308
1570004062,303.386,100.571,-17.3013,178.967,1.38428,-145.173,308
1570004062,303.386,100.571,-17.3013,178.967,1.38428,-145.173,308
1570004062,303.386,100.571,-17.3013,178.967,1.38428,-145.173,308
1570004062,303.386,100.571,-17.3013,178.967,1.38428,-145.173,308
1570004062,303.386,100.571,-17.3013,178.967,1.38428,-145.173,308
1570004062,303.386,100.571,-17.3013,178.967,1.38428,-145.173,308
1570004062,303.386,100.571,-17.3013,178.967,1.38428,-145.173,308
1570004062,303.386,100.571,-17.3013,178.967,1.38428,-145.173,308
1570004062,303.386,100.571,-17.3013,178.967,1.38428,-145.173,308
1570004062,303.386,100.571,-17.3013,178.967,1.38428,-145.173,308
1570004062,303.386,100.571,-17.3013,178.967,1.38428,-145.173,308
1570004062,303.275,100.571,-17.3013,178.967,1.38428,-145.173,308
1570004062,303.275,100.571,-17.3013,178.967,1.38428,-145.173,308
1570004062,303.275,100.571,-17.3013,178.967,1.38428,-145.173,308
1570004062,303.275,100.571,-17.3013,178.967,1.38428,-145.173,308
1570004062,303.275,100.571,-17.3013,178.967,1.38428,-145.173,308
1570004062,303.275,100.571,-17.3013,178.967,1.38428,-145.173,308
1570004062,303.275,100.571,-17.3013,178.967,1.38428,-145.173,308
1570004062,303.275,100.571,-17.3013,178.967,1.38428,-145.173,308
1570004062,303.386,100.571,-17.3013,178.967,1.38428,-145.173,308
1570004062,303.386,100.571,-17.3013,178.967,1.38428,-145.173,308
1570004062,303.386,100.571,-17.3013,178.967,1.38428,-145.173,308
1570004062,303.386,100.571,-17.3013,178.967,1.38428,-145.173,308
1570004062,303.386,100.571,-17.3013,178.967,1.38428,-145.173,308
1570004062,303.386,100.571,-17.3013,178.967,1.38428,-145.173,308
1570004062,303.386,100.571,-17.3013,178.967,1.38428,-145.173,308
1570004062,303.386,100.571,-17.3013,178.967,1.38428,-145.173,308
1570004062,303.386,100.571,-17.3013,178.967,1.38428,-145.151,308
1570004062,303.386,100.571,-17.3013,178.967,1.38428,-145.151,308
1570004062,303.275,100.571,-17.3013,178.967,1.38428,-145.173,308
1570004062,303.275,100.571,-17.3013,178.967,1.38428,-145.173,308
1570004062,303.275,100.571,-17.3013,178.967,1.38428,-145.173,308
1570004062,303.275,100.571,-17.3013,178.967,1.38428,-145.173,308
1570004062,303.275,100.571,-17.3013,178.989,1.38428,-145.173,308
1570004062,303.275,100.571,-17.3013,178.989,1.38428,-145.173,308
1570004062,303.275,100.571,-17.3013,178.989,1.38428,-145.173,308
1570004062,303.275,100.571,-17.3013,178.989,1.38428,-145.173,308
1570004062,303.275,100.571,-17.3013,178.989,1.38428,-145.173,308
1570004062,303.275,100.571,-17.3013,178.989,1.3623,-145.173,308
1570004062,303.275,100.571,-17.3013,178.967,1.3623,-145.173,308
1570004062,303.275,100.571,-17.3013,178.967,1.3623,-145.173,308
1570004062,303.275,100.571,-17.3013,178.967,1.3623,-145.173,308
1570004062,303.275,100.571,-17.3013,178.967,1.3623,-145.173,308
1570004062,303.275,100.571,-17.4129,178.967,1.3623,-145.173,308
1570004062,303.275,100.571,-17.4129,178.967,1.3623,-145.173,308
1570004062,303.275,100.571,-17.4129,178.967,1.3623,-145.173,308
1570004062,303.275,100.571,-17.4129,178.967,1.3623,-145.173,312
1570004062,303.275,100.571,-17.3013,178.967,1.3623,-145.173,312
1570004062,303.275,100.571,-17.3013,178.967,1.3623,-145.173,312
1570004062,303.275,100.571,-17.3013,178.967,1.3623,-145.173,312
1570004062,303.275,100.571,-17.3013,178.967,1.3623,-145.173,312
1570004062,303.275,100.571,-17.3013,178.967,1.3623,-145.173,312
1570004062,303.275,100.571,-17.3013,178.967,1.3623,-145.173,312
1570004062,303.275,100.571,-17.3013,178.967,1.3623,-145.173,312
1570004062,303.275,100.571,-17.3013,178.967,1.3623,-145.173,312
1570004062,303.275,100.571,-17.3013,178.967,1.3623,-145.173,312
1570004062,303.275,100.571,-17.3013,178.967,1.3623,-145.173,312
1570004062,303.275,100.571,-17.4129,178.967,1.3623,-145.173,312
1570004062,303.275,100.571,-17.4129,178.967,1.3623,-145.173,312
1570004062,303.275,100.571,-17.4129,178.967,1.3623,-145.173,312
1570004062,303.275,100.571,-17.4129,178.967,1.3623,-145.173,312
1570004062,303.275,100.571,-17.4129,178.967,1.3623,-145.173,312
1570004062,303.275,100.571,-17.4129,178.967,1.3623,-145.173,312
1570004062,303.275,100.571,-17.4129,178.967,1.3623,-145.173,312
1570004062,303.275,100.571,-17.4129,178.967,1.3623,-145.173,312
1570004062,303.275,100.571,-17.4129,178.967,1.3623,-145.173,312
1570004062,303.275,100.571,-17.4129,178.967,1.3623,-145.173,312
1570004063,303.275,100.571,-17.4129,178.967,1.3623,-145.173,312
1570004063,303.275,100.571,-17.3013,178.967,1.3623,-145.173,312
1570004063,303.386,100.571,-17.3013,178.967,1.3623,-145.173,312
1570004063,303.386,100.571,-17.3013,178.967,1.3623,-145.173,312
1570004063,303.386,100.571,-17.3013,178.967,1.3623,-145.173,312
1570004063,303.386,100.571,-17.3013,178.967,1.3623,-145.173,312
1570004063,303.386,100.571,-17.3013,178.967,1.3623,-145.173,312
1570004063,303.386,100.571,-17.3013,178.967,1.3623,-145.173,312
1570004063,303.386,100.571,-17.3013,178.989,1.3623,-145.173,312
1570004063,303.386,100.571,-17.3013,178.989,1.3623,-145.173,312
1570004063,303.386,100.571,-17.3013,178.989,1.3623,-145.173,312
1570004063,303.386,100.571,-17.3013,178.989,1.38428,-145.173,312
1570004063,303.386,100.571,-17.3013,178.989,1.3623,-145.173,308
1570004063,303.386,100.571,-17.3013,178.989,1.3623,-145.173,308
1570004063,303.386,100.571,-17.3013,178.989,1.3623,-145.173,308
1570004063,303.386,100.571,-17.3013,178.989,1.3623,-145.173,308
1570004063,303.386,100.571,-17.3013,178.989,1.3623,-145.173,308
1570004063,303.386,100.571,-17.4129,178.989,1.3623,-145.173,308
1570004063,303.386,100.571,-17.4129,178.989,1.3623,-145.173,308
1570004063,303.386,100.571,-17.4129,178.989,1.3623,-145.173,308
1570004063,303.386,100.571,-17.4129,178.989,1.3623,-145.173,308
1570004063,303.386,100.571,-17.4129,178.989,1.3623,-145.173,308
1570004063,303.386,100.571,-17.4129,178.989,1.3623,-145.173,308
1570004063,303.386,100.571,-17.4129,178.989,1.3623,-145.173,308
1570004063,303.386,100.571,-17.4129,178.989,1.3623,-145.173,308
1570004063,303.386,100.571,-17.3013,178.989,1.3623,-145.173,308
1570004063,303.386,100.571,-17.3013,178.989,1.3623,-145.173,308
1570004063,303.386,100.571,-17.3013,178.989,1.3623,-145.173,308
1570004063,303.386,100.571,-17.3013,178.989,1.3623,-145.173,308
1570004063,303.386,100.571,-17.3013,178.989,1.3623,-145.173,308
1570004063,303.386,100.571,-17.3013,178.989,1.3623,-145.173,308
1570004063,303.386,100.571,-17.3013,178.989,1.3623,-145.173,308
1570004063,303.386,100.571,-17.3013,178.989,1.3623,-145.173,308
1570004063,303.386,100.571,-17.3013,178.989,1.3623,-145.173,308
1570004063,303.386,100.571,-17.3013,178.989,1.3623,-145.173,308
1570004063,303.386,100.571,-17.4129,178.989,1.3623,-145.173,308
1570004063,303.386,100.571,-17.4129,178.989,1.3623,-145.173,308
1570004063,303.386,100.571,-17.4129,178.989,1.3623,-145.173,308
1570004063,303.386,100.571,-17.4129,178.967,1.3623,-145.173,308
1570004063,303.386,100.571,-17.4129,178.967,1.3623,-145.173,308
1570004063,303.386,100.571,-17.4129,178.967,1.3623,-145.173,308
1570004063,303.386,100.571,-17.4129,178.967,1.3623,-145.173,308
1570004063,303.386,100.571,-17.4129,178.967,1.3623,-145.173,308
1570004063,303.386,100.571,-17.4129,178.967,1.3623,-145.173,308
1570004063,303.386,100.571,-17.4129,178.967,1.3623,-145.173,308
1570004063,303.386,100.571,-17.4129,178.967,1.3623,-145.173,308
1570004063,303.386,100.571,-17.3013,178.967,1.3623,-145.173,308
1570004063,303.386,100.571,-17.3013,178.967,1.3623,-145.173,308
1570004063,303.386,100.571,-17.3013,178.967,1.38428,-145.173,308
1570004063,303.386,100.571,-17.3013,178.967,1.38428,-145.173,308
1570004063,303.386,100.571,-17.3013,178.967,1.38428,-145.173,308
1570004063,303.386,100.571,-17.3013,178.967,1.38428,-145.173,308
1570004063,303.386,100.571,-17.3013,178.967,1.38428,-145.173,308
1570004063,303.386,100.571,-17.3013,178.967,1.38428,-145.173,308
1570004063,303.386,100.571,-17.3013,178.967,1.3623,-145.173,308
1570004063,303.386,100.571,-17.4129,178.967,1.3623,-145.173,308
1570004063,303.386,100.571,-17.4129,178.967,1.3623,-145.173,308
1570004063,303.386,100.571,-17.4129,178.967,1.3623,-145.173,308
1570004063,303.386,100.571,-17.4129,178.967,1.3623,-145.173,308
1570004063,303.386,100.571,-17.4129,178.967,1.3623,-145.173,308
1570004063,303.386,100.571,-17.4129,178.967,1.3623,-145.173,308
1570004063,303.386,100.571,-17.4129,178.967,1.3623,-145.173,308
1570004063,303.386,100.571,-17.4129,178.967,1.3623,-145.173,304
1570004063,303.386,100.571,-17.4129,178.967,1.3623,-145.173,304
1570004063,303.386,100.571,-17.4129,178.967,1.3623,-145.173,304
1570004063,303.386,100.571,-17.4129,178.967,1.3623,-145.173,304
1570004063,303.386,100.571,-17.4129,178.967,1.3623,-145.173,304
1570004063,303.386,100.571,-17.4129,178.967,1.3623,-145.173,304
1570004063,303.386,100.571,-17.4129,178.967,1.3623,-145.173,304
1570004063,303.386,100.571,-17.4129,178.967,1.3623,-145.173,304
1570004063,303.386,100.571,-17.4129,178.967,1.3623,-145.173,304
1570004063,303.386,100.571,-17.4129,178.967,1.3623,-145.173,304
1570004063,303.386,100.571,-17.4129,178.967,1.3623,-145.173,304
1570004063,303.386,100.571,-17.4129,178.967,1.3623,-145.173,304
1570004063,303.386,100.571,-17.4129,178.967,1.3623,-145.173,304
1570004063,303.386,100.571,-17.4129,178.967,1.3623,-145.173,304
1570004063,303.386,100.571,-17.4129,178.967,1.38428,-145.173,304
1570004063,303.386,100.571,-17.4129,178.967,1.38428,-145.173,304
1570004063,303.386,100.571,-17.4129,178.967,1.38428,-145.173,304
1570004063,303.386,100.571,-17.4129,178.967,1.38428,-145.173,304
1570004063,303.386,100.571,-17.4129,178.967,1.38428,-145.173,308
1570004063,303.386,100.571,-17.3013,178.967,1.38428,-145.173,308
1570004063,303.386,100.571,-17.3013,178.967,1.38428,-145.173,308
1570004063,303.386,100.571,-17.3013,178.967,1.38428,-145.173,308
1570004063,303.386,100.571,-17.3013,178.967,1.38428,-145.173,308
1570004063,303.386,100.571,-17.3013,178.967,1.38428,-145.173,308
1570004063,303.386,100.571,-17.3013,178.967,1.38428,-145.173,308
1570004063,303.386,100.571,-17.3013,178.967,1.38428,-145.173,308
1570004063,303.386,100.571,-17.3013,178.967,1.38428,-145.173,308
1570004063,303.386,100.571,-17.3013,178.967,1.38428,-145.173,308
1570004063,303.386,100.571,-17.3013,178.967,1.38428,-145.173,308
1570004063,303.386,100.571,-17.3013,178.967,1.38428,-145.173,308
1570004063,303.386,100.571,-17.3013,178.967,1.38428,-145.173,308
1570004063,303.386,100.571,-17.3013,178.967,1.38428,-145.173,308
1570004063,303.386,100.571,-17.3013,178.967,1.38428,-145.173,308
1570004063,303.386,100.571,-17.3013,178.967,1.38428,-145.173,308
1570004063,303.386,100.571,-17.3013,178.967,1.38428,-145.173,308
1570004063,303.386,100.571,-17.3013,178.967,1.38428,-145.173,308
1570004063,303.386,100.571,-17.3013,178.967,1.38428,-145.173,308
1570004063,303.386,100.571,-17.3013,178.967,1.38428,-145.173,308
1570004064,303.386,100.571,-17.3013,178.967,1.38428,-145.173,308
1570004064,303.386,100.571,-17.3013,178.967,1.38428,-145.173,308
1570004064,303.386,100.571,-17.3013,178.967,1.38428,-145.173,308
1570004064,303.386,100.571,-17.3013,178.967,1.3623,-145.173,308
1570004064,303.386,100.571,-17.3013,178.967,1.38428,-145.173,308
1570004064,303.386,100.571,-17.3013,178.967,1.3623,-145.173,308
1570004064,303.386,100.571,-17.3013,178.967,1.3623,-145.173,308
1570004064,303.386,100.571,-17.3013,178.967,1.38428,-145.173,308
1570004064,303.386,100.459,-17.3013,178.967,1.38428,-145.173,308
1570004064,303.386,100.459,-17.3013,178.967,1.38428,-145.173,308
1570004064,303.386,100.459,-17.3013,178.967,1.38428,-145.173,308
1570004064,303.386,100.459,-17.3013,178.967,1.38428,-145.173,308
1570004064,303.275,100.571,-17.3013,178.967,1.38428,-145.173,308
1570004064,303.275,100.571,-17.3013,178.967,1.38428,-145.173,312
1570004064,303.275,100.571,-17.3013,178.967,1.38428,-145.173,312
1570004064,303.275,100.571,-17.3013,178.967,1.38428,-145.173,312
1570004064,303.275,100.571,-17.3013,178.967,1.38428,-145.173,312
1570004064,303.275,100.571,-17.3013,178.967,1.38428,-145.173,312
1570004064,303.275,100.571,-17.3013,178.967,1.38428,-145.173,312
1570004064,303.275,100.571,-17.3013,178.967,1.38428,-145.173,312
1570004064,303.275,100.571,-17.3013,178.967,1.38428,-145.173,312
1570004068,318.567,83.9391,-17.4129,179.033,1.14258,-144.536,332
1570004068,318.567,83.9391,-17.4129,179.033,1.14258,-144.536,332
1570004068,318.567,83.9391,-17.4129,179.033,1.14258,-144.536,332
1570004068,318.567,83.9391,-17.4129,179.033,1.14258,-144.536,332
1570004068,318.567,83.9391,-17.4129,179.033,1.14258,-144.536,332
1570004068,318.567,83.9391,-17.4129,179.033,1.14258,-144.536,332
1570004068,318.567,83.9391,-17.4129,179.033,1.12061,-144.536,336
1570004068,318.567,83.9391,-17.4129,179.033,1.12061,-144.536,336
1570004068,318.567,83.9391,-17.4129,179.033,1.12061,-144.536,336
1570004068,318.567,83.9391,-17.4129,179.033,1.12061,-144.536,336
1570004068,318.567,83.9391,-17.4129,179.033,1.12061,-144.536,336
1570004068,318.567,83.9391,-17.4129,179.033,1.12061,-144.536,336
1570004068,318.567,83.9391,-17.4129,179.033,1.12061,-144.536,336
1570004068,318.567,83.9391,-17.4129,179.033,1.12061,-144.536,336
1570004068,318.567,83.9391,-17.4129,179.033,1.12061,-144.536,336
1570004068,318.567,83.9391,-17.4129,179.033,1.12061,-144.536,336
1570004068,318.567,83.9391,-17.4129,179.033,1.12061,-144.536,336
1570004068,318.567,83.9391,-17.4129,179.033,1.12061,-144.536,336
1570004068,318.567,83.9391,-17.4129,179.033,1.12061,-144.514,340
1570004068,318.567,83.9391,-17.4129,179.033,1.12061,-144.514,340
1570004068,318.567,83.9391,-17.4129,179.033,1.12061,-144.514,340
1570004068,318.567,83.9391,-17.4129,179.033,1.12061,-144.514,340
1570004068,318.567,83.9391,-17.4129,179.033,1.12061,-144.514,340
1570004068,318.567,83.9391,-17.4129,179.033,1.12061,-144.514,340
1570004068,318.567,83.9391,-17.4129,179.033,1.14258,-144.514,340
1570004068,318.567,83.9391,-17.4129,179.033,1.14258,-144.514,340
1570004068,318.567,83.9391,-17.4129,179.033,1.14258,-144.514,340
1570004068,318.567,83.9391,-17.4129,179.033,1.14258,-144.514,340
1570004068,318.567,83.9391,-17.4129,179.033,1.14258,-144.514,340
1570004068,318.567,83.9391,-17.4129,179.033,1.14258,-144.514,340
1570004068,318.567,83.9391,-17.4129,179.033,1.14258,-144.514,340
1570004068,318.567,83.9391,-17.4129,179.033,1.14258,-144.514,340
1570004068,318.567,83.9391,-17.4129,179.033,1.14258,-144.514,340
1570004068,318.567,83.9391,-17.4129,179.033,1.12061,-144.536,340
1570004068,318.567,83.9391,-17.4129,179.033,1.12061,-144.536,340
1570004068,318.567,83.9391,-17.4129,179.033,1.12061,-144.536,340
1570004068,318.567,83.9391,-17.4129,179.011,1.12061,-144.536,344
1570004068,318.567,83.9391,-17.4129,179.011,1.12061,-144.536,344
1570004068,318.567,83.9391,-17.4129,179.011,1.12061,-144.536,344
1570004068,318.567,83.9391,-17.4129,179.011,1.12061,-144.536,344
1570004068,318.567,83.9391,-17.4129,179.011,1.12061,-144.536,344
1570004068,318.567,83.9391,-17.4129,179.011,1.12061,-144.536,344
1570004068,318.567,83.9391,-17.4129,179.011,1.12061,-144.536,344
1570004068,318.567,83.9391,-17.4129,179.011,1.14258,-144.536,344
1570004068,318.567,83.9391,-17.4129,179.011,1.14258,-144.536,344
1570004068,318.567,83.9391,-17.4129,179.011,1.14258,-144.536,344
1570004068,318.567,83.9391,-17.4129,179.011,1.12061,-144.536,340
1570004068,318.567,83.9391,-17.4129,179.011,1.12061,-144.536,340
1570004068,318.567,83.9391,-17.4129,179.011,1.12061,-144.536,340
1570004068,318.567,83.9391,-17.4129,179.011,1.12061,-144.536,340
1570004068,318.567,83.9391,-17.4129,179.011,1.12061,-144.536,340
1570004068,318.567,83.9391,-17.4129,179.011,1.12061,-144.536,340
1570004068,318.567,83.9391,-17.4129,179.011,1.12061,-144.536,340
1570004068,318.567,83.9391,-17.4129,179.011,1.12061,-144.536,340
1570004068,318.567,83.8274,-17.4129,179.011,1.12061,-144.536,340
1570004068,318.567,83.8274,-17.4129,179.011,1.12061,-144.536,340
1570004068,318.567,83.8274,-17.4129,179.011,1.12061,-144.536,336
1570004068,318.567,83.8274,-17.4129,178.989,1.12061,-144.536,336
1570004068,318.567,83.8274,-17.4129,178.989,1.12061,-144.536,336
1570004068,318.567,83.8274,-17.4129,178.989,1.12061,-144.536,336
1570004068,318.567,83.8274,-17.4129,178.989,1.12061,-144.536,336
1570004068,318.567,83.8274,-17.4129,179.011,1.12061,-144.536,336
1570004068,318.567,83.8274,-17.4129,179.011,1.12061,-144.536,336
1570004068,318.567,83.8274,-17.4129,179.011,1.12061,-144.536,336
1570004068,318.567,83.9391,-17.4129,179.011,1.12061,-144.536,336
1570004068,318.567,83.9391,-17.4129,179.011,1.12061,-144.536,336
1570004068,318.567,83.9391,-17.4129,179.011,1.12061,-144.536,336
1570004068,318.567,83.9391,-17.4129,179.011,1.12061,-144.536,336
1570004068,318.567,83.9391,-17.4129,179.011,1.12061,-144.536,336
1570004068,318.567,83.9391,-17.4129,179.011,1.12061,-144.536,336
1570004068,318.567,83.9391,-17.4129,179.011,1.12061,-144.536,336
1570004068,318.567,83.9391,-17.4129,179.011,1.12061,-144.536,336
1570004068,318.567,83.9391,-17.4129,179.011,1.12061,-144.536,336
1570004068,318.567,83.9391,-17.4129,179.011,1.12061,-144.536,336
1570004068,318.567,83.9391,-17.4129,179.011,1.12061,-144.536,336
1570004068,318.567,83.9391,-17.4129,179.011,1.12061,-144.536,336
1570004068,318.567,83.9391,-17.4129,179.011,1.12061,-144.536,336
1570004068,318.567,83.9391,-17.4129,179.011,1.12061,-144.536,336
1570004068,318.567,83.9391,-17.4129,179.011,1.12061,-144.536,336
1570004068,318.567,83.9391,-17.4129,179.011,1.12061,-144.536,336
1570004068,318.567,83.9391,-17.4129,179.011,1.12061,-144.536,336
1570004068,318.567,83.9391,-17.4129,179.011,1.12061,-144.536,336
1570004068,318.567,83.9391,-17.4129,179.011,1.12061,-144.536,336
1570004068,318.567,83.9391,-17.4129,179.011,1.12061,-144.536,336
1570004068,318.567,83.9391,-17.4129,179.011,1.12061,-144.536,336
1570004068,318.567,83.9391,-17.4129,179.011,1.12061,-144.536,336
1570004068,318.567,83.9391,-17.4129,179.011,1.12061,-144.536,336
1570004068,318.567,83.9391,-17.4129,179.011,1.12061,-144.536,336
1570004068,318.567,83.9391,-17.4129,179.033,1.12061,-144.536,336
1570004068,318.567,83.9391,-17.4129,179.033,1.12061,-144.536,336
1570004068,318.567,83.9391,-17.4129,179.033,1.12061,-144.536,336
1570004068,318.567,83.9391,-17.4129,179.033,1.12061,-144.536,336
1570004068,318.567,83.9391,-17.4129,179.033,1.12061,-144.536,336
1570004068,318.567,83.9391,-17.4129,179.033,1.12061,-144.536,336
1570004068,318.567,83.9391,-17.4129,179.033,1.12061,-144.536,336
1570004068,318.567,83.9391,-17.4129,179.033,1.12061,-144.536,336
1570004069,318.567,83.9391,-17.4129,179.033,1.12061,-144.536,336
1570004069,318.567,83.9391,-17.4129,179.033,1.12061,-144.536,336
1570004069,318.567,83.9391,-17.4129,179.033,1.12061,-144.536,336
1570004069,318.567,83.9391,-17.4129,179.033,1.12061,-144.536,336
1570004069,318.567,83.9391,-17.4129,179.033,1.12061,-144.536,336
1570004069,318.567,83.9391,-17.4129,179.011,1.12061,-144.536,336
1570004069,318.567,83.9391,-17.4129,179.011,1.12061,-144.536,336
1570004069,318.567,83.9391,-17.4129,179.011,1.12061,-144.536,336
1570004069,318.567,83.9391,-17.4129,179.011,1.12061,-144.536,336
1570004069,318.567,83.9391,-17.4129,179.011,1.12061,-144.536,336
1570004069,318.567,83.9391,-17.4129,179.011,1.12061,-144.536,336
1570004069,318.567,83.9391,-17.4129,179.011,1.12061,-144.536,336
1570004069,318.567,83.9391,-17.4129,179.011,1.12061,-144.536,336
1570004069,318.567,83.9391,-17.4129,179.033,1.12061,-144.536,336
1570004069,318.567,83.9391,-17.4129,179.033,1.14258,-144.536,336
1570004069,318.567,83.9391,-17.4129,179.033,1.14258,-144.536,336
1570004069,318.567,83.9391,-17.4129,179.033,1.14258,-144.536,336
1570004069,318.567,83.9391,-17.4129,179.033,1.14258,-144.536,336
1570004069,318.567,83.9391,-17.4129,179.033,1.14258,-144.536,336
1570004069,318.567,83.9391,-17.4129,179.011,1.14258,-144.536,336
1570004069,318.567,83.9391,-17.4129,179.011,1.14258,-144.536,336
1570004069,318.567,83.9391,-17.4129,179.011,1.14258,-144.536,336
1570004069,318.567,83.9391,-17.4129,179.011,1.14258,-144.514,336
1570004069,318.567,83.9391,-17.4129,179.011,1.14258,-144.514,336
1570004069,318.567,83.9391,-17.4129,179.011,1.14258,-144.514,336
1570004069,318.567,83.9391,-17.4129,179.011,1.14258,-144.514,332
1570004069,318.567,83.9391,-17.4129,179.011,1.14258,-144.514,332
1570004069,318.567,83.9391,-17.4129,179.011,1.14258,-144.514,332
1570004069,318.567,83.9391,-17.4129,179.011,1.14258,-144.514,332
1570004069,318.567,83.9391,-17.4129,179.033,1.14258,-144.514,332
1570004069,318.567,83.9391,-17.4129,179.033,1.14258,-144.514,332
1570004069,318.567,83.9391,-17.4129,179.033,1.14258,-144.514,332
1570004069,318.567,83.9391,-17.4129,179.033,1.14258,-144.514,332
1570004069,318.567,83.9391,-17.4129,179.033,1.14258,-144.514,332
1570004069,318.567,83.9391,-17.4129,179.033,1.14258,-144.514,332
1570004069,318.567,83.9391,-17.4129,179.033,1.14258,-144.514,336
1570004069,318.567,83.9391,-17.4129,179.033,1.14258,-144.514,336
1570004069,318.567,83.9391,-17.4129,179.033,1.14258,-144.536,336
1570004069,318.567,83.9391,-17.4129,179.033,1.14258,-144.536,336
1570004069,318.567,83.9391,-17.4129,179.033,1.14258,-144.536,336
1570004069,318.567,83.9391,-17.4129,179.033,1.14258,-144.536,336
1570004069,318.567,83.9391,-17.4129,179.033,1.14258,-144.536,336
1570004069,318.567,83.9391,-17.4129,179.033,1.14258,-144.536,336
1570004069,318.567,83.9391,-17.4129,179.033,1.14258,-144.536,336
1570004069,318.567,83.9391,-17.4129,179.033,1.14258,-144.536,336
1570004069,318.567,83.9391,-17.4129,179.033,1.14258,-144.514,336
1570004069,318.567,83.9391,-17.4129,179.033,1.14258,-144.514,336
1570004069,318.567,83.9391,-17.4129,179.033,1.14258,-144.514,336
1570004069,318.567,83.9391,-17.4129,179.011,1.14258,-144.514,336
1570004069,318.567,83.9391,-17.4129,179.011,1.14258,-144.514,336
1570004069,318.567,83.9391,-17.4129,179.011,1.14258,-144.514,336
1570004069,318.567,83.9391,-17.4129,179.011,1.14258,-144.514,336
1570004069,318.567,83.9391,-17.4129,179.033,1.14258,-144.514,336
1570004069,318.567,83.9391,-17.4129,179.033,1.14258,-144.514,336
1570004069,318.567,83.9391,-17.4129,179.033,1.14258,-144.514,336
1570004069,318.567,83.9391,-17.4129,179.033,1.14258,-144.514,336
1570004069,318.567,83.9391,-17.4129,179.033,1.14258,-144.536,340
1570004069,318.567,83.9391,-17.4129,179.033,1.14258,-144.536,340
1570004069,318.567,83.9391,-17.4129,179.033,1.14258,-144.536,340
1570004069,318.567,83.9391,-17.4129,179.033,1.14258,-144.536,340
1570004069,318.567,83.9391,-17.4129,179.033,1.14258,-144.536,340
1570004069,318.567,83.9391,-17.4129,179.033,1.14258,-144.536,340
1570004069,318.567,83.9391,-17.4129,179.033,1.14258,-144.536,344
1570004069,318.567,83.9391,-17.4129,179.011,1.14258,-144.536,344
1570004069,318.567,83.9391,-17.4129,179.011,1.14258,-144.536,344
1570004069,318.567,83.9391,-17.4129,179.011,1.14258,-144.536,344
1570004069,318.567,83.9391,-17.4129,179.011,1.14258,-144.536,344
1570004069,318.567,83.9391,-17.4129,179.011,1.14258,-144.536,344
1570004069,318.567,83.9391,-17.4129,179.011,1.14258,-144.536,344
1570004069,318.567,83.9391,-17.4129,179.011,1.14258,-144.536,344
1570004069,318.567,83.9391,-17.4129,179.011,1.14258,-144.536,344
1570004069,318.567,83.9391,-17.4129,179.011,1.14258,-144.536,344
1570004069,318.567,83.9391,-17.4129,179.011,1.14258,-144.536,344
1570004069,318.567,83.9391,-17.4129,179.011,1.14258,-144.536,344
1570004069,318.567,83.9391,-17.4129,179.011,1.14258,-144.536,344
1570004069,318.567,83.9391,-17.4129,179.011,1.14258,-144.536,344
1570004069,318.567,83.9391,-17.4129,179.033,1.14258,-144.536,344
1570004069,318.567,83.9391,-17.4129,179.033,1.14258,-144.536,344
1570004069,318.567,83.9391,-17.4129,179.033,1.14258,-144.536,344
1570004069,318.567,83.9391,-17.4129,179.033,1.14258,-144.536,344
1570004069,318.567,83.9391,-17.4129,179.033,1.14258,-144.536,344
1570004069,318.567,83.9391,-17.4129,179.033,1.14258,-144.536,344
1570004069,318.567,83.9391,-17.4129,179.033,1.14258,-144.536,344
1570004069,318.567,83.9391,-17.4129,179.033,1.14258,-144.536,344
1570004069,318.567,83.9391,-17.4129,179.033,1.14258,-144.536,344
1570004069,318.567,83.9391,-17.4129,179.033,1.14258,-144.536,344
1570004069,318.567,83.9391,-17.4129,179.033,1.14258,-144.536,344
1570004069,318.567,83.9391,-17.4129,179.033,1.14258,-144.536,344
1570004069,318.567,83.9391,-17.4129,179.033,1.14258,-144.536,344
1570004069,318.567,83.9391,-17.4129,179.033,1.14258,-144.536,344
1570004069,318.567,83.9391,-17.4129,179.033,1.14258,-144.536,344
1570004069,318.567,83.9391,-17.4129,179.033,1.14258,-144.536,344
1570004069,318.567,83.9391,-17.4129,179.033,1.14258,-144.536,348
1570004069,318.567,83.9391,-17.4129,179.033,1.14258,-144.536,348
1570004069,318.567,83.9391,-17.4129,179.033,1.14258,-144.536,348
1570004069,318.567,83.9391,-17.4129,179.033,1.14258,-144.536,348
1570004069,318.567,83.9391,-17.4129,179.033,1.14258,-144.536,348
1570004069,318.567,83.9391,-17.4129,179.033,1.14258,-144.536,344
1570004069,318.567,83.9391,-17.4129,179.033,1.12061,-144.514,344
1570004069,318.567,83.9391,-17.4129,179.033,1.12061,-144.514,344
1570004070,318.567,83.9391,-17.4129,179.033,1.12061,-144.514,344
1570004070,318.567,83.9391,-17.4129,179.033,1.12061,-144.514,344
1570004070,318.567,83.9391,-17.4129,179.033,1.12061,-144.514,344
1570004070,318.567,83.9391,-17.4129,179.033,1.12061,-144.514,344
1570004070,318.567,83.9391,-17.4129,179.033,1.12061,-144.514,344
1570004070,318.567,83.9391,-17.4129,179.033,1.12061,-144.514,344
1570004070,318.567,83.9391,-17.4129,179.033,1.12061,-144.514,344
1570004070,318.567,83.9391,-17.4129,179.033,1.12061,-144.514,340
1570004070,318.567,83.9391,-17.4129,179.033,1.12061,-144.514,340
1570004070,318.567,83.9391,-17.4129,179.033,1.12061,-144.514,340
1570004070,318.567,83.9391,-17.4129,179.033,1.12061,-144.514,340
1570004070,318.567,83.9391,-17.4129,179.033,1.12061,-144.514,340
1570004070,318.567,83.9391,-17.4129,179.033,1.12061,-144.514,340
1570004070,318.567,83.9391,-17.4129,179.033,1.12061,-144.514,340
1570004070,318.567,83.9391,-17.4129,179.033,1.12061,-144.514,340
1570004070,318.567,83.9391,-17.4129,179.033,1.12061,-144.514,340
1570004070,318.567,83.9391,-17.4129,179.033,1.12061,-144.514,344
1570004070,318.567,83.9391,-17.4129,179.033,1.12061,-144.514,344
1570004070,318.567,83.9391,-17.4129,179.033,1.12061,-144.514,344
1570004070,318.567,83.9391,-17.4129,179.033,1.12061,-144.514,344
1570004070,318.567,83.9391,-17.4129,179.033,1.12061,-144.514,344
1570004070,318.567,83.9391,-17.4129,179.033,1.12061,-144.514,344
1570004070,318.567,83.9391,-17.4129,179.033,1.12061,-144.514,344
1570004070,318.567,83.9391,-17.4129,179.033,1.12061,-144.514,344
1570004070,318.567,83.9391,-17.4129,179.033,1.12061,-144.514,344
1570004070,318.567,83.9391,-17.4129,179.033,1.12061,-144.514,344
1570004070,318.567,83.9391,-17.4129,179.033,1.12061,-144.514,344
1570004070,318.567,83.9391,-17.4129,179.033,1.14258,-144.514,344
1570004070,318.567,83.9391,-17.4129,179.033,1.14258,-144.514,344
1570004070,318.567,83.9391,-17.4129,179.033,1.14258,-144.514,344
1570004070,318.567,83.9391,-17.4129,179.033,1.14258,-144.514,344
1570004070,318.567,83.9391,-17.4129,179.033,1.14258,-144.514,348
1570004070,318.567,83.9391,-17.4129,179.033,1.14258,-144.514,348
1570004070,318.567,83.9391,-17.4129,179.033,1.14258,-144.514,348
1570004070,318.567,83.9391,-17.4129,179.033,1.14258,-144.514,348
1570004070,318.567,83.9391,-17.4129,179.033,1.14258,-144.514,348
1570004070,318.567,83.9391,-17.4129,179.033,1.14258,-144.514,348
1570004070,318.567,83.9391,-17.4129,179.033,1.14258,-144.514,352
1570004070,318.567,83.9391,-17.4129,179.033,1.14258,-144.514,352
1570004070,318.567,83.9391,-17.4129,179.033,1.14258,-144.536,352
1570004070,318.567,83.9391,-17.4129,179.033,1.12061,-144.536,352
1570004070,318.567,83.9391,-17.4129,179.033,1.12061,-144.536,348
1570004070,318.567,83.9391,-17.4129,179.033,1.12061,-144.536,348
1570004070,318.567,83.9391,-17.4129,179.033,1.12061,-144.536,348
1570004070,318.567,83.9391,-17.4129,179.033,1.12061,-144.536,348
1570004070,318.567,83.9391,-17.4129,179.033,1.12061,-144.536,348
1570004070,318.567,83.9391,-17.4129,179.033,1.12061,-144.536,344
1570004070,318.567,83.9391,-17.4129,179.033,1.12061,-144.536,344
1570004070,318.567,83.9391,-17.4129,179.033,1.12061,-144.536,344
1570004070,318.567,83.9391,-17.4129,179.033,1.12061,-144.536,344
1570004070,318.567,83.9391,-17.4129,179.033,1.12061,-144.536,344
1570004070,318.567,83.9391,-17.4129,179.033,1.12061,-144.536,344
1570004070,318.567,83.9391,-17.4129,179.033,1.12061,-144.536,340
1570004070,318.567,83.9391,-17.4129,179.033,1.12061,-144.536,340
1570004070,318.567,83.9391,-17.4129,179.033,1.12061,-144.536,340
1570004070,318.567,83.9391,-17.4129,179.033,1.14258,-144.536,340
1570004070,318.567,83.9391,-17.4129,179.033,1.14258,-144.536,340
1570004070,318.567,83.9391,-17.4129,179.033,1.14258,-144.536,340
1570004070,318.567,83.9391,-17.4129,179.033,1.14258,-144.536,340
1570004070,318.567,83.9391,-17.4129,179.033,1.14258,-144.536,340
1570004070,318.567,83.9391,-17.4129,179.055,1.14258,-144.536,340
1570004070,318.567,83.9391,-17.4129,179.055,1.14258,-144.536,340
1570004070,318.567,84.0507,-17.4129,179.055,1.14258,-144.536,340
1570004070,318.455,84.0507,-17.4129,179.055,1.14258,-144.536,340
1570004070,318.455,84.0507,-17.4129,179.055,1.14258,-144.536,340
1570004070,318.455,84.0507,-17.3013,179.055,1.14258,-144.536,340
1570004070,318.455,84.0507,-17.3013,179.055,1.14258,-144.536,340
1570004070,318.455,84.0507,-17.3013,179.055,1.14258,-144.536,340
1570004070,318.455,84.0507,-17.3013,179.055,1.14258,-144.536,340
1570004070,318.455,84.0507,-17.3013,179.055,1.14258,-144.536,340
1570004070,318.455,84.0507,-17.3013,179.055,1.14258,-144.536,340
1570004070,318.455,84.0507,-17.3013,179.055,1.14258,-144.536,340
1570004070,318.455,84.0507,-17.3013,179.055,1.14258,-144.536,340
1570004070,318.455,84.0507,-17.3013,179.055,1.14258,-144.536,340
1570004070,318.455,84.0507,-17.3013,179.055,1.14258,-144.536,340
1570004070,318.455,84.0507,-17.3013,179.055,1.14258,-144.536,340
1570004070,318.455,84.0507,-17.3013,179.055,1.16455,-144.536,340
1570004070,318.455,84.0507,-17.3013,179.055,1.16455,-144.536,340
1570004070,318.455,84.0507,-17.3013,179.055,1.16455,-144.536,340
1570004070,318.455,84.0507,-17.3013,179.055,1.16455,-144.536,340
1570004070,318.455,84.0507,-17.3013,179.055,1.16455,-144.536,340
1570004070,318.455,83.9391,-17.3013,179.055,1.16455,-144.536,340
1570004070,318.455,83.9391,-17.3013,179.033,1.16455,-144.536,344
1570004070,318.455,83.9391,-17.3013,179.033,1.16455,-144.536,344
1570004070,318.455,83.9391,-17.3013,179.033,1.14258,-144.536,344
1570004070,318.455,83.9391,-17.3013,179.033,1.14258,-144.536,344
1570004070,318.567,83.9391,-17.3013,179.033,1.14258,-144.536,344
1570004070,318.567,83.9391,-17.4129,179.033,1.14258,-144.536,344
1570004070,318.567,83.9391,-17.4129,179.033,1.14258,-144.536,344
1570004070,318.567,83.9391,-17.4129,179.033,1.14258,-144.536,344
1570004070,318.567,83.9391,-17.4129,179.033,1.14258,-144.536,340
1570004070,318.567,83.9391,-17.4129,179.033,1.14258,-144.536,340
1570004070,318.567,83.9391,-17.4129,179.033,1.14258,-144.536,340
1570004070,318.567,83.9391,-17.4129,179.033,1.14258,-144.536,340
1570004070,318.567,83.9391,-17.4129,179.033,1.14258,-144.536,340
1570004070,318.567,83.9391,-17.4129,179.033,1.14258,-144.536,340
1570004070,318.567,83.9391,-17.4129,179.033,1.14258,-144.536,340
1570004070,318.567,83.9391,-17.4129,179.033,1.14258,-144.536,340
1570004070,318.567,83.9391,-17.4129,179.033,1.14258,-144.536,336
1570004070,318.567,83.9391,-17.4129,179.033,1.14258,-144.536,336
1570004071,318.567,83.9391,-17.4129,179.033,1.14258,-144.536,336
1570004071,318.567,83.9391,-17.4129,179.033,1.14258,-144.536,336
1570004071,318.567,83.9391,-17.4129,179.033,1.14258,-144.536,336
1570004071,318.567,83.9391,-17.4129,179.033,1.14258,-144.536,340
1570004071,318.567,83.9391,-17.4129,179.033,1.14258,-144.536,340
1570004071,318.567,83.9391,-17.4129,179.011,1.14258,-144.536,340
1570004071,318.567,83.9391,-17.4129,179.011,1.14258,-144.536,340
1570004071,318.567,83.9391,-17.4129,179.011,1.14258,-144.536,340
1570004071,318.567,83.9391,-17.4129,179.011,1.14258,-144.536,340
1570004071,318.567,83.9391,-17.4129,179.011,1.14258,-144.536,340
1570004071,318.567,83.9391,-17.4129,179.011,1.14258,-144.536,344
1570004071,318.567,83.9391,-17.4129,179.011,1.14258,-144.536,344
1570004071,318.567,83.9391,-17.4129,179.011,1.14258,-144.536,344
1570004071,318.567,83.9391,-17.4129,179.011,1.14258,-144.536,344
1570004071,318.567,83.9391,-17.4129,179.011,1.14258,-144.536,344
1570004071,318.567,83.9391,-17.4129,179.011,1.14258,-144.536,344
1570004071,318.567,83.9391,-17.4129,179.011,1.14258,-144.536,344
1570004071,318.567,83.9391,-17.4129,179.011,1.14258,-144.536,344
1570004071,318.567,83.9391,-17.4129,179.011,1.14258,-144.536,344
1570004071,318.567,83.9391,-17.4129,179.011,1.14258,-144.536,344
1570004071,318.567,83.9391,-17.4129,179.011,1.14258,-144.536,344
1570004071,318.567,83.9391,-17.4129,179.011,1.14258,-144.536,344
1570004071,318.567,83.9391,-17.4129,179.011,1.14258,-144.536,340
1570004071,318.567,83.9391,-17.4129,179.011,1.14258,-144.536,340
1570004071,318.567,83.9391,-17.4129,179.011,1.14258,-144.536,340
1570004071,318.567,83.9391,-17.4129,179.011,1.14258,-144.536,340
1570004071,318.567,83.9391,-17.4129,179.011,1.14258,-144.536,340
1570004071,318.567,83.9391,-17.4129,179.011,1.14258,-144.536,340
1570004071,318.567,83.9391,-17.4129,179.011,1.14258,-144.536,336
1570004071,318.567,83.9391,-17.4129,179.011,1.14258,-144.536,336
1570004071,318.567,83.9391,-17.4129,179.011,1.14258,-144.536,336
1570004071,318.567,83.9391,-17.4129,179.011,1.14258,-144.536,336
1570004071,318.567,83.9391,-17.4129,179.011,1.14258,-144.536,336
1570004071,318.567,83.9391,-17.4129,179.011,1.14258,-144.536,336
1570004071,318.567,83.9391,-17.4129,179.011,1.14258,-144.536,336
1570004071,318.567,83.9391,-17.4129,179.011,1.14258,-144.536,336
1570004071,318.567,83.9391,-17.4129,179.011,1.14258,-144.536,336
1570004071,318.567,83.9391,-17.4129,179.011,1.14258,-144.536,332
1570004071,318.567,83.9391,-17.4129,179.011,1.14258,-144.536,332
1570004071,318.567,83.9391,-17.3013,179.011,1.14258,-144.536,332
1570004071,318.567,83.9391,-17.3013,179.011,1.14258,-144.536,332
1570004071,318.567,83.9391,-17.3013,179.011,1.14258,-144.536,332
1570004071,318.567,83.9391,-17.3013,179.011,1.14258,-144.536,332
1570004071,318.567,83.9391,-17.3013,179.011,1.14258,-144.536,332
1570004071,318.567,83.9391,-17.3013,179.011,1.14258,-144.536,332
1570004071,318.567,83.9391,-17.3013,179.011,1.14258,-144.536,332
1570004071,318.567,83.9391,-17.4129,179.011,1.14258,-144.536,332
1570004071,318.567,83.9391,-17.4129,179.011,1.14258,-144.536,332
1570004071,318.567,83.9391,-17.4129,179.011,1.14258,-144.536,332
1570004071,318.567,83.9391,-17.4129,179.011,1.14258,-144.536,332
1570004071,318.567,83.9391,-17.4129,179.011,1.14258,-144.536,332
1570004071,318.567,83.9391,-17.4129,179.011,1.14258,-144.536,336
1570004071,318.567,83.9391,-17.4129,179.011,1.14258,-144.536,336
1570004071,318.567,83.9391,-17.4129,179.011,1.14258,-144.536,336
1570004071,318.567,83.9391,-17.4129,179.011,1.14258,-144.536,336
1570004071,318.567,83.9391,-17.4129,179.011,1.14258,-144.536,336
1570004071,318.567,83.9391,-17.4129,179.011,1.14258,-144.536,336
1570004071,318.567,83.9391,-17.4129,179.011,1.14258,-144.536,336
1570004071,318.567,83.9391,-17.4129,179.011,1.14258,-144.536,336
1570004071,318.567,83.9391,-17.4129,179.011,1.14258,-144.536,336
1570004071,318.567,83.9391,-17.4129,179.011,1.14258,-144.536,336
1570004071,318.567,83.9391,-17.4129,179.011,1.14258,-144.536,336
1570004071,318.567,83.9391,-17.4129,179.011,1.14258,-144.536,336
1570004071,318.567,83.9391,-17.4129,179.011,1.14258,-144.536,336
1570004071,318.567,83.9391,-17.4129,179.011,1.14258,-144.514,336
1570004071,318.567,83.9391,-17.4129,179.033,1.14258,-144.514,336
1570004071,318.567,83.9391,-17.4129,179.033,1.14258,-144.514,336
1570004071,318.567,83.9391,-17.4129,179.033,1.14258,-144.514,336
1570004071,318.567,83.9391,-17.4129,179.033,1.14258,-144.514,336
1570004071,318.567,83.9391,-17.4129,179.033,1.14258,-144.514,336
1570004071,318.567,83.9391,-17.4129,179.011,1.14258,-144.514,336
1570004071,318.567,83.9391,-17.4129,179.011,1.14258,-144.514,336
1570004071,318.567,83.9391,-17.4129,179.011,1.14258,-144.514,336
1570004071,318.567,83.9391,-17.4129,179.011,1.14258,-144.514,336
1570004071,318.567,83.9391,-17.4129,179.011,1.14258,-144.536,336
1570004071,318.567,83.9391,-17.4129,179.011,1.16455,-144.536,336
1570004071,318.567,83.9391,-17.4129,179.011,1.16455,-144.536,336
1570004071,318.567,83.9391,-17.4129,179.011,1.16455,-144.536,332
1570004071,318.567,83.9391,-17.4129,179.011,1.16455,-144.536,332
1570004071,318.567,83.9391,-17.4129,179.011,1.14258,-144.536,332
1570004071,318.567,83.9391,-17.4129,179.011,1.14258,-144.536,332
1570004071,318.567,83.9391,-17.3013,179.011,1.16455,-144.536,332
1570004071,318.567,83.9391,-17.3013,179.011,1.16455,-144.536,332
1570004071,318.567,83.9391,-17.3013,179.011,1.16455,-144.536,332
1570004071,318.567,83.9391,-17.3013,179.011,1.14258,-144.536,332
1570004071,318.567,83.9391,-17.3013,179.011,1.14258,-144.536,332
1570004071,318.567,83.9391,-17.3013,179.011,1.14258,-144.536,332
1570004071,318.567,83.9391,-17.3013,179.011,1.14258,-144.536,332
1570004071,318.567,83.9391,-17.3013,179.011,1.14258,-144.536,332
1570004071,318.567,83.9391,-17.4129,179.011,1.14258,-144.536,332
1570004071,318.567,83.9391,-17.4129,179.011,1.14258,-144.536,332
1570004071,318.567,83.9391,-17.4129,179.011,1.14258,-144.536,332
1570004071,318.567,83.9391,-17.4129,179.011,1.14258,-144.536,332
1570004071,318.567,83.9391,-17.4129,179.011,1.14258,-144.536,332
1570004071,318.567,83.9391,-17.4129,179.011,1.14258,-144.536,332
1570004071,318.567,83.9391,-17.4129,179.011,1.14258,-144.536,332
1570004071,318.567,83.9391,-17.4129,179.011,1.14258,-144.536,332
1570004071,318.567,83.9391,-17.4129,179.011,1.14258,-144.536,332
1570004071,318.567,83.9391,-17.4129,179.011,1.14258,-144.536,332
1570004071,318.567,83.9391,-17.4129,179.011,1.12061,-144.536,336
1570004072,318.567,83.9391,-17.4129,179.011,1.12061,-144.536,336
1570004072,318.567,83.9391,-17.4129,179.033,1.12061,-144.536,336
1570004072,318.567,83.9391,-17.4129,179.033,1.12061,-144.536,336
1570004072,318.567,83.9391,-17.4129,179.033,1.12061,-144.536,336
1570004072,318.567,83.9391,-17.4129,179.011,1.12061,-144.536,336
1570004072,318.567,83.9391,-17.4129,179.011,1.12061,-144.536,336
1570004072,318.567,83.9391,-17.4129,179.011,1.12061,-144.536,336
1570004072,318.567,83.9391,-17.4129,179.011,1.12061,-144.536,336
1570004072,318.567,83.9391,-17.4129,179.011,1.12061,-144.536,336
1570004072,318.567,83.9391,-17.4129,179.011,1.12061,-144.536,336
1570004072,318.567,83.9391,-17.4129,179.011,1.12061,-144.536,336
1570004072,318.567,83.9391,-17.4129,179.011,1.12061,-144.536,336
1570004072,318.567,83.9391,-17.4129,179.011,1.12061,-144.536,336
1570004072,318.567,83.9391,-17.4129,179.011,1.12061,-144.536,336
1570004072,318.567,83.9391,-17.4129,179.011,1.12061,-144.536,336
1570004072,318.567,83.9391,-17.4129,179.011,1.12061,-144.536,336
1570004072,318.567,83.9391,-17.4129,179.011,1.14258,-144.536,336
1570004072,318.567,83.9391,-17.4129,179.011,1.14258,-144.536,336
1570004072,318.567,83.9391,-17.4129,179.011,1.14258,-144.536,336
1570004072,318.567,83.9391,-17.4129,179.011,1.14258,-144.536,336
1570004072,318.567,83.9391,-17.4129,179.011,1.14258,-144.536,336
1570004072,318.567,83.9391,-17.4129,179.011,1.14258,-144.536,336
1570004072,318.567,83.9391,-17.4129,179.011,1.14258,-144.536,336
1570004072,318.567,83.9391,-17.3013,179.011,1.14258,-144.536,332
1570004072,318.567,83.9391,-17.3013,179.011,1.14258,-144.536,332
1570004072,318.567,83.9391,-17.3013,179.011,1.14258,-144.536,332
1570004072,318.567,83.9391,-17.3013,179.011,1.14258,-144.536,332
1570004072,318.567,83.9391,-17.3013,179.011,1.14258,-144.536,336
1570004072,318.567,83.9391,-17.3013,179.033,1.14258,-144.536,336
1570004072,318.567,83.9391,-17.3013,179.033,1.14258,-144.536,336
1570004072,318.567,83.9391,-17.3013,179.033,1.14258,-144.536,336
1570004072,318.567,83.9391,-17.3013,179.033,1.14258,-144.536,336
1570004072,318.567,83.9391,-17.3013,179.033,1.14258,-144.536,336
1570004072,318.567,83.9391,-17.4129,179.033,1.14258,-144.536,336
1570004072,318.567,83.9391,-17.4129,179.033,1.14258,-144.536,336
1570004072,318.567,83.9391,-17.4129,179.033,1.14258,-144.536,336
1570004072,318.567,83.9391,-17.4129,179.011,1.14258,-144.536,336
1570004072,318.567,83.9391,-17.4129,179.011,1.14258,-144.536,336
1570004072,318.567,83.9391,-17.4129,179.011,1.14258,-144.536,336
1570004072,318.567,83.9391,-17.4129,179.011,1.14258,-144.536,336
1570004072,318.567,83.9391,-17.4129,179.011,1.14258,-144.536,336
1570004072,318.567,83.9391,-17.4129,179.011,1.14258,-144.536,336
1570004072,318.567,83.9391,-17.4129,179.033,1.14258,-144.536,336
1570004072,318.567,83.9391,-17.4129,179.033,1.14258,-144.536,336
1570004072,318.567,83.9391,-17.4129,179.033,1.14258,-144.536,336
1570004072,318.567,83.9391,-17.4129,179.033,1.14258,-144.536,336
1570004072,318.567,83.9391,-17.4129,179.033,1.14258,-144.536,336
1570004072,318.567,83.9391,-17.4129,179.033,1.14258,-144.536,336
1570004072,318.567,83.9391,-17.4129,179.033,1.14258,-144.536,336
1570004072,318.567,83.9391,-17.4129,179.033,1.14258,-144.536,336
1570004072,318.567,83.9391,-17.4129,179.033,1.14258,-144.536,336
1570004072,318.567,83.9391,-17.3013,179.033,1.14258,-144.536,336
1570004072,318.567,83.9391,-17.3013,179.033,1.14258,-144.536,336
1570004072,318.567,83.9391,-17.3013,179.033,1.14258,-144.536,336
1570004072,318.567,83.9391,-17.3013,179.033,1.14258,-144.536,336
1570004072,318.567,83.9391,-17.3013,179.033,1.14258,-144.536,336
1570004072,318.567,83.9391,-17.4129,179.033,1.14258,-144.536,336
1570004072,318.567,83.9391,-17.4129,179.033,1.14258,-144.536,340
1570004072,318.567,83.9391,-17.4129,179.033,1.14258,-144.536,340
1570004072,318.567,83.9391,-17.4129,179.033,1.14258,-144.536,340
1570004072,318.567,83.9391,-17.4129,179.033,1.14258,-144.536,340
1570004072,318.567,83.9391,-17.4129,179.033,1.14258,-144.536,340
1570004072,318.567,83.9391,-17.4129,179.033,1.14258,-144.536,340
1570004072,318.567,83.9391,-17.4129,179.033,1.14258,-144.536,340
1570004072,318.567,83.9391,-17.4129,179.033,1.14258,-144.536,340
1570004072,318.567,83.9391,-17.4129,179.033,1.14258,-144.536,340
1570004072,318.567,83.9391,-17.4129,179.033,1.14258,-144.536,340
1570004072,318.567,83.9391,-17.4129,179.033,1.14258,-144.536,340
1570004072,318.567,83.9391,-17.4129,179.033,1.14258,-144.536,340
1570004072,318.567,83.9391,-17.4129,179.033,1.14258,-144.536,340
1570004072,318.567,83.9391,-17.4129,179.033,1.14258,-144.536,340
1570004072,318.567,83.9391,-17.4129,179.033,1.12061,-144.536,340
1570004072,318.567,83.9391,-17.4129,179.033,1.12061,-144.536,340
1570004072,318.567,83.9391,-17.4129,179.033,1.12061,-144.536,340
1570004072,318.567,83.9391,-17.4129,179.033,1.12061,-144.536,340
1570004072,318.567,83.9391,-17.4129,179.033,1.12061,-144.536,340
1570004072,318.567,83.9391,-17.4129,179.033,1.12061,-144.536,340
1570004072,318.567,83.9391,-17.4129,179.033,1.12061,-144.536,340
1570004072,318.567,83.9391,-17.4129,179.033,1.12061,-144.536,344
1570004072,318.567,83.9391,-17.4129,179.033,1.14258,-144.536,344
1570004072,318.567,83.9391,-17.4129,179.033,1.14258,-144.536,344
1570004072,318.567,83.9391,-17.4129,179.033,1.14258,-144.536,344
1570004072,318.567,83.9391,-17.4129,179.033,1.14258,-144.536,344
1570004072,318.567,83.9391,-17.4129,179.033,1.14258,-144.536,344
1570004072,318.567,83.9391,-17.4129,179.033,1.14258,-144.536,344
1570004072,318.567,83.9391,-17.4129,179.033,1.14258,-144.536,344
1570004072,318.567,83.9391,-17.4129,179.033,1.14258,-144.536,344
1570004072,318.567,83.9391,-17.4129,179.033,1.14258,-144.536,344
1570004072,318.567,83.9391,-17.4129,179.033,1.14258,-144.536,340
1570004072,318.567,83.9391,-17.4129,179.033,1.14258,-144.536,340
1570004072,318.567,83.9391,-17.4129,179.033,1.14258,-144.536,340
1570004072,318.567,83.9391,-17.4129,179.033,1.14258,-144.536,340
1570004072,318.567,83.9391,-17.4129,179.033,1.14258,-144.536,340
1570004072,318.567,83.9391,-17.4129,179.033,1.14258,-144.536,340
1570004072,318.567,83.9391,-17.4129,179.033,1.14258,-144.536,340
1570004072,318.567,83.9391,-17.4129,179.033,1.14258,-144.536,340
1570004072,318.567,83.9391,-17.4129,179.033,1.14258,-144.536,344
1570004072,318.567,83.9391,-17.4129,179.033,1.12061,-144.536,344
1570004072,318.567,83.9391,-17.4129,179.033,1.12061,-144.536,344
1570004072,318.567,83.9391,-17.4129,179.033,1.12061,-144.536,344
1570004073,318.567,83.9391,-17.4129,179.033,1.12061,-144.536,344
1570004073,318.567,83.9391,-17.4129,179.033,1.12061,-144.536,344
1570004073,318.567,83.9391,-17.4129,179.033,1.12061,-144.536,344
1570004073,318.567,83.9391,-17.4129,179.033,1.12061,-144.536,344
1570004076,341.561,59.2708,-16.9664,179.055,1.27441,-144.448,400
1570004076,341.561,59.2708,-16.9664,179.055,1.27441,-144.448,400
1570004076,341.561,59.2708,-16.9664,179.055,1.27441,-144.448,400
1570004077,341.561,59.2708,-16.9664,179.055,1.27441,-144.448,400
1570004077,341.561,59.2708,-16.9664,179.055,1.27441,-144.448,400
1570004077,341.561,59.2708,-16.9664,179.055,1.27441,-144.448,400
1570004077,341.561,59.2708,-16.9664,179.055,1.27441,-144.448,396
1570004077,341.672,59.2708,-16.9664,179.055,1.27441,-144.448,396
1570004077,341.672,59.2708,-16.9664,179.055,1.27441,-144.448,396
1570004077,341.672,59.2708,-16.9664,179.055,1.27441,-144.448,396
1570004077,341.672,59.2708,-16.9664,179.055,1.27441,-144.448,396
1570004077,341.672,59.2708,-16.9664,179.055,1.27441,-144.448,396
1570004077,341.672,59.2708,-16.9664,179.055,1.27441,-144.448,396
1570004077,341.672,59.2708,-16.9664,179.055,1.27441,-144.448,396
1570004077,341.672,59.2708,-16.9664,179.055,1.27441,-144.47,396
1570004077,341.561,59.2708,-16.9664,179.055,1.27441,-144.47,396
1570004077,341.561,59.2708,-16.9664,179.055,1.27441,-144.47,396
1570004077,341.561,59.2708,-16.9664,179.055,1.27441,-144.47,396
1570004077,341.561,59.2708,-16.9664,179.077,1.27441,-144.47,396
1570004077,341.561,59.2708,-16.9664,179.077,1.27441,-144.47,396
1570004077,341.561,59.2708,-16.9664,179.077,1.27441,-144.47,400
1570004077,341.561,59.2708,-16.9664,179.077,1.27441,-144.47,400
1570004077,341.561,59.2708,-16.9664,179.077,1.27441,-144.47,400
1570004077,341.561,59.2708,-16.9664,179.077,1.27441,-144.47,404
1570004077,341.561,59.2708,-16.9664,179.077,1.27441,-144.47,404
1570004077,341.561,59.2708,-16.9664,179.077,1.27441,-144.47,404
1570004077,341.561,59.2708,-16.9664,179.077,1.27441,-144.47,404
1570004077,341.561,59.2708,-16.9664,179.077,1.27441,-144.47,404
1570004077,341.561,59.2708,-16.9664,179.077,1.27441,-144.47,408
1570004077,341.561,59.2708,-16.9664,179.077,1.27441,-144.47,408
1570004077,341.561,59.2708,-16.9664,179.077,1.27441,-144.47,408
1570004077,341.561,59.2708,-16.9664,179.077,1.27441,-144.47,408
1570004077,341.561,59.2708,-16.9664,179.077,1.27441,-144.47,408
1570004077,341.561,59.2708,-16.9664,179.077,1.27441,-144.47,408
1570004077,341.561,59.2708,-16.9664,179.077,1.27441,-144.47,408
1570004077,341.561,59.2708,-16.9664,179.077,1.27441,-144.47,408
1570004077,341.561,59.2708,-16.9664,179.077,1.27441,-144.47,408
1570004077,341.561,59.2708,-16.9664,179.077,1.27441,-144.47,408
1570004077,341.561,59.2708,-16.9664,179.077,1.27441,-144.47,408
1570004077,341.561,59.2708,-16.9664,179.077,1.27441,-144.47,408
1570004077,341.561,59.2708,-16.9664,179.077,1.25244,-144.47,408
1570004077,341.561,59.2708,-16.9664,179.077,1.25244,-144.47,408
1570004077,341.561,59.2708,-16.9664,179.077,1.25244,-144.47,408
1570004077,341.561,59.2708,-16.9664,179.077,1.25244,-144.47,408
1570004077,341.561,59.2708,-16.9664,179.077,1.25244,-144.47,408
1570004077,341.561,59.2708,-16.9664,179.055,1.25244,-144.47,408
1570004077,341.561,59.2708,-16.9664,179.055,1.25244,-144.47,408
1570004077,341.561,59.2708,-16.9664,179.055,1.27441,-144.47,408
1570004077,341.561,59.2708,-16.9664,179.055,1.27441,-144.47,408
1570004077,341.561,59.2708,-16.9664,179.055,1.27441,-144.47,412
1570004077,341.561,59.2708,-16.9664,179.055,1.27441,-144.47,412
1570004077,341.561,59.2708,-16.9664,179.055,1.27441,-144.47,412
1570004077,341.561,59.2708,-16.9664,179.055,1.27441,-144.47,412
1570004077,341.561,59.2708,-16.9664,179.055,1.27441,-144.47,412
1570004077,341.561,59.2708,-16.9664,179.077,1.27441,-144.47,408
1570004077,341.561,59.2708,-16.9664,179.077,1.27441,-144.47,408
1570004077,341.561,59.2708,-16.9664,179.077,1.27441,-144.47,408
1570004077,341.561,59.2708,-16.9664,179.077,1.27441,-144.47,408
1570004077,341.561,59.2708,-16.9664,179.077,1.27441,-144.47,408
1570004077,341.561,59.2708,-16.9664,179.077,1.27441,-144.47,408
1570004077,341.561,59.2708,-16.9664,179.077,1.27441,-144.47,408
1570004077,341.561,59.2708,-16.9664,179.077,1.27441,-144.47,408
1570004077,341.561,59.2708,-16.9664,179.077,1.27441,-144.47,408
1570004077,341.561,59.2708,-16.9664,179.077,1.27441,-144.47,408
1570004077,341.561,59.2708,-16.9664,179.077,1.27441,-144.47,408
1570004077,341.561,59.2708,-16.9664,179.077,1.27441,-144.47,408
1570004077,341.561,59.2708,-16.9664,179.077,1.25244,-144.47,408
1570004077,341.561,59.2708,-16.9664,179.077,1.25244,-144.47,408
1570004077,341.561,59.2708,-16.9664,179.077,1.25244,-144.47,408
1570004077,341.561,59.2708,-16.9664,179.077,1.25244,-144.47,408
1570004077,341.561,59.2708,-16.9664,179.077,1.25244,-144.47,408
1570004077,341.561,59.2708,-16.9664,179.077,1.25244,-144.47,408
1570004077,341.561,59.2708,-16.9664,179.077,1.25244,-144.47,408
1570004077,341.561,59.2708,-16.9664,179.077,1.25244,-144.47,408
1570004077,341.561,59.2708,-16.9664,179.077,1.25244,-144.47,408
1570004077,341.561,59.2708,-16.9664,179.077,1.25244,-144.47,408
1570004077,341.561,59.2708,-16.9664,179.077,1.25244,-144.47,408
1570004077,341.561,59.2708,-16.9664,179.077,1.25244,-144.47,408
1570004077,341.561,59.2708,-16.9664,179.077,1.25244,-144.47,408
1570004077,341.561,59.2708,-16.9664,179.077,1.25244,-144.47,408
1570004077,341.561,59.2708,-16.9664,179.055,1.25244,-144.47,408
1570004077,341.561,59.2708,-16.9664,179.055,1.25244,-144.47,404
1570004077,341.561,59.2708,-17.078,179.055,1.25244,-144.47,404
1570004077,341.561,59.2708,-17.078,179.055,1.25244,-144.47,408
1570004077,341.561,59.2708,-17.078,179.055,1.25244,-144.47,408
1570004077,341.561,59.2708,-17.078,179.055,1.25244,-144.47,408
1570004077,341.561,59.2708,-17.078,179.055,1.25244,-144.47,408
1570004077,341.561,59.2708,-17.078,179.055,1.25244,-144.47,408
1570004077,341.561,59.2708,-17.078,179.055,1.25244,-144.47,408
1570004077,341.561,59.2708,-17.078,179.055,1.25244,-144.47,408
1570004077,341.561,59.2708,-17.078,179.055,1.25244,-144.47,408
1570004077,341.561,59.2708,-17.078,179.055,1.25244,-144.47,408
1570004077,341.561,59.2708,-17.078,179.055,1.25244,-144.47,404
1570004077,341.561,59.2708,-17.078,179.055,1.25244,-144.47,404
1570004077,341.561,59.2708,-17.078,179.055,1.25244,-144.47,404
1570004077,341.561,59.2708,-17.078,179.055,1.25244,-144.47,404
1570004077,341.561,59.2708,-17.078,179.055,1.25244,-144.47,404
1570004077,341.561,59.2708,-17.078,179.055,1.25244,-144.47,404
1570004077,341.561,59.2708,-16.9664,179.055,1.25244,-144.47,404
1570004077,341.561,59.2708,-16.9664,179.055,1.25244,-144.47,400
1570004077,341.561,59.2708,-16.9664,179.055,1.25244,-144.47,400
1570004077,341.561,59.2708,-16.9664,179.055,1.25244,-144.47,400
1570004077,341.561,59.2708,-16.9664,179.055,1.25244,-144.47,400
1570004078,341.561,59.2708,-16.9664,179.055,1.25244,-144.47,400
1570004078,341.561,59.2708,-16.9664,179.055,1.25244,-144.47,400
1570004078,341.561,59.2708,-16.9664,179.055,1.25244,-144.47,400
1570004078,341.561,59.2708,-16.9664,179.055,1.25244,-144.47,400
1570004078,341.561,59.2708,-16.9664,179.055,1.25244,-144.47,400
1570004078,341.561,59.2708,-16.9664,179.055,1.25244,-144.47,400
1570004078,341.561,59.2708,-16.9664,179.055,1.25244,-144.47,400
1570004078,341.561,59.2708,-16.9664,179.077,1.27441,-144.47,400
1570004078,341.561,59.2708,-16.9664,179.077,1.27441,-144.47,400
1570004078,341.561,59.3824,-16.9664,179.077,1.27441,-144.47,400
1570004078,341.561,59.3824,-16.9664,179.077,1.27441,-144.47,400
1570004078,341.561,59.3824,-16.9664,179.077,1.27441,-144.47,400
1570004078,341.561,59.3824,-16.9664,179.077,1.27441,-144.47,400
1570004078,341.561,59.3824,-16.9664,179.077,1.27441,-144.47,404
1570004078,341.561,59.3824,-16.9664,179.077,1.27441,-144.47,404
1570004078,341.561,59.3824,-16.9664,179.077,1.27441,-144.47,404
1570004078,341.561,59.3824,-16.9664,179.077,1.27441,-144.47,404
1570004078,341.561,59.3824,-16.9664,179.077,1.27441,-144.47,404
1570004078,341.561,59.3824,-16.9664,179.077,1.27441,-144.47,404
1570004078,341.561,59.3824,-16.9664,179.077,1.27441,-144.47,404
1570004078,341.561,59.3824,-16.9664,179.077,1.27441,-144.47,404
1570004078,341.561,59.3824,-16.9664,179.077,1.27441,-144.492,404
1570004078,341.561,59.3824,-16.9664,179.077,1.27441,-144.492,404
1570004078,341.561,59.3824,-16.9664,179.077,1.27441,-144.492,404
1570004078,341.561,59.2708,-16.9664,179.077,1.27441,-144.492,404
1570004078,341.561,59.2708,-16.9664,179.077,1.27441,-144.492,404
1570004078,341.561,59.2708,-16.9664,179.077,1.27441,-144.492,404
1570004078,341.561,59.2708,-16.9664,179.077,1.27441,-144.492,404
1570004078,341.561,59.2708,-16.9664,179.077,1.27441,-144.492,404
1570004078,341.561,59.2708,-16.9664,179.077,1.27441,-144.492,400
1570004078,341.561,59.2708,-16.9664,179.077,1.27441,-144.492,400
1570004078,341.561,59.2708,-16.9664,179.077,1.27441,-144.492,400
1570004078,341.561,59.2708,-16.9664,179.077,1.27441,-144.47,400
1570004078,341.561,59.2708,-16.9664,179.077,1.27441,-144.47,400
1570004078,341.561,59.2708,-16.9664,179.077,1.25244,-144.47,396
1570004078,341.561,59.2708,-16.9664,179.077,1.25244,-144.47,396
1570004078,341.561,59.2708,-16.9664,179.077,1.25244,-144.47,396
1570004078,341.561,59.2708,-16.9664,179.077,1.25244,-144.47,396
1570004078,341.561,59.2708,-16.9664,179.077,1.25244,-144.47,396
1570004078,341.561,59.2708,-16.9664,179.077,1.25244,-144.47,392
1570004078,341.561,59.2708,-16.9664,179.077,1.25244,-144.47,392
1570004078,341.561,59.2708,-16.9664,179.077,1.25244,-144.47,392
1570004078,341.561,59.2708,-16.9664,179.077,1.25244,-144.47,392
1570004078,341.561,59.2708,-16.9664,179.077,1.25244,-144.47,392
1570004078,341.561,59.2708,-16.9664,179.077,1.27441,-144.47,392
1570004078,341.561,59.2708,-16.9664,179.055,1.27441,-144.47,392
1570004078,341.561,59.2708,-16.9664,179.055,1.27441,-144.47,396
1570004078,341.561,59.2708,-16.9664,179.055,1.27441,-144.47,396
1570004078,341.561,59.2708,-16.9664,179.055,1.27441,-144.47,396
1570004078,341.561,59.2708,-16.9664,179.055,1.27441,-144.47,396
1570004078,341.561,59.2708,-16.9664,179.055,1.27441,-144.47,396
1570004078,341.561,59.2708,-16.9664,179.055,1.27441,-144.47,400
1570004078,341.561,59.2708,-16.9664,179.055,1.27441,-144.47,400
1570004078,341.561,59.2708,-16.9664,179.055,1.27441,-144.47,400
1570004078,341.561,59.2708,-16.9664,179.055,1.25244,-144.47,400
1570004078,341.561,59.2708,-16.9664,179.055,1.25244,-144.47,400
1570004078,341.561,59.2708,-16.9664,179.077,1.25244,-144.47,404
1570004078,341.561,59.2708,-16.9664,179.077,1.25244,-144.47,404
1570004078,341.561,59.2708,-16.9664,179.077,1.25244,-144.47,404
1570004078,341.561,59.2708,-16.9664,179.077,1.25244,-144.47,404
1570004078,341.561,59.2708,-16.9664,179.077,1.25244,-144.47,404
1570004078,341.561,59.2708,-16.9664,179.077,1.25244,-144.47,404
1570004078,341.561,59.2708,-16.9664,179.077,1.25244,-144.47,404
1570004078,341.561,59.2708,-16.9664,179.055,1.25244,-144.47,400
1570004078,341.561,59.2708,-16.9664,179.055,1.25244,-144.47,400
1570004078,341.561,59.2708,-16.9664,179.055,1.25244,-144.47,400
1570004078,341.672,59.2708,-16.9664,179.055,1.27441,-144.47,400
1570004078,341.672,59.2708,-16.9664,179.055,1.27441,-144.47,400
1570004078,341.672,59.2708,-16.9664,179.055,1.27441,-144.47,400
1570004078,341.561,59.2708,-16.9664,179.055,1.27441,-144.47,400
1570004078,341.561,59.2708,-16.9664,179.055,1.27441,-144.47,400
1570004078,341.561,59.2708,-16.9664,179.055,1.27441,-144.47,400
1570004078,341.561,59.2708,-16.9664,179.055,1.27441,-144.47,396
1570004078,341.561,59.2708,-16.9664,179.055,1.27441,-144.47,396
1570004078,341.561,59.2708,-16.9664,179.055,1.27441,-144.47,400
1570004078,341.561,59.2708,-16.9664,179.055,1.27441,-144.47,400
1570004078,341.561,59.2708,-16.9664,179.055,1.27441,-144.47,400
1570004078,341.561,59.2708,-16.9664,179.055,1.27441,-144.47,400
1570004078,341.561,59.2708,-16.9664,179.055,1.27441,-144.47,400
1570004078,341.561,59.2708,-16.9664,179.055,1.27441,-144.47,400
1570004078,341.561,59.2708,-16.9664,179.033,1.27441,-144.47,400
1570004078,341.561,59.2708,-16.9664,179.033,1.27441,-144.47,400
1570004078,341.561,59.2708,-16.9664,179.033,1.25244,-144.47,400
1570004078,341.561,59.2708,-16.9664,179.033,1.25244,-144.47,400
1570004078,341.561,59.2708,-16.9664,179.033,1.25244,-144.47,400
1570004078,341.561,59.2708,-16.9664,179.033,1.25244,-144.47,400
1570004078,341.561,59.2708,-16.9664,179.033,1.27441,-144.47,400
1570004078,341.561,59.2708,-16.9664,179.033,1.27441,-144.47,400
1570004078,341.561,59.2708,-16.9664,179.033,1.27441,-144.47,400
1570004078,341.561,59.2708,-16.9664,179.055,1.27441,-144.47,400
1570004078,341.561,59.2708,-16.9664,179.055,1.27441,-144.47,400
1570004078,341.561,59.2708,-16.9664,179.055,1.25244,-144.47,400
1570004078,341.561,59.2708,-16.9664,179.055,1.25244,-144.47,400
1570004078,341.561,59.2708,-16.9664,179.055,1.25244,-144.47,400
1570004078,341.561,59.2708,-16.9664,179.055,1.25244,-144.47,400
1570004078,341.561,59.2708,-16.9664,179.055,1.25244,-144.47,400
1570004078,341.561,59.2708,-16.9664,179.055,1.25244,-144.47,400
1570004078,341.561,59.2708,-16.9664,179.055,1.25244,-144.47,400
1570004078,341.561,59.2708,-16.9664,179.055,1.25244,-144.47,400
1570004078,341.561,59.2708,-16.9664,179.055,1.25244,-144.47,400
1570004079,341.561,59.2708,-16.9664,179.055,1.25244,-144.47,400
1570004079,341.561,59.2708,-16.9664,179.055,1.25244,-144.47,400
1570004079,341.561,59.2708,-16.9664,179.055,1.25244,-144.47,400
1570004079,341.561,59.2708,-16.9664,179.055,1.25244,-144.47,400
1570004079,341.561,59.2708,-16.9664,179.055,1.25244,-144.47,400
1570004079,341.561,59.2708,-16.9664,179.033,1.25244,-144.47,400
1570004079,341.561,59.1592,-16.9664,179.033,1.25244,-144.47,400
1570004079,341.561,59.1592,-16.9664,179.033,1.25244,-144.47,400
1570004079,341.561,59.1592,-16.9664,179.033,1.25244,-144.47,400
1570004079,341.561,59.1592,-16.9664,179.033,1.25244,-144.47,400
1570004079,341.561,59.1592,-16.9664,179.033,1.25244,-144.47,400
1570004079,341.561,59.1592,-17.078,179.033,1.25244,-144.47,400
1570004079,341.561,59.1592,-17.078,179.033,1.25244,-144.47,400
1570004079,341.561,59.1592,-17.078,179.033,1.25244,-144.47,400
1570004079,341.561,59.1592,-17.078,179.033,1.25244,-144.47,400
1570004079,341.561,59.1592,-17.078,179.033,1.25244,-144.47,400
1570004079,341.561,59.1592,-17.078,179.033,1.25244,-144.47,400
1570004079,341.561,59.1592,-17.078,179.033,1.25244,-144.47,400
1570004079,341.561,59.1592,-17.078,179.055,1.25244,-144.47,400
1570004079,341.561,59.2708,-17.078,179.055,1.25244,-144.47,400
1570004079,341.561,59.2708,-17.078,179.055,1.25244,-144.47,400
1570004079,341.561,59.2708,-17.078,179.055,1.25244,-144.47,400
1570004079,341.561,59.2708,-17.078,179.055,1.25244,-144.47,400
1570004079,341.561,59.2708,-17.078,179.055,1.25244,-144.47,396
1570004079,341.561,59.2708,-17.078,179.055,1.25244,-144.47,396
1570004079,341.561,59.2708,-17.078,179.055,1.25244,-144.47,396
1570004079,341.561,59.2708,-17.078,179.055,1.23047,-144.47,396
1570004079,341.561,59.2708,-17.078,179.055,1.23047,-144.47,396
1570004079,341.561,59.2708,-17.078,179.055,1.23047,-144.47,396
1570004079,341.561,59.2708,-17.078,179.055,1.23047,-144.47,396
1570004079,341.561,59.2708,-17.078,179.055,1.23047,-144.47,400
1570004079,341.561,59.2708,-17.078,179.055,1.23047,-144.47,400
1570004079,341.561,59.2708,-17.078,179.055,1.23047,-144.47,400
1570004079,341.561,59.2708,-17.078,179.055,1.23047,-144.47,400
1570004079,341.561,59.2708,-17.078,179.055,1.25244,-144.47,400
1570004079,341.561,59.2708,-17.078,179.055,1.25244,-144.47,400
1570004079,341.561,59.2708,-17.078,179.055,1.25244,-144.47,400
1570004079,341.561,59.2708,-17.078,179.055,1.25244,-144.47,400
1570004079,341.561,59.2708,-17.078,179.055,1.25244,-144.47,400
1570004079,341.561,59.2708,-17.078,179.055,1.25244,-144.47,400
1570004079,341.561,59.2708,-17.078,179.077,1.25244,-144.47,404
1570004079,341.449,59.2708,-17.078,179.077,1.25244,-144.47,404
1570004079,341.449,59.2708,-17.078,179.077,1.25244,-144.47,404
1570004079,341.449,59.2708,-17.078,179.077,1.25244,-144.47,404
1570004079,341.561,59.2708,-17.078,179.077,1.25244,-144.47,404
1570004079,341.561,59.2708,-17.078,179.077,1.25244,-144.47,404
1570004079,341.561,59.2708,-17.078,179.077,1.23047,-144.47,404
1570004079,341.561,59.2708,-17.078,179.077,1.23047,-144.47,404
1570004079,341.561,59.2708,-17.078,179.077,1.23047,-144.47,404
1570004079,341.561,59.2708,-17.078,179.077,1.23047,-144.47,404
1570004079,341.561,59.2708,-17.078,179.077,1.23047,-144.47,404
1570004079,341.561,59.2708,-17.078,179.077,1.23047,-144.47,404
1570004079,341.561,59.2708,-17.078,179.077,1.23047,-144.47,404
1570004079,341.561,59.2708,-17.078,179.077,1.23047,-144.47,404
1570004079,341.561,59.2708,-17.078,179.077,1.25244,-144.47,404
1570004079,341.561,59.2708,-17.078,179.077,1.25244,-144.47,404
1570004079,341.561,59.2708,-17.078,179.077,1.25244,-144.47,404
1570004079,341.561,59.2708,-17.078,179.077,1.25244,-144.47,404
1570004079,341.561,59.2708,-17.078,179.077,1.25244,-144.47,404
1570004079,341.561,59.2708,-17.078,179.077,1.25244,-144.47,404
1570004079,341.561,59.2708,-17.078,179.077,1.25244,-144.47,404
1570004079,341.561,59.2708,-16.9664,179.055,1.25244,-144.47,404
1570004079,341.561,59.2708,-16.9664,179.055,1.25244,-144.47,404
1570004079,341.561,59.2708,-16.9664,179.055,1.25244,-144.47,404
1570004079,341.561,59.2708,-17.078,179.055,1.25244,-144.47,404
1570004079,341.561,59.2708,-17.078,179.055,1.25244,-144.47,404
1570004079,341.561,59.2708,-17.078,179.055,1.25244,-144.47,404
1570004079,341.561,59.2708,-17.078,179.055,1.25244,-144.47,404
1570004079,341.561,59.2708,-17.078,179.055,1.25244,-144.47,404
1570004079,341.561,59.2708,-17.078,179.055,1.23047,-144.47,404
1570004079,341.561,59.2708,-17.078,179.055,1.23047,-144.47,404
1570004079,341.561,59.2708,-17.078,179.055,1.23047,-144.47,404
1570004079,341.561,59.2708,-17.078,179.055,1.23047,-144.47,404
1570004079,341.561,59.2708,-17.078,179.055,1.23047,-144.47,404
1570004079,341.561,59.2708,-17.078,179.055,1.23047,-144.47,404
1570004079,341.561,59.2708,-17.078,179.055,1.23047,-144.47,404
1570004079,341.561,59.2708,-17.078,179.055,1.23047,-144.47,404
1570004079,341.561,59.2708,-17.078,179.055,1.25244,-144.47,404
1570004079,341.561,59.2708,-17.078,179.055,1.25244,-144.47,404
1570004079,341.561,59.2708,-17.078,179.055,1.25244,-144.47,404
1570004079,341.561,59.2708,-17.078,179.055,1.25244,-144.47,404
1570004079,341.561,59.2708,-17.078,179.055,1.25244,-144.47,404
1570004079,341.561,59.2708,-17.078,179.055,1.25244,-144.47,404
1570004079,341.561,59.2708,-16.9664,179.055,1.25244,-144.47,404
1570004079,341.561,59.2708,-16.9664,179.055,1.25244,-144.47,404
1570004079,341.561,59.2708,-16.9664,179.055,1.25244,-144.47,404
1570004079,341.561,59.2708,-16.9664,179.055,1.25244,-144.47,404
1570004079,341.561,59.2708,-16.9664,179.055,1.25244,-144.47,404
1570004079,341.561,59.2708,-16.9664,179.055,1.25244,-144.47,404
1570004079,341.561,59.2708,-17.078,179.055,1.25244,-144.47,408
1570004079,341.561,59.2708,-17.078,179.055,1.25244,-144.47,408
1570004079,341.561,59.2708,-17.078,179.033,1.25244,-144.47,408
1570004079,341.561,59.2708,-17.078,179.033,1.25244,-144.47,408
1570004079,341.561,59.2708,-17.078,179.033,1.25244,-144.47,408
1570004079,341.561,59.2708,-17.078,179.033,1.25244,-144.47,408
1570004079,341.561,59.2708,-17.078,179.033,1.25244,-144.47,408
1570004079,341.561,59.2708,-16.9664,179.033,1.25244,-144.47,408
1570004079,341.561,59.2708,-16.9664,179.033,1.25244,-144.47,408
1570004079,341.561,59.2708,-16.9664,179.033,1.25244,-144.47,412
1570004079,341.561,59.2708,-16.9664,179.033,1.25244,-144.47,412
1570004080,341.561,59.2708,-16.9664,179.033,1.25244,-144.47,412
1570004080,341.561,59.2708,-16.9664,179.033,1.25244,-144.47,412
1570004080,341.561,59.2708,-16.9664,179.033,1.25244,-144.47,412
1570004080,341.561,59.2708,-16.9664,179.033,1.25244,-144.47,412
1570004080,341.561,59.2708,-16.9664,179.033,1.25244,-144.47,412
1570004080,341.561,59.2708,-16.9664,179.033,1.27441,-144.47,412
1570004080,341.561,59.2708,-16.9664,179.033,1.27441,-144.47,412
1570004080,341.561,59.2708,-16.9664,179.033,1.27441,-144.47,412
1570004080,341.561,59.2708,-16.9664,179.055,1.27441,-144.47,412
1570004080,341.561,59.2708,-16.9664,179.055,1.27441,-144.47,412
1570004080,341.561,59.2708,-16.9664,179.055,1.27441,-144.47,412
1570004080,341.561,59.2708,-16.9664,179.055,1.27441,-144.47,412
1570004080,341.561,59.2708,-16.9664,179.055,1.27441,-144.47,412
1570004080,341.561,59.2708,-16.9664,179.055,1.27441,-144.47,412
1570004080,341.561,59.2708,-16.9664,179.055,1.27441,-144.47,412
1570004080,341.561,59.2708,-16.9664,179.055,1.27441,-144.47,412
1570004080,341.561,59.2708,-16.9664,179.055,1.27441,-144.47,412
1570004080,341.561,59.2708,-16.9664,179.077,1.27441,-144.47,412
1570004080,341.561,59.2708,-16.9664,179.077,1.27441,-144.47,412
1570004080,341.561,59.2708,-16.9664,179.077,1.27441,-144.47,412
1570004080,341.561,59.2708,-16.9664,179.077,1.29639,-144.47,412
1570004080,341.561,59.2708,-16.9664,179.077,1.29639,-144.47,412
1570004080,341.561,59.2708,-16.9664,179.077,1.29639,-144.47,412
1570004080,341.561,59.2708,-16.9664,179.077,1.29639,-144.47,412
1570004080,341.561,59.2708,-16.9664,179.077,1.29639,-144.47,412
1570004080,341.561,59.2708,-16.9664,179.077,1.29639,-144.47,412
1570004080,341.561,59.2708,-16.9664,179.077,1.29639,-144.47,412
1570004080,341.561,59.2708,-16.9664,179.077,1.29639,-144.47,412
1570004080,341.561,59.2708,-16.9664,179.077,1.29639,-144.47,416
1570004080,341.561,59.2708,-16.9664,179.077,1.29639,-144.47,416
1570004080,341.561,59.2708,-16.8548,179.077,1.29639,-144.47,416
1570004080,341.561,59.2708,-16.8548,179.077,1.29639,-144.47,416
1570004080,341.561,59.2708,-16.8548,179.077,1.29639,-144.47,416
1570004080,341.561,59.2708,-16.8548,179.077,1.29639,-144.47,416
1570004080,341.561,59.2708,-16.8548,179.077,1.29639,-144.47,416
1570004080,341.561,59.2708,-16.8548,179.077,1.29639,-144.47,416
1570004080,341.561,59.2708,-16.8548,179.077,1.29639,-144.47,416
1570004080,341.561,59.3824,-16.8548,179.077,1.29639,-144.47,416
1570004080,341.561,59.3824,-16.8548,179.077,1.29639,-144.47,416
1570004080,341.672,59.3824,-16.8548,179.077,1.29639,-144.47,412
1570004080,341.672,59.3824,-16.9664,179.077,1.29639,-144.47,412
1570004080,341.672,59.3824,-16.9664,179.077,1.29639,-144.47,412
1570004080,341.672,59.3824,-16.9664,179.077,1.29639,-144.47,408
1570004080,341.672,59.3824,-16.9664,179.077,1.27441,-144.47,408
1570004080,341.672,59.3824,-16.9664,179.077,1.27441,-144.47,408
1570004080,341.672,59.3824,-16.9664,179.077,1.27441,-144.47,404
1570004080,341.672,59.3824,-16.9664,179.077,1.27441,-144.47,404
1570004080,341.672,59.3824,-16.9664,179.077,1.27441,-144.47,404
1570004080,341.672,59.3824,-16.9664,179.077,1.27441,-144.47,400
1570004080,341.672,59.3824,-16.9664,179.077,1.25244,-144.47,400
1570004080,341.672,59.3824,-16.9664,179.077,1.25244,-144.47,400
1570004080,341.672,59.3824,-16.9664,179.077,1.25244,-144.47,396
1570004080,341.672,59.3824,-16.9664,179.077,1.25244,-144.47,396
1570004080,341.672,59.3824,-16.9664,179.077,1.25244,-144.47,396
1570004080,341.672,59.3824,-16.9664,179.077,1.25244,-144.47,396
1570004080,341.672,59.3824,-16.9664,179.077,1.25244,-144.47,396
1570004080,341.672,59.2708,-16.9664,179.077,1.25244,-144.47,396
1570004080,341.672,59.2708,-16.9664,179.077,1.25244,-144.492,400
1570004080,341.672,59.2708,-16.9664,179.077,1.25244,-144.492,400
1570004080,341.672,59.2708,-16.9664,179.077,1.25244,-144.492,400
1570004080,341.672,59.2708,-16.9664,179.077,1.25244,-144.492,400
1570004080,341.672,59.2708,-16.9664,179.077,1.25244,-144.492,400
1570004080,341.672,59.2708,-17.078,179.077,1.25244,-144.492,400
1570004080,341.672,59.2708,-17.078,179.077,1.25244,-144.492,400
1570004080,341.672,59.2708,-17.078,179.077,1.25244,-144.492,400
1570004080,341.672,59.2708,-17.078,179.077,1.25244,-144.492,400
1570004080,341.672,59.2708,-16.9664,179.077,1.25244,-144.492,400
1570004080,341.672,59.2708,-16.9664,179.077,1.25244,-144.492,400
1570004080,341.672,59.2708,-16.9664,179.077,1.25244,-144.492,400
1570004080,341.672,59.2708,-16.9664,179.077,1.25244,-144.492,400
1570004080,341.672,59.2708,-16.9664,179.077,1.25244,-144.492,400
1570004080,341.672,59.2708,-16.9664,179.055,1.25244,-144.492,396
1570004080,341.672,59.2708,-16.9664,179.055,1.25244,-144.492,396
1570004080,341.672,59.2708,-16.9664,179.055,1.25244,-144.492,396
1570004080,341.672,59.2708,-16.9664,179.055,1.25244,-144.492,396
1570004080,341.672,59.2708,-16.9664,179.055,1.25244,-144.492,396
1570004080,341.672,59.2708,-16.9664,179.055,1.25244,-144.492,396
1570004080,341.561,59.2708,-16.9664,179.055,1.25244,-144.492,396
1570004080,341.561,59.2708,-16.9664,179.055,1.25244,-144.492,396
1570004080,341.561,59.2708,-16.9664,179.055,1.25244,-144.492,396
1570004080,341.561,59.2708,-16.9664,179.055,1.25244,-144.492,396
1570004080,341.561,59.2708,-16.9664,179.055,1.25244,-144.492,396
1570004080,341.561,59.2708,-16.9664,179.055,1.25244,-144.492,396
1570004080,341.561,59.2708,-16.9664,179.055,1.25244,-144.492,396
1570004080,341.561,59.2708,-16.9664,179.055,1.25244,-144.492,396
1570004080,341.561,59.2708,-16.9664,179.055,1.25244,-144.492,400
1570004080,341.561,59.2708,-16.9664,179.055,1.25244,-144.492,400
1570004080,341.561,59.2708,-16.9664,179.055,1.25244,-144.492,400
1570004080,341.561,59.2708,-16.9664,179.055,1.25244,-144.492,400
1570004080,341.561,59.2708,-16.9664,179.055,1.25244,-144.492,400
1570004080,341.561,59.2708,-16.9664,179.055,1.25244,-144.492,400
1570004080,341.561,59.2708,-16.9664,179.055,1.25244,-144.492,400
1570004080,341.561,59.2708,-16.9664,179.055,1.25244,-144.492,400
1570004080,341.561,59.2708,-17.078,179.055,1.25244,-144.492,400
1570004080,341.672,59.2708,-17.078,179.055,1.25244,-144.47,404
1570004080,341.672,59.2708,-17.078,179.055,1.25244,-144.47,404
1570004080,341.672,59.2708,-17.078,179.055,1.25244,-144.47,404
1570004080,341.672,59.2708,-16.9664,179.055,1.25244,-144.47,404
1570004080,341.672,59.2708,-16.9664,179.055,1.25244,-144.47,404
1570004080,341.672,59.2708,-16.9664,179.055,1.25244,-144.47,404
1570004081,341.672,59.2708,-16.9664,179.055,1.25244,-144.47,404
1570004081,341.672,59.2708,-16.9664,179.055,1.25244,-144.47,404
1570004081,341.672,59.2708,-16.9664,179.055,1.25244,-144.47,404
1570004081,341.672,59.2708,-16.9664,179.055,1.25244,-144.47,404
1570004081,341.672,59.2708,-16.9664,179.077,1.25244,-144.47,404
1570004081,341.672,59.2708,-16.9664,179.077,1.25244,-144.47,400
1570004081,341.561,59.2708,-16.9664,179.077,1.25244,-144.47,400
1570004081,341.561,59.2708,-16.9664,179.077,1.25244,-144.47,400
1570004081,341.561,59.2708,-16.9664,179.077,1.25244,-144.47,400
1570004081,341.561,59.2708,-16.9664,179.077,1.25244,-144.47,400
1570004081,341.561,59.2708,-16.9664,179.077,1.25244,-144.47,400
1570004081,341.561,59.2708,-16.9664,179.077,1.25244,-144.47,400
1570004081,341.561,59.2708,-16.9664,179.077,1.25244,-144.47,400
1570004081,341.561,59.2708,-16.9664,179.077,1.25244,-144.47,400
1570004081,341.561,59.2708,-16.9664,179.077,1.25244,-144.47,400
1570004081,341.561,59.2708,-16.9664,179.077,1.25244,-144.47,400
1570004081,341.561,59.2708,-16.9664,179.077,1.25244,-144.47,400
1570004081,341.561,59.2708,-16.9664,179.077,1.25244,-144.47,400
1570004081,341.561,59.2708,-16.9664,179.055,1.25244,-144.47,400
1570004081,341.561,59.2708,-16.9664,179.055,1.25244,-144.47,400
1570004081,341.561,59.2708,-16.9664,179.055,1.25244,-144.47,400
1570004081,341.561,59.2708,-16.9664,179.055,1.25244,-144.47,400
1570004081,341.561,59.2708,-16.9664,179.055,1.25244,-144.47,400
1570004081,341.561,59.2708,-16.9664,179.055,1.25244,-144.47,400
1570004081,341.561,59.2708,-16.9664,179.055,1.25244,-144.47,400
1570004081,341.561,59.2708,-16.9664,179.055,1.25244,-144.47,400
1570004081,341.561,59.2708,-16.9664,179.055,1.25244,-144.47,400
1570004081,341.561,59.2708,-16.9664,179.055,1.25244,-144.47,400
1570004081,341.561,59.2708,-16.9664,179.055,1.25244,-144.47,400
1570004081,341.561,59.2708,-16.9664,179.077,1.25244,-144.47,400
1570004081,341.561,59.2708,-16.9664,179.077,1.25244,-144.47,400
1570004081,341.561,59.2708,-16.9664,179.077,1.25244,-144.47,400
1570004081,341.561,59.2708,-16.9664,179.077,1.25244,-144.47,400
1570004081,341.561,59.2708,-16.9664,179.077,1.25244,-144.47,404
1570004081,341.561,59.2708,-16.9664,179.077,1.25244,-144.47,404
1570004081,341.561,59.2708,-16.9664,179.077,1.25244,-144.47,404
1570004081,341.561,59.2708,-16.9664,179.077,1.25244,-144.47,404
1570004081,341.561,59.2708,-16.9664,179.077,1.25244,-144.47,404
1570004081,341.561,59.2708,-16.9664,179.077,1.25244,-144.47,404
1570004081,341.561,59.2708,-16.9664,179.077,1.25244,-144.47,404
1570004081,341.561,59.2708,-16.9664,179.077,1.25244,-144.47,404
1570004081,341.561,59.2708,-16.9664,179.077,1.27441,-144.47,404
1570004081,341.672,59.2708,-16.9664,179.077,1.27441,-144.47,404
1570004081,341.672,59.2708,-16.9664,179.077,1.27441,-144.47,400
1570004081,341.561,59.2708,-16.9664,179.077,1.27441,-144.47,400
1570004081,341.561,59.2708,-16.9664,179.077,1.27441,-144.47,400
1570004081,341.561,59.2708,-16.9664,179.077,1.27441,-144.492,400
1570004081,341.561,59.2708,-16.9664,179.077,1.27441,-144.492,400
1570004081,341.561,59.2708,-16.9664,179.077,1.27441,-144.492,400
1570004081,341.561,59.2708,-16.9664,179.077,1.27441,-144.492,400
1570004081,341.561,59.2708,-16.9664,179.077,1.27441,-144.492,400
1570004081,341.561,59.2708,-16.9664,179.077,1.27441,-144.492,400
1570004081,341.672,59.2708,-16.9664,179.055,1.27441,-144.492,396
1570004081,341.672,59.2708,-16.9664,179.055,1.27441,-144.492,396
1570004081,341.672,59.2708,-16.9664,179.055,1.27441,-144.492,396
1570004081,341.672,59.2708,-16.9664,179.055,1.27441,-144.492,396
1570004081,341.672,59.2708,-16.9664,179.055,1.27441,-144.492,396
1570004081,341.672,59.2708,-16.9664,179.055,1.27441,-144.492,396
1570004081,341.672,59.2708,-16.9664,179.055,1.27441,-144.492,396
1570004081,341.672,59.2708,-16.9664,179.055,1.27441,-144.492,396
1570004081,341.672,59.2708,-16.9664,179.055,1.27441,-144.492,396
1570004081,341.672,59.2708,-16.9664,179.055,1.27441,-144.492,396
1570004081,341.672,59.2708,-16.9664,179.055,1.27441,-144.492,396
1570004081,341.672,59.2708,-16.9664,179.055,1.27441,-144.492,392
1570004081,341.672,59.2708,-16.9664,179.055,1.25244,-144.492,392
1570004081,341.672,59.2708,-16.9664,179.055,1.25244,-144.492,392
1570004081,341.672,59.2708,-16.9664,179.055,1.25244,-144.492,392
1570004081,341.672,59.2708,-16.9664,179.055,1.25244,-144.492,392
1570004081,341.672,59.2708,-16.9664,179.055,1.25244,-144.492,392
1570004081,341.672,59.2708,-16.9664,179.055,1.25244,-144.492,392
1570004081,341.672,59.2708,-16.9664,179.055,1.25244,-144.47,392
1570004081,341.672,59.2708,-16.9664,179.055,1.25244,-144.47,392
1570004081,341.672,59.2708,-16.9664,179.055,1.25244,-144.47,392
1570004081,341.561,59.2708,-16.9664,179.055,1.25244,-144.47,392
1570004081,341.561,59.2708,-16.9664,179.055,1.25244,-144.47,392
1570004081,341.561,59.2708,-16.9664,179.033,1.25244,-144.47,392
1570004081,341.561,59.2708,-16.9664,179.033,1.25244,-144.47,392
1570004081,341.561,59.2708,-16.9664,179.033,1.25244,-144.47,392
1570004081,341.561,59.2708,-16.9664,179.033,1.25244,-144.47,392
1570004081,341.561,59.2708,-16.9664,179.033,1.25244,-144.47,396
1570004081,341.561,59.2708,-16.9664,179.033,1.25244,-144.47,396
1570004081,341.561,59.2708,-16.9664,179.033,1.27441,-144.47,396
1570004081,341.561,59.2708,-16.9664,179.033,1.27441,-144.47,396
1570004081,341.561,59.2708,-16.9664,179.055,1.27441,-144.47,396
1570004081,341.561,59.2708,-16.9664,179.033,1.27441,-144.47,396
1570004081,341.561,59.2708,-16.9664,179.033,1.27441,-144.47,396
1570004081,341.561,59.2708,-16.9664,179.055,1.27441,-144.47,396
1570004081,341.561,59.2708,-16.9664,179.055,1.27441,-144.47,396
1570004081,341.561,59.2708,-16.9664,179.055,1.27441,-144.47,396
1570004081,341.561,59.2708,-16.9664,179.055,1.27441,-144.47,396
1570004081,341.561,59.2708,-16.9664,179.055,1.27441,-144.47,396
1570004081,341.561,59.2708,-16.9664,179.055,1.27441,-144.47,396
1570004081,341.561,59.2708,-16.9664,179.055,1.27441,-144.47,396
1570004081,341.561,59.2708,-16.9664,179.055,1.27441,-144.47,396
1570004081,341.561,59.2708,-16.9664,179.055,1.27441,-144.47,396
1570004081,341.561,59.2708,-16.9664,179.055,1.27441,-144.492,396
1570004081,341.561,59.2708,-16.9664,179.077,1.27441,-144.492,396
1570004087,380.07,18.5291,-16.0734,179.121,1.73584,-144.822,480
1570004087,380.07,18.5291,-16.0734,179.143,1.73584,-144.822,480
1570004087,380.07,18.5291,-16.0734,179.143,1.73584,-144.822,484
1570004087,380.07,18.5291,-16.0734,179.143,1.73584,-144.822,484
1570004087,380.07,18.5291,-16.0734,179.143,1.73584,-144.822,484
1570004087,380.07,18.5291,-16.0734,179.143,1.73584,-144.822,488
1570004087,380.07,18.6407,-16.0734,179.143,1.73584,-144.822,488
1570004087,380.07,18.6407,-16.0734,179.143,1.73584,-144.8,488
1570004087,380.07,18.6407,-16.0734,179.143,1.73584,-144.8,488
1570004087,380.07,18.6407,-16.0734,179.143,1.75781,-144.8,492
1570004087,380.07,18.6407,-16.0734,179.143,1.75781,-144.8,492
1570004087,380.07,18.6407,-16.0734,179.143,1.75781,-144.8,492
1570004087,380.07,18.6407,-16.0734,179.143,1.75781,-144.8,492
1570004087,380.07,18.6407,-16.0734,179.143,1.75781,-144.8,492
1570004087,380.07,18.6407,-16.0734,179.143,1.75781,-144.8,492
1570004087,380.07,18.6407,-16.0734,179.143,1.75781,-144.8,496
1570004087,380.07,18.6407,-16.0734,179.143,1.75781,-144.8,496
1570004087,380.07,18.6407,-15.9618,179.143,1.75781,-144.8,496
1570004087,380.07,18.6407,-15.9618,179.143,1.77979,-144.8,496
1570004087,380.07,18.6407,-15.9618,179.143,1.77979,-144.8,496
1570004087,380.07,18.6407,-15.9618,179.143,1.77979,-144.8,500
1570004087,380.07,18.6407,-15.9618,179.143,1.77979,-144.8,500
1570004087,380.07,18.6407,-15.9618,179.143,1.77979,-144.8,500
1570004087,380.07,18.6407,-15.9618,179.143,1.77979,-144.8,500
1570004087,380.07,18.6407,-15.9618,179.143,1.77979,-144.8,500
1570004087,380.07,18.6407,-15.9618,179.143,1.77979,-144.8,500
1570004087,380.07,18.6407,-15.9618,179.143,1.77979,-144.8,504
1570004087,380.07,18.6407,-15.9618,179.143,1.77979,-144.8,504
1570004087,380.07,18.6407,-15.9618,179.143,1.77979,-144.8,504
1570004087,380.07,18.6407,-15.9618,179.143,1.77979,-144.8,504
1570004087,380.07,18.6407,-15.9618,179.143,1.77979,-144.8,504
1570004087,380.07,18.6407,-15.9618,179.143,1.77979,-144.8,504
1570004087,380.07,18.6407,-15.9618,179.143,1.77979,-144.8,508
1570004087,380.07,18.6407,-15.9618,179.143,1.77979,-144.8,508
1570004087,380.07,18.6407,-15.9618,179.143,1.77979,-144.8,508
1570004087,380.07,18.6407,-15.9618,179.165,1.77979,-144.8,508
1570004087,380.07,18.6407,-15.9618,179.165,1.77979,-144.8,508
1570004087,380.07,18.6407,-15.9618,179.165,1.77979,-144.8,508
1570004087,380.07,18.6407,-15.9618,179.165,1.77979,-144.8,508
1570004087,380.07,18.6407,-15.9618,179.165,1.77979,-144.8,508
1570004087,380.07,18.6407,-15.9618,179.165,1.77979,-144.8,508
1570004087,380.07,18.6407,-15.9618,179.165,1.77979,-144.8,508
1570004087,380.07,18.6407,-15.9618,179.165,1.77979,-144.8,508
1570004087,380.07,18.6407,-15.9618,179.165,1.77979,-144.8,508
1570004087,380.07,18.6407,-15.9618,179.165,1.77979,-144.8,504
1570004087,380.07,18.6407,-15.9618,179.165,1.77979,-144.8,504
1570004087,380.07,18.6407,-15.9618,179.165,1.77979,-144.8,504
1570004087,380.07,18.6407,-15.9618,179.165,1.77979,-144.8,504
1570004087,380.07,18.6407,-15.9618,179.165,1.80176,-144.8,500
1570004087,380.07,18.6407,-15.9618,179.165,1.80176,-144.8,500
1570004087,380.07,18.6407,-15.9618,179.165,1.80176,-144.8,500
1570004087,380.07,18.6407,-15.9618,179.165,1.80176,-144.8,500
1570004087,380.07,18.6407,-15.8502,179.165,1.80176,-144.8,496
1570004087,380.07,18.6407,-15.9618,179.165,1.80176,-144.8,496
1570004087,380.07,18.6407,-15.9618,179.165,1.80176,-144.8,496
1570004087,380.07,18.6407,-15.9618,179.165,1.80176,-144.8,496
1570004087,380.07,18.6407,-15.9618,179.165,1.77979,-144.8,492
1570004087,380.07,18.6407,-15.9618,179.165,1.77979,-144.778,492
1570004087,380.07,18.6407,-15.9618,179.165,1.77979,-144.778,492
1570004087,380.07,18.6407,-15.9618,179.165,1.77979,-144.778,492
1570004087,380.07,18.6407,-15.9618,179.165,1.77979,-144.778,492
1570004087,380.07,18.6407,-15.9618,179.165,1.77979,-144.778,488
1570004087,380.07,18.6407,-15.9618,179.165,1.75781,-144.778,488
1570004087,380.07,18.6407,-15.9618,179.165,1.75781,-144.778,488
1570004087,380.07,18.6407,-16.0734,179.165,1.75781,-144.778,488
1570004087,380.07,18.6407,-16.0734,179.165,1.75781,-144.778,488
1570004087,380.07,18.6407,-16.0734,179.165,1.75781,-144.778,484
1570004087,380.07,18.6407,-16.0734,179.165,1.75781,-144.778,484
1570004087,380.07,18.6407,-16.0734,179.165,1.75781,-144.8,484
1570004087,380.07,18.6407,-16.0734,179.165,1.75781,-144.8,484
1570004087,380.07,18.6407,-16.0734,179.165,1.75781,-144.8,480
1570004087,380.07,18.6407,-16.0734,179.165,1.75781,-144.8,480
1570004087,380.07,18.6407,-16.0734,179.165,1.75781,-144.8,480
1570004087,380.07,18.6407,-16.0734,179.165,1.75781,-144.8,480
1570004087,380.07,18.6407,-16.0734,179.165,1.75781,-144.8,480
1570004087,380.07,18.6407,-16.0734,179.165,1.75781,-144.8,480
1570004087,380.07,18.6407,-16.0734,179.165,1.75781,-144.8,480
1570004087,380.07,18.6407,-16.0734,179.165,1.75781,-144.8,480
1570004087,380.07,18.6407,-16.0734,179.165,1.75781,-144.8,480
1570004087,380.07,18.6407,-16.0734,179.165,1.75781,-144.8,480
1570004087,380.07,18.6407,-16.0734,179.165,1.75781,-144.8,480
1570004087,380.07,18.6407,-16.0734,179.165,1.75781,-144.8,480
1570004087,380.07,18.6407,-16.0734,179.165,1.75781,-144.8,480
1570004087,380.07,18.6407,-16.0734,179.165,1.75781,-144.8,480
1570004087,380.07,18.6407,-16.0734,179.143,1.75781,-144.8,480
1570004087,380.07,18.6407,-16.0734,179.143,1.75781,-144.8,480
1570004087,380.07,18.6407,-16.0734,179.143,1.75781,-144.8,480
1570004087,380.07,18.6407,-16.0734,179.143,1.73584,-144.8,480
1570004087,380.07,18.6407,-16.0734,179.143,1.73584,-144.8,480
1570004088,380.07,18.5291,-16.0734,179.143,1.73584,-144.8,480
1570004088,380.07,18.5291,-16.0734,179.143,1.73584,-144.8,480
1570004088,380.07,18.5291,-16.0734,179.143,1.73584,-144.8,480
1570004088,380.07,18.5291,-16.0734,179.143,1.73584,-144.8,480
1570004088,380.07,18.5291,-16.0734,179.143,1.73584,-144.8,480
1570004088,380.07,18.5291,-16.0734,179.143,1.73584,-144.8,480
1570004088,380.07,18.5291,-16.0734,179.143,1.73584,-144.8,480
1570004088,380.07,18.5291,-16.0734,179.143,1.73584,-144.8,480
1570004088,380.07,18.5291,-16.0734,179.143,1.73584,-144.8,480
1570004088,380.07,18.5291,-16.0734,179.143,1.73584,-144.8,480
1570004088,380.07,18.5291,-16.0734,179.143,1.75781,-144.8,480
1570004088,380.07,18.5291,-16.0734,179.143,1.73584,-144.8,484
1570004088,380.07,18.5291,-16.0734,179.143,1.73584,-144.8,484
1570004088,380.07,18.5291,-16.0734,179.143,1.75781,-144.8,484
1570004088,380.07,18.5291,-16.0734,179.121,1.75781,-144.8,484
1570004088,380.07,18.5291,-16.0734,179.121,1.75781,-144.8,484
1570004088,380.07,18.5291,-16.0734,179.121,1.75781,-144.8,484
1570004088,380.07,18.5291,-16.0734,179.121,1.75781,-144.8,488
1570004088,380.07,18.5291,-16.0734,179.121,1.73584,-144.8,488
1570004088,380.07,18.5291,-16.0734,179.121,1.73584,-144.822,488
1570004088,380.07,18.5291,-16.0734,179.121,1.73584,-144.822,488
1570004088,380.07,18.5291,-16.0734,179.121,1.73584,-144.822,488
1570004088,380.07,18.5291,-16.0734,179.121,1.73584,-144.822,488
1570004088,380.07,18.5291,-16.0734,179.143,1.73584,-144.822,488
1570004088,380.07,18.5291,-16.0734,179.143,1.73584,-144.822,484
1570004088,380.07,18.5291,-16.0734,179.143,1.73584,-144.822,484
1570004088,380.07,18.5291,-16.0734,179.143,1.73584,-144.822,484
1570004088,380.07,18.5291,-16.0734,179.143,1.75781,-144.822,480
1570004088,380.07,18.6407,-16.0734,179.143,1.75781,-144.822,480
1570004088,380.07,18.6407,-15.9618,179.143,1.75781,-144.822,480
1570004088,380.07,18.6407,-15.9618,179.143,1.75781,-144.822,476
1570004088,380.07,18.6407,-15.9618,179.143,1.75781,-144.822,476
1570004088,380.07,18.6407,-15.9618,179.143,1.75781,-144.844,476
1570004088,380.07,18.6407,-15.9618,179.143,1.75781,-144.844,476
1570004088,380.07,18.6407,-15.9618,179.143,1.75781,-144.844,472
1570004088,380.07,18.6407,-15.9618,179.143,1.75781,-144.844,472
1570004088,380.07,18.6407,-16.0734,179.143,1.75781,-144.844,472
1570004088,380.07,18.6407,-16.0734,179.165,1.75781,-144.844,472
1570004088,380.181,18.6407,-16.0734,179.165,1.75781,-144.844,472
1570004088,380.07,18.6407,-16.0734,179.165,1.75781,-144.844,468
1570004088,380.07,18.6407,-16.0734,179.165,1.75781,-144.844,468
1570004088,380.07,18.6407,-16.0734,179.143,1.75781,-144.844,468
1570004088,380.07,18.6407,-16.0734,179.143,1.73584,-144.822,468
1570004088,380.07,18.6407,-16.0734,179.143,1.73584,-144.822,468
1570004088,380.07,18.6407,-16.0734,179.143,1.73584,-144.822,468
1570004088,380.07,18.6407,-16.0734,179.143,1.73584,-144.822,468
1570004088,380.07,18.6407,-16.0734,179.143,1.73584,-144.822,472
1570004088,380.07,18.5291,-16.0734,179.143,1.73584,-144.822,472
1570004088,380.07,18.5291,-16.0734,179.143,1.73584,-144.822,472
1570004088,380.07,18.5291,-16.0734,179.143,1.73584,-144.822,472
1570004088,380.07,18.5291,-16.0734,179.143,1.73584,-144.822,472
1570004088,380.07,18.5291,-16.0734,179.121,1.73584,-144.822,472
1570004088,380.07,18.5291,-16.0734,179.121,1.73584,-144.822,472
1570004088,380.07,18.5291,-16.0734,179.121,1.73584,-144.822,472
1570004088,380.07,18.5291,-16.0734,179.121,1.73584,-144.822,472
1570004088,380.07,18.5291,-16.0734,179.121,1.73584,-144.822,472
1570004088,380.07,18.5291,-16.0734,179.121,1.73584,-144.822,472
1570004088,380.07,18.5291,-16.0734,179.121,1.73584,-144.822,476
1570004088,380.07,18.6407,-16.0734,179.121,1.73584,-144.822,476
1570004088,380.07,18.6407,-16.0734,179.121,1.73584,-144.822,476
1570004088,380.07,18.6407,-16.0734,179.121,1.71387,-144.822,476
1570004088,380.07,18.6407,-16.0734,179.143,1.71387,-144.822,476
1570004088,380.07,18.6407,-16.0734,179.143,1.71387,-144.822,476
1570004088,380.07,18.6407,-16.0734,179.143,1.71387,-144.822,480
1570004088,380.07,18.6407,-16.0734,179.143,1.73584,-144.822,480
1570004088,380.07,18.6407,-16.0734,179.143,1.73584,-144.822,480
1570004088,380.07,18.6407,-16.0734,179.143,1.73584,-144.822,480
1570004088,380.07,18.6407,-16.0734,179.143,1.73584,-144.822,480
1570004088,380.07,18.6407,-16.0734,179.143,1.73584,-144.822,480
1570004088,380.07,18.6407,-16.0734,179.143,1.73584,-144.822,480
1570004088,380.07,18.6407,-16.0734,179.143,1.73584,-144.822,480
1570004088,380.07,18.6407,-16.0734,179.143,1.73584,-144.822,480
1570004088,380.07,18.6407,-16.0734,179.143,1.73584,-144.822,480
1570004088,380.07,18.6407,-16.0734,179.143,1.73584,-144.822,480
1570004088,380.07,18.6407,-16.0734,179.143,1.73584,-144.822,480
1570004088,380.07,18.6407,-16.0734,179.143,1.73584,-144.822,480
1570004088,380.07,18.6407,-16.0734,179.143,1.73584,-144.822,480
1570004088,380.07,18.6407,-16.0734,179.143,1.75781,-144.822,484
1570004088,380.07,18.6407,-15.9618,179.143,1.75781,-144.822,484
1570004088,380.07,18.6407,-15.9618,179.143,1.75781,-144.822,484
1570004088,380.07,18.6407,-15.9618,179.143,1.75781,-144.822,484
1570004088,380.07,18.6407,-15.9618,179.143,1.75781,-144.822,484
1570004088,380.07,18.6407,-15.9618,179.143,1.75781,-144.822,484
1570004088,380.07,18.5291,-15.9618,179.143,1.75781,-144.822,484
1570004088,380.07,18.5291,-15.9618,179.143,1.75781,-144.8,484
1570004088,380.07,18.5291,-15.9618,179.143,1.75781,-144.8,484
1570004088,380.07,18.5291,-15.9618,179.143,1.75781,-144.8,484
1570004088,380.07,18.5291,-15.9618,179.143,1.77979,-144.8,484
1570004088,380.07,18.5291,-15.9618,179.143,1.77979,-144.8,484
1570004088,380.07,18.5291,-15.9618,179.143,1.77979,-144.8,484
1570004088,380.07,18.5291,-15.9618,179.143,1.77979,-144.8,484
1570004088,380.07,18.5291,-15.9618,179.143,1.77979,-144.8,484
1570004088,380.07,18.5291,-15.9618,179.143,1.77979,-144.8,480
1570004088,380.07,18.5291,-15.9618,179.143,1.77979,-144.8,480
1570004088,380.07,18.5291,-15.9618,179.143,1.77979,-144.8,480
1570004088,380.07,18.5291,-15.9618,179.143,1.77979,-144.8,480
1570004088,380.07,18.5291,-15.9618,179.143,1.77979,-144.8,480
1570004088,380.07,18.5291,-15.9618,179.143,1.75781,-144.8,480
1570004088,380.07,18.5291,-15.9618,179.143,1.75781,-144.8,480
1570004088,380.07,18.5291,-15.9618,179.143,1.75781,-144.8,480
1570004089,379.958,18.5291,-15.9618,179.143,1.75781,-144.8,480
1570004089,379.958,18.5291,-16.0734,179.143,1.75781,-144.8,480
1570004089,379.958,18.5291,-16.0734,179.143,1.75781,-144.8,480
1570004089,379.958,18.5291,-16.0734,179.143,1.73584,-144.8,480
1570004089,379.958,18.5291,-16.0734,179.143,1.73584,-144.8,480
1570004089,379.958,18.5291,-16.0734,179.143,1.73584,-144.8,480
1570004089,379.958,18.5291,-16.0734,179.143,1.73584,-144.8,480
1570004089,379.958,18.5291,-16.0734,179.143,1.73584,-144.778,480
1570004089,379.958,18.6407,-16.0734,179.143,1.73584,-144.778,480
1570004089,379.958,18.6407,-16.0734,179.143,1.73584,-144.778,480
1570004089,379.958,18.6407,-16.0734,179.143,1.73584,-144.778,480
1570004089,379.958,18.6407,-16.0734,179.143,1.73584,-144.778,480
1570004089,380.07,18.6407,-16.0734,179.143,1.75781,-144.778,480
1570004089,380.07,18.6407,-16.0734,179.165,1.75781,-144.8,480
1570004089,380.07,18.6407,-16.0734,179.143,1.75781,-144.8,480
1570004089,380.07,18.6407,-16.0734,179.143,1.75781,-144.8,480
1570004089,380.07,18.5291,-15.9618,179.143,1.75781,-144.8,480
1570004089,380.07,18.5291,-15.9618,179.143,1.75781,-144.8,480
1570004089,380.07,18.5291,-15.9618,179.143,1.75781,-144.8,480
1570004089,380.07,18.5291,-15.9618,179.143,1.75781,-144.8,480
1570004089,380.07,18.5291,-15.9618,179.143,1.75781,-144.8,480
1570004089,380.07,18.5291,-15.9618,179.143,1.75781,-144.8,480
1570004089,380.07,18.5291,-15.9618,179.143,1.75781,-144.8,480
1570004089,380.07,18.5291,-15.9618,179.143,1.75781,-144.8,484
1570004089,380.07,18.5291,-15.9618,179.143,1.77979,-144.8,484
1570004089,380.07,18.5291,-15.9618,179.143,1.77979,-144.8,484
1570004089,380.07,18.5291,-15.9618,179.143,1.77979,-144.822,484
1570004089,380.07,18.5291,-15.9618,179.121,1.77979,-144.822,484
1570004089,380.07,18.5291,-15.9618,179.121,1.77979,-144.822,484
1570004089,380.07,18.5291,-15.9618,179.121,1.77979,-144.822,484
1570004089,380.07,18.5291,-15.9618,179.121,1.77979,-144.822,484
1570004089,380.07,18.5291,-15.9618,179.121,1.77979,-144.822,484
1570004089,380.07,18.5291,-15.9618,179.121,1.77979,-144.822,484
1570004089,380.07,18.5291,-15.9618,179.121,1.77979,-144.822,484
1570004089,380.07,18.5291,-15.9618,179.121,1.77979,-144.822,484
1570004089,380.07,18.5291,-15.9618,179.121,1.77979,-144.822,484
1570004089,380.07,18.5291,-15.9618,179.121,1.77979,-144.822,484
1570004089,380.07,18.5291,-15.9618,179.121,1.77979,-144.822,484
1570004089,380.07,18.5291,-15.9618,179.121,1.77979,-144.822,484
1570004089,380.07,18.5291,-15.9618,179.121,1.80176,-144.844,484
1570004089,380.07,18.5291,-15.8502,179.143,1.80176,-144.844,484
1570004089,380.07,18.5291,-15.8502,179.143,1.80176,-144.844,484
1570004089,380.07,18.5291,-15.8502,179.143,1.80176,-144.844,484
1570004089,380.07,18.5291,-15.9618,179.143,1.80176,-144.844,484
1570004089,380.07,18.5291,-15.9618,179.143,1.80176,-144.844,484
1570004089,380.07,18.5291,-15.9618,179.143,1.80176,-144.844,484
1570004089,380.07,18.5291,-15.9618,179.143,1.80176,-144.844,484
1570004089,380.07,18.5291,-15.9618,179.143,1.80176,-144.844,484
1570004089,380.07,18.5291,-15.9618,179.143,1.77979,-144.822,484
1570004089,380.07,18.5291,-15.9618,179.143,1.77979,-144.822,484
1570004089,380.07,18.5291,-15.9618,179.143,1.77979,-144.822,484
1570004089,380.07,18.5291,-15.9618,179.143,1.77979,-144.822,484
1570004089,380.07,18.5291,-15.9618,179.143,1.77979,-144.822,484
1570004089,380.07,18.5291,-15.9618,179.121,1.80176,-144.822,484
1570004089,380.07,18.5291,-15.9618,179.121,1.80176,-144.822,484
1570004089,380.07,18.5291,-15.8502,179.121,1.80176,-144.822,488
1570004089,380.07,18.5291,-15.8502,179.121,1.80176,-144.822,488
1570004089,380.07,18.5291,-15.8502,179.121,1.80176,-144.822,488
1570004089,380.07,18.5291,-15.8502,179.121,1.80176,-144.822,488
1570004089,380.07,18.5291,-15.8502,179.121,1.80176,-144.822,488
1570004089,380.07,18.5291,-15.8502,179.121,1.80176,-144.822,488
1570004089,380.07,18.5291,-15.8502,179.121,1.80176,-144.822,488
1570004089,380.07,18.5291,-15.8502,179.121,1.80176,-144.822,488
1570004089,380.07,18.5291,-15.8502,179.121,1.80176,-144.822,488
1570004089,380.07,18.5291,-15.8502,179.121,1.80176,-144.822,488
1570004089,380.07,18.5291,-15.8502,179.121,1.80176,-144.844,488
1570004089,380.07,18.5291,-15.8502,179.121,1.80176,-144.844,484
1570004089,380.07,18.5291,-15.8502,179.121,1.80176,-144.844,484
1570004089,380.181,18.5291,-15.8502,179.121,1.80176,-144.844,484
1570004089,380.07,18.5291,-15.8502,179.121,1.80176,-144.844,484
1570004089,380.07,18.5291,-15.8502,179.121,1.80176,-144.844,480
1570004089,380.07,18.5291,-15.8502,179.121,1.80176,-144.844,480
1570004089,380.07,18.5291,-15.8502,179.121,1.80176,-144.822,480
1570004089,380.07,18.5291,-15.8502,179.121,1.80176,-144.822,480
1570004089,380.07,18.5291,-15.8502,179.121,1.80176,-144.822,480
1570004089,380.07,18.5291,-15.9618,179.121,1.80176,-144.822,476
1570004089,380.07,18.5291,-15.9618,179.121,1.80176,-144.822,476
1570004089,380.07,18.5291,-15.9618,179.121,1.77979,-144.822,476
1570004089,380.07,18.5291,-15.9618,179.121,1.77979,-144.822,476
1570004089,380.07,18.5291,-15.9618,179.121,1.77979,-144.822,476
1570004089,380.07,18.5291,-15.9618,179.121,1.77979,-144.822,476
1570004089,380.07,18.5291,-15.9618,179.121,1.77979,-144.822,476
1570004089,380.07,18.5291,-15.9618,179.121,1.77979,-144.822,476
1570004089,380.07,18.5291,-15.9618,179.121,1.77979,-144.822,476
1570004089,380.07,18.5291,-15.9618,179.143,1.77979,-144.822,472
1570004089,380.07,18.5291,-15.9618,179.143,1.77979,-144.822,472
1570004089,380.07,18.5291,-15.9618,179.143,1.77979,-144.844,472
1570004089,380.07,18.5291,-15.9618,179.143,1.77979,-144.822,472
1570004089,380.07,18.5291,-15.9618,179.143,1.77979,-144.822,472
1570004089,380.07,18.5291,-15.9618,179.143,1.77979,-144.822,472
1570004089,380.07,18.5291,-15.9618,179.143,1.77979,-144.822,472
1570004089,380.07,18.5291,-15.9618,179.143,1.77979,-144.822,472
1570004089,380.07,18.5291,-15.9618,179.143,1.77979,-144.822,476
1570004089,380.07,18.5291,-15.9618,179.143,1.77979,-144.822,476
1570004089,380.07,18.5291,-15.9618,179.143,1.77979,-144.822,476
1570004089,380.07,18.5291,-15.9618,179.143,1.77979,-144.822,476
1570004089,380.07,18.5291,-15.9618,179.143,1.77979,-144.822,476
1570004089,380.07,18.5291,-15.9618,179.143,1.77979,-144.822,476
1570004089,380.07,18.5291,-15.9618,179.143,1.77979,-144.822,476
1570004089,380.07,18.5291,-15.9618,179.143,1.77979,-144.822,480
1570004090,380.07,18.5291,-15.9618,179.143,1.77979,-144.822,480
1570004090,380.07,18.5291,-15.9618,179.143,1.77979,-144.822,480
1570004090,380.07,18.5291,-15.9618,179.143,1.77979,-144.822,480
1570004090,380.07,18.5291,-15.9618,179.143,1.77979,-144.822,480
1570004090,380.07,18.5291,-15.9618,179.143,1.77979,-144.822,484
1570004090,380.07,18.5291,-15.9618,179.143,1.77979,-144.822,484
1570004090,380.07,18.5291,-15.9618,179.143,1.77979,-144.822,484
1570004090,380.07,18.5291,-15.9618,179.143,1.77979,-144.822,484
1570004090,380.07,18.5291,-15.9618,179.143,1.77979,-144.822,488
1570004090,380.07,18.5291,-15.9618,179.143,1.75781,-144.822,488
1570004090,380.07,18.5291,-15.9618,179.143,1.75781,-144.822,488
1570004090,380.07,18.5291,-15.9618,179.121,1.75781,-144.822,488
1570004090,380.07,18.5291,-15.9618,179.121,1.75781,-144.822,492
1570004090,380.07,18.5291,-15.9618,179.121,1.75781,-144.822,492
1570004090,380.07,18.5291,-15.9618,179.121,1.75781,-144.822,492
1570004090,380.07,18.5291,-16.0734,179.121,1.75781,-144.822,492
1570004090,380.07,18.5291,-16.0734,179.121,1.75781,-144.822,492
1570004090,380.07,18.5291,-16.0734,179.121,1.75781,-144.822,492
1570004090,380.07,18.5291,-16.0734,179.121,1.75781,-144.822,492
1570004090,380.07,18.5291,-16.0734,179.121,1.75781,-144.822,492
1570004090,380.07,18.5291,-16.0734,179.143,1.75781,-144.822,496
1570004090,380.07,18.5291,-16.0734,179.143,1.75781,-144.822,496
1570004090,380.07,18.5291,-16.0734,179.143,1.75781,-144.822,496
1570004090,380.07,18.5291,-15.9618,179.143,1.75781,-144.822,496
1570004090,380.07,18.5291,-15.9618,179.143,1.75781,-144.822,496
1570004090,380.07,18.5291,-15.9618,179.143,1.75781,-144.822,492
1570004090,380.07,18.5291,-15.9618,179.143,1.75781,-144.822,492
1570004090,380.07,18.5291,-16.0734,179.143,1.75781,-144.822,492
1570004090,380.07,18.5291,-16.0734,179.143,1.75781,-144.822,492
1570004090,380.07,18.5291,-16.0734,179.143,1.75781,-144.822,492
1570004090,380.07,18.5291,-16.0734,179.143,1.75781,-144.822,492
1570004090,380.07,18.5291,-16.0734,179.143,1.75781,-144.8,488
1570004090,380.07,18.5291,-16.0734,179.143,1.75781,-144.8,488
1570004090,380.07,18.5291,-16.0734,179.143,1.75781,-144.8,488
1570004090,380.07,18.5291,-16.0734,179.143,1.75781,-144.8,484
1570004090,380.07,18.5291,-16.0734,179.143,1.75781,-144.8,484
1570004090,380.07,18.5291,-16.0734,179.143,1.75781,-144.8,484
1570004090,380.07,18.5291,-16.0734,179.143,1.75781,-144.8,480
1570004090,380.07,18.5291,-16.0734,179.143,1.75781,-144.8,480
1570004090,380.07,18.5291,-15.9618,179.143,1.75781,-144.8,480
1570004090,380.07,18.5291,-15.9618,179.143,1.75781,-144.8,476
1570004090,380.07,18.5291,-15.9618,179.143,1.75781,-144.8,476
1570004090,380.07,18.5291,-15.9618,179.143,1.75781,-144.8,476
1570004090,380.07,18.5291,-15.9618,179.143,1.75781,-144.8,476
1570004090,380.07,18.5291,-15.9618,179.143,1.75781,-144.8,476
1570004090,380.07,18.5291,-15.9618,179.143,1.75781,-144.8,472
1570004090,380.07,18.5291,-15.9618,179.143,1.75781,-144.8,472
1570004090,380.07,18.5291,-15.9618,179.143,1.75781,-144.8,472
1570004090,380.07,18.5291,-15.9618,179.143,1.75781,-144.8,472
