time,x,y,z,ax,ay,az,q
1570004059,344.798,58.7127,24.6683,178.396,0.395508,88.4399,232
1570004059,344.798,58.7127,24.6683,178.396,0.395508,88.4399,232
1570004059,344.798,58.7127,24.6683,178.396,0.395508,88.4399,232
1570004059,344.798,58.7127,24.6683,178.396,0.395508,88.4399,232
1570004059,344.798,58.7127,24.6683,178.396,0.395508,88.4399,232
1570004059,344.798,58.7127,24.6683,178.396,0.395508,88.4399,232
1570004059,344.798,58.7127,24.6683,178.396,0.395508,88.4399,232
1570004059,344.798,58.7127,24.6683,178.396,0.395508,88.4399,232
1570004059,344.798,58.7127,24.6683,178.396,0.395508,88.4399,232
1570004059,344.798,58.7127,24.6683,178.396,0.395508,88.4399,232
1570004059,344.798,58.7127,24.6683,178.396,0.395508,88.4399,232
1570004059,344.798,58.7127,24.6683,178.396,0.395508,88.4399,232
1570004059,344.798,58.7127,24.6683,178.396,0.395508,88.4399,232
1570004059,344.798,58.7127,24.6683,178.396,0.395508,88.4399,232
1570004059,344.798,58.7127,24.6683,178.396,0.395508,88.4619,232
1570004059,344.798,58.7127,24.6683,178.396,0.395508,88.4619,232
1570004059,344.798,58.7127,24.6683,178.396,0.395508,88.4619,232
1570004059,344.798,58.7127,24.6683,178.396,0.395508,88.4619,232
1570004059,344.798,58.7127,24.6683,178.396,0.395508,88.4619,232
1570004059,344.798,58.7127,24.6683,178.396,0.395508,88.4619,232
1570004059,344.798,58.7127,24.6683,178.396,0.395508,88.4619,232
1570004059,344.798,58.7127,24.6683,178.396,0.395508,88.4619,232
1570004059,344.798,58.7127,24.6683,178.396,0.395508,88.4619,232
1570004059,344.798,58.7127,24.6683,178.396,0.395508,88.4619,232
1570004059,344.798,58.7127,24.6683,178.396,0.395508,88.4619,232
1570004059,344.798,58.7127,24.6683,178.396,0.395508,88.4619,232
1570004059,344.798,58.7127,24.6683,178.396,0.395508,88.4619,232
1570004059,344.798,58.7127,24.6683,178.396,0.395508,88.4619,232
1570004059,344.798,58.7127,24.6683,178.396,0.395508,88.4619,232
1570004059,344.798,58.7127,24.6683,178.396,0.395508,88.4399,232
1570004059,344.798,58.7127,24.6683,178.396,0.395508,88.4399,232
1570004059,344.798,58.7127,24.6683,178.396,0.395508,88.4399,232
1570004059,344.798,58.7127,24.6683,178.396,0.395508,88.4399,232
1570004059,344.798,58.7127,24.6683,178.396,0.395508,88.4399,232
1570004059,344.798,58.7127,24.6683,178.396,0.395508,88.4399,232
1570004059,344.798,58.7127,24.6683,178.396,0.41748,88.4399,232
1570004059,344.798,58.7127,24.6683,178.396,0.41748,88.4399,232
1570004059,344.798,58.7127,24.6683,178.396,0.41748,88.4399,232
1570004059,344.798,58.7127,24.6683,178.396,0.41748,88.4399,232
1570004059,344.798,58.7127,24.6683,178.396,0.41748,88.4399,232
1570004059,344.798,58.7127,24.6683,178.396,0.41748,88.4399,232
1570004059,344.798,58.7127,24.6683,178.396,0.41748,88.4399,232
1570004059,344.798,58.7127,24.6683,178.396,0.41748,88.4399,232
1570004059,344.798,58.7127,24.6683,178.396,0.41748,88.4399,232
1570004059,344.798,58.7127,24.6683,178.396,0.41748,88.4399,232
1570004059,344.798,58.7127,24.6683,178.396,0.41748,88.4399,232
1570004059,344.798,58.7127,24.6683,178.396,0.41748,88.4399,232
1570004059,344.798,58.7127,24.6683,178.396,0.41748,88.4399,232
1570004059,344.798,58.7127,24.6683,178.396,0.41748,88.4399,232
1570004059,344.798,58.7127,24.6683,178.396,0.41748,88.4399,232
1570004059,344.798,58.7127,24.6683,178.396,0.41748,88.4399,232
1570004059,344.798,58.7127,24.6683,178.396,0.41748,88.4399,232
1570004059,344.798,58.7127,24.6683,178.396,0.41748,88.4399,232
1570004059,344.798,58.7127,24.6683,178.396,0.41748,88.4399,232
1570004059,344.798,58.7127,24.6683,178.396,0.41748,88.4399,232
1570004059,344.798,58.7127,24.6683,178.396,0.41748,88.4399,228
1570004059,344.798,58.7127,24.6683,178.396,0.41748,88.4399,228
1570004059,344.798,58.7127,24.6683,178.396,0.41748,88.4399,228
1570004059,344.798,58.7127,24.6683,178.396,0.41748,88.4399,228
1570004059,344.798,58.7127,24.6683,178.396,0.41748,88.4399,228
1570004059,344.798,58.7127,24.6683,178.396,0.41748,88.4399,228
1570004059,344.798,58.7127,24.6683,178.396,0.41748,88.4399,228
1570004059,344.798,58.7127,24.6683,178.396,0.41748,88.4399,228
1570004059,344.798,58.7127,24.6683,178.396,0.41748,88.4399,228
1570004059,344.798,58.7127,24.6683,178.396,0.41748,88.4399,228
1570004059,344.798,58.7127,24.6683,178.396,0.41748,88.4399,228
1570004059,344.798,58.7127,24.6683,178.396,0.41748,88.4399,228
1570004059,344.798,58.7127,24.6683,178.396,0.41748,88.4399,228
1570004059,344.798,58.7127,24.6683,178.396,0.41748,88.4399,228
1570004059,344.798,58.7127,24.6683,178.396,0.41748,88.4399,228
1570004059,344.798,58.7127,24.6683,178.396,0.41748,88.4399,228
1570004059,344.798,58.7127,24.6683,178.396,0.41748,88.4399,228
1570004059,344.798,58.7127,24.6683,178.396,0.395508,88.4399,228
1570004059,344.798,58.7127,24.6683,178.396,0.395508,88.4399,228
1570004059,344.798,58.7127,24.6683,178.396,0.395508,88.4399,228
1570004059,344.798,58.7127,24.6683,178.396,0.395508,88.4399,228
1570004059,344.798,58.7127,24.6683,178.396,0.395508,88.4399,228
1570004059,344.798,58.7127,24.6683,178.396,0.395508,88.4399,228
1570004059,344.798,58.7127,24.6683,178.396,0.395508,88.4399,228
1570004060,344.798,58.7127,24.6683,178.396,0.395508,88.4399,228
1570004060,344.798,58.7127,24.6683,178.396,0.395508,88.4399,228
1570004060,344.798,58.7127,24.6683,178.396,0.395508,88.4399,228
1570004060,344.798,58.7127,24.6683,178.396,0.395508,88.4399,228
1570004060,344.798,58.7127,24.6683,178.396,0.395508,88.4399,228
1570004060,344.798,58.7127,24.6683,178.396,0.395508,88.4399,228
1570004060,344.798,58.7127,24.6683,178.396,0.395508,88.4399,228
1570004060,344.798,58.7127,24.6683,178.396,0.395508,88.4399,232
1570004060,344.798,58.7127,24.6683,178.396,0.395508,88.4399,232
1570004060,344.798,58.7127,24.6683,178.396,0.395508,88.4399,232
1570004060,344.798,58.7127,24.6683,178.396,0.395508,88.4399,232
1570004060,344.798,58.7127,24.6683,178.396,0.395508,88.4399,232
1570004060,344.798,58.7127,24.6683,178.396,0.395508,88.4399,232
1570004060,344.798,58.7127,24.6683,178.396,0.395508,88.4399,232
1570004060,344.798,58.7127,24.6683,178.396,0.395508,88.4399,232
1570004060,344.798,58.7127,24.6683,178.396,0.395508,88.4399,232
1570004060,344.798,58.7127,24.6683,178.396,0.395508,88.4399,232
1570004060,344.798,58.7127,24.6683,178.396,0.395508,88.4399,232
1570004060,344.798,58.7127,24.6683,178.396,0.395508,88.4399,232
1570004060,344.798,58.7127,24.6683,178.396,0.395508,88.4399,232
1570004060,344.798,58.7127,24.6683,178.396,0.395508,88.4399,232
1570004060,344.798,58.7127,24.6683,178.396,0.395508,88.4399,232
1570004060,344.798,58.7127,24.6683,178.396,0.395508,88.4399,232
1570004060,344.798,58.7127,24.6683,178.396,0.395508,88.4399,232
1570004060,344.798,58.7127,24.6683,178.396,0.395508,88.4399,232
1570004060,344.798,58.7127,24.6683,178.396,0.395508,88.4399,232
1570004060,344.798,58.7127,24.6683,178.396,0.395508,88.4399,232
1570004060,344.798,58.7127,24.6683,178.396,0.395508,88.4399,232
1570004060,344.798,58.7127,24.6683,178.396,0.395508,88.4399,232
1570004060,344.798,58.7127,24.6683,178.396,0.395508,88.4399,232
1570004060,344.798,58.7127,24.6683,178.396,0.395508,88.4399,232
1570004060,344.798,58.7127,24.6683,178.396,0.395508,88.4399,232
1570004060,344.798,58.7127,24.6683,178.396,0.395508,88.4399,232
1570004060,344.798,58.7127,24.6683,178.396,0.395508,88.4399,232
1570004060,344.798,58.7127,24.6683,178.396,0.395508,88.4399,232
1570004060,344.798,58.7127,24.6683,178.396,0.395508,88.4399,232
1570004060,344.798,58.7127,24.6683,178.396,0.395508,88.4399,232
1570004060,344.798,58.7127,24.6683,178.396,0.395508,88.4399,232
1570004060,344.798,58.7127,24.6683,178.396,0.395508,88.4399,232
1570004060,344.798,58.7127,24.6683,178.396,0.395508,88.4399,232
1570004060,344.798,58.7127,24.6683,178.396,0.41748,88.4399,232
1570004060,344.798,58.7127,24.6683,178.396,0.41748,88.4399,232
1570004060,344.798,58.7127,24.6683,178.396,0.41748,88.4399,232
1570004060,344.798,58.7127,24.6683,178.396,0.41748,88.4399,232
1570004060,344.798,58.7127,24.6683,178.396,0.41748,88.4399,232
1570004060,344.798,58.7127,24.6683,178.396,0.41748,88.4399,232
1570004060,344.798,58.7127,24.6683,178.396,0.41748,88.4399,232
1570004060,344.798,58.7127,24.6683,178.396,0.41748,88.4399,232
1570004060,344.798,58.7127,24.6683,178.396,0.41748,88.4399,232
1570004060,344.798,58.7127,24.6683,178.396,0.41748,88.4399,232
1570004060,344.798,58.7127,24.6683,178.396,0.41748,88.4399,232
1570004060,344.798,58.7127,24.6683,178.396,0.41748,88.4399,232
1570004060,344.798,58.7127,24.6683,178.396,0.41748,88.4399,232
1570004060,344.798,58.7127,24.6683,178.396,0.41748,88.4399,232
1570004060,344.798,58.7127,24.6683,178.396,0.41748,88.4399,232
1570004060,344.798,58.7127,24.6683,178.396,0.41748,88.4399,232
1570004060,344.798,58.7127,24.6683,178.396,0.41748,88.4399,232
1570004060,344.798,58.7127,24.6683,178.396,0.41748,88.4399,232
1570004060,344.798,58.7127,24.6683,178.396,0.41748,88.4399,232
1570004060,344.798,58.7127,24.6683,178.396,0.41748,88.4399,232
1570004060,344.798,58.7127,24.6683,178.396,0.41748,88.4399,232
1570004060,344.798,58.7127,24.6683,178.396,0.41748,88.4399,232
1570004060,344.798,58.7127,24.6683,178.396,0.41748,88.4399,232
1570004060,344.798,58.7127,24.6683,178.396,0.41748,88.4399,232
1570004060,344.798,58.7127,24.6683,178.396,0.41748,88.4399,232
1570004060,344.798,58.7127,24.6683,178.396,0.41748,88.4399,232
1570004060,344.798,58.7127,24.6683,178.396,0.41748,88.4399,232
1570004060,344.798,58.7127,24.6683,178.396,0.41748,88.4399,232
1570004060,344.798,58.7127,24.6683,178.396,0.41748,88.4399,232
1570004060,344.798,58.7127,24.6683,178.396,0.41748,88.4399,232
1570004060,344.798,58.7127,24.6683,178.396,0.41748,88.4399,232
1570004060,344.798,58.7127,24.6683,178.396,0.41748,88.4399,232
1570004060,344.798,58.7127,24.6683,178.396,0.41748,88.4399,232
1570004060,344.798,58.7127,24.6683,178.396,0.41748,88.4399,232
1570004060,344.798,58.7127,24.6683,178.396,0.41748,88.4399,232
1570004060,344.798,58.7127,24.6683,178.396,0.41748,88.4399,232
1570004060,344.798,58.7127,24.6683,178.396,0.41748,88.4399,232
1570004060,344.798,58.7127,24.6683,178.396,0.41748,88.4399,232
1570004060,344.798,58.7127,24.6683,178.396,0.41748,88.4399,232
1570004060,344.798,58.7127,24.6683,178.396,0.41748,88.4399,232
1570004060,344.798,58.7127,24.6683,178.396,0.41748,88.4399,232
1570004060,344.798,58.7127,24.6683,178.396,0.41748,88.4399,232
1570004060,344.798,58.7127,24.6683,178.396,0.41748,88.4399,232
1570004060,344.798,58.7127,24.6683,178.396,0.41748,88.4399,232
1570004060,344.798,58.7127,24.6683,178.396,0.41748,88.4399,232
1570004060,344.798,58.7127,24.6683,178.396,0.41748,88.4399,232
1570004060,344.798,58.7127,24.6683,178.396,0.41748,88.4399,232
1570004060,344.798,58.7127,24.6683,178.396,0.41748,88.4399,232
1570004060,344.798,58.7127,24.6683,178.396,0.41748,88.4399,232
1570004060,344.798,58.7127,24.6683,178.396,0.41748,88.4399,232
1570004060,344.798,58.7127,24.6683,178.396,0.41748,88.4399,232
1570004060,344.798,58.7127,24.6683,178.396,0.41748,88.4399,232
1570004060,344.798,58.7127,24.6683,178.396,0.41748,88.4399,232
1570004060,344.798,58.7127,24.6683,178.396,0.41748,88.4399,232
1570004060,344.798,58.7127,24.6683,178.396,0.41748,88.4399,232
1570004060,344.798,58.7127,24.6683,178.396,0.41748,88.4399,232
1570004060,344.798,58.7127,24.6683,178.396,0.41748,88.4399,232
1570004060,344.798,58.7127,24.6683,178.396,0.41748,88.4399,232
1570004060,344.798,58.7127,24.6683,178.396,0.395508,88.4399,232
1570004060,344.798,58.7127,24.6683,178.396,0.395508,88.4399,232
1570004061,344.798,58.7127,24.6683,178.396,0.395508,88.4399,232
1570004061,344.798,58.7127,24.6683,178.396,0.395508,88.4399,232
1570004061,344.798,58.7127,24.6683,178.396,0.395508,88.4399,232
1570004061,344.798,58.7127,24.6683,178.396,0.395508,88.4399,232
1570004061,344.798,58.7127,24.6683,178.396,0.395508,88.4399,232
1570004061,344.798,58.7127,24.6683,178.396,0.41748,88.4399,232
1570004061,344.798,58.7127,24.6683,178.396,0.41748,88.4399,232
1570004061,344.798,58.7127,24.6683,178.396,0.41748,88.4399,232
1570004061,344.798,58.7127,24.6683,178.396,0.41748,88.4399,232
1570004061,344.798,58.7127,24.6683,178.396,0.41748,88.4399,232
1570004061,344.798,58.7127,24.6683,178.396,0.41748,88.4399,232
1570004061,344.798,58.7127,24.6683,178.396,0.41748,88.4399,232
1570004061,344.798,58.7127,24.6683,178.396,0.41748,88.4399,232
1570004061,344.798,58.7127,24.6683,178.396,0.41748,88.4399,232
1570004061,344.798,58.7127,24.6683,178.396,0.41748,88.4399,232
1570004061,344.798,58.7127,24.6683,178.396,0.41748,88.4399,232
1570004061,344.798,58.7127,24.6683,178.396,0.41748,88.4399,232
1570004061,344.798,58.7127,24.6683,178.396,0.41748,88.4399,232
1570004061,344.798,58.7127,24.6683,178.396,0.41748,88.4399,232
1570004061,344.798,58.7127,24.6683,178.396,0.41748,88.4399,232
1570004061,344.798,58.7127,24.6683,178.396,0.41748,88.4399,232
1570004061,344.798,58.7127,24.6683,178.396,0.41748,88.4399,232
1570004061,344.798,58.7127,24.6683,178.396,0.41748,88.4399,232
1570004061,344.798,58.7127,24.6683,178.396,0.41748,88.4399,232
1570004061,344.798,58.7127,24.6683,178.396,0.41748,88.4399,232
1570004061,344.798,58.7127,24.6683,178.396,0.41748,88.4399,232
1570004061,344.798,58.7127,24.6683,178.396,0.41748,88.4399,232
1570004061,344.798,58.7127,24.6683,178.396,0.41748,88.4399,232
1570004061,344.798,58.7127,24.6683,178.396,0.41748,88.4399,232
1570004061,344.798,58.7127,24.6683,178.396,0.41748,88.4399,232
1570004061,344.798,58.7127,24.6683,178.396,0.41748,88.4399,232
1570004061,344.798,58.7127,24.6683,178.396,0.41748,88.4399,232
1570004061,344.798,58.7127,24.6683,178.396,0.41748,88.4399,232
1570004061,344.798,58.7127,24.6683,178.396,0.41748,88.4399,232
1570004061,344.798,58.7127,24.6683,178.396,0.41748,88.4399,232
1570004061,344.798,58.7127,24.6683,178.396,0.41748,88.4399,232
1570004061,344.798,58.7127,24.6683,178.396,0.41748,88.4399,232
1570004061,344.798,58.7127,24.6683,178.396,0.41748,88.4399,232
1570004061,344.798,58.7127,24.6683,178.396,0.41748,88.4399,232
1570004061,344.798,58.7127,24.6683,178.396,0.41748,88.4399,232
1570004061,344.798,58.7127,24.6683,178.396,0.41748,88.4399,232
1570004061,344.798,58.7127,24.6683,178.396,0.41748,88.4399,232
1570004061,344.798,58.7127,24.6683,178.396,0.41748,88.4399,232
1570004061,344.798,58.7127,24.6683,178.396,0.41748,88.4399,232
1570004061,344.798,58.7127,24.6683,178.396,0.41748,88.4399,232
1570004061,344.798,58.7127,24.6683,178.396,0.41748,88.4399,232
1570004061,344.798,58.7127,24.6683,178.396,0.41748,88.4399,232
1570004061,344.798,58.7127,24.6683,178.396,0.41748,88.4399,232
1570004061,344.798,58.7127,24.6683,178.396,0.41748,88.4399,232
1570004061,344.798,58.7127,24.6683,178.396,0.41748,88.4399,232
1570004061,344.798,58.7127,24.6683,178.396,0.41748,88.4399,232
1570004061,344.798,58.7127,24.6683,178.396,0.41748,88.4399,232
1570004061,344.798,58.7127,24.6683,178.396,0.41748,88.4399,232
1570004061,344.798,58.7127,24.6683,178.396,0.41748,88.4399,232
1570004061,344.798,58.7127,24.6683,178.396,0.41748,88.4399,232
1570004061,344.798,58.7127,24.6683,178.396,0.41748,88.4399,232
1570004061,344.798,58.7127,24.6683,178.396,0.41748,88.4399,232
1570004061,344.798,58.7127,24.6683,178.396,0.41748,88.4399,232
1570004061,344.798,58.7127,24.6683,178.396,0.41748,88.4399,232
1570004061,344.798,58.7127,24.6683,178.396,0.41748,88.4399,232
1570004061,344.798,58.7127,24.6683,178.396,0.41748,88.4399,232
1570004061,344.798,58.7127,24.6683,178.396,0.41748,88.4399,232
1570004061,344.798,58.7127,24.6683,178.396,0.41748,88.4399,232
1570004061,344.798,58.7127,24.6683,178.396,0.41748,88.4399,232
1570004061,344.798,58.7127,24.6683,178.396,0.41748,88.4399,232
1570004061,344.798,58.7127,24.6683,178.396,0.41748,88.4399,232
1570004061,344.798,58.7127,24.6683,178.396,0.41748,88.4399,232
1570004061,344.798,58.7127,24.6683,178.396,0.41748,88.4399,232
1570004061,344.798,58.7127,24.6683,178.396,0.395508,88.4399,232
1570004061,344.798,58.7127,24.6683,178.396,0.395508,88.4399,232
1570004061,344.798,58.7127,24.6683,178.396,0.395508,88.4399,232
1570004061,344.798,58.7127,24.6683,178.396,0.395508,88.4399,232
1570004061,344.798,58.7127,24.6683,178.396,0.395508,88.4399,232
1570004061,344.798,58.7127,24.6683,178.396,0.395508,88.4399,232
1570004061,344.798,58.7127,24.6683,178.396,0.395508,88.4399,232
1570004061,344.798,58.7127,24.6683,178.396,0.395508,88.4399,232
1570004061,344.798,58.7127,24.6683,178.396,0.395508,88.4399,232
1570004061,344.798,58.7127,24.6683,178.396,0.395508,88.4399,232
1570004061,344.798,58.7127,24.6683,178.396,0.395508,88.4399,232
1570004061,344.798,58.7127,24.6683,178.396,0.395508,88.4399,232
1570004061,344.798,58.7127,24.6683,178.396,0.395508,88.4399,232
1570004061,344.798,58.7127,24.6683,178.396,0.395508,88.4399,232
1570004061,344.798,58.7127,24.6683,178.396,0.395508,88.4399,232
1570004061,344.798,58.7127,24.6683,178.396,0.395508,88.4399,232
1570004061,344.798,58.7127,24.6683,178.396,0.395508,88.4399,232
1570004061,344.798,58.7127,24.6683,178.396,0.395508,88.4399,232
1570004061,344.798,58.7127,24.6683,178.396,0.395508,88.4399,232
1570004061,344.798,58.7127,24.6683,178.396,0.395508,88.4399,232
1570004061,344.798,58.7127,24.6683,178.396,0.395508,88.4399,232
1570004061,344.798,58.7127,24.6683,178.396,0.395508,88.4399,232
1570004061,344.798,58.7127,24.6683,178.396,0.395508,88.4399,232
1570004061,344.798,58.7127,24.6683,178.396,0.395508,88.4399,232
1570004061,344.798,58.7127,24.6683,178.396,0.395508,88.4399,232
1570004061,344.798,58.7127,24.6683,178.396,0.395508,88.4399,232
1570004061,344.798,58.7127,24.6683,178.396,0.395508,88.4399,232
1570004061,344.798,58.7127,24.6683,178.396,0.395508,88.4399,232
1570004061,344.798,58.7127,24.6683,178.396,0.395508,88.4399,232
1570004061,344.798,58.7127,24.6683,178.396,0.395508,88.4399,232
1570004061,344.798,58.7127,24.6683,178.396,0.395508,88.4399,232
1570004061,344.798,58.7127,24.6683,178.396,0.395508,88.4399,232
1570004062,344.798,58.7127,24.6683,178.396,0.395508,88.4399,232
1570004062,344.798,58.7127,24.6683,178.396,0.395508,88.4399,232
1570004062,344.798,58.7127,24.6683,178.396,0.395508,88.4399,232
1570004062,344.798,58.7127,24.6683,178.396,0.395508,88.4399,228
1570004062,344.798,58.7127,24.6683,178.396,0.395508,88.4399,228
1570004062,344.798,58.7127,24.6683,178.396,0.395508,88.4399,228
1570004062,344.798,58.7127,24.6683,178.396,0.395508,88.4399,228
1570004062,344.798,58.7127,24.6683,178.396,0.395508,88.4399,228
1570004062,344.798,58.7127,24.6683,178.396,0.395508,88.4399,228
1570004062,344.798,58.7127,24.6683,178.396,0.395508,88.4399,228
1570004062,344.798,58.7127,24.6683,178.396,0.395508,88.4399,228
1570004062,344.798,58.7127,24.6683,178.396,0.395508,88.4399,228
1570004062,344.798,58.7127,24.6683,178.396,0.395508,88.4399,228
1570004062,344.798,58.7127,24.6683,178.396,0.395508,88.4399,228
1570004062,344.798,58.7127,24.6683,178.396,0.41748,88.4399,228
1570004062,344.798,58.7127,24.6683,178.396,0.41748,88.4399,228
1570004062,344.798,58.7127,24.6683,178.396,0.395508,88.4399,228
1570004062,344.798,58.7127,24.6683,178.396,0.395508,88.4399,228
1570004062,344.798,58.7127,24.6683,178.396,0.395508,88.4399,228
1570004062,344.798,58.7127,24.6683,178.396,0.395508,88.4399,228
1570004062,344.798,58.7127,24.6683,178.396,0.395508,88.4399,228
1570004062,344.798,58.7127,24.6683,178.396,0.395508,88.4399,228
1570004062,344.798,58.7127,24.6683,178.396,0.395508,88.4399,228
1570004062,344.798,58.7127,24.6683,178.396,0.395508,88.4399,228
1570004062,344.798,58.7127,24.6683,178.396,0.395508,88.4399,228
1570004062,344.798,58.7127,24.6683,178.396,0.41748,88.4399,228
1570004062,344.798,58.7127,24.6683,178.396,0.41748,88.4399,232
1570004062,344.798,58.7127,24.6683,178.396,0.41748,88.4399,232
1570004062,344.798,58.7127,24.6683,178.396,0.41748,88.4399,232
1570004062,344.798,58.7127,24.6683,178.396,0.41748,88.4399,232
1570004062,344.798,58.7127,24.6683,178.396,0.41748,88.4399,232
1570004062,344.798,58.7127,24.6683,178.396,0.41748,88.4399,232
1570004062,344.798,58.7127,24.6683,178.396,0.41748,88.4399,232
1570004062,344.798,58.7127,24.6683,178.396,0.41748,88.4399,232
1570004062,344.798,58.7127,24.6683,178.396,0.41748,88.4399,232
1570004062,344.798,58.7127,24.6683,178.396,0.41748,88.4399,232
1570004062,344.798,58.7127,24.6683,178.396,0.41748,88.4399,232
1570004062,344.798,58.7127,24.6683,178.396,0.41748,88.4399,232
1570004062,344.798,58.7127,24.6683,178.396,0.41748,88.4399,232
1570004062,344.798,58.7127,24.6683,178.396,0.41748,88.4399,232
1570004062,344.798,58.7127,24.6683,178.396,0.41748,88.4399,232
1570004062,344.798,58.7127,24.6683,178.396,0.41748,88.4399,232
1570004062,344.798,58.7127,24.6683,178.396,0.41748,88.4399,232
1570004062,344.798,58.7127,24.6683,178.396,0.41748,88.4399,232
1570004062,344.798,58.7127,24.6683,178.396,0.41748,88.4399,232
1570004062,344.798,58.7127,24.6683,178.396,0.41748,88.4399,232
1570004062,344.798,58.7127,24.6683,178.396,0.41748,88.4399,232
1570004062,344.798,58.7127,24.6683,178.396,0.41748,88.4399,232
1570004062,344.798,58.7127,24.6683,178.396,0.41748,88.4399,232
1570004062,344.798,58.7127,24.6683,178.396,0.41748,88.4399,232
1570004062,344.798,58.7127,24.6683,178.396,0.41748,88.4399,232
1570004062,344.798,58.7127,24.6683,178.396,0.41748,88.4399,232
1570004062,344.798,58.7127,24.6683,178.396,0.41748,88.4399,232
1570004062,344.798,58.7127,24.6683,178.396,0.41748,88.4399,232
1570004062,344.798,58.7127,24.6683,178.396,0.41748,88.4399,232
1570004062,344.798,58.7127,24.6683,178.396,0.41748,88.4399,232
1570004062,344.798,58.7127,24.6683,178.396,0.41748,88.4399,232
1570004062,344.798,58.7127,24.6683,178.396,0.41748,88.4399,232
1570004062,344.798,58.7127,24.6683,178.396,0.41748,88.4399,232
1570004062,344.798,58.7127,24.6683,178.396,0.41748,88.4399,232
1570004062,344.798,58.7127,24.6683,178.396,0.41748,88.4399,232
1570004062,344.798,58.7127,24.6683,178.396,0.41748,88.4399,232
1570004062,344.798,58.7127,24.6683,178.396,0.41748,88.4399,232
1570004062,344.798,58.7127,24.6683,178.396,0.41748,88.4399,232
1570004062,344.798,58.7127,24.6683,178.396,0.41748,88.4399,232
1570004062,344.798,58.7127,24.6683,178.396,0.395508,88.4399,232
1570004062,344.798,58.7127,24.6683,178.396,0.395508,88.4399,232
1570004062,344.798,58.7127,24.6683,178.396,0.395508,88.4399,232
1570004062,344.798,58.7127,24.6683,178.396,0.395508,88.4399,232
1570004062,344.798,58.7127,24.6683,178.396,0.395508,88.4399,232
1570004062,344.798,58.7127,24.6683,178.396,0.395508,88.4399,232
1570004062,344.798,58.7127,24.6683,178.396,0.395508,88.4399,232
1570004062,344.798,58.7127,24.6683,178.396,0.395508,88.4399,232
1570004062,344.798,58.7127,24.6683,178.396,0.395508,88.4399,232
1570004062,344.798,58.7127,24.6683,178.396,0.395508,88.4399,232
1570004062,344.798,58.7127,24.6683,178.396,0.395508,88.4399,232
1570004062,344.798,58.7127,24.6683,178.396,0.395508,88.4399,232
1570004062,344.798,58.7127,24.6683,178.396,0.395508,88.4399,232
1570004062,344.798,58.7127,24.6683,178.396,0.395508,88.4399,232
1570004062,344.798,58.7127,24.6683,178.396,0.395508,88.4399,232
1570004062,344.798,58.7127,24.6683,178.396,0.41748,88.4399,232
1570004062,344.798,58.7127,24.6683,178.396,0.41748,88.4399,232
1570004062,344.798,58.7127,24.6683,178.396,0.41748,88.4399,232
1570004062,344.798,58.7127,24.6683,178.396,0.41748,88.4399,232
1570004062,344.798,58.7127,24.6683,178.396,0.41748,88.4399,232
1570004062,344.798,58.7127,24.6683,178.396,0.41748,88.4399,232
1570004062,344.798,58.7127,24.6683,178.396,0.41748,88.4399,232
1570004062,344.798,58.7127,24.6683,178.396,0.41748,88.4399,232
1570004062,344.798,58.7127,24.6683,178.396,0.41748,88.4399,232
1570004062,344.798,58.7127,24.6683,178.396,0.41748,88.4399,232
1570004062,344.798,58.7127,24.6683,178.396,0.395508,88.4399,232
1570004062,344.798,58.7127,24.6683,178.396,0.395508,88.4399,232
1570004062,344.798,58.7127,24.6683,178.396,0.395508,88.4399,232
1570004062,344.798,58.7127,24.6683,178.396,0.395508,88.4399,232
1570004062,344.798,58.7127,24.6683,178.396,0.395508,88.4399,232
1570004062,344.798,58.7127,24.6683,178.396,0.41748,88.4399,232
1570004062,344.798,58.7127,24.6683,178.396,0.41748,88.4399,232
1570004062,344.798,58.7127,24.6683,178.396,0.41748,88.4399,232
1570004062,344.798,58.7127,24.6683,178.396,0.41748,88.4399,232
1570004062,344.798,58.7127,24.6683,178.396,0.41748,88.4399,232
1570004063,344.798,58.7127,24.6683,178.396,0.41748,88.4399,232
1570004063,344.798,58.7127,24.6683,178.396,0.41748,88.4399,232
1570004063,344.798,58.7127,24.6683,178.396,0.41748,88.4399,232
1570004063,344.798,58.7127,24.6683,178.396,0.41748,88.4399,232
1570004063,344.798,58.7127,24.6683,178.396,0.41748,88.4399,232
1570004063,344.798,58.7127,24.6683,178.396,0.41748,88.4399,232
1570004063,344.798,58.7127,24.6683,178.396,0.41748,88.4399,232
1570004063,344.798,58.7127,24.6683,178.396,0.41748,88.4399,232
1570004063,344.798,58.7127,24.6683,178.396,0.41748,88.4399,232
1570004063,344.798,58.7127,24.6683,178.396,0.41748,88.4399,232
1570004063,344.798,58.7127,24.6683,178.396,0.41748,88.4399,232
1570004063,344.798,58.7127,24.6683,178.396,0.41748,88.4399,232
1570004063,344.798,58.7127,24.6683,178.396,0.41748,88.4399,232
1570004063,344.798,58.7127,24.6683,178.396,0.41748,88.4399,232
1570004063,344.798,58.7127,24.6683,178.396,0.41748,88.4399,232
1570004063,344.798,58.7127,24.6683,178.396,0.41748,88.4399,232
1570004063,344.798,58.7127,24.6683,178.396,0.41748,88.4399,232
1570004063,344.798,58.7127,24.6683,178.396,0.41748,88.4399,232
1570004063,344.798,58.7127,24.6683,178.396,0.41748,88.4399,232
1570004063,344.798,58.7127,24.6683,178.396,0.41748,88.4399,232
1570004063,344.798,58.7127,24.6683,178.396,0.41748,88.4399,232
1570004063,344.798,58.7127,24.6683,178.396,0.41748,88.4399,232
1570004063,344.798,58.7127,24.6683,178.396,0.41748,88.4399,232
1570004063,344.798,58.7127,24.6683,178.396,0.41748,88.4399,232
1570004063,344.798,58.7127,24.6683,178.396,0.41748,88.4399,232
1570004063,344.798,58.7127,24.6683,178.396,0.41748,88.4399,232
1570004063,344.798,58.7127,24.6683,178.396,0.41748,88.4399,232
1570004063,344.798,58.7127,24.6683,178.396,0.41748,88.4399,232
1570004063,344.798,58.7127,24.6683,178.396,0.41748,88.4399,232
1570004063,344.798,58.7127,24.6683,178.396,0.41748,88.4399,232
1570004063,344.798,58.7127,24.6683,178.396,0.41748,88.4399,232
1570004063,344.798,58.7127,24.6683,178.396,0.41748,88.4399,232
1570004063,344.798,58.7127,24.6683,178.396,0.395508,88.4619,232
1570004063,344.798,58.7127,24.6683,178.396,0.395508,88.4619,232
1570004063,344.798,58.7127,24.6683,178.396,0.41748,88.4619,232
1570004063,344.798,58.7127,24.6683,178.396,0.41748,88.4619,232
1570004063,344.798,58.7127,24.6683,178.396,0.41748,88.4619,232
1570004063,344.798,58.7127,24.6683,178.396,0.41748,88.4619,232
1570004063,344.798,58.7127,24.6683,178.396,0.41748,88.4619,232
1570004063,344.798,58.7127,24.6683,178.396,0.41748,88.4619,232
1570004063,344.798,58.7127,24.6683,178.396,0.41748,88.4619,232
1570004063,344.798,58.7127,24.6683,178.396,0.41748,88.4619,232
1570004063,344.798,58.7127,24.6683,178.396,0.41748,88.4619,232
1570004063,344.798,58.7127,24.6683,178.396,0.41748,88.4619,232
1570004063,344.798,58.7127,24.6683,178.396,0.395508,88.4619,232
1570004063,344.798,58.7127,24.6683,178.396,0.395508,88.4619,232
1570004063,344.798,58.7127,24.6683,178.396,0.395508,88.4619,232
1570004063,344.798,58.7127,24.6683,178.396,0.395508,88.4399,232
1570004063,344.798,58.7127,24.6683,178.396,0.395508,88.4399,232
1570004063,344.798,58.7127,24.6683,178.396,0.395508,88.4399,232
1570004063,344.798,58.7127,24.6683,178.396,0.41748,88.4399,232
1570004063,344.798,58.7127,24.6683,178.396,0.41748,88.4399,232
1570004063,344.798,58.7127,24.6683,178.396,0.41748,88.4399,232
1570004063,344.798,58.7127,24.6683,178.396,0.41748,88.4399,232
1570004063,344.798,58.7127,24.6683,178.396,0.41748,88.4399,232
1570004063,344.798,58.7127,24.6683,178.396,0.41748,88.4399,232
1570004063,344.798,58.7127,24.6683,178.396,0.41748,88.4399,232
1570004063,344.798,58.7127,24.6683,178.396,0.41748,88.4399,232
1570004063,344.798,58.7127,24.6683,178.396,0.41748,88.4399,232
1570004063,344.798,58.7127,24.6683,178.396,0.41748,88.4399,232
1570004063,344.798,58.7127,24.6683,178.396,0.41748,88.4399,232
1570004063,344.798,58.7127,24.6683,178.396,0.41748,88.4399,232
1570004063,344.798,58.7127,24.6683,178.396,0.41748,88.4399,232
1570004063,344.798,58.7127,24.6683,178.396,0.41748,88.4399,232
1570004063,344.798,58.7127,24.6683,178.396,0.41748,88.4399,232
1570004063,344.798,58.7127,24.6683,178.396,0.41748,88.4399,232
1570004063,344.798,58.7127,24.6683,178.396,0.41748,88.4399,232
1570004063,344.798,58.7127,24.6683,178.396,0.41748,88.4399,232
1570004063,344.798,58.7127,24.6683,178.396,0.41748,88.4399,232
1570004063,344.798,58.7127,24.6683,178.396,0.41748,88.4399,232
1570004063,344.798,58.7127,24.6683,178.396,0.41748,88.4399,232
1570004063,344.798,58.7127,24.6683,178.396,0.41748,88.4399,232
1570004063,344.798,58.7127,24.6683,178.396,0.41748,88.4399,232
1570004063,344.798,58.7127,24.6683,178.396,0.41748,88.4399,232
1570004063,344.798,58.7127,24.6683,178.396,0.41748,88.4399,232
1570004063,344.798,58.7127,24.6683,178.396,0.41748,88.4399,232
1570004063,344.798,58.7127,24.6683,178.396,0.41748,88.4399,232
1570004063,344.798,58.7127,24.6683,178.396,0.41748,88.4399,232
1570004063,344.798,58.7127,24.6683,178.396,0.41748,88.4399,232
1570004063,344.798,58.7127,24.6683,178.396,0.41748,88.4399,232
1570004063,344.798,58.7127,24.6683,178.396,0.41748,88.4399,232
1570004063,344.798,58.7127,24.6683,178.396,0.41748,88.4399,232
1570004063,344.798,58.7127,24.6683,178.396,0.41748,88.4399,232
1570004063,344.798,58.7127,24.6683,178.396,0.41748,88.4399,232
1570004063,344.798,58.7127,24.6683,178.396,0.41748,88.4399,232
1570004063,344.798,58.7127,24.6683,178.396,0.41748,88.4399,228
1570004063,344.798,58.7127,24.6683,178.396,0.41748,88.4399,228
1570004063,344.798,58.7127,24.6683,178.396,0.41748,88.4399,228
1570004063,344.798,58.7127,24.6683,178.396,0.41748,88.4399,228
1570004063,344.798,58.7127,24.6683,178.396,0.41748,88.4399,228
1570004063,344.798,58.7127,24.6683,178.396,0.41748,88.4399,228
1570004063,344.798,58.7127,24.6683,178.396,0.41748,88.4399,228
1570004063,344.798,58.7127,24.6683,178.396,0.41748,88.4399,228
1570004063,344.798,58.7127,24.6683,178.396,0.41748,88.4399,228
1570004063,344.798,58.7127,24.6683,178.396,0.41748,88.4399,228
1570004063,344.798,58.7127,24.6683,178.396,0.41748,88.4399,228
1570004063,344.798,58.7127,24.6683,178.396,0.41748,88.4399,228
1570004063,344.798,58.7127,24.6683,178.396,0.41748,88.4399,228
1570004063,344.798,58.7127,24.6683,178.396,0.41748,88.4399,228
1570004063,344.798,58.7127,24.6683,178.396,0.41748,88.4399,228
1570004064,344.798,58.7127,24.6683,178.396,0.41748,88.4399,228
1570004064,344.798,58.7127,24.6683,178.396,0.41748,88.4399,228
1570004064,344.798,58.7127,24.6683,178.396,0.41748,88.4399,228
1570004064,344.798,58.7127,24.6683,178.396,0.41748,88.4399,228
1570004064,344.798,58.7127,24.6683,178.396,0.41748,88.4399,228
1570004064,344.798,58.7127,24.6683,178.396,0.395508,88.4399,228
1570004064,344.798,58.7127,24.6683,178.396,0.395508,88.4399,228
1570004064,344.798,58.7127,24.6683,178.396,0.395508,88.4399,228
1570004064,344.798,58.7127,24.6683,178.396,0.395508,88.4399,228
1570004064,344.798,58.7127,24.6683,178.396,0.395508,88.4399,228
1570004064,344.798,58.7127,24.6683,178.396,0.395508,88.4399,228
1570004064,344.798,58.7127,24.6683,178.396,0.395508,88.4399,228
1570004064,344.798,58.7127,24.6683,178.396,0.395508,88.4399,228
1570004064,344.798,58.7127,24.6683,178.396,0.395508,88.4399,228
1570004064,344.798,58.7127,24.6683,178.396,0.395508,88.4399,228
1570004064,344.798,58.7127,24.6683,178.396,0.395508,88.4399,228
1570004064,344.798,58.7127,24.6683,178.396,0.395508,88.4399,228
1570004064,344.798,58.7127,24.6683,178.396,0.395508,88.4399,228
1570004064,344.798,58.7127,24.6683,178.396,0.395508,88.4399,228
1570004064,344.798,58.7127,24.6683,178.396,0.395508,88.4399,228
1570004064,344.798,58.7127,24.6683,178.396,0.395508,88.4399,228
1570004068,344.798,58.7127,24.6683,178.396,0.395508,88.4399,232
1570004068,344.798,58.7127,24.6683,178.396,0.395508,88.4399,232
1570004068,344.798,58.7127,24.6683,178.396,0.395508,88.4399,232
1570004068,344.798,58.7127,24.6683,178.396,0.395508,88.4399,232
1570004068,344.798,58.7127,24.6683,178.396,0.395508,88.4399,232
1570004068,344.798,58.7127,24.6683,178.396,0.395508,88.4399,232
1570004068,344.798,58.7127,24.6683,178.396,0.395508,88.4399,232
1570004068,344.798,58.7127,24.6683,178.396,0.395508,88.4399,232
1570004068,344.798,58.7127,24.6683,178.396,0.395508,88.4399,232
1570004068,344.798,58.7127,24.6683,178.396,0.395508,88.4399,232
1570004068,344.798,58.7127,24.6683,178.396,0.395508,88.4399,232
1570004068,344.798,58.7127,24.6683,178.396,0.395508,88.4399,232
1570004068,344.798,58.7127,24.6683,178.396,0.395508,88.4399,232
1570004068,344.798,58.7127,24.6683,178.396,0.395508,88.4399,232
1570004068,344.798,58.7127,24.6683,178.396,0.395508,88.4399,232
1570004068,344.798,58.7127,24.6683,178.396,0.395508,88.4399,232
1570004068,344.798,58.7127,24.6683,178.396,0.395508,88.4399,232
1570004068,344.798,58.7127,24.6683,178.396,0.395508,88.4399,232
1570004068,344.798,58.7127,24.6683,178.396,0.395508,88.4399,232
1570004068,344.798,58.7127,24.6683,178.396,0.395508,88.4399,232
1570004068,344.798,58.7127,24.6683,178.396,0.395508,88.4399,232
1570004068,344.798,58.7127,24.6683,178.396,0.395508,88.4399,232
1570004068,344.798,58.7127,24.6683,178.396,0.395508,88.4399,232
1570004068,344.798,58.7127,24.6683,178.396,0.395508,88.4399,232
1570004068,344.798,58.7127,24.6683,178.396,0.395508,88.4399,232
1570004068,344.798,58.7127,24.6683,178.396,0.395508,88.4399,232
1570004068,344.798,58.7127,24.6683,178.396,0.395508,88.4399,232
1570004068,344.798,58.7127,24.6683,178.396,0.395508,88.4399,232
1570004068,344.798,58.7127,24.6683,178.396,0.395508,88.4399,232
1570004068,344.798,58.7127,24.6683,178.396,0.395508,88.4399,232
1570004068,344.798,58.7127,24.6683,178.396,0.395508,88.4399,232
1570004068,344.798,58.7127,24.6683,178.396,0.395508,88.4399,228
1570004068,344.798,58.7127,24.6683,178.396,0.395508,88.4399,228
1570004068,344.798,58.7127,24.6683,178.396,0.395508,88.4399,228
1570004068,344.798,58.7127,24.6683,178.396,0.395508,88.4399,228
1570004068,344.798,58.7127,24.6683,178.396,0.395508,88.4399,228
1570004068,344.798,58.7127,24.6683,178.396,0.395508,88.4399,228
1570004068,344.798,58.7127,24.6683,178.396,0.395508,88.4399,228
1570004068,344.798,58.7127,24.6683,178.396,0.395508,88.4399,228
1570004068,344.798,58.7127,24.6683,178.396,0.395508,88.4399,228
1570004068,344.798,58.7127,24.6683,178.396,0.395508,88.4399,228
1570004068,344.798,58.7127,24.6683,178.396,0.395508,88.4399,232
1570004068,344.798,58.7127,24.6683,178.396,0.395508,88.4399,232
1570004068,344.798,58.7127,24.6683,178.396,0.395508,88.4399,232
1570004068,344.798,58.7127,24.6683,178.396,0.395508,88.4399,232
1570004068,344.798,58.7127,24.6683,178.396,0.395508,88.4399,232
1570004068,344.798,58.7127,24.6683,178.396,0.395508,88.4399,232
1570004068,344.798,58.7127,24.6683,178.396,0.395508,88.4399,232
1570004068,344.798,58.7127,24.6683,178.396,0.395508,88.4399,232
1570004068,344.798,58.7127,24.6683,178.396,0.395508,88.4399,232
1570004068,344.798,58.7127,24.6683,178.396,0.395508,88.4399,232
1570004068,344.798,58.7127,24.6683,178.396,0.395508,88.4399,232
1570004068,344.798,58.7127,24.6683,178.396,0.395508,88.4399,232
1570004068,344.798,58.7127,24.6683,178.396,0.395508,88.4399,232
1570004068,344.798,58.7127,24.6683,178.396,0.395508,88.4399,232
1570004068,344.798,58.7127,24.6683,178.396,0.395508,88.4399,232
1570004068,344.798,58.7127,24.6683,178.396,0.395508,88.4399,232
1570004068,344.798,58.7127,24.6683,178.396,0.395508,88.4399,232
1570004068,344.798,58.7127,24.6683,178.396,0.395508,88.4399,232
1570004068,344.798,58.7127,24.6683,178.396,0.395508,88.4399,232
1570004068,344.798,58.7127,24.6683,178.396,0.395508,88.4399,232
1570004068,344.798,58.7127,24.6683,178.396,0.395508,88.4399,232
1570004068,344.798,58.7127,24.6683,178.396,0.395508,88.4399,232
1570004068,344.798,58.7127,24.6683,178.396,0.395508,88.4399,232
1570004068,344.798,58.7127,24.6683,178.396,0.395508,88.4399,232
1570004068,344.798,58.7127,24.6683,178.396,0.395508,88.4399,232
1570004068,344.798,58.7127,24.6683,178.396,0.395508,88.4399,232
1570004068,344.798,58.7127,24.6683,178.396,0.395508,88.4399,232
1570004068,344.798,58.7127,24.6683,178.396,0.395508,88.4399,232
1570004068,344.798,58.7127,24.6683,178.396,0.395508,88.4399,232
1570004068,344.798,58.7127,24.6683,178.396,0.395508,88.4399,232
1570004068,344.798,58.7127,24.6683,178.396,0.395508,88.4399,232
1570004068,344.798,58.7127,24.6683,178.396,0.395508,88.4399,232
1570004068,344.798,58.7127,24.6683,178.396,0.395508,88.4399,232
1570004068,344.798,58.7127,24.6683,178.396,0.395508,88.4399,232
1570004068,344.798,58.7127,24.6683,178.396,0.395508,88.4399,232
1570004068,344.798,58.7127,24.6683,178.396,0.395508,88.4399,232
1570004068,344.798,58.7127,24.6683,178.396,0.395508,88.4399,232
1570004068,344.798,58.7127,24.6683,178.396,0.395508,88.4399,232
1570004068,344.798,58.7127,24.6683,178.396,0.395508,88.4399,232
1570004068,344.798,58.7127,24.6683,178.396,0.395508,88.4399,232
1570004068,344.798,58.7127,24.6683,178.396,0.395508,88.4399,232
1570004068,344.798,58.7127,24.6683,178.396,0.395508,88.4399,232
1570004068,344.798,58.7127,24.6683,178.396,0.395508,88.4399,232
1570004068,344.798,58.7127,24.6683,178.396,0.395508,88.4399,232
1570004068,344.798,58.7127,24.6683,178.396,0.395508,88.4399,232
1570004068,344.798,58.7127,24.6683,178.396,0.395508,88.4399,232
1570004068,344.798,58.7127,24.6683,178.396,0.395508,88.4399,232
1570004068,344.798,58.7127,24.6683,178.396,0.395508,88.4399,232
1570004068,344.798,58.7127,24.6683,178.396,0.395508,88.4399,232
1570004068,344.798,58.7127,24.6683,178.396,0.395508,88.4399,232
1570004068,344.798,58.7127,24.6683,178.396,0.395508,88.4399,232
1570004068,344.798,58.7127,24.6683,178.396,0.395508,88.4399,232
1570004068,344.798,58.7127,24.6683,178.396,0.395508,88.4399,232
1570004068,344.798,58.7127,24.6683,178.396,0.395508,88.4399,232
1570004068,344.798,58.7127,24.6683,178.396,0.395508,88.4399,232
1570004069,344.798,58.7127,24.6683,178.396,0.395508,88.4399,232
1570004069,344.798,58.7127,24.6683,178.396,0.395508,88.4399,232
1570004069,344.798,58.7127,24.6683,178.396,0.395508,88.4399,232
1570004069,344.798,58.7127,24.6683,178.396,0.395508,88.4399,232
1570004069,344.798,58.7127,24.6683,178.396,0.395508,88.4399,232
1570004069,344.798,58.7127,24.6683,178.396,0.395508,88.4399,232
1570004069,344.798,58.7127,24.6683,178.396,0.395508,88.4399,232
1570004069,344.798,58.7127,24.6683,178.396,0.395508,88.4399,232
1570004069,344.798,58.7127,24.6683,178.396,0.395508,88.4399,232
1570004069,344.798,58.7127,24.6683,178.396,0.395508,88.4399,232
1570004069,344.798,58.7127,24.6683,178.396,0.395508,88.4399,232
1570004069,344.798,58.7127,24.6683,178.396,0.395508,88.4399,232
1570004069,344.798,58.7127,24.6683,178.396,0.395508,88.4399,232
1570004069,344.798,58.7127,24.6683,178.396,0.395508,88.4399,232
1570004069,344.798,58.7127,24.6683,178.396,0.395508,88.4399,232
1570004069,344.798,58.7127,24.6683,178.396,0.395508,88.4399,232
1570004069,344.798,58.7127,24.6683,178.396,0.395508,88.4399,232
1570004069,344.798,58.7127,24.6683,178.396,0.395508,88.4399,232
1570004069,344.798,58.7127,24.6683,178.396,0.395508,88.4399,232
1570004069,344.798,58.7127,24.6683,178.396,0.395508,88.4399,232
1570004069,344.798,58.7127,24.6683,178.396,0.395508,88.4399,232
1570004069,344.798,58.7127,24.6683,178.396,0.395508,88.4399,232
1570004069,344.798,58.7127,24.6683,178.396,0.395508,88.4399,232
1570004069,344.798,58.7127,24.6683,178.396,0.395508,88.4399,232
1570004069,344.798,58.7127,24.6683,178.396,0.395508,88.4399,232
1570004069,344.798,58.7127,24.6683,178.396,0.395508,88.4399,232
1570004069,344.798,58.7127,24.6683,178.396,0.395508,88.4399,232
1570004069,344.798,58.7127,24.6683,178.396,0.395508,88.4399,232
1570004069,344.798,58.7127,24.6683,178.396,0.395508,88.4399,232
1570004069,344.798,58.7127,24.6683,178.396,0.395508,88.4399,232
1570004069,344.798,58.7127,24.6683,178.396,0.395508,88.4399,232
1570004069,344.798,58.7127,24.6683,178.396,0.395508,88.4399,232
1570004069,344.798,58.7127,24.6683,178.396,0.395508,88.4399,232
1570004069,344.798,58.7127,24.6683,178.396,0.395508,88.4399,232
1570004069,344.798,58.7127,24.6683,178.396,0.395508,88.4399,232
1570004069,344.798,58.7127,24.6683,178.396,0.395508,88.4399,232
1570004069,344.798,58.7127,24.6683,178.396,0.395508,88.4399,232
1570004069,344.798,58.7127,24.6683,178.396,0.395508,88.4399,232
1570004069,344.798,58.7127,24.6683,178.396,0.395508,88.4399,232
1570004069,344.798,58.7127,24.6683,178.396,0.395508,88.4399,232
1570004069,344.798,58.7127,24.6683,178.396,0.395508,88.4399,232
1570004069,344.798,58.7127,24.6683,178.396,0.395508,88.4399,232
1570004069,344.798,58.7127,24.6683,178.396,0.395508,88.4399,232
1570004069,344.798,58.7127,24.6683,178.396,0.395508,88.4399,232
1570004069,344.798,58.7127,24.6683,178.396,0.395508,88.4399,232
1570004069,344.798,58.7127,24.6683,178.396,0.395508,88.4399,232
1570004069,344.798,58.7127,24.6683,178.396,0.395508,88.4399,232
1570004069,344.798,58.7127,24.6683,178.396,0.395508,88.4399,232
1570004069,344.798,58.7127,24.6683,178.396,0.395508,88.4399,232
1570004069,344.798,58.7127,24.6683,178.396,0.395508,88.4399,232
1570004069,344.798,58.7127,24.6683,178.396,0.395508,88.4399,232
1570004069,344.798,58.7127,24.6683,178.396,0.395508,88.4399,232
1570004069,344.798,58.7127,24.6683,178.396,0.395508,88.4399,232
1570004069,344.798,58.7127,24.6683,178.396,0.395508,88.4399,232
1570004069,344.798,58.7127,24.6683,178.396,0.395508,88.4399,232
1570004069,344.798,58.7127,24.6683,178.396,0.395508,88.4399,232
1570004069,344.798,58.7127,24.6683,178.396,0.395508,88.4399,232
1570004069,344.798,58.7127,24.6683,178.396,0.395508,88.4399,232
1570004069,344.798,58.7127,24.6683,178.396,0.395508,88.4399,232
1570004069,344.798,58.7127,24.6683,178.396,0.395508,88.4399,232
1570004069,344.798,58.7127,24.6683,178.396,0.395508,88.4399,232
1570004069,344.798,58.7127,24.6683,178.396,0.395508,88.4399,232
1570004069,344.798,58.7127,24.6683,178.396,0.395508,88.4399,232
1570004069,344.798,58.7127,24.6683,178.396,0.395508,88.4399,232
1570004069,344.798,58.7127,24.6683,178.396,0.395508,88.4399,232
1570004069,344.798,58.7127,24.6683,178.396,0.395508,88.4399,232
1570004069,344.798,58.7127,24.6683,178.396,0.395508,88.4399,232
1570004069,344.798,58.7127,24.6683,178.396,0.395508,88.4399,232
1570004069,344.798,58.7127,24.6683,178.396,0.395508,88.4399,232
1570004069,344.798,58.7127,24.6683,178.396,0.395508,88.4399,232
1570004069,344.798,58.7127,24.6683,178.396,0.395508,88.4399,232
1570004069,344.798,58.7127,24.6683,178.396,0.395508,88.4399,232
1570004069,344.798,58.7127,24.6683,178.396,0.395508,88.4399,232
1570004069,344.798,58.7127,24.6683,178.396,0.395508,88.4399,232
1570004069,344.798,58.7127,24.6683,178.396,0.395508,88.4399,232
1570004069,344.798,58.7127,24.6683,178.396,0.395508,88.4399,232
1570004069,344.798,58.7127,24.6683,178.396,0.395508,88.4399,232
1570004069,344.798,58.7127,24.6683,178.396,0.395508,88.4399,232
1570004069,344.798,58.7127,24.6683,178.396,0.395508,88.4399,232
1570004069,344.798,58.7127,24.6683,178.396,0.395508,88.4399,232
1570004069,344.798,58.7127,24.6683,178.396,0.395508,88.4399,232
1570004069,344.798,58.7127,24.6683,178.396,0.395508,88.4399,232
1570004069,344.798,58.7127,24.6683,178.396,0.395508,88.4399,232
1570004069,344.798,58.7127,24.6683,178.396,0.395508,88.4399,232
1570004069,344.798,58.7127,24.6683,178.396,0.395508,88.4399,232
1570004069,344.798,58.7127,24.6683,178.396,0.395508,88.4399,232
1570004069,344.798,58.7127,24.6683,178.396,0.395508,88.4399,232
1570004069,344.798,58.7127,24.6683,178.396,0.395508,88.4399,232
1570004069,344.798,58.7127,24.6683,178.396,0.395508,88.4399,232
1570004069,344.798,58.7127,24.6683,178.396,0.395508,88.4399,232
1570004069,344.798,58.7127,24.6683,178.396,0.395508,88.4399,232
1570004069,344.798,58.7127,24.6683,178.396,0.395508,88.4399,232
1570004069,344.798,58.7127,24.6683,178.396,0.395508,88.4399,232
1570004069,344.798,58.7127,24.6683,178.396,0.395508,88.4399,232
1570004069,344.798,58.7127,24.6683,178.396,0.395508,88.4399,232
1570004069,344.798,58.7127,24.6683,178.396,0.395508,88.4399,232
1570004069,344.798,58.7127,24.6683,178.396,0.395508,88.4399,232
1570004069,344.798,58.7127,24.6683,178.396,0.395508,88.4399,232
1570004069,344.798,58.7127,24.6683,178.396,0.395508,88.4399,232
1570004069,344.798,58.7127,24.6683,178.396,0.395508,88.4399,232
1570004070,344.798,58.7127,24.6683,178.396,0.395508,88.4399,232
1570004070,344.798,58.7127,24.6683,178.396,0.395508,88.4399,232
1570004070,344.798,58.7127,24.6683,178.396,0.395508,88.4399,232
1570004070,344.798,58.7127,24.6683,178.396,0.395508,88.4399,232
1570004070,344.798,58.7127,24.6683,178.396,0.395508,88.4399,232
1570004070,344.798,58.7127,24.6683,178.396,0.395508,88.4399,232
1570004070,344.798,58.7127,24.6683,178.396,0.395508,88.4399,232
1570004070,344.798,58.7127,24.6683,178.396,0.395508,88.4399,232
1570004070,344.798,58.7127,24.6683,178.396,0.395508,88.4399,232
1570004070,344.798,58.7127,24.6683,178.396,0.395508,88.4399,232
1570004070,344.798,58.7127,24.6683,178.396,0.395508,88.4399,232
1570004070,344.798,58.7127,24.6683,178.396,0.395508,88.4399,232
1570004070,344.798,58.7127,24.6683,178.396,0.395508,88.4399,232
1570004070,344.798,58.7127,24.6683,178.396,0.395508,88.4399,232
1570004070,344.798,58.7127,24.6683,178.396,0.395508,88.4399,232
1570004070,344.798,58.7127,24.6683,178.396,0.395508,88.4399,232
1570004070,344.798,58.7127,24.6683,178.396,0.395508,88.4399,232
1570004070,344.798,58.7127,24.6683,178.396,0.395508,88.4399,232
1570004070,344.798,58.7127,24.6683,178.396,0.395508,88.4399,232
1570004070,344.798,58.7127,24.6683,178.396,0.395508,88.4399,232
1570004070,344.798,58.7127,24.6683,178.396,0.395508,88.4399,232
1570004070,344.798,58.7127,24.6683,178.396,0.395508,88.4399,232
1570004070,344.798,58.7127,24.6683,178.396,0.395508,88.4399,232
1570004070,344.798,58.7127,24.6683,178.396,0.395508,88.4399,232
1570004070,344.798,58.7127,24.6683,178.396,0.395508,88.4399,232
1570004070,344.798,58.7127,24.6683,178.396,0.395508,88.4399,232
1570004070,344.798,58.7127,24.6683,178.396,0.395508,88.4399,232
1570004070,344.798,58.7127,24.6683,178.396,0.395508,88.4399,232
1570004070,344.798,58.7127,24.6683,178.396,0.395508,88.4399,232
1570004070,344.798,58.7127,24.6683,178.396,0.395508,88.4399,232
1570004070,344.798,58.7127,24.6683,178.396,0.395508,88.4399,232
1570004070,344.798,58.7127,24.6683,178.396,0.395508,88.4399,232
1570004070,344.798,58.7127,24.6683,178.396,0.395508,88.4399,232
1570004070,344.798,58.7127,24.6683,178.396,0.395508,88.4399,232
1570004070,344.798,58.7127,24.6683,178.396,0.395508,88.4399,232
1570004070,344.798,58.7127,24.6683,178.396,0.395508,88.4399,232
1570004070,344.798,58.7127,24.6683,178.396,0.395508,88.4399,232
1570004070,344.798,58.7127,24.6683,178.396,0.395508,88.4399,232
1570004070,344.798,58.7127,24.6683,178.396,0.395508,88.4399,232
1570004070,344.798,58.7127,24.6683,178.396,0.395508,88.4399,232
1570004070,344.798,58.7127,24.6683,178.396,0.395508,88.4399,232
1570004070,344.798,58.7127,24.6683,178.396,0.395508,88.4399,232
1570004070,344.798,58.7127,24.6683,178.396,0.395508,88.4399,232
1570004070,344.798,58.7127,24.6683,178.396,0.395508,88.4399,232
1570004070,344.798,58.7127,24.6683,178.396,0.395508,88.4399,232
1570004070,344.798,58.7127,24.6683,178.396,0.395508,88.4399,232
1570004070,344.798,58.7127,24.6683,178.396,0.395508,88.4399,232
1570004070,344.798,58.7127,24.6683,178.396,0.395508,88.4399,232
1570004070,344.798,58.7127,24.6683,178.396,0.395508,88.4399,232
1570004070,344.798,58.7127,24.6683,178.396,0.395508,88.4399,232
1570004070,344.798,58.7127,24.6683,178.396,0.395508,88.4399,232
1570004070,344.798,58.7127,24.6683,178.396,0.395508,88.4399,232
1570004070,344.798,58.7127,24.6683,178.396,0.395508,88.4399,232
1570004070,344.798,58.7127,24.6683,178.396,0.395508,88.4399,232
1570004070,344.798,58.7127,24.6683,178.396,0.395508,88.4399,232
1570004070,344.798,58.7127,24.6683,178.396,0.395508,88.4399,232
1570004070,344.798,58.7127,24.6683,178.396,0.395508,88.4399,232
1570004070,344.798,58.7127,24.6683,178.396,0.395508,88.4399,232
1570004070,344.798,58.7127,24.6683,178.396,0.395508,88.4399,232
1570004070,344.798,58.7127,24.6683,178.396,0.395508,88.4399,232
1570004070,344.798,58.7127,24.6683,178.396,0.395508,88.4399,232
1570004070,344.798,58.7127,24.6683,178.396,0.395508,88.4399,232
1570004070,344.798,58.7127,24.6683,178.396,0.395508,88.4399,232
1570004070,344.798,58.7127,24.6683,178.396,0.395508,88.4399,232
1570004070,344.798,58.7127,24.6683,178.396,0.395508,88.4399,232
1570004070,344.798,58.7127,24.6683,178.396,0.395508,88.4399,232
1570004070,344.798,58.7127,24.6683,178.396,0.395508,88.4399,232
1570004070,344.798,58.7127,24.6683,178.396,0.395508,88.4399,232
1570004070,344.798,58.7127,24.6683,178.396,0.395508,88.4399,232
1570004070,344.798,58.7127,24.6683,178.396,0.395508,88.4399,232
1570004070,344.798,58.7127,24.6683,178.396,0.395508,88.4399,232
1570004070,344.798,58.7127,24.6683,178.396,0.395508,88.4399,232
1570004070,344.798,58.7127,24.6683,178.396,0.395508,88.4399,232
1570004070,344.798,58.7127,24.6683,178.396,0.395508,88.4399,232
1570004070,344.798,58.7127,24.6683,178.396,0.395508,88.4399,232
1570004070,344.798,58.7127,24.6683,178.396,0.395508,88.4399,232
1570004070,344.798,58.7127,24.6683,178.396,0.395508,88.4399,232
1570004070,344.798,58.7127,24.6683,178.396,0.395508,88.4399,232
1570004070,344.798,58.7127,24.6683,178.396,0.395508,88.4399,232
1570004070,344.798,58.7127,24.6683,178.396,0.395508,88.4399,232
1570004070,344.798,58.7127,24.6683,178.396,0.395508,88.4399,232
1570004070,344.798,58.7127,24.6683,178.396,0.395508,88.4399,232
1570004070,344.798,58.7127,24.6683,178.396,0.395508,88.4399,232
1570004070,344.798,58.7127,24.6683,178.396,0.395508,88.4399,232
1570004070,344.798,58.7127,24.6683,178.396,0.395508,88.4399,232
1570004070,344.798,58.7127,24.6683,178.396,0.395508,88.4399,232
1570004070,344.798,58.7127,24.6683,178.396,0.395508,88.4399,232
1570004070,344.798,58.7127,24.6683,178.396,0.395508,88.4399,232
1570004070,344.798,58.7127,24.6683,178.396,0.395508,88.4399,232
1570004070,344.798,58.7127,24.6683,178.396,0.395508,88.4399,232
1570004070,344.798,58.7127,24.6683,178.396,0.395508,88.4399,232
1570004070,344.798,58.7127,24.6683,178.396,0.395508,88.4399,232
1570004070,344.798,58.7127,24.6683,178.396,0.395508,88.4399,232
1570004070,344.798,58.7127,24.6683,178.396,0.395508,88.4399,232
1570004070,344.798,58.7127,24.6683,178.396,0.395508,88.4399,232
1570004070,344.798,58.7127,24.6683,178.396,0.395508,88.4399,232
1570004070,344.798,58.7127,24.6683,178.396,0.395508,88.4399,232
1570004070,344.798,58.7127,24.6683,178.396,0.395508,88.4399,232
1570004070,344.798,58.7127,24.6683,178.396,0.395508,88.4399,232
1570004070,344.798,58.7127,24.6683,178.396,0.395508,88.4399,232
1570004071,344.798,58.7127,24.6683,178.396,0.395508,88.4399,232
1570004071,344.798,58.7127,24.6683,178.396,0.395508,88.4399,232
1570004071,344.798,58.7127,24.6683,178.396,0.395508,88.4399,232
1570004071,344.798,58.7127,24.6683,178.396,0.395508,88.4399,232
1570004071,344.798,58.7127,24.6683,178.396,0.395508,88.4399,232
1570004071,344.798,58.7127,24.6683,178.396,0.395508,88.4399,232
1570004071,344.798,58.7127,24.6683,178.396,0.395508,88.4399,232
1570004071,344.798,58.7127,24.6683,178.396,0.395508,88.4399,232
1570004071,344.798,58.7127,24.6683,178.396,0.395508,88.4399,232
1570004071,344.798,58.7127,24.6683,178.396,0.395508,88.4399,232
1570004071,344.798,58.7127,24.6683,178.396,0.395508,88.4399,232
1570004071,344.798,58.7127,24.6683,178.396,0.395508,88.4399,232
1570004071,344.798,58.7127,24.6683,178.396,0.395508,88.4399,232
1570004071,344.798,58.7127,24.6683,178.396,0.395508,88.4399,232
1570004071,344.798,58.7127,24.6683,178.396,0.395508,88.4399,232
1570004071,344.798,58.7127,24.6683,178.396,0.395508,88.4399,232
1570004071,344.798,58.7127,24.6683,178.396,0.395508,88.4399,232
1570004071,344.798,58.7127,24.6683,178.396,0.395508,88.4399,232
1570004071,344.798,58.7127,24.6683,178.396,0.395508,88.4399,232
1570004071,344.798,58.7127,24.6683,178.396,0.395508,88.4399,232
1570004071,344.798,58.7127,24.6683,178.396,0.395508,88.4399,232
1570004071,344.798,58.7127,24.6683,178.396,0.395508,88.4399,232
1570004071,344.798,58.7127,24.6683,178.396,0.395508,88.4399,232
1570004071,344.798,58.7127,24.6683,178.396,0.395508,88.4399,232
1570004071,344.798,58.7127,24.6683,178.396,0.395508,88.4399,232
1570004071,344.798,58.7127,24.6683,178.396,0.395508,88.4399,232
1570004071,344.798,58.7127,24.6683,178.396,0.395508,88.4399,232
1570004071,344.798,58.7127,24.6683,178.396,0.395508,88.4399,232
1570004071,344.798,58.7127,24.6683,178.396,0.395508,88.4399,232
1570004071,344.798,58.7127,24.6683,178.396,0.395508,88.4399,232
1570004071,344.798,58.7127,24.6683,178.396,0.395508,88.4399,232
1570004071,344.798,58.7127,24.6683,178.396,0.395508,88.4399,232
1570004071,344.798,58.7127,24.6683,178.396,0.395508,88.4399,232
1570004071,344.798,58.7127,24.6683,178.396,0.395508,88.4399,232
1570004071,344.798,58.7127,24.6683,178.396,0.395508,88.4399,232
1570004071,344.798,58.7127,24.6683,178.396,0.395508,88.4399,232
1570004071,344.798,58.7127,24.6683,178.396,0.395508,88.4399,232
1570004071,344.798,58.7127,24.6683,178.396,0.395508,88.4399,232
1570004071,344.798,58.7127,24.6683,178.396,0.395508,88.4399,232
1570004071,344.798,58.7127,24.6683,178.396,0.395508,88.4399,232
1570004071,344.798,58.7127,24.6683,178.396,0.395508,88.4399,232
1570004071,344.798,58.7127,24.6683,178.396,0.395508,88.4399,232
1570004071,344.798,58.7127,24.6683,178.396,0.395508,88.4399,232
1570004071,344.798,58.7127,24.6683,178.396,0.395508,88.4399,232
1570004071,344.798,58.7127,24.6683,178.396,0.395508,88.4399,232
1570004071,344.798,58.7127,24.6683,178.396,0.395508,88.4399,232
1570004071,344.798,58.7127,24.6683,178.396,0.395508,88.4399,232
1570004071,344.798,58.7127,24.6683,178.396,0.395508,88.4399,232
1570004071,344.798,58.7127,24.6683,178.396,0.395508,88.4399,232
1570004071,344.798,58.7127,24.6683,178.396,0.395508,88.4399,232
1570004071,344.798,58.7127,24.6683,178.396,0.395508,88.4399,232
1570004071,344.798,58.7127,24.6683,178.396,0.395508,88.4399,232
1570004071,344.798,58.7127,24.6683,178.396,0.395508,88.4399,232
1570004071,344.798,58.7127,24.6683,178.396,0.395508,88.4399,232
1570004071,344.798,58.7127,24.6683,178.396,0.395508,88.4399,232
1570004071,344.798,58.7127,24.6683,178.396,0.395508,88.4399,232
1570004071,344.798,58.7127,24.6683,178.396,0.395508,88.4399,232
1570004071,344.798,58.7127,24.6683,178.396,0.395508,88.4399,232
1570004071,344.798,58.7127,24.6683,178.396,0.395508,88.4399,232
1570004071,344.798,58.7127,24.6683,178.396,0.395508,88.4399,232
1570004071,344.798,58.7127,24.6683,178.396,0.395508,88.4399,232
1570004071,344.798,58.7127,24.6683,178.396,0.395508,88.4399,232
1570004071,344.798,58.7127,24.6683,178.396,0.395508,88.4399,232
1570004071,344.798,58.7127,24.6683,178.396,0.395508,88.4399,232
1570004071,344.798,58.7127,24.6683,178.396,0.395508,88.4399,232
1570004071,344.798,58.7127,24.6683,178.396,0.395508,88.4399,232
1570004071,344.798,58.7127,24.6683,178.396,0.395508,88.4399,232
1570004071,344.798,58.7127,24.6683,178.396,0.395508,88.4399,232
1570004071,344.798,58.7127,24.6683,178.396,0.395508,88.4399,232
1570004071,344.798,58.7127,24.6683,178.396,0.395508,88.4399,232
1570004071,344.798,58.7127,24.6683,178.396,0.395508,88.4399,232
1570004071,344.798,58.7127,24.6683,178.396,0.395508,88.4399,232
1570004071,344.798,58.7127,24.6683,178.396,0.395508,88.4399,232
1570004071,344.798,58.7127,24.6683,178.396,0.395508,88.4399,228
1570004071,344.798,58.7127,24.6683,178.396,0.395508,88.4399,228
1570004071,344.798,58.7127,24.6683,178.396,0.395508,88.4399,228
1570004071,344.798,58.7127,24.6683,178.396,0.395508,88.4399,228
1570004071,344.798,58.7127,24.6683,178.396,0.395508,88.4399,228
1570004071,344.798,58.7127,24.6683,178.396,0.395508,88.4399,228
1570004071,344.798,58.7127,24.6683,178.396,0.395508,88.4399,228
1570004071,344.798,58.7127,24.6683,178.396,0.395508,88.4399,228
1570004071,344.798,58.7127,24.6683,178.396,0.395508,88.4399,228
1570004071,344.798,58.7127,24.6683,178.396,0.395508,88.4399,228
1570004071,344.798,58.7127,24.6683,178.396,0.395508,88.4399,228
1570004071,344.798,58.7127,24.6683,178.396,0.395508,88.4399,228
1570004071,344.798,58.7127,24.6683,178.396,0.395508,88.4399,228
1570004071,344.798,58.7127,24.6683,178.396,0.395508,88.4399,228
1570004071,344.798,58.7127,24.6683,178.396,0.395508,88.4399,228
1570004071,344.798,58.7127,24.6683,178.396,0.395508,88.4399,228
1570004071,344.798,58.7127,24.6683,178.396,0.395508,88.4399,228
1570004071,344.798,58.7127,24.6683,178.396,0.395508,88.4399,228
1570004071,344.798,58.7127,24.6683,178.396,0.395508,88.4399,228
1570004071,344.798,58.7127,24.6683,178.396,0.395508,88.4399,228
1570004071,344.798,58.7127,24.6683,178.396,0.395508,88.4399,228
1570004071,344.798,58.7127,24.6683,178.396,0.395508,88.4399,228
1570004071,344.798,58.7127,24.6683,178.396,0.395508,88.4399,228
1570004071,344.798,58.7127,24.6683,178.396,0.395508,88.4399,228
1570004071,344.798,58.7127,24.6683,178.396,0.395508,88.4399,228
1570004071,344.798,58.7127,24.6683,178.396,0.395508,88.4399,228
1570004071,344.798,58.7127,24.6683,178.396,0.395508,88.4399,228
1570004072,344.798,58.7127,24.6683,178.396,0.395508,88.4399,228
1570004072,344.798,58.7127,24.6683,178.396,0.395508,88.4399,228
1570004072,344.798,58.7127,24.6683,178.396,0.395508,88.4399,228
1570004072,344.798,58.7127,24.6683,178.396,0.395508,88.4399,228
1570004072,344.798,58.7127,24.6683,178.396,0.395508,88.4399,228
1570004072,344.798,58.7127,24.6683,178.396,0.395508,88.4399,228
1570004072,344.798,58.7127,24.6683,178.396,0.395508,88.4399,228
1570004072,344.798,58.7127,24.6683,178.396,0.395508,88.4399,228
1570004072,344.798,58.7127,24.6683,178.396,0.395508,88.4399,228
1570004072,344.798,58.7127,24.6683,178.396,0.395508,88.4399,228
1570004072,344.798,58.7127,24.6683,178.396,0.395508,88.4399,228
1570004072,344.798,58.7127,24.6683,178.396,0.395508,88.4399,228
1570004072,344.798,58.7127,24.6683,178.396,0.395508,88.4399,228
1570004072,344.798,58.7127,24.6683,178.396,0.395508,88.4399,232
1570004072,344.798,58.7127,24.6683,178.396,0.395508,88.4399,232
1570004072,344.798,58.7127,24.6683,178.396,0.395508,88.4399,232
1570004072,344.798,58.7127,24.6683,178.396,0.395508,88.4399,232
1570004072,344.798,58.7127,24.6683,178.396,0.395508,88.4399,232
1570004072,344.798,58.7127,24.6683,178.396,0.395508,88.4399,232
1570004072,344.798,58.7127,24.6683,178.396,0.395508,88.4399,232
1570004072,344.798,58.7127,24.6683,178.396,0.395508,88.4399,232
1570004072,344.798,58.7127,24.6683,178.396,0.395508,88.4399,232
1570004072,344.798,58.7127,24.6683,178.396,0.395508,88.4399,232
1570004072,344.798,58.7127,24.6683,178.396,0.395508,88.4399,232
1570004072,344.798,58.7127,24.6683,178.396,0.395508,88.4399,232
1570004072,344.798,58.7127,24.6683,178.396,0.395508,88.4399,232
1570004072,344.798,58.7127,24.6683,178.396,0.395508,88.4399,232
1570004072,344.798,58.7127,24.6683,178.396,0.395508,88.4399,232
1570004072,344.798,58.7127,24.6683,178.396,0.395508,88.4399,232
1570004072,344.798,58.7127,24.6683,178.396,0.395508,88.4399,232
1570004072,344.798,58.7127,24.6683,178.396,0.395508,88.4399,232
1570004072,344.798,58.7127,24.6683,178.396,0.395508,88.4399,232
1570004072,344.798,58.7127,24.6683,178.396,0.395508,88.4399,232
1570004072,344.798,58.7127,24.6683,178.396,0.395508,88.4399,232
1570004072,344.798,58.7127,24.6683,178.396,0.395508,88.4399,232
1570004072,344.798,58.7127,24.6683,178.396,0.395508,88.4399,232
1570004072,344.798,58.7127,24.6683,178.396,0.395508,88.4399,232
1570004072,344.798,58.7127,24.6683,178.396,0.395508,88.4399,232
1570004072,344.798,58.7127,24.6683,178.396,0.395508,88.4399,232
1570004072,344.798,58.7127,24.6683,178.396,0.395508,88.4399,232
1570004072,344.798,58.7127,24.6683,178.396,0.395508,88.4399,232
1570004072,344.798,58.7127,24.6683,178.396,0.395508,88.4399,232
1570004072,344.798,58.7127,24.6683,178.396,0.395508,88.4399,232
1570004072,344.798,58.7127,24.6683,178.396,0.395508,88.4399,232
1570004072,344.798,58.7127,24.6683,178.396,0.395508,88.4399,228
1570004072,344.798,58.7127,24.6683,178.396,0.395508,88.4399,228
1570004072,344.798,58.7127,24.6683,178.396,0.395508,88.4399,228
1570004072,344.798,58.7127,24.6683,178.396,0.395508,88.4399,228
1570004072,344.798,58.7127,24.6683,178.396,0.395508,88.4399,228
1570004072,344.798,58.7127,24.6683,178.396,0.395508,88.4399,228
1570004072,344.798,58.7127,24.6683,178.396,0.395508,88.4399,228
1570004072,344.798,58.7127,24.6683,178.396,0.395508,88.4399,228
1570004072,344.798,58.7127,24.6683,178.396,0.395508,88.4399,228
1570004072,344.798,58.7127,24.6683,178.396,0.395508,88.4399,228
1570004072,344.798,58.7127,24.6683,178.396,0.395508,88.4399,228
1570004072,344.798,58.7127,24.6683,178.396,0.395508,88.4399,228
1570004072,344.798,58.7127,24.6683,178.396,0.395508,88.4399,228
1570004072,344.798,58.7127,24.6683,178.396,0.395508,88.4399,228
1570004072,344.798,58.7127,24.6683,178.396,0.395508,88.4399,228
1570004072,344.798,58.7127,24.6683,178.396,0.395508,88.4399,228
1570004072,344.798,58.7127,24.6683,178.396,0.395508,88.4399,228
1570004072,344.798,58.7127,24.6683,178.396,0.395508,88.4399,228
1570004072,344.798,58.7127,24.6683,178.396,0.395508,88.4399,228
1570004072,344.798,58.7127,24.6683,178.396,0.395508,88.4399,228
1570004072,344.798,58.7127,24.6683,178.396,0.395508,88.4399,228
1570004072,344.798,58.7127,24.6683,178.396,0.395508,88.4399,228
1570004072,344.798,58.7127,24.6683,178.396,0.395508,88.4399,228
1570004072,344.798,58.7127,24.6683,178.396,0.395508,88.4399,228
1570004072,344.798,58.7127,24.6683,178.396,0.395508,88.4399,228
1570004072,344.798,58.7127,24.6683,178.396,0.395508,88.4399,228
1570004072,344.798,58.7127,24.6683,178.396,0.395508,88.4399,228
1570004072,344.798,58.7127,24.6683,178.396,0.395508,88.4399,228
1570004072,344.798,58.7127,24.6683,178.396,0.395508,88.4399,228
1570004072,344.798,58.7127,24.6683,178.396,0.395508,88.4399,228
1570004072,344.798,58.7127,24.6683,178.396,0.395508,88.4399,228
1570004072,344.798,58.7127,24.6683,178.396,0.395508,88.4399,228
1570004072,344.798,58.7127,24.6683,178.396,0.395508,88.4399,228
1570004072,344.798,58.7127,24.6683,178.396,0.395508,88.4399,228
1570004072,344.798,58.7127,24.6683,178.396,0.395508,88.4399,228
1570004072,344.798,58.7127,24.6683,178.396,0.395508,88.4399,228
1570004072,344.798,58.7127,24.6683,178.396,0.395508,88.4399,228
1570004072,344.798,58.7127,24.6683,178.396,0.395508,88.4399,228
1570004072,344.798,58.7127,24.6683,178.396,0.395508,88.4399,228
1570004072,344.798,58.7127,24.6683,178.396,0.395508,88.4399,232
1570004072,344.798,58.7127,24.6683,178.396,0.395508,88.4399,232
1570004072,344.798,58.7127,24.6683,178.396,0.395508,88.4399,232
1570004072,344.798,58.7127,24.6683,178.396,0.395508,88.4399,232
1570004072,344.798,58.7127,24.6683,178.396,0.395508,88.4399,232
1570004072,344.798,58.7127,24.6683,178.396,0.395508,88.4399,232
1570004072,344.798,58.7127,24.6683,178.396,0.395508,88.4399,232
1570004072,344.798,58.7127,24.6683,178.396,0.395508,88.4399,232
1570004072,344.798,58.7127,24.6683,178.396,0.395508,88.4399,232
1570004072,344.798,58.7127,24.6683,178.396,0.395508,88.4399,232
1570004072,344.798,58.7127,24.6683,178.396,0.395508,88.4399,232
1570004072,344.798,58.7127,24.6683,178.396,0.395508,88.4399,232
1570004072,344.798,58.7127,24.6683,178.396,0.395508,88.4399,232
1570004072,344.798,58.7127,24.6683,178.396,0.395508,88.4399,232
1570004072,344.798,58.7127,24.6683,178.396,0.395508,88.4399,232
1570004072,344.798,58.7127,24.6683,178.396,0.395508,88.4399,232
1570004072,344.798,58.7127,24.6683,178.396,0.395508,88.4399,232
1570004073,344.798,58.7127,24.6683,178.396,0.395508,88.4399,232
1570004073,344.798,58.7127,24.6683,178.396,0.395508,88.4399,232
1570004073,344.798,58.7127,24.6683,178.396,0.395508,88.4399,232
1570004073,344.798,58.7127,24.6683,178.396,0.395508,88.4399,232
1570004076,344.798,58.7127,24.6683,178.396,0.395508,88.4619,236
1570004076,344.798,58.7127,24.6683,178.396,0.395508,88.4619,232
1570004076,344.798,58.7127,24.6683,178.396,0.395508,88.4619,232
1570004077,344.798,58.7127,24.6683,178.396,0.395508,88.4619,232
1570004077,344.798,58.7127,24.6683,178.396,0.395508,88.4619,232
1570004077,344.798,58.7127,24.6683,178.396,0.395508,88.4619,232
1570004077,344.798,58.7127,24.6683,178.396,0.395508,88.4619,232
1570004077,344.798,58.7127,24.6683,178.396,0.395508,88.4619,232
1570004077,344.798,58.7127,24.6683,178.396,0.395508,88.4619,232
1570004077,344.798,58.7127,24.6683,178.396,0.395508,88.4619,232
1570004077,344.798,58.7127,24.6683,178.396,0.395508,88.4619,232
1570004077,344.798,58.7127,24.6683,178.396,0.395508,88.4619,232
1570004077,344.798,58.7127,24.6683,178.396,0.395508,88.4619,232
1570004077,344.798,58.7127,24.6683,178.396,0.395508,88.4619,232
1570004077,344.798,58.7127,24.6683,178.396,0.395508,88.4619,232
1570004077,344.798,58.7127,24.6683,178.396,0.395508,88.4399,232
1570004077,344.798,58.7127,24.6683,178.396,0.395508,88.4399,232
1570004077,344.798,58.7127,24.6683,178.396,0.395508,88.4399,232
1570004077,344.798,58.7127,24.6683,178.396,0.395508,88.4399,232
1570004077,344.798,58.7127,24.6683,178.396,0.395508,88.4399,232
1570004077,344.798,58.7127,24.6683,178.396,0.395508,88.4399,232
1570004077,344.798,58.7127,24.6683,178.396,0.395508,88.4399,232
1570004077,344.798,58.7127,24.6683,178.396,0.395508,88.4399,232
1570004077,344.798,58.7127,24.6683,178.396,0.395508,88.4399,232
1570004077,344.798,58.7127,24.6683,178.396,0.395508,88.4619,232
1570004077,344.798,58.7127,24.6683,178.396,0.395508,88.4619,232
1570004077,344.798,58.7127,24.6683,178.396,0.395508,88.4619,232
1570004077,344.798,58.7127,24.6683,178.396,0.395508,88.4619,232
1570004077,344.798,58.7127,24.6683,178.396,0.395508,88.4399,232
1570004077,344.798,58.7127,24.6683,178.396,0.395508,88.4399,232
1570004077,344.798,58.7127,24.6683,178.396,0.395508,88.4399,232
1570004077,344.798,58.7127,24.6683,178.396,0.395508,88.4399,232
1570004077,344.798,58.7127,24.6683,178.396,0.395508,88.4399,232
1570004077,344.798,58.7127,24.6683,178.396,0.395508,88.4619,232
1570004077,344.798,58.7127,24.6683,178.396,0.395508,88.4619,232
1570004077,344.798,58.7127,24.6683,178.396,0.395508,88.4619,232
1570004077,344.798,58.7127,24.6683,178.396,0.395508,88.4619,232
1570004077,344.798,58.7127,24.6683,178.396,0.395508,88.4619,232
1570004077,344.798,58.7127,24.6683,178.396,0.395508,88.4619,232
1570004077,344.798,58.7127,24.6683,178.396,0.395508,88.4619,232
1570004077,344.798,58.7127,24.6683,178.396,0.395508,88.4619,232
1570004077,344.798,58.7127,24.6683,178.396,0.395508,88.4619,232
1570004077,344.798,58.7127,24.6683,178.396,0.395508,88.4619,232
1570004077,344.798,58.7127,24.6683,178.396,0.395508,88.4619,232
1570004077,344.798,58.7127,24.6683,178.396,0.395508,88.4619,232
1570004077,344.798,58.7127,24.6683,178.396,0.395508,88.4399,232
1570004077,344.798,58.7127,24.6683,178.396,0.395508,88.4399,232
1570004077,344.798,58.7127,24.6683,178.396,0.395508,88.4399,232
1570004077,344.798,58.7127,24.6683,178.396,0.395508,88.4399,232
1570004077,344.798,58.7127,24.6683,178.396,0.395508,88.4399,232
1570004077,344.798,58.7127,24.6683,178.396,0.395508,88.4399,232
1570004077,344.798,58.7127,24.6683,178.396,0.395508,88.4399,232
1570004077,344.798,58.7127,24.6683,178.396,0.395508,88.4399,232
1570004077,344.798,58.7127,24.6683,178.396,0.395508,88.4399,232
1570004077,344.798,58.7127,24.6683,178.396,0.395508,88.4399,232
1570004077,344.798,58.7127,24.6683,178.396,0.395508,88.4399,232
1570004077,344.798,58.7127,24.6683,178.396,0.395508,88.4399,232
1570004077,344.798,58.7127,24.6683,178.396,0.395508,88.4399,232
1570004077,344.798,58.7127,24.6683,178.396,0.395508,88.4399,232
1570004077,344.798,58.7127,24.6683,178.396,0.395508,88.4399,232
1570004077,344.798,58.7127,24.6683,178.396,0.395508,88.4399,232
1570004077,344.798,58.7127,24.6683,178.396,0.395508,88.4399,232
1570004077,344.798,58.7127,24.6683,178.396,0.395508,88.4399,232
1570004077,344.798,58.7127,24.6683,178.396,0.395508,88.4399,232
1570004077,344.798,58.7127,24.6683,178.396,0.395508,88.4399,232
1570004077,344.798,58.7127,24.6683,178.396,0.395508,88.4399,232
1570004077,344.798,58.7127,24.6683,178.396,0.395508,88.4399,232
1570004077,344.798,58.7127,24.6683,178.396,0.395508,88.4399,232
1570004077,344.798,58.7127,24.6683,178.396,0.395508,88.4399,232
1570004077,344.798,58.7127,24.6683,178.396,0.395508,88.4399,232
1570004077,344.798,58.7127,24.6683,178.396,0.395508,88.4399,232
1570004077,344.798,58.7127,24.6683,178.396,0.395508,88.4399,232
1570004077,344.798,58.7127,24.6683,178.396,0.395508,88.4399,232
1570004077,344.798,58.7127,24.6683,178.396,0.395508,88.4399,232
1570004077,344.798,58.7127,24.6683,178.396,0.395508,88.4399,232
1570004077,344.798,58.7127,24.6683,178.396,0.395508,88.4399,232
1570004077,344.798,58.7127,24.6683,178.396,0.395508,88.4399,232
1570004077,344.798,58.7127,24.6683,178.396,0.395508,88.4399,232
1570004077,344.798,58.7127,24.6683,178.396,0.395508,88.4399,232
1570004077,344.798,58.7127,24.6683,178.396,0.395508,88.4399,232
1570004077,344.798,58.7127,24.6683,178.396,0.395508,88.4399,232
1570004077,344.798,58.7127,24.6683,178.396,0.395508,88.4619,232
1570004077,344.798,58.7127,24.6683,178.396,0.395508,88.4619,232
1570004077,344.798,58.7127,24.6683,178.396,0.395508,88.4619,232
1570004077,344.798,58.7127,24.6683,178.396,0.395508,88.4619,232
1570004077,344.798,58.7127,24.6683,178.396,0.395508,88.4619,232
1570004077,344.798,58.7127,24.6683,178.396,0.395508,88.4619,232
1570004077,344.798,58.7127,24.6683,178.396,0.395508,88.4619,232
1570004077,344.798,58.7127,24.6683,178.396,0.395508,88.4619,232
1570004077,344.798,58.7127,24.6683,178.396,0.395508,88.4619,232
1570004077,344.798,58.7127,24.6683,178.396,0.395508,88.4619,232
1570004077,344.798,58.7127,24.6683,178.396,0.395508,88.4619,232
1570004077,344.798,58.7127,24.6683,178.396,0.395508,88.4619,232
1570004077,344.798,58.7127,24.6683,178.396,0.395508,88.4619,232
1570004077,344.798,58.7127,24.6683,178.396,0.395508,88.4619,232
1570004077,344.798,58.7127,24.6683,178.396,0.395508,88.4619,232
1570004077,344.798,58.7127,24.6683,178.396,0.395508,88.4619,232
1570004077,344.798,58.7127,24.6683,178.396,0.395508,88.4619,232
1570004077,344.798,58.7127,24.6683,178.396,0.395508,88.4619,232
1570004077,344.798,58.7127,24.6683,178.396,0.395508,88.4619,232
1570004077,344.798,58.7127,24.6683,178.396,0.395508,88.4619,232
1570004077,344.798,58.7127,24.6683,178.396,0.395508,88.4619,232
1570004077,344.798,58.7127,24.6683,178.396,0.395508,88.4619,232
1570004078,344.798,58.7127,24.6683,178.396,0.395508,88.4619,232
1570004078,344.798,58.7127,24.6683,178.396,0.395508,88.4619,232
1570004078,344.798,58.7127,24.6683,178.396,0.395508,88.4619,232
1570004078,344.798,58.7127,24.6683,178.396,0.395508,88.4619,232
1570004078,344.798,58.7127,24.6683,178.396,0.395508,88.4619,232
1570004078,344.798,58.7127,24.6683,178.396,0.395508,88.4619,232
1570004078,344.798,58.7127,24.6683,178.396,0.395508,88.4619,232
1570004078,344.798,58.7127,24.6683,178.396,0.395508,88.4619,232
1570004078,344.798,58.7127,24.6683,178.396,0.395508,88.4619,232
1570004078,344.798,58.7127,24.6683,178.396,0.395508,88.4619,232
1570004078,344.798,58.7127,24.6683,178.396,0.395508,88.4619,232
1570004078,344.798,58.7127,24.6683,178.396,0.395508,88.4619,232
1570004078,344.798,58.7127,24.6683,178.396,0.395508,88.4619,232
1570004078,344.798,58.7127,24.6683,178.396,0.395508,88.4619,232
1570004078,344.798,58.7127,24.6683,178.396,0.395508,88.4619,232
1570004078,344.798,58.7127,24.6683,178.396,0.395508,88.4619,232
1570004078,344.798,58.7127,24.6683,178.396,0.395508,88.4619,232
1570004078,344.798,58.7127,24.6683,178.396,0.395508,88.4619,232
1570004078,344.798,58.7127,24.6683,178.396,0.395508,88.4619,232
1570004078,344.798,58.7127,24.6683,178.396,0.395508,88.4619,232
1570004078,344.798,58.7127,24.6683,178.396,0.395508,88.4619,232
1570004078,344.798,58.7127,24.6683,178.396,0.395508,88.4619,232
1570004078,344.798,58.7127,24.6683,178.396,0.395508,88.4619,232
1570004078,344.798,58.7127,24.6683,178.396,0.395508,88.4619,232
1570004078,344.798,58.7127,24.6683,178.396,0.395508,88.4619,232
1570004078,344.798,58.7127,24.6683,178.396,0.395508,88.4619,232
1570004078,344.798,58.7127,24.6683,178.396,0.395508,88.4619,232
1570004078,344.798,58.7127,24.6683,178.396,0.395508,88.4619,232
1570004078,344.798,58.7127,24.6683,178.396,0.395508,88.4619,232
1570004078,344.798,58.7127,24.6683,178.396,0.395508,88.4619,232
1570004078,344.798,58.7127,24.6683,178.396,0.395508,88.4619,232
1570004078,344.798,58.7127,24.6683,178.396,0.395508,88.4619,232
1570004078,344.798,58.7127,24.6683,178.396,0.395508,88.4619,232
1570004078,344.798,58.7127,24.6683,178.396,0.395508,88.4619,232
1570004078,344.798,58.7127,24.6683,178.396,0.395508,88.4619,232
1570004078,344.798,58.7127,24.6683,178.396,0.395508,88.4619,232
1570004078,344.798,58.7127,24.6683,178.396,0.395508,88.4619,232
1570004078,344.798,58.7127,24.6683,178.396,0.395508,88.4619,236
1570004078,344.798,58.7127,24.6683,178.396,0.395508,88.4619,236
1570004078,344.798,58.7127,24.6683,178.396,0.395508,88.4619,236
1570004078,344.798,58.7127,24.6683,178.396,0.395508,88.4619,236
1570004078,344.798,58.7127,24.6683,178.396,0.395508,88.4619,236
1570004078,344.798,58.7127,24.6683,178.396,0.395508,88.4619,236
1570004078,344.798,58.7127,24.6683,178.396,0.395508,88.4619,236
1570004078,344.798,58.7127,24.6683,178.396,0.395508,88.4619,236
1570004078,344.798,58.7127,24.6683,178.396,0.395508,88.4619,236
1570004078,344.798,58.7127,24.6683,178.396,0.395508,88.4619,236
1570004078,344.798,58.7127,24.6683,178.396,0.395508,88.4619,236
1570004078,344.798,58.7127,24.6683,178.396,0.395508,88.4619,236
1570004078,344.798,58.7127,24.6683,178.396,0.395508,88.4619,236
1570004078,344.798,58.7127,24.6683,178.396,0.395508,88.4619,236
1570004078,344.798,58.7127,24.6683,178.396,0.395508,88.4619,236
1570004078,344.798,58.7127,24.6683,178.396,0.395508,88.4619,236
1570004078,344.798,58.7127,24.6683,178.396,0.395508,88.4619,236
1570004078,344.798,58.7127,24.6683,178.396,0.395508,88.4619,236
1570004078,344.798,58.7127,24.6683,178.396,0.395508,88.4619,236
1570004078,344.798,58.7127,24.6683,178.396,0.395508,88.4619,232
1570004078,344.798,58.7127,24.6683,178.396,0.395508,88.4619,236
1570004078,344.798,58.7127,24.6683,178.396,0.395508,88.4619,236
1570004078,344.798,58.7127,24.6683,178.396,0.395508,88.4619,236
1570004078,344.798,58.7127,24.6683,178.396,0.395508,88.4619,236
1570004078,344.798,58.7127,24.6683,178.396,0.395508,88.4619,236
1570004078,344.798,58.7127,24.6683,178.396,0.395508,88.4619,236
1570004078,344.798,58.7127,24.6683,178.396,0.395508,88.4619,236
1570004078,344.798,58.7127,24.6683,178.396,0.395508,88.4619,236
1570004078,344.798,58.7127,24.6683,178.396,0.395508,88.4619,236
1570004078,344.798,58.7127,24.6683,178.396,0.395508,88.4619,236
1570004078,344.798,58.7127,24.6683,178.396,0.395508,88.4619,236
1570004078,344.798,58.7127,24.6683,178.396,0.395508,88.4619,236
1570004078,344.798,58.7127,24.6683,178.396,0.395508,88.4619,232
1570004078,344.798,58.7127,24.6683,178.396,0.395508,88.4619,232
1570004078,344.798,58.7127,24.6683,178.396,0.395508,88.4619,232
1570004078,344.798,58.7127,24.6683,178.396,0.395508,88.4619,232
1570004078,344.798,58.7127,24.6683,178.396,0.395508,88.4619,232
1570004078,344.798,58.7127,24.6683,178.396,0.395508,88.4619,232
1570004078,344.798,58.7127,24.6683,178.396,0.395508,88.4619,232
1570004078,344.798,58.7127,24.6683,178.396,0.395508,88.4619,232
1570004078,344.798,58.7127,24.6683,178.396,0.395508,88.4619,232
1570004078,344.798,58.7127,24.6683,178.396,0.395508,88.4619,232
1570004078,344.798,58.7127,24.6683,178.396,0.395508,88.4619,232
1570004078,344.798,58.7127,24.6683,178.396,0.395508,88.4619,232
1570004078,344.798,58.7127,24.6683,178.396,0.395508,88.4619,232
1570004078,344.798,58.7127,24.6683,178.396,0.395508,88.4619,232
1570004078,344.798,58.7127,24.6683,178.396,0.395508,88.4619,232
1570004078,344.798,58.7127,24.6683,178.396,0.395508,88.4619,232
1570004078,344.798,58.7127,24.6683,178.396,0.395508,88.4619,232
1570004078,344.798,58.7127,24.6683,178.396,0.395508,88.4619,232
1570004078,344.798,58.7127,24.6683,178.396,0.395508,88.4619,232
1570004078,344.798,58.7127,24.6683,178.396,0.395508,88.4619,232
1570004078,344.798,58.7127,24.6683,178.396,0.395508,88.4619,232
1570004078,344.798,58.7127,24.6683,178.396,0.395508,88.4619,232
1570004078,344.798,58.7127,24.6683,178.396,0.395508,88.4619,232
1570004078,344.798,58.7127,24.6683,178.396,0.395508,88.4619,232
1570004078,344.798,58.7127,24.6683,178.396,0.395508,88.4619,232
1570004078,344.798,58.7127,24.6683,178.396,0.395508,88.4619,232
1570004078,344.798,58.7127,24.6683,178.396,0.395508,88.4619,232
1570004078,344.798,58.7127,24.6683,178.396,0.395508,88.4619,232
1570004078,344.798,58.7127,24.6683,178.396,0.395508,88.4619,232
1570004078,344.798,58.7127,24.6683,178.396,0.395508,88.4619,232
1570004078,344.798,58.7127,24.6683,178.396,0.395508,88.4619,232
1570004079,344.798,58.7127,24.6683,178.396,0.395508,88.4619,232
1570004079,344.798,58.7127,24.6683,178.374,0.395508,88.4619,232
1570004079,344.798,58.7127,24.6683,178.396,0.395508,88.4619,232
1570004079,344.798,58.7127,24.6683,178.396,0.395508,88.4619,232
1570004079,344.798,58.7127,24.6683,178.396,0.395508,88.4619,232
1570004079,344.798,58.7127,24.6683,178.396,0.395508,88.4619,232
1570004079,344.798,58.7127,24.6683,178.396,0.395508,88.4619,232
1570004079,344.798,58.7127,24.6683,178.396,0.395508,88.4619,232
1570004079,344.798,58.7127,24.6683,178.396,0.395508,88.4619,232
1570004079,344.798,58.7127,24.6683,178.396,0.395508,88.4619,232
1570004079,344.798,58.7127,24.6683,178.396,0.395508,88.4619,232
1570004079,344.798,58.7127,24.6683,178.396,0.395508,88.4619,232
1570004079,344.798,58.7127,24.6683,178.396,0.395508,88.4619,232
1570004079,344.798,58.7127,24.6683,178.396,0.395508,88.4619,232
1570004079,344.798,58.7127,24.6683,178.396,0.395508,88.4619,232
1570004079,344.798,58.7127,24.6683,178.396,0.395508,88.4619,232
1570004079,344.798,58.7127,24.6683,178.396,0.395508,88.4619,232
1570004079,344.798,58.7127,24.6683,178.396,0.395508,88.4619,232
1570004079,344.798,58.7127,24.6683,178.396,0.395508,88.4619,232
1570004079,344.798,58.7127,24.6683,178.396,0.395508,88.4619,232
1570004079,344.798,58.7127,24.6683,178.396,0.395508,88.4619,232
1570004079,344.798,58.7127,24.6683,178.396,0.395508,88.4619,232
1570004079,344.798,58.7127,24.6683,178.396,0.395508,88.4619,232
1570004079,344.798,58.7127,24.6683,178.396,0.395508,88.4619,232
1570004079,344.798,58.7127,24.6683,178.396,0.395508,88.4619,232
1570004079,344.798,58.7127,24.6683,178.396,0.395508,88.4619,232
1570004079,344.798,58.7127,24.6683,178.396,0.395508,88.4619,232
1570004079,344.798,58.7127,24.6683,178.396,0.395508,88.4619,232
1570004079,344.798,58.7127,24.6683,178.396,0.395508,88.4619,232
1570004079,344.798,58.7127,24.6683,178.396,0.395508,88.4619,232
1570004079,344.798,58.7127,24.6683,178.396,0.395508,88.4619,232
1570004079,344.798,58.7127,24.6683,178.396,0.395508,88.4619,232
1570004079,344.798,58.7127,24.6683,178.396,0.395508,88.4619,232
1570004079,344.798,58.7127,24.6683,178.396,0.395508,88.4619,232
1570004079,344.798,58.7127,24.6683,178.396,0.395508,88.4619,232
1570004079,344.798,58.7127,24.6683,178.396,0.395508,88.4619,232
1570004079,344.798,58.7127,24.6683,178.396,0.395508,88.4619,232
1570004079,344.798,58.7127,24.6683,178.396,0.395508,88.4619,232
1570004079,344.798,58.7127,24.6683,178.396,0.395508,88.4619,232
1570004079,344.798,58.7127,24.6683,178.396,0.395508,88.4619,232
1570004079,344.798,58.7127,24.6683,178.396,0.395508,88.4619,232
1570004079,344.798,58.7127,24.6683,178.396,0.395508,88.4619,232
1570004079,344.798,58.7127,24.6683,178.396,0.395508,88.4619,232
1570004079,344.798,58.7127,24.6683,178.396,0.395508,88.4619,232
1570004079,344.798,58.7127,24.6683,178.396,0.395508,88.4619,232
1570004079,344.798,58.7127,24.6683,178.396,0.395508,88.4619,232
1570004079,344.798,58.7127,24.6683,178.396,0.395508,88.4619,232
1570004079,344.798,58.7127,24.6683,178.396,0.395508,88.4619,232
1570004079,344.798,58.7127,24.6683,178.396,0.395508,88.4619,232
1570004079,344.798,58.7127,24.6683,178.396,0.395508,88.4619,232
1570004079,344.798,58.7127,24.6683,178.396,0.395508,88.4619,232
1570004079,344.798,58.7127,24.6683,178.396,0.395508,88.4619,232
1570004079,344.798,58.7127,24.6683,178.396,0.395508,88.4619,232
1570004079,344.798,58.7127,24.6683,178.396,0.395508,88.4619,232
1570004079,344.798,58.7127,24.6683,178.396,0.395508,88.4619,232
1570004079,344.798,58.7127,24.6683,178.396,0.395508,88.4619,232
1570004079,344.798,58.7127,24.6683,178.396,0.395508,88.4619,232
1570004079,344.798,58.7127,24.6683,178.396,0.395508,88.4619,232
1570004079,344.798,58.7127,24.6683,178.396,0.395508,88.4619,232
1570004079,344.798,58.7127,24.6683,178.396,0.395508,88.4619,232
1570004079,344.798,58.7127,24.6683,178.396,0.395508,88.4619,232
1570004079,344.798,58.7127,24.6683,178.396,0.395508,88.4619,232
1570004079,344.798,58.7127,24.6683,178.396,0.395508,88.4619,232
1570004079,344.798,58.7127,24.6683,178.396,0.395508,88.4619,232
1570004079,344.798,58.7127,24.6683,178.396,0.395508,88.4619,232
1570004079,344.798,58.7127,24.6683,178.396,0.395508,88.4619,232
1570004079,344.798,58.7127,24.6683,178.396,0.395508,88.4619,232
1570004079,344.798,58.7127,24.6683,178.396,0.395508,88.4619,232
1570004079,344.798,58.7127,24.6683,178.396,0.395508,88.4619,232
1570004079,344.798,58.7127,24.6683,178.396,0.395508,88.4619,232
1570004079,344.798,58.7127,24.6683,178.396,0.395508,88.4619,232
1570004079,344.798,58.7127,24.6683,178.396,0.395508,88.4619,232
1570004079,344.798,58.7127,24.6683,178.396,0.395508,88.4619,232
1570004079,344.798,58.7127,24.6683,178.396,0.395508,88.4619,232
1570004079,344.798,58.7127,24.6683,178.396,0.395508,88.4619,232
1570004079,344.798,58.7127,24.6683,178.396,0.395508,88.4619,232
1570004079,344.798,58.7127,24.6683,178.396,0.395508,88.4619,232
1570004079,344.798,58.7127,24.6683,178.396,0.395508,88.4619,232
1570004079,344.798,58.7127,24.6683,178.396,0.395508,88.4619,232
1570004079,344.798,58.7127,24.6683,178.396,0.395508,88.4619,232
1570004079,344.798,58.7127,24.6683,178.396,0.395508,88.4619,232
1570004079,344.798,58.7127,24.6683,178.396,0.395508,88.4399,232
1570004079,344.798,58.7127,24.6683,178.396,0.395508,88.4399,232
1570004079,344.798,58.7127,24.6683,178.396,0.395508,88.4399,232
1570004079,344.798,58.7127,24.6683,178.396,0.395508,88.4399,232
1570004079,344.798,58.7127,24.6683,178.396,0.395508,88.4399,232
1570004079,344.798,58.7127,24.6683,178.396,0.395508,88.4399,232
1570004079,344.798,58.7127,24.6683,178.396,0.395508,88.4399,232
1570004079,344.798,58.7127,24.6683,178.396,0.395508,88.4399,232
1570004079,344.798,58.7127,24.6683,178.396,0.395508,88.4399,232
1570004079,344.798,58.7127,24.6683,178.396,0.395508,88.4399,232
1570004079,344.798,58.7127,24.6683,178.396,0.395508,88.4399,232
1570004079,344.798,58.7127,24.6683,178.396,0.395508,88.4399,232
1570004079,344.798,58.7127,24.6683,178.396,0.395508,88.4399,232
1570004079,344.798,58.7127,24.6683,178.396,0.395508,88.4399,232
1570004079,344.798,58.7127,24.6683,178.396,0.395508,88.4399,232
1570004079,344.798,58.7127,24.6683,178.396,0.395508,88.4399,232
1570004079,344.798,58.7127,24.6683,178.396,0.395508,88.4399,232
1570004079,344.798,58.7127,24.6683,178.396,0.395508,88.4399,232
1570004079,344.798,58.7127,24.6683,178.396,0.395508,88.4399,232
1570004080,344.798,58.7127,24.6683,178.396,0.395508,88.4399,232
1570004080,344.798,58.7127,24.6683,178.396,0.395508,88.4399,232
1570004080,344.798,58.7127,24.6683,178.396,0.395508,88.4399,232
1570004080,344.798,58.7127,24.6683,178.396,0.395508,88.4399,232
1570004080,344.798,58.7127,24.6683,178.396,0.395508,88.4399,232
1570004080,344.798,58.7127,24.6683,178.396,0.395508,88.4399,232
1570004080,344.798,58.7127,24.6683,178.396,0.395508,88.4399,232
1570004080,344.798,58.7127,24.6683,178.396,0.395508,88.4399,232
1570004080,344.798,58.7127,24.6683,178.396,0.395508,88.4399,232
1570004080,344.798,58.7127,24.6683,178.396,0.395508,88.4399,232
1570004080,344.798,58.7127,24.6683,178.396,0.395508,88.4399,232
1570004080,344.798,58.7127,24.6683,178.396,0.395508,88.4399,232
1570004080,344.798,58.7127,24.6683,178.396,0.395508,88.4399,232
1570004080,344.798,58.7127,24.6683,178.396,0.395508,88.4399,232
1570004080,344.798,58.7127,24.6683,178.396,0.395508,88.4399,232
1570004080,344.798,58.7127,24.6683,178.396,0.395508,88.4399,232
1570004080,344.798,58.7127,24.6683,178.396,0.395508,88.4399,232
1570004080,344.798,58.7127,24.6683,178.396,0.395508,88.4399,232
1570004080,344.798,58.7127,24.6683,178.396,0.395508,88.4399,232
1570004080,344.798,58.7127,24.6683,178.396,0.395508,88.4399,232
1570004080,344.798,58.7127,24.6683,178.396,0.395508,88.4399,232
1570004080,344.798,58.7127,24.6683,178.396,0.395508,88.4399,232
1570004080,344.798,58.7127,24.6683,178.396,0.395508,88.4399,232
1570004080,344.798,58.7127,24.6683,178.396,0.395508,88.4399,232
1570004080,344.798,58.7127,24.6683,178.396,0.395508,88.4399,232
1570004080,344.798,58.7127,24.6683,178.396,0.395508,88.4399,232
1570004080,344.798,58.7127,24.6683,178.396,0.395508,88.4399,232
1570004080,344.798,58.7127,24.6683,178.396,0.395508,88.4399,232
1570004080,344.798,58.7127,24.6683,178.396,0.395508,88.4399,232
1570004080,344.798,58.7127,24.6683,178.396,0.395508,88.4399,232
1570004080,344.798,58.7127,24.6683,178.396,0.395508,88.4399,232
1570004080,344.798,58.7127,24.6683,178.396,0.395508,88.4399,232
1570004080,344.798,58.7127,24.6683,178.396,0.395508,88.4399,232
1570004080,344.798,58.7127,24.6683,178.396,0.395508,88.4399,232
1570004080,344.798,58.7127,24.6683,178.396,0.395508,88.4399,232
1570004080,344.798,58.7127,24.6683,178.396,0.395508,88.4399,232
1570004080,344.798,58.7127,24.6683,178.396,0.395508,88.4399,232
1570004080,344.798,58.7127,24.6683,178.396,0.395508,88.4399,232
1570004080,344.798,58.7127,24.6683,178.396,0.395508,88.4399,232
1570004080,344.798,58.7127,24.6683,178.396,0.395508,88.4619,232
1570004080,344.798,58.7127,24.6683,178.396,0.395508,88.4619,232
1570004080,344.798,58.7127,24.6683,178.396,0.395508,88.4619,232
1570004080,344.798,58.7127,24.6683,178.396,0.395508,88.4619,232
1570004080,344.798,58.7127,24.6683,178.396,0.395508,88.4619,232
1570004080,344.798,58.7127,24.6683,178.396,0.395508,88.4619,232
1570004080,344.798,58.7127,24.6683,178.396,0.395508,88.4619,232
1570004080,344.798,58.7127,24.6683,178.396,0.395508,88.4399,232
1570004080,344.798,58.7127,24.6683,178.396,0.395508,88.4399,232
1570004080,344.798,58.7127,24.6683,178.396,0.395508,88.4399,232
1570004080,344.798,58.7127,24.6683,178.396,0.395508,88.4399,232
1570004080,344.798,58.7127,24.6683,178.396,0.395508,88.4399,232
1570004080,344.798,58.7127,24.6683,178.396,0.395508,88.4619,232
1570004080,344.798,58.7127,24.6683,178.396,0.395508,88.4619,232
1570004080,344.798,58.7127,24.6683,178.396,0.395508,88.4619,232
1570004080,344.798,58.7127,24.6683,178.396,0.395508,88.4619,232
1570004080,344.798,58.7127,24.6683,178.396,0.395508,88.4619,232
1570004080,344.798,58.7127,24.6683,178.396,0.395508,88.4619,232
1570004080,344.798,58.7127,24.6683,178.396,0.395508,88.4619,232
1570004080,344.798,58.7127,24.6683,178.396,0.395508,88.4619,232
1570004080,344.798,58.7127,24.6683,178.396,0.395508,88.4619,232
1570004080,344.798,58.7127,24.6683,178.396,0.395508,88.4619,232
1570004080,344.798,58.7127,24.6683,178.396,0.395508,88.4619,232
1570004080,344.798,58.7127,24.6683,178.396,0.395508,88.4619,232
1570004080,344.798,58.7127,24.6683,178.396,0.395508,88.4619,232
1570004080,344.798,58.7127,24.6683,178.396,0.395508,88.4619,232
1570004080,344.798,58.7127,24.6683,178.396,0.395508,88.4619,232
1570004080,344.798,58.7127,24.6683,178.396,0.395508,88.4619,232
1570004080,344.798,58.7127,24.6683,178.396,0.395508,88.4619,232
1570004080,344.798,58.7127,24.6683,178.396,0.395508,88.4619,232
1570004080,344.798,58.7127,24.6683,178.396,0.395508,88.4619,232
1570004080,344.798,58.7127,24.6683,178.396,0.395508,88.4619,232
1570004080,344.798,58.7127,24.6683,178.396,0.395508,88.4619,232
1570004080,344.798,58.7127,24.6683,178.396,0.395508,88.4619,232
1570004080,344.798,58.7127,24.6683,178.396,0.395508,88.4619,232
1570004080,344.798,58.7127,24.6683,178.396,0.395508,88.4619,232
1570004080,344.798,58.7127,24.6683,178.396,0.395508,88.4619,232
1570004080,344.798,58.7127,24.6683,178.396,0.395508,88.4619,232
1570004080,344.798,58.7127,24.6683,178.396,0.395508,88.4619,232
1570004080,344.798,58.7127,24.6683,178.396,0.395508,88.4619,232
1570004080,344.798,58.7127,24.6683,178.396,0.395508,88.4619,232
1570004080,344.798,58.7127,24.6683,178.396,0.395508,88.4619,232
1570004080,344.798,58.7127,24.6683,178.396,0.395508,88.4619,232
1570004080,344.798,58.7127,24.6683,178.396,0.395508,88.4619,232
1570004080,344.798,58.7127,24.6683,178.396,0.395508,88.4619,232
1570004080,344.798,58.7127,24.6683,178.396,0.395508,88.4619,232
1570004080,344.798,58.7127,24.6683,178.396,0.395508,88.4619,232
1570004080,344.798,58.7127,24.6683,178.396,0.395508,88.4619,232
1570004080,344.798,58.7127,24.6683,178.396,0.395508,88.4619,232
1570004080,344.798,58.7127,24.6683,178.396,0.395508,88.4619,232
1570004080,344.798,58.7127,24.6683,178.396,0.395508,88.4619,232
1570004080,344.798,58.7127,24.6683,178.396,0.395508,88.4619,232
1570004080,344.798,58.7127,24.6683,178.396,0.395508,88.4619,232
1570004080,344.798,58.7127,24.6683,178.396,0.395508,88.4619,232
1570004080,344.798,58.7127,24.6683,178.396,0.395508,88.4619,232
1570004080,344.798,58.7127,24.6683,178.396,0.395508,88.4619,232
1570004080,344.798,58.7127,24.6683,178.396,0.395508,88.4619,232
1570004080,344.798,58.7127,24.6683,178.396,0.395508,88.4619,232
1570004080,344.798,58.7127,24.6683,178.396,0.395508,88.4619,232
1570004080,344.798,58.7127,24.6683,178.396,0.395508,88.4619,232
1570004080,344.798,58.7127,24.6683,178.396,0.395508,88.4619,232
1570004081,344.798,58.7127,24.6683,178.396,0.395508,88.4619,232
1570004081,344.798,58.7127,24.6683,178.396,0.395508,88.4619,232
1570004081,344.798,58.7127,24.6683,178.396,0.395508,88.4619,232
1570004081,344.798,58.7127,24.6683,178.396,0.395508,88.4619,232
1570004081,344.798,58.7127,24.6683,178.396,0.395508,88.4619,232
1570004081,344.798,58.7127,24.6683,178.396,0.395508,88.4619,232
1570004081,344.798,58.7127,24.6683,178.396,0.395508,88.4619,232
1570004081,344.798,58.7127,24.6683,178.396,0.395508,88.4619,232
1570004081,344.798,58.7127,24.6683,178.396,0.395508,88.4619,232
1570004081,344.798,58.7127,24.6683,178.396,0.395508,88.4619,232
1570004081,344.798,58.7127,24.6683,178.396,0.395508,88.4619,232
1570004081,344.798,58.7127,24.6683,178.396,0.395508,88.4619,232
1570004081,344.798,58.7127,24.6683,178.396,0.395508,88.4619,232
1570004081,344.798,58.7127,24.6683,178.396,0.395508,88.4619,232
1570004081,344.798,58.7127,24.6683,178.396,0.395508,88.4619,232
1570004081,344.798,58.7127,24.6683,178.396,0.395508,88.4619,232
1570004081,344.798,58.7127,24.6683,178.396,0.395508,88.4619,232
1570004081,344.798,58.7127,24.6683,178.396,0.395508,88.4619,232
1570004081,344.798,58.7127,24.6683,178.396,0.395508,88.4619,232
1570004081,344.798,58.7127,24.6683,178.396,0.395508,88.4619,232
1570004081,344.798,58.7127,24.6683,178.396,0.395508,88.4619,232
1570004081,344.798,58.7127,24.6683,178.396,0.395508,88.4619,232
1570004081,344.798,58.7127,24.6683,178.396,0.395508,88.4619,232
1570004081,344.798,58.7127,24.6683,178.396,0.395508,88.4619,232
1570004081,344.798,58.7127,24.6683,178.396,0.395508,88.4619,232
1570004081,344.798,58.7127,24.6683,178.396,0.395508,88.4619,232
1570004081,344.798,58.7127,24.6683,178.396,0.395508,88.4619,232
1570004081,344.798,58.7127,24.6683,178.396,0.395508,88.4619,232
1570004081,344.798,58.7127,24.6683,178.396,0.395508,88.4619,232
1570004081,344.798,58.7127,24.6683,178.396,0.395508,88.4619,232
1570004081,344.798,58.7127,24.6683,178.396,0.395508,88.4619,232
1570004081,344.798,58.7127,24.6683,178.396,0.395508,88.4619,232
1570004081,344.798,58.7127,24.6683,178.396,0.395508,88.4619,232
1570004081,344.798,58.7127,24.6683,178.396,0.395508,88.4619,232
1570004081,344.798,58.7127,24.6683,178.396,0.395508,88.4619,232
1570004081,344.798,58.7127,24.6683,178.396,0.395508,88.4619,232
1570004081,344.798,58.7127,24.6683,178.396,0.395508,88.4619,232
1570004081,344.798,58.7127,24.6683,178.396,0.395508,88.4619,232
1570004081,344.798,58.7127,24.6683,178.396,0.395508,88.4619,232
1570004081,344.798,58.7127,24.6683,178.396,0.395508,88.4619,232
1570004081,344.798,58.7127,24.6683,178.396,0.395508,88.4619,232
1570004081,344.798,58.7127,24.6683,178.396,0.395508,88.4619,232
1570004081,344.798,58.7127,24.6683,178.396,0.395508,88.4619,232
1570004081,344.798,58.7127,24.6683,178.396,0.395508,88.4619,232
1570004081,344.798,58.7127,24.6683,178.396,0.395508,88.4619,232
1570004081,344.798,58.7127,24.6683,178.396,0.395508,88.4619,232
1570004081,344.798,58.7127,24.6683,178.396,0.395508,88.4619,232
1570004081,344.798,58.7127,24.6683,178.396,0.395508,88.4619,232
1570004081,344.798,58.7127,24.6683,178.396,0.395508,88.4619,232
1570004081,344.798,58.7127,24.6683,178.396,0.395508,88.4619,232
1570004081,344.798,58.7127,24.6683,178.396,0.395508,88.4619,232
1570004081,344.798,58.7127,24.6683,178.396,0.395508,88.4619,232
1570004081,344.798,58.7127,24.6683,178.396,0.395508,88.4619,232
1570004081,344.798,58.7127,24.6683,178.396,0.395508,88.4619,232
1570004081,344.798,58.7127,24.6683,178.396,0.395508,88.4619,232
1570004081,344.798,58.7127,24.6683,178.396,0.395508,88.4619,232
1570004081,344.798,58.7127,24.6683,178.396,0.395508,88.4619,232
1570004081,344.798,58.7127,24.6683,178.396,0.395508,88.4619,232
1570004081,344.798,58.7127,24.6683,178.396,0.395508,88.4619,232
1570004081,344.798,58.7127,24.6683,178.396,0.395508,88.4619,232
1570004081,344.798,58.7127,24.6683,178.396,0.395508,88.4619,232
1570004081,344.798,58.7127,24.6683,178.396,0.395508,88.4619,232
1570004081,344.798,58.7127,24.6683,178.396,0.395508,88.4619,232
1570004081,344.798,58.7127,24.6683,178.396,0.395508,88.4619,232
1570004081,344.798,58.7127,24.6683,178.396,0.395508,88.4619,232
1570004081,344.798,58.7127,24.6683,178.396,0.395508,88.4619,232
1570004081,344.798,58.7127,24.6683,178.396,0.395508,88.4619,232
1570004081,344.798,58.7127,24.6683,178.396,0.395508,88.4619,232
1570004081,344.798,58.7127,24.6683,178.396,0.395508,88.4619,232
1570004081,344.798,58.7127,24.6683,178.396,0.395508,88.4619,232
1570004081,344.798,58.7127,24.6683,178.396,0.395508,88.4619,232
1570004081,344.798,58.7127,24.6683,178.396,0.395508,88.4619,232
1570004081,344.798,58.7127,24.6683,178.396,0.395508,88.4619,232
1570004081,344.798,58.7127,24.6683,178.396,0.395508,88.4619,232
1570004081,344.798,58.7127,24.6683,178.396,0.395508,88.4619,232
1570004081,344.798,58.7127,24.6683,178.396,0.395508,88.4619,232
1570004081,344.798,58.7127,24.6683,178.396,0.395508,88.4619,232
1570004081,344.798,58.7127,24.6683,178.396,0.395508,88.4619,232
1570004081,344.798,58.7127,24.6683,178.396,0.395508,88.4619,232
1570004081,344.798,58.7127,24.6683,178.396,0.395508,88.4619,232
1570004081,344.798,58.7127,24.6683,178.396,0.395508,88.4619,232
1570004081,344.798,58.7127,24.6683,178.396,0.395508,88.4619,232
1570004081,344.798,58.7127,24.6683,178.396,0.395508,88.4619,232
1570004081,344.798,58.7127,24.6683,178.396,0.395508,88.4619,232
1570004081,344.798,58.7127,24.6683,178.396,0.395508,88.4619,232
1570004081,344.798,58.7127,24.6683,178.396,0.395508,88.4619,232
1570004081,344.798,58.7127,24.6683,178.396,0.395508,88.4619,232
1570004081,344.798,58.7127,24.6683,178.396,0.395508,88.4619,232
1570004081,344.798,58.7127,24.6683,178.396,0.395508,88.4619,232
1570004081,344.798,58.7127,24.6683,178.396,0.395508,88.4619,232
1570004081,344.798,58.7127,24.6683,178.396,0.395508,88.4619,232
1570004081,344.798,58.7127,24.6683,178.396,0.395508,88.4619,232
1570004081,344.798,58.7127,24.6683,178.396,0.395508,88.4619,232
1570004081,344.798,58.7127,24.6683,178.396,0.395508,88.4619,232
1570004081,344.798,58.7127,24.6683,178.396,0.395508,88.4619,232
1570004081,344.798,58.7127,24.6683,178.396,0.395508,88.4619,232
1570004081,344.798,58.7127,24.6683,178.396,0.395508,88.4619,232
1570004087,344.798,58.7127,24.6683,178.396,0.41748,88.418,232
1570004087,344.798,58.7127,24.6683,178.396,0.41748,88.418,232
1570004087,344.798,58.7127,24.6683,178.396,0.41748,88.418,232
1570004087,344.798,58.7127,24.6683,178.396,0.41748,88.418,232
1570004087,344.798,58.7127,24.6683,178.396,0.41748,88.418,232
1570004087,344.798,58.7127,24.6683,178.396,0.41748,88.418,232
1570004087,344.798,58.7127,24.6683,178.396,0.41748,88.418,232
1570004087,344.798,58.7127,24.6683,178.396,0.41748,88.418,232
1570004087,344.798,58.7127,24.6683,178.396,0.41748,88.418,232
1570004087,344.798,58.7127,24.6683,178.396,0.41748,88.418,232
1570004087,344.798,58.7127,24.6683,178.396,0.41748,88.418,232
1570004087,344.798,58.7127,24.6683,178.396,0.41748,88.418,232
1570004087,344.798,58.7127,24.6683,178.396,0.41748,88.418,232
1570004087,344.798,58.7127,24.6683,178.396,0.41748,88.418,232
1570004087,344.798,58.7127,24.6683,178.396,0.41748,88.418,232
1570004087,344.798,58.7127,24.6683,178.396,0.41748,88.418,232
1570004087,344.798,58.7127,24.6683,178.396,0.41748,88.418,232
1570004087,344.798,58.7127,24.6683,178.396,0.41748,88.418,232
1570004087,344.798,58.7127,24.6683,178.396,0.41748,88.418,232
1570004087,344.798,58.7127,24.6683,178.396,0.41748,88.418,232
1570004087,344.798,58.7127,24.6683,178.396,0.41748,88.418,232
1570004087,344.798,58.7127,24.6683,178.396,0.41748,88.418,232
1570004087,344.798,58.7127,24.6683,178.396,0.41748,88.418,232
1570004087,344.798,58.7127,24.6683,178.396,0.41748,88.418,232
1570004087,344.798,58.7127,24.6683,178.396,0.41748,88.418,232
1570004087,344.798,58.7127,24.6683,178.396,0.41748,88.418,232
1570004087,344.798,58.7127,24.6683,178.396,0.41748,88.418,232
1570004087,344.798,58.7127,24.6683,178.396,0.41748,88.418,232
1570004087,344.798,58.7127,24.6683,178.396,0.41748,88.418,232
1570004087,344.798,58.7127,24.6683,178.396,0.41748,88.418,232
1570004087,344.798,58.7127,24.6683,178.396,0.41748,88.418,232
1570004087,344.798,58.7127,24.6683,178.396,0.41748,88.418,232
1570004087,344.798,58.7127,24.6683,178.396,0.41748,88.418,232
1570004087,344.798,58.7127,24.6683,178.396,0.41748,88.418,232
1570004087,344.798,58.7127,24.6683,178.396,0.41748,88.418,232
1570004087,344.798,58.7127,24.6683,178.396,0.41748,88.418,232
1570004087,344.798,58.7127,24.6683,178.396,0.41748,88.418,232
1570004087,344.798,58.7127,24.6683,178.396,0.41748,88.418,232
1570004087,344.798,58.7127,24.6683,178.396,0.41748,88.418,232
1570004087,344.798,58.7127,24.6683,178.396,0.41748,88.418,232
1570004087,344.798,58.7127,24.6683,178.396,0.41748,88.418,232
1570004087,344.798,58.7127,24.6683,178.396,0.41748,88.418,232
1570004087,344.798,58.7127,24.6683,178.396,0.41748,88.418,232
1570004087,344.798,58.7127,24.6683,178.396,0.41748,88.418,232
1570004087,344.798,58.7127,24.6683,178.396,0.41748,88.418,232
1570004087,344.798,58.7127,24.6683,178.396,0.41748,88.418,232
1570004087,344.798,58.7127,24.6683,178.396,0.41748,88.418,232
1570004087,344.798,58.7127,24.6683,178.396,0.41748,88.418,232
1570004087,344.798,58.7127,24.6683,178.396,0.41748,88.418,232
1570004087,344.798,58.7127,24.6683,178.396,0.41748,88.418,232
1570004087,344.798,58.7127,24.6683,178.396,0.41748,88.418,232
1570004087,344.798,58.7127,24.6683,178.396,0.41748,88.418,232
1570004087,344.798,58.7127,24.6683,178.396,0.41748,88.418,232
1570004087,344.798,58.7127,24.6683,178.396,0.41748,88.418,232
1570004087,344.798,58.7127,24.6683,178.396,0.41748,88.418,232
1570004087,344.798,58.7127,24.6683,178.396,0.41748,88.418,232
1570004087,344.798,58.7127,24.6683,178.396,0.41748,88.418,232
1570004087,344.798,58.7127,24.6683,178.396,0.41748,88.418,232
1570004087,344.798,58.7127,24.6683,178.396,0.41748,88.418,232
1570004087,344.798,58.7127,24.6683,178.396,0.41748,88.418,232
1570004087,344.798,58.7127,24.6683,178.396,0.41748,88.418,232
1570004087,344.798,58.7127,24.6683,178.396,0.41748,88.418,232
1570004087,344.798,58.7127,24.6683,178.396,0.41748,88.418,232
1570004087,344.798,58.7127,24.6683,178.396,0.41748,88.418,232
1570004087,344.798,58.7127,24.6683,178.396,0.41748,88.418,232
1570004087,344.798,58.7127,24.6683,178.396,0.41748,88.418,232
1570004087,344.798,58.7127,24.6683,178.396,0.41748,88.418,232
1570004087,344.798,58.7127,24.6683,178.396,0.41748,88.418,232
1570004087,344.798,58.7127,24.6683,178.396,0.41748,88.418,232
1570004087,344.798,58.7127,24.6683,178.396,0.41748,88.418,232
1570004087,344.798,58.7127,24.6683,178.396,0.41748,88.418,232
1570004087,344.798,58.7127,24.6683,178.396,0.41748,88.418,232
1570004087,344.798,58.7127,24.6683,178.396,0.41748,88.418,232
1570004087,344.798,58.7127,24.6683,178.396,0.41748,88.418,232
1570004087,344.798,58.7127,24.6683,178.396,0.41748,88.418,232
1570004087,344.798,58.7127,24.6683,178.396,0.41748,88.418,232
1570004087,344.798,58.7127,24.6683,178.396,0.41748,88.418,232
1570004087,344.798,58.7127,24.6683,178.396,0.41748,88.418,232
1570004087,344.798,58.7127,24.6683,178.396,0.41748,88.418,232
1570004087,344.798,58.7127,24.6683,178.396,0.41748,88.418,232
1570004087,344.798,58.7127,24.6683,178.396,0.41748,88.418,232
1570004087,344.798,58.7127,24.6683,178.396,0.41748,88.418,232
1570004087,344.798,58.7127,24.6683,178.396,0.41748,88.418,232
1570004087,344.798,58.7127,24.6683,178.396,0.41748,88.418,232
1570004087,344.798,58.7127,24.6683,178.396,0.395508,88.418,232
1570004087,344.798,58.7127,24.6683,178.396,0.395508,88.418,232
1570004087,344.798,58.7127,24.6683,178.396,0.395508,88.418,232
1570004087,344.798,58.7127,24.6683,178.396,0.395508,88.418,232
1570004087,344.798,58.7127,24.6683,178.396,0.395508,88.418,232
1570004088,344.798,58.7127,24.6683,178.396,0.395508,88.418,232
1570004088,344.798,58.7127,24.6683,178.396,0.395508,88.418,232
1570004088,344.798,58.7127,24.6683,178.396,0.395508,88.418,232
1570004088,344.798,58.7127,24.6683,178.396,0.395508,88.418,232
1570004088,344.798,58.7127,24.6683,178.396,0.395508,88.418,232
1570004088,344.798,58.7127,24.6683,178.396,0.395508,88.418,232
1570004088,344.798,58.7127,24.6683,178.396,0.395508,88.418,232
1570004088,344.798,58.7127,24.6683,178.396,0.395508,88.418,232
1570004088,344.798,58.7127,24.6683,178.396,0.395508,88.418,232
1570004088,344.798,58.7127,24.6683,178.396,0.395508,88.418,232
1570004088,344.798,58.7127,24.6683,178.396,0.395508,88.418,232
1570004088,344.798,58.7127,24.6683,178.396,0.395508,88.418,232
1570004088,344.798,58.7127,24.6683,178.396,0.395508,88.418,232
1570004088,344.798,58.7127,24.6683,178.396,0.395508,88.418,232
1570004088,344.798,58.7127,24.6683,178.396,0.395508,88.418,232
1570004088,344.798,58.7127,24.6683,178.396,0.395508,88.418,232
1570004088,344.798,58.7127,24.6683,178.396,0.395508,88.418,232
1570004088,344.798,58.7127,24.6683,178.396,0.395508,88.418,232
1570004088,344.798,58.7127,24.6683,178.396,0.395508,88.418,232
1570004088,344.798,58.7127,24.6683,178.396,0.395508,88.418,232
1570004088,344.798,58.7127,24.6683,178.396,0.395508,88.418,232
1570004088,344.798,58.7127,24.6683,178.396,0.395508,88.418,232
1570004088,344.798,58.7127,24.6683,178.396,0.395508,88.418,232
1570004088,344.798,58.7127,24.6683,178.396,0.395508,88.418,232
1570004088,344.798,58.7127,24.6683,178.396,0.395508,88.418,232
1570004088,344.798,58.7127,24.6683,178.396,0.395508,88.418,232
1570004088,344.798,58.7127,24.6683,178.396,0.395508,88.418,232
1570004088,344.798,58.7127,24.6683,178.396,0.395508,88.418,232
1570004088,344.798,58.7127,24.6683,178.396,0.395508,88.418,232
1570004088,344.798,58.7127,24.6683,178.396,0.395508,88.418,228
1570004088,344.798,58.7127,24.6683,178.396,0.395508,88.418,228
1570004088,344.798,58.7127,24.6683,178.396,0.395508,88.418,228
1570004088,344.798,58.7127,24.6683,178.396,0.41748,88.418,228
1570004088,344.798,58.7127,24.6683,178.396,0.41748,88.418,228
1570004088,344.798,58.7127,24.6683,178.396,0.41748,88.418,228
1570004088,344.798,58.7127,24.6683,178.396,0.395508,88.418,228
1570004088,344.798,58.7127,24.6683,178.396,0.395508,88.418,228
1570004088,344.798,58.7127,24.6683,178.396,0.395508,88.418,228
1570004088,344.798,58.7127,24.6683,178.396,0.395508,88.418,228
1570004088,344.798,58.7127,24.6683,178.396,0.395508,88.418,228
1570004088,344.798,58.7127,24.6683,178.396,0.395508,88.418,228
1570004088,344.798,58.7127,24.6683,178.396,0.41748,88.418,228
1570004088,344.798,58.7127,24.6683,178.396,0.41748,88.418,228
1570004088,344.798,58.7127,24.6683,178.396,0.41748,88.418,228
1570004088,344.798,58.7127,24.6683,178.396,0.395508,88.418,228
1570004088,344.798,58.7127,24.6683,178.396,0.395508,88.418,228
1570004088,344.798,58.7127,24.6683,178.396,0.395508,88.418,228
1570004088,344.798,58.7127,24.6683,178.396,0.395508,88.418,228
1570004088,344.798,58.7127,24.6683,178.396,0.395508,88.418,228
1570004088,344.798,58.7127,24.6683,178.396,0.395508,88.418,228
1570004088,344.798,58.7127,24.6683,178.396,0.395508,88.418,228
1570004088,344.798,58.7127,24.6683,178.396,0.395508,88.418,228
1570004088,344.798,58.7127,24.6683,178.396,0.395508,88.418,228
1570004088,344.798,58.7127,24.6683,178.396,0.395508,88.418,228
1570004088,344.798,58.7127,24.6683,178.396,0.395508,88.418,228
1570004088,344.798,58.7127,24.6683,178.396,0.395508,88.418,228
1570004088,344.798,58.7127,24.6683,178.396,0.395508,88.418,228
1570004088,344.798,58.7127,24.6683,178.396,0.395508,88.418,228
1570004088,344.798,58.7127,24.6683,178.396,0.395508,88.418,228
1570004088,344.798,58.7127,24.6683,178.396,0.395508,88.418,228
1570004088,344.798,58.7127,24.6683,178.396,0.395508,88.418,228
1570004088,344.798,58.7127,24.6683,178.396,0.395508,88.418,228
1570004088,344.798,58.7127,24.6683,178.396,0.395508,88.418,228
1570004088,344.798,58.7127,24.6683,178.396,0.395508,88.418,228
1570004088,344.798,58.7127,24.6683,178.396,0.395508,88.418,228
1570004088,344.798,58.7127,24.6683,178.396,0.395508,88.418,228
1570004088,344.798,58.7127,24.6683,178.396,0.395508,88.418,228
1570004088,344.798,58.7127,24.6683,178.396,0.395508,88.418,228
1570004088,344.798,58.7127,24.6683,178.396,0.395508,88.418,228
1570004088,344.798,58.7127,24.6683,178.396,0.395508,88.418,228
1570004088,344.798,58.7127,24.6683,178.396,0.395508,88.418,228
1570004088,344.798,58.7127,24.6683,178.396,0.395508,88.418,228
1570004088,344.798,58.7127,24.6683,178.396,0.395508,88.418,228
1570004088,344.798,58.7127,24.6683,178.396,0.395508,88.418,228
1570004088,344.798,58.7127,24.6683,178.396,0.395508,88.418,228
1570004088,344.798,58.7127,24.6683,178.396,0.395508,88.418,228
1570004088,344.798,58.7127,24.6683,178.396,0.395508,88.418,228
1570004088,344.798,58.7127,24.6683,178.396,0.395508,88.418,232
1570004088,344.798,58.7127,24.6683,178.396,0.395508,88.418,232
1570004088,344.798,58.7127,24.6683,178.396,0.395508,88.418,232
1570004088,344.798,58.7127,24.6683,178.396,0.395508,88.418,232
1570004088,344.798,58.7127,24.6683,178.396,0.395508,88.418,232
1570004088,344.798,58.7127,24.6683,178.396,0.395508,88.418,232
1570004088,344.798,58.7127,24.6683,178.396,0.395508,88.418,232
1570004088,344.798,58.7127,24.6683,178.396,0.395508,88.418,232
1570004088,344.798,58.7127,24.6683,178.396,0.395508,88.418,232
1570004088,344.798,58.7127,24.6683,178.396,0.395508,88.418,232
1570004088,344.798,58.7127,24.6683,178.396,0.395508,88.418,232
1570004088,344.798,58.7127,24.6683,178.396,0.395508,88.418,232
1570004088,344.798,58.7127,24.6683,178.396,0.395508,88.418,232
1570004088,344.798,58.7127,24.6683,178.396,0.395508,88.418,232
1570004088,344.798,58.7127,24.6683,178.396,0.395508,88.418,232
1570004088,344.798,58.7127,24.6683,178.396,0.395508,88.418,232
1570004088,344.798,58.7127,24.6683,178.396,0.395508,88.418,232
1570004088,344.798,58.7127,24.6683,178.396,0.395508,88.418,232
1570004088,344.798,58.7127,24.6683,178.396,0.395508,88.418,232
1570004088,344.798,58.7127,24.6683,178.396,0.395508,88.418,232
1570004088,344.798,58.7127,24.6683,178.396,0.395508,88.418,232
1570004088,344.798,58.7127,24.6683,178.396,0.395508,88.418,232
1570004088,344.798,58.7127,24.6683,178.396,0.395508,88.418,232
1570004089,344.798,58.7127,24.6683,178.396,0.395508,88.418,232
1570004089,344.798,58.7127,24.6683,178.396,0.395508,88.418,232
1570004089,344.798,58.7127,24.6683,178.396,0.395508,88.418,232
1570004089,344.798,58.7127,24.6683,178.396,0.395508,88.418,232
1570004089,344.798,58.7127,24.6683,178.396,0.395508,88.418,232
1570004089,344.798,58.7127,24.6683,178.396,0.395508,88.418,232
1570004089,344.798,58.7127,24.6683,178.396,0.395508,88.418,232
1570004089,344.798,58.7127,24.6683,178.396,0.395508,88.418,232
1570004089,344.798,58.7127,24.6683,178.396,0.395508,88.418,232
1570004089,344.798,58.7127,24.6683,178.396,0.395508,88.418,232
1570004089,344.798,58.7127,24.6683,178.396,0.395508,88.418,232
1570004089,344.798,58.7127,24.6683,178.396,0.395508,88.418,232
1570004089,344.798,58.7127,24.6683,178.396,0.395508,88.418,232
1570004089,344.798,58.7127,24.6683,178.396,0.395508,88.418,232
1570004089,344.798,58.7127,24.6683,178.396,0.395508,88.418,232
1570004089,344.798,58.7127,24.6683,178.396,0.395508,88.418,232
1570004089,344.798,58.7127,24.6683,178.396,0.395508,88.418,232
1570004089,344.798,58.7127,24.6683,178.396,0.395508,88.418,232
1570004089,344.798,58.7127,24.6683,178.396,0.395508,88.418,232
1570004089,344.798,58.7127,24.6683,178.396,0.395508,88.418,232
1570004089,344.798,58.7127,24.6683,178.396,0.395508,88.418,232
1570004089,344.798,58.7127,24.6683,178.396,0.395508,88.418,232
1570004089,344.798,58.7127,24.6683,178.396,0.395508,88.418,232
1570004089,344.798,58.7127,24.6683,178.396,0.395508,88.418,232
1570004089,344.798,58.7127,24.6683,178.396,0.395508,88.418,232
1570004089,344.798,58.7127,24.6683,178.396,0.395508,88.418,232
1570004089,344.798,58.7127,24.6683,178.396,0.395508,88.418,232
1570004089,344.798,58.7127,24.6683,178.396,0.395508,88.418,232
1570004089,344.798,58.7127,24.6683,178.396,0.395508,88.418,232
1570004089,344.798,58.7127,24.6683,178.396,0.395508,88.418,232
1570004089,344.798,58.7127,24.6683,178.396,0.395508,88.418,232
1570004089,344.798,58.7127,24.6683,178.396,0.395508,88.418,232
1570004089,344.798,58.7127,24.6683,178.396,0.395508,88.418,232
1570004089,344.798,58.7127,24.6683,178.396,0.395508,88.418,232
1570004089,344.798,58.7127,24.6683,178.396,0.395508,88.418,232
1570004089,344.798,58.7127,24.6683,178.396,0.395508,88.418,232
1570004089,344.798,58.7127,24.6683,178.396,0.41748,88.418,232
1570004089,344.798,58.7127,24.6683,178.396,0.41748,88.418,232
1570004089,344.798,58.7127,24.6683,178.396,0.41748,88.418,232
1570004089,344.798,58.7127,24.6683,178.396,0.41748,88.418,232
1570004089,344.798,58.7127,24.6683,178.396,0.41748,88.418,232
1570004089,344.798,58.7127,24.6683,178.396,0.41748,88.418,232
1570004089,344.798,58.7127,24.6683,178.396,0.41748,88.418,232
1570004089,344.798,58.7127,24.6683,178.396,0.41748,88.418,232
1570004089,344.798,58.7127,24.6683,178.396,0.41748,88.418,232
1570004089,344.798,58.7127,24.6683,178.396,0.41748,88.418,232
1570004089,344.798,58.7127,24.6683,178.396,0.41748,88.418,232
1570004089,344.798,58.7127,24.6683,178.396,0.41748,88.418,232
1570004089,344.798,58.7127,24.6683,178.396,0.41748,88.418,232
1570004089,344.798,58.7127,24.6683,178.396,0.41748,88.418,232
1570004089,344.798,58.7127,24.6683,178.396,0.41748,88.418,232
1570004089,344.798,58.7127,24.6683,178.396,0.41748,88.418,232
1570004089,344.798,58.7127,24.6683,178.396,0.395508,88.418,232
1570004089,344.798,58.7127,24.6683,178.396,0.395508,88.418,232
1570004089,344.798,58.7127,24.6683,178.396,0.395508,88.418,232
1570004089,344.798,58.7127,24.6683,178.396,0.395508,88.418,232
1570004089,344.798,58.7127,24.6683,178.396,0.395508,88.418,232
1570004089,344.798,58.7127,24.6683,178.396,0.395508,88.418,232
1570004089,344.798,58.7127,24.6683,178.396,0.395508,88.418,232
1570004089,344.798,58.7127,24.6683,178.396,0.395508,88.418,232
1570004089,344.798,58.7127,24.6683,178.396,0.395508,88.418,232
1570004089,344.798,58.7127,24.6683,178.396,0.395508,88.418,232
1570004089,344.798,58.7127,24.6683,178.396,0.395508,88.418,232
1570004089,344.798,58.7127,24.6683,178.396,0.395508,88.418,232
1570004089,344.798,58.7127,24.6683,178.396,0.395508,88.418,232
1570004089,344.798,58.7127,24.6683,178.396,0.395508,88.418,232
1570004089,344.798,58.7127,24.6683,178.396,0.395508,88.418,232
1570004089,344.798,58.7127,24.6683,178.396,0.395508,88.418,232
1570004089,344.798,58.7127,24.6683,178.396,0.395508,88.418,232
1570004089,344.798,58.7127,24.6683,178.396,0.395508,88.418,232
1570004089,344.798,58.7127,24.6683,178.396,0.395508,88.418,232
1570004089,344.798,58.7127,24.6683,178.396,0.395508,88.418,232
1570004089,344.798,58.7127,24.6683,178.396,0.395508,88.418,232
1570004089,344.798,58.7127,24.6683,178.396,0.395508,88.418,232
1570004089,344.798,58.7127,24.6683,178.396,0.395508,88.418,232
1570004089,344.798,58.7127,24.6683,178.396,0.395508,88.418,232
1570004089,344.798,58.7127,24.6683,178.396,0.395508,88.418,232
1570004089,344.798,58.7127,24.6683,178.396,0.395508,88.418,232
1570004089,344.798,58.7127,24.6683,178.396,0.395508,88.418,232
1570004089,344.798,58.7127,24.6683,178.396,0.395508,88.418,232
1570004089,344.798,58.7127,24.6683,178.396,0.395508,88.418,232
1570004089,344.798,58.7127,24.6683,178.396,0.395508,88.418,232
1570004089,344.798,58.7127,24.6683,178.396,0.395508,88.418,232
1570004089,344.798,58.7127,24.6683,178.396,0.395508,88.418,232
1570004089,344.798,58.7127,24.6683,178.396,0.395508,88.418,232
1570004089,344.798,58.7127,24.6683,178.396,0.395508,88.418,232
1570004089,344.798,58.7127,24.6683,178.396,0.395508,88.418,232
1570004089,344.798,58.7127,24.6683,178.396,0.395508,88.418,232
1570004089,344.798,58.7127,24.6683,178.396,0.395508,88.418,232
1570004089,344.798,58.7127,24.6683,178.396,0.395508,88.418,232
1570004089,344.798,58.7127,24.6683,178.396,0.395508,88.418,232
1570004089,344.798,58.7127,24.6683,178.396,0.395508,88.418,232
1570004089,344.798,58.7127,24.6683,178.396,0.395508,88.418,232
1570004089,344.798,58.7127,24.6683,178.396,0.395508,88.418,232
1570004089,344.798,58.7127,24.6683,178.396,0.395508,88.418,232
1570004089,344.798,58.7127,24.6683,178.396,0.395508,88.418,232
1570004089,344.798,58.7127,24.6683,178.396,0.395508,88.418,232
1570004089,344.798,58.7127,24.6683,178.396,0.395508,88.418,232
1570004089,344.798,58.7127,24.6683,178.396,0.395508,88.418,232
1570004089,344.798,58.7127,24.6683,178.396,0.395508,88.418,232
1570004090,344.798,58.7127,24.6683,178.396,0.395508,88.418,232
1570004090,344.798,58.7127,24.6683,178.396,0.395508,88.418,232
1570004090,344.798,58.7127,24.6683,178.396,0.395508,88.418,232
1570004090,344.798,58.7127,24.6683,178.396,0.395508,88.418,232
1570004090,344.798,58.7127,24.6683,178.396,0.395508,88.418,232
1570004090,344.798,58.7127,24.6683,178.396,0.395508,88.418,232
1570004090,344.798,58.7127,24.6683,178.396,0.395508,88.418,232
1570004090,344.798,58.7127,24.6683,178.396,0.395508,88.418,232
1570004090,344.798,58.7127,24.6683,178.396,0.395508,88.418,232
1570004090,344.798,58.7127,24.6683,178.396,0.395508,88.418,232
1570004090,344.798,58.7127,24.6683,178.396,0.395508,88.418,232
1570004090,344.798,58.7127,24.6683,178.396,0.395508,88.418,232
1570004090,344.798,58.7127,24.6683,178.396,0.395508,88.418,232
1570004090,344.798,58.7127,24.6683,178.396,0.395508,88.418,232
1570004090,344.798,58.7127,24.6683,178.396,0.395508,88.418,232
1570004090,344.798,58.7127,24.6683,178.396,0.395508,88.418,232
1570004090,344.798,58.7127,24.6683,178.396,0.395508,88.418,232
1570004090,344.798,58.7127,24.6683,178.396,0.395508,88.418,232
1570004090,344.798,58.7127,24.6683,178.396,0.395508,88.418,232
1570004090,344.798,58.7127,24.6683,178.396,0.395508,88.418,232
1570004090,344.798,58.7127,24.6683,178.396,0.395508,88.418,232
1570004090,344.798,58.7127,24.6683,178.396,0.395508,88.418,232
1570004090,344.798,58.7127,24.6683,178.396,0.395508,88.418,232
1570004090,344.798,58.7127,24.6683,178.396,0.395508,88.418,232
1570004090,344.798,58.7127,24.6683,178.396,0.395508,88.418,232
1570004090,344.798,58.7127,24.6683,178.396,0.395508,88.418,232
1570004090,344.798,58.7127,24.6683,178.396,0.395508,88.418,232
1570004090,344.798,58.7127,24.6683,178.396,0.395508,88.418,232
1570004090,344.798,58.7127,24.6683,178.396,0.395508,88.418,232
1570004090,344.798,58.7127,24.6683,178.396,0.395508,88.418,232
1570004090,344.798,58.7127,24.6683,178.396,0.395508,88.418,232
1570004090,344.798,58.7127,24.6683,178.396,0.395508,88.418,232
1570004090,344.798,58.7127,24.6683,178.396,0.395508,88.418,232
1570004090,344.798,58.7127,24.6683,178.396,0.395508,88.418,232
1570004090,344.798,58.7127,24.6683,178.396,0.395508,88.418,232
1570004090,344.798,58.7127,24.6683,178.396,0.395508,88.418,232
1570004090,344.798,58.7127,24.6683,178.396,0.395508,88.418,232
1570004090,344.798,58.7127,24.6683,178.396,0.395508,88.418,232
1570004090,344.798,58.7127,24.6683,178.396,0.395508,88.418,232
1570004090,344.798,58.7127,24.6683,178.396,0.395508,88.418,232
1570004090,344.798,58.7127,24.6683,178.396,0.395508,88.418,232
1570004090,344.798,58.7127,24.6683,178.396,0.395508,88.418,232
1570004090,344.798,58.7127,24.6683,178.396,0.395508,88.418,232
1570004090,344.798,58.7127,24.6683,178.396,0.395508,88.418,232
1570004090,344.798,58.7127,24.6683,178.396,0.395508,88.418,232
1570004090,344.798,58.7127,24.6683,178.396,0.395508,88.418,232
1570004090,344.798,58.7127,24.6683,178.396,0.395508,88.418,232
1570004090,344.798,58.7127,24.6683,178.396,0.395508,88.418,232
1570004090,344.798,58.7127,24.6683,178.396,0.395508,88.418,232
1570004090,344.798,58.7127,24.6683,178.396,0.395508,88.418,232
1570004090,344.798,58.7127,24.6683,178.396,0.395508,88.418,232
1570004090,344.798,58.7127,24.6683,178.396,0.395508,88.418,232
1570004090,344.798,58.7127,24.6683,178.396,0.395508,88.418,232
1570004090,344.798,58.7127,24.6683,178.396,0.395508,88.418,232
1570004090,344.798,58.7127,24.6683,178.396,0.395508,88.418,232
1570004090,344.798,58.7127,24.6683,178.396,0.395508,88.418,232
1570004090,344.798,58.7127,24.6683,178.396,0.395508,88.418,232
1570004090,344.798,58.7127,24.6683,178.396,0.395508,88.418,232
1570004090,344.798,58.7127,24.6683,178.396,0.395508,88.418,232
1570004090,344.798,58.7127,24.6683,178.396,0.395508,88.418,232
1570004090,344.798,58.7127,24.6683,178.396,0.395508,88.418,232
1570004090,344.798,58.7127,24.6683,178.396,0.395508,88.418,232
1570004090,344.798,58.7127,24.6683,178.396,0.395508,88.418,232
1570004090,344.798,58.7127,24.6683,178.396,0.395508,88.418,232
1570004090,344.798,58.7127,24.6683,178.396,0.395508,88.418,232
1570004090,344.798,58.7127,24.6683,178.396,0.395508,88.418,232
1570004090,344.798,58.7127,24.6683,178.396,0.395508,88.418,232
1570004090,344.798,58.7127,24.6683,178.396,0.395508,88.418,232
