time,x,y,z,ax,ay,az,q
1569936106,281.174,-98.1149,-14.6224,178.813,2.26318,-144.932,308
1569936107,281.174,-98.1149,-14.6224,178.813,2.26318,-144.932,308
1569936107,281.174,-98.1149,-14.6224,178.813,2.26318,-144.932,308
1569936107,281.174,-98.1149,-14.6224,178.813,2.26318,-144.932,304
1569936107,281.174,-98.1149,-14.6224,178.813,2.26318,-144.932,304
1569936107,281.174,-98.1149,-14.6224,178.813,2.26318,-144.932,304
1569936107,281.174,-98.1149,-14.6224,178.813,2.26318,-144.932,304
1569936107,281.174,-98.1149,-14.6224,178.813,2.26318,-144.932,304
1569936107,281.174,-98.1149,-14.6224,178.813,2.28516,-144.932,304
1569936107,281.174,-98.1149,-14.6224,178.813,2.28516,-144.932,304
1569936107,281.174,-98.1149,-14.6224,178.813,2.28516,-144.932,304
1569936107,281.174,-98.1149,-14.6224,178.813,2.28516,-144.932,304
1569936107,281.174,-98.1149,-14.6224,178.813,2.28516,-144.932,304
1569936107,281.174,-98.1149,-14.6224,178.813,2.28516,-144.932,304
1569936107,281.174,-98.1149,-14.6224,178.813,2.28516,-144.932,304
1569936107,281.062,-98.1149,-14.6224,178.813,2.28516,-144.932,308
1569936107,281.062,-98.1149,-14.6224,178.813,2.28516,-144.932,308
1569936107,281.062,-98.1149,-14.6224,178.813,2.26318,-144.932,308
1569936107,281.062,-98.1149,-14.6224,178.813,2.26318,-144.932,308
1569936107,281.062,-98.1149,-14.6224,178.813,2.26318,-144.932,308
1569936107,281.062,-98.1149,-14.6224,178.813,2.26318,-144.932,308
1569936107,281.062,-98.1149,-14.6224,178.813,2.26318,-144.932,308
1569936107,281.062,-98.1149,-14.6224,178.813,2.26318,-144.932,308
1569936107,281.062,-98.1149,-14.6224,178.813,2.26318,-144.932,308
1569936107,281.062,-98.1149,-14.6224,178.813,2.26318,-144.932,308
1569936107,281.062,-98.1149,-14.6224,178.813,2.26318,-144.932,312
1569936107,281.062,-98.1149,-14.6224,178.813,2.26318,-144.932,312
1569936107,281.062,-98.1149,-14.6224,178.813,2.26318,-144.932,312
1569936107,281.062,-98.1149,-14.6224,178.813,2.26318,-144.932,312
1569936107,281.062,-98.1149,-14.6224,178.813,2.26318,-144.932,312
1569936107,281.062,-98.1149,-14.6224,178.813,2.26318,-144.932,312
1569936107,281.062,-98.1149,-14.6224,178.813,2.26318,-144.932,312
1569936107,281.062,-98.1149,-14.6224,178.813,2.26318,-144.932,312
1569936107,281.062,-98.1149,-14.6224,178.813,2.26318,-144.932,312
1569936107,281.062,-98.1149,-14.6224,178.813,2.26318,-144.932,312
1569936107,281.062,-98.1149,-14.6224,178.813,2.26318,-144.932,312
1569936107,281.062,-98.1149,-14.6224,178.813,2.26318,-144.932,312
1569936107,281.062,-98.1149,-14.6224,178.813,2.26318,-144.932,312
1569936107,281.062,-98.1149,-14.6224,178.813,2.26318,-144.932,312
1569936107,281.062,-98.1149,-14.6224,178.813,2.26318,-144.932,312
1569936107,281.062,-98.1149,-14.6224,178.813,2.26318,-144.932,312
1569936107,281.062,-98.1149,-14.6224,178.813,2.26318,-144.932,312
1569936107,281.062,-98.1149,-14.6224,178.813,2.26318,-144.932,312
1569936107,281.062,-98.1149,-14.6224,178.813,2.26318,-144.932,312
1569936107,281.062,-98.1149,-14.6224,178.813,2.26318,-144.932,312
1569936107,281.062,-98.1149,-14.6224,178.813,2.26318,-144.932,312
1569936107,281.174,-98.1149,-14.6224,178.813,2.26318,-144.932,312
1569936107,281.174,-98.1149,-14.6224,178.813,2.26318,-144.932,312
1569936107,281.174,-98.1149,-14.6224,178.813,2.26318,-144.932,312
1569936107,281.174,-98.1149,-14.6224,178.813,2.26318,-144.932,312
1569936107,281.174,-98.1149,-14.6224,178.813,2.26318,-144.932,312
1569936107,281.174,-98.1149,-14.6224,178.813,2.26318,-144.932,312
1569936107,281.174,-98.1149,-14.6224,178.813,2.26318,-144.932,312
1569936107,281.174,-98.1149,-14.6224,178.813,2.26318,-144.932,312
1569936107,281.174,-98.1149,-14.6224,178.813,2.26318,-144.932,312
1569936107,281.174,-98.1149,-14.6224,178.813,2.26318,-144.932,312
1569936107,281.174,-98.1149,-14.6224,178.813,2.26318,-144.932,312
1569936107,281.062,-98.1149,-14.6224,178.813,2.26318,-144.932,312
1569936107,281.062,-98.1149,-14.6224,178.813,2.26318,-144.932,312
1569936107,281.174,-98.1149,-14.6224,178.813,2.26318,-144.932,312
1569936107,281.174,-98.1149,-14.6224,178.813,2.26318,-144.932,312
1569936107,281.174,-98.1149,-14.6224,178.813,2.26318,-144.932,312
1569936107,281.174,-98.1149,-14.6224,178.813,2.26318,-144.932,312
1569936107,281.174,-98.1149,-14.6224,178.813,2.28516,-144.932,312
1569936107,281.174,-98.1149,-14.6224,178.813,2.28516,-144.932,312
1569936107,281.174,-98.1149,-14.6224,178.813,2.28516,-144.932,312
1569936107,281.174,-98.1149,-14.6224,178.813,2.28516,-144.932,312
1569936107,281.174,-98.1149,-14.6224,178.813,2.28516,-144.932,312
1569936107,281.174,-98.1149,-14.6224,178.813,2.28516,-144.932,312
1569936107,281.174,-98.1149,-14.6224,178.813,2.28516,-144.932,312
1569936107,281.174,-98.1149,-14.6224,178.813,2.28516,-144.932,312
1569936107,281.174,-98.1149,-14.6224,178.813,2.28516,-144.932,312
1569936107,281.174,-98.1149,-14.6224,178.813,2.28516,-144.932,312
1569936107,281.174,-98.1149,-14.6224,178.813,2.26318,-144.932,312
1569936107,281.174,-98.1149,-14.6224,178.813,2.26318,-144.932,312
1569936107,281.174,-98.1149,-14.6224,178.813,2.26318,-144.932,312
1569936107,281.174,-98.1149,-14.6224,178.813,2.26318,-144.932,312
1569936107,281.174,-98.1149,-14.6224,178.813,2.26318,-144.932,312
1569936107,281.174,-98.1149,-14.6224,178.813,2.26318,-144.932,312
1569936107,281.174,-98.1149,-14.6224,178.813,2.26318,-144.932,312
1569936107,281.174,-98.1149,-14.6224,178.813,2.26318,-144.932,312
1569936107,281.174,-98.1149,-14.6224,178.813,2.26318,-144.932,312
1569936107,281.174,-98.1149,-14.6224,178.813,2.26318,-144.932,312
1569936107,281.174,-98.1149,-14.6224,178.813,2.26318,-144.932,312
1569936107,281.174,-98.1149,-14.6224,178.813,2.26318,-144.932,312
1569936107,281.174,-98.1149,-14.6224,178.813,2.28516,-144.932,312
1569936107,281.174,-98.1149,-14.6224,178.813,2.28516,-144.932,312
1569936107,281.174,-98.1149,-14.6224,178.813,2.28516,-144.932,312
1569936107,281.174,-98.2266,-14.6224,178.813,2.28516,-144.932,312
1569936107,281.174,-98.2266,-14.6224,178.813,2.28516,-144.932,312
1569936107,281.174,-98.2266,-14.6224,178.813,2.28516,-144.932,312
1569936107,281.174,-98.2266,-14.6224,178.813,2.28516,-144.932,312
1569936107,281.174,-98.2266,-14.6224,178.813,2.28516,-144.932,308
1569936107,281.174,-98.2266,-14.6224,178.813,2.28516,-144.932,308
1569936107,281.174,-98.2266,-14.6224,178.792,2.28516,-144.932,308
1569936107,281.174,-98.2266,-14.6224,178.792,2.28516,-144.932,308
1569936107,281.174,-98.2266,-14.6224,178.792,2.28516,-144.932,308
1569936107,281.174,-98.2266,-14.6224,178.792,2.28516,-144.932,308
1569936107,281.174,-98.2266,-14.6224,178.792,2.28516,-144.932,308
1569936107,281.174,-98.2266,-14.6224,178.792,2.28516,-144.932,308
1569936107,281.174,-98.2266,-14.6224,178.792,2.28516,-144.932,308
1569936108,281.174,-98.2266,-14.6224,178.792,2.28516,-144.932,308
1569936108,281.174,-98.2266,-14.6224,178.792,2.28516,-144.932,308
1569936108,281.174,-98.2266,-14.6224,178.792,2.28516,-144.932,308
1569936108,281.174,-98.2266,-14.6224,178.792,2.28516,-144.932,308
1569936108,281.062,-98.2266,-14.6224,178.792,2.28516,-144.932,312
1569936108,281.062,-98.2266,-14.6224,178.792,2.28516,-144.932,312
1569936108,281.062,-98.2266,-14.6224,178.792,2.28516,-144.932,312
1569936108,281.062,-98.2266,-14.6224,178.792,2.28516,-144.932,312
1569936108,281.062,-98.2266,-14.6224,178.792,2.28516,-144.932,312
1569936108,281.062,-98.2266,-14.6224,178.792,2.28516,-144.932,312
1569936108,281.062,-98.2266,-14.6224,178.792,2.28516,-144.932,312
1569936108,281.062,-98.2266,-14.6224,178.792,2.28516,-144.932,312
1569936108,281.062,-98.2266,-14.6224,178.792,2.28516,-144.932,316
1569936108,281.062,-98.2266,-14.6224,178.792,2.28516,-144.932,316
1569936108,281.062,-98.2266,-14.6224,178.792,2.28516,-144.932,316
1569936108,281.062,-98.2266,-14.6224,178.792,2.28516,-144.932,316
1569936108,281.062,-98.2266,-14.6224,178.792,2.28516,-144.932,316
1569936108,281.062,-98.2266,-14.6224,178.792,2.28516,-144.932,316
1569936108,281.062,-98.2266,-14.6224,178.792,2.28516,-144.932,316
1569936108,281.062,-98.2266,-14.6224,178.792,2.28516,-144.932,312
1569936108,281.062,-98.2266,-14.6224,178.792,2.28516,-144.932,312
1569936108,281.062,-98.2266,-14.6224,178.792,2.28516,-144.932,312
1569936108,281.062,-98.2266,-14.6224,178.792,2.28516,-144.932,312
1569936108,281.062,-98.2266,-14.6224,178.792,2.28516,-144.932,312
1569936108,281.062,-98.2266,-14.6224,178.792,2.28516,-144.932,312
1569936108,281.062,-98.2266,-14.6224,178.792,2.26318,-144.932,312
1569936108,281.062,-98.2266,-14.6224,178.813,2.26318,-144.932,312
1569936108,281.062,-98.2266,-14.6224,178.813,2.26318,-144.932,312
1569936108,281.062,-98.1149,-14.6224,178.813,2.26318,-144.932,312
1569936108,281.062,-98.1149,-14.6224,178.813,2.26318,-144.932,312
1569936108,281.062,-98.1149,-14.6224,178.813,2.26318,-144.932,312
1569936108,281.062,-98.1149,-14.6224,178.813,2.26318,-144.932,312
1569936108,281.062,-98.1149,-14.6224,178.813,2.26318,-144.932,312
1569936108,281.062,-98.1149,-14.6224,178.813,2.26318,-144.932,312
1569936108,281.062,-98.1149,-14.6224,178.813,2.26318,-144.932,312
1569936108,281.062,-98.1149,-14.6224,178.813,2.26318,-144.932,312
1569936108,281.062,-98.1149,-14.6224,178.813,2.26318,-144.932,312
1569936108,281.062,-98.1149,-14.6224,178.813,2.26318,-144.932,312
1569936108,281.062,-98.2266,-14.6224,178.813,2.26318,-144.932,312
1569936108,281.062,-98.2266,-14.6224,178.813,2.26318,-144.932,312
1569936108,281.062,-98.2266,-14.6224,178.792,2.26318,-144.932,312
1569936108,281.062,-98.2266,-14.6224,178.792,2.26318,-144.932,312
1569936108,281.062,-98.2266,-14.6224,178.792,2.26318,-144.932,312
1569936108,281.062,-98.2266,-14.6224,178.792,2.26318,-144.932,312
1569936108,281.062,-98.2266,-14.6224,178.792,2.26318,-144.932,312
1569936108,281.062,-98.2266,-14.6224,178.792,2.26318,-144.932,312
1569936108,281.062,-98.2266,-14.6224,178.792,2.26318,-144.932,312
1569936108,281.062,-98.2266,-14.6224,178.792,2.26318,-144.932,312
1569936108,281.174,-98.2266,-14.6224,178.792,2.26318,-144.932,312
1569936108,281.174,-98.2266,-14.6224,178.792,2.26318,-144.932,312
1569936108,281.174,-98.2266,-14.6224,178.792,2.26318,-144.932,312
1569936108,281.174,-98.2266,-14.6224,178.792,2.26318,-144.932,308
1569936108,281.174,-98.2266,-14.6224,178.792,2.26318,-144.932,308
1569936108,281.174,-98.2266,-14.6224,178.792,2.26318,-144.932,308
1569936108,281.174,-98.2266,-14.6224,178.792,2.26318,-144.932,308
1569936108,281.174,-98.2266,-14.6224,178.792,2.26318,-144.932,308
1569936108,281.174,-98.2266,-14.6224,178.792,2.26318,-144.932,308
1569936108,281.174,-98.2266,-14.6224,178.792,2.26318,-144.932,308
1569936108,281.174,-98.2266,-14.6224,178.792,2.26318,-144.932,308
1569936108,281.174,-98.2266,-14.6224,178.792,2.26318,-144.932,308
1569936108,281.174,-98.2266,-14.6224,178.792,2.26318,-144.932,308
1569936108,281.174,-98.2266,-14.6224,178.792,2.26318,-144.932,308
1569936108,281.174,-98.2266,-14.6224,178.792,2.26318,-144.932,308
1569936108,281.174,-98.2266,-14.6224,178.792,2.26318,-144.932,308
1569936108,281.174,-98.2266,-14.6224,178.792,2.26318,-144.932,308
1569936108,281.174,-98.2266,-14.6224,178.792,2.26318,-144.932,308
1569936108,281.174,-98.2266,-14.6224,178.792,2.26318,-144.932,308
1569936108,281.174,-98.2266,-14.6224,178.792,2.26318,-144.932,308
1569936108,281.174,-98.2266,-14.6224,178.792,2.26318,-144.932,308
1569936108,281.174,-98.2266,-14.6224,178.792,2.26318,-144.932,308
1569936108,281.174,-98.2266,-14.6224,178.792,2.26318,-144.932,308
1569936108,281.174,-98.2266,-14.6224,178.792,2.26318,-144.932,308
1569936108,281.174,-98.2266,-14.6224,178.792,2.26318,-144.932,308
1569936108,281.174,-98.2266,-14.6224,178.792,2.26318,-144.932,308
1569936108,281.174,-98.2266,-14.6224,178.792,2.26318,-144.932,308
1569936108,281.174,-98.2266,-14.6224,178.792,2.26318,-144.932,308
1569936108,281.174,-98.2266,-14.6224,178.792,2.26318,-144.932,308
1569936108,281.174,-98.2266,-14.6224,178.792,2.26318,-144.932,308
1569936108,281.174,-98.2266,-14.6224,178.792,2.26318,-144.932,308
1569936108,281.174,-98.2266,-14.6224,178.792,2.26318,-144.932,308
1569936108,281.174,-98.2266,-14.6224,178.792,2.26318,-144.932,308
1569936108,281.174,-98.2266,-14.6224,178.792,2.26318,-144.932,308
1569936108,281.174,-98.2266,-14.6224,178.792,2.26318,-144.932,308
1569936108,281.174,-98.2266,-14.6224,178.792,2.26318,-144.932,308
1569936108,281.174,-98.2266,-14.6224,178.813,2.26318,-144.932,308
1569936108,281.174,-98.1149,-14.6224,178.813,2.26318,-144.932,308
1569936108,281.174,-98.1149,-14.6224,178.813,2.26318,-144.932,308
1569936108,281.174,-98.1149,-14.6224,178.813,2.26318,-144.932,308
1569936108,281.174,-98.1149,-14.6224,178.813,2.26318,-144.932,308
1569936108,281.174,-98.1149,-14.6224,178.813,2.26318,-144.932,308
1569936108,281.174,-98.1149,-14.6224,178.813,2.26318,-144.932,308
1569936108,281.174,-98.1149,-14.6224,178.813,2.26318,-144.932,308
1569936108,281.174,-98.1149,-14.6224,178.813,2.26318,-144.932,308
1569936108,281.174,-98.2266,-14.6224,178.813,2.26318,-144.932,304
1569936108,281.174,-98.2266,-14.6224,178.813,2.26318,-144.932,304
1569936108,281.174,-98.2266,-14.6224,178.792,2.26318,-144.932,304
1569936108,281.174,-98.2266,-14.6224,178.792,2.26318,-144.932,304
1569936108,281.174,-98.2266,-14.6224,178.792,2.26318,-144.932,304
1569936108,281.174,-98.2266,-14.6224,178.792,2.26318,-144.932,304
1569936108,281.174,-98.2266,-14.6224,178.792,2.26318,-144.932,304
1569936109,281.174,-98.2266,-14.6224,178.792,2.26318,-144.932,304
1569936109,281.174,-98.2266,-14.6224,178.792,2.26318,-144.932,304
1569936109,281.174,-98.2266,-14.6224,178.792,2.26318,-144.932,304
1569936109,281.174,-98.2266,-14.6224,178.792,2.26318,-144.932,304
1569936109,281.174,-98.2266,-14.6224,178.792,2.26318,-144.932,304
1569936109,281.174,-98.2266,-14.6224,178.792,2.26318,-144.932,304
1569936109,281.174,-98.2266,-14.6224,178.792,2.26318,-144.932,304
1569936109,281.174,-98.2266,-14.6224,178.792,2.26318,-144.932,304
1569936109,281.174,-98.2266,-14.6224,178.792,2.26318,-144.932,304
1569936109,281.174,-98.2266,-14.6224,178.792,2.26318,-144.932,304
1569936109,281.174,-98.2266,-14.6224,178.792,2.26318,-144.932,304
1569936109,281.174,-98.2266,-14.6224,178.792,2.26318,-144.932,304
1569936109,281.174,-98.2266,-14.6224,178.792,2.26318,-144.932,304
1569936109,281.174,-98.2266,-14.6224,178.792,2.26318,-144.932,304
1569936109,281.174,-98.2266,-14.6224,178.792,2.26318,-144.932,304
1569936109,281.174,-98.2266,-14.6224,178.792,2.26318,-144.932,304
1569936109,281.174,-98.2266,-14.6224,178.792,2.26318,-144.932,304
1569936109,281.174,-98.2266,-14.6224,178.792,2.26318,-144.932,304
1569936109,281.174,-98.2266,-14.6224,178.792,2.26318,-144.932,304
1569936109,281.174,-98.2266,-14.6224,178.792,2.26318,-144.932,304
1569936109,281.174,-98.2266,-14.6224,178.792,2.26318,-144.932,304
1569936109,281.174,-98.2266,-14.6224,178.792,2.26318,-144.932,304
1569936109,281.174,-98.2266,-14.6224,178.792,2.26318,-144.932,304
1569936109,281.174,-98.2266,-14.6224,178.792,2.26318,-144.932,304
1569936109,281.174,-98.2266,-14.6224,178.792,2.26318,-144.932,304
1569936109,281.174,-98.2266,-14.6224,178.792,2.26318,-144.932,304
1569936109,281.174,-98.2266,-14.6224,178.792,2.26318,-144.932,304
1569936109,281.174,-98.2266,-14.6224,178.813,2.26318,-144.932,304
1569936109,281.174,-98.2266,-14.6224,178.813,2.26318,-144.932,304
1569936109,281.174,-98.2266,-14.6224,178.813,2.26318,-144.932,300
1569936109,281.174,-98.2266,-14.6224,178.813,2.26318,-144.932,300
1569936109,281.174,-98.2266,-14.6224,178.813,2.26318,-144.932,300
1569936109,281.174,-98.2266,-14.6224,178.813,2.26318,-144.932,300
1569936109,281.174,-98.2266,-14.6224,178.813,2.26318,-144.932,300
1569936109,281.174,-98.2266,-14.6224,178.813,2.26318,-144.932,300
1569936109,281.174,-98.2266,-14.6224,178.813,2.26318,-144.932,300
1569936109,281.174,-98.2266,-14.6224,178.813,2.26318,-144.932,300
1569936109,281.174,-98.2266,-14.6224,178.813,2.26318,-144.932,300
1569936109,281.174,-98.2266,-14.6224,178.813,2.26318,-144.954,300
1569936109,281.174,-98.2266,-14.6224,178.813,2.26318,-144.954,300
1569936109,281.174,-98.2266,-14.6224,178.813,2.26318,-144.954,300
1569936109,281.174,-98.2266,-14.6224,178.813,2.26318,-144.954,300
1569936109,281.174,-98.2266,-14.6224,178.813,2.26318,-144.954,300
1569936109,281.174,-98.2266,-14.6224,178.813,2.26318,-144.954,300
1569936109,281.174,-98.2266,-14.6224,178.813,2.26318,-144.954,300
1569936109,281.174,-98.2266,-14.6224,178.813,2.26318,-144.954,304
1569936109,281.174,-98.2266,-14.6224,178.813,2.26318,-144.954,304
1569936109,281.174,-98.2266,-14.6224,178.813,2.26318,-144.954,304
1569936109,281.174,-98.2266,-14.6224,178.813,2.26318,-144.954,304
1569936109,281.174,-98.2266,-14.6224,178.813,2.26318,-144.954,304
1569936109,281.174,-98.2266,-14.6224,178.813,2.26318,-144.954,304
1569936109,281.174,-98.2266,-14.6224,178.813,2.26318,-144.954,304
1569936109,281.174,-98.2266,-14.6224,178.813,2.26318,-144.954,304
1569936109,281.174,-98.2266,-14.6224,178.813,2.26318,-144.954,304
1569936109,281.174,-98.2266,-14.6224,178.813,2.26318,-144.954,304
1569936109,281.174,-98.2266,-14.6224,178.813,2.24121,-144.954,304
1569936109,281.174,-98.2266,-14.6224,178.813,2.24121,-144.954,304
1569936109,281.174,-98.2266,-14.6224,178.813,2.24121,-144.954,304
1569936109,281.174,-98.2266,-14.734,178.813,2.24121,-144.954,304
1569936109,281.174,-98.2266,-14.734,178.813,2.24121,-144.954,304
1569936109,281.174,-98.2266,-14.734,178.813,2.24121,-144.954,304
1569936109,281.174,-98.2266,-14.734,178.813,2.24121,-144.954,304
1569936109,281.174,-98.2266,-14.734,178.813,2.24121,-144.954,304
1569936109,281.174,-98.2266,-14.734,178.813,2.24121,-144.954,304
1569936109,281.174,-98.2266,-14.734,178.813,2.24121,-144.954,304
1569936109,281.174,-98.2266,-14.734,178.813,2.24121,-144.954,304
1569936109,281.174,-98.1149,-14.6224,178.813,2.24121,-144.954,304
1569936109,281.174,-98.1149,-14.6224,178.813,2.24121,-144.954,304
1569936109,281.174,-98.1149,-14.6224,178.813,2.24121,-144.954,308
1569936109,281.174,-98.1149,-14.6224,178.813,2.24121,-144.954,308
1569936109,281.174,-98.1149,-14.6224,178.813,2.24121,-144.954,308
1569936109,281.174,-98.1149,-14.6224,178.813,2.26318,-144.954,308
1569936109,281.174,-98.1149,-14.6224,178.813,2.26318,-144.954,308
1569936109,281.174,-98.1149,-14.6224,178.813,2.26318,-144.954,308
1569936109,281.174,-98.1149,-14.6224,178.813,2.26318,-144.954,308
1569936109,281.174,-98.1149,-14.6224,178.813,2.26318,-144.954,308
1569936109,281.174,-98.1149,-14.6224,178.813,2.26318,-144.954,308
1569936109,281.174,-98.1149,-14.6224,178.813,2.26318,-144.954,308
1569936109,281.174,-98.2266,-14.6224,178.813,2.26318,-144.954,308
1569936109,281.174,-98.2266,-14.6224,178.813,2.26318,-144.954,308
1569936109,281.174,-98.2266,-14.6224,178.813,2.26318,-144.954,308
1569936109,281.174,-98.2266,-14.6224,178.813,2.26318,-144.954,308
1569936109,281.174,-98.2266,-14.6224,178.792,2.26318,-144.954,308
1569936109,281.174,-98.2266,-14.6224,178.792,2.26318,-144.954,308
1569936109,281.174,-98.2266,-14.6224,178.792,2.26318,-144.954,308
1569936109,281.174,-98.2266,-14.6224,178.792,2.26318,-144.954,308
1569936109,281.174,-98.2266,-14.6224,178.792,2.26318,-144.954,308
1569936109,281.174,-98.2266,-14.6224,178.792,2.26318,-144.954,308
1569936109,281.174,-98.2266,-14.6224,178.792,2.26318,-144.954,308
1569936109,281.062,-98.2266,-14.6224,178.792,2.26318,-144.954,312
1569936109,281.062,-98.2266,-14.6224,178.792,2.26318,-144.954,312
1569936109,281.062,-98.2266,-14.6224,178.792,2.26318,-144.954,312
1569936109,281.062,-98.2266,-14.6224,178.792,2.26318,-144.954,312
1569936109,281.062,-98.2266,-14.6224,178.792,2.26318,-144.932,312
1569936109,281.062,-98.2266,-14.6224,178.792,2.26318,-144.932,312
1569936109,281.062,-98.2266,-14.6224,178.792,2.26318,-144.932,312
1569936109,281.062,-98.2266,-14.6224,178.792,2.26318,-144.932,312
1569936109,281.062,-98.2266,-14.6224,178.792,2.26318,-144.932,312
1569936109,281.062,-98.2266,-14.6224,178.792,2.26318,-144.932,312
1569936109,281.062,-98.2266,-14.6224,178.792,2.26318,-144.932,312
1569936110,281.062,-98.2266,-14.6224,178.792,2.26318,-144.932,312
1569936110,281.062,-98.2266,-14.6224,178.792,2.26318,-144.932,312
1569936110,281.062,-98.2266,-14.6224,178.792,2.26318,-144.932,312
1569936110,281.062,-98.2266,-14.6224,178.792,2.26318,-144.932,312
1569936110,281.062,-98.2266,-14.6224,178.792,2.26318,-144.932,312
1569936110,281.062,-98.2266,-14.6224,178.792,2.26318,-144.932,312
1569936110,281.062,-98.2266,-14.6224,178.792,2.26318,-144.932,312
1569936110,281.062,-98.2266,-14.6224,178.792,2.26318,-144.932,312
1569936110,281.062,-98.2266,-14.6224,178.792,2.26318,-144.932,308
1569936110,281.062,-98.2266,-14.6224,178.792,2.26318,-144.932,308
1569936110,281.062,-98.2266,-14.6224,178.792,2.26318,-144.932,308
1569936110,281.062,-98.2266,-14.6224,178.792,2.26318,-144.932,312
1569936110,281.062,-98.2266,-14.6224,178.792,2.26318,-144.932,312
1569936110,281.062,-98.2266,-14.6224,178.792,2.26318,-144.932,312
1569936110,281.062,-98.2266,-14.6224,178.792,2.26318,-144.932,312
1569936110,281.062,-98.2266,-14.6224,178.792,2.28516,-144.932,312
1569936110,281.062,-98.2266,-14.6224,178.792,2.26318,-144.932,312
1569936110,281.062,-98.2266,-14.6224,178.792,2.26318,-144.932,312
1569936110,281.062,-98.2266,-14.6224,178.792,2.26318,-144.932,312
1569936110,281.062,-98.2266,-14.6224,178.792,2.26318,-144.932,312
1569936110,281.062,-98.2266,-14.6224,178.792,2.26318,-144.932,312
1569936110,281.062,-98.2266,-14.6224,178.792,2.26318,-144.932,312
1569936110,281.062,-98.2266,-14.6224,178.792,2.26318,-144.932,312
1569936110,281.062,-98.2266,-14.6224,178.792,2.26318,-144.932,312
1569936110,281.062,-98.2266,-14.6224,178.792,2.26318,-144.932,312
1569936110,281.062,-98.2266,-14.6224,178.792,2.26318,-144.932,312
1569936110,281.062,-98.2266,-14.6224,178.792,2.26318,-144.932,312
1569936110,281.062,-98.2266,-14.6224,178.792,2.26318,-144.932,312
1569936110,281.174,-98.2266,-14.6224,178.792,2.26318,-144.932,312
1569936110,281.174,-98.2266,-14.6224,178.792,2.26318,-144.932,312
1569936110,281.174,-98.2266,-14.6224,178.792,2.26318,-144.932,312
1569936110,281.174,-98.2266,-14.6224,178.792,2.26318,-144.932,312
1569936110,281.174,-98.2266,-14.6224,178.792,2.26318,-144.932,312
1569936110,281.174,-98.2266,-14.6224,178.792,2.26318,-144.932,312
1569936110,281.174,-98.2266,-14.6224,178.792,2.26318,-144.932,312
1569936110,281.174,-98.2266,-14.6224,178.792,2.26318,-144.932,312
1569936110,281.174,-98.2266,-14.6224,178.792,2.26318,-144.932,312
1569936110,281.174,-98.2266,-14.6224,178.792,2.26318,-144.954,312
1569936110,281.174,-98.2266,-14.6224,178.792,2.26318,-144.954,312
1569936110,281.174,-98.2266,-14.6224,178.792,2.26318,-144.954,312
1569936110,281.174,-98.2266,-14.6224,178.792,2.26318,-144.954,312
1569936110,281.174,-98.2266,-14.6224,178.792,2.26318,-144.932,312
1569936110,281.174,-98.2266,-14.6224,178.792,2.26318,-144.932,312
1569936110,281.174,-98.2266,-14.6224,178.792,2.26318,-144.932,312
1569936110,281.174,-98.2266,-14.6224,178.792,2.26318,-144.932,312
1569936110,281.062,-98.2266,-14.6224,178.792,2.28516,-144.932,312
1569936110,281.062,-98.2266,-14.6224,178.792,2.28516,-144.932,312
1569936110,281.062,-98.2266,-14.6224,178.792,2.28516,-144.932,312
1569936110,281.174,-98.2266,-14.6224,178.792,2.28516,-144.932,312
1569936110,281.174,-98.2266,-14.6224,178.792,2.28516,-144.932,312
1569936110,281.174,-98.2266,-14.6224,178.792,2.28516,-144.932,312
1569936110,281.174,-98.2266,-14.6224,178.792,2.28516,-144.932,312
1569936110,281.174,-98.2266,-14.6224,178.792,2.28516,-144.932,312
1569936110,281.174,-98.2266,-14.6224,178.792,2.28516,-144.932,312
1569936110,281.174,-98.2266,-14.6224,178.792,2.28516,-144.932,312
1569936110,281.174,-98.2266,-14.6224,178.792,2.26318,-144.932,312
1569936110,281.174,-98.2266,-14.6224,178.792,2.26318,-144.932,312
1569936110,281.174,-98.2266,-14.6224,178.792,2.26318,-144.932,308
1569936110,281.174,-98.2266,-14.6224,178.792,2.26318,-144.932,308
1569936110,281.174,-98.2266,-14.6224,178.792,2.26318,-144.932,308
1569936110,281.174,-98.2266,-14.6224,178.792,2.26318,-144.932,308
1569936110,281.174,-98.2266,-14.6224,178.792,2.26318,-144.932,308
1569936110,281.174,-98.2266,-14.6224,178.792,2.26318,-144.932,308
1569936110,281.174,-98.2266,-14.6224,178.792,2.26318,-144.932,308
1569936110,281.174,-98.2266,-14.6224,178.792,2.26318,-144.932,308
1569936110,281.174,-98.2266,-14.6224,178.792,2.26318,-144.932,304
1569936110,281.174,-98.2266,-14.6224,178.792,2.26318,-144.932,304
1569936110,281.174,-98.2266,-14.6224,178.792,2.26318,-144.932,304
1569936110,281.174,-98.2266,-14.6224,178.792,2.26318,-144.932,304
1569936110,281.174,-98.2266,-14.6224,178.792,2.26318,-144.932,304
1569936110,281.174,-98.2266,-14.6224,178.792,2.26318,-144.932,304
1569936110,281.174,-98.2266,-14.6224,178.792,2.26318,-144.932,304
1569936110,281.174,-98.2266,-14.6224,178.792,2.26318,-144.932,304
1569936110,281.174,-98.2266,-14.6224,178.813,2.26318,-144.932,304
1569936110,281.174,-98.2266,-14.6224,178.813,2.26318,-144.932,304
1569936110,281.174,-98.2266,-14.6224,178.813,2.26318,-144.932,304
1569936110,281.174,-98.2266,-14.6224,178.813,2.26318,-144.932,304
1569936110,281.174,-98.2266,-14.6224,178.813,2.26318,-144.932,304
1569936110,281.174,-98.2266,-14.6224,178.813,2.26318,-144.932,304
1569936110,281.174,-98.2266,-14.6224,178.813,2.26318,-144.932,304
1569936110,281.174,-98.2266,-14.6224,178.813,2.26318,-144.932,304
1569936110,281.174,-98.2266,-14.6224,178.813,2.26318,-144.932,304
1569936110,281.174,-98.2266,-14.6224,178.813,2.26318,-144.932,304
1569936110,281.174,-98.2266,-14.6224,178.813,2.26318,-144.932,304
1569936110,281.174,-98.2266,-14.6224,178.813,2.26318,-144.932,308
1569936110,281.174,-98.2266,-14.6224,178.813,2.26318,-144.932,308
1569936110,281.174,-98.2266,-14.6224,178.792,2.26318,-144.932,308
1569936110,281.174,-98.2266,-14.6224,178.792,2.26318,-144.932,308
1569936110,281.174,-98.2266,-14.6224,178.792,2.26318,-144.932,308
1569936110,281.174,-98.2266,-14.6224,178.792,2.26318,-144.932,308
1569936110,281.174,-98.2266,-14.6224,178.792,2.26318,-144.932,308
1569936110,281.174,-98.2266,-14.6224,178.792,2.26318,-144.932,308
1569936110,281.174,-98.2266,-14.6224,178.792,2.26318,-144.932,308
1569936110,281.174,-98.2266,-14.6224,178.792,2.26318,-144.932,308
1569936110,281.174,-98.2266,-14.6224,178.792,2.26318,-144.932,308
1569936110,281.174,-98.2266,-14.6224,178.792,2.26318,-144.932,308
1569936110,281.174,-98.2266,-14.6224,178.792,2.26318,-144.932,312
1569936110,281.174,-98.2266,-14.6224,178.792,2.26318,-144.932,312
1569936110,281.174,-98.2266,-14.6224,178.792,2.26318,-144.932,312
1569936110,281.174,-98.2266,-14.6224,178.792,2.26318,-144.932,312
1569936111,281.174,-98.2266,-14.6224,178.792,2.26318,-144.932,312
1569936111,281.174,-98.2266,-14.6224,178.792,2.26318,-144.932,312
1569936111,281.174,-98.2266,-14.6224,178.792,2.26318,-144.932,312
1569936111,281.174,-98.2266,-14.6224,178.792,2.26318,-144.932,312
1569936111,281.174,-98.2266,-14.6224,178.792,2.26318,-144.932,312
1569936111,281.174,-98.2266,-14.6224,178.792,2.26318,-144.932,316
1569936111,281.174,-98.2266,-14.6224,178.792,2.26318,-144.932,316
1569936111,281.062,-98.2266,-14.6224,178.792,2.26318,-144.932,316
1569936111,281.062,-98.2266,-14.6224,178.792,2.26318,-144.932,316
1569936111,281.062,-98.2266,-14.6224,178.792,2.26318,-144.932,316
1569936111,281.062,-98.2266,-14.6224,178.792,2.26318,-144.932,316
1569936111,281.062,-98.2266,-14.6224,178.792,2.26318,-144.932,316
1569936111,281.062,-98.2266,-14.6224,178.792,2.26318,-144.932,316
1569936111,281.062,-98.2266,-14.6224,178.792,2.26318,-144.932,316
1569936111,281.062,-98.2266,-14.6224,178.792,2.26318,-144.932,316
1569936111,281.062,-98.2266,-14.6224,178.792,2.26318,-144.932,316
1569936111,281.174,-98.2266,-14.6224,178.792,2.26318,-144.932,316
1569936111,281.174,-98.2266,-14.6224,178.792,2.26318,-144.932,316
1569936111,281.174,-98.2266,-14.6224,178.792,2.26318,-144.932,316
1569936111,281.174,-98.2266,-14.6224,178.792,2.26318,-144.954,316
1569936111,281.062,-98.2266,-14.6224,178.792,2.26318,-144.954,316
1569936111,281.062,-98.2266,-14.6224,178.792,2.26318,-144.954,316
1569936111,281.062,-98.2266,-14.6224,178.792,2.26318,-144.954,316
1569936111,281.062,-98.2266,-14.6224,178.792,2.26318,-144.954,316
1569936111,281.062,-98.2266,-14.6224,178.792,2.26318,-144.954,316
1569936111,281.062,-98.2266,-14.6224,178.792,2.26318,-144.954,316
1569936111,281.062,-98.2266,-14.6224,178.792,2.26318,-144.954,316
1569936111,281.062,-98.2266,-14.6224,178.792,2.26318,-144.954,316
1569936111,281.062,-98.2266,-14.6224,178.792,2.26318,-144.954,320
1569936111,281.062,-98.2266,-14.6224,178.792,2.26318,-144.954,320
1569936111,281.062,-98.2266,-14.6224,178.792,2.26318,-144.954,320
1569936111,281.062,-98.2266,-14.6224,178.792,2.26318,-144.954,320
1569936111,281.062,-98.2266,-14.6224,178.792,2.26318,-144.954,320
1569936111,281.062,-98.2266,-14.6224,178.792,2.26318,-144.954,320
1569936111,281.062,-98.2266,-14.6224,178.792,2.26318,-144.954,320
1569936111,281.062,-98.2266,-14.6224,178.792,2.26318,-144.954,320
1569936111,281.174,-98.2266,-14.6224,178.792,2.26318,-144.954,320
1569936111,281.174,-98.2266,-14.6224,178.792,2.26318,-144.954,320
1569936111,281.174,-98.2266,-14.6224,178.792,2.26318,-144.954,320
1569936111,281.174,-98.2266,-14.6224,178.792,2.24121,-144.954,320
1569936111,281.174,-98.2266,-14.6224,178.792,2.24121,-144.932,316
1569936111,281.174,-98.2266,-14.6224,178.792,2.24121,-144.932,316
1569936111,281.174,-98.2266,-14.6224,178.792,2.24121,-144.932,316
1569936111,281.174,-98.2266,-14.6224,178.792,2.24121,-144.932,316
1569936111,281.174,-98.2266,-14.6224,178.792,2.24121,-144.932,316
1569936111,281.174,-98.2266,-14.6224,178.792,2.26318,-144.932,316
1569936111,281.174,-98.2266,-14.6224,178.792,2.26318,-144.932,316
1569936111,281.174,-98.2266,-14.6224,178.792,2.26318,-144.932,316
1569936111,281.174,-98.2266,-14.6224,178.792,2.26318,-144.932,316
1569936111,281.174,-98.2266,-14.6224,178.792,2.26318,-144.932,312
1569936111,281.174,-98.2266,-14.6224,178.792,2.26318,-144.932,312
1569936111,281.174,-98.2266,-14.6224,178.792,2.26318,-144.932,312
1569936111,281.174,-98.2266,-14.6224,178.813,2.26318,-144.932,312
1569936111,281.174,-98.2266,-14.6224,178.813,2.26318,-144.932,312
1569936111,281.174,-98.2266,-14.6224,178.813,2.26318,-144.932,312
1569936111,281.174,-98.2266,-14.6224,178.813,2.26318,-144.932,308
1569936111,281.174,-98.2266,-14.6224,178.813,2.28516,-144.932,308
1569936111,281.174,-98.2266,-14.6224,178.813,2.28516,-144.932,308
1569936111,281.174,-98.2266,-14.6224,178.813,2.28516,-144.932,308
1569936111,281.174,-98.2266,-14.6224,178.813,2.28516,-144.932,308
1569936111,281.174,-98.2266,-14.6224,178.813,2.28516,-144.932,308
1569936111,281.174,-98.2266,-14.6224,178.813,2.28516,-144.932,308
1569936111,281.174,-98.2266,-14.6224,178.813,2.28516,-144.932,304
1569936111,281.174,-98.2266,-14.5107,178.813,2.28516,-144.932,304
1569936111,281.174,-98.2266,-14.6224,178.813,2.28516,-144.932,304
1569936111,281.174,-98.2266,-14.6224,178.813,2.28516,-144.932,304
1569936111,281.174,-98.2266,-14.6224,178.813,2.28516,-144.932,304
1569936111,281.174,-98.2266,-14.6224,178.813,2.28516,-144.932,304
1569936111,281.174,-98.2266,-14.6224,178.813,2.28516,-144.932,304
1569936111,281.174,-98.2266,-14.6224,178.813,2.28516,-144.932,304
1569936111,281.174,-98.2266,-14.6224,178.813,2.28516,-144.932,304
1569936111,281.174,-98.2266,-14.6224,178.813,2.28516,-144.932,304
1569936111,281.174,-98.2266,-14.6224,178.813,2.28516,-144.932,304
1569936111,281.174,-98.2266,-14.6224,178.813,2.26318,-144.932,304
1569936111,281.174,-98.2266,-14.6224,178.813,2.26318,-144.932,304
1569936111,281.174,-98.2266,-14.6224,178.813,2.26318,-144.932,304
1569936111,281.174,-98.2266,-14.6224,178.813,2.26318,-144.932,304
1569936111,281.174,-98.2266,-14.6224,178.792,2.26318,-144.932,304
1569936111,281.174,-98.2266,-14.6224,178.792,2.26318,-144.932,304
1569936111,281.174,-98.2266,-14.6224,178.792,2.26318,-144.932,308
1569936111,281.174,-98.2266,-14.6224,178.792,2.26318,-144.932,308
1569936111,281.174,-98.2266,-14.6224,178.792,2.26318,-144.932,308
1569936111,281.174,-98.2266,-14.6224,178.792,2.26318,-144.932,308
1569936111,281.174,-98.2266,-14.6224,178.792,2.26318,-144.932,308
1569936111,281.174,-98.2266,-14.6224,178.792,2.26318,-144.932,308
1569936111,281.174,-98.2266,-14.6224,178.792,2.26318,-144.932,308
1569936111,281.174,-98.2266,-14.6224,178.792,2.26318,-144.932,308
1569936111,281.174,-98.2266,-14.6224,178.792,2.28516,-144.932,308
1569936111,281.174,-98.2266,-14.6224,178.792,2.28516,-144.932,308
1569936111,281.174,-98.2266,-14.6224,178.792,2.26318,-144.932,308
1569936111,281.174,-98.2266,-14.6224,178.792,2.26318,-144.932,308
1569936111,281.174,-98.2266,-14.6224,178.792,2.26318,-144.932,308
1569936111,281.174,-98.2266,-14.6224,178.792,2.26318,-144.932,308
1569936111,281.174,-98.2266,-14.6224,178.792,2.26318,-144.932,304
1569936111,281.174,-98.2266,-14.6224,178.792,2.26318,-144.932,304
1569936111,281.174,-98.2266,-14.6224,178.792,2.26318,-144.932,304
1569936111,281.174,-98.2266,-14.6224,178.792,2.26318,-144.932,304
1569936111,281.174,-98.2266,-14.6224,178.792,2.26318,-144.932,304
1569936111,281.174,-98.2266,-14.6224,178.792,2.26318,-144.932,304
1569936115,296.242,-115.305,-14.1759,178.66,2.15332,-144.207,320
1569936115,296.242,-115.305,-14.1759,178.66,2.15332,-144.207,320
1569936115,296.242,-115.305,-14.1759,178.66,2.15332,-144.207,320
1569936115,296.242,-115.305,-14.1759,178.66,2.15332,-144.207,320
1569936115,296.242,-115.305,-14.1759,178.66,2.15332,-144.207,320
1569936115,296.242,-115.305,-14.1759,178.66,2.15332,-144.207,320
1569936115,296.242,-115.305,-14.1759,178.682,2.17529,-144.207,320
1569936115,296.242,-115.305,-14.1759,178.682,2.17529,-144.207,320
1569936115,296.242,-115.305,-14.1759,178.66,2.17529,-144.207,320
1569936115,296.242,-115.305,-14.1759,178.66,2.17529,-144.207,320
1569936115,296.242,-115.305,-14.1759,178.66,2.17529,-144.207,320
1569936115,296.242,-115.305,-14.1759,178.66,2.17529,-144.207,320
1569936115,296.242,-115.305,-14.1759,178.66,2.17529,-144.207,320
1569936115,296.242,-115.305,-14.1759,178.66,2.17529,-144.207,320
1569936115,296.242,-115.305,-14.1759,178.66,2.17529,-144.207,320
1569936115,296.242,-115.305,-14.1759,178.66,2.17529,-144.207,320
1569936115,296.242,-115.305,-14.1759,178.66,2.17529,-144.207,320
1569936115,296.242,-115.305,-14.1759,178.66,2.17529,-144.207,320
1569936115,296.242,-115.305,-14.1759,178.66,2.17529,-144.185,316
1569936115,296.242,-115.305,-14.1759,178.66,2.17529,-144.185,316
1569936115,296.242,-115.305,-14.1759,178.66,2.17529,-144.185,316
1569936115,296.242,-115.305,-14.1759,178.66,2.17529,-144.185,316
1569936115,296.242,-115.305,-14.1759,178.66,2.17529,-144.185,316
1569936115,296.242,-115.305,-14.1759,178.66,2.17529,-144.185,316
1569936115,296.242,-115.305,-14.1759,178.638,2.17529,-144.185,316
1569936115,296.242,-115.305,-14.1759,178.638,2.17529,-144.185,316
1569936115,296.242,-115.305,-14.1759,178.638,2.17529,-144.185,316
1569936115,296.242,-115.305,-14.1759,178.638,2.17529,-144.185,316
1569936115,296.242,-115.305,-14.1759,178.638,2.17529,-144.185,316
1569936115,296.242,-115.305,-14.1759,178.638,2.17529,-144.185,316
1569936115,296.242,-115.305,-14.1759,178.638,2.17529,-144.207,316
1569936115,296.242,-115.305,-14.1759,178.638,2.17529,-144.207,316
1569936115,296.242,-115.305,-14.1759,178.638,2.17529,-144.185,316
1569936115,296.242,-115.305,-14.1759,178.638,2.17529,-144.185,316
1569936115,296.242,-115.305,-14.1759,178.638,2.17529,-144.185,316
1569936115,296.242,-115.305,-14.1759,178.638,2.17529,-144.185,316
1569936115,296.242,-115.305,-14.1759,178.638,2.17529,-144.185,316
1569936115,296.242,-115.305,-14.1759,178.638,2.17529,-144.185,316
1569936115,296.242,-115.305,-14.1759,178.638,2.17529,-144.185,316
1569936115,296.242,-115.305,-14.1759,178.638,2.17529,-144.185,316
1569936115,296.242,-115.305,-14.1759,178.638,2.17529,-144.185,316
1569936115,296.242,-115.305,-14.1759,178.638,2.17529,-144.185,316
1569936115,296.242,-115.305,-14.1759,178.638,2.17529,-144.185,316
1569936115,296.242,-115.305,-14.1759,178.638,2.17529,-144.185,316
1569936115,296.242,-115.305,-14.1759,178.638,2.17529,-144.207,316
1569936115,296.242,-115.305,-14.1759,178.638,2.17529,-144.207,316
1569936115,296.242,-115.305,-14.1759,178.638,2.17529,-144.207,316
1569936115,296.242,-115.305,-14.1759,178.638,2.17529,-144.207,316
1569936115,296.242,-115.305,-14.1759,178.66,2.17529,-144.207,316
1569936115,296.242,-115.305,-14.1759,178.66,2.17529,-144.207,316
1569936115,296.242,-115.305,-14.1759,178.66,2.17529,-144.207,316
1569936115,296.242,-115.305,-14.1759,178.66,2.17529,-144.207,316
1569936115,296.242,-115.305,-14.1759,178.66,2.17529,-144.207,316
1569936115,296.242,-115.305,-14.1759,178.66,2.17529,-144.185,316
1569936116,296.242,-115.305,-14.1759,178.66,2.17529,-144.185,316
1569936116,296.242,-115.305,-14.1759,178.66,2.17529,-144.185,316
1569936116,296.242,-115.305,-14.1759,178.66,2.17529,-144.207,316
1569936116,296.242,-115.305,-14.1759,178.66,2.17529,-144.185,316
1569936116,296.242,-115.305,-14.1759,178.66,2.17529,-144.185,320
1569936116,296.242,-115.305,-14.1759,178.66,2.17529,-144.185,320
1569936116,296.242,-115.305,-14.1759,178.66,2.17529,-144.185,320
1569936116,296.242,-115.305,-14.1759,178.66,2.17529,-144.185,320
1569936116,296.242,-115.305,-14.1759,178.66,2.17529,-144.185,320
1569936116,296.242,-115.305,-14.1759,178.66,2.17529,-144.185,320
1569936116,296.242,-115.305,-14.1759,178.66,2.17529,-144.185,320
1569936116,296.242,-115.305,-14.1759,178.66,2.17529,-144.185,320
1569936116,296.242,-115.305,-14.1759,178.66,2.17529,-144.185,320
1569936116,296.242,-115.305,-14.1759,178.66,2.17529,-144.185,320
1569936116,296.242,-115.305,-14.1759,178.66,2.17529,-144.185,320
1569936116,296.242,-115.305,-14.1759,178.66,2.17529,-144.185,320
1569936116,296.242,-115.305,-14.1759,178.66,2.17529,-144.185,320
1569936116,296.242,-115.305,-14.1759,178.66,2.17529,-144.185,320
1569936116,296.242,-115.305,-14.1759,178.66,2.17529,-144.185,324
1569936116,296.242,-115.305,-14.1759,178.66,2.17529,-144.185,324
1569936116,296.242,-115.305,-14.1759,178.66,2.17529,-144.185,324
1569936116,296.242,-115.305,-14.1759,178.66,2.17529,-144.185,324
1569936116,296.242,-115.305,-14.1759,178.66,2.17529,-144.185,324
1569936116,296.242,-115.305,-14.1759,178.66,2.17529,-144.185,328
1569936116,296.242,-115.305,-14.1759,178.66,2.17529,-144.185,328
1569936116,296.242,-115.305,-14.1759,178.66,2.17529,-144.185,328
1569936116,296.242,-115.305,-14.1759,178.66,2.17529,-144.185,328
1569936116,296.242,-115.305,-14.1759,178.638,2.17529,-144.185,328
1569936116,296.242,-115.305,-14.1759,178.638,2.17529,-144.185,332
1569936116,296.242,-115.305,-14.1759,178.638,2.17529,-144.185,332
1569936116,296.242,-115.305,-14.1759,178.638,2.17529,-144.185,332
1569936116,296.242,-115.305,-14.1759,178.638,2.17529,-144.185,332
1569936116,296.242,-115.305,-14.1759,178.638,2.15332,-144.185,332
1569936116,296.242,-115.305,-14.1759,178.638,2.15332,-144.185,332
1569936116,296.242,-115.305,-14.1759,178.638,2.15332,-144.185,332
1569936116,296.242,-115.305,-14.1759,178.638,2.15332,-144.185,332
1569936116,296.242,-115.305,-14.1759,178.638,2.15332,-144.185,332
1569936116,296.242,-115.305,-14.1759,178.638,2.17529,-144.185,332
1569936116,296.242,-115.305,-14.1759,178.638,2.17529,-144.185,332
1569936116,296.242,-115.305,-14.1759,178.638,2.17529,-144.185,332
1569936116,296.242,-115.305,-14.1759,178.638,2.17529,-144.185,332
1569936116,296.242,-115.305,-14.1759,178.638,2.17529,-144.185,332
1569936116,296.242,-115.305,-14.1759,178.638,2.17529,-144.185,332
1569936116,296.242,-115.305,-14.1759,178.638,2.17529,-144.185,332
1569936116,296.242,-115.305,-14.1759,178.638,2.17529,-144.185,332
1569936116,296.242,-115.305,-14.1759,178.638,2.17529,-144.185,332
1569936116,296.242,-115.305,-14.1759,178.638,2.17529,-144.185,332
1569936116,296.242,-115.305,-14.1759,178.638,2.17529,-144.185,332
1569936116,296.242,-115.305,-14.1759,178.638,2.17529,-144.185,332
1569936116,296.242,-115.305,-14.1759,178.638,2.17529,-144.185,332
1569936116,296.242,-115.305,-14.1759,178.638,2.17529,-144.185,332
1569936116,296.242,-115.305,-14.1759,178.638,2.17529,-144.185,332
1569936116,296.242,-115.305,-14.1759,178.638,2.17529,-144.185,332
1569936116,296.242,-115.305,-14.1759,178.638,2.17529,-144.185,332
1569936116,296.242,-115.305,-14.1759,178.638,2.17529,-144.185,336
1569936116,296.242,-115.305,-14.1759,178.638,2.17529,-144.185,336
1569936116,296.242,-115.305,-14.1759,178.638,2.17529,-144.185,336
1569936116,296.242,-115.305,-14.1759,178.638,2.17529,-144.185,336
1569936116,296.242,-115.305,-14.1759,178.638,2.17529,-144.185,336
1569936116,296.242,-115.305,-14.1759,178.638,2.17529,-144.185,336
1569936116,296.242,-115.305,-14.1759,178.638,2.17529,-144.185,336
1569936116,296.242,-115.305,-14.1759,178.638,2.17529,-144.185,336
1569936116,296.242,-115.305,-14.1759,178.638,2.17529,-144.185,336
1569936116,296.242,-115.305,-14.1759,178.638,2.17529,-144.185,336
1569936116,296.242,-115.305,-14.1759,178.638,2.17529,-144.185,336
1569936116,296.242,-115.305,-14.1759,178.638,2.17529,-144.185,336
1569936116,296.242,-115.305,-14.1759,178.638,2.17529,-144.185,336
1569936116,296.242,-115.305,-14.1759,178.638,2.17529,-144.185,336
1569936116,296.242,-115.305,-14.1759,178.638,2.17529,-144.185,336
1569936116,296.242,-115.305,-14.1759,178.638,2.17529,-144.185,336
1569936116,296.242,-115.305,-14.1759,178.638,2.17529,-144.185,336
1569936116,296.242,-115.305,-14.1759,178.638,2.17529,-144.185,336
1569936116,296.242,-115.305,-14.1759,178.638,2.17529,-144.185,336
1569936116,296.242,-115.305,-14.1759,178.638,2.17529,-144.185,336
1569936116,296.242,-115.305,-14.0643,178.638,2.19727,-144.185,336
1569936116,296.242,-115.305,-14.0643,178.638,2.19727,-144.185,336
1569936116,296.242,-115.305,-14.0643,178.638,2.19727,-144.185,336
1569936116,296.242,-115.305,-14.0643,178.638,2.19727,-144.185,336
1569936116,296.242,-115.305,-14.0643,178.638,2.17529,-144.185,336
1569936116,296.242,-115.305,-14.0643,178.638,2.17529,-144.185,336
1569936116,296.242,-115.305,-14.1759,178.638,2.17529,-144.185,336
1569936116,296.242,-115.305,-14.1759,178.638,2.17529,-144.185,336
1569936116,296.242,-115.305,-14.1759,178.638,2.17529,-144.185,336
1569936116,296.242,-115.305,-14.1759,178.638,2.17529,-144.185,336
1569936116,296.242,-115.305,-14.1759,178.638,2.17529,-144.185,336
1569936116,296.242,-115.305,-14.1759,178.638,2.17529,-144.185,336
1569936116,296.242,-115.305,-14.1759,178.638,2.17529,-144.185,336
1569936116,296.242,-115.305,-14.1759,178.638,2.17529,-144.185,336
1569936116,296.242,-115.305,-14.1759,178.638,2.17529,-144.185,336
1569936116,296.242,-115.305,-14.1759,178.638,2.17529,-144.185,336
1569936116,296.242,-115.305,-14.1759,178.638,2.17529,-144.185,336
1569936116,296.242,-115.305,-14.1759,178.638,2.17529,-144.185,336
1569936116,296.242,-115.305,-14.1759,178.638,2.17529,-144.185,336
1569936116,296.242,-115.305,-14.1759,178.638,2.17529,-144.185,336
1569936116,296.242,-115.305,-14.1759,178.638,2.17529,-144.185,336
1569936116,296.242,-115.305,-14.1759,178.638,2.17529,-144.185,336
1569936116,296.242,-115.305,-14.1759,178.638,2.17529,-144.185,336
1569936116,296.242,-115.305,-14.0643,178.638,2.19727,-144.185,336
1569936116,296.242,-115.305,-14.0643,178.638,2.19727,-144.185,336
1569936116,296.242,-115.305,-14.0643,178.638,2.19727,-144.185,336
1569936117,296.242,-115.305,-14.0643,178.638,2.19727,-144.185,336
1569936117,296.242,-115.305,-14.0643,178.638,2.19727,-144.185,332
1569936117,296.242,-115.305,-14.0643,178.638,2.19727,-144.185,332
1569936117,296.242,-115.305,-14.0643,178.638,2.19727,-144.185,332
1569936117,296.242,-115.305,-14.1759,178.66,2.19727,-144.185,332
1569936117,296.242,-115.305,-14.1759,178.66,2.17529,-144.185,332
1569936117,296.242,-115.305,-14.1759,178.66,2.17529,-144.185,332
1569936117,296.242,-115.305,-14.1759,178.66,2.17529,-144.185,332
1569936117,296.242,-115.305,-14.1759,178.66,2.17529,-144.185,332
1569936117,296.242,-115.305,-14.1759,178.66,2.17529,-144.185,328
1569936117,296.242,-115.305,-14.1759,178.66,2.17529,-144.185,328
1569936117,296.242,-115.305,-14.1759,178.66,2.17529,-144.185,328
1569936117,296.242,-115.305,-14.1759,178.66,2.17529,-144.185,328
1569936117,296.242,-115.305,-14.1759,178.66,2.17529,-144.185,328
1569936117,296.242,-115.305,-14.1759,178.66,2.17529,-144.185,324
1569936117,296.242,-115.305,-14.1759,178.66,2.17529,-144.185,324
1569936117,296.242,-115.305,-14.1759,178.66,2.17529,-144.185,324
1569936117,296.242,-115.305,-14.1759,178.66,2.17529,-144.185,324
1569936117,296.242,-115.305,-14.1759,178.66,2.17529,-144.185,324
1569936117,296.242,-115.305,-14.1759,178.66,2.17529,-144.185,324
1569936117,296.242,-115.305,-14.1759,178.638,2.17529,-144.185,320
1569936117,296.242,-115.305,-14.1759,178.638,2.17529,-144.185,320
1569936117,296.242,-115.305,-14.1759,178.638,2.17529,-144.185,320
1569936117,296.242,-115.305,-14.1759,178.638,2.17529,-144.185,320
1569936117,296.242,-115.305,-14.1759,178.638,2.17529,-144.185,320
1569936117,296.242,-115.305,-14.1759,178.638,2.17529,-144.185,320
1569936117,296.242,-115.305,-14.1759,178.638,2.15332,-144.185,320
1569936117,296.242,-115.305,-14.1759,178.638,2.15332,-144.185,320
1569936117,296.242,-115.305,-14.1759,178.638,2.15332,-144.185,316
1569936117,296.242,-115.305,-14.1759,178.638,2.15332,-144.185,316
1569936117,296.242,-115.305,-14.1759,178.638,2.15332,-144.185,316
1569936117,296.242,-115.305,-14.1759,178.638,2.15332,-144.185,316
1569936117,296.242,-115.305,-14.1759,178.638,2.15332,-144.185,316
1569936117,296.242,-115.305,-14.1759,178.638,2.15332,-144.185,316
1569936117,296.242,-115.305,-14.1759,178.638,2.15332,-144.185,316
1569936117,296.242,-115.305,-14.1759,178.638,2.15332,-144.185,316
1569936117,296.242,-115.305,-14.1759,178.638,2.15332,-144.185,316
1569936117,296.242,-115.305,-14.1759,178.638,2.15332,-144.185,316
1569936117,296.242,-115.305,-14.1759,178.638,2.15332,-144.185,316
1569936117,296.242,-115.305,-14.1759,178.638,2.17529,-144.185,316
1569936117,296.242,-115.305,-14.1759,178.638,2.17529,-144.185,316
1569936117,296.242,-115.305,-14.1759,178.638,2.17529,-144.185,320
1569936117,296.242,-115.305,-14.1759,178.638,2.17529,-144.185,320
1569936117,296.242,-115.305,-14.1759,178.638,2.15332,-144.185,320
1569936117,296.242,-115.305,-14.1759,178.638,2.15332,-144.185,320
1569936117,296.242,-115.305,-14.1759,178.638,2.15332,-144.185,320
1569936117,296.242,-115.305,-14.1759,178.638,2.15332,-144.185,320
1569936117,296.242,-115.305,-14.1759,178.638,2.15332,-144.185,320
1569936117,296.242,-115.305,-14.1759,178.638,2.15332,-144.185,320
1569936117,296.242,-115.305,-14.1759,178.638,2.15332,-144.185,320
1569936117,296.242,-115.305,-14.1759,178.638,2.15332,-144.185,320
1569936117,296.242,-115.305,-14.1759,178.638,2.15332,-144.185,320
1569936117,296.242,-115.305,-14.1759,178.638,2.15332,-144.185,320
1569936117,296.242,-115.305,-14.1759,178.638,2.15332,-144.185,320
1569936117,296.242,-115.305,-14.1759,178.638,2.15332,-144.185,320
1569936117,296.242,-115.305,-14.1759,178.638,2.15332,-144.185,320
1569936117,296.242,-115.305,-14.1759,178.638,2.15332,-144.185,320
1569936117,296.242,-115.305,-14.1759,178.638,2.15332,-144.185,320
1569936117,296.242,-115.305,-14.1759,178.638,2.15332,-144.185,320
1569936117,296.242,-115.305,-14.1759,178.638,2.15332,-144.185,320
1569936117,296.242,-115.305,-14.1759,178.638,2.15332,-144.185,320
1569936117,296.242,-115.305,-14.1759,178.638,2.15332,-144.185,320
1569936117,296.242,-115.305,-14.1759,178.616,2.15332,-144.185,320
1569936117,296.242,-115.305,-14.1759,178.616,2.15332,-144.185,320
1569936117,296.242,-115.305,-14.1759,178.616,2.15332,-144.185,320
1569936117,296.242,-115.305,-14.1759,178.616,2.15332,-144.185,320
1569936117,296.242,-115.305,-14.1759,178.616,2.15332,-144.185,320
1569936117,296.242,-115.305,-14.1759,178.638,2.15332,-144.185,320
1569936117,296.242,-115.305,-14.1759,178.638,2.15332,-144.185,320
1569936117,296.242,-115.305,-14.1759,178.638,2.17529,-144.185,320
1569936117,296.242,-115.305,-14.1759,178.638,2.17529,-144.185,320
1569936117,296.242,-115.305,-14.1759,178.638,2.17529,-144.185,320
1569936117,296.242,-115.305,-14.1759,178.638,2.17529,-144.185,320
1569936117,296.242,-115.305,-14.1759,178.638,2.17529,-144.185,320
1569936117,296.242,-115.305,-14.1759,178.638,2.17529,-144.185,320
1569936117,296.242,-115.305,-14.1759,178.638,2.17529,-144.185,324
1569936117,296.242,-115.305,-14.1759,178.638,2.17529,-144.185,324
1569936117,296.242,-115.305,-14.1759,178.616,2.17529,-144.185,324
1569936117,296.242,-115.305,-14.1759,178.616,2.17529,-144.185,324
1569936117,296.242,-115.416,-14.1759,178.616,2.15332,-144.185,324
1569936117,296.242,-115.416,-14.1759,178.616,2.15332,-144.185,324
1569936117,296.242,-115.416,-14.1759,178.616,2.17529,-144.185,324
1569936117,296.242,-115.416,-14.1759,178.616,2.17529,-144.185,324
1569936117,296.242,-115.416,-14.1759,178.616,2.17529,-144.185,328
1569936117,296.242,-115.416,-14.1759,178.616,2.17529,-144.185,328
1569936117,296.242,-115.416,-14.1759,178.638,2.17529,-144.185,328
1569936117,296.242,-115.416,-14.1759,178.638,2.17529,-144.185,324
1569936117,296.242,-115.416,-14.1759,178.638,2.17529,-144.185,324
1569936117,296.242,-115.416,-14.1759,178.638,2.17529,-144.185,324
1569936117,296.242,-115.416,-14.1759,178.638,2.17529,-144.185,324
1569936117,296.242,-115.416,-14.1759,178.638,2.17529,-144.185,324
1569936117,296.242,-115.416,-14.1759,178.638,2.17529,-144.185,324
1569936117,296.242,-115.305,-14.1759,178.638,2.17529,-144.185,324
1569936117,296.242,-115.305,-14.1759,178.638,2.17529,-144.185,324
1569936117,296.242,-115.305,-14.1759,178.638,2.17529,-144.185,324
1569936117,296.242,-115.305,-14.1759,178.638,2.17529,-144.185,324
1569936117,296.242,-115.305,-14.1759,178.638,2.17529,-144.185,324
1569936117,296.242,-115.305,-14.1759,178.638,2.17529,-144.185,324
1569936117,296.242,-115.305,-14.1759,178.638,2.17529,-144.185,324
1569936117,296.242,-115.305,-14.1759,178.638,2.17529,-144.185,320
1569936118,296.242,-115.305,-14.1759,178.638,2.17529,-144.185,320
1569936118,296.242,-115.305,-14.1759,178.638,2.17529,-144.185,320
1569936118,296.242,-115.305,-14.1759,178.638,2.17529,-144.185,320
1569936118,296.242,-115.305,-14.1759,178.638,2.17529,-144.185,320
1569936118,296.242,-115.305,-14.1759,178.638,2.17529,-144.185,320
1569936118,296.242,-115.305,-14.1759,178.638,2.17529,-144.185,320
1569936118,296.242,-115.305,-14.1759,178.638,2.17529,-144.185,316
1569936118,296.242,-115.305,-14.1759,178.638,2.17529,-144.185,316
1569936118,296.242,-115.305,-14.1759,178.638,2.17529,-144.185,316
1569936118,296.242,-115.305,-14.1759,178.638,2.17529,-144.185,316
1569936118,296.242,-115.305,-14.1759,178.638,2.17529,-144.185,316
1569936118,296.242,-115.305,-14.1759,178.638,2.17529,-144.185,316
1569936118,296.242,-115.305,-14.1759,178.638,2.17529,-144.185,316
1569936118,296.242,-115.305,-14.1759,178.638,2.17529,-144.185,316
1569936118,296.242,-115.305,-14.1759,178.638,2.17529,-144.185,316
1569936118,296.242,-115.305,-14.1759,178.638,2.17529,-144.185,316
1569936118,296.242,-115.305,-14.1759,178.638,2.17529,-144.185,316
1569936118,296.242,-115.305,-14.1759,178.638,2.17529,-144.185,316
1569936118,296.242,-115.305,-14.1759,178.638,2.17529,-144.185,316
1569936118,296.242,-115.305,-14.1759,178.638,2.17529,-144.185,320
1569936118,296.242,-115.305,-14.1759,178.638,2.17529,-144.185,320
1569936118,296.242,-115.305,-14.1759,178.638,2.17529,-144.185,320
1569936118,296.242,-115.305,-14.1759,178.638,2.17529,-144.185,320
1569936118,296.242,-115.305,-14.1759,178.638,2.17529,-144.185,320
1569936118,296.242,-115.305,-14.1759,178.638,2.17529,-144.185,320
1569936118,296.242,-115.305,-14.1759,178.638,2.15332,-144.185,320
1569936118,296.242,-115.305,-14.1759,178.638,2.15332,-144.185,320
1569936118,296.242,-115.305,-14.1759,178.638,2.15332,-144.185,320
1569936118,296.242,-115.305,-14.1759,178.638,2.15332,-144.185,320
1569936118,296.242,-115.305,-14.1759,178.638,2.15332,-144.185,316
1569936118,296.242,-115.305,-14.1759,178.638,2.15332,-144.185,316
1569936118,296.242,-115.305,-14.1759,178.638,2.15332,-144.185,316
1569936118,296.242,-115.305,-14.1759,178.638,2.15332,-144.185,316
1569936118,296.242,-115.305,-14.2875,178.638,2.15332,-144.185,316
1569936118,296.242,-115.305,-14.2875,178.638,2.15332,-144.185,316
1569936118,296.242,-115.305,-14.2875,178.638,2.15332,-144.185,316
1569936118,296.242,-115.305,-14.2875,178.638,2.15332,-144.185,316
1569936118,296.242,-115.305,-14.1759,178.638,2.15332,-144.185,316
1569936118,296.242,-115.305,-14.1759,178.66,2.15332,-144.185,316
1569936118,296.242,-115.305,-14.1759,178.66,2.15332,-144.185,316
1569936118,296.242,-115.305,-14.1759,178.66,2.15332,-144.185,316
1569936118,296.242,-115.305,-14.1759,178.66,2.15332,-144.185,316
1569936118,296.242,-115.305,-14.1759,178.66,2.15332,-144.185,316
1569936118,296.242,-115.305,-14.1759,178.66,2.15332,-144.185,320
1569936118,296.242,-115.305,-14.1759,178.66,2.15332,-144.185,320
1569936118,296.242,-115.305,-14.1759,178.66,2.15332,-144.185,320
1569936118,296.242,-115.305,-14.1759,178.66,2.15332,-144.185,320
1569936118,296.242,-115.305,-14.1759,178.66,2.17529,-144.185,320
1569936118,296.242,-115.305,-14.1759,178.66,2.17529,-144.185,320
1569936118,296.242,-115.305,-14.1759,178.66,2.17529,-144.185,320
1569936118,296.242,-115.305,-14.1759,178.66,2.17529,-144.185,320
1569936118,296.242,-115.305,-14.1759,178.638,2.17529,-144.185,320
1569936118,296.242,-115.305,-14.1759,178.638,2.17529,-144.185,320
1569936118,296.242,-115.305,-14.1759,178.638,2.17529,-144.185,320
1569936118,296.242,-115.305,-14.1759,178.638,2.17529,-144.185,320
1569936118,296.242,-115.305,-14.1759,178.638,2.17529,-144.185,320
1569936118,296.242,-115.305,-14.1759,178.638,2.17529,-144.185,320
1569936118,296.242,-115.305,-14.1759,178.638,2.17529,-144.185,316
1569936118,296.242,-115.305,-14.1759,178.638,2.17529,-144.185,316
1569936118,296.242,-115.305,-14.1759,178.638,2.17529,-144.185,316
1569936118,296.242,-115.305,-14.1759,178.638,2.17529,-144.185,320
1569936118,296.242,-115.305,-14.1759,178.638,2.15332,-144.185,320
1569936118,296.242,-115.305,-14.1759,178.638,2.15332,-144.185,320
1569936118,296.242,-115.305,-14.1759,178.638,2.15332,-144.185,320
1569936118,296.242,-115.305,-14.1759,178.638,2.15332,-144.185,320
1569936118,296.242,-115.305,-14.1759,178.638,2.15332,-144.185,320
1569936118,296.242,-115.305,-14.1759,178.66,2.15332,-144.185,320
1569936118,296.242,-115.305,-14.1759,178.66,2.15332,-144.185,320
1569936118,296.242,-115.305,-14.1759,178.66,2.15332,-144.185,320
1569936118,296.242,-115.305,-14.1759,178.66,2.15332,-144.185,320
1569936118,296.242,-115.305,-14.1759,178.66,2.15332,-144.185,320
1569936118,296.242,-115.305,-14.1759,178.66,2.15332,-144.185,320
1569936118,296.242,-115.305,-14.1759,178.66,2.15332,-144.185,320
1569936118,296.242,-115.305,-14.1759,178.66,2.15332,-144.185,320
1569936118,296.242,-115.305,-14.1759,178.66,2.15332,-144.185,320
1569936118,296.242,-115.305,-14.1759,178.66,2.15332,-144.185,320
1569936118,296.242,-115.305,-14.1759,178.66,2.15332,-144.185,320
1569936118,296.242,-115.305,-14.1759,178.638,2.15332,-144.185,320
1569936118,296.242,-115.305,-14.1759,178.638,2.15332,-144.185,320
1569936118,296.242,-115.305,-14.1759,178.638,2.15332,-144.185,320
1569936118,296.242,-115.305,-14.1759,178.638,2.15332,-144.185,320
1569936118,296.242,-115.305,-14.1759,178.638,2.15332,-144.185,320
1569936118,296.242,-115.305,-14.1759,178.638,2.15332,-144.185,320
1569936118,296.242,-115.305,-14.1759,178.638,2.15332,-144.185,320
1569936118,296.242,-115.305,-14.1759,178.638,2.15332,-144.185,320
1569936118,296.242,-115.305,-14.1759,178.638,2.15332,-144.185,320
1569936118,296.242,-115.305,-14.1759,178.638,2.15332,-144.185,320
1569936118,296.242,-115.305,-14.1759,178.638,2.15332,-144.185,320
1569936118,296.242,-115.305,-14.2875,178.638,2.15332,-144.185,320
1569936118,296.242,-115.305,-14.2875,178.638,2.15332,-144.185,320
1569936118,296.242,-115.305,-14.2875,178.638,2.15332,-144.185,320
1569936118,296.242,-115.305,-14.2875,178.638,2.15332,-144.185,320
1569936118,296.242,-115.305,-14.2875,178.638,2.13135,-144.185,320
1569936118,296.242,-115.305,-14.2875,178.638,2.13135,-144.185,320
1569936118,296.242,-115.305,-14.2875,178.638,2.13135,-144.185,324
1569936118,296.242,-115.305,-14.2875,178.638,2.13135,-144.185,324
1569936118,296.242,-115.305,-14.2875,178.638,2.15332,-144.185,324
1569936118,296.242,-115.305,-14.2875,178.638,2.15332,-144.185,324
1569936118,296.242,-115.305,-14.2875,178.638,2.15332,-144.185,324
1569936118,296.242,-115.305,-14.2875,178.638,2.15332,-144.185,324
1569936119,296.242,-115.305,-14.2875,178.638,2.15332,-144.185,324
1569936119,296.242,-115.305,-14.1759,178.638,2.15332,-144.185,324
1569936119,296.242,-115.305,-14.1759,178.638,2.15332,-144.185,324
1569936119,296.242,-115.305,-14.1759,178.638,2.15332,-144.185,324
1569936119,296.242,-115.305,-14.1759,178.638,2.15332,-144.185,324
1569936119,296.242,-115.305,-14.1759,178.638,2.15332,-144.185,324
1569936119,296.242,-115.305,-14.1759,178.638,2.15332,-144.185,324
1569936119,296.242,-115.305,-14.1759,178.638,2.15332,-144.185,324
1569936119,296.242,-115.305,-14.1759,178.638,2.15332,-144.185,320
1569936119,296.242,-115.305,-14.1759,178.638,2.17529,-144.185,320
1569936119,296.242,-115.305,-14.1759,178.638,2.17529,-144.185,320
1569936119,296.242,-115.305,-14.1759,178.638,2.17529,-144.185,320
1569936119,296.242,-115.305,-14.1759,178.638,2.17529,-144.185,320
1569936119,296.242,-115.305,-14.1759,178.638,2.17529,-144.185,320
1569936119,296.242,-115.305,-14.1759,178.638,2.17529,-144.185,320
1569936119,296.242,-115.305,-14.1759,178.638,2.17529,-144.185,320
1569936119,296.242,-115.305,-14.1759,178.638,2.17529,-144.185,316
1569936119,296.242,-115.305,-14.1759,178.638,2.17529,-144.185,316
1569936119,296.354,-115.305,-14.1759,178.638,2.17529,-144.185,316
1569936119,296.354,-115.305,-14.1759,178.638,2.17529,-144.185,316
1569936119,296.354,-115.305,-14.1759,178.638,2.17529,-144.185,316
1569936119,296.354,-115.305,-14.1759,178.638,2.17529,-144.185,316
1569936119,296.354,-115.305,-14.1759,178.638,2.17529,-144.185,316
1569936119,296.354,-115.305,-14.1759,178.638,2.17529,-144.185,316
1569936119,296.354,-115.305,-14.1759,178.638,2.17529,-144.185,316
1569936119,296.354,-115.305,-14.1759,178.638,2.17529,-144.185,316
1569936119,296.242,-115.305,-14.1759,178.638,2.17529,-144.185,316
1569936119,296.242,-115.305,-14.1759,178.638,2.15332,-144.185,316
1569936119,296.242,-115.305,-14.1759,178.638,2.15332,-144.185,316
1569936119,296.242,-115.305,-14.1759,178.638,2.15332,-144.185,316
1569936119,296.242,-115.305,-14.1759,178.638,2.15332,-144.185,316
1569936119,296.242,-115.305,-14.1759,178.66,2.15332,-144.185,316
1569936119,296.242,-115.305,-14.1759,178.638,2.15332,-144.185,316
1569936119,296.242,-115.305,-14.1759,178.638,2.15332,-144.185,316
1569936119,296.242,-115.305,-14.1759,178.638,2.15332,-144.185,320
1569936119,296.242,-115.305,-14.1759,178.638,2.15332,-144.185,320
1569936119,296.242,-115.305,-14.1759,178.638,2.15332,-144.185,320
1569936119,296.242,-115.305,-14.1759,178.638,2.15332,-144.185,320
1569936119,296.242,-115.305,-14.1759,178.638,2.15332,-144.185,320
1569936119,296.242,-115.305,-14.1759,178.638,2.15332,-144.185,320
1569936119,296.242,-115.305,-14.1759,178.638,2.15332,-144.185,320
1569936119,296.242,-115.305,-14.1759,178.638,2.15332,-144.185,320
1569936119,296.242,-115.305,-14.1759,178.638,2.15332,-144.185,320
1569936119,296.242,-115.305,-14.2875,178.638,2.15332,-144.185,320
1569936119,296.242,-115.305,-14.2875,178.638,2.15332,-144.185,320
1569936119,296.242,-115.305,-14.2875,178.638,2.15332,-144.185,320
1569936119,296.242,-115.305,-14.2875,178.638,2.15332,-144.185,320
1569936119,296.242,-115.305,-14.2875,178.638,2.15332,-144.185,320
1569936119,296.242,-115.305,-14.2875,178.638,2.15332,-144.185,320
1569936119,296.242,-115.305,-14.2875,178.638,2.15332,-144.185,320
1569936119,296.242,-115.305,-14.2875,178.638,2.15332,-144.185,320
1569936119,296.242,-115.305,-14.2875,178.638,2.15332,-144.185,320
1569936119,296.242,-115.305,-14.2875,178.638,2.15332,-144.185,316
1569936119,296.242,-115.305,-14.2875,178.638,2.15332,-144.185,316
1569936119,296.242,-115.305,-14.2875,178.638,2.15332,-144.185,316
1569936119,296.242,-115.305,-14.2875,178.638,2.15332,-144.185,316
1569936119,296.242,-115.305,-14.2875,178.638,2.15332,-144.185,316
1569936119,296.242,-115.305,-14.2875,178.638,2.15332,-144.185,316
1569936119,296.242,-115.305,-14.2875,178.638,2.15332,-144.185,316
1569936119,296.242,-115.305,-14.2875,178.638,2.15332,-144.185,316
1569936119,296.242,-115.305,-14.2875,178.638,2.15332,-144.185,316
1569936119,296.242,-115.305,-14.2875,178.638,2.15332,-144.185,316
1569936119,296.242,-115.305,-14.2875,178.638,2.15332,-144.185,316
1569936119,296.242,-115.305,-14.2875,178.638,2.15332,-144.185,316
1569936119,296.242,-115.305,-14.2875,178.66,2.15332,-144.185,316
1569936119,296.242,-115.305,-14.1759,178.66,2.15332,-144.185,316
1569936119,296.242,-115.305,-14.1759,178.66,2.15332,-144.185,316
1569936119,296.242,-115.305,-14.1759,178.66,2.15332,-144.185,316
1569936119,296.242,-115.305,-14.1759,178.66,2.15332,-144.185,316
1569936119,296.242,-115.305,-14.1759,178.66,2.15332,-144.185,316
1569936119,296.242,-115.305,-14.1759,178.66,2.15332,-144.185,316
1569936119,296.242,-115.305,-14.1759,178.66,2.15332,-144.185,316
1569936119,296.242,-115.305,-14.1759,178.66,2.15332,-144.185,316
1569936119,296.242,-115.305,-14.1759,178.638,2.15332,-144.185,320
1569936119,296.242,-115.305,-14.1759,178.638,2.15332,-144.185,320
1569936119,296.242,-115.305,-14.1759,178.638,2.15332,-144.185,320
1569936119,296.242,-115.305,-14.1759,178.638,2.15332,-144.185,320
1569936119,296.242,-115.305,-14.1759,178.638,2.15332,-144.185,320
1569936119,296.242,-115.305,-14.1759,178.638,2.15332,-144.185,320
1569936119,296.242,-115.305,-14.1759,178.638,2.15332,-144.185,320
1569936119,296.242,-115.305,-14.1759,178.638,2.15332,-144.185,320
1569936119,296.242,-115.305,-14.1759,178.638,2.15332,-144.185,324
1569936119,296.242,-115.305,-14.1759,178.638,2.15332,-144.185,324
1569936119,296.242,-115.305,-14.1759,178.638,2.15332,-144.185,324
1569936119,296.242,-115.305,-14.1759,178.638,2.15332,-144.185,324
1569936119,296.242,-115.305,-14.1759,178.638,2.15332,-144.185,324
1569936119,296.242,-115.305,-14.1759,178.638,2.15332,-144.185,324
1569936119,296.242,-115.305,-14.1759,178.638,2.15332,-144.185,324
1569936119,296.242,-115.305,-14.1759,178.638,2.15332,-144.185,328
1569936119,296.242,-115.305,-14.1759,178.638,2.15332,-144.185,328
1569936119,296.242,-115.305,-14.1759,178.638,2.15332,-144.185,328
1569936119,296.242,-115.305,-14.1759,178.638,2.15332,-144.185,328
1569936119,296.242,-115.305,-14.1759,178.638,2.15332,-144.185,328
1569936119,296.242,-115.305,-14.1759,178.638,2.15332,-144.185,328
1569936119,296.242,-115.305,-14.1759,178.638,2.15332,-144.185,332
1569936119,296.242,-115.305,-14.1759,178.638,2.15332,-144.185,332
1569936119,296.242,-115.305,-14.1759,178.638,2.15332,-144.185,332
1569936119,296.242,-115.305,-14.1759,178.638,2.15332,-144.185,332
1569936119,296.242,-115.305,-14.1759,178.638,2.15332,-144.185,332
1569936119,296.242,-115.305,-14.1759,178.638,2.15332,-144.185,332
1569936120,296.242,-115.305,-14.1759,178.638,2.15332,-144.185,332
1569936120,296.242,-115.305,-14.1759,178.638,2.15332,-144.185,336
1569936120,296.242,-115.305,-14.1759,178.638,2.15332,-144.185,336
1569936120,296.242,-115.305,-14.1759,178.638,2.15332,-144.185,336
1569936120,296.242,-115.305,-14.1759,178.638,2.15332,-144.185,336
1569936120,296.242,-115.305,-14.1759,178.638,2.15332,-144.185,336
1569936120,296.242,-115.305,-14.1759,178.66,2.15332,-144.185,336
1569936120,296.242,-115.305,-14.1759,178.66,2.15332,-144.185,336
1569936120,296.242,-115.305,-14.1759,178.66,2.15332,-144.185,336
1569936120,296.242,-115.305,-14.1759,178.66,2.15332,-144.185,336
1569936120,296.242,-115.305,-14.1759,178.66,2.15332,-144.185,336
1569936120,296.242,-115.305,-14.1759,178.66,2.15332,-144.185,336
1569936120,296.242,-115.305,-14.1759,178.66,2.15332,-144.185,336
1569936120,296.242,-115.305,-14.1759,178.66,2.15332,-144.185,336
1569936120,296.242,-115.305,-14.1759,178.66,2.15332,-144.185,336
1569936120,296.242,-115.305,-14.1759,178.66,2.15332,-144.185,336
1569936120,296.242,-115.305,-14.1759,178.66,2.15332,-144.185,332
1569936120,296.242,-115.305,-14.1759,178.66,2.17529,-144.185,332
1569936120,296.242,-115.305,-14.1759,178.66,2.17529,-144.185,332
1569936120,296.242,-115.305,-14.1759,178.66,2.17529,-144.185,332
1569936120,296.242,-115.305,-14.1759,178.66,2.17529,-144.185,332
1569936120,296.242,-115.305,-14.1759,178.66,2.17529,-144.185,332
1569936120,296.242,-115.305,-14.1759,178.638,2.15332,-144.185,328
1569936120,296.242,-115.305,-14.1759,178.638,2.15332,-144.185,328
1569936120,296.242,-115.305,-14.1759,178.638,2.15332,-144.185,328
1569936120,296.242,-115.305,-14.1759,178.638,2.15332,-144.185,328
1569936120,296.242,-115.305,-14.1759,178.638,2.15332,-144.185,328
1569936120,296.242,-115.305,-14.1759,178.638,2.15332,-144.185,328
1569936120,296.242,-115.305,-14.1759,178.638,2.15332,-144.185,328
1569936120,296.242,-115.305,-14.1759,178.638,2.15332,-144.185,328
1569936120,296.242,-115.305,-14.1759,178.638,2.15332,-144.185,328
1569936120,296.242,-115.305,-14.1759,178.638,2.15332,-144.185,328
1569936120,296.242,-115.305,-14.1759,178.638,2.15332,-144.185,328
1569936120,296.242,-115.305,-14.1759,178.638,2.15332,-144.185,328
1569936120,296.242,-115.305,-14.1759,178.638,2.15332,-144.185,328
1569936120,296.242,-115.305,-14.1759,178.638,2.15332,-144.185,328
1569936120,296.242,-115.305,-14.1759,178.638,2.15332,-144.185,328
1569936120,296.242,-115.305,-14.1759,178.638,2.17529,-144.185,328
1569936120,296.242,-115.305,-14.1759,178.638,2.17529,-144.185,328
1569936120,296.242,-115.305,-14.1759,178.638,2.17529,-144.185,328
1569936120,296.242,-115.305,-14.1759,178.638,2.17529,-144.185,328
1569936120,296.242,-115.305,-14.1759,178.66,2.17529,-144.185,328
1569936120,296.242,-115.305,-14.1759,178.66,2.17529,-144.185,328
1569936120,296.242,-115.305,-14.1759,178.66,2.17529,-144.185,328
1569936120,296.242,-115.305,-14.1759,178.66,2.17529,-144.185,328
1569936120,296.242,-115.305,-14.1759,178.66,2.15332,-144.185,328
1569936123,319.125,-140.754,-12.8364,178.44,2.76855,-144.163,364
1569936123,319.125,-140.754,-12.8364,178.44,2.76855,-144.163,364
1569936123,319.125,-140.754,-12.8364,178.44,2.76855,-144.163,364
1569936123,319.125,-140.754,-12.8364,178.44,2.76855,-144.163,360
1569936123,319.125,-140.754,-12.8364,178.44,2.76855,-144.163,360
1569936123,319.236,-140.754,-12.8364,178.44,2.76855,-144.163,360
1569936123,319.236,-140.754,-12.8364,178.44,2.76855,-144.163,360
1569936123,319.236,-140.754,-12.8364,178.44,2.76855,-144.163,360
1569936123,319.236,-140.754,-12.8364,178.44,2.76855,-144.163,360
1569936123,319.236,-140.754,-12.8364,178.44,2.76855,-144.163,360
1569936123,319.236,-140.754,-12.8364,178.44,2.76855,-144.163,356
1569936123,319.236,-140.754,-12.8364,178.44,2.76855,-144.163,356
1569936123,319.236,-140.754,-12.8364,178.44,2.76855,-144.163,356
1569936123,319.236,-140.754,-12.8364,178.44,2.76855,-144.163,356
1569936123,319.236,-140.754,-12.8364,178.44,2.76855,-144.163,356
1569936123,319.236,-140.754,-12.8364,178.44,2.76855,-144.163,356
1569936123,319.236,-140.754,-12.8364,178.44,2.76855,-144.163,360
1569936123,319.236,-140.754,-12.8364,178.418,2.76855,-144.163,360
1569936123,319.236,-140.754,-12.8364,178.418,2.76855,-144.163,360
1569936123,319.236,-140.754,-12.8364,178.418,2.76855,-144.163,360
1569936123,319.236,-140.754,-12.8364,178.418,2.76855,-144.163,360
1569936123,319.125,-140.754,-12.8364,178.418,2.76855,-144.163,360
1569936123,319.125,-140.754,-12.8364,178.418,2.76855,-144.163,364
1569936123,319.125,-140.754,-12.8364,178.418,2.76855,-144.163,364
1569936123,319.125,-140.754,-12.8364,178.418,2.76855,-144.163,364
1569936123,319.125,-140.754,-12.8364,178.418,2.76855,-144.163,364
1569936123,319.125,-140.754,-12.8364,178.418,2.76855,-144.163,368
1569936123,319.125,-140.754,-12.8364,178.418,2.76855,-144.163,368
1569936123,319.125,-140.754,-12.8364,178.418,2.76855,-144.163,368
1569936123,319.125,-140.754,-12.8364,178.418,2.76855,-144.163,368
1569936123,319.125,-140.754,-12.8364,178.418,2.76855,-144.163,372
1569936123,319.125,-140.754,-12.8364,178.418,2.76855,-144.163,372
1569936123,319.125,-140.754,-12.8364,178.418,2.76855,-144.163,372
1569936123,319.125,-140.754,-12.8364,178.418,2.76855,-144.163,372
1569936123,319.125,-140.754,-12.8364,178.418,2.76855,-144.163,372
1569936123,319.125,-140.754,-12.8364,178.418,2.76855,-144.163,372
1569936123,319.125,-140.754,-12.8364,178.418,2.76855,-144.163,372
1569936123,319.236,-140.754,-12.8364,178.418,2.76855,-144.163,372
1569936123,319.236,-140.754,-12.8364,178.418,2.76855,-144.163,372
1569936123,319.236,-140.754,-12.8364,178.418,2.76855,-144.163,372
1569936123,319.236,-140.754,-12.8364,178.418,2.76855,-144.163,368
1569936123,319.236,-140.754,-12.8364,178.418,2.76855,-144.163,368
1569936123,319.236,-140.754,-12.8364,178.418,2.76855,-144.163,368
1569936123,319.236,-140.754,-12.8364,178.418,2.76855,-144.163,368
1569936124,319.236,-140.754,-12.8364,178.418,2.76855,-144.163,368
1569936124,319.236,-140.754,-12.8364,178.418,2.76855,-144.163,364
1569936124,319.236,-140.754,-12.8364,178.418,2.76855,-144.163,364
1569936124,319.236,-140.754,-12.8364,178.418,2.76855,-144.163,364
1569936124,319.236,-140.754,-12.8364,178.44,2.76855,-144.163,364
1569936124,319.236,-140.754,-12.8364,178.44,2.76855,-144.163,360
1569936124,319.236,-140.754,-12.8364,178.44,2.76855,-144.163,360
1569936124,319.236,-140.754,-12.8364,178.44,2.76855,-144.163,360
1569936124,319.236,-140.754,-12.8364,178.44,2.76855,-144.163,360
1569936124,319.236,-140.754,-12.8364,178.44,2.76855,-144.163,360
1569936124,319.236,-140.754,-12.8364,178.44,2.76855,-144.163,360
1569936124,319.236,-140.754,-12.8364,178.44,2.76855,-144.163,360
1569936124,319.236,-140.754,-12.8364,178.44,2.76855,-144.163,360
1569936124,319.125,-140.754,-12.8364,178.44,2.76855,-144.163,360
1569936124,319.125,-140.754,-12.8364,178.44,2.76855,-144.163,360
1569936124,319.125,-140.754,-12.8364,178.44,2.76855,-144.163,360
1569936124,319.125,-140.754,-12.8364,178.44,2.76855,-144.163,360
1569936124,319.125,-140.754,-12.8364,178.418,2.76855,-144.163,360
1569936124,319.125,-140.754,-12.8364,178.418,2.76855,-144.163,364
1569936124,319.125,-140.754,-12.8364,178.418,2.76855,-144.163,364
1569936124,319.125,-140.754,-12.8364,178.418,2.76855,-144.163,364
1569936124,319.125,-140.754,-12.8364,178.418,2.76855,-144.163,364
1569936124,319.125,-140.754,-12.8364,178.418,2.76855,-144.163,364
1569936124,319.125,-140.754,-12.8364,178.418,2.76855,-144.163,364
1569936124,319.125,-140.754,-12.8364,178.418,2.76855,-144.163,364
1569936124,319.125,-140.754,-12.8364,178.44,2.76855,-144.185,368
1569936124,319.125,-140.754,-12.8364,178.44,2.76855,-144.185,368
1569936124,319.125,-140.754,-12.8364,178.44,2.76855,-144.185,368
1569936124,319.125,-140.754,-12.8364,178.44,2.76855,-144.185,368
1569936124,319.125,-140.643,-12.8364,178.44,2.76855,-144.185,368
1569936124,319.125,-140.643,-12.8364,178.44,2.76855,-144.185,368
1569936124,319.125,-140.643,-12.8364,178.44,2.76855,-144.185,368
1569936124,319.125,-140.643,-12.8364,178.44,2.76855,-144.185,368
1569936124,319.125,-140.643,-12.8364,178.44,2.76855,-144.185,368
1569936124,319.125,-140.643,-12.8364,178.44,2.76855,-144.185,368
1569936124,319.125,-140.643,-12.8364,178.44,2.76855,-144.185,368
1569936124,319.125,-140.643,-12.8364,178.44,2.76855,-144.185,368
1569936124,319.125,-140.643,-12.8364,178.44,2.76855,-144.185,368
1569936124,319.236,-140.643,-12.8364,178.44,2.76855,-144.185,368
1569936124,319.125,-140.643,-12.8364,178.44,2.76855,-144.185,368
1569936124,319.125,-140.643,-12.8364,178.44,2.76855,-144.185,368
1569936124,319.125,-140.643,-12.8364,178.44,2.76855,-144.185,368
1569936124,319.125,-140.643,-12.8364,178.44,2.76855,-144.185,368
1569936124,319.236,-140.643,-12.8364,178.44,2.74658,-144.185,368
1569936124,319.236,-140.643,-12.8364,178.462,2.74658,-144.185,368
1569936124,319.236,-140.643,-12.8364,178.462,2.74658,-144.185,368
1569936124,319.236,-140.643,-12.8364,178.462,2.74658,-144.185,368
1569936124,319.236,-140.643,-12.8364,178.462,2.74658,-144.185,368
1569936124,319.236,-140.643,-12.8364,178.462,2.74658,-144.185,368
1569936124,319.236,-140.643,-12.8364,178.462,2.74658,-144.185,368
1569936124,319.236,-140.643,-12.8364,178.462,2.74658,-144.185,368
1569936124,319.236,-140.643,-12.8364,178.462,2.74658,-144.185,368
1569936124,319.236,-140.643,-12.8364,178.462,2.76855,-144.185,372
1569936124,319.125,-140.643,-12.8364,178.462,2.76855,-144.185,372
1569936124,319.125,-140.643,-12.8364,178.462,2.76855,-144.185,372
1569936124,319.125,-140.643,-12.8364,178.462,2.76855,-144.185,372
1569936124,319.125,-140.643,-12.8364,178.462,2.76855,-144.185,372
1569936124,319.125,-140.643,-12.8364,178.462,2.76855,-144.185,372
1569936124,319.125,-140.643,-12.8364,178.462,2.76855,-144.185,372
1569936124,319.125,-140.643,-12.8364,178.462,2.76855,-144.185,372
1569936124,319.125,-140.643,-12.8364,178.462,2.76855,-144.185,372
1569936124,319.125,-140.643,-12.8364,178.462,2.74658,-144.185,372
1569936124,319.125,-140.643,-12.8364,178.462,2.74658,-144.185,372
1569936124,319.125,-140.643,-12.8364,178.462,2.74658,-144.185,376
1569936124,319.125,-140.643,-12.8364,178.462,2.74658,-144.185,376
1569936124,319.125,-140.643,-12.8364,178.462,2.74658,-144.185,376
1569936124,319.125,-140.643,-12.8364,178.462,2.74658,-144.185,376
1569936124,319.125,-140.643,-12.8364,178.462,2.74658,-144.185,376
1569936124,319.125,-140.643,-12.8364,178.462,2.74658,-144.185,376
1569936124,319.236,-140.643,-12.8364,178.462,2.74658,-144.185,376
1569936124,319.236,-140.643,-12.8364,178.462,2.74658,-144.185,376
1569936124,319.236,-140.643,-12.8364,178.462,2.74658,-144.185,376
1569936124,319.236,-140.643,-12.8364,178.462,2.74658,-144.185,376
1569936124,319.236,-140.643,-12.8364,178.462,2.74658,-144.185,376
1569936124,319.236,-140.643,-12.8364,178.462,2.74658,-144.185,376
1569936124,319.236,-140.643,-12.8364,178.462,2.76855,-144.185,376
1569936124,319.236,-140.643,-12.8364,178.462,2.76855,-144.185,376
1569936124,319.236,-140.643,-12.8364,178.462,2.76855,-144.185,376
1569936124,319.236,-140.643,-12.8364,178.462,2.76855,-144.185,376
1569936124,319.236,-140.643,-12.8364,178.462,2.76855,-144.185,380
1569936124,319.236,-140.643,-12.8364,178.462,2.76855,-144.185,380
1569936124,319.236,-140.643,-12.8364,178.462,2.76855,-144.185,380
1569936124,319.236,-140.643,-12.8364,178.462,2.76855,-144.185,380
1569936124,319.236,-140.643,-12.8364,178.462,2.76855,-144.185,380
1569936124,319.236,-140.643,-12.8364,178.462,2.76855,-144.185,380
1569936124,319.236,-140.643,-12.8364,178.462,2.76855,-144.185,380
1569936124,319.125,-140.643,-12.8364,178.462,2.76855,-144.185,380
1569936124,319.125,-140.643,-12.8364,178.462,2.76855,-144.185,380
1569936124,319.125,-140.643,-12.8364,178.44,2.76855,-144.185,380
1569936124,319.125,-140.643,-12.8364,178.44,2.76855,-144.185,384
1569936124,319.125,-140.643,-12.8364,178.44,2.76855,-144.185,384
1569936124,319.125,-140.643,-12.8364,178.44,2.76855,-144.185,384
1569936124,319.125,-140.643,-12.8364,178.44,2.76855,-144.185,384
1569936124,319.125,-140.643,-12.8364,178.44,2.76855,-144.185,384
1569936124,319.125,-140.643,-12.8364,178.44,2.76855,-144.185,384
1569936124,319.125,-140.754,-12.8364,178.44,2.76855,-144.185,384
1569936124,319.125,-140.754,-12.8364,178.44,2.76855,-144.185,384
1569936124,319.125,-140.754,-12.8364,178.44,2.76855,-144.185,384
1569936124,319.125,-140.754,-12.8364,178.44,2.76855,-144.185,384
1569936124,319.125,-140.754,-12.8364,178.44,2.76855,-144.185,384
1569936125,319.125,-140.754,-12.8364,178.44,2.76855,-144.185,384
1569936125,319.125,-140.754,-12.8364,178.44,2.76855,-144.185,384
1569936125,319.125,-140.754,-12.8364,178.44,2.76855,-144.185,380
1569936125,319.125,-140.754,-12.8364,178.44,2.76855,-144.185,380
1569936125,319.125,-140.754,-12.8364,178.44,2.76855,-144.185,380
1569936125,319.125,-140.754,-12.8364,178.44,2.79053,-144.185,380
1569936125,319.125,-140.754,-12.8364,178.44,2.79053,-144.185,380
1569936125,319.125,-140.754,-12.8364,178.44,2.79053,-144.185,380
1569936125,319.125,-140.754,-12.8364,178.44,2.79053,-144.185,380
1569936125,319.125,-140.754,-12.8364,178.44,2.79053,-144.185,380
1569936125,319.125,-140.754,-12.8364,178.44,2.79053,-144.185,380
1569936125,319.125,-140.754,-12.8364,178.44,2.79053,-144.185,376
1569936125,319.125,-140.754,-12.8364,178.418,2.79053,-144.185,376
1569936125,319.125,-140.754,-12.8364,178.44,2.79053,-144.185,376
1569936125,319.125,-140.754,-12.7248,178.44,2.79053,-144.185,376
1569936125,319.125,-140.754,-12.7248,178.44,2.79053,-144.185,376
1569936125,319.236,-140.754,-12.7248,178.44,2.79053,-144.185,376
1569936125,319.236,-140.754,-12.7248,178.44,2.79053,-144.185,372
1569936125,319.236,-140.754,-12.7248,178.44,2.79053,-144.185,372
1569936125,319.236,-140.754,-12.7248,178.44,2.79053,-144.185,372
1569936125,319.236,-140.754,-12.7248,178.44,2.79053,-144.185,368
1569936125,319.236,-140.754,-12.7248,178.44,2.79053,-144.185,368
1569936125,319.236,-140.754,-12.7248,178.44,2.79053,-144.185,368
1569936125,319.236,-140.754,-12.7248,178.44,2.79053,-144.185,368
1569936125,319.236,-140.754,-12.7248,178.44,2.79053,-144.185,364
1569936125,319.236,-140.754,-12.8364,178.44,2.79053,-144.185,364
1569936125,319.236,-140.754,-12.8364,178.44,2.79053,-144.185,364
1569936125,319.236,-140.754,-12.8364,178.44,2.79053,-144.185,364
1569936125,319.236,-140.754,-12.8364,178.44,2.79053,-144.185,364
1569936125,319.236,-140.754,-12.8364,178.44,2.76855,-144.185,364
1569936125,319.236,-140.754,-12.8364,178.44,2.76855,-144.185,364
1569936125,319.236,-140.754,-12.8364,178.44,2.76855,-144.163,364
1569936125,319.236,-140.754,-12.8364,178.44,2.76855,-144.163,364
1569936125,319.236,-140.754,-12.8364,178.44,2.76855,-144.163,364
1569936125,319.236,-140.754,-12.8364,178.44,2.76855,-144.163,364
1569936125,319.236,-140.754,-12.8364,178.44,2.76855,-144.163,364
1569936125,319.236,-140.754,-12.8364,178.44,2.76855,-144.163,364
1569936125,319.236,-140.754,-12.8364,178.462,2.76855,-144.163,364
1569936125,319.236,-140.754,-12.8364,178.462,2.76855,-144.163,364
1569936125,319.236,-140.754,-12.8364,178.462,2.76855,-144.163,364
1569936125,319.236,-140.754,-12.8364,178.462,2.76855,-144.163,364
1569936125,319.236,-140.754,-12.8364,178.462,2.76855,-144.163,364
1569936125,319.236,-140.754,-12.8364,178.462,2.76855,-144.163,364
1569936125,319.236,-140.754,-12.8364,178.462,2.79053,-144.163,364
1569936125,319.236,-140.754,-12.8364,178.462,2.79053,-144.163,364
1569936125,319.236,-140.754,-12.8364,178.462,2.79053,-144.163,364
1569936125,319.236,-140.754,-12.8364,178.462,2.79053,-144.163,364
1569936125,319.236,-140.754,-12.8364,178.462,2.79053,-144.163,364
1569936125,319.236,-140.754,-12.8364,178.44,2.79053,-144.163,364
1569936125,319.236,-140.754,-12.8364,178.44,2.79053,-144.163,364
1569936125,319.236,-140.754,-12.8364,178.44,2.79053,-144.163,368
1569936125,319.236,-140.754,-12.8364,178.44,2.79053,-144.163,364
1569936125,319.236,-140.754,-12.8364,178.44,2.79053,-144.163,364
1569936125,319.236,-140.754,-12.8364,178.44,2.79053,-144.163,364
1569936125,319.236,-140.754,-12.8364,178.44,2.79053,-144.163,364
1569936125,319.236,-140.754,-12.8364,178.44,2.76855,-144.163,364
1569936125,319.236,-140.754,-12.8364,178.44,2.79053,-144.163,364
1569936125,319.236,-140.754,-12.8364,178.44,2.79053,-144.141,364
1569936125,319.236,-140.754,-12.7248,178.44,2.79053,-144.141,364
1569936125,319.236,-140.754,-12.7248,178.44,2.79053,-144.141,364
1569936125,319.236,-140.754,-12.7248,178.44,2.79053,-144.141,364
1569936125,319.236,-140.754,-12.7248,178.44,2.79053,-144.141,360
1569936125,319.236,-140.754,-12.7248,178.44,2.79053,-144.141,360
1569936125,319.236,-140.754,-12.8364,178.44,2.79053,-144.141,360
1569936125,319.236,-140.754,-12.8364,178.44,2.76855,-144.141,360
1569936125,319.236,-140.754,-12.8364,178.44,2.76855,-144.141,364
1569936125,319.236,-140.754,-12.8364,178.44,2.76855,-144.141,364
1569936125,319.236,-140.754,-12.8364,178.44,2.76855,-144.163,364
1569936125,319.236,-140.754,-12.8364,178.44,2.76855,-144.163,364
1569936125,319.236,-140.754,-12.8364,178.44,2.76855,-144.163,364
1569936125,319.236,-140.754,-12.8364,178.44,2.76855,-144.163,364
1569936125,319.236,-140.754,-12.8364,178.44,2.76855,-144.163,364
1569936125,319.236,-140.754,-12.8364,178.44,2.76855,-144.163,364
1569936125,319.236,-140.754,-12.8364,178.44,2.76855,-144.163,364
1569936125,319.236,-140.754,-12.8364,178.44,2.76855,-144.163,364
1569936125,319.236,-140.643,-12.8364,178.44,2.76855,-144.163,364
1569936125,319.236,-140.643,-12.8364,178.44,2.76855,-144.163,364
1569936125,319.236,-140.643,-12.8364,178.44,2.76855,-144.163,364
1569936125,319.236,-140.643,-12.8364,178.44,2.76855,-144.163,364
1569936125,319.236,-140.643,-12.8364,178.44,2.76855,-144.163,364
1569936125,319.236,-140.643,-12.8364,178.44,2.76855,-144.163,364
1569936125,319.236,-140.643,-12.8364,178.44,2.76855,-144.163,364
1569936125,319.236,-140.643,-12.8364,178.44,2.76855,-144.163,364
1569936125,319.236,-140.643,-12.8364,178.44,2.76855,-144.163,364
1569936125,319.236,-140.643,-12.8364,178.44,2.76855,-144.163,364
1569936125,319.236,-140.643,-12.8364,178.44,2.74658,-144.163,364
1569936125,319.236,-140.754,-12.8364,178.44,2.74658,-144.163,364
1569936125,319.236,-140.643,-12.8364,178.44,2.74658,-144.163,364
1569936125,319.236,-140.643,-12.8364,178.44,2.74658,-144.163,364
1569936125,319.236,-140.643,-12.8364,178.44,2.74658,-144.163,364
1569936125,319.236,-140.643,-12.8364,178.44,2.74658,-144.163,364
1569936125,319.236,-140.643,-12.8364,178.44,2.74658,-144.163,364
1569936125,319.236,-140.643,-12.8364,178.44,2.74658,-144.163,364
1569936125,319.236,-140.754,-12.8364,178.44,2.74658,-144.163,364
1569936125,319.236,-140.754,-12.8364,178.44,2.74658,-144.163,364
1569936125,319.236,-140.754,-12.8364,178.44,2.74658,-144.163,364
1569936125,319.236,-140.754,-12.8364,178.44,2.76855,-144.163,364
1569936125,319.236,-140.754,-12.8364,178.44,2.76855,-144.163,364
1569936125,319.236,-140.754,-12.8364,178.44,2.76855,-144.163,364
1569936125,319.236,-140.754,-12.8364,178.44,2.74658,-144.163,364
1569936126,319.236,-140.754,-12.8364,178.44,2.74658,-144.163,364
1569936126,319.236,-140.754,-12.8364,178.44,2.74658,-144.163,364
1569936126,319.236,-140.754,-12.8364,178.44,2.74658,-144.163,364
1569936126,319.236,-140.754,-12.8364,178.44,2.74658,-144.163,364
1569936126,319.236,-140.754,-12.8364,178.44,2.74658,-144.163,364
1569936126,319.236,-140.754,-12.8364,178.44,2.74658,-144.163,364
1569936126,319.236,-140.754,-12.8364,178.44,2.74658,-144.163,364
1569936126,319.236,-140.754,-12.8364,178.44,2.74658,-144.163,364
1569936126,319.236,-140.754,-12.8364,178.44,2.74658,-144.163,364
1569936126,319.236,-140.754,-12.8364,178.44,2.74658,-144.163,364
1569936126,319.236,-140.754,-12.8364,178.44,2.76855,-144.163,364
1569936126,319.236,-140.754,-12.8364,178.44,2.76855,-144.163,364
1569936126,319.236,-140.754,-12.8364,178.44,2.76855,-144.163,364
1569936126,319.236,-140.754,-12.8364,178.44,2.76855,-144.163,364
1569936126,319.236,-140.754,-12.8364,178.44,2.76855,-144.163,364
1569936126,319.236,-140.754,-12.8364,178.44,2.76855,-144.163,364
1569936126,319.236,-140.754,-12.8364,178.44,2.76855,-144.163,364
1569936126,319.236,-140.754,-12.8364,178.44,2.76855,-144.163,364
1569936126,319.236,-140.754,-12.8364,178.44,2.76855,-144.163,364
1569936126,319.236,-140.754,-12.8364,178.44,2.76855,-144.163,364
1569936126,319.236,-140.754,-12.8364,178.44,2.79053,-144.163,364
1569936126,319.236,-140.754,-12.8364,178.44,2.79053,-144.163,364
1569936126,319.236,-140.754,-12.8364,178.44,2.79053,-144.163,364
1569936126,319.236,-140.754,-12.8364,178.44,2.79053,-144.163,364
1569936126,319.236,-140.754,-12.8364,178.44,2.79053,-144.163,364
1569936126,319.236,-140.754,-12.8364,178.44,2.79053,-144.163,364
1569936126,319.236,-140.754,-12.8364,178.44,2.79053,-144.163,364
1569936126,319.236,-140.754,-12.8364,178.44,2.79053,-144.163,364
1569936126,319.236,-140.754,-12.8364,178.44,2.79053,-144.163,364
1569936126,319.236,-140.754,-12.8364,178.44,2.76855,-144.163,364
1569936126,319.236,-140.754,-12.8364,178.44,2.76855,-144.163,364
1569936126,319.236,-140.754,-12.8364,178.44,2.76855,-144.163,364
1569936126,319.236,-140.754,-12.8364,178.44,2.76855,-144.163,364
1569936126,319.236,-140.643,-12.8364,178.44,2.76855,-144.163,364
1569936126,319.236,-140.754,-12.8364,178.44,2.76855,-144.163,364
1569936126,319.125,-140.754,-12.8364,178.44,2.76855,-144.163,364
1569936126,319.125,-140.754,-12.8364,178.44,2.76855,-144.163,364
1569936126,319.125,-140.754,-12.8364,178.44,2.74658,-144.163,364
1569936126,319.125,-140.754,-12.8364,178.44,2.74658,-144.163,364
1569936126,319.125,-140.754,-12.8364,178.44,2.74658,-144.163,364
1569936126,319.125,-140.754,-12.8364,178.44,2.74658,-144.163,364
1569936126,319.125,-140.754,-12.8364,178.418,2.74658,-144.163,368
1569936126,319.125,-140.754,-12.8364,178.418,2.74658,-144.163,368
1569936126,319.125,-140.754,-12.8364,178.418,2.74658,-144.163,368
1569936126,319.125,-140.754,-12.8364,178.418,2.74658,-144.163,368
1569936126,319.125,-140.754,-12.8364,178.418,2.76855,-144.163,368
1569936126,319.125,-140.754,-12.8364,178.418,2.76855,-144.163,368
1569936126,319.125,-140.754,-12.8364,178.418,2.76855,-144.163,368
1569936126,319.125,-140.754,-12.8364,178.418,2.76855,-144.163,368
1569936126,319.125,-140.754,-12.8364,178.418,2.76855,-144.163,368
1569936126,319.236,-140.754,-12.8364,178.418,2.76855,-144.163,368
1569936126,319.236,-140.754,-12.8364,178.44,2.76855,-144.163,368
1569936126,319.236,-140.754,-12.8364,178.44,2.76855,-144.163,368
1569936126,319.236,-140.754,-12.8364,178.44,2.76855,-144.163,368
1569936126,319.236,-140.754,-12.8364,178.44,2.74658,-144.163,368
1569936126,319.236,-140.754,-12.8364,178.44,2.74658,-144.163,368
1569936126,319.236,-140.754,-12.8364,178.44,2.74658,-144.163,372
1569936126,319.236,-140.754,-12.8364,178.44,2.74658,-144.163,372
1569936126,319.236,-140.754,-12.8364,178.44,2.74658,-144.163,372
1569936126,319.236,-140.754,-12.8364,178.44,2.74658,-144.163,372
1569936126,319.236,-140.754,-12.8364,178.44,2.74658,-144.163,372
1569936126,319.236,-140.754,-12.8364,178.44,2.74658,-144.163,372
1569936126,319.236,-140.754,-12.8364,178.44,2.74658,-144.163,372
1569936126,319.236,-140.754,-12.8364,178.44,2.74658,-144.163,372
1569936126,319.236,-140.754,-12.8364,178.44,2.74658,-144.163,372
1569936126,319.236,-140.754,-12.8364,178.44,2.74658,-144.163,372
1569936126,319.236,-140.754,-12.8364,178.44,2.74658,-144.163,372
1569936126,319.236,-140.754,-12.8364,178.44,2.74658,-144.163,372
1569936126,319.236,-140.754,-12.8364,178.44,2.74658,-144.163,372
1569936126,319.236,-140.754,-12.8364,178.44,2.74658,-144.163,372
1569936126,319.236,-140.754,-12.8364,178.44,2.74658,-144.163,372
1569936126,319.236,-140.754,-12.8364,178.44,2.74658,-144.163,372
1569936126,319.236,-140.754,-12.8364,178.44,2.74658,-144.163,372
1569936126,319.236,-140.754,-12.8364,178.44,2.74658,-144.163,372
1569936126,319.236,-140.754,-12.8364,178.44,2.74658,-144.163,372
1569936126,319.236,-140.754,-12.8364,178.44,2.74658,-144.163,368
1569936126,319.236,-140.754,-12.8364,178.44,2.74658,-144.163,368
1569936126,319.236,-140.754,-12.8364,178.44,2.74658,-144.163,368
1569936126,319.236,-140.754,-12.8364,178.44,2.74658,-144.163,368
1569936126,319.236,-140.754,-12.8364,178.44,2.74658,-144.163,368
1569936126,319.236,-140.754,-12.8364,178.44,2.74658,-144.163,368
1569936126,319.236,-140.754,-12.8364,178.44,2.74658,-144.163,368
1569936126,319.236,-140.754,-12.8364,178.44,2.74658,-144.163,368
1569936126,319.236,-140.754,-12.8364,178.44,2.74658,-144.163,368
1569936126,319.236,-140.754,-12.8364,178.44,2.76855,-144.163,368
1569936126,319.236,-140.754,-12.8364,178.44,2.76855,-144.163,368
1569936126,319.236,-140.643,-12.8364,178.462,2.76855,-144.163,364
1569936126,319.236,-140.643,-12.8364,178.462,2.76855,-144.163,364
1569936126,319.236,-140.643,-12.8364,178.462,2.76855,-144.163,364
1569936126,319.236,-140.643,-12.8364,178.462,2.76855,-144.185,364
1569936126,319.236,-140.643,-12.8364,178.462,2.76855,-144.185,364
1569936126,319.236,-140.643,-12.8364,178.462,2.76855,-144.185,364
1569936126,319.236,-140.643,-12.8364,178.462,2.76855,-144.185,364
1569936126,319.236,-140.643,-12.8364,178.462,2.76855,-144.185,368
1569936126,319.236,-140.754,-12.8364,178.462,2.76855,-144.185,368
1569936126,319.236,-140.754,-12.8364,178.44,2.76855,-144.185,368
1569936126,319.236,-140.754,-12.8364,178.44,2.76855,-144.163,368
1569936126,319.236,-140.754,-12.8364,178.44,2.76855,-144.163,368
1569936126,319.236,-140.754,-12.8364,178.44,2.76855,-144.163,368
1569936126,319.236,-140.754,-12.8364,178.44,2.76855,-144.163,368
1569936127,319.236,-140.754,-12.8364,178.44,2.76855,-144.163,368
1569936127,319.236,-140.754,-12.8364,178.44,2.76855,-144.163,368
1569936127,319.236,-140.754,-12.8364,178.44,2.76855,-144.163,368
1569936127,319.236,-140.754,-12.8364,178.44,2.76855,-144.163,368
1569936127,319.236,-140.754,-12.8364,178.44,2.76855,-144.163,368
1569936127,319.236,-140.754,-12.8364,178.44,2.76855,-144.163,368
1569936127,319.236,-140.754,-12.8364,178.44,2.76855,-144.163,368
1569936127,319.236,-140.754,-12.8364,178.44,2.76855,-144.163,368
1569936127,319.236,-140.754,-12.8364,178.462,2.76855,-144.163,368
1569936127,319.236,-140.754,-12.8364,178.462,2.79053,-144.163,368
1569936127,319.236,-140.754,-12.8364,178.462,2.79053,-144.163,368
1569936127,319.236,-140.643,-12.8364,178.462,2.79053,-144.163,368
1569936127,319.236,-140.643,-12.8364,178.462,2.79053,-144.163,368
1569936127,319.236,-140.643,-12.8364,178.462,2.79053,-144.163,368
1569936127,319.236,-140.643,-12.8364,178.462,2.76855,-144.163,368
1569936127,319.236,-140.643,-12.8364,178.462,2.76855,-144.163,364
1569936127,319.236,-140.643,-12.8364,178.462,2.76855,-144.163,364
1569936127,319.236,-140.643,-12.8364,178.462,2.76855,-144.163,364
1569936127,319.236,-140.643,-12.8364,178.462,2.76855,-144.163,364
1569936127,319.236,-140.643,-12.8364,178.462,2.76855,-144.163,364
1569936127,319.236,-140.643,-12.8364,178.462,2.76855,-144.163,364
1569936127,319.236,-140.643,-12.8364,178.462,2.76855,-144.163,364
1569936127,319.236,-140.643,-12.8364,178.462,2.76855,-144.163,364
1569936127,319.236,-140.643,-12.8364,178.462,2.76855,-144.163,364
1569936127,319.236,-140.643,-12.8364,178.462,2.76855,-144.163,364
1569936127,319.236,-140.643,-12.8364,178.462,2.76855,-144.163,364
1569936127,319.236,-140.643,-12.8364,178.462,2.76855,-144.163,364
1569936127,319.236,-140.643,-12.8364,178.462,2.76855,-144.163,364
1569936127,319.236,-140.643,-12.8364,178.462,2.76855,-144.163,364
1569936127,319.236,-140.643,-12.8364,178.462,2.76855,-144.163,364
1569936127,319.236,-140.643,-12.8364,178.462,2.76855,-144.163,364
1569936127,319.236,-140.643,-12.8364,178.44,2.76855,-144.163,364
1569936127,319.236,-140.643,-12.8364,178.44,2.76855,-144.163,364
1569936127,319.236,-140.643,-12.8364,178.44,2.76855,-144.163,364
1569936127,319.236,-140.643,-12.8364,178.44,2.76855,-144.163,364
1569936127,319.236,-140.643,-12.8364,178.44,2.76855,-144.163,364
1569936127,319.236,-140.643,-12.8364,178.44,2.76855,-144.163,364
1569936127,319.236,-140.643,-12.8364,178.44,2.76855,-144.163,364
1569936127,319.236,-140.643,-12.8364,178.44,2.76855,-144.163,364
1569936127,319.236,-140.643,-12.8364,178.44,2.76855,-144.163,364
1569936127,319.236,-140.643,-12.8364,178.44,2.76855,-144.163,364
1569936127,319.236,-140.643,-12.8364,178.44,2.76855,-144.163,368
1569936127,319.236,-140.643,-12.8364,178.44,2.76855,-144.163,368
1569936127,319.236,-140.643,-12.8364,178.44,2.76855,-144.163,368
1569936127,319.236,-140.754,-12.8364,178.44,2.76855,-144.163,368
1569936127,319.236,-140.754,-12.8364,178.44,2.76855,-144.163,368
1569936127,319.236,-140.754,-12.8364,178.44,2.76855,-144.163,368
1569936127,319.236,-140.754,-12.8364,178.44,2.76855,-144.163,368
1569936127,319.236,-140.754,-12.8364,178.44,2.76855,-144.163,368
1569936127,319.236,-140.754,-12.8364,178.44,2.76855,-144.163,368
1569936127,319.236,-140.643,-12.8364,178.44,2.76855,-144.163,364
1569936127,319.236,-140.643,-12.8364,178.44,2.76855,-144.163,364
1569936127,319.236,-140.643,-12.8364,178.44,2.76855,-144.163,364
1569936127,319.236,-140.643,-12.8364,178.462,2.76855,-144.185,364
1569936127,319.236,-140.643,-12.8364,178.462,2.76855,-144.185,364
1569936127,319.236,-140.643,-12.8364,178.462,2.76855,-144.185,364
1569936127,319.236,-140.643,-12.8364,178.462,2.76855,-144.185,364
1569936127,319.236,-140.643,-12.8364,178.462,2.76855,-144.185,364
1569936127,319.236,-140.643,-12.8364,178.462,2.76855,-144.185,364
1569936127,319.236,-140.643,-12.8364,178.462,2.76855,-144.185,364
1569936127,319.236,-140.643,-12.8364,178.462,2.76855,-144.185,364
1569936127,319.236,-140.643,-12.8364,178.462,2.76855,-144.185,364
1569936127,319.236,-140.643,-12.8364,178.462,2.76855,-144.185,364
1569936127,319.236,-140.643,-12.8364,178.462,2.76855,-144.185,364
1569936127,319.236,-140.643,-12.8364,178.462,2.76855,-144.185,364
1569936127,319.236,-140.643,-12.8364,178.462,2.76855,-144.185,364
1569936127,319.236,-140.643,-12.8364,178.462,2.76855,-144.185,364
1569936127,319.236,-140.643,-12.8364,178.462,2.76855,-144.185,364
1569936127,319.125,-140.643,-12.8364,178.462,2.76855,-144.185,364
1569936127,319.125,-140.643,-12.8364,178.462,2.76855,-144.185,364
1569936127,319.125,-140.643,-12.8364,178.462,2.76855,-144.185,364
1569936127,319.125,-140.643,-12.8364,178.462,2.76855,-144.185,364
1569936127,319.125,-140.643,-12.8364,178.462,2.76855,-144.185,364
1569936127,319.125,-140.643,-12.8364,178.462,2.76855,-144.185,364
1569936127,319.236,-140.643,-12.8364,178.462,2.76855,-144.185,364
1569936127,319.236,-140.643,-12.8364,178.462,2.76855,-144.185,364
1569936127,319.236,-140.643,-12.8364,178.462,2.76855,-144.185,368
1569936127,319.236,-140.643,-12.8364,178.462,2.76855,-144.185,368
1569936127,319.236,-140.643,-12.8364,178.462,2.76855,-144.185,364
1569936127,319.236,-140.643,-12.8364,178.462,2.76855,-144.185,364
1569936127,319.236,-140.643,-12.8364,178.462,2.76855,-144.185,364
1569936127,319.236,-140.643,-12.8364,178.462,2.76855,-144.185,364
1569936127,319.236,-140.643,-12.8364,178.462,2.76855,-144.185,364
1569936127,319.236,-140.643,-12.8364,178.462,2.76855,-144.185,364
1569936127,319.236,-140.643,-12.8364,178.462,2.76855,-144.185,364
1569936127,319.236,-140.643,-12.8364,178.462,2.76855,-144.185,364
1569936127,319.236,-140.643,-12.948,178.484,2.76855,-144.185,364
1569936127,319.236,-140.643,-12.948,178.484,2.76855,-144.185,368
1569936127,319.236,-140.643,-12.948,178.462,2.76855,-144.185,368
1569936127,319.236,-140.643,-12.948,178.462,2.76855,-144.185,368
1569936127,319.236,-140.643,-12.948,178.462,2.76855,-144.185,368
1569936127,319.236,-140.643,-12.948,178.462,2.76855,-144.185,368
1569936127,319.236,-140.643,-12.948,178.462,2.76855,-144.185,372
1569936127,319.236,-140.643,-12.948,178.462,2.76855,-144.185,372
1569936127,319.236,-140.643,-12.948,178.462,2.76855,-144.185,372
1569936127,319.236,-140.643,-12.8364,178.462,2.76855,-144.185,372
1569936127,319.236,-140.643,-12.8364,178.462,2.76855,-144.185,376
1569936127,319.236,-140.643,-12.8364,178.462,2.76855,-144.185,376
1569936127,319.236,-140.643,-12.8364,178.462,2.76855,-144.185,376
1569936127,319.236,-140.643,-12.8364,178.462,2.76855,-144.185,376
1569936128,319.236,-140.643,-12.8364,178.462,2.76855,-144.185,376
1569936128,319.236,-140.643,-12.8364,178.462,2.76855,-144.185,376
1569936128,319.236,-140.643,-12.8364,178.462,2.76855,-144.185,376
1569936128,319.236,-140.643,-12.8364,178.462,2.76855,-144.185,376
1569936128,319.236,-140.643,-12.8364,178.462,2.76855,-144.185,376
1569936128,319.236,-140.643,-12.8364,178.462,2.76855,-144.185,376
1569936128,319.236,-140.643,-12.8364,178.462,2.76855,-144.185,376
1569936128,319.236,-140.643,-12.8364,178.462,2.76855,-144.185,376
1569936128,319.236,-140.643,-12.8364,178.462,2.76855,-144.185,376
1569936128,319.236,-140.643,-12.8364,178.462,2.76855,-144.185,376
1569936128,319.236,-140.643,-12.8364,178.462,2.76855,-144.185,376
1569936128,319.236,-140.643,-12.8364,178.462,2.76855,-144.163,376
1569936128,319.236,-140.643,-12.8364,178.462,2.76855,-144.163,376
1569936128,319.236,-140.643,-12.8364,178.462,2.76855,-144.163,376
1569936128,319.236,-140.643,-12.8364,178.462,2.76855,-144.163,376
1569936128,319.236,-140.643,-12.8364,178.462,2.76855,-144.163,380
1569936128,319.236,-140.643,-12.8364,178.462,2.76855,-144.163,380
1569936128,319.236,-140.643,-12.8364,178.462,2.76855,-144.163,380
1569936128,319.236,-140.643,-12.8364,178.462,2.76855,-144.163,380
1569936128,319.236,-140.643,-12.8364,178.462,2.76855,-144.163,380
1569936128,319.236,-140.643,-12.8364,178.462,2.76855,-144.163,380
1569936128,319.236,-140.643,-12.8364,178.462,2.76855,-144.163,380
1569936128,319.236,-140.643,-12.8364,178.462,2.76855,-144.163,380
1569936128,319.236,-140.643,-12.8364,178.462,2.76855,-144.163,380
1569936128,319.236,-140.643,-12.8364,178.462,2.76855,-144.163,380
1569936128,319.236,-140.643,-12.8364,178.44,2.76855,-144.163,380
1569936128,319.236,-140.643,-12.8364,178.44,2.76855,-144.163,380
1569936128,319.236,-140.754,-12.8364,178.44,2.76855,-144.163,380
1569936128,319.236,-140.754,-12.8364,178.44,2.76855,-144.163,376
1569936128,319.236,-140.754,-12.8364,178.44,2.76855,-144.163,376
1569936128,319.236,-140.754,-12.8364,178.44,2.76855,-144.163,376
1569936128,319.236,-140.754,-12.8364,178.44,2.76855,-144.163,376
1569936128,319.236,-140.754,-12.8364,178.44,2.76855,-144.163,376
1569936128,319.236,-140.754,-12.8364,178.44,2.76855,-144.163,376
1569936128,319.236,-140.754,-12.8364,178.44,2.79053,-144.163,376
1569936128,319.236,-140.754,-12.8364,178.44,2.79053,-144.163,376
1569936128,319.236,-140.754,-12.8364,178.44,2.79053,-144.163,376
1569936128,319.236,-140.754,-12.8364,178.44,2.79053,-144.163,376
1569936128,319.236,-140.754,-12.8364,178.44,2.79053,-144.163,376
1569936128,319.236,-140.754,-12.8364,178.44,2.79053,-144.163,376
1569936128,319.236,-140.754,-12.8364,178.44,2.79053,-144.163,376
1569936128,319.125,-140.754,-12.7248,178.44,2.79053,-144.163,376
1569936128,319.125,-140.754,-12.7248,178.44,2.79053,-144.163,376
1569936128,319.125,-140.754,-12.7248,178.44,2.79053,-144.163,376
1569936128,319.125,-140.754,-12.7248,178.44,2.79053,-144.163,376
1569936128,319.236,-140.754,-12.7248,178.44,2.79053,-144.141,376
1569936128,319.236,-140.754,-12.7248,178.44,2.79053,-144.141,376
1569936128,319.236,-140.754,-12.7248,178.44,2.79053,-144.141,376
1569936128,319.236,-140.754,-12.7248,178.44,2.79053,-144.141,376
1569936128,319.236,-140.754,-12.7248,178.44,2.79053,-144.141,376
1569936128,319.236,-140.754,-12.7248,178.44,2.79053,-144.163,376
1569936128,319.236,-140.754,-12.7248,178.44,2.79053,-144.163,376
1569936128,319.236,-140.754,-12.7248,178.44,2.79053,-144.163,376
1569936128,319.236,-140.754,-12.7248,178.44,2.79053,-144.163,372
1569936128,319.236,-140.754,-12.7248,178.44,2.79053,-144.163,372
1569936128,319.236,-140.754,-12.7248,178.44,2.79053,-144.163,372
1569936132,357.522,-183.17,-11.6086,178.154,3.01025,-144.207,484
1569936132,357.522,-183.17,-11.6086,178.154,3.01025,-144.207,484
1569936132,357.522,-183.17,-11.6086,178.154,3.01025,-144.207,484
1569936132,357.522,-183.17,-11.6086,178.154,3.01025,-144.207,484
1569936132,357.522,-183.17,-11.6086,178.154,3.01025,-144.207,484
1569936132,357.522,-183.17,-11.6086,178.154,3.01025,-144.207,484
1569936132,357.522,-183.17,-11.6086,178.154,3.01025,-144.207,484
1569936132,357.522,-183.17,-11.6086,178.154,3.01025,-144.207,484
1569936132,357.522,-183.17,-11.6086,178.154,3.01025,-144.207,484
1569936132,357.522,-183.17,-11.497,178.154,3.01025,-144.207,488
1569936132,357.522,-183.17,-11.497,178.154,3.01025,-144.207,488
1569936132,357.522,-183.17,-11.6086,178.132,3.01025,-144.207,488
1569936132,357.522,-183.17,-11.6086,178.132,3.01025,-144.207,488
1569936132,357.522,-183.17,-11.6086,178.132,3.01025,-144.207,488
1569936133,357.522,-183.17,-11.6086,178.132,3.01025,-144.207,484
1569936133,357.522,-183.17,-11.6086,178.132,3.01025,-144.207,484
1569936133,357.522,-183.17,-11.6086,178.132,3.01025,-144.207,484
1569936133,357.522,-183.17,-11.6086,178.132,3.01025,-144.207,484
1569936133,357.522,-183.17,-11.6086,178.132,3.01025,-144.207,484
1569936133,357.522,-183.17,-11.6086,178.132,3.01025,-144.207,480
1569936133,357.522,-183.17,-11.6086,178.132,3.01025,-144.185,480
1569936133,357.522,-183.17,-11.6086,178.132,3.01025,-144.185,480
1569936133,357.522,-183.17,-11.6086,178.132,3.01025,-144.185,480
1569936133,357.522,-183.17,-11.6086,178.132,3.01025,-144.185,480
1569936133,357.522,-183.17,-11.6086,178.132,3.01025,-144.185,480
1569936133,357.522,-183.17,-11.6086,178.132,3.01025,-144.185,476
1569936133,357.522,-183.17,-11.6086,178.132,3.01025,-144.185,476
1569936133,357.522,-183.17,-11.6086,178.132,3.01025,-144.185,476
1569936133,357.522,-183.17,-11.6086,178.154,3.01025,-144.185,480
1569936133,357.522,-183.17,-11.6086,178.154,3.01025,-144.207,480
1569936133,357.522,-183.17,-11.6086,178.154,3.01025,-144.185,480
1569936133,357.522,-183.17,-11.497,178.154,3.01025,-144.185,480
1569936133,357.522,-183.17,-11.6086,178.154,3.01025,-144.185,480
1569936133,357.522,-183.17,-11.6086,178.154,3.01025,-144.185,480
1569936133,357.522,-183.17,-11.6086,178.154,3.01025,-144.185,480
1569936133,357.522,-183.17,-11.6086,178.154,3.01025,-144.185,480
1569936133,357.522,-183.17,-11.6086,178.154,3.01025,-144.185,480
1569936133,357.522,-183.17,-11.6086,178.154,3.01025,-144.185,480
1569936133,357.522,-183.059,-11.6086,178.154,3.01025,-144.185,480
1569936133,357.522,-183.059,-11.6086,178.176,2.98828,-144.185,484
1569936133,357.522,-183.059,-11.6086,178.176,2.98828,-144.185,484
1569936133,357.522,-183.059,-11.6086,178.176,2.98828,-144.185,484
1569936133,357.522,-183.059,-11.6086,178.176,2.98828,-144.185,484
1569936133,357.522,-183.059,-11.6086,178.176,2.98828,-144.185,484
1569936133,357.522,-183.059,-11.6086,178.176,2.98828,-144.185,484
1569936133,357.522,-183.059,-11.6086,178.176,2.98828,-144.185,484
1569936133,357.522,-183.059,-11.6086,178.176,2.98828,-144.185,484
1569936133,357.522,-183.059,-11.6086,178.176,2.98828,-144.185,484
1569936133,357.522,-183.059,-11.6086,178.176,2.98828,-144.185,484
1569936133,357.522,-183.059,-11.6086,178.176,2.98828,-144.185,484
1569936133,357.522,-183.059,-11.6086,178.176,2.98828,-144.185,484
1569936133,357.522,-183.059,-11.6086,178.176,2.98828,-144.185,488
1569936133,357.522,-183.059,-11.6086,178.176,2.98828,-144.185,488
1569936133,357.522,-183.059,-11.6086,178.176,2.98828,-144.185,488
1569936133,357.522,-183.059,-11.6086,178.176,2.98828,-144.185,488
1569936133,357.522,-183.059,-11.7202,178.176,2.98828,-144.185,488
1569936133,357.522,-183.059,-11.7202,178.176,2.98828,-144.185,488
1569936133,357.411,-182.947,-11.7202,178.176,2.96631,-144.185,488
1569936133,357.411,-182.947,-11.7202,178.176,2.96631,-144.185,484
1569936133,357.411,-182.947,-11.6086,178.176,2.96631,-144.185,484
1569936133,357.411,-182.947,-11.6086,178.176,2.96631,-144.185,484
1569936133,357.411,-182.947,-11.6086,178.176,2.96631,-144.185,484
1569936133,357.411,-182.947,-11.6086,178.176,2.96631,-144.185,484
1569936133,357.411,-182.947,-11.6086,178.176,2.96631,-144.185,484
1569936133,357.411,-182.947,-11.6086,178.176,2.98828,-144.185,484
1569936133,357.411,-182.947,-11.6086,178.176,2.98828,-144.185,480
1569936133,357.411,-182.947,-11.6086,178.176,2.96631,-144.185,480
1569936133,357.411,-182.947,-11.6086,178.176,2.96631,-144.185,480
1569936133,357.522,-182.947,-11.6086,178.176,2.96631,-144.185,480
1569936133,357.522,-182.947,-11.7202,178.176,2.96631,-144.185,480
1569936133,357.522,-182.947,-11.7202,178.176,2.96631,-144.185,480
1569936133,357.522,-182.947,-11.7202,178.176,2.96631,-144.185,480
1569936133,357.522,-182.947,-11.7202,178.176,2.96631,-144.185,476
1569936133,357.522,-182.947,-11.7202,178.176,2.96631,-144.185,476
1569936133,357.522,-182.947,-11.7202,178.176,2.96631,-144.185,476
1569936133,357.522,-183.059,-11.7202,178.176,2.96631,-144.185,476
1569936133,357.522,-183.059,-11.7202,178.176,2.96631,-144.185,476
1569936133,357.522,-183.059,-11.7202,178.176,2.96631,-144.185,472
1569936133,357.522,-183.059,-11.7202,178.154,2.96631,-144.207,472
1569936133,357.522,-183.059,-11.7202,178.154,2.96631,-144.207,472
1569936133,357.522,-183.059,-11.7202,178.154,2.96631,-144.207,468
1569936133,357.522,-183.059,-11.6086,178.154,2.98828,-144.207,468
1569936133,357.522,-183.059,-11.6086,178.154,2.98828,-144.207,468
1569936133,357.522,-183.059,-11.6086,178.154,2.98828,-144.207,464
1569936133,357.522,-183.059,-11.6086,178.154,2.98828,-144.207,464
1569936133,357.522,-183.059,-11.6086,178.154,2.98828,-144.207,460
1569936133,357.522,-183.059,-11.6086,178.154,2.98828,-144.207,460
1569936133,357.522,-183.17,-11.6086,178.154,2.98828,-144.185,460
1569936133,357.522,-183.17,-11.6086,178.154,2.98828,-144.185,456
1569936133,357.522,-183.17,-11.6086,178.154,2.98828,-144.185,456
1569936133,357.522,-183.17,-11.6086,178.154,2.98828,-144.185,456
1569936133,357.522,-183.17,-11.6086,178.132,2.98828,-144.185,456
1569936133,357.522,-183.17,-11.6086,178.132,2.98828,-144.185,456
1569936133,357.522,-183.17,-11.6086,178.132,2.98828,-144.185,456
1569936133,357.522,-183.17,-11.6086,178.132,2.98828,-144.185,456
1569936133,357.522,-183.17,-11.6086,178.132,2.98828,-144.185,456
1569936133,357.522,-183.17,-11.6086,178.132,2.98828,-144.185,456
1569936133,357.522,-183.17,-11.6086,178.132,2.98828,-144.185,456
1569936133,357.522,-183.17,-11.6086,178.132,2.98828,-144.185,456
1569936133,357.522,-183.17,-11.6086,178.132,2.98828,-144.185,456
1569936133,357.522,-183.17,-11.6086,178.132,2.98828,-144.185,456
1569936133,357.522,-183.17,-11.6086,178.132,2.98828,-144.185,456
1569936133,357.411,-183.17,-11.6086,178.132,2.98828,-144.185,456
1569936133,357.411,-183.282,-11.6086,178.11,2.98828,-144.185,456
1569936133,357.411,-183.282,-11.6086,178.11,2.98828,-144.185,460
1569936133,357.411,-183.282,-11.6086,178.11,3.01025,-144.185,460
1569936133,357.411,-183.282,-11.6086,178.11,3.01025,-144.185,460
1569936133,357.411,-183.282,-11.6086,178.11,3.01025,-144.185,460
1569936133,357.411,-183.282,-11.6086,178.11,3.01025,-144.185,460
1569936133,357.411,-183.282,-11.6086,178.11,3.01025,-144.185,460
1569936133,357.411,-183.282,-11.6086,178.11,3.01025,-144.185,460
1569936133,357.411,-183.282,-11.6086,178.11,3.01025,-144.185,464
1569936133,357.522,-183.282,-11.6086,178.11,3.01025,-144.185,464
1569936133,357.522,-183.282,-11.6086,178.11,3.01025,-144.185,464
1569936134,357.522,-183.282,-11.6086,178.11,3.01025,-144.207,464
1569936134,357.522,-183.282,-11.6086,178.11,3.01025,-144.207,464
1569936134,357.522,-183.282,-11.6086,178.11,3.01025,-144.207,464
1569936134,357.522,-183.282,-11.6086,178.11,3.01025,-144.207,464
1569936134,357.522,-183.282,-11.6086,178.11,3.01025,-144.207,468
1569936134,357.522,-183.282,-11.6086,178.088,3.01025,-144.207,468
1569936134,357.522,-183.282,-11.6086,178.088,3.01025,-144.207,468
1569936134,357.522,-183.282,-11.6086,178.088,3.01025,-144.207,468
1569936134,357.522,-183.282,-11.6086,178.088,3.01025,-144.207,468
1569936134,357.411,-183.393,-11.6086,178.088,3.01025,-144.207,468
1569936134,357.411,-183.393,-11.6086,178.088,3.01025,-144.207,468
1569936134,357.411,-183.393,-11.6086,178.088,3.01025,-144.207,468
1569936134,357.411,-183.393,-11.6086,178.088,3.01025,-144.207,468
1569936134,357.411,-183.393,-11.6086,178.066,3.01025,-144.207,468
1569936134,357.411,-183.393,-11.6086,178.066,3.01025,-144.207,468
1569936134,357.411,-183.393,-11.6086,178.066,3.01025,-144.207,468
1569936134,357.411,-183.393,-11.6086,178.066,3.01025,-144.207,468
1569936134,357.411,-183.393,-11.6086,178.066,3.01025,-144.207,468
1569936134,357.411,-183.282,-11.6086,178.088,3.01025,-144.207,468
1569936134,357.411,-183.282,-11.6086,178.088,3.01025,-144.207,468
1569936134,357.411,-183.282,-11.6086,178.088,3.01025,-144.207,468
1569936134,357.411,-183.282,-11.6086,178.088,3.01025,-144.207,468
1569936134,357.411,-183.282,-11.6086,178.088,3.01025,-144.207,468
1569936134,357.411,-183.282,-11.6086,178.088,3.01025,-144.207,468
1569936134,357.411,-183.282,-11.6086,178.088,3.01025,-144.207,468
1569936134,357.411,-183.282,-11.6086,178.088,3.01025,-144.207,468
1569936134,357.411,-183.282,-11.6086,178.088,3.01025,-144.207,468
1569936134,357.411,-183.282,-11.6086,178.088,3.01025,-144.207,468
1569936134,357.411,-183.282,-11.6086,178.088,3.01025,-144.207,472
1569936134,357.411,-183.282,-11.6086,178.11,3.03223,-144.207,472
1569936134,357.411,-183.282,-11.497,178.11,3.03223,-144.185,472
1569936134,357.411,-183.282,-11.497,178.11,3.03223,-144.185,472
1569936134,357.411,-183.282,-11.497,178.11,3.03223,-144.185,472
1569936134,357.411,-183.17,-11.497,178.11,3.03223,-144.185,476
1569936134,357.411,-183.17,-11.497,178.11,3.03223,-144.185,476
1569936134,357.411,-183.17,-11.497,178.11,3.03223,-144.185,476
1569936134,357.411,-183.17,-11.497,178.11,3.03223,-144.185,476
1569936134,357.411,-183.17,-11.497,178.11,3.03223,-144.185,476
1569936134,357.411,-183.17,-11.497,178.132,3.03223,-144.185,480
1569936134,357.522,-183.17,-11.497,178.132,3.03223,-144.185,480
1569936134,357.522,-183.17,-11.497,178.132,3.03223,-144.185,480
1569936134,357.522,-183.17,-11.497,178.132,3.03223,-144.185,480
1569936134,357.522,-183.17,-11.497,178.132,3.03223,-144.185,480
1569936134,357.522,-183.17,-11.497,178.154,3.03223,-144.185,484
1569936134,357.522,-183.059,-11.497,178.154,3.03223,-144.185,484
1569936134,357.522,-183.059,-11.497,178.154,3.03223,-144.185,484
1569936134,357.522,-183.059,-11.497,178.154,3.03223,-144.185,484
1569936134,357.522,-183.059,-11.497,178.154,3.03223,-144.185,484
1569936134,357.522,-183.059,-11.497,178.154,3.03223,-144.185,484
1569936134,357.522,-183.059,-11.497,178.154,3.03223,-144.185,484
1569936134,357.522,-183.059,-11.497,178.154,3.01025,-144.207,484
1569936134,357.411,-183.059,-11.497,178.154,3.01025,-144.207,480
1569936134,357.411,-183.059,-11.6086,178.154,3.01025,-144.207,480
1569936134,357.411,-183.059,-11.6086,178.154,3.01025,-144.207,480
1569936134,357.411,-183.059,-11.6086,178.154,2.98828,-144.207,480
1569936134,357.411,-183.059,-11.6086,178.132,2.98828,-144.207,480
1569936134,357.411,-183.059,-11.6086,178.132,2.98828,-144.207,476
1569936134,357.411,-183.059,-11.6086,178.132,2.98828,-144.207,476
1569936134,357.411,-183.059,-11.6086,178.132,2.98828,-144.207,476
1569936134,357.411,-183.059,-11.6086,178.132,2.98828,-144.207,476
1569936134,357.411,-183.059,-11.6086,178.132,2.96631,-144.207,476
1569936134,357.411,-183.17,-11.7202,178.132,2.96631,-144.207,476
1569936134,357.522,-183.17,-11.7202,178.132,2.96631,-144.207,472
1569936134,357.522,-183.17,-11.7202,178.132,2.96631,-144.207,472
1569936134,357.522,-183.17,-11.7202,178.132,2.96631,-144.207,472
1569936134,357.522,-183.17,-11.7202,178.132,2.96631,-144.207,472
1569936134,357.522,-183.17,-11.7202,178.132,2.96631,-144.207,472
1569936134,357.522,-183.17,-11.7202,178.132,2.96631,-144.207,472
1569936134,357.522,-183.17,-11.7202,178.132,2.96631,-144.207,472
1569936134,357.522,-183.17,-11.7202,178.132,2.96631,-144.207,468
1569936134,357.522,-183.17,-11.7202,178.132,2.96631,-144.207,468
1569936134,357.522,-183.17,-11.7202,178.154,2.96631,-144.207,468
1569936134,357.522,-183.17,-11.7202,178.154,2.96631,-144.207,468
1569936134,357.522,-183.17,-11.7202,178.154,2.96631,-144.207,468
1569936134,357.522,-183.17,-11.7202,178.154,2.96631,-144.207,468
1569936134,357.522,-183.17,-11.7202,178.154,2.96631,-144.207,468
1569936134,357.522,-183.17,-11.7202,178.154,2.96631,-144.207,468
1569936134,357.522,-183.17,-11.7202,178.132,2.96631,-144.207,468
1569936134,357.522,-183.17,-11.7202,178.132,2.96631,-144.207,468
1569936134,357.522,-183.17,-11.7202,178.132,2.96631,-144.207,468
1569936134,357.522,-183.17,-11.7202,178.132,2.96631,-144.229,468
1569936134,357.522,-183.17,-11.7202,178.132,2.94434,-144.229,468
1569936134,357.522,-183.17,-11.8318,178.132,2.94434,-144.229,468
1569936134,357.522,-183.17,-11.8318,178.132,2.94434,-144.229,468
1569936134,357.522,-183.17,-11.8318,178.132,2.94434,-144.229,468
1569936134,357.522,-183.17,-11.8318,178.132,2.94434,-144.229,468
1569936134,357.522,-183.17,-11.8318,178.11,2.94434,-144.229,468
1569936134,357.522,-183.17,-11.8318,178.11,2.94434,-144.229,468
1569936134,357.522,-183.17,-11.8318,178.11,2.94434,-144.229,468
1569936134,357.411,-183.17,-11.8318,178.11,2.94434,-144.229,468
1569936134,357.411,-183.17,-11.8318,178.11,2.96631,-144.229,472
1569936134,357.411,-183.17,-11.7202,178.11,2.96631,-144.229,472
1569936134,357.411,-183.17,-11.7202,178.11,2.96631,-144.229,472
1569936134,357.411,-183.17,-11.7202,178.11,2.96631,-144.229,472
1569936134,357.411,-183.17,-11.7202,178.11,2.96631,-144.229,472
1569936134,357.411,-183.17,-11.7202,178.11,2.96631,-144.207,472
1569936134,357.411,-183.17,-11.7202,178.11,2.96631,-144.207,472
1569936134,357.411,-183.17,-11.7202,178.11,2.96631,-144.207,472
1569936134,357.411,-183.17,-11.7202,178.11,2.96631,-144.207,472
1569936134,357.411,-183.17,-11.7202,178.132,2.98828,-144.207,472
1569936135,357.522,-183.17,-11.7202,178.132,2.98828,-144.207,472
1569936135,357.522,-183.17,-11.7202,178.132,2.98828,-144.207,472
1569936135,357.522,-183.17,-11.7202,178.132,2.98828,-144.207,472
1569936135,357.522,-183.17,-11.7202,178.132,2.98828,-144.207,472
1569936135,357.522,-183.17,-11.7202,178.132,2.98828,-144.207,472
1569936135,357.522,-183.17,-11.7202,178.132,2.98828,-144.207,472
1569936135,357.522,-183.17,-11.7202,178.132,2.98828,-144.207,472
1569936135,357.522,-183.17,-11.7202,178.132,2.98828,-144.207,472
1569936135,357.522,-183.17,-11.7202,178.132,2.98828,-144.207,472
1569936135,357.522,-183.17,-11.7202,178.132,2.98828,-144.207,472
1569936135,357.522,-183.17,-11.7202,178.132,2.98828,-144.207,472
1569936135,357.522,-183.17,-11.7202,178.132,2.96631,-144.229,472
1569936135,357.522,-183.17,-11.7202,178.132,2.96631,-144.229,472
1569936135,357.522,-183.059,-11.7202,178.132,2.96631,-144.229,472
1569936135,357.411,-183.059,-11.7202,178.132,2.96631,-144.229,472
1569936135,357.411,-183.059,-11.7202,178.132,2.96631,-144.229,472
1569936135,357.411,-183.059,-11.7202,178.132,2.96631,-144.229,472
1569936135,357.411,-183.059,-11.7202,178.132,2.96631,-144.229,472
1569936135,357.411,-183.059,-11.7202,178.132,2.96631,-144.229,472
1569936135,357.411,-183.059,-11.7202,178.132,2.96631,-144.207,472
1569936135,357.411,-183.059,-11.7202,178.132,2.96631,-144.207,472
1569936135,357.411,-183.059,-11.7202,178.154,2.96631,-144.207,472
1569936135,357.411,-183.059,-11.7202,178.154,2.96631,-144.207,472
1569936135,357.411,-183.059,-11.7202,178.154,2.96631,-144.207,472
1569936135,357.411,-183.059,-11.7202,178.154,2.96631,-144.207,472
1569936135,357.411,-183.059,-11.7202,178.154,2.96631,-144.207,476
1569936135,357.411,-183.059,-11.7202,178.154,2.96631,-144.207,476
1569936135,357.411,-183.059,-11.7202,178.154,2.96631,-144.207,476
1569936135,357.411,-183.059,-11.7202,178.132,2.96631,-144.185,476
1569936135,357.411,-183.059,-11.7202,178.132,2.96631,-144.185,476
1569936135,357.411,-183.059,-11.7202,178.132,2.96631,-144.185,476
1569936135,357.411,-183.059,-11.7202,178.132,2.96631,-144.185,476
1569936135,357.411,-183.17,-11.7202,178.132,2.96631,-144.185,476
1569936135,357.411,-183.17,-11.7202,178.132,2.96631,-144.185,476
1569936135,357.411,-183.17,-11.7202,178.132,2.96631,-144.185,476
1569936135,357.411,-183.17,-11.7202,178.132,2.96631,-144.185,476
1569936135,357.411,-183.17,-11.7202,178.132,2.96631,-144.185,476
1569936135,357.411,-183.17,-11.7202,178.132,2.96631,-144.185,472
1569936135,357.411,-183.17,-11.7202,178.132,2.96631,-144.185,472
1569936135,357.411,-183.17,-11.7202,178.132,2.96631,-144.185,472
1569936135,357.411,-183.17,-11.7202,178.132,2.96631,-144.185,472
1569936135,357.411,-183.17,-11.7202,178.132,2.96631,-144.185,472
1569936135,357.411,-183.17,-11.7202,178.11,2.96631,-144.185,472
1569936135,357.411,-183.17,-11.7202,178.11,2.96631,-144.185,472
1569936135,357.411,-183.17,-11.7202,178.11,2.96631,-144.185,472
1569936135,357.411,-183.17,-11.6086,178.11,2.98828,-144.185,472
1569936135,357.411,-183.17,-11.6086,178.11,2.98828,-144.185,472
1569936135,357.411,-183.17,-11.6086,178.11,2.98828,-144.185,472
1569936135,357.411,-183.17,-11.6086,178.11,2.98828,-144.185,472
1569936135,357.411,-183.17,-11.6086,178.11,2.98828,-144.185,472
1569936135,357.411,-183.17,-11.6086,178.11,2.98828,-144.207,472
1569936135,357.411,-183.17,-11.6086,178.11,2.98828,-144.207,472
1569936135,357.411,-183.17,-11.6086,178.11,2.98828,-144.207,472
1569936135,357.411,-183.17,-11.6086,178.11,2.98828,-144.207,472
1569936135,357.411,-183.282,-11.7202,178.11,2.98828,-144.207,472
1569936135,357.411,-183.282,-11.7202,178.11,2.96631,-144.207,472
1569936135,357.411,-183.282,-11.7202,178.11,2.96631,-144.207,472
1569936135,357.411,-183.282,-11.7202,178.088,2.96631,-144.207,472
1569936135,357.411,-183.282,-11.7202,178.088,2.96631,-144.207,472
1569936135,357.411,-183.282,-11.7202,178.088,2.96631,-144.207,472
1569936135,357.411,-183.282,-11.7202,178.088,2.96631,-144.207,472
1569936135,357.411,-183.282,-11.7202,178.088,2.96631,-144.207,472
1569936135,357.411,-183.282,-11.7202,178.088,2.96631,-144.207,472
1569936135,357.411,-183.282,-11.7202,178.088,2.96631,-144.207,476
1569936135,357.411,-183.282,-11.7202,178.088,2.96631,-144.207,476
1569936135,357.411,-183.282,-11.7202,178.088,2.96631,-144.207,476
1569936135,357.411,-183.282,-11.7202,178.088,2.96631,-144.207,476
1569936135,357.411,-183.282,-11.7202,178.11,2.96631,-144.207,476
1569936135,357.411,-183.282,-11.7202,178.11,2.96631,-144.207,476
1569936135,357.411,-183.282,-11.7202,178.11,2.96631,-144.207,476
1569936135,357.411,-183.282,-11.7202,178.11,2.96631,-144.207,480
1569936135,357.411,-183.282,-11.7202,178.11,2.96631,-144.207,480
1569936135,357.522,-183.282,-11.7202,178.11,2.96631,-144.185,480
1569936135,357.522,-183.282,-11.7202,178.132,2.96631,-144.185,480
1569936135,357.522,-183.17,-11.7202,178.132,2.98828,-144.185,480
1569936135,357.522,-183.17,-11.6086,178.132,2.98828,-144.185,480
1569936135,357.522,-183.17,-11.6086,178.132,2.98828,-144.185,480
1569936135,357.522,-183.17,-11.6086,178.132,2.98828,-144.185,476
1569936135,357.522,-183.282,-11.6086,178.132,2.98828,-144.185,476
1569936135,357.522,-183.282,-11.6086,178.132,2.98828,-144.185,476
1569936135,357.522,-183.282,-11.6086,178.11,2.98828,-144.163,476
1569936135,357.522,-183.282,-11.6086,178.11,2.98828,-144.163,476
1569936135,357.522,-183.282,-11.6086,178.11,2.98828,-144.163,476
1569936135,357.522,-183.282,-11.6086,178.11,2.98828,-144.185,476
1569936135,357.522,-183.282,-11.6086,178.11,2.98828,-144.185,480
1569936135,357.522,-183.282,-11.6086,178.11,3.01025,-144.185,480
