time,x,y,z,ax,ay,az,q
1570003905,299.033,-41.2998,-16.6315,179.648,1.34033,-145.261,344
1570003905,299.033,-41.2998,-16.7432,179.648,1.34033,-145.261,344
1570003905,299.033,-41.2998,-16.7432,179.648,1.34033,-145.261,344
1570003905,299.033,-41.2998,-16.7432,179.648,1.34033,-145.261,344
1570003905,299.033,-41.2998,-16.7432,179.648,1.34033,-145.261,344
1570003905,299.033,-41.2998,-16.7432,179.648,1.34033,-145.261,344
1570003905,299.033,-41.2998,-16.7432,179.648,1.34033,-145.261,344
1570003905,299.033,-41.2998,-16.7432,179.648,1.34033,-145.261,344
1570003905,299.033,-41.2998,-16.7432,179.648,1.34033,-145.261,344
1570003905,299.033,-41.2998,-16.7432,179.648,1.31836,-145.261,344
1570003905,299.033,-41.2998,-16.7432,179.648,1.31836,-145.261,344
1570003905,299.033,-41.2998,-16.7432,179.648,1.31836,-145.261,344
1570003905,299.033,-41.2998,-16.7432,179.648,1.31836,-145.261,344
1570003905,299.033,-41.2998,-16.7432,179.648,1.31836,-145.261,344
1570003905,299.033,-41.2998,-16.7432,179.648,1.31836,-145.261,344
1570003905,299.033,-41.2998,-16.7432,179.648,1.31836,-145.261,344
1570003905,299.033,-41.2998,-16.7432,179.648,1.31836,-145.261,344
1570003905,299.033,-41.2998,-16.7432,179.648,1.34033,-145.261,344
1570003905,299.033,-41.2998,-16.7432,179.648,1.34033,-145.261,344
1570003905,299.033,-41.2998,-16.7432,179.648,1.34033,-145.261,344
1570003905,299.033,-41.2998,-16.7432,179.648,1.34033,-145.261,344
1570003905,299.033,-41.2998,-16.7432,179.648,1.34033,-145.261,344
1570003905,299.033,-41.2998,-16.7432,179.648,1.34033,-145.261,344
1570003905,299.033,-41.2998,-16.7432,179.648,1.34033,-145.261,344
1570003905,299.033,-41.2998,-16.7432,179.648,1.34033,-145.261,344
1570003905,299.033,-41.2998,-16.7432,179.648,1.34033,-145.261,344
1570003905,299.033,-41.2998,-16.7432,179.648,1.34033,-145.261,344
1570003905,299.033,-41.2998,-16.7432,179.648,1.34033,-145.261,344
1570003905,299.033,-41.2998,-16.7432,179.648,1.34033,-145.261,344
1570003905,299.033,-41.2998,-16.7432,179.648,1.31836,-145.261,344
1570003905,299.033,-41.2998,-16.7432,179.648,1.31836,-145.261,344
1570003905,299.033,-41.2998,-16.7432,179.648,1.31836,-145.261,344
1570003905,299.033,-41.2998,-16.7432,179.648,1.31836,-145.261,344
1570003905,299.033,-41.2998,-16.7432,179.648,1.31836,-145.261,348
1570003905,299.033,-41.2998,-16.7432,179.648,1.31836,-145.261,348
1570003905,299.033,-41.2998,-16.7432,179.648,1.31836,-145.261,348
1570003905,299.033,-41.2998,-16.7432,179.648,1.31836,-145.261,348
1570003905,299.033,-41.2998,-16.7432,179.648,1.31836,-145.261,348
1570003905,299.033,-41.2998,-16.7432,179.626,1.34033,-145.261,348
1570003905,299.033,-41.2998,-16.7432,179.626,1.34033,-145.261,348
1570003905,299.033,-41.2998,-16.7432,179.626,1.34033,-145.261,348
1570003905,299.033,-41.2998,-16.7432,179.626,1.34033,-145.261,348
1570003905,299.033,-41.2998,-16.7432,179.626,1.34033,-145.261,348
1570003905,299.033,-41.2998,-16.7432,179.626,1.34033,-145.261,348
1570003905,299.033,-41.2998,-16.7432,179.626,1.34033,-145.261,348
1570003905,299.033,-41.2998,-16.7432,179.626,1.34033,-145.261,348
1570003905,299.033,-41.2998,-16.7432,179.626,1.34033,-145.261,348
1570003905,299.033,-41.2998,-16.7432,179.626,1.34033,-145.261,348
1570003905,299.033,-41.2998,-16.7432,179.626,1.34033,-145.261,348
1570003905,299.033,-41.2998,-16.7432,179.626,1.34033,-145.261,344
1570003905,299.033,-41.2998,-16.7432,179.626,1.34033,-145.261,344
1570003905,299.033,-41.2998,-16.7432,179.626,1.34033,-145.261,344
1570003905,299.033,-41.2998,-16.7432,179.626,1.34033,-145.261,344
1570003905,299.033,-41.2998,-16.7432,179.626,1.34033,-145.261,344
1570003905,299.033,-41.2998,-16.7432,179.626,1.34033,-145.261,344
1570003905,299.033,-41.2998,-16.7432,179.626,1.34033,-145.261,344
1570003905,299.033,-41.2998,-16.7432,179.626,1.34033,-145.261,344
1570003905,299.033,-41.2998,-16.7432,179.626,1.34033,-145.261,344
1570003905,299.033,-41.2998,-16.7432,179.626,1.34033,-145.261,344
1570003905,299.033,-41.2998,-16.7432,179.626,1.34033,-145.261,344
1570003905,299.033,-41.2998,-16.7432,179.626,1.34033,-145.261,344
1570003905,299.033,-41.2998,-16.7432,179.626,1.34033,-145.261,344
1570003905,299.033,-41.2998,-16.7432,179.626,1.34033,-145.261,344
1570003905,299.033,-41.2998,-16.7432,179.626,1.34033,-145.261,344
1570003905,299.033,-41.2998,-16.7432,179.626,1.34033,-145.261,344
1570003905,299.033,-41.2998,-16.7432,179.626,1.34033,-145.261,344
1570003905,299.033,-41.2998,-16.7432,179.626,1.34033,-145.261,344
1570003905,299.033,-41.2998,-16.7432,179.626,1.34033,-145.261,344
1570003905,299.033,-41.2998,-16.7432,179.626,1.34033,-145.261,344
1570003905,299.033,-41.2998,-16.7432,179.626,1.34033,-145.261,344
1570003905,299.033,-41.2998,-16.7432,179.626,1.34033,-145.261,344
1570003905,299.033,-41.2998,-16.7432,179.626,1.34033,-145.261,344
1570003906,299.033,-41.2998,-16.7432,179.626,1.34033,-145.261,344
1570003906,299.033,-41.2998,-16.7432,179.626,1.34033,-145.261,344
1570003906,299.033,-41.2998,-16.7432,179.626,1.34033,-145.261,344
1570003906,299.033,-41.2998,-16.7432,179.626,1.34033,-145.261,344
1570003906,299.033,-41.2998,-16.7432,179.626,1.34033,-145.261,344
1570003906,299.033,-41.2998,-16.7432,179.626,1.34033,-145.261,344
1570003906,299.033,-41.2998,-16.7432,179.626,1.34033,-145.261,344
1570003906,299.033,-41.2998,-16.7432,179.626,1.34033,-145.261,344
1570003906,299.033,-41.2998,-16.7432,179.626,1.34033,-145.283,344
1570003906,299.033,-41.2998,-16.7432,179.626,1.34033,-145.283,344
1570003906,299.033,-41.2998,-16.7432,179.626,1.34033,-145.283,344
1570003906,299.033,-41.2998,-16.7432,179.626,1.34033,-145.283,344
1570003906,299.033,-41.2998,-16.7432,179.626,1.34033,-145.283,344
1570003906,299.033,-41.2998,-16.7432,179.626,1.34033,-145.283,344
1570003906,299.033,-41.2998,-16.7432,179.626,1.34033,-145.283,344
1570003906,299.145,-41.2998,-16.7432,179.626,1.34033,-145.283,344
1570003906,299.145,-41.2998,-16.7432,179.626,1.34033,-145.283,340
1570003906,299.145,-41.2998,-16.7432,179.626,1.34033,-145.283,340
1570003906,299.145,-41.2998,-16.7432,179.626,1.34033,-145.283,340
1570003906,299.145,-41.2998,-16.7432,179.626,1.34033,-145.283,340
1570003906,299.145,-41.2998,-16.7432,179.626,1.34033,-145.283,340
1570003906,299.145,-41.2998,-16.7432,179.626,1.34033,-145.283,340
1570003906,299.145,-41.2998,-16.7432,179.626,1.34033,-145.283,340
1570003906,299.145,-41.2998,-16.7432,179.626,1.34033,-145.283,340
1570003906,299.145,-41.2998,-16.7432,179.626,1.34033,-145.283,340
1570003906,299.145,-41.2998,-16.7432,179.626,1.34033,-145.283,340
1570003906,299.033,-41.2998,-16.7432,179.626,1.34033,-145.283,340
1570003906,299.033,-41.2998,-16.7432,179.626,1.34033,-145.283,340
1570003906,299.033,-41.2998,-16.7432,179.626,1.34033,-145.283,340
1570003906,299.033,-41.2998,-16.7432,179.626,1.34033,-145.283,340
1570003906,299.033,-41.2998,-16.7432,179.626,1.34033,-145.283,340
1570003906,299.033,-41.2998,-16.7432,179.626,1.34033,-145.283,340
1570003906,299.033,-41.2998,-16.7432,179.626,1.34033,-145.283,340
1570003906,299.033,-41.2998,-16.7432,179.626,1.34033,-145.283,340
1570003906,299.033,-41.2998,-16.7432,179.626,1.34033,-145.283,340
1570003906,299.033,-41.2998,-16.7432,179.626,1.34033,-145.283,340
1570003906,299.033,-41.2998,-16.7432,179.626,1.34033,-145.283,340
1570003906,299.033,-41.2998,-16.7432,179.626,1.31836,-145.283,340
1570003906,299.033,-41.2998,-16.7432,179.626,1.31836,-145.283,340
1570003906,299.033,-41.2998,-16.7432,179.626,1.31836,-145.283,340
1570003906,299.033,-41.2998,-16.7432,179.626,1.31836,-145.283,340
1570003906,299.033,-41.2998,-16.7432,179.626,1.31836,-145.283,340
1570003906,299.033,-41.2998,-16.7432,179.626,1.31836,-145.283,340
1570003906,299.033,-41.2998,-16.7432,179.626,1.31836,-145.283,340
1570003906,299.033,-41.2998,-16.7432,179.626,1.31836,-145.283,340
1570003906,299.033,-41.2998,-16.7432,179.626,1.31836,-145.283,344
1570003906,299.033,-41.2998,-16.7432,179.626,1.31836,-145.283,344
1570003906,299.033,-41.2998,-16.7432,179.626,1.31836,-145.283,344
1570003906,299.033,-41.2998,-16.7432,179.626,1.31836,-145.283,344
1570003906,299.033,-41.2998,-16.7432,179.626,1.31836,-145.283,344
1570003906,299.033,-41.2998,-16.7432,179.626,1.31836,-145.283,344
1570003906,299.033,-41.2998,-16.7432,179.626,1.31836,-145.283,344
1570003906,299.033,-41.2998,-16.7432,179.626,1.31836,-145.283,344
1570003906,299.033,-41.2998,-16.7432,179.626,1.31836,-145.283,344
1570003906,299.033,-41.2998,-16.7432,179.626,1.31836,-145.283,344
1570003906,299.033,-41.2998,-16.7432,179.626,1.31836,-145.283,344
1570003906,299.033,-41.2998,-16.7432,179.626,1.31836,-145.283,340
1570003906,299.033,-41.2998,-16.7432,179.626,1.31836,-145.283,340
1570003906,299.033,-41.2998,-16.7432,179.626,1.31836,-145.283,340
1570003906,299.033,-41.2998,-16.7432,179.626,1.31836,-145.283,340
1570003906,299.033,-41.2998,-16.7432,179.626,1.31836,-145.283,340
1570003906,299.033,-41.2998,-16.7432,179.626,1.31836,-145.283,340
1570003906,299.033,-41.2998,-16.7432,179.626,1.31836,-145.283,340
1570003906,299.033,-41.2998,-16.7432,179.626,1.31836,-145.283,340
1570003906,299.033,-41.2998,-16.7432,179.626,1.31836,-145.283,340
1570003906,299.033,-41.2998,-16.7432,179.626,1.31836,-145.283,340
1570003906,299.033,-41.2998,-16.7432,179.626,1.31836,-145.283,340
1570003906,299.033,-41.2998,-16.7432,179.648,1.31836,-145.261,340
1570003906,299.033,-41.2998,-16.7432,179.648,1.31836,-145.261,340
1570003906,299.033,-41.2998,-16.7432,179.648,1.31836,-145.261,340
1570003906,299.033,-41.2998,-16.7432,179.648,1.31836,-145.261,340
1570003906,299.033,-41.2998,-16.7432,179.648,1.31836,-145.261,340
1570003906,299.033,-41.2998,-16.7432,179.648,1.31836,-145.261,340
1570003906,299.033,-41.2998,-16.7432,179.648,1.31836,-145.261,340
1570003906,299.033,-41.2998,-16.7432,179.648,1.31836,-145.261,344
1570003906,299.033,-41.2998,-16.7432,179.648,1.31836,-145.261,344
1570003906,299.033,-41.2998,-16.7432,179.648,1.31836,-145.261,344
1570003906,299.033,-41.2998,-16.7432,179.648,1.31836,-145.283,344
1570003906,299.033,-41.2998,-16.7432,179.648,1.31836,-145.283,344
1570003906,299.033,-41.2998,-16.7432,179.648,1.31836,-145.283,344
1570003906,299.033,-41.2998,-16.7432,179.648,1.31836,-145.283,344
1570003906,299.033,-41.2998,-16.7432,179.648,1.31836,-145.283,348
1570003906,299.033,-41.2998,-16.7432,179.648,1.31836,-145.283,348
1570003906,299.033,-41.2998,-16.7432,179.648,1.31836,-145.283,348
1570003906,299.033,-41.2998,-16.7432,179.648,1.34033,-145.283,348
1570003906,299.033,-41.2998,-16.7432,179.648,1.34033,-145.283,348
1570003906,299.033,-41.2998,-16.7432,179.648,1.34033,-145.283,352
1570003906,299.033,-41.2998,-16.7432,179.648,1.34033,-145.283,352
1570003906,299.033,-41.2998,-16.7432,179.648,1.34033,-145.283,352
1570003906,299.033,-41.2998,-16.7432,179.648,1.34033,-145.283,352
1570003906,299.033,-41.2998,-16.6315,179.648,1.34033,-145.283,352
1570003906,299.033,-41.2998,-16.7432,179.648,1.34033,-145.283,352
1570003906,299.033,-41.1882,-16.7432,179.648,1.34033,-145.283,356
1570003906,299.033,-41.1882,-16.7432,179.67,1.34033,-145.283,356
1570003906,299.033,-41.1882,-16.7432,179.67,1.34033,-145.283,356
1570003906,299.033,-41.1882,-16.7432,179.67,1.34033,-145.283,356
1570003906,299.033,-41.1882,-16.7432,179.67,1.34033,-145.283,356
1570003906,299.033,-41.1882,-16.7432,179.67,1.31836,-145.283,356
1570003906,299.033,-41.1882,-16.7432,179.67,1.31836,-145.283,356
1570003906,299.033,-41.1882,-16.7432,179.67,1.31836,-145.283,356
1570003907,299.033,-41.1882,-16.7432,179.67,1.31836,-145.283,356
1570003907,299.033,-41.1882,-16.7432,179.67,1.31836,-145.283,356
1570003907,299.033,-41.1882,-16.7432,179.67,1.31836,-145.283,356
1570003907,299.033,-41.1882,-16.7432,179.67,1.31836,-145.283,356
1570003907,299.033,-41.1882,-16.7432,179.67,1.34033,-145.283,356
1570003907,299.033,-41.1882,-16.7432,179.67,1.34033,-145.283,356
1570003907,299.033,-41.1882,-16.7432,179.67,1.31836,-145.283,356
1570003907,299.033,-41.1882,-16.7432,179.67,1.31836,-145.283,360
1570003907,299.033,-41.1882,-16.7432,179.67,1.31836,-145.283,360
1570003907,299.033,-41.1882,-16.7432,179.67,1.31836,-145.283,360
1570003907,299.033,-41.1882,-16.7432,179.67,1.31836,-145.283,360
1570003907,299.033,-41.1882,-16.7432,179.67,1.31836,-145.283,360
1570003907,299.033,-41.1882,-16.7432,179.67,1.31836,-145.283,360
1570003907,299.033,-41.1882,-16.7432,179.67,1.31836,-145.283,360
1570003907,299.033,-41.1882,-16.7432,179.67,1.31836,-145.283,360
1570003907,299.033,-41.1882,-16.7432,179.67,1.31836,-145.283,360
1570003907,299.033,-41.1882,-16.7432,179.67,1.31836,-145.283,360
1570003907,299.033,-41.1882,-16.7432,179.67,1.31836,-145.283,360
1570003907,299.033,-41.1882,-16.7432,179.67,1.31836,-145.283,360
1570003907,299.033,-41.1882,-16.7432,179.67,1.31836,-145.283,360
1570003907,299.033,-41.1882,-16.7432,179.67,1.31836,-145.283,364
1570003907,299.033,-41.1882,-16.7432,179.67,1.31836,-145.283,364
1570003907,299.033,-41.1882,-16.7432,179.648,1.34033,-145.283,364
1570003907,299.033,-41.1882,-16.7432,179.648,1.34033,-145.283,364
1570003907,299.033,-41.1882,-16.7432,179.648,1.34033,-145.283,364
1570003907,299.033,-41.1882,-16.7432,179.648,1.31836,-145.283,364
1570003907,299.033,-41.1882,-16.7432,179.648,1.31836,-145.283,364
1570003907,299.033,-41.2998,-16.7432,179.648,1.31836,-145.283,364
1570003907,299.033,-41.2998,-16.7432,179.648,1.31836,-145.283,364
1570003907,299.033,-41.2998,-16.7432,179.648,1.31836,-145.283,364
1570003907,299.033,-41.2998,-16.7432,179.648,1.31836,-145.283,364
1570003907,299.033,-41.2998,-16.7432,179.648,1.31836,-145.283,364
1570003907,299.033,-41.2998,-16.7432,179.648,1.31836,-145.283,364
1570003907,299.033,-41.2998,-16.7432,179.648,1.31836,-145.283,364
1570003907,299.033,-41.2998,-16.7432,179.648,1.31836,-145.283,364
1570003907,299.033,-41.2998,-16.7432,179.648,1.31836,-145.283,360
1570003907,299.033,-41.2998,-16.7432,179.648,1.31836,-145.283,360
1570003907,299.033,-41.2998,-16.7432,179.648,1.31836,-145.283,360
1570003907,299.033,-41.2998,-16.7432,179.648,1.31836,-145.283,360
1570003907,299.033,-41.2998,-16.7432,179.648,1.31836,-145.283,360
1570003907,299.033,-41.2998,-16.7432,179.648,1.31836,-145.283,360
1570003907,299.033,-41.2998,-16.7432,179.648,1.31836,-145.283,360
1570003907,299.033,-41.2998,-16.7432,179.648,1.31836,-145.283,356
1570003907,299.033,-41.2998,-16.7432,179.648,1.31836,-145.283,356
1570003907,299.033,-41.2998,-16.7432,179.648,1.31836,-145.283,356
1570003907,299.033,-41.2998,-16.7432,179.626,1.31836,-145.283,356
1570003907,299.033,-41.2998,-16.7432,179.626,1.31836,-145.283,356
1570003907,299.033,-41.2998,-16.7432,179.626,1.31836,-145.283,356
1570003907,299.033,-41.2998,-16.7432,179.626,1.31836,-145.283,360
1570003907,299.033,-41.2998,-16.7432,179.626,1.31836,-145.283,360
1570003907,299.033,-41.2998,-16.7432,179.626,1.31836,-145.283,360
1570003907,299.033,-41.2998,-16.7432,179.626,1.31836,-145.283,360
1570003907,299.033,-41.2998,-16.7432,179.626,1.31836,-145.283,360
1570003907,299.033,-41.2998,-16.7432,179.626,1.31836,-145.261,360
1570003907,299.033,-41.2998,-16.7432,179.626,1.31836,-145.261,360
1570003907,299.033,-41.2998,-16.7432,179.626,1.31836,-145.261,360
1570003907,299.033,-41.2998,-16.7432,179.626,1.31836,-145.261,360
1570003907,299.033,-41.2998,-16.7432,179.626,1.31836,-145.261,356
1570003907,299.033,-41.2998,-16.7432,179.626,1.31836,-145.261,356
1570003907,299.033,-41.2998,-16.7432,179.626,1.31836,-145.261,356
1570003907,299.033,-41.2998,-16.7432,179.626,1.31836,-145.261,356
1570003907,299.033,-41.2998,-16.7432,179.626,1.31836,-145.261,352
1570003907,299.033,-41.2998,-16.7432,179.626,1.31836,-145.283,352
1570003907,299.033,-41.2998,-16.7432,179.626,1.31836,-145.283,352
1570003907,299.033,-41.2998,-16.7432,179.626,1.31836,-145.283,348
1570003907,299.033,-41.2998,-16.7432,179.626,1.31836,-145.283,348
1570003907,299.033,-41.2998,-16.7432,179.626,1.31836,-145.283,348
1570003907,299.033,-41.2998,-16.7432,179.626,1.31836,-145.283,348
1570003907,299.033,-41.2998,-16.7432,179.626,1.31836,-145.283,344
1570003907,299.033,-41.2998,-16.7432,179.626,1.31836,-145.283,344
1570003907,299.033,-41.2998,-16.7432,179.626,1.31836,-145.283,344
1570003907,299.033,-41.2998,-16.7432,179.626,1.31836,-145.283,344
1570003907,299.033,-41.2998,-16.7432,179.626,1.31836,-145.283,344
1570003907,299.033,-41.2998,-16.7432,179.626,1.31836,-145.283,344
1570003907,299.033,-41.2998,-16.7432,179.626,1.31836,-145.283,344
1570003907,299.033,-41.2998,-16.7432,179.626,1.31836,-145.283,344
1570003907,299.033,-41.2998,-16.7432,179.626,1.31836,-145.283,344
1570003907,299.033,-41.2998,-16.7432,179.626,1.31836,-145.283,344
1570003907,299.033,-41.2998,-16.7432,179.626,1.31836,-145.283,344
1570003907,299.033,-41.2998,-16.7432,179.626,1.31836,-145.283,344
1570003907,299.033,-41.2998,-16.7432,179.626,1.31836,-145.283,344
1570003907,299.033,-41.2998,-16.7432,179.626,1.31836,-145.283,344
1570003907,299.033,-41.2998,-16.7432,179.626,1.31836,-145.283,344
1570003907,299.033,-41.2998,-16.7432,179.626,1.31836,-145.283,344
1570003907,299.033,-41.2998,-16.7432,179.626,1.31836,-145.283,344
1570003907,299.033,-41.2998,-16.7432,179.626,1.31836,-145.283,344
1570003907,299.033,-41.2998,-16.7432,179.626,1.31836,-145.283,344
1570003907,299.033,-41.2998,-16.7432,179.648,1.31836,-145.283,344
1570003907,299.033,-41.2998,-16.7432,179.648,1.31836,-145.283,344
1570003907,299.033,-41.2998,-16.7432,179.648,1.31836,-145.283,344
1570003907,299.033,-41.2998,-16.7432,179.648,1.31836,-145.283,344
1570003907,299.033,-41.2998,-16.7432,179.648,1.31836,-145.283,344
1570003907,299.033,-41.2998,-16.7432,179.648,1.31836,-145.283,344
1570003907,299.033,-41.2998,-16.7432,179.648,1.31836,-145.283,344
1570003907,299.033,-41.2998,-16.7432,179.648,1.31836,-145.283,344
1570003907,299.033,-41.2998,-16.7432,179.648,1.31836,-145.283,348
1570003907,299.033,-41.2998,-16.7432,179.648,1.31836,-145.283,348
1570003907,299.033,-41.2998,-16.7432,179.648,1.31836,-145.283,348
1570003907,299.033,-41.2998,-16.7432,179.648,1.31836,-145.283,348
1570003907,299.033,-41.2998,-16.7432,179.648,1.31836,-145.283,348
1570003908,299.033,-41.2998,-16.7432,179.648,1.34033,-145.283,348
1570003908,299.033,-41.2998,-16.7432,179.648,1.34033,-145.283,348
1570003908,299.033,-41.2998,-16.7432,179.648,1.34033,-145.283,348
1570003908,299.033,-41.2998,-16.7432,179.648,1.34033,-145.283,348
1570003908,299.033,-41.2998,-16.7432,179.648,1.34033,-145.283,348
1570003908,299.033,-41.2998,-16.7432,179.648,1.34033,-145.283,348
1570003908,299.033,-41.2998,-16.7432,179.648,1.34033,-145.283,348
1570003908,299.033,-41.2998,-16.7432,179.648,1.34033,-145.283,348
1570003908,299.033,-41.2998,-16.7432,179.648,1.34033,-145.283,348
1570003908,299.033,-41.2998,-16.7432,179.648,1.34033,-145.283,348
1570003908,299.033,-41.2998,-16.7432,179.648,1.34033,-145.283,348
1570003908,299.033,-41.2998,-16.7432,179.648,1.34033,-145.283,348
1570003908,299.033,-41.2998,-16.7432,179.648,1.31836,-145.261,348
1570003908,299.033,-41.2998,-16.7432,179.648,1.31836,-145.261,348
1570003908,299.033,-41.2998,-16.7432,179.648,1.31836,-145.261,348
1570003908,299.033,-41.2998,-16.7432,179.648,1.31836,-145.261,348
1570003908,299.033,-41.2998,-16.7432,179.648,1.31836,-145.261,352
1570003908,299.033,-41.2998,-16.7432,179.648,1.31836,-145.261,352
1570003908,299.033,-41.2998,-16.7432,179.648,1.31836,-145.261,352
1570003908,299.033,-41.2998,-16.7432,179.648,1.31836,-145.261,352
1570003908,299.033,-41.2998,-16.7432,179.648,1.31836,-145.261,352
1570003908,299.033,-41.2998,-16.7432,179.626,1.31836,-145.261,352
1570003908,299.033,-41.2998,-16.7432,179.626,1.31836,-145.261,352
1570003908,299.033,-41.2998,-16.7432,179.626,1.31836,-145.261,352
1570003908,299.033,-41.2998,-16.7432,179.626,1.31836,-145.261,352
1570003908,299.033,-41.2998,-16.7432,179.626,1.31836,-145.261,352
1570003908,299.033,-41.2998,-16.7432,179.626,1.31836,-145.261,352
1570003908,299.033,-41.2998,-16.7432,179.626,1.31836,-145.261,352
1570003908,299.033,-41.2998,-16.7432,179.626,1.31836,-145.261,352
1570003908,299.033,-41.2998,-16.7432,179.626,1.31836,-145.261,352
1570003908,299.033,-41.2998,-16.7432,179.626,1.31836,-145.261,352
1570003908,299.033,-41.2998,-16.7432,179.626,1.31836,-145.261,352
1570003908,299.033,-41.2998,-16.7432,179.626,1.31836,-145.261,352
1570003908,299.033,-41.2998,-16.7432,179.626,1.31836,-145.261,352
1570003908,299.033,-41.2998,-16.7432,179.626,1.31836,-145.261,356
1570003908,299.033,-41.2998,-16.7432,179.626,1.31836,-145.261,356
1570003908,299.033,-41.2998,-16.7432,179.626,1.31836,-145.261,356
1570003908,299.033,-41.2998,-16.7432,179.626,1.31836,-145.261,356
1570003908,299.033,-41.2998,-16.7432,179.626,1.31836,-145.261,356
1570003908,299.033,-41.2998,-16.7432,179.626,1.34033,-145.261,356
1570003908,299.033,-41.2998,-16.7432,179.626,1.34033,-145.261,356
1570003908,299.033,-41.2998,-16.7432,179.626,1.34033,-145.261,356
1570003908,299.033,-41.2998,-16.7432,179.648,1.34033,-145.261,356
1570003908,299.033,-41.2998,-16.7432,179.648,1.34033,-145.261,360
1570003908,299.033,-41.2998,-16.7432,179.648,1.34033,-145.261,360
1570003908,299.033,-41.2998,-16.7432,179.648,1.34033,-145.261,360
1570003908,299.033,-41.2998,-16.7432,179.648,1.34033,-145.261,360
1570003908,299.033,-41.2998,-16.7432,179.648,1.34033,-145.261,360
1570003908,299.033,-41.2998,-16.7432,179.648,1.34033,-145.261,360
1570003908,299.033,-41.2998,-16.7432,179.648,1.34033,-145.261,360
1570003908,299.033,-41.2998,-16.7432,179.648,1.34033,-145.261,360
1570003908,299.033,-41.2998,-16.7432,179.648,1.34033,-145.261,360
1570003908,299.033,-41.2998,-16.7432,179.648,1.34033,-145.261,356
1570003908,299.033,-41.2998,-16.7432,179.648,1.34033,-145.261,356
1570003908,299.145,-41.2998,-16.7432,179.648,1.34033,-145.261,356
1570003908,299.145,-41.2998,-16.7432,179.648,1.34033,-145.261,356
1570003908,299.145,-41.2998,-16.7432,179.648,1.34033,-145.261,356
1570003908,299.145,-41.2998,-16.7432,179.648,1.34033,-145.261,352
1570003908,299.145,-41.2998,-16.7432,179.648,1.34033,-145.261,352
1570003908,299.145,-41.2998,-16.7432,179.648,1.34033,-145.261,352
1570003908,299.145,-41.2998,-16.7432,179.648,1.34033,-145.261,352
1570003908,299.145,-41.2998,-16.7432,179.648,1.34033,-145.261,352
1570003908,299.033,-41.2998,-16.7432,179.648,1.34033,-145.261,352
1570003908,299.033,-41.2998,-16.7432,179.648,1.34033,-145.261,352
1570003908,299.033,-41.2998,-16.7432,179.648,1.34033,-145.261,352
1570003908,299.033,-41.2998,-16.7432,179.648,1.34033,-145.261,348
1570003908,299.033,-41.2998,-16.7432,179.648,1.34033,-145.261,348
1570003908,299.033,-41.2998,-16.7432,179.648,1.31836,-145.261,348
1570003908,299.033,-41.2998,-16.7432,179.648,1.31836,-145.261,348
1570003908,299.033,-41.2998,-16.7432,179.648,1.31836,-145.261,348
1570003908,299.033,-41.2998,-16.7432,179.648,1.31836,-145.261,348
1570003908,299.033,-41.2998,-16.7432,179.648,1.31836,-145.261,348
1570003908,299.033,-41.2998,-16.7432,179.648,1.31836,-145.261,352
1570003908,299.033,-41.2998,-16.7432,179.648,1.31836,-145.261,352
1570003908,299.033,-41.2998,-16.7432,179.648,1.31836,-145.261,352
1570003908,299.033,-41.2998,-16.7432,179.648,1.31836,-145.261,352
1570003908,299.033,-41.2998,-16.7432,179.648,1.31836,-145.261,352
1570003908,299.033,-41.2998,-16.7432,179.648,1.31836,-145.261,352
1570003908,299.033,-41.2998,-16.7432,179.648,1.31836,-145.261,348
1570003908,299.033,-41.2998,-16.7432,179.648,1.31836,-145.261,348
1570003908,299.033,-41.2998,-16.7432,179.648,1.31836,-145.261,348
1570003908,299.033,-41.2998,-16.7432,179.648,1.31836,-145.261,348
1570003908,299.033,-41.2998,-16.7432,179.648,1.31836,-145.261,348
1570003908,299.033,-41.2998,-16.7432,179.648,1.31836,-145.261,348
1570003908,299.033,-41.2998,-16.7432,179.648,1.31836,-145.261,348
1570003908,299.145,-41.2998,-16.7432,179.648,1.31836,-145.261,348
1570003908,299.145,-41.2998,-16.7432,179.648,1.31836,-145.261,348
1570003908,299.145,-41.2998,-16.7432,179.648,1.31836,-145.261,348
1570003908,299.145,-41.2998,-16.7432,179.648,1.31836,-145.261,348
1570003908,299.145,-41.2998,-16.7432,179.648,1.31836,-145.261,348
1570003908,299.145,-41.2998,-16.7432,179.648,1.31836,-145.261,348
1570003908,299.145,-41.2998,-16.7432,179.648,1.31836,-145.261,348
1570003908,299.145,-41.2998,-16.7432,179.648,1.31836,-145.261,348
1570003908,299.145,-41.2998,-16.7432,179.648,1.31836,-145.261,348
1570003908,299.145,-41.2998,-16.7432,179.648,1.31836,-145.261,344
1570003908,299.145,-41.2998,-16.7432,179.648,1.31836,-145.261,344
1570003908,299.145,-41.2998,-16.7432,179.648,1.31836,-145.261,344
1570003908,299.145,-41.2998,-16.7432,179.648,1.31836,-145.261,348
1570003908,299.145,-41.2998,-16.7432,179.648,1.31836,-145.261,348
1570003908,299.145,-41.2998,-16.7432,179.648,1.31836,-145.261,348
1570003909,299.145,-41.2998,-16.7432,179.648,1.31836,-145.261,348
1570003909,299.145,-41.2998,-16.7432,179.648,1.31836,-145.261,348
1570003909,299.145,-41.2998,-16.7432,179.648,1.31836,-145.261,348
1570003909,299.145,-41.2998,-16.7432,179.648,1.31836,-145.261,348
1570003909,299.145,-41.2998,-16.7432,179.648,1.31836,-145.261,348
1570003909,299.145,-41.2998,-16.7432,179.648,1.31836,-145.261,348
1570003909,299.145,-41.2998,-16.7432,179.648,1.31836,-145.283,348
1570003909,299.145,-41.2998,-16.7432,179.648,1.31836,-145.283,348
1570003909,299.145,-41.2998,-16.7432,179.648,1.31836,-145.283,348
1570003909,299.145,-41.2998,-16.7432,179.648,1.31836,-145.283,348
1570003909,299.145,-41.2998,-16.7432,179.648,1.31836,-145.283,348
1570003909,299.145,-41.2998,-16.7432,179.648,1.31836,-145.283,348
1570003909,299.145,-41.2998,-16.7432,179.648,1.31836,-145.261,348
1570003909,299.145,-41.2998,-16.7432,179.648,1.31836,-145.261,348
1570003909,299.033,-41.2998,-16.7432,179.648,1.31836,-145.261,348
1570003909,299.033,-41.2998,-16.7432,179.648,1.31836,-145.261,348
1570003909,299.033,-41.2998,-16.7432,179.648,1.31836,-145.261,348
1570003909,299.033,-41.2998,-16.7432,179.648,1.31836,-145.261,348
1570003909,299.033,-41.2998,-16.7432,179.648,1.31836,-145.261,348
1570003909,299.033,-41.2998,-16.7432,179.648,1.31836,-145.261,348
1570003909,299.033,-41.2998,-16.7432,179.648,1.31836,-145.261,352
1570003909,299.033,-41.2998,-16.7432,179.648,1.31836,-145.261,352
1570003909,299.033,-41.2998,-16.7432,179.648,1.31836,-145.261,352
1570003909,299.033,-41.2998,-16.7432,179.648,1.31836,-145.261,352
1570003909,299.033,-41.2998,-16.7432,179.626,1.31836,-145.261,352
1570003909,299.033,-41.2998,-16.7432,179.626,1.31836,-145.261,352
1570003909,299.033,-41.2998,-16.7432,179.626,1.31836,-145.261,352
1570003909,299.033,-41.2998,-16.7432,179.626,1.31836,-145.283,352
1570003909,299.033,-41.2998,-16.7432,179.648,1.31836,-145.283,356
1570003909,299.033,-41.2998,-16.7432,179.648,1.31836,-145.283,356
1570003909,299.033,-41.2998,-16.7432,179.626,1.31836,-145.283,356
1570003909,299.033,-41.2998,-16.7432,179.626,1.31836,-145.283,356
1570003909,299.033,-41.2998,-16.7432,179.626,1.31836,-145.283,356
1570003909,299.033,-41.2998,-16.7432,179.626,1.31836,-145.283,356
1570003909,299.033,-41.2998,-16.7432,179.626,1.31836,-145.283,356
1570003909,299.145,-41.2998,-16.7432,179.626,1.31836,-145.283,352
1570003909,299.145,-41.2998,-16.7432,179.626,1.34033,-145.283,352
1570003909,299.145,-41.2998,-16.7432,179.626,1.34033,-145.283,352
1570003909,299.033,-41.2998,-16.7432,179.626,1.34033,-145.283,352
1570003909,299.033,-41.2998,-16.7432,179.626,1.34033,-145.283,352
1570003909,299.033,-41.2998,-16.7432,179.626,1.34033,-145.283,352
1570003909,299.033,-41.2998,-16.7432,179.626,1.34033,-145.283,352
1570003909,299.033,-41.2998,-16.6315,179.626,1.34033,-145.283,352
1570003909,299.033,-41.2998,-16.6315,179.626,1.34033,-145.261,352
1570003909,299.033,-41.2998,-16.6315,179.626,1.34033,-145.283,352
1570003909,299.033,-41.2998,-16.6315,179.626,1.34033,-145.283,352
1570003909,299.033,-41.2998,-16.6315,179.626,1.34033,-145.283,352
1570003909,299.033,-41.2998,-16.6315,179.626,1.34033,-145.283,352
1570003909,299.033,-41.2998,-16.6315,179.626,1.34033,-145.283,352
1570003909,299.033,-41.2998,-16.6315,179.626,1.34033,-145.261,352
1570003909,299.033,-41.2998,-16.6315,179.626,1.34033,-145.261,352
1570003909,299.033,-41.2998,-16.6315,179.626,1.34033,-145.261,352
1570003909,299.033,-41.2998,-16.7432,179.626,1.34033,-145.261,352
1570003909,299.033,-41.2998,-16.7432,179.626,1.34033,-145.261,352
1570003909,299.145,-41.2998,-16.7432,179.626,1.34033,-145.261,352
1570003909,299.145,-41.2998,-16.7432,179.626,1.34033,-145.261,352
1570003909,299.145,-41.2998,-16.7432,179.626,1.34033,-145.261,352
1570003909,299.145,-41.2998,-16.7432,179.626,1.34033,-145.261,352
1570003909,299.145,-41.2998,-16.6315,179.626,1.34033,-145.261,352
1570003909,299.145,-41.2998,-16.6315,179.626,1.34033,-145.261,352
1570003909,299.145,-41.2998,-16.6315,179.626,1.34033,-145.261,352
1570003909,299.145,-41.2998,-16.6315,179.626,1.34033,-145.261,352
1570003909,299.145,-41.2998,-16.6315,179.626,1.34033,-145.261,352
1570003909,299.145,-41.2998,-16.6315,179.626,1.34033,-145.283,352
1570003909,299.145,-41.2998,-16.6315,179.626,1.34033,-145.283,348
1570003909,299.145,-41.2998,-16.6315,179.626,1.34033,-145.283,348
1570003909,299.033,-41.2998,-16.6315,179.626,1.34033,-145.283,348
1570003909,299.033,-41.2998,-16.6315,179.626,1.34033,-145.283,348
1570003909,299.033,-41.2998,-16.6315,179.626,1.34033,-145.283,348
1570003909,299.033,-41.2998,-16.6315,179.626,1.34033,-145.283,348
1570003909,299.033,-41.2998,-16.6315,179.626,1.34033,-145.283,348
1570003909,299.033,-41.2998,-16.6315,179.626,1.34033,-145.283,348
1570003909,299.033,-41.2998,-16.6315,179.626,1.34033,-145.283,348
1570003909,299.033,-41.2998,-16.6315,179.626,1.34033,-145.283,348
1570003909,299.033,-41.2998,-16.6315,179.626,1.34033,-145.283,348
1570003909,299.033,-41.2998,-16.6315,179.626,1.34033,-145.283,348
1570003909,299.033,-41.2998,-16.6315,179.648,1.34033,-145.283,348
1570003909,299.033,-41.2998,-16.6315,179.648,1.34033,-145.283,348
1570003909,299.033,-41.2998,-16.6315,179.648,1.34033,-145.283,348
1570003909,299.033,-41.2998,-16.6315,179.648,1.34033,-145.283,348
1570003909,299.033,-41.2998,-16.6315,179.648,1.34033,-145.283,348
1570003909,299.033,-41.2998,-16.6315,179.648,1.34033,-145.283,348
1570003909,299.033,-41.2998,-16.6315,179.648,1.34033,-145.283,348
1570003909,299.033,-41.2998,-16.6315,179.648,1.34033,-145.283,348
1570003909,299.033,-41.2998,-16.6315,179.648,1.34033,-145.283,348
1570003909,299.033,-41.2998,-16.6315,179.648,1.34033,-145.283,348
1570003909,299.033,-41.2998,-16.6315,179.648,1.34033,-145.283,348
1570003909,299.033,-41.2998,-16.6315,179.648,1.34033,-145.283,348
1570003909,299.033,-41.2998,-16.6315,179.648,1.34033,-145.283,348
1570003909,299.033,-41.2998,-16.6315,179.648,1.34033,-145.283,348
1570003909,299.033,-41.2998,-16.6315,179.648,1.34033,-145.283,348
1570003909,299.033,-41.2998,-16.6315,179.648,1.34033,-145.283,348
1570003909,299.033,-41.2998,-16.6315,179.648,1.34033,-145.283,348
1570003909,299.033,-41.2998,-16.6315,179.648,1.34033,-145.283,348
1570003909,299.033,-41.2998,-16.6315,179.648,1.34033,-145.283,344
1570003909,299.033,-41.2998,-16.6315,179.648,1.34033,-145.283,344
1570003909,299.033,-41.2998,-16.6315,179.648,1.34033,-145.283,344
1570003909,299.033,-41.2998,-16.6315,179.648,1.34033,-145.283,344
1570003909,299.033,-41.2998,-16.6315,179.648,1.34033,-145.283,344
1570003909,299.033,-41.2998,-16.6315,179.648,1.34033,-145.283,344
1570003910,299.033,-41.2998,-16.6315,179.648,1.34033,-145.283,344
1570003910,299.033,-41.2998,-16.6315,179.648,1.34033,-145.283,344
1570003910,299.033,-41.2998,-16.6315,179.648,1.34033,-145.283,344
1570003910,299.033,-41.2998,-16.6315,179.648,1.34033,-145.283,344
1570003910,299.033,-41.2998,-16.6315,179.648,1.34033,-145.283,344
1570003910,299.033,-41.2998,-16.6315,179.648,1.34033,-145.283,344
1570003910,299.033,-41.2998,-16.6315,179.648,1.34033,-145.283,344
1570003910,299.033,-41.2998,-16.6315,179.648,1.34033,-145.283,344
1570003910,299.033,-41.2998,-16.6315,179.648,1.34033,-145.283,344
1570003910,299.033,-41.2998,-16.6315,179.648,1.34033,-145.283,344
1570003910,299.033,-41.2998,-16.6315,179.626,1.34033,-145.283,344
1570003910,299.033,-41.2998,-16.6315,179.626,1.34033,-145.283,344
1570003910,299.033,-41.2998,-16.6315,179.626,1.34033,-145.283,344
1570003910,299.033,-41.2998,-16.6315,179.626,1.34033,-145.283,344
1570003910,299.033,-41.2998,-16.6315,179.626,1.34033,-145.283,344
1570003910,299.033,-41.2998,-16.6315,179.626,1.34033,-145.283,344
1570003910,299.033,-41.2998,-16.6315,179.626,1.34033,-145.283,344
1570003910,299.033,-41.2998,-16.7432,179.626,1.34033,-145.283,344
1570003910,299.033,-41.2998,-16.7432,179.626,1.34033,-145.283,344
1570003910,299.033,-41.2998,-16.7432,179.626,1.34033,-145.283,344
1570003910,299.033,-41.2998,-16.7432,179.626,1.34033,-145.283,344
1570003910,299.033,-41.2998,-16.7432,179.626,1.34033,-145.283,344
1570003910,299.033,-41.2998,-16.7432,179.626,1.34033,-145.283,344
1570003910,299.033,-41.2998,-16.7432,179.626,1.34033,-145.283,344
1570003910,299.033,-41.2998,-16.7432,179.626,1.34033,-145.283,344
1570003910,299.033,-41.2998,-16.7432,179.626,1.34033,-145.283,344
1570003910,299.033,-41.2998,-16.7432,179.626,1.34033,-145.283,344
1570003910,299.033,-41.2998,-16.7432,179.626,1.34033,-145.283,344
1570003914,314.437,-57.8197,-16.7432,179.714,1.12061,-144.734,372
1570003914,314.437,-57.8197,-16.7432,179.714,1.12061,-144.734,372
1570003914,314.437,-57.8197,-16.7432,179.714,1.12061,-144.734,372
1570003914,314.437,-57.8197,-16.7432,179.714,1.12061,-144.734,368
1570003914,314.437,-57.8197,-16.7432,179.714,1.12061,-144.734,368
1570003914,314.437,-57.8197,-16.7432,179.714,1.12061,-144.734,368
1570003914,314.437,-57.8197,-16.8548,179.714,1.09863,-144.756,364
1570003914,314.437,-57.8197,-16.8548,179.714,1.09863,-144.756,364
1570003914,314.437,-57.8197,-16.8548,179.714,1.09863,-144.756,364
1570003914,314.437,-57.8197,-16.8548,179.714,1.09863,-144.756,364
1570003914,314.437,-57.8197,-16.8548,179.714,1.09863,-144.756,360
1570003914,314.437,-57.8197,-16.8548,179.714,1.09863,-144.734,360
1570003914,314.437,-57.8197,-16.8548,179.714,1.09863,-144.734,360
1570003914,314.437,-57.8197,-16.8548,179.714,1.09863,-144.734,360
1570003914,314.437,-57.8197,-16.8548,179.714,1.09863,-144.734,356
1570003914,314.437,-57.8197,-16.8548,179.714,1.09863,-144.734,356
1570003914,314.437,-57.8197,-16.8548,179.714,1.09863,-144.734,356
1570003914,314.437,-57.8197,-16.8548,179.714,1.09863,-144.734,356
1570003914,314.437,-57.8197,-16.8548,179.714,1.09863,-144.734,356
1570003914,314.437,-57.8197,-16.8548,179.714,1.09863,-144.734,356
1570003914,314.437,-57.8197,-16.8548,179.714,1.09863,-144.734,356
1570003914,314.437,-57.8197,-16.8548,179.714,1.09863,-144.734,356
1570003914,314.437,-57.8197,-16.8548,179.714,1.09863,-144.734,356
1570003914,314.437,-57.8197,-16.8548,179.714,1.09863,-144.734,356
1570003914,314.437,-57.8197,-16.8548,179.714,1.09863,-144.734,356
1570003914,314.437,-57.8197,-16.8548,179.714,1.09863,-144.734,356
1570003914,314.437,-57.8197,-16.8548,179.714,1.09863,-144.734,360
1570003914,314.437,-57.8197,-16.8548,179.714,1.09863,-144.734,360
1570003914,314.437,-57.8197,-16.8548,179.714,1.09863,-144.734,360
1570003914,314.437,-57.8197,-16.8548,179.714,1.09863,-144.734,360
1570003914,314.437,-57.8197,-16.8548,179.714,1.09863,-144.734,360
1570003914,314.437,-57.8197,-16.8548,179.714,1.09863,-144.734,360
1570003914,314.437,-57.8197,-16.8548,179.714,1.09863,-144.734,360
1570003914,314.437,-57.8197,-16.8548,179.714,1.09863,-144.734,360
1570003914,314.437,-57.8197,-16.8548,179.714,1.09863,-144.734,360
1570003914,314.437,-57.8197,-16.8548,179.714,1.09863,-144.734,360
1570003914,314.437,-57.8197,-16.8548,179.714,1.09863,-144.734,364
1570003914,314.437,-57.8197,-16.8548,179.714,1.09863,-144.734,364
1570003914,314.437,-57.8197,-16.8548,179.714,1.09863,-144.734,364
1570003914,314.437,-57.8197,-16.8548,179.714,1.09863,-144.734,364
1570003914,314.437,-57.8197,-16.8548,179.714,1.09863,-144.734,364
1570003914,314.437,-57.8197,-16.8548,179.714,1.09863,-144.734,364
1570003914,314.437,-57.8197,-16.8548,179.714,1.09863,-144.734,364
1570003914,314.437,-57.8197,-16.8548,179.714,1.09863,-144.734,364
1570003914,314.437,-57.8197,-16.8548,179.714,1.09863,-144.734,364
1570003914,314.437,-57.8197,-16.8548,179.714,1.09863,-144.734,364
1570003914,314.437,-57.8197,-16.8548,179.714,1.09863,-144.734,364
1570003914,314.437,-57.8197,-16.8548,179.714,1.12061,-144.734,364
1570003914,314.437,-57.8197,-16.8548,179.714,1.12061,-144.734,364
1570003915,314.437,-57.8197,-16.8548,179.714,1.12061,-144.734,364
1570003915,314.437,-57.8197,-16.8548,179.714,1.12061,-144.734,364
1570003915,314.437,-57.8197,-16.8548,179.714,1.12061,-144.734,364
1570003915,314.437,-57.8197,-16.8548,179.714,1.12061,-144.734,364
1570003915,314.437,-57.8197,-16.8548,179.714,1.12061,-144.734,364
1570003915,314.437,-57.8197,-16.7432,179.714,1.12061,-144.734,364
1570003915,314.437,-57.8197,-16.7432,179.714,1.12061,-144.734,364
1570003915,314.437,-57.8197,-16.7432,179.714,1.12061,-144.734,364
1570003915,314.437,-57.8197,-16.7432,179.714,1.12061,-144.734,364
1570003915,314.437,-57.8197,-16.7432,179.714,1.12061,-144.734,364
1570003915,314.437,-57.8197,-16.7432,179.714,1.12061,-144.734,364
1570003915,314.437,-57.8197,-16.7432,179.714,1.12061,-144.734,364
1570003915,314.437,-57.8197,-16.7432,179.714,1.12061,-144.734,364
1570003915,314.437,-57.8197,-16.7432,179.714,1.12061,-144.734,364
1570003915,314.437,-57.8197,-16.7432,179.714,1.12061,-144.734,364
1570003915,314.437,-57.8197,-16.7432,179.714,1.12061,-144.734,364
1570003915,314.437,-57.8197,-16.7432,179.714,1.12061,-144.734,364
1570003915,314.437,-57.8197,-16.7432,179.714,1.12061,-144.756,364
1570003915,314.437,-57.8197,-16.7432,179.714,1.12061,-144.756,364
1570003915,314.437,-57.8197,-16.8548,179.714,1.12061,-144.756,364
1570003915,314.437,-57.8197,-16.8548,179.714,1.12061,-144.756,368
1570003915,314.437,-57.8197,-16.8548,179.714,1.09863,-144.756,368
1570003915,314.437,-57.8197,-16.8548,179.714,1.09863,-144.756,368
1570003915,314.437,-57.8197,-16.8548,179.714,1.09863,-144.756,368
1570003915,314.437,-57.8197,-16.8548,179.714,1.09863,-144.756,368
1570003915,314.437,-57.8197,-16.8548,179.714,1.09863,-144.756,368
1570003915,314.437,-57.8197,-16.8548,179.714,1.09863,-144.756,368
1570003915,314.437,-57.8197,-16.8548,179.714,1.09863,-144.734,372
1570003915,314.437,-57.8197,-16.8548,179.714,1.09863,-144.734,372
1570003915,314.325,-57.8197,-16.8548,179.714,1.09863,-144.756,372
1570003915,314.325,-57.8197,-16.8548,179.714,1.09863,-144.756,372
1570003915,314.325,-57.8197,-16.8548,179.714,1.09863,-144.756,372
1570003915,314.325,-57.8197,-16.8548,179.714,1.09863,-144.756,372
1570003915,314.325,-57.8197,-16.8548,179.714,1.09863,-144.756,372
1570003915,314.325,-57.8197,-16.8548,179.692,1.09863,-144.756,372
1570003915,314.325,-57.8197,-16.8548,179.692,1.09863,-144.756,372
1570003915,314.325,-57.8197,-16.8548,179.692,1.09863,-144.756,372
1570003915,314.325,-57.8197,-16.8548,179.692,1.09863,-144.756,372
1570003915,314.325,-57.8197,-16.8548,179.692,1.09863,-144.756,372
1570003915,314.325,-57.8197,-16.8548,179.692,1.09863,-144.756,372
1570003915,314.325,-57.8197,-16.8548,179.692,1.09863,-144.734,372
1570003915,314.325,-57.8197,-16.8548,179.692,1.09863,-144.734,376
1570003915,314.325,-57.8197,-16.8548,179.692,1.09863,-144.734,376
1570003915,314.325,-57.8197,-16.8548,179.692,1.09863,-144.734,376
1570003915,314.325,-57.8197,-16.8548,179.692,1.09863,-144.734,376
1570003915,314.325,-57.8197,-16.8548,179.692,1.09863,-144.734,372
1570003915,314.325,-57.8197,-16.8548,179.692,1.09863,-144.734,372
1570003915,314.325,-57.8197,-16.8548,179.692,1.09863,-144.734,372
1570003915,314.325,-57.8197,-16.8548,179.692,1.09863,-144.734,372
1570003915,314.325,-57.8197,-16.8548,179.692,1.09863,-144.734,372
1570003915,314.325,-57.8197,-16.8548,179.692,1.09863,-144.734,372
1570003915,314.325,-57.8197,-16.8548,179.692,1.09863,-144.734,372
1570003915,314.325,-57.8197,-16.8548,179.692,1.09863,-144.734,372
1570003915,314.325,-57.8197,-16.8548,179.692,1.09863,-144.734,372
1570003915,314.325,-57.8197,-16.8548,179.692,1.09863,-144.734,372
1570003915,314.325,-57.8197,-16.8548,179.692,1.09863,-144.734,372
1570003915,314.325,-57.8197,-16.8548,179.692,1.09863,-144.734,372
1570003915,314.325,-57.8197,-16.8548,179.692,1.09863,-144.734,372
1570003915,314.325,-57.8197,-16.8548,179.692,1.09863,-144.734,372
1570003915,314.325,-57.8197,-16.8548,179.692,1.09863,-144.734,372
1570003915,314.325,-57.8197,-16.8548,179.692,1.07666,-144.734,372
1570003915,314.325,-57.8197,-16.8548,179.692,1.07666,-144.734,372
1570003915,314.325,-57.8197,-16.8548,179.692,1.07666,-144.734,372
1570003915,314.325,-57.8197,-16.8548,179.692,1.09863,-144.734,372
1570003915,314.325,-57.8197,-16.8548,179.692,1.09863,-144.734,372
1570003915,314.325,-57.8197,-16.8548,179.692,1.09863,-144.734,372
1570003915,314.325,-57.8197,-16.8548,179.692,1.09863,-144.734,372
1570003915,314.325,-57.8197,-16.8548,179.692,1.09863,-144.734,372
1570003915,314.325,-57.8197,-16.8548,179.692,1.09863,-144.734,372
1570003915,314.325,-57.8197,-16.8548,179.692,1.09863,-144.734,372
1570003915,314.325,-57.8197,-16.8548,179.692,1.09863,-144.734,372
1570003915,314.325,-57.8197,-16.8548,179.692,1.09863,-144.734,372
1570003915,314.325,-57.8197,-16.8548,179.692,1.09863,-144.734,372
1570003915,314.325,-57.8197,-16.8548,179.692,1.09863,-144.734,372
1570003915,314.325,-57.8197,-16.8548,179.692,1.09863,-144.734,372
1570003915,314.325,-57.8197,-16.8548,179.692,1.09863,-144.734,372
1570003915,314.325,-57.8197,-16.8548,179.692,1.09863,-144.734,372
1570003915,314.325,-57.8197,-16.8548,179.692,1.09863,-144.734,372
1570003915,314.325,-57.8197,-16.8548,179.692,1.09863,-144.734,372
1570003915,314.325,-57.8197,-16.8548,179.692,1.09863,-144.734,372
1570003915,314.325,-57.8197,-16.8548,179.692,1.09863,-144.734,372
1570003915,314.325,-57.8197,-16.8548,179.692,1.09863,-144.734,372
1570003915,314.325,-57.8197,-16.8548,179.692,1.09863,-144.734,372
1570003915,314.325,-57.8197,-16.8548,179.692,1.09863,-144.734,372
1570003915,314.325,-57.8197,-16.8548,179.714,1.09863,-144.734,372
1570003915,314.325,-57.8197,-16.8548,179.714,1.09863,-144.734,372
1570003915,314.325,-57.8197,-16.8548,179.714,1.09863,-144.734,372
1570003915,314.325,-57.8197,-16.8548,179.714,1.09863,-144.734,372
1570003915,314.325,-57.8197,-16.8548,179.714,1.09863,-144.734,372
1570003915,314.325,-57.8197,-16.8548,179.714,1.09863,-144.734,372
1570003915,314.325,-57.8197,-16.8548,179.714,1.09863,-144.734,376
1570003915,314.325,-57.8197,-16.8548,179.714,1.09863,-144.734,376
1570003915,314.325,-57.8197,-16.8548,179.714,1.09863,-144.734,376
1570003915,314.325,-57.8197,-16.8548,179.714,1.09863,-144.734,376
1570003915,314.325,-57.8197,-16.8548,179.714,1.09863,-144.734,376
1570003915,314.325,-57.8197,-16.8548,179.714,1.09863,-144.734,376
1570003915,314.325,-57.8197,-16.8548,179.714,1.09863,-144.734,376
1570003915,314.325,-57.8197,-16.8548,179.714,1.09863,-144.734,376
1570003915,314.325,-57.8197,-16.8548,179.714,1.09863,-144.734,380
1570003915,314.325,-57.8197,-16.8548,179.714,1.09863,-144.734,380
1570003916,314.325,-57.8197,-16.8548,179.692,1.09863,-144.734,380
1570003916,314.325,-57.8197,-16.8548,179.692,1.09863,-144.734,380
1570003916,314.325,-57.8197,-16.8548,179.692,1.09863,-144.734,380
1570003916,314.325,-57.8197,-16.8548,179.692,1.09863,-144.734,380
1570003916,314.325,-57.8197,-16.8548,179.714,1.09863,-144.734,380
1570003916,314.325,-57.8197,-16.8548,179.714,1.09863,-144.734,380
1570003916,314.325,-57.8197,-16.8548,179.714,1.09863,-144.734,380
1570003916,314.325,-57.8197,-16.8548,179.714,1.09863,-144.734,380
1570003916,314.325,-57.8197,-16.8548,179.714,1.09863,-144.734,380
1570003916,314.325,-57.8197,-16.8548,179.714,1.09863,-144.734,380
1570003916,314.325,-57.8197,-16.8548,179.714,1.09863,-144.734,380
1570003916,314.325,-57.8197,-16.8548,179.714,1.09863,-144.734,380
1570003916,314.325,-57.8197,-16.8548,179.714,1.09863,-144.734,376
1570003916,314.325,-57.8197,-16.8548,179.714,1.09863,-144.734,376
1570003916,314.325,-57.8197,-16.8548,179.714,1.09863,-144.734,376
1570003916,314.325,-57.8197,-16.8548,179.714,1.09863,-144.734,376
1570003916,314.325,-57.8197,-16.8548,179.714,1.09863,-144.734,376
1570003916,314.325,-57.8197,-16.8548,179.714,1.09863,-144.734,372
1570003916,314.325,-57.8197,-16.8548,179.714,1.09863,-144.734,372
1570003916,314.325,-57.8197,-16.8548,179.714,1.09863,-144.734,372
1570003916,314.325,-57.8197,-16.8548,179.692,1.09863,-144.734,372
1570003916,314.325,-57.8197,-16.8548,179.692,1.09863,-144.734,372
1570003916,314.325,-57.8197,-16.8548,179.692,1.09863,-144.734,372
1570003916,314.325,-57.8197,-16.8548,179.692,1.09863,-144.734,372
1570003916,314.325,-57.8197,-16.8548,179.692,1.09863,-144.734,372
1570003916,314.325,-57.8197,-16.8548,179.692,1.09863,-144.734,372
1570003916,314.325,-57.8197,-16.8548,179.692,1.09863,-144.734,372
1570003916,314.325,-57.8197,-16.8548,179.692,1.09863,-144.734,372
1570003916,314.325,-57.8197,-16.8548,179.692,1.09863,-144.734,372
1570003916,314.325,-57.8197,-16.8548,179.692,1.09863,-144.734,372
1570003916,314.325,-57.8197,-16.8548,179.692,1.09863,-144.734,372
1570003916,314.325,-57.8197,-16.8548,179.692,1.09863,-144.734,372
1570003916,314.325,-57.8197,-16.8548,179.692,1.09863,-144.734,372
1570003916,314.325,-57.8197,-16.8548,179.692,1.09863,-144.734,372
1570003916,314.325,-57.8197,-16.8548,179.692,1.09863,-144.756,372
1570003916,314.325,-57.8197,-16.8548,179.692,1.09863,-144.756,372
1570003916,314.325,-57.8197,-16.8548,179.692,1.09863,-144.756,372
1570003916,314.325,-57.8197,-16.8548,179.692,1.07666,-144.756,372
1570003916,314.325,-57.8197,-16.8548,179.692,1.07666,-144.756,372
1570003916,314.325,-57.8197,-16.8548,179.692,1.07666,-144.756,372
1570003916,314.325,-57.8197,-16.8548,179.692,1.07666,-144.756,372
1570003916,314.325,-57.8197,-16.8548,179.692,1.07666,-144.756,372
1570003916,314.325,-57.8197,-16.8548,179.692,1.07666,-144.756,372
1570003916,314.325,-57.8197,-16.8548,179.692,1.07666,-144.756,372
1570003916,314.325,-57.8197,-16.8548,179.692,1.07666,-144.756,372
1570003916,314.325,-57.8197,-16.8548,179.692,1.07666,-144.756,372
1570003916,314.325,-57.8197,-16.8548,179.692,1.07666,-144.756,372
1570003916,314.325,-57.8197,-16.8548,179.692,1.07666,-144.756,372
1570003916,314.325,-57.8197,-16.8548,179.692,1.07666,-144.756,372
1570003916,314.325,-57.8197,-16.8548,179.692,1.07666,-144.756,372
1570003916,314.325,-57.8197,-16.8548,179.692,1.07666,-144.756,372
1570003916,314.325,-57.8197,-16.8548,179.692,1.07666,-144.756,372
1570003916,314.325,-57.8197,-16.8548,179.692,1.07666,-144.756,372
1570003916,314.325,-57.8197,-16.8548,179.692,1.07666,-144.734,372
1570003916,314.325,-57.8197,-16.8548,179.714,1.07666,-144.734,372
1570003916,314.325,-57.8197,-16.8548,179.714,1.07666,-144.734,372
1570003916,314.325,-57.8197,-16.8548,179.714,1.07666,-144.734,372
1570003916,314.325,-57.8197,-16.8548,179.714,1.09863,-144.734,372
1570003916,314.325,-57.8197,-16.8548,179.714,1.09863,-144.734,372
1570003916,314.325,-57.8197,-16.8548,179.714,1.09863,-144.734,372
1570003916,314.325,-57.8197,-16.8548,179.714,1.09863,-144.734,372
1570003916,314.325,-57.8197,-16.8548,179.714,1.09863,-144.734,372
1570003916,314.325,-57.8197,-16.8548,179.714,1.09863,-144.734,368
1570003916,314.325,-57.8197,-16.8548,179.714,1.09863,-144.734,368
1570003916,314.325,-57.8197,-16.8548,179.714,1.09863,-144.734,368
1570003916,314.325,-57.8197,-16.8548,179.714,1.09863,-144.734,368
1570003916,314.325,-57.8197,-16.8548,179.714,1.09863,-144.734,368
1570003916,314.325,-57.8197,-16.8548,179.714,1.09863,-144.734,368
1570003916,314.325,-57.8197,-16.8548,179.714,1.09863,-144.734,368
1570003916,314.325,-57.8197,-16.8548,179.714,1.09863,-144.734,372
1570003916,314.325,-57.8197,-16.8548,179.714,1.09863,-144.734,372
1570003916,314.325,-57.8197,-16.8548,179.714,1.09863,-144.734,372
1570003916,314.325,-57.8197,-16.8548,179.714,1.09863,-144.734,372
1570003916,314.325,-57.8197,-16.8548,179.714,1.09863,-144.734,372
1570003916,314.325,-57.8197,-16.8548,179.714,1.09863,-144.734,372
1570003916,314.325,-57.8197,-16.8548,179.714,1.09863,-144.734,372
1570003916,314.325,-57.8197,-16.8548,179.714,1.09863,-144.734,372
1570003916,314.325,-57.8197,-16.8548,179.714,1.09863,-144.734,368
1570003916,314.325,-57.8197,-16.8548,179.714,1.09863,-144.734,368
1570003916,314.325,-57.8197,-16.8548,179.714,1.09863,-144.734,368
1570003916,314.325,-57.8197,-16.8548,179.714,1.09863,-144.734,368
1570003916,314.325,-57.8197,-16.8548,179.714,1.09863,-144.734,368
1570003916,314.325,-57.8197,-16.8548,179.714,1.09863,-144.734,368
1570003916,314.325,-57.8197,-16.8548,179.714,1.09863,-144.734,368
1570003916,314.325,-57.8197,-16.8548,179.714,1.09863,-144.734,372
1570003916,314.325,-57.8197,-16.8548,179.714,1.09863,-144.734,372
1570003916,314.325,-57.8197,-16.8548,179.714,1.09863,-144.734,372
1570003916,314.325,-57.8197,-16.8548,179.714,1.09863,-144.734,372
1570003916,314.325,-57.7081,-16.8548,179.714,1.09863,-144.734,372
1570003916,314.325,-57.7081,-16.7432,179.714,1.09863,-144.734,372
1570003916,314.325,-57.7081,-16.7432,179.714,1.09863,-144.734,372
1570003916,314.325,-57.7081,-16.7432,179.714,1.09863,-144.734,372
1570003916,314.325,-57.7081,-16.7432,179.714,1.09863,-144.734,372
1570003916,314.325,-57.7081,-16.7432,179.714,1.09863,-144.734,372
1570003916,314.325,-57.7081,-16.8548,179.714,1.09863,-144.734,372
1570003916,314.325,-57.7081,-16.8548,179.714,1.09863,-144.734,372
1570003916,314.325,-57.7081,-16.8548,179.714,1.09863,-144.734,372
1570003916,314.325,-57.7081,-16.8548,179.736,1.09863,-144.734,376
1570003916,314.325,-57.7081,-16.8548,179.736,1.09863,-144.734,376
1570003916,314.325,-57.7081,-16.8548,179.736,1.09863,-144.734,376
1570003917,314.325,-57.7081,-16.8548,179.736,1.09863,-144.734,376
1570003917,314.325,-57.7081,-16.8548,179.736,1.09863,-144.734,376
1570003917,314.325,-57.7081,-16.8548,179.736,1.09863,-144.734,376
1570003917,314.325,-57.7081,-16.8548,179.736,1.09863,-144.734,376
1570003917,314.325,-57.7081,-16.8548,179.736,1.09863,-144.734,372
1570003917,314.325,-57.7081,-16.8548,179.736,1.09863,-144.734,372
1570003917,314.325,-57.7081,-16.8548,179.736,1.09863,-144.734,372
1570003917,314.325,-57.7081,-16.8548,179.736,1.09863,-144.734,372
1570003917,314.325,-57.7081,-16.8548,179.736,1.09863,-144.734,372
1570003917,314.325,-57.8197,-16.8548,179.736,1.09863,-144.734,372
1570003917,314.325,-57.8197,-16.8548,179.736,1.09863,-144.734,372
1570003917,314.325,-57.8197,-16.8548,179.736,1.09863,-144.734,372
1570003917,314.325,-57.8197,-16.8548,179.714,1.09863,-144.734,372
1570003917,314.325,-57.8197,-16.8548,179.714,1.09863,-144.734,372
1570003917,314.325,-57.8197,-16.8548,179.714,1.09863,-144.734,368
1570003917,314.325,-57.8197,-16.8548,179.714,1.09863,-144.734,368
1570003917,314.325,-57.8197,-16.8548,179.714,1.09863,-144.734,368
1570003917,314.325,-57.8197,-16.8548,179.714,1.09863,-144.734,368
1570003917,314.325,-57.8197,-16.8548,179.714,1.09863,-144.734,368
1570003917,314.325,-57.8197,-16.8548,179.714,1.09863,-144.734,368
1570003917,314.325,-57.8197,-16.8548,179.714,1.09863,-144.734,368
1570003917,314.325,-57.8197,-16.8548,179.714,1.09863,-144.734,368
1570003917,314.325,-57.8197,-16.8548,179.714,1.09863,-144.734,368
1570003917,314.325,-57.8197,-16.8548,179.714,1.09863,-144.734,368
1570003917,314.325,-57.8197,-16.8548,179.714,1.09863,-144.734,368
1570003917,314.325,-57.8197,-16.8548,179.714,1.09863,-144.734,368
1570003917,314.325,-57.8197,-16.8548,179.714,1.09863,-144.734,368
1570003917,314.325,-57.8197,-16.8548,179.714,1.09863,-144.734,368
1570003917,314.325,-57.8197,-16.8548,179.714,1.09863,-144.734,368
1570003917,314.325,-57.8197,-16.8548,179.714,1.09863,-144.734,368
1570003917,314.325,-57.8197,-16.8548,179.714,1.09863,-144.734,372
1570003917,314.325,-57.8197,-16.8548,179.714,1.09863,-144.734,372
1570003917,314.325,-57.8197,-16.8548,179.714,1.09863,-144.734,372
1570003917,314.325,-57.8197,-16.8548,179.714,1.09863,-144.734,372
1570003917,314.325,-57.8197,-16.8548,179.714,1.09863,-144.734,372
1570003917,314.325,-57.8197,-16.8548,179.714,1.09863,-144.734,372
1570003917,314.325,-57.8197,-16.8548,179.714,1.09863,-144.734,372
1570003917,314.325,-57.8197,-16.8548,179.714,1.09863,-144.734,372
1570003917,314.325,-57.8197,-16.8548,179.714,1.09863,-144.734,372
1570003917,314.325,-57.8197,-16.8548,179.714,1.09863,-144.734,372
1570003917,314.325,-57.8197,-16.8548,179.714,1.09863,-144.734,372
1570003917,314.325,-57.8197,-16.8548,179.714,1.09863,-144.734,372
1570003917,314.325,-57.8197,-16.8548,179.714,1.09863,-144.734,372
1570003917,314.325,-57.8197,-16.8548,179.714,1.09863,-144.734,376
1570003917,314.325,-57.8197,-16.8548,179.714,1.09863,-144.734,376
1570003917,314.325,-57.8197,-16.8548,179.714,1.09863,-144.734,376
1570003917,314.325,-57.8197,-16.8548,179.714,1.07666,-144.734,376
1570003917,314.325,-57.8197,-16.8548,179.714,1.07666,-144.734,376
1570003917,314.325,-57.8197,-16.8548,179.714,1.07666,-144.734,376
1570003917,314.325,-57.8197,-16.8548,179.714,1.09863,-144.734,376
1570003917,314.325,-57.8197,-16.8548,179.692,1.09863,-144.734,376
1570003917,314.325,-57.8197,-16.8548,179.692,1.09863,-144.756,376
1570003917,314.325,-57.8197,-16.8548,179.692,1.09863,-144.756,376
1570003917,314.325,-57.8197,-16.8548,179.692,1.09863,-144.756,376
1570003917,314.325,-57.8197,-16.8548,179.714,1.09863,-144.756,376
1570003917,314.325,-57.8197,-16.8548,179.714,1.09863,-144.756,376
1570003917,314.325,-57.8197,-16.8548,179.714,1.09863,-144.756,376
1570003917,314.325,-57.8197,-16.8548,179.714,1.09863,-144.756,376
1570003917,314.325,-57.8197,-16.8548,179.714,1.09863,-144.756,376
1570003917,314.325,-57.8197,-16.8548,179.714,1.09863,-144.756,372
1570003917,314.325,-57.8197,-16.8548,179.714,1.09863,-144.756,372
1570003917,314.325,-57.8197,-16.8548,179.714,1.09863,-144.756,372
1570003917,314.325,-57.8197,-16.8548,179.714,1.09863,-144.756,372
1570003917,314.325,-57.8197,-16.8548,179.714,1.09863,-144.756,372
1570003917,314.325,-57.8197,-16.8548,179.714,1.09863,-144.756,372
1570003917,314.325,-57.8197,-16.8548,179.714,1.09863,-144.756,372
1570003917,314.325,-57.8197,-16.8548,179.714,1.09863,-144.756,372
1570003917,314.325,-57.8197,-16.8548,179.714,1.09863,-144.734,372
1570003917,314.325,-57.8197,-16.8548,179.714,1.12061,-144.734,372
1570003917,314.325,-57.8197,-16.8548,179.714,1.12061,-144.734,372
1570003917,314.325,-57.8197,-16.8548,179.714,1.12061,-144.734,372
1570003917,314.325,-57.8197,-16.8548,179.714,1.12061,-144.734,372
1570003917,314.325,-57.8197,-16.8548,179.692,1.12061,-144.734,376
1570003917,314.325,-57.8197,-16.7432,179.692,1.12061,-144.734,376
1570003917,314.325,-57.8197,-16.7432,179.692,1.12061,-144.734,376
1570003917,314.325,-57.8197,-16.7432,179.692,1.12061,-144.734,376
1570003917,314.325,-57.8197,-16.7432,179.692,1.12061,-144.734,376
1570003917,314.325,-57.8197,-16.7432,179.692,1.12061,-144.734,376
1570003917,314.325,-57.8197,-16.7432,179.692,1.12061,-144.734,376
1570003917,314.325,-57.8197,-16.7432,179.714,1.12061,-144.734,376
1570003917,314.325,-57.8197,-16.7432,179.714,1.12061,-144.734,376
1570003917,314.325,-57.8197,-16.7432,179.714,1.12061,-144.734,376
1570003917,314.325,-57.8197,-16.8548,179.714,1.12061,-144.734,376
1570003917,314.325,-57.8197,-16.8548,179.692,1.12061,-144.734,376
1570003917,314.325,-57.8197,-16.8548,179.692,1.12061,-144.734,376
1570003917,314.325,-57.8197,-16.8548,179.692,1.09863,-144.734,376
1570003917,314.325,-57.8197,-16.8548,179.692,1.09863,-144.734,376
1570003917,314.325,-57.8197,-16.8548,179.692,1.09863,-144.734,376
1570003917,314.325,-57.8197,-16.8548,179.692,1.09863,-144.734,372
1570003917,314.325,-57.8197,-16.8548,179.692,1.09863,-144.734,372
1570003917,314.325,-57.8197,-16.8548,179.692,1.09863,-144.734,372
1570003917,314.325,-57.8197,-16.8548,179.692,1.09863,-144.734,372
1570003917,314.325,-57.8197,-16.8548,179.692,1.09863,-144.734,372
1570003917,314.325,-57.8197,-16.8548,179.692,1.09863,-144.734,372
1570003917,314.437,-57.8197,-16.8548,179.692,1.09863,-144.734,368
1570003917,314.437,-57.8197,-16.8548,179.692,1.09863,-144.734,368
1570003917,314.437,-57.8197,-16.8548,179.692,1.09863,-144.734,368
1570003917,314.437,-57.8197,-16.8548,179.692,1.09863,-144.734,368
1570003917,314.437,-57.8197,-16.8548,179.692,1.09863,-144.734,368
1570003917,314.437,-57.8197,-16.8548,179.692,1.09863,-144.734,364
1570003918,314.437,-57.8197,-16.8548,179.692,1.09863,-144.734,364
1570003918,314.437,-57.8197,-16.8548,179.692,1.09863,-144.734,364
1570003918,314.437,-57.8197,-16.8548,179.692,1.09863,-144.734,364
1570003918,314.437,-57.8197,-16.8548,179.692,1.09863,-144.734,364
1570003918,314.437,-57.8197,-16.8548,179.692,1.09863,-144.734,360
1570003918,314.437,-57.8197,-16.8548,179.692,1.09863,-144.734,360
1570003918,314.437,-57.8197,-16.8548,179.692,1.09863,-144.734,360
1570003918,314.437,-57.8197,-16.8548,179.692,1.09863,-144.734,360
1570003918,314.437,-57.8197,-16.8548,179.692,1.09863,-144.734,360
1570003918,314.437,-57.8197,-16.8548,179.692,1.09863,-144.734,356
1570003918,314.437,-57.8197,-16.8548,179.692,1.09863,-144.734,356
1570003918,314.437,-57.8197,-16.8548,179.692,1.09863,-144.734,356
1570003918,314.437,-57.8197,-16.8548,179.692,1.09863,-144.734,356
1570003918,314.437,-57.8197,-16.8548,179.692,1.09863,-144.734,356
1570003918,314.437,-57.8197,-16.8548,179.692,1.09863,-144.734,356
1570003918,314.437,-57.8197,-16.8548,179.692,1.09863,-144.734,356
1570003918,314.437,-57.8197,-16.8548,179.692,1.09863,-144.734,356
1570003918,314.437,-57.8197,-16.8548,179.692,1.09863,-144.734,356
1570003918,314.437,-57.8197,-16.8548,179.692,1.09863,-144.734,356
1570003918,314.437,-57.8197,-16.8548,179.692,1.09863,-144.734,356
1570003918,314.437,-57.8197,-16.8548,179.692,1.09863,-144.734,356
1570003918,314.437,-57.8197,-16.8548,179.692,1.09863,-144.734,356
1570003918,314.437,-57.8197,-16.8548,179.692,1.09863,-144.734,356
1570003918,314.437,-57.8197,-16.8548,179.692,1.09863,-144.734,356
1570003918,314.437,-57.8197,-16.8548,179.692,1.09863,-144.734,356
1570003918,314.437,-57.8197,-16.8548,179.692,1.09863,-144.734,356
1570003918,314.437,-57.8197,-16.8548,179.692,1.09863,-144.734,356
1570003918,314.437,-57.8197,-16.8548,179.692,1.09863,-144.734,356
1570003918,314.437,-57.8197,-16.8548,179.692,1.09863,-144.734,360
1570003918,314.437,-57.8197,-16.8548,179.692,1.09863,-144.734,360
1570003918,314.325,-57.8197,-16.8548,179.692,1.09863,-144.734,360
1570003918,314.325,-57.8197,-16.8548,179.692,1.09863,-144.734,360
1570003918,314.325,-57.8197,-16.8548,179.692,1.09863,-144.734,360
1570003918,314.325,-57.8197,-16.8548,179.692,1.09863,-144.734,360
1570003918,314.325,-57.8197,-16.8548,179.692,1.09863,-144.734,364
1570003918,314.325,-57.8197,-16.8548,179.692,1.09863,-144.734,364
1570003918,314.325,-57.8197,-16.7432,179.692,1.09863,-144.734,364
1570003918,314.325,-57.8197,-16.7432,179.692,1.09863,-144.734,364
1570003918,314.325,-57.8197,-16.7432,179.692,1.09863,-144.734,364
1570003918,314.325,-57.8197,-16.7432,179.692,1.09863,-144.734,368
1570003918,314.325,-57.8197,-16.7432,179.692,1.09863,-144.734,368
1570003918,314.325,-57.8197,-16.7432,179.692,1.09863,-144.734,368
1570003918,314.325,-57.8197,-16.7432,179.692,1.09863,-144.734,368
1570003918,314.325,-57.8197,-16.8548,179.692,1.09863,-144.734,368
1570003918,314.325,-57.8197,-16.8548,179.692,1.09863,-144.734,368
1570003918,314.325,-57.8197,-16.8548,179.692,1.09863,-144.734,368
1570003918,314.325,-57.8197,-16.8548,179.692,1.09863,-144.734,368
1570003918,314.325,-57.8197,-16.8548,179.692,1.07666,-144.734,368
1570003918,314.325,-57.8197,-16.8548,179.692,1.07666,-144.734,368
1570003918,314.325,-57.8197,-16.8548,179.692,1.07666,-144.734,368
1570003918,314.325,-57.8197,-16.8548,179.692,1.07666,-144.756,368
1570003918,314.325,-57.8197,-16.8548,179.692,1.07666,-144.756,368
1570003918,314.325,-57.8197,-16.8548,179.692,1.07666,-144.756,368
1570003918,314.325,-57.8197,-16.8548,179.692,1.07666,-144.756,368
1570003918,314.325,-57.8197,-16.8548,179.692,1.07666,-144.734,368
1570003918,314.325,-57.8197,-16.8548,179.692,1.07666,-144.734,368
1570003918,314.325,-57.8197,-16.8548,179.692,1.07666,-144.734,368
1570003918,314.325,-57.8197,-16.8548,179.692,1.07666,-144.734,368
1570003918,314.325,-57.8197,-16.8548,179.692,1.07666,-144.734,368
1570003918,314.325,-57.8197,-16.8548,179.692,1.07666,-144.734,368
1570003918,314.325,-57.8197,-16.8548,179.714,1.07666,-144.734,368
1570003918,314.325,-57.8197,-16.8548,179.714,1.07666,-144.734,368
1570003918,314.325,-57.8197,-16.8548,179.714,1.07666,-144.734,368
1570003918,314.325,-57.8197,-16.8548,179.714,1.07666,-144.734,372
1570003918,314.325,-57.8197,-16.8548,179.714,1.07666,-144.734,372
1570003918,314.325,-57.8197,-16.8548,179.714,1.09863,-144.734,372
1570003918,314.325,-57.8197,-16.8548,179.714,1.09863,-144.734,372
1570003918,314.325,-57.8197,-16.8548,179.714,1.09863,-144.734,372
1570003918,314.325,-57.8197,-16.8548,179.714,1.09863,-144.734,372
1570003918,314.325,-57.8197,-16.8548,179.714,1.09863,-144.734,372
1570003918,314.325,-57.8197,-16.8548,179.714,1.09863,-144.734,368
1570003918,314.325,-57.8197,-16.8548,179.714,1.09863,-144.734,368
1570003918,314.325,-57.8197,-16.8548,179.714,1.09863,-144.734,368
1570003918,314.325,-57.8197,-16.8548,179.714,1.09863,-144.734,368
1570003918,314.325,-57.7081,-16.8548,179.736,1.09863,-144.734,368
1570003918,314.325,-57.7081,-16.8548,179.736,1.09863,-144.734,368
1570003918,314.325,-57.7081,-16.8548,179.736,1.09863,-144.734,368
1570003918,314.325,-57.7081,-16.8548,179.736,1.09863,-144.734,368
1570003918,314.325,-57.7081,-16.8548,179.736,1.09863,-144.734,368
1570003918,314.325,-57.7081,-16.8548,179.736,1.09863,-144.734,368
1570003918,314.325,-57.7081,-16.8548,179.714,1.09863,-144.734,368
1570003918,314.325,-57.7081,-16.8548,179.714,1.09863,-144.734,368
1570003918,314.325,-57.7081,-16.8548,179.714,1.09863,-144.734,368
1570003918,314.325,-57.7081,-16.8548,179.714,1.09863,-144.734,368
1570003918,314.325,-57.8197,-16.8548,179.714,1.09863,-144.734,368
1570003918,314.325,-57.8197,-16.8548,179.714,1.09863,-144.734,368
1570003918,314.325,-57.8197,-16.8548,179.714,1.09863,-144.734,368
1570003918,314.325,-57.8197,-16.8548,179.714,1.09863,-144.734,368
1570003918,314.325,-57.8197,-16.8548,179.714,1.09863,-144.734,364
1570003918,314.325,-57.8197,-16.8548,179.714,1.09863,-144.734,364
1570003918,314.325,-57.8197,-16.8548,179.714,1.09863,-144.734,364
1570003918,314.325,-57.8197,-16.8548,179.714,1.09863,-144.734,364
1570003918,314.325,-57.8197,-16.8548,179.714,1.09863,-144.734,364
1570003918,314.437,-57.8197,-16.8548,179.714,1.09863,-144.734,364
1570003918,314.437,-57.8197,-16.8548,179.714,1.09863,-144.734,364
1570003918,314.325,-57.8197,-16.8548,179.714,1.09863,-144.734,364
1570003918,314.325,-57.8197,-16.8548,179.714,1.09863,-144.734,364
1570003918,314.325,-57.8197,-16.8548,179.714,1.09863,-144.734,364
1570003918,314.325,-57.8197,-16.8548,179.714,1.09863,-144.734,364
1570003918,314.325,-57.8197,-16.8548,179.714,1.09863,-144.734,364
1570003919,314.325,-57.8197,-16.8548,179.714,1.09863,-144.734,364
1570003919,314.325,-57.8197,-16.8548,179.714,1.09863,-144.734,364
1570003919,314.325,-57.8197,-16.7432,179.714,1.09863,-144.756,364
1570003919,314.325,-57.8197,-16.7432,179.714,1.09863,-144.756,364
1570003919,314.325,-57.8197,-16.7432,179.714,1.12061,-144.756,364
1570003919,314.325,-57.8197,-16.7432,179.714,1.12061,-144.756,364
1570003919,314.325,-57.8197,-16.7432,179.714,1.12061,-144.756,364
1570003919,314.325,-57.8197,-16.7432,179.714,1.12061,-144.756,364
1570003919,314.325,-57.8197,-16.7432,179.714,1.12061,-144.756,364
1570003919,314.325,-57.8197,-16.7432,179.714,1.12061,-144.756,364
1570003919,314.325,-57.8197,-16.7432,179.714,1.12061,-144.756,364
1570003919,314.325,-57.8197,-16.7432,179.714,1.12061,-144.756,364
1570003919,314.325,-57.8197,-16.7432,179.714,1.12061,-144.756,368
1570003919,314.325,-57.8197,-16.7432,179.714,1.12061,-144.756,368
1570003919,314.325,-57.8197,-16.7432,179.714,1.12061,-144.756,368
1570003919,314.325,-57.8197,-16.7432,179.714,1.12061,-144.756,368
1570003919,314.325,-57.8197,-16.7432,179.714,1.12061,-144.756,368
1570003919,314.325,-57.8197,-16.7432,179.714,1.12061,-144.756,368
1570003919,314.325,-57.8197,-16.7432,179.714,1.12061,-144.756,368
1570003919,314.325,-57.8197,-16.7432,179.714,1.12061,-144.756,368
1570003919,314.325,-57.8197,-16.7432,179.714,1.12061,-144.756,368
1570003919,314.325,-57.8197,-16.7432,179.714,1.12061,-144.756,368
1570003919,314.325,-57.8197,-16.8548,179.714,1.09863,-144.756,368
1570003919,314.325,-57.8197,-16.8548,179.714,1.09863,-144.756,368
1570003919,314.325,-57.8197,-16.8548,179.714,1.09863,-144.756,368
1570003919,314.325,-57.8197,-16.8548,179.714,1.09863,-144.756,368
1570003919,314.325,-57.8197,-16.8548,179.714,1.09863,-144.756,368
1570003919,314.437,-57.8197,-16.8548,179.714,1.09863,-144.756,368
1570003919,314.437,-57.8197,-16.8548,179.714,1.09863,-144.756,368
1570003919,314.437,-57.8197,-16.8548,179.714,1.09863,-144.756,368
1570003919,314.437,-57.8197,-16.8548,179.714,1.09863,-144.756,368
1570003919,314.437,-57.8197,-16.8548,179.714,1.09863,-144.756,368
1570003919,314.437,-57.8197,-16.8548,179.714,1.09863,-144.756,368
1570003919,314.437,-57.8197,-16.8548,179.714,1.09863,-144.756,368
1570003919,314.437,-57.8197,-16.8548,179.714,1.09863,-144.756,368
1570003919,314.437,-57.8197,-16.8548,179.714,1.09863,-144.756,368
1570003919,314.437,-57.8197,-16.8548,179.714,1.09863,-144.756,368
1570003919,314.437,-57.8197,-16.8548,179.714,1.09863,-144.756,368
1570003919,314.437,-57.8197,-16.8548,179.714,1.09863,-144.756,368
1570003919,314.437,-57.8197,-16.8548,179.714,1.09863,-144.756,368
1570003919,314.437,-57.8197,-16.8548,179.714,1.09863,-144.756,368
1570003919,314.437,-57.8197,-16.8548,179.714,1.09863,-144.756,368
1570003919,314.325,-57.8197,-16.8548,179.714,1.09863,-144.756,368
1570003919,314.325,-57.8197,-16.8548,179.714,1.09863,-144.756,372
1570003919,314.325,-57.8197,-16.8548,179.714,1.09863,-144.756,372
1570003919,314.325,-57.8197,-16.8548,179.714,1.09863,-144.756,372
1570003919,314.325,-57.8197,-16.8548,179.714,1.09863,-144.756,372
1570003919,314.325,-57.8197,-16.8548,179.714,1.09863,-144.756,372
1570003919,314.325,-57.8197,-16.8548,179.714,1.09863,-144.756,372
1570003919,314.325,-57.8197,-16.8548,179.714,1.09863,-144.756,372
1570003919,314.325,-57.8197,-16.8548,179.714,1.09863,-144.756,372
1570003923,337.431,-82.3764,-16.4083,179.736,1.34033,-144.646,432
1570003923,337.431,-82.3764,-16.4083,179.736,1.34033,-144.646,432
1570003923,337.431,-82.3764,-16.4083,179.736,1.34033,-144.646,432
1570003923,337.431,-82.3764,-16.4083,179.736,1.34033,-144.646,432
1570003923,337.542,-82.3764,-16.4083,179.736,1.34033,-144.646,432
1570003923,337.542,-82.3764,-16.4083,179.736,1.34033,-144.646,432
1570003923,337.542,-82.3764,-16.4083,179.736,1.34033,-144.646,432
1570003923,337.542,-82.3764,-16.4083,179.736,1.34033,-144.646,432
1570003923,337.542,-82.3764,-16.4083,179.736,1.34033,-144.646,432
1570003923,337.542,-82.3764,-16.4083,179.736,1.34033,-144.646,432
1570003923,337.542,-82.3764,-16.4083,179.714,1.34033,-144.646,432
1570003923,337.542,-82.3764,-16.4083,179.714,1.34033,-144.646,432
1570003923,337.542,-82.3764,-16.4083,179.714,1.34033,-144.646,432
1570003923,337.431,-82.3764,-16.4083,179.736,1.34033,-144.646,432
1570003923,337.431,-82.3764,-16.4083,179.736,1.34033,-144.646,432
1570003923,337.431,-82.3764,-16.4083,179.736,1.34033,-144.646,432
1570003923,337.431,-82.3764,-16.4083,179.736,1.34033,-144.646,432
1570003923,337.431,-82.3764,-16.4083,179.736,1.34033,-144.646,432
1570003923,337.542,-82.3764,-16.4083,179.736,1.34033,-144.646,432
1570003923,337.542,-82.3764,-16.4083,179.736,1.34033,-144.646,432
1570003923,337.431,-82.3764,-16.4083,179.736,1.34033,-144.646,432
1570003923,337.431,-82.3764,-16.4083,179.736,1.34033,-144.646,432
1570003923,337.431,-82.3764,-16.4083,179.736,1.34033,-144.646,432
1570003923,337.431,-82.3764,-16.4083,179.736,1.34033,-144.646,432
1570003923,337.431,-82.3764,-16.4083,179.736,1.34033,-144.646,432
1570003923,337.431,-82.3764,-16.4083,179.736,1.34033,-144.646,432
1570003923,337.431,-82.3764,-16.4083,179.736,1.34033,-144.646,432
1570003923,337.431,-82.3764,-16.4083,179.736,1.34033,-144.646,432
1570003923,337.431,-82.3764,-16.4083,179.736,1.34033,-144.646,432
1570003923,337.431,-82.3764,-16.4083,179.736,1.34033,-144.646,432
1570003923,337.431,-82.3764,-16.4083,179.736,1.34033,-144.646,432
1570003923,337.431,-82.3764,-16.4083,179.736,1.34033,-144.646,432
1570003923,337.431,-82.3764,-16.4083,179.736,1.34033,-144.646,436
1570003923,337.431,-82.3764,-16.4083,179.736,1.34033,-144.646,436
1570003923,337.431,-82.3764,-16.4083,179.736,1.34033,-144.646,436
1570003923,337.431,-82.3764,-16.4083,179.736,1.34033,-144.646,436
1570003923,337.431,-82.3764,-16.4083,179.736,1.34033,-144.646,436
1570003923,337.431,-82.3764,-16.4083,179.736,1.34033,-144.646,436
1570003923,337.431,-82.3764,-16.4083,179.736,1.34033,-144.646,436
1570003923,337.431,-82.3764,-16.4083,179.736,1.34033,-144.646,436
1570003923,337.431,-82.3764,-16.4083,179.736,1.34033,-144.646,432
1570003923,337.431,-82.3764,-16.4083,179.736,1.34033,-144.646,432
1570003923,337.431,-82.3764,-16.4083,179.736,1.34033,-144.646,432
1570003923,337.431,-82.3764,-16.4083,179.736,1.34033,-144.646,432
1570003923,337.431,-82.3764,-16.4083,179.736,1.34033,-144.646,432
1570003923,337.431,-82.3764,-16.4083,179.736,1.34033,-144.646,432
1570003923,337.431,-82.3764,-16.4083,179.714,1.34033,-144.646,432
1570003923,337.431,-82.3764,-16.4083,179.714,1.34033,-144.646,432
1570003923,337.431,-82.3764,-16.4083,179.714,1.34033,-144.646,432
1570003923,337.431,-82.3764,-16.4083,179.714,1.34033,-144.646,432
1570003923,337.431,-82.3764,-16.4083,179.714,1.34033,-144.646,432
1570003923,337.431,-82.3764,-16.4083,179.714,1.34033,-144.646,432
1570003923,337.431,-82.3764,-16.4083,179.714,1.34033,-144.646,432
1570003923,337.431,-82.3764,-16.4083,179.714,1.34033,-144.646,432
1570003923,337.431,-82.3764,-16.4083,179.714,1.34033,-144.646,432
1570003923,337.431,-82.3764,-16.4083,179.714,1.34033,-144.646,432
1570003923,337.431,-82.3764,-16.4083,179.714,1.34033,-144.646,432
1570003923,337.431,-82.3764,-16.4083,179.714,1.34033,-144.646,432
1570003923,337.431,-82.3764,-16.4083,179.714,1.34033,-144.646,432
1570003923,337.431,-82.3764,-16.4083,179.714,1.34033,-144.646,432
1570003923,337.431,-82.3764,-16.4083,179.714,1.34033,-144.646,432
1570003923,337.431,-82.3764,-16.4083,179.714,1.34033,-144.646,432
1570003923,337.431,-82.3764,-16.4083,179.714,1.34033,-144.646,432
1570003923,337.431,-82.3764,-16.4083,179.714,1.34033,-144.646,432
1570003923,337.431,-82.3764,-16.4083,179.714,1.34033,-144.646,432
1570003923,337.431,-82.3764,-16.4083,179.736,1.34033,-144.646,432
1570003923,337.431,-82.3764,-16.4083,179.736,1.3623,-144.646,432
1570003923,337.431,-82.3764,-16.4083,179.736,1.3623,-144.646,432
1570003923,337.431,-82.3764,-16.4083,179.736,1.3623,-144.646,432
1570003923,337.431,-82.3764,-16.4083,179.736,1.3623,-144.646,432
1570003923,337.431,-82.3764,-16.4083,179.736,1.3623,-144.646,432
1570003923,337.431,-82.3764,-16.4083,179.736,1.3623,-144.646,432
1570003923,337.431,-82.3764,-16.4083,179.736,1.3623,-144.646,432
1570003923,337.431,-82.3764,-16.4083,179.736,1.3623,-144.646,432
1570003923,337.431,-82.3764,-16.4083,179.736,1.3623,-144.646,432
1570003923,337.431,-82.3764,-16.2967,179.736,1.3623,-144.646,432
1570003923,337.431,-82.3764,-16.2967,179.736,1.3623,-144.646,432
1570003923,337.431,-82.3764,-16.2967,179.736,1.3623,-144.646,432
1570003923,337.431,-82.3764,-16.2967,179.736,1.38428,-144.646,432
1570003923,337.431,-82.3764,-16.2967,179.736,1.38428,-144.646,432
1570003923,337.431,-82.3764,-16.2967,179.736,1.38428,-144.646,432
1570003923,337.431,-82.3764,-16.2967,179.736,1.38428,-144.646,432
1570003923,337.431,-82.3764,-16.2967,179.736,1.38428,-144.646,432
1570003923,337.431,-82.3764,-16.2967,179.736,1.38428,-144.646,432
1570003923,337.431,-82.3764,-16.2967,179.714,1.3623,-144.646,432
1570003923,337.431,-82.3764,-16.2967,179.714,1.3623,-144.646,432
1570003923,337.431,-82.3764,-16.2967,179.714,1.3623,-144.646,432
1570003923,337.431,-82.3764,-16.2967,179.714,1.3623,-144.646,432
1570003923,337.431,-82.3764,-16.4083,179.714,1.3623,-144.646,432
1570003923,337.431,-82.3764,-16.4083,179.714,1.3623,-144.646,432
1570003923,337.431,-82.3764,-16.4083,179.714,1.3623,-144.646,432
1570003923,337.431,-82.3764,-16.4083,179.714,1.3623,-144.646,432
1570003923,337.431,-82.3764,-16.4083,179.714,1.3623,-144.646,432
1570003924,337.431,-82.3764,-16.4083,179.714,1.3623,-144.646,432
1570003924,337.431,-82.3764,-16.4083,179.714,1.3623,-144.646,432
1570003924,337.431,-82.3764,-16.4083,179.714,1.3623,-144.646,432
1570003924,337.431,-82.3764,-16.4083,179.714,1.3623,-144.646,432
1570003924,337.431,-82.3764,-16.4083,179.714,1.3623,-144.646,432
1570003924,337.431,-82.3764,-16.4083,179.714,1.3623,-144.646,432
1570003924,337.431,-82.3764,-16.4083,179.714,1.3623,-144.646,432
1570003924,337.431,-82.3764,-16.2967,179.714,1.3623,-144.646,432
1570003924,337.431,-82.3764,-16.2967,179.714,1.3623,-144.646,432
1570003924,337.431,-82.3764,-16.2967,179.714,1.3623,-144.646,432
1570003924,337.431,-82.3764,-16.2967,179.714,1.38428,-144.646,436
1570003924,337.431,-82.3764,-16.2967,179.714,1.38428,-144.646,436
1570003924,337.431,-82.3764,-16.2967,179.714,1.38428,-144.646,436
1570003924,337.431,-82.3764,-16.2967,179.714,1.38428,-144.646,436
1570003924,337.431,-82.3764,-16.2967,179.714,1.38428,-144.646,436
1570003924,337.431,-82.3764,-16.2967,179.714,1.38428,-144.646,436
1570003924,337.431,-82.3764,-16.2967,179.714,1.38428,-144.646,436
1570003924,337.431,-82.3764,-16.2967,179.714,1.38428,-144.646,436
1570003924,337.431,-82.3764,-16.2967,179.714,1.38428,-144.646,436
1570003924,337.431,-82.3764,-16.2967,179.714,1.38428,-144.646,436
1570003924,337.431,-82.3764,-16.2967,179.714,1.38428,-144.646,436
1570003924,337.431,-82.3764,-16.2967,179.714,1.38428,-144.646,436
1570003924,337.431,-82.3764,-16.2967,179.714,1.38428,-144.646,436
1570003924,337.431,-82.3764,-16.2967,179.714,1.38428,-144.646,436
1570003924,337.431,-82.3764,-16.2967,179.714,1.38428,-144.646,436
1570003924,337.431,-82.3764,-16.2967,179.714,1.38428,-144.646,436
1570003924,337.431,-82.3764,-16.2967,179.714,1.38428,-144.646,436
1570003924,337.431,-82.3764,-16.2967,179.714,1.38428,-144.646,436
1570003924,337.431,-82.3764,-16.2967,179.714,1.38428,-144.646,436
1570003924,337.431,-82.3764,-16.2967,179.714,1.38428,-144.646,436
1570003924,337.431,-82.3764,-16.2967,179.714,1.38428,-144.646,436
1570003924,337.431,-82.3764,-16.2967,179.714,1.38428,-144.646,436
1570003924,337.431,-82.3764,-16.2967,179.736,1.38428,-144.646,436
1570003924,337.431,-82.3764,-16.2967,179.736,1.38428,-144.646,436
1570003924,337.431,-82.3764,-16.2967,179.736,1.38428,-144.646,436
1570003924,337.431,-82.3764,-16.2967,179.736,1.38428,-144.646,436
1570003924,337.431,-82.3764,-16.2967,179.736,1.38428,-144.646,436
1570003924,337.431,-82.3764,-16.2967,179.736,1.38428,-144.646,440
1570003924,337.431,-82.3764,-16.2967,179.736,1.38428,-144.646,440
1570003924,337.431,-82.3764,-16.2967,179.714,1.38428,-144.646,440
1570003924,337.431,-82.3764,-16.2967,179.714,1.38428,-144.646,440
1570003924,337.431,-82.3764,-16.2967,179.714,1.3623,-144.646,440
1570003924,337.431,-82.3764,-16.2967,179.714,1.3623,-144.646,440
1570003924,337.431,-82.3764,-16.2967,179.714,1.3623,-144.646,440
1570003924,337.431,-82.3764,-16.2967,179.714,1.3623,-144.646,440
1570003924,337.431,-82.3764,-16.2967,179.714,1.3623,-144.646,440
1570003924,337.431,-82.3764,-16.2967,179.714,1.3623,-144.646,440
1570003924,337.431,-82.3764,-16.2967,179.714,1.3623,-144.646,440
1570003924,337.431,-82.3764,-16.2967,179.714,1.3623,-144.646,440
1570003924,337.431,-82.3764,-16.2967,179.714,1.3623,-144.646,440
1570003924,337.431,-82.3764,-16.2967,179.714,1.38428,-144.646,440
1570003924,337.431,-82.3764,-16.2967,179.736,1.38428,-144.646,440
1570003924,337.431,-82.3764,-16.2967,179.736,1.38428,-144.646,440
1570003924,337.431,-82.3764,-16.2967,179.736,1.38428,-144.646,436
1570003924,337.431,-82.3764,-16.2967,179.736,1.38428,-144.646,436
1570003924,337.431,-82.3764,-16.2967,179.736,1.38428,-144.646,436
1570003924,337.431,-82.3764,-16.2967,179.736,1.38428,-144.646,436
1570003924,337.431,-82.2647,-16.2967,179.736,1.38428,-144.646,436
1570003924,337.431,-82.2647,-16.2967,179.736,1.38428,-144.646,436
1570003924,337.431,-82.2647,-16.2967,179.736,1.38428,-144.646,436
1570003924,337.431,-82.2647,-16.2967,179.736,1.38428,-144.646,436
1570003924,337.431,-82.3764,-16.2967,179.736,1.38428,-144.646,436
1570003924,337.431,-82.3764,-16.2967,179.736,1.38428,-144.646,436
1570003924,337.431,-82.3764,-16.2967,179.736,1.38428,-144.646,436
1570003924,337.431,-82.3764,-16.2967,179.736,1.38428,-144.646,436
1570003924,337.431,-82.3764,-16.2967,179.736,1.38428,-144.646,436
1570003924,337.431,-82.3764,-16.2967,179.736,1.38428,-144.646,436
1570003924,337.431,-82.3764,-16.2967,179.736,1.38428,-144.646,436
1570003924,337.431,-82.3764,-16.2967,179.736,1.38428,-144.646,436
1570003924,337.431,-82.3764,-16.2967,179.736,1.38428,-144.646,436
1570003924,337.431,-82.3764,-16.2967,179.736,1.38428,-144.646,436
1570003924,337.431,-82.3764,-16.2967,179.736,1.38428,-144.646,440
1570003924,337.431,-82.3764,-16.2967,179.736,1.38428,-144.646,440
1570003924,337.431,-82.3764,-16.2967,179.736,1.38428,-144.646,440
1570003924,337.431,-82.3764,-16.2967,179.736,1.38428,-144.646,440
1570003924,337.431,-82.3764,-16.2967,179.736,1.38428,-144.646,440
1570003924,337.431,-82.3764,-16.2967,179.736,1.38428,-144.646,440
1570003924,337.431,-82.3764,-16.2967,179.736,1.3623,-144.646,440
1570003924,337.431,-82.3764,-16.2967,179.736,1.3623,-144.646,440
1570003924,337.431,-82.3764,-16.2967,179.736,1.3623,-144.646,440
1570003924,337.431,-82.3764,-16.2967,179.736,1.3623,-144.646,440
1570003924,337.431,-82.3764,-16.2967,179.736,1.3623,-144.646,440
1570003924,337.431,-82.3764,-16.4083,179.736,1.3623,-144.646,440
1570003924,337.431,-82.3764,-16.4083,179.736,1.3623,-144.646,440
1570003924,337.542,-82.3764,-16.4083,179.758,1.3623,-144.646,440
1570003924,337.542,-82.3764,-16.4083,179.758,1.3623,-144.646,436
1570003924,337.542,-82.3764,-16.4083,179.758,1.34033,-144.646,436
1570003924,337.542,-82.3764,-16.4083,179.758,1.34033,-144.646,436
1570003924,337.542,-82.3764,-16.4083,179.758,1.34033,-144.646,436
1570003924,337.542,-82.3764,-16.4083,179.758,1.34033,-144.646,436
1570003924,337.542,-82.3764,-16.4083,179.758,1.34033,-144.646,432
1570003924,337.542,-82.3764,-16.4083,179.758,1.34033,-144.646,432
1570003924,337.542,-82.3764,-16.4083,179.758,1.34033,-144.624,432
1570003924,337.542,-82.3764,-16.4083,179.736,1.34033,-144.624,432
1570003924,337.542,-82.3764,-16.4083,179.736,1.34033,-144.646,432
1570003924,337.542,-82.3764,-16.4083,179.736,1.3623,-144.646,432
1570003924,337.542,-82.3764,-16.4083,179.736,1.3623,-144.646,428
1570003924,337.542,-82.3764,-16.4083,179.736,1.3623,-144.646,428
1570003924,337.542,-82.3764,-16.4083,179.736,1.3623,-144.646,428
1570003924,337.542,-82.3764,-16.4083,179.736,1.3623,-144.646,428
1570003925,337.431,-82.3764,-16.4083,179.736,1.3623,-144.646,428
1570003925,337.431,-82.3764,-16.4083,179.736,1.3623,-144.646,428
1570003925,337.431,-82.3764,-16.4083,179.736,1.3623,-144.646,432
1570003925,337.431,-82.3764,-16.4083,179.736,1.3623,-144.646,432
1570003925,337.431,-82.3764,-16.2967,179.714,1.3623,-144.646,432
1570003925,337.431,-82.3764,-16.2967,179.714,1.3623,-144.646,432
1570003925,337.431,-82.3764,-16.2967,179.714,1.3623,-144.646,432
1570003925,337.431,-82.3764,-16.2967,179.714,1.3623,-144.646,432
1570003925,337.431,-82.3764,-16.2967,179.714,1.3623,-144.646,432
1570003925,337.431,-82.3764,-16.2967,179.714,1.3623,-144.646,432
1570003925,337.431,-82.3764,-16.2967,179.714,1.3623,-144.646,436
1570003925,337.431,-82.3764,-16.2967,179.714,1.3623,-144.646,436
1570003925,337.431,-82.3764,-16.4083,179.736,1.3623,-144.646,436
1570003925,337.431,-82.3764,-16.4083,179.736,1.3623,-144.646,436
1570003925,337.431,-82.3764,-16.4083,179.736,1.3623,-144.646,436
1570003925,337.431,-82.3764,-16.4083,179.736,1.3623,-144.646,436
1570003925,337.431,-82.3764,-16.4083,179.714,1.3623,-144.646,436
1570003925,337.431,-82.3764,-16.4083,179.714,1.3623,-144.646,436
1570003925,337.431,-82.3764,-16.4083,179.714,1.3623,-144.646,436
1570003925,337.431,-82.3764,-16.4083,179.714,1.3623,-144.646,436
1570003925,337.431,-82.3764,-16.4083,179.714,1.34033,-144.646,436
1570003925,337.431,-82.3764,-16.4083,179.714,1.34033,-144.646,436
1570003925,337.431,-82.3764,-16.4083,179.714,1.34033,-144.646,436
1570003925,337.431,-82.3764,-16.4083,179.714,1.34033,-144.646,436
1570003925,337.431,-82.3764,-16.4083,179.714,1.34033,-144.646,436
1570003925,337.431,-82.3764,-16.4083,179.714,1.3623,-144.646,436
1570003925,337.431,-82.3764,-16.4083,179.714,1.3623,-144.646,436
1570003925,337.431,-82.3764,-16.4083,179.714,1.3623,-144.646,436
1570003925,337.431,-82.3764,-16.4083,179.714,1.3623,-144.646,436
1570003925,337.431,-82.3764,-16.4083,179.714,1.3623,-144.646,436
1570003925,337.431,-82.3764,-16.4083,179.714,1.3623,-144.646,436
1570003925,337.431,-82.3764,-16.4083,179.714,1.3623,-144.646,436
1570003925,337.431,-82.3764,-16.4083,179.714,1.3623,-144.646,436
1570003925,337.431,-82.3764,-16.4083,179.714,1.3623,-144.646,436
1570003925,337.431,-82.3764,-16.4083,179.714,1.3623,-144.646,436
1570003925,337.431,-82.3764,-16.4083,179.714,1.3623,-144.646,436
1570003925,337.431,-82.3764,-16.4083,179.714,1.3623,-144.646,436
1570003925,337.431,-82.3764,-16.4083,179.714,1.3623,-144.646,436
1570003925,337.431,-82.3764,-16.4083,179.714,1.3623,-144.646,436
1570003925,337.431,-82.3764,-16.4083,179.714,1.3623,-144.646,436
1570003925,337.431,-82.3764,-16.4083,179.714,1.3623,-144.646,436
1570003925,337.431,-82.3764,-16.4083,179.714,1.3623,-144.646,436
1570003925,337.431,-82.3764,-16.4083,179.714,1.3623,-144.646,436
1570003925,337.431,-82.3764,-16.4083,179.714,1.34033,-144.646,436
1570003925,337.431,-82.3764,-16.4083,179.714,1.34033,-144.646,436
1570003925,337.431,-82.3764,-16.4083,179.692,1.34033,-144.646,436
1570003925,337.431,-82.3764,-16.4083,179.692,1.34033,-144.646,436
1570003925,337.431,-82.3764,-16.4083,179.692,1.34033,-144.646,436
1570003925,337.431,-82.3764,-16.4083,179.692,1.34033,-144.646,436
1570003925,337.431,-82.3764,-16.4083,179.692,1.34033,-144.646,440
1570003925,337.431,-82.3764,-16.4083,179.692,1.34033,-144.646,440
1570003925,337.431,-82.3764,-16.4083,179.692,1.34033,-144.646,440
1570003925,337.431,-82.3764,-16.4083,179.692,1.34033,-144.646,440
1570003925,337.431,-82.3764,-16.4083,179.692,1.34033,-144.646,440
1570003925,337.431,-82.3764,-16.4083,179.692,1.34033,-144.646,440
1570003925,337.431,-82.3764,-16.4083,179.692,1.34033,-144.646,440
1570003925,337.431,-82.3764,-16.4083,179.692,1.34033,-144.646,440
1570003925,337.431,-82.3764,-16.4083,179.714,1.34033,-144.646,440
1570003925,337.431,-82.3764,-16.4083,179.714,1.34033,-144.646,444
1570003925,337.431,-82.3764,-16.4083,179.714,1.34033,-144.646,444
1570003925,337.431,-82.3764,-16.4083,179.714,1.34033,-144.646,444
1570003925,337.431,-82.3764,-16.4083,179.714,1.34033,-144.646,444
1570003925,337.431,-82.3764,-16.4083,179.714,1.34033,-144.646,444
1570003925,337.431,-82.3764,-16.4083,179.714,1.34033,-144.646,444
1570003925,337.431,-82.3764,-16.4083,179.714,1.34033,-144.646,444
1570003925,337.431,-82.3764,-16.4083,179.714,1.34033,-144.646,444
1570003925,337.431,-82.3764,-16.4083,179.714,1.34033,-144.646,444
1570003925,337.431,-82.3764,-16.4083,179.714,1.34033,-144.646,444
1570003925,337.431,-82.3764,-16.4083,179.714,1.34033,-144.646,444
1570003925,337.431,-82.3764,-16.4083,179.714,1.34033,-144.646,444
1570003925,337.431,-82.3764,-16.4083,179.714,1.34033,-144.646,440
1570003925,337.431,-82.3764,-16.4083,179.714,1.34033,-144.646,440
1570003925,337.431,-82.3764,-16.4083,179.714,1.34033,-144.646,440
1570003925,337.431,-82.3764,-16.4083,179.714,1.34033,-144.646,440
1570003925,337.431,-82.3764,-16.4083,179.714,1.34033,-144.646,440
1570003925,337.431,-82.3764,-16.4083,179.714,1.34033,-144.646,440
1570003925,337.431,-82.3764,-16.4083,179.714,1.34033,-144.646,440
1570003925,337.431,-82.3764,-16.4083,179.714,1.34033,-144.646,440
1570003925,337.431,-82.3764,-16.4083,179.714,1.34033,-144.646,440
1570003925,337.431,-82.3764,-16.4083,179.714,1.3623,-144.646,440
1570003925,337.431,-82.3764,-16.4083,179.714,1.3623,-144.646,440
1570003925,337.431,-82.3764,-16.4083,179.714,1.3623,-144.646,440
1570003925,337.431,-82.3764,-16.4083,179.714,1.3623,-144.646,440
1570003925,337.431,-82.3764,-16.4083,179.714,1.3623,-144.646,440
1570003925,337.431,-82.3764,-16.2967,179.714,1.3623,-144.646,440
1570003925,337.431,-82.3764,-16.2967,179.714,1.3623,-144.646,440
1570003925,337.431,-82.3764,-16.2967,179.714,1.3623,-144.646,440
1570003925,337.431,-82.3764,-16.2967,179.714,1.3623,-144.646,440
1570003925,337.431,-82.3764,-16.2967,179.714,1.3623,-144.646,440
1570003925,337.431,-82.3764,-16.2967,179.714,1.3623,-144.646,440
1570003925,337.431,-82.3764,-16.2967,179.714,1.3623,-144.646,440
1570003925,337.431,-82.3764,-16.2967,179.714,1.3623,-144.646,440
1570003925,337.542,-82.3764,-16.2967,179.714,1.3623,-144.646,440
1570003925,337.542,-82.3764,-16.2967,179.714,1.3623,-144.646,436
1570003925,337.542,-82.3764,-16.2967,179.714,1.38428,-144.646,436
1570003925,337.542,-82.3764,-16.2967,179.714,1.38428,-144.646,436
1570003925,337.542,-82.3764,-16.2967,179.714,1.38428,-144.646,436
1570003925,337.542,-82.3764,-16.2967,179.714,1.38428,-144.646,436
1570003925,337.542,-82.3764,-16.2967,179.714,1.38428,-144.646,436
1570003925,337.542,-82.3764,-16.2967,179.714,1.38428,-144.646,436
1570003926,337.542,-82.3764,-16.2967,179.736,1.38428,-144.646,436
1570003926,337.542,-82.3764,-16.2967,179.736,1.38428,-144.646,436
1570003926,337.542,-82.3764,-16.2967,179.736,1.38428,-144.646,436
1570003926,337.542,-82.3764,-16.2967,179.736,1.38428,-144.646,436
1570003926,337.542,-82.3764,-16.2967,179.736,1.38428,-144.646,436
1570003926,337.542,-82.3764,-16.2967,179.736,1.38428,-144.646,436
1570003926,337.542,-82.3764,-16.2967,179.736,1.38428,-144.646,436
1570003926,337.431,-82.3764,-16.2967,179.736,1.38428,-144.646,436
1570003926,337.431,-82.3764,-16.2967,179.736,1.38428,-144.646,436
1570003926,337.431,-82.3764,-16.2967,179.714,1.3623,-144.624,436
1570003926,337.431,-82.3764,-16.2967,179.714,1.3623,-144.624,436
1570003926,337.431,-82.3764,-16.2967,179.714,1.3623,-144.624,436
1570003926,337.431,-82.3764,-16.2967,179.736,1.3623,-144.624,436
1570003926,337.431,-82.3764,-16.2967,179.736,1.3623,-144.624,436
1570003926,337.431,-82.3764,-16.2967,179.736,1.3623,-144.624,436
1570003926,337.431,-82.3764,-16.2967,179.736,1.3623,-144.624,436
1570003926,337.431,-82.3764,-16.2967,179.736,1.3623,-144.624,440
1570003926,337.431,-82.3764,-16.2967,179.736,1.3623,-144.624,440
1570003926,337.431,-82.3764,-16.2967,179.736,1.3623,-144.624,440
1570003926,337.431,-82.2647,-16.4083,179.736,1.3623,-144.624,440
1570003926,337.431,-82.2647,-16.4083,179.736,1.3623,-144.624,440
1570003926,337.431,-82.2647,-16.4083,179.736,1.3623,-144.624,440
1570003926,337.431,-82.2647,-16.4083,179.736,1.3623,-144.624,440
1570003926,337.431,-82.2647,-16.4083,179.736,1.34033,-144.624,440
1570003926,337.431,-82.2647,-16.4083,179.736,1.34033,-144.624,436
1570003926,337.431,-82.2647,-16.4083,179.736,1.34033,-144.624,436
1570003926,337.431,-82.2647,-16.4083,179.736,1.34033,-144.624,436
1570003926,337.431,-82.3764,-16.4083,179.736,1.34033,-144.624,436
1570003926,337.431,-82.3764,-16.4083,179.736,1.34033,-144.624,436
1570003926,337.431,-82.3764,-16.4083,179.736,1.34033,-144.646,432
1570003926,337.431,-82.3764,-16.4083,179.736,1.34033,-144.646,432
1570003926,337.431,-82.3764,-16.2967,179.736,1.34033,-144.646,432
1570003926,337.431,-82.3764,-16.2967,179.736,1.34033,-144.646,432
1570003926,337.431,-82.3764,-16.2967,179.736,1.34033,-144.646,432
1570003926,337.431,-82.3764,-16.2967,179.736,1.34033,-144.646,432
1570003926,337.431,-82.3764,-16.2967,179.736,1.34033,-144.646,432
1570003926,337.431,-82.2647,-16.2967,179.736,1.34033,-144.646,432
1570003926,337.431,-82.2647,-16.2967,179.736,1.34033,-144.646,432
1570003926,337.431,-82.2647,-16.2967,179.736,1.3623,-144.646,432
1570003926,337.431,-82.2647,-16.2967,179.736,1.3623,-144.646,432
1570003926,337.431,-82.2647,-16.2967,179.736,1.3623,-144.646,432
1570003926,337.431,-82.2647,-16.2967,179.736,1.3623,-144.646,432
1570003926,337.431,-82.2647,-16.2967,179.736,1.3623,-144.646,432
1570003926,337.431,-82.2647,-16.2967,179.736,1.3623,-144.646,432
1570003926,337.431,-82.2647,-16.2967,179.736,1.3623,-144.646,432
1570003926,337.542,-82.2647,-16.2967,179.736,1.3623,-144.646,432
1570003926,337.542,-82.2647,-16.2967,179.736,1.3623,-144.646,432
1570003926,337.542,-82.2647,-16.2967,179.736,1.3623,-144.646,432
1570003926,337.542,-82.2647,-16.2967,179.736,1.3623,-144.646,432
1570003926,337.542,-82.2647,-16.2967,179.736,1.3623,-144.646,432
1570003926,337.542,-82.2647,-16.2967,179.736,1.3623,-144.646,436
1570003926,337.542,-82.2647,-16.2967,179.736,1.3623,-144.646,436
1570003926,337.542,-82.2647,-16.2967,179.736,1.3623,-144.646,436
1570003926,337.542,-82.2647,-16.2967,179.736,1.3623,-144.646,436
1570003926,337.542,-82.2647,-16.4083,179.736,1.3623,-144.646,436
1570003926,337.542,-82.2647,-16.4083,179.736,1.3623,-144.646,436
1570003926,337.542,-82.2647,-16.4083,179.736,1.3623,-144.646,436
1570003926,337.431,-82.2647,-16.4083,179.736,1.3623,-144.646,436
1570003926,337.431,-82.2647,-16.4083,179.736,1.3623,-144.646,440
1570003926,337.431,-82.2647,-16.4083,179.736,1.3623,-144.646,440
1570003926,337.431,-82.2647,-16.4083,179.736,1.3623,-144.646,440
1570003926,337.431,-82.3764,-16.4083,179.736,1.3623,-144.646,440
1570003926,337.431,-82.3764,-16.4083,179.736,1.3623,-144.646,440
1570003926,337.431,-82.3764,-16.4083,179.736,1.3623,-144.646,440
1570003926,337.431,-82.3764,-16.4083,179.736,1.3623,-144.646,440
1570003926,337.431,-82.3764,-16.4083,179.736,1.34033,-144.646,440
1570003926,337.431,-82.3764,-16.4083,179.736,1.34033,-144.646,444
1570003926,337.431,-82.3764,-16.4083,179.736,1.3623,-144.646,444
1570003926,337.431,-82.3764,-16.4083,179.736,1.3623,-144.646,444
1570003926,337.431,-82.3764,-16.4083,179.736,1.3623,-144.646,444
1570003926,337.431,-82.3764,-16.2967,179.736,1.3623,-144.646,444
1570003926,337.431,-82.3764,-16.2967,179.736,1.3623,-144.646,444
1570003926,337.431,-82.3764,-16.2967,179.736,1.3623,-144.646,444
1570003926,337.431,-82.3764,-16.2967,179.736,1.3623,-144.646,444
1570003926,337.542,-82.3764,-16.2967,179.736,1.3623,-144.646,444
1570003926,337.542,-82.3764,-16.2967,179.736,1.38428,-144.646,444
1570003926,337.542,-82.3764,-16.2967,179.736,1.38428,-144.646,444
1570003926,337.542,-82.3764,-16.2967,179.736,1.38428,-144.646,444
1570003926,337.542,-82.3764,-16.2967,179.736,1.38428,-144.646,440
1570003926,337.542,-82.3764,-16.2967,179.736,1.38428,-144.646,440
1570003926,337.542,-82.3764,-16.2967,179.736,1.38428,-144.646,440
1570003926,337.542,-82.3764,-16.2967,179.736,1.38428,-144.646,440
1570003926,337.542,-82.3764,-16.2967,179.736,1.38428,-144.646,440
1570003926,337.542,-82.3764,-16.2967,179.736,1.3623,-144.646,440
1570003926,337.542,-82.3764,-16.2967,179.736,1.3623,-144.646,436
1570003926,337.542,-82.3764,-16.2967,179.736,1.3623,-144.646,436
1570003926,337.542,-82.3764,-16.2967,179.736,1.3623,-144.646,436
1570003926,337.542,-82.3764,-16.2967,179.736,1.3623,-144.646,436
1570003926,337.542,-82.3764,-16.2967,179.736,1.3623,-144.646,436
1570003926,337.542,-82.3764,-16.2967,179.714,1.3623,-144.646,436
1570003926,337.542,-82.3764,-16.2967,179.714,1.3623,-144.646,436
1570003926,337.542,-82.3764,-16.2967,179.714,1.3623,-144.646,436
1570003926,337.542,-82.3764,-16.2967,179.714,1.3623,-144.646,436
1570003926,337.542,-82.3764,-16.4083,179.714,1.3623,-144.646,432
1570003926,337.542,-82.3764,-16.4083,179.714,1.3623,-144.646,432
1570003926,337.542,-82.3764,-16.4083,179.714,1.3623,-144.646,432
1570003926,337.542,-82.3764,-16.4083,179.714,1.3623,-144.646,432
1570003926,337.542,-82.3764,-16.4083,179.714,1.3623,-144.646,432
1570003926,337.542,-82.3764,-16.4083,179.714,1.3623,-144.646,432
1570003926,337.542,-82.3764,-16.4083,179.714,1.3623,-144.646,432
1570003927,337.542,-82.3764,-16.4083,179.714,1.3623,-144.646,432
1570003927,337.542,-82.3764,-16.4083,179.714,1.3623,-144.646,432
1570003927,337.542,-82.3764,-16.4083,179.714,1.3623,-144.646,432
1570003927,337.542,-82.3764,-16.4083,179.714,1.3623,-144.646,432
1570003927,337.542,-82.3764,-16.4083,179.714,1.3623,-144.646,432
1570003927,337.542,-82.3764,-16.4083,179.714,1.3623,-144.646,432
1570003927,337.542,-82.3764,-16.4083,179.714,1.3623,-144.646,432
1570003927,337.542,-82.3764,-16.4083,179.714,1.34033,-144.646,436
1570003927,337.542,-82.3764,-16.4083,179.736,1.34033,-144.646,436
1570003927,337.542,-82.3764,-16.4083,179.736,1.34033,-144.646,436
1570003927,337.542,-82.3764,-16.4083,179.736,1.34033,-144.646,436
1570003927,337.542,-82.3764,-16.4083,179.736,1.34033,-144.646,436
1570003927,337.542,-82.3764,-16.4083,179.736,1.34033,-144.646,432
1570003927,337.542,-82.3764,-16.4083,179.736,1.34033,-144.646,432
1570003927,337.542,-82.3764,-16.4083,179.736,1.34033,-144.646,432
1570003927,337.542,-82.3764,-16.4083,179.736,1.34033,-144.646,432
1570003927,337.542,-82.3764,-16.4083,179.736,1.34033,-144.646,432
1570003927,337.542,-82.3764,-16.4083,179.736,1.34033,-144.646,432
1570003927,337.542,-82.3764,-16.4083,179.736,1.34033,-144.646,432
1570003927,337.542,-82.3764,-16.4083,179.736,1.34033,-144.646,432
1570003927,337.542,-82.3764,-16.4083,179.736,1.34033,-144.646,432
1570003927,337.431,-82.3764,-16.4083,179.736,1.34033,-144.646,432
1570003927,337.431,-82.3764,-16.4083,179.736,1.34033,-144.646,432
1570003927,337.431,-82.3764,-16.4083,179.736,1.3623,-144.646,432
1570003927,337.431,-82.3764,-16.4083,179.714,1.3623,-144.646,432
1570003927,337.431,-82.3764,-16.4083,179.714,1.3623,-144.646,432
1570003927,337.431,-82.3764,-16.4083,179.714,1.3623,-144.646,432
1570003927,337.431,-82.3764,-16.4083,179.714,1.3623,-144.646,432
1570003927,337.431,-82.3764,-16.4083,179.714,1.3623,-144.646,432
1570003927,337.431,-82.3764,-16.2967,179.714,1.3623,-144.646,432
1570003927,337.431,-82.3764,-16.2967,179.714,1.3623,-144.646,432
1570003927,337.431,-82.3764,-16.2967,179.714,1.3623,-144.646,432
1570003927,337.431,-82.3764,-16.2967,179.714,1.3623,-144.646,432
1570003927,337.431,-82.3764,-16.2967,179.714,1.3623,-144.646,432
1570003927,337.431,-82.3764,-16.2967,179.714,1.3623,-144.646,432
1570003927,337.431,-82.3764,-16.2967,179.714,1.3623,-144.646,432
1570003927,337.431,-82.3764,-16.2967,179.714,1.3623,-144.646,432
1570003927,337.431,-82.3764,-16.2967,179.714,1.3623,-144.646,432
1570003927,337.431,-82.3764,-16.2967,179.714,1.3623,-144.646,436
1570003927,337.431,-82.3764,-16.2967,179.714,1.3623,-144.646,436
1570003927,337.431,-82.3764,-16.2967,179.714,1.3623,-144.646,436
1570003927,337.431,-82.3764,-16.2967,179.714,1.3623,-144.646,436
1570003927,337.431,-82.3764,-16.2967,179.714,1.3623,-144.646,436
1570003927,337.431,-82.3764,-16.2967,179.714,1.3623,-144.646,436
1570003927,337.431,-82.3764,-16.2967,179.714,1.3623,-144.646,436
1570003927,337.431,-82.3764,-16.2967,179.714,1.3623,-144.646,440
1570003927,337.542,-82.3764,-16.2967,179.714,1.3623,-144.646,440
1570003927,337.542,-82.3764,-16.2967,179.714,1.3623,-144.646,440
1570003927,337.542,-82.3764,-16.2967,179.714,1.3623,-144.646,440
1570003927,337.542,-82.3764,-16.2967,179.714,1.3623,-144.646,440
1570003927,337.542,-82.3764,-16.2967,179.714,1.3623,-144.646,440
1570003927,337.542,-82.3764,-16.2967,179.714,1.3623,-144.646,440
1570003927,337.431,-82.3764,-16.2967,179.714,1.3623,-144.646,440
1570003927,337.431,-82.3764,-16.2967,179.714,1.3623,-144.646,444
1570003927,337.431,-82.3764,-16.2967,179.714,1.3623,-144.646,444
1570003927,337.431,-82.3764,-16.2967,179.714,1.3623,-144.646,444
1570003927,337.431,-82.3764,-16.2967,179.714,1.3623,-144.646,444
1570003927,337.431,-82.3764,-16.2967,179.714,1.3623,-144.646,444
1570003927,337.431,-82.3764,-16.2967,179.714,1.3623,-144.646,448
1570003927,337.431,-82.3764,-16.2967,179.714,1.3623,-144.646,448
1570003927,337.431,-82.3764,-16.2967,179.714,1.3623,-144.646,448
1570003927,337.431,-82.3764,-16.2967,179.714,1.3623,-144.646,448
1570003927,337.431,-82.3764,-16.2967,179.714,1.3623,-144.646,452
1570003927,337.431,-82.3764,-16.2967,179.714,1.3623,-144.646,452
1570003927,337.431,-82.3764,-16.2967,179.714,1.3623,-144.646,452
1570003927,337.431,-82.3764,-16.2967,179.714,1.3623,-144.646,456
1570003927,337.431,-82.3764,-16.2967,179.714,1.3623,-144.646,456
1570003927,337.431,-82.3764,-16.2967,179.736,1.3623,-144.646,456
1570003927,337.431,-82.3764,-16.2967,179.736,1.3623,-144.646,456
1570003927,337.431,-82.3764,-16.2967,179.736,1.3623,-144.646,456
1570003927,337.431,-82.3764,-16.4083,179.736,1.3623,-144.646,456
1570003927,337.431,-82.3764,-16.4083,179.736,1.3623,-144.646,456
1570003927,337.431,-82.3764,-16.4083,179.736,1.3623,-144.646,456
1570003927,337.431,-82.3764,-16.4083,179.736,1.3623,-144.646,456
1570003927,337.431,-82.3764,-16.4083,179.736,1.3623,-144.646,452
1570003927,337.431,-82.3764,-16.4083,179.736,1.3623,-144.646,452
1570003927,337.431,-82.3764,-16.4083,179.736,1.3623,-144.646,452
1570003927,337.431,-82.3764,-16.4083,179.736,1.3623,-144.646,452
1570003927,337.431,-82.3764,-16.4083,179.736,1.3623,-144.646,452
1570003927,337.431,-82.3764,-16.4083,179.736,1.3623,-144.646,452
1570003927,337.431,-82.3764,-16.4083,179.736,1.3623,-144.646,448
1570003927,337.431,-82.3764,-16.4083,179.736,1.3623,-144.646,448
1570003927,337.431,-82.3764,-16.4083,179.736,1.3623,-144.646,448
1570003927,337.431,-82.3764,-16.4083,179.736,1.3623,-144.646,448
1570003927,337.431,-82.3764,-16.4083,179.736,1.3623,-144.646,448
1570003927,337.431,-82.3764,-16.4083,179.736,1.3623,-144.646,444
1570003927,337.431,-82.3764,-16.4083,179.736,1.3623,-144.646,444
1570003927,337.431,-82.3764,-16.4083,179.736,1.3623,-144.646,444
1570003927,337.431,-82.3764,-16.4083,179.736,1.3623,-144.646,444
1570003927,337.431,-82.3764,-16.4083,179.736,1.3623,-144.646,444
1570003927,337.431,-82.3764,-16.4083,179.736,1.3623,-144.646,444
1570003927,337.431,-82.3764,-16.4083,179.736,1.3623,-144.646,444
1570003927,337.431,-82.3764,-16.4083,179.714,1.3623,-144.646,444
1570003927,337.431,-82.3764,-16.4083,179.714,1.3623,-144.646,444
1570003927,337.431,-82.3764,-16.4083,179.714,1.3623,-144.646,444
1570003927,337.431,-82.3764,-16.4083,179.714,1.3623,-144.646,444
1570003927,337.431,-82.3764,-16.4083,179.714,1.3623,-144.646,444
1570003927,337.431,-82.3764,-16.4083,179.714,1.3623,-144.646,444
1570003927,337.431,-82.3764,-16.4083,179.714,1.3623,-144.646,444
1570003927,337.431,-82.3764,-16.4083,179.714,1.3623,-144.646,444
1570003928,337.431,-82.3764,-16.4083,179.714,1.3623,-144.646,444
1570003928,337.431,-82.3764,-16.4083,179.714,1.3623,-144.646,444
1570003928,337.431,-82.3764,-16.4083,179.714,1.3623,-144.646,444
1570003928,337.431,-82.3764,-16.4083,179.714,1.3623,-144.646,444
1570003928,337.431,-82.3764,-16.4083,179.714,1.3623,-144.646,444
1570003928,337.431,-82.3764,-16.4083,179.736,1.34033,-144.646,440
1570003928,337.431,-82.3764,-16.4083,179.736,1.34033,-144.646,440
1570003931,375.828,-123.118,-15.5153,179.736,1.80176,-144.954,556
1570003931,375.828,-123.118,-15.5153,179.736,1.80176,-144.954,556
1570003931,375.828,-123.118,-15.5153,179.736,1.80176,-144.954,556
1570003931,375.828,-123.118,-15.5153,179.758,1.80176,-144.954,552
1570003931,375.828,-123.118,-15.5153,179.736,1.80176,-144.954,552
1570003931,375.828,-123.118,-15.5153,179.736,1.80176,-144.954,552
1570003931,375.828,-123.23,-15.5153,179.736,1.80176,-144.954,548
1570003931,375.828,-123.23,-15.5153,179.736,1.80176,-144.932,548
1570003931,375.828,-123.23,-15.5153,179.736,1.80176,-144.932,544
1570003931,375.828,-123.23,-15.5153,179.736,1.80176,-144.932,544
1570003931,375.828,-123.23,-15.5153,179.736,1.80176,-144.932,544
1570003931,375.828,-123.23,-15.5153,179.736,1.80176,-144.932,540
1570003931,375.828,-123.23,-15.5153,179.736,1.80176,-144.932,540
1570003931,375.828,-123.23,-15.5153,179.736,1.80176,-144.932,536
1570003931,375.828,-123.23,-15.5153,179.714,1.80176,-144.932,536
1570003931,375.828,-123.23,-15.5153,179.714,1.82373,-144.932,536
1570003931,375.828,-123.23,-15.5153,179.714,1.82373,-144.932,536
1570003931,375.828,-123.23,-15.5153,179.714,1.82373,-144.932,532
1570003931,375.828,-123.23,-15.5153,179.714,1.82373,-144.932,532
1570003931,375.828,-123.341,-15.5153,179.714,1.82373,-144.932,532
1570003931,375.828,-123.341,-15.5153,179.714,1.82373,-144.932,532
1570003931,375.828,-123.341,-15.5153,179.714,1.82373,-144.932,532
1570003931,375.828,-123.23,-15.5153,179.714,1.82373,-144.932,528
1570003931,375.828,-123.23,-15.5153,179.714,1.82373,-144.954,528
1570003931,375.828,-123.23,-15.5153,179.714,1.82373,-144.954,528
1570003932,375.828,-123.23,-15.5153,179.714,1.82373,-144.954,528
1570003932,375.828,-123.23,-15.5153,179.714,1.82373,-144.932,528
1570003932,375.828,-123.23,-15.5153,179.714,1.82373,-144.932,528
1570003932,375.828,-123.23,-15.5153,179.714,1.82373,-144.932,528
1570003932,375.828,-123.23,-15.5153,179.714,1.80176,-144.932,528
1570003932,375.828,-123.23,-15.5153,179.714,1.80176,-144.932,528
1570003932,375.828,-123.23,-15.5153,179.714,1.80176,-144.932,528
1570003932,375.828,-123.23,-15.5153,179.714,1.80176,-144.932,528
1570003932,375.828,-123.23,-15.5153,179.714,1.80176,-144.932,528
1570003932,375.828,-123.341,-15.5153,179.714,1.80176,-144.932,528
1570003932,375.828,-123.341,-15.5153,179.714,1.80176,-144.932,528
1570003932,375.828,-123.341,-15.5153,179.714,1.80176,-144.932,528
1570003932,375.828,-123.341,-15.5153,179.714,1.80176,-144.932,528
1570003932,375.828,-123.341,-15.5153,179.714,1.80176,-144.932,528
1570003932,375.828,-123.341,-15.5153,179.714,1.80176,-144.932,528
1570003932,375.828,-123.23,-15.5153,179.714,1.80176,-144.932,528
1570003932,375.828,-123.23,-15.5153,179.714,1.80176,-144.932,528
1570003932,375.828,-123.23,-15.5153,179.714,1.80176,-144.932,528
1570003932,375.828,-123.23,-15.5153,179.736,1.80176,-144.932,528
1570003932,375.828,-123.23,-15.5153,179.736,1.80176,-144.932,528
1570003932,375.828,-123.23,-15.5153,179.736,1.80176,-144.932,528
1570003932,375.828,-123.23,-15.5153,179.736,1.80176,-144.932,528
1570003932,375.828,-123.23,-15.5153,179.736,1.80176,-144.932,528
1570003932,375.828,-123.23,-15.5153,179.736,1.80176,-144.954,528
1570003932,375.828,-123.23,-15.5153,179.736,1.80176,-144.954,528
1570003932,375.828,-123.23,-15.5153,179.736,1.80176,-144.954,528
1570003932,375.828,-123.23,-15.5153,179.736,1.80176,-144.954,528
1570003932,375.828,-123.23,-15.5153,179.736,1.80176,-144.954,528
1570003932,375.828,-123.23,-15.5153,179.736,1.80176,-144.954,528
1570003932,375.828,-123.23,-15.5153,179.736,1.80176,-144.954,528
1570003932,375.828,-123.23,-15.5153,179.736,1.80176,-144.954,528
1570003932,375.828,-123.23,-15.5153,179.736,1.80176,-144.954,528
1570003932,375.828,-123.23,-15.5153,179.736,1.80176,-144.954,524
1570003932,375.828,-123.23,-15.5153,179.736,1.80176,-144.954,524
1570003932,375.828,-123.23,-15.5153,179.736,1.80176,-144.954,524
1570003932,375.828,-123.23,-15.5153,179.736,1.80176,-144.954,524
1570003932,375.828,-123.23,-15.5153,179.736,1.80176,-144.954,524
1570003932,375.828,-123.23,-15.5153,179.736,1.80176,-144.954,524
1570003932,375.828,-123.23,-15.5153,179.736,1.80176,-144.954,520
1570003932,375.828,-123.23,-15.5153,179.736,1.80176,-144.954,520
1570003932,375.828,-123.23,-15.5153,179.736,1.80176,-144.954,520
1570003932,375.828,-123.23,-15.5153,179.736,1.80176,-144.954,520
1570003932,375.828,-123.23,-15.5153,179.736,1.80176,-144.954,520
1570003932,375.828,-123.23,-15.5153,179.758,1.80176,-144.954,516
1570003932,375.828,-123.23,-15.5153,179.758,1.80176,-144.954,516
1570003932,375.828,-123.23,-15.5153,179.758,1.80176,-144.954,516
1570003932,375.828,-123.23,-15.5153,179.758,1.80176,-144.954,516
1570003932,375.828,-123.23,-15.5153,179.758,1.80176,-144.954,516
1570003932,375.828,-123.23,-15.5153,179.758,1.80176,-144.954,516
1570003932,375.828,-123.23,-15.5153,179.736,1.80176,-144.954,516
1570003932,375.828,-123.23,-15.5153,179.736,1.80176,-144.954,516
1570003932,375.828,-123.23,-15.5153,179.736,1.80176,-144.954,516
1570003932,375.828,-123.23,-15.5153,179.736,1.80176,-144.954,520
1570003932,375.828,-123.23,-15.5153,179.736,1.80176,-144.954,520
1570003932,375.828,-123.23,-15.5153,179.736,1.80176,-144.954,520
1570003932,375.717,-123.23,-15.5153,179.736,1.80176,-144.954,524
1570003932,375.717,-123.23,-15.5153,179.736,1.80176,-144.954,524
1570003932,375.717,-123.23,-15.5153,179.736,1.80176,-144.954,524
1570003932,375.717,-123.23,-15.5153,179.736,1.80176,-144.954,528
1570003932,375.717,-123.23,-15.5153,179.736,1.80176,-144.954,528
1570003932,375.717,-123.23,-15.5153,179.736,1.82373,-144.954,528
1570003932,375.717,-123.23,-15.5153,179.736,1.82373,-144.954,532
1570003932,375.717,-123.23,-15.5153,179.758,1.82373,-144.954,532
1570003932,375.717,-123.23,-15.5153,179.758,1.82373,-144.954,532
1570003932,375.717,-123.118,-15.5153,179.758,1.82373,-144.954,536
1570003932,375.828,-123.118,-15.5153,179.758,1.82373,-144.954,536
1570003932,375.828,-123.118,-15.5153,179.758,1.82373,-144.954,536
1570003932,375.828,-123.118,-15.5153,179.758,1.82373,-144.954,540
1570003932,375.828,-123.118,-15.5153,179.758,1.82373,-144.976,540
1570003932,375.828,-123.118,-15.5153,179.758,1.82373,-144.976,540
1570003932,375.828,-123.118,-15.5153,179.758,1.82373,-144.976,544
1570003932,375.828,-123.118,-15.5153,179.758,1.82373,-144.954,544
1570003932,375.828,-123.118,-15.5153,179.758,1.80176,-144.954,544
1570003932,375.828,-123.23,-15.5153,179.758,1.80176,-144.954,544
1570003932,375.828,-123.23,-15.5153,179.758,1.80176,-144.954,544
1570003932,375.828,-123.23,-15.5153,179.736,1.80176,-144.954,544
1570003932,375.828,-123.23,-15.5153,179.736,1.80176,-144.954,544
1570003932,375.828,-123.23,-15.5153,179.736,1.80176,-144.954,544
1570003932,375.828,-123.23,-15.5153,179.736,1.80176,-144.954,544
1570003932,375.828,-123.23,-15.5153,179.736,1.80176,-144.954,544
1570003932,375.828,-123.23,-15.5153,179.736,1.80176,-144.954,544
1570003932,375.828,-123.23,-15.5153,179.736,1.80176,-144.954,544
1570003932,375.828,-123.23,-15.4037,179.736,1.80176,-144.954,544
1570003932,375.828,-123.118,-15.4037,179.736,1.82373,-144.954,544
1570003932,375.828,-123.118,-15.4037,179.758,1.82373,-144.954,544
1570003932,375.828,-123.118,-15.4037,179.758,1.82373,-144.954,544
1570003932,375.828,-123.118,-15.4037,179.758,1.82373,-144.954,544
1570003932,375.828,-123.118,-15.4037,179.758,1.82373,-144.954,544
1570003932,375.828,-123.118,-15.4037,179.758,1.82373,-144.954,548
1570003932,375.828,-123.118,-15.4037,179.758,1.82373,-144.954,548
1570003932,375.828,-123.118,-15.4037,179.758,1.82373,-144.954,548
1570003932,375.828,-123.118,-15.4037,179.758,1.82373,-144.954,548
1570003932,375.828,-123.118,-15.4037,179.758,1.8457,-144.976,548
1570003932,375.828,-123.118,-15.4037,179.758,1.8457,-144.976,548
1570003932,375.828,-123.118,-15.4037,179.758,1.8457,-144.976,548
1570003932,375.828,-123.118,-15.4037,179.758,1.8457,-144.976,552
1570003932,375.828,-123.118,-15.4037,179.758,1.8457,-144.976,552
1570003932,375.828,-123.118,-15.4037,179.758,1.8457,-144.976,552
1570003932,375.828,-123.118,-15.4037,179.758,1.8457,-144.976,552
1570003932,375.828,-123.118,-15.2921,179.758,1.8457,-144.976,552
1570003933,375.828,-123.118,-15.2921,179.758,1.8457,-144.954,552
1570003933,375.828,-123.118,-15.2921,179.758,1.8457,-144.954,552
1570003933,375.828,-123.118,-15.2921,179.758,1.8457,-144.954,552
1570003933,375.828,-123.118,-15.2921,179.758,1.8457,-144.954,552
1570003933,375.828,-123.118,-15.2921,179.758,1.8457,-144.954,552
1570003933,375.828,-123.118,-15.2921,179.758,1.8457,-144.954,552
1570003933,375.828,-123.118,-15.2921,179.758,1.8457,-144.954,552
1570003933,375.828,-123.118,-15.2921,179.758,1.8457,-144.976,552
1570003933,375.717,-123.118,-15.2921,179.736,1.8457,-144.976,556
1570003933,375.717,-123.118,-15.2921,179.736,1.8457,-144.976,556
1570003933,375.717,-123.118,-15.2921,179.736,1.8457,-144.976,556
1570003933,375.717,-123.118,-15.4037,179.736,1.8457,-144.976,556
1570003933,375.717,-123.118,-15.4037,179.736,1.8457,-144.976,556
1570003933,375.717,-123.23,-15.4037,179.736,1.8457,-144.976,556
1570003933,375.717,-123.23,-15.4037,179.736,1.8457,-144.976,556
1570003933,375.717,-123.23,-15.4037,179.736,1.8457,-144.976,556
1570003933,375.717,-123.23,-15.4037,179.736,1.8457,-144.976,556
1570003933,375.717,-123.23,-15.4037,179.736,1.82373,-144.976,556
1570003933,375.717,-123.23,-15.4037,179.736,1.82373,-144.976,556
1570003933,375.717,-123.23,-15.4037,179.736,1.82373,-144.976,556
1570003933,375.717,-123.23,-15.4037,179.736,1.82373,-144.976,556
1570003933,375.717,-123.23,-15.4037,179.736,1.82373,-144.976,556
1570003933,375.717,-123.23,-15.4037,179.736,1.82373,-144.954,556
1570003933,375.717,-123.23,-15.4037,179.736,1.82373,-144.954,552
1570003933,375.717,-123.23,-15.4037,179.736,1.82373,-144.954,552
1570003933,375.717,-123.23,-15.4037,179.714,1.82373,-144.954,552
1570003933,375.717,-123.23,-15.4037,179.714,1.82373,-144.954,552
1570003933,375.717,-123.23,-15.4037,179.714,1.82373,-144.954,548
1570003933,375.717,-123.23,-15.4037,179.714,1.82373,-144.954,548
1570003933,375.717,-123.23,-15.4037,179.714,1.82373,-144.954,548
1570003933,375.828,-123.23,-15.4037,179.714,1.82373,-144.954,548
1570003933,375.828,-123.23,-15.4037,179.714,1.82373,-144.954,544
1570003933,375.828,-123.23,-15.4037,179.714,1.82373,-144.954,544
1570003933,375.828,-123.23,-15.4037,179.714,1.82373,-144.954,544
1570003933,375.828,-123.23,-15.4037,179.714,1.82373,-144.954,544
1570003933,375.828,-123.23,-15.4037,179.714,1.82373,-144.954,544
1570003933,375.828,-123.23,-15.4037,179.714,1.80176,-144.954,540
1570003933,375.828,-123.23,-15.5153,179.714,1.80176,-144.954,540
1570003933,375.828,-123.23,-15.5153,179.714,1.80176,-144.954,540
1570003933,375.828,-123.23,-15.5153,179.714,1.80176,-144.954,540
1570003933,375.828,-123.23,-15.5153,179.714,1.80176,-144.954,540
1570003933,375.828,-123.23,-15.5153,179.714,1.80176,-144.954,540
1570003933,375.828,-123.23,-15.5153,179.714,1.80176,-144.954,540
1570003933,375.717,-123.23,-15.5153,179.714,1.80176,-144.954,536
1570003933,375.717,-123.23,-15.5153,179.714,1.80176,-144.954,536
1570003933,375.717,-123.23,-15.5153,179.714,1.80176,-144.954,536
1570003933,375.717,-123.23,-15.5153,179.714,1.80176,-144.954,540
1570003933,375.717,-123.23,-15.5153,179.714,1.80176,-144.954,540
1570003933,375.717,-123.23,-15.5153,179.714,1.80176,-144.954,540
1570003933,375.717,-123.23,-15.5153,179.714,1.80176,-144.954,540
1570003933,375.717,-123.23,-15.5153,179.714,1.80176,-144.976,540
1570003933,375.717,-123.23,-15.5153,179.714,1.80176,-144.976,536
1570003933,375.717,-123.23,-15.5153,179.714,1.80176,-144.976,536
1570003933,375.717,-123.23,-15.4037,179.736,1.80176,-144.976,536
1570003933,375.717,-123.23,-15.4037,179.736,1.80176,-144.976,536
1570003933,375.828,-123.23,-15.4037,179.736,1.82373,-144.954,536
1570003933,375.828,-123.23,-15.4037,179.736,1.82373,-144.954,532
1570003933,375.828,-123.23,-15.4037,179.736,1.82373,-144.954,532
1570003933,375.828,-123.23,-15.4037,179.736,1.82373,-144.954,532
1570003933,375.828,-123.23,-15.4037,179.736,1.82373,-144.954,532
1570003933,375.828,-123.118,-15.5153,179.758,1.82373,-144.954,528
1570003933,375.828,-123.118,-15.5153,179.758,1.82373,-144.954,528
1570003933,375.828,-123.118,-15.5153,179.758,1.82373,-144.954,528
1570003933,375.828,-123.118,-15.5153,179.758,1.82373,-144.954,524
1570003933,375.828,-123.118,-15.5153,179.758,1.82373,-144.954,524
1570003933,375.828,-123.118,-15.5153,179.78,1.82373,-144.954,520
1570003933,375.828,-123.118,-15.5153,179.78,1.82373,-144.954,520
1570003933,375.828,-123.118,-15.5153,179.78,1.82373,-144.954,520
1570003933,375.828,-123.118,-15.4037,179.78,1.82373,-144.954,520
1570003933,375.828,-123.118,-15.4037,179.78,1.82373,-144.954,516
1570003933,375.828,-123.118,-15.4037,179.78,1.82373,-144.954,516
1570003933,375.828,-123.118,-15.4037,179.78,1.82373,-144.954,516
1570003933,375.828,-123.118,-15.4037,179.802,1.82373,-144.954,516
1570003933,375.828,-123.118,-15.4037,179.802,1.82373,-144.954,516
1570003933,375.828,-123.118,-15.4037,179.802,1.82373,-144.954,516
1570003933,375.828,-123.118,-15.4037,179.802,1.82373,-144.954,516
1570003933,375.828,-123.118,-15.5153,179.802,1.82373,-144.954,516
1570003933,375.94,-123.118,-15.5153,179.802,1.82373,-144.954,516
1570003933,375.94,-123.118,-15.5153,179.802,1.82373,-144.954,516
1570003933,375.94,-123.118,-15.5153,179.802,1.82373,-144.954,516
1570003933,375.94,-123.118,-15.5153,179.802,1.82373,-144.954,516
1570003933,375.94,-123.006,-15.5153,179.802,1.82373,-144.954,516
1570003933,375.94,-123.006,-15.5153,179.802,1.82373,-144.954,516
1570003933,375.94,-123.006,-15.5153,179.802,1.82373,-144.954,516
1570003933,375.94,-123.006,-15.5153,179.802,1.82373,-144.954,516
1570003933,375.94,-123.006,-15.5153,179.802,1.80176,-144.932,516
1570003933,375.94,-123.006,-15.5153,179.802,1.80176,-144.932,516
1570003933,375.94,-123.006,-15.5153,179.802,1.80176,-144.932,516
1570003933,375.94,-123.006,-15.5153,179.802,1.80176,-144.932,516
1570003933,375.94,-123.006,-15.5153,179.802,1.80176,-144.932,516
1570003933,375.94,-123.006,-15.5153,179.802,1.80176,-144.932,516
1570003933,375.94,-123.006,-15.5153,179.802,1.80176,-144.932,516
1570003933,375.94,-123.006,-15.5153,179.802,1.80176,-144.932,516
1570003933,375.94,-123.006,-15.5153,179.802,1.80176,-144.932,520
1570003933,375.94,-123.006,-15.5153,179.802,1.80176,-144.932,520
1570003933,375.94,-123.006,-15.5153,179.802,1.80176,-144.932,520
1570003933,375.94,-123.006,-15.5153,179.802,1.80176,-144.932,524
1570003933,375.94,-123.006,-15.5153,179.802,1.80176,-144.932,524
1570003933,375.94,-123.006,-15.5153,179.802,1.77979,-144.932,524
1570003933,375.94,-123.006,-15.5153,179.802,1.77979,-144.932,524
1570003934,375.94,-123.006,-15.5153,179.802,1.77979,-144.932,528
1570003934,375.94,-123.006,-15.5153,179.802,1.77979,-144.932,528
1570003934,375.94,-123.006,-15.5153,179.802,1.77979,-144.932,528
1570003934,375.94,-123.006,-15.5153,179.802,1.77979,-144.932,528
1570003934,375.94,-123.006,-15.5153,179.802,1.77979,-144.932,528
1570003934,375.94,-123.006,-15.5153,179.78,1.77979,-144.932,528
1570003934,375.94,-123.006,-15.627,179.78,1.75781,-144.932,528
1570003934,375.94,-123.006,-15.627,179.78,1.75781,-144.932,532
1570003934,375.94,-123.006,-15.627,179.78,1.75781,-144.932,532
1570003934,375.94,-123.118,-15.627,179.78,1.75781,-144.932,532
1570003934,375.94,-123.118,-15.627,179.78,1.75781,-144.932,532
1570003934,375.828,-123.118,-15.627,179.78,1.75781,-144.932,532
1570003934,375.828,-123.118,-15.627,179.78,1.75781,-144.932,532
1570003934,375.828,-123.118,-15.627,179.78,1.75781,-144.932,532
1570003934,375.828,-123.118,-15.627,179.78,1.75781,-144.932,536
1570003934,375.828,-123.118,-15.627,179.758,1.75781,-144.954,536
1570003934,375.828,-123.118,-15.627,179.758,1.75781,-144.954,536
1570003934,375.828,-123.118,-15.627,179.758,1.75781,-144.954,536
1570003934,375.828,-123.118,-15.627,179.758,1.75781,-144.954,536
1570003934,375.828,-123.118,-15.627,179.758,1.75781,-144.954,536
1570003934,375.828,-123.118,-15.5153,179.758,1.77979,-144.954,536
1570003934,375.828,-123.118,-15.5153,179.758,1.77979,-144.954,536
1570003934,375.828,-123.118,-15.5153,179.758,1.77979,-144.954,536
1570003934,375.828,-123.118,-15.5153,179.758,1.77979,-144.954,536
1570003934,375.828,-123.118,-15.5153,179.758,1.77979,-144.954,536
1570003934,375.828,-123.118,-15.5153,179.78,1.80176,-144.954,536
1570003934,375.828,-123.118,-15.5153,179.78,1.80176,-144.954,536
1570003934,375.828,-123.118,-15.5153,179.78,1.80176,-144.954,536
1570003934,375.828,-123.118,-15.5153,179.78,1.80176,-144.954,536
1570003934,375.828,-123.118,-15.5153,179.78,1.80176,-144.954,536
1570003934,375.828,-123.118,-15.5153,179.78,1.80176,-144.954,536
1570003934,375.828,-123.118,-15.4037,179.78,1.80176,-144.954,536
1570003934,375.828,-123.118,-15.4037,179.78,1.80176,-144.954,536
1570003934,375.828,-123.118,-15.4037,179.78,1.80176,-144.954,536
1570003934,375.828,-123.118,-15.4037,179.78,1.80176,-144.954,536
1570003934,375.828,-123.118,-15.4037,179.78,1.80176,-144.954,536
1570003934,375.828,-123.118,-15.4037,179.78,1.80176,-144.954,536
1570003934,375.828,-123.118,-15.4037,179.758,1.80176,-144.954,536
1570003934,375.828,-123.118,-15.4037,179.758,1.80176,-144.954,536
1570003934,375.828,-123.118,-15.4037,179.758,1.80176,-144.954,536
1570003934,375.828,-123.118,-15.5153,179.758,1.80176,-144.976,536
1570003934,375.828,-123.118,-15.5153,179.758,1.80176,-144.976,536
1570003934,375.828,-123.118,-15.4037,179.758,1.80176,-144.976,540
1570003934,375.828,-123.118,-15.4037,179.758,1.80176,-144.976,540
1570003934,375.717,-123.118,-15.4037,179.736,1.80176,-144.976,540
1570003934,375.717,-123.118,-15.4037,179.736,1.80176,-144.976,540
1570003934,375.717,-123.118,-15.4037,179.736,1.80176,-144.954,540
1570003934,375.717,-123.118,-15.4037,179.736,1.80176,-144.954,540
1570003934,375.828,-123.118,-15.4037,179.736,1.80176,-144.954,540
1570003934,375.828,-123.118,-15.4037,179.736,1.80176,-144.954,540
1570003934,375.828,-123.23,-15.4037,179.736,1.80176,-144.954,540
1570003934,375.828,-123.23,-15.5153,179.736,1.80176,-144.954,540
1570003934,375.828,-123.23,-15.5153,179.736,1.80176,-144.954,540
1570003934,375.828,-123.23,-15.5153,179.736,1.80176,-144.954,540
1570003934,375.828,-123.23,-15.5153,179.736,1.80176,-144.954,540
1570003934,375.828,-123.23,-15.5153,179.736,1.77979,-144.954,540
1570003934,375.828,-123.23,-15.5153,179.736,1.77979,-144.954,540
1570003934,375.828,-123.23,-15.5153,179.736,1.77979,-144.954,540
1570003934,375.828,-123.23,-15.5153,179.736,1.77979,-144.954,540
1570003934,375.828,-123.23,-15.5153,179.736,1.77979,-144.976,540
1570003934,375.828,-123.23,-15.5153,179.736,1.80176,-144.976,540
1570003934,375.828,-123.23,-15.5153,179.736,1.80176,-144.976,540
1570003934,375.828,-123.23,-15.5153,179.736,1.80176,-144.976,540
1570003934,375.828,-123.23,-15.5153,179.736,1.80176,-144.976,540
1570003934,375.828,-123.23,-15.5153,179.736,1.80176,-144.976,540
1570003934,375.828,-123.23,-15.5153,179.736,1.80176,-144.976,540
1570003934,375.828,-123.23,-15.5153,179.736,1.80176,-144.976,540
1570003934,375.828,-123.23,-15.5153,179.736,1.80176,-144.976,540
1570003934,375.828,-123.23,-15.5153,179.736,1.80176,-144.976,540
1570003934,375.828,-123.23,-15.5153,179.736,1.80176,-144.954,540
1570003934,375.828,-123.23,-15.5153,179.736,1.80176,-144.954,540
1570003934,375.828,-123.23,-15.5153,179.758,1.80176,-144.954,540
1570003934,375.828,-123.23,-15.5153,179.758,1.80176,-144.954,540
