time,x,y,z,ax,ay,az,q
1569684420,324.036,28.4634,-14.9572,179.033,1.95557,-145.129,428
1569684420,324.036,28.4634,-14.9572,179.033,1.95557,-145.129,428
1569684420,324.036,28.4634,-14.9572,179.033,1.95557,-145.129,428
1569684420,324.036,28.4634,-14.9572,179.033,1.95557,-145.129,428
1569684420,324.036,28.4634,-14.9572,179.033,1.95557,-145.129,428
1569684420,324.036,28.4634,-14.9572,179.033,1.95557,-145.129,432
1569684420,324.036,28.4634,-14.9572,179.033,1.95557,-145.129,432
1569684420,324.036,28.4634,-14.9572,179.033,1.95557,-145.129,432
1569684420,324.036,28.4634,-14.9572,179.033,1.95557,-145.129,432
1569684420,324.036,28.4634,-14.9572,179.033,1.95557,-145.129,432
1569684420,324.036,28.4634,-14.9572,179.033,1.97754,-145.129,432
1569684420,324.036,28.4634,-14.9572,179.033,1.97754,-145.129,432
1569684420,324.036,28.4634,-14.9572,179.033,1.97754,-145.129,432
1569684420,324.036,28.4634,-14.9572,179.033,1.97754,-145.129,432
1569684420,324.036,28.4634,-14.9572,179.033,1.97754,-145.151,432
1569684420,323.924,28.4634,-14.9572,179.033,1.97754,-145.129,432
1569684420,323.924,28.4634,-14.9572,179.033,1.97754,-145.129,432
1569684420,323.924,28.4634,-14.9572,179.033,1.97754,-145.129,432
1569684420,323.924,28.4634,-14.9572,179.033,1.97754,-145.129,432
1569684420,323.924,28.4634,-14.9572,179.033,1.95557,-145.129,432
1569684420,323.924,28.4634,-14.9572,179.033,1.95557,-145.129,432
1569684420,323.924,28.4634,-14.9572,179.033,1.97754,-145.129,432
1569684420,323.924,28.4634,-14.9572,179.033,1.97754,-145.129,432
1569684420,323.924,28.4634,-14.9572,179.033,1.97754,-145.129,432
1569684420,323.924,28.4634,-14.9572,179.033,1.97754,-145.129,432
1569684420,323.924,28.4634,-14.9572,179.033,1.97754,-145.129,432
1569684420,323.924,28.4634,-14.9572,179.033,1.97754,-145.129,432
1569684420,324.036,28.4634,-14.9572,179.033,1.97754,-145.129,432
1569684420,324.036,28.4634,-14.9572,179.033,1.97754,-145.129,432
1569684420,324.036,28.4634,-14.9572,179.033,1.97754,-145.129,432
1569684420,324.036,28.4634,-14.9572,179.033,1.97754,-145.129,432
1569684420,324.036,28.4634,-14.9572,179.033,1.97754,-145.129,432
1569684420,324.036,28.4634,-14.9572,179.033,1.95557,-145.129,432
1569684420,324.036,28.4634,-14.9572,179.033,1.95557,-145.129,432
1569684420,324.036,28.4634,-14.9572,179.033,1.95557,-145.129,432
1569684420,324.036,28.4634,-14.9572,179.033,1.95557,-145.129,432
1569684420,324.036,28.4634,-14.9572,179.033,1.95557,-145.129,432
1569684420,324.036,28.4634,-14.9572,179.033,1.95557,-145.129,436
1569684420,323.924,28.4634,-14.9572,179.033,1.95557,-145.129,436
1569684420,323.924,28.4634,-14.9572,179.033,1.95557,-145.129,436
1569684420,323.924,28.4634,-14.9572,179.033,1.95557,-145.129,436
1569684420,323.924,28.4634,-14.9572,179.033,1.95557,-145.129,436
1569684420,323.924,28.4634,-14.9572,179.033,1.95557,-145.129,436
1569684420,323.924,28.4634,-14.9572,179.011,1.95557,-145.129,436
1569684420,323.924,28.4634,-14.9572,179.011,1.95557,-145.129,436
1569684420,323.924,28.4634,-14.9572,179.011,1.97754,-145.129,436
1569684420,323.924,28.4634,-14.9572,179.011,1.97754,-145.129,436
1569684420,323.924,28.4634,-14.9572,179.011,1.97754,-145.129,436
1569684420,323.924,28.4634,-14.9572,179.011,1.97754,-145.129,436
1569684420,323.924,28.4634,-14.9572,179.011,1.97754,-145.129,436
1569684420,323.924,28.4634,-14.9572,179.011,1.97754,-145.129,436
1569684420,323.924,28.4634,-14.8456,179.011,1.97754,-145.129,436
1569684420,323.924,28.4634,-14.8456,179.011,1.97754,-145.129,436
1569684420,323.924,28.4634,-14.8456,179.011,1.97754,-145.129,436
1569684420,323.924,28.4634,-14.8456,179.011,1.97754,-145.129,436
1569684420,323.924,28.4634,-14.8456,179.033,1.97754,-145.129,436
1569684420,323.924,28.4634,-14.8456,179.033,1.97754,-145.129,436
1569684420,323.924,28.4634,-14.8456,179.033,1.97754,-145.129,436
1569684420,323.924,28.4634,-14.8456,179.033,1.97754,-145.129,436
1569684420,323.924,28.4634,-14.8456,179.033,1.97754,-145.151,436
1569684420,323.924,28.4634,-14.8456,179.033,1.97754,-145.151,436
1569684420,323.924,28.4634,-14.8456,179.033,1.97754,-145.151,436
1569684420,323.924,28.4634,-14.8456,179.033,1.97754,-145.151,436
1569684420,323.924,28.4634,-14.8456,179.033,1.97754,-145.151,436
1569684420,323.924,28.4634,-14.8456,179.033,1.97754,-145.151,436
1569684420,323.924,28.4634,-14.8456,179.033,1.97754,-145.151,436
1569684420,323.924,28.4634,-14.8456,179.033,1.97754,-145.151,436
1569684420,323.924,28.4634,-14.8456,179.033,1.97754,-145.151,436
1569684420,323.924,28.4634,-14.8456,179.033,1.97754,-145.151,436
1569684420,323.924,28.4634,-14.8456,179.033,1.97754,-145.151,436
1569684420,323.924,28.4634,-14.8456,179.033,1.97754,-145.151,436
1569684420,323.924,28.4634,-14.8456,179.033,1.97754,-145.151,436
1569684420,323.924,28.4634,-14.8456,179.033,1.97754,-145.151,436
1569684420,323.924,28.4634,-14.8456,179.033,1.97754,-145.151,436
1569684420,323.924,28.4634,-14.8456,179.033,1.97754,-145.151,436
1569684420,323.924,28.4634,-14.8456,179.033,1.97754,-145.151,436
1569684420,323.924,28.4634,-14.8456,179.033,1.97754,-145.151,436
1569684420,323.924,28.4634,-14.8456,179.033,1.97754,-145.129,436
1569684420,323.924,28.4634,-14.8456,179.033,1.97754,-145.129,436
1569684420,323.924,28.4634,-14.8456,179.033,1.97754,-145.129,436
1569684420,323.924,28.4634,-14.8456,179.033,1.97754,-145.129,436
1569684420,323.924,28.4634,-14.8456,179.033,1.97754,-145.129,436
1569684420,323.924,28.4634,-14.8456,179.033,1.97754,-145.129,432
1569684420,323.924,28.4634,-14.8456,179.033,1.97754,-145.129,432
1569684420,323.924,28.4634,-14.8456,179.033,1.97754,-145.129,432
1569684420,323.924,28.4634,-14.8456,179.033,1.97754,-145.129,432
1569684420,323.924,28.4634,-14.8456,179.033,1.97754,-145.129,432
1569684421,323.924,28.4634,-14.8456,179.033,1.97754,-145.129,432
1569684421,323.924,28.4634,-14.8456,179.033,1.97754,-145.129,432
1569684421,323.924,28.4634,-14.8456,179.033,1.97754,-145.129,432
1569684421,323.924,28.4634,-14.8456,179.033,1.97754,-145.129,432
1569684421,323.924,28.4634,-14.8456,179.033,1.97754,-145.129,432
1569684421,323.924,28.4634,-14.8456,179.033,1.97754,-145.129,432
1569684421,323.924,28.4634,-14.8456,179.033,1.97754,-145.129,432
1569684421,323.924,28.4634,-14.8456,179.033,1.97754,-145.129,432
1569684421,323.924,28.4634,-14.8456,179.033,1.97754,-145.129,432
1569684421,323.924,28.4634,-14.8456,179.033,1.97754,-145.129,432
1569684421,323.924,28.4634,-14.8456,179.033,1.97754,-145.129,432
1569684421,323.924,28.4634,-14.8456,179.033,1.97754,-145.129,432
1569684421,323.924,28.4634,-14.9572,179.033,1.97754,-145.129,432
1569684421,323.924,28.4634,-14.9572,179.033,1.97754,-145.129,432
1569684421,323.924,28.4634,-14.9572,179.033,1.97754,-145.129,432
1569684421,323.924,28.4634,-14.9572,179.033,1.97754,-145.129,432
1569684421,323.924,28.4634,-14.9572,179.033,1.97754,-145.129,432
1569684421,323.924,28.4634,-14.9572,179.033,1.97754,-145.129,432
1569684421,323.924,28.4634,-14.9572,179.033,1.97754,-145.129,432
1569684421,323.924,28.4634,-14.9572,179.033,1.97754,-145.129,428
1569684421,323.924,28.4634,-14.9572,179.033,1.97754,-145.129,428
1569684421,323.924,28.4634,-14.9572,179.033,1.97754,-145.129,428
1569684421,323.924,28.4634,-14.9572,179.033,1.97754,-145.129,428
1569684421,323.924,28.4634,-14.9572,179.033,1.97754,-145.129,428
1569684421,323.924,28.4634,-14.9572,179.033,1.97754,-145.129,428
1569684421,323.924,28.4634,-14.9572,179.033,1.97754,-145.129,428
1569684421,323.924,28.4634,-14.9572,179.033,1.95557,-145.129,428
1569684421,323.924,28.4634,-14.9572,179.033,1.95557,-145.129,428
1569684421,323.924,28.4634,-14.9572,179.033,1.95557,-145.129,428
1569684421,323.924,28.4634,-14.9572,179.033,1.95557,-145.129,428
1569684421,323.924,28.4634,-14.9572,179.033,1.95557,-145.129,428
1569684421,323.924,28.4634,-14.9572,179.033,1.95557,-145.151,428
1569684421,323.924,28.4634,-14.9572,179.033,1.95557,-145.151,428
1569684421,323.924,28.4634,-14.9572,179.033,1.95557,-145.151,428
1569684421,323.924,28.4634,-14.9572,179.033,1.95557,-145.151,428
1569684421,323.924,28.4634,-14.9572,179.033,1.95557,-145.151,428
1569684421,323.924,28.4634,-14.9572,179.033,1.95557,-145.151,428
1569684421,323.924,28.4634,-14.9572,179.033,1.95557,-145.151,428
1569684421,323.924,28.4634,-14.9572,179.033,1.95557,-145.151,428
1569684421,323.924,28.4634,-14.9572,179.033,1.95557,-145.151,428
1569684421,323.924,28.4634,-14.9572,179.033,1.95557,-145.151,428
1569684421,323.924,28.4634,-14.9572,179.033,1.95557,-145.151,428
1569684421,323.924,28.4634,-14.9572,179.033,1.95557,-145.151,428
1569684421,323.924,28.4634,-14.9572,179.033,1.95557,-145.151,428
1569684421,323.924,28.4634,-14.9572,179.033,1.95557,-145.151,432
1569684421,323.924,28.4634,-14.9572,179.033,1.97754,-145.151,432
1569684421,323.924,28.4634,-14.9572,179.033,1.97754,-145.151,432
1569684421,323.924,28.4634,-14.9572,179.033,1.97754,-145.151,432
1569684421,323.924,28.4634,-14.9572,179.033,1.97754,-145.151,432
1569684421,323.924,28.4634,-14.9572,179.033,1.97754,-145.151,432
1569684421,323.924,28.4634,-14.9572,179.033,1.97754,-145.151,432
1569684421,323.924,28.4634,-14.9572,179.033,1.97754,-145.151,432
1569684421,323.924,28.4634,-14.9572,179.033,1.97754,-145.151,432
1569684421,323.924,28.4634,-14.9572,179.033,1.97754,-145.151,432
1569684421,323.924,28.4634,-14.9572,179.033,1.97754,-145.151,436
1569684421,323.924,28.4634,-14.9572,179.033,1.97754,-145.151,436
1569684421,323.924,28.4634,-14.9572,179.033,1.97754,-145.151,436
1569684421,323.924,28.4634,-14.9572,179.033,1.97754,-145.151,436
1569684421,323.924,28.4634,-14.9572,179.033,1.97754,-145.151,436
1569684421,323.924,28.4634,-14.9572,179.033,1.97754,-145.151,436
1569684421,323.924,28.4634,-14.9572,179.033,1.97754,-145.151,436
1569684421,323.924,28.4634,-14.9572,179.033,1.97754,-145.151,440
1569684421,323.924,28.4634,-14.8456,179.033,1.97754,-145.151,440
1569684421,323.924,28.4634,-14.8456,179.033,1.97754,-145.151,440
1569684421,323.924,28.4634,-14.8456,179.033,1.97754,-145.151,440
1569684421,323.924,28.4634,-14.8456,179.033,1.97754,-145.151,436
1569684421,323.924,28.4634,-14.8456,179.033,1.97754,-145.151,436
1569684421,323.924,28.4634,-14.8456,179.033,1.99951,-145.151,436
1569684421,323.924,28.4634,-14.8456,179.033,1.99951,-145.151,436
1569684421,323.924,28.4634,-14.8456,179.033,1.99951,-145.151,436
1569684421,323.924,28.4634,-14.8456,179.033,1.99951,-145.151,436
1569684421,323.924,28.4634,-14.8456,179.033,1.99951,-145.151,436
1569684421,323.924,28.4634,-14.8456,179.033,1.99951,-145.151,436
1569684421,323.924,28.4634,-14.8456,179.033,1.99951,-145.151,436
1569684421,323.924,28.4634,-14.8456,179.033,1.99951,-145.151,436
1569684421,323.924,28.4634,-14.8456,179.033,1.99951,-145.151,436
1569684421,323.924,28.4634,-14.8456,179.033,1.99951,-145.151,436
1569684421,323.924,28.4634,-14.8456,179.033,1.99951,-145.151,436
1569684421,323.924,28.4634,-14.8456,179.033,1.99951,-145.151,436
1569684421,323.924,28.4634,-14.8456,179.033,1.99951,-145.151,436
1569684421,323.924,28.4634,-14.8456,179.033,1.99951,-145.151,436
1569684421,323.924,28.4634,-14.8456,179.033,1.99951,-145.151,436
1569684421,323.924,28.4634,-14.8456,179.033,1.99951,-145.151,436
1569684421,323.924,28.4634,-14.8456,179.033,1.99951,-145.151,436
1569684421,323.924,28.4634,-14.8456,179.033,1.99951,-145.151,436
1569684421,323.924,28.4634,-14.8456,179.033,1.99951,-145.151,436
1569684421,323.924,28.4634,-14.8456,179.033,1.99951,-145.151,436
1569684421,323.924,28.4634,-14.8456,179.033,1.99951,-145.151,436
1569684421,323.924,28.4634,-14.8456,179.033,1.99951,-145.151,436
1569684421,323.924,28.4634,-14.8456,179.011,1.99951,-145.151,436
1569684421,323.924,28.4634,-14.8456,179.011,1.99951,-145.151,436
1569684421,323.924,28.4634,-14.8456,179.011,1.99951,-145.151,436
1569684421,323.924,28.4634,-14.8456,179.011,1.99951,-145.151,436
1569684421,323.924,28.4634,-14.8456,179.033,1.99951,-145.151,436
1569684421,323.924,28.4634,-14.8456,179.033,1.99951,-145.151,436
1569684421,323.924,28.4634,-14.8456,179.033,1.99951,-145.151,436
1569684421,323.924,28.4634,-14.8456,179.033,1.99951,-145.151,436
1569684421,323.924,28.4634,-14.8456,179.033,1.99951,-145.151,436
1569684421,323.924,28.4634,-14.8456,179.033,1.99951,-145.151,436
1569684421,323.924,28.4634,-14.8456,179.033,1.99951,-145.151,436
1569684422,323.924,28.4634,-14.8456,179.033,1.99951,-145.151,436
1569684422,323.924,28.4634,-14.8456,179.033,1.99951,-145.151,436
1569684422,323.924,28.4634,-14.8456,179.033,1.99951,-145.151,436
1569684422,323.924,28.4634,-14.8456,179.033,1.99951,-145.151,436
1569684422,323.924,28.4634,-14.8456,179.033,1.99951,-145.151,436
1569684422,323.924,28.4634,-14.8456,179.033,1.99951,-145.151,436
1569684422,323.924,28.4634,-14.8456,179.033,1.99951,-145.151,436
1569684422,323.924,28.4634,-14.8456,179.033,1.99951,-145.151,436
1569684422,323.924,28.4634,-14.8456,179.033,1.99951,-145.151,436
1569684422,323.924,28.4634,-14.8456,179.033,1.99951,-145.151,436
1569684422,323.924,28.4634,-14.8456,179.033,1.99951,-145.151,436
1569684422,323.924,28.4634,-14.8456,179.033,1.99951,-145.151,436
1569684422,323.924,28.4634,-14.8456,179.033,1.99951,-145.151,436
1569684422,323.924,28.4634,-14.8456,179.033,1.99951,-145.151,436
1569684422,323.924,28.4634,-14.8456,179.033,1.99951,-145.151,436
1569684422,323.924,28.4634,-14.8456,179.033,1.99951,-145.151,436
1569684422,323.924,28.4634,-14.8456,179.033,1.99951,-145.151,436
1569684422,323.924,28.4634,-14.8456,179.033,1.97754,-145.151,436
1569684422,323.924,28.4634,-14.8456,179.055,1.97754,-145.151,436
1569684422,323.924,28.4634,-14.8456,179.055,1.97754,-145.151,436
1569684422,323.924,28.4634,-14.9572,179.033,1.97754,-145.151,436
1569684422,323.924,28.4634,-14.9572,179.033,1.97754,-145.151,436
1569684422,323.924,28.4634,-14.9572,179.033,1.97754,-145.151,436
1569684422,323.924,28.4634,-14.9572,179.033,1.97754,-145.151,436
1569684422,323.924,28.4634,-14.9572,179.033,1.97754,-145.151,440
1569684422,323.924,28.4634,-14.9572,179.033,1.97754,-145.129,440
1569684422,323.924,28.4634,-14.9572,179.033,1.97754,-145.129,440
1569684422,323.924,28.4634,-14.9572,179.033,1.97754,-145.129,440
1569684422,323.924,28.4634,-14.9572,179.033,1.97754,-145.129,440
1569684422,323.924,28.4634,-14.9572,179.033,1.97754,-145.129,440
1569684422,323.924,28.4634,-14.9572,179.033,1.97754,-145.129,440
1569684422,323.924,28.4634,-14.9572,179.033,1.97754,-145.129,440
1569684422,323.924,28.4634,-14.9572,179.033,1.97754,-145.129,440
1569684422,323.924,28.4634,-14.9572,179.033,1.97754,-145.129,440
1569684422,323.924,28.4634,-14.9572,179.033,1.97754,-145.129,440
1569684422,323.924,28.4634,-14.9572,179.033,1.97754,-145.129,440
1569684422,323.924,28.4634,-14.9572,179.033,1.97754,-145.129,440
1569684422,323.924,28.4634,-14.9572,179.033,1.97754,-145.129,440
1569684422,323.924,28.4634,-14.9572,179.033,1.97754,-145.129,440
1569684422,323.924,28.4634,-14.9572,179.033,1.97754,-145.129,440
1569684422,323.924,28.4634,-14.9572,179.033,1.97754,-145.129,440
1569684422,323.924,28.575,-14.9572,179.055,1.97754,-145.129,436
1569684422,323.924,28.575,-14.9572,179.055,1.97754,-145.129,436
1569684422,323.924,28.575,-14.9572,179.055,1.97754,-145.129,436
1569684422,323.924,28.575,-14.9572,179.055,1.97754,-145.129,436
1569684422,323.924,28.575,-14.9572,179.055,1.97754,-145.129,436
1569684422,323.924,28.575,-14.9572,179.055,1.97754,-145.129,432
1569684422,323.924,28.575,-14.9572,179.055,1.97754,-145.129,432
1569684422,323.924,28.575,-14.9572,179.055,1.97754,-145.129,432
1569684422,323.924,28.575,-14.9572,179.055,1.97754,-145.129,432
1569684422,323.924,28.575,-14.9572,179.055,1.97754,-145.129,432
1569684422,323.924,28.575,-14.9572,179.055,1.97754,-145.129,432
1569684422,323.924,28.4634,-14.9572,179.055,1.97754,-145.129,432
1569684422,323.924,28.4634,-14.9572,179.055,1.97754,-145.151,432
1569684422,323.924,28.4634,-14.9572,179.033,1.97754,-145.151,432
1569684422,323.924,28.4634,-14.9572,179.033,1.97754,-145.151,432
1569684422,323.924,28.4634,-14.9572,179.033,1.97754,-145.151,432
1569684422,323.924,28.4634,-14.9572,179.033,1.97754,-145.151,432
1569684422,323.924,28.4634,-14.9572,179.033,1.97754,-145.151,432
1569684422,323.924,28.4634,-14.9572,179.033,1.97754,-145.151,432
1569684422,323.924,28.4634,-14.9572,179.033,1.97754,-145.151,432
1569684422,323.924,28.4634,-14.9572,179.033,1.97754,-145.151,432
1569684422,323.924,28.4634,-14.9572,179.033,1.97754,-145.151,432
1569684422,323.924,28.4634,-14.9572,179.033,1.95557,-145.151,432
1569684422,323.924,28.4634,-14.9572,179.033,1.95557,-145.151,432
1569684422,323.924,28.4634,-14.9572,179.033,1.95557,-145.151,432
1569684422,323.924,28.4634,-14.9572,179.033,1.95557,-145.151,432
1569684422,323.924,28.4634,-14.9572,179.033,1.95557,-145.151,432
1569684422,323.924,28.4634,-14.9572,179.033,1.95557,-145.151,436
1569684422,323.924,28.4634,-14.9572,179.033,1.95557,-145.151,436
1569684422,323.924,28.4634,-14.9572,179.033,1.95557,-145.151,436
1569684422,323.924,28.4634,-14.9572,179.033,1.97754,-145.151,436
1569684422,323.924,28.4634,-14.9572,179.033,1.97754,-145.151,436
1569684422,323.924,28.4634,-14.9572,179.033,1.97754,-145.151,436
1569684422,323.924,28.4634,-14.9572,179.033,1.97754,-145.151,436
1569684422,323.924,28.4634,-14.9572,179.033,1.97754,-145.151,436
1569684422,323.924,28.4634,-14.8456,179.033,1.97754,-145.129,436
1569684422,323.924,28.4634,-14.8456,179.033,1.97754,-145.129,436
1569684422,323.924,28.4634,-14.8456,179.033,1.97754,-145.129,436
1569684422,323.924,28.4634,-14.8456,179.033,1.97754,-145.129,436
1569684422,323.924,28.4634,-14.8456,179.033,1.97754,-145.129,436
1569684422,323.924,28.4634,-14.8456,179.033,1.97754,-145.129,436
1569684422,323.924,28.4634,-14.8456,179.033,1.97754,-145.129,436
1569684422,323.924,28.4634,-14.8456,179.033,1.97754,-145.129,436
1569684422,323.924,28.4634,-14.9572,179.033,1.97754,-145.129,436
1569684422,323.924,28.4634,-14.9572,179.033,1.97754,-145.129,436
1569684422,323.924,28.4634,-14.9572,179.033,1.97754,-145.129,436
1569684422,323.924,28.4634,-14.9572,179.033,1.97754,-145.129,436
1569684422,323.924,28.4634,-14.9572,179.033,1.97754,-145.129,436
1569684422,323.924,28.4634,-14.9572,179.033,1.97754,-145.129,436
1569684422,323.924,28.4634,-14.9572,179.033,1.97754,-145.129,436
1569684422,323.924,28.4634,-14.9572,179.033,1.97754,-145.129,436
1569684422,323.924,28.4634,-14.9572,179.033,1.97754,-145.129,436
1569684422,323.924,28.4634,-14.9572,179.033,1.97754,-145.129,436
1569684422,323.924,28.4634,-14.9572,179.033,1.97754,-145.129,436
1569684422,323.924,28.4634,-14.9572,179.033,1.95557,-145.129,436
1569684422,323.924,28.4634,-14.9572,179.033,1.95557,-145.129,436
1569684422,323.924,28.4634,-14.9572,179.033,1.95557,-145.129,436
1569684422,323.924,28.4634,-14.9572,179.033,1.95557,-145.129,436
1569684422,323.924,28.4634,-14.9572,179.033,1.95557,-145.129,440
1569684423,323.924,28.4634,-14.9572,179.033,1.95557,-145.129,440
1569684423,323.924,28.4634,-14.9572,179.033,1.95557,-145.129,440
1569684423,323.924,28.4634,-14.9572,179.033,1.95557,-145.129,440
1569684423,323.924,28.4634,-14.9572,179.033,1.93359,-145.129,440
1569684423,323.924,28.4634,-14.9572,179.033,1.93359,-145.129,440
1569684423,323.924,28.4634,-14.9572,179.033,1.93359,-145.129,440
1569684423,323.924,28.4634,-14.9572,179.033,1.93359,-145.129,440
1569684423,323.924,28.4634,-14.9572,179.033,1.95557,-145.129,440
1569684423,323.924,28.4634,-14.9572,179.033,1.95557,-145.129,440
1569684423,323.924,28.4634,-14.9572,179.033,1.95557,-145.129,440
1569684423,323.924,28.4634,-14.9572,179.033,1.95557,-145.129,440
1569684423,323.924,28.4634,-14.9572,179.033,1.95557,-145.129,440
1569684423,323.924,28.4634,-14.9572,179.033,1.95557,-145.129,440
1569684423,323.924,28.4634,-14.9572,179.033,1.95557,-145.129,440
1569684423,323.924,28.4634,-14.9572,179.033,1.95557,-145.129,440
1569684423,323.924,28.4634,-14.9572,179.033,1.95557,-145.129,440
1569684423,323.924,28.4634,-14.9572,179.033,1.95557,-145.129,440
1569684423,323.924,28.4634,-14.9572,179.033,1.95557,-145.129,440
1569684423,323.924,28.4634,-14.9572,179.033,1.95557,-145.129,440
1569684423,323.924,28.4634,-14.9572,179.033,1.95557,-145.129,440
1569684423,323.924,28.4634,-14.9572,179.033,1.95557,-145.129,440
1569684423,323.924,28.4634,-14.9572,179.055,1.95557,-145.129,440
1569684423,323.924,28.4634,-14.9572,179.055,1.95557,-145.129,440
1569684423,323.924,28.4634,-14.9572,179.055,1.95557,-145.129,440
1569684423,323.924,28.4634,-14.9572,179.055,1.95557,-145.129,444
1569684423,323.924,28.4634,-14.9572,179.055,1.95557,-145.129,444
1569684423,323.924,28.4634,-14.9572,179.055,1.95557,-145.129,444
1569684423,323.924,28.4634,-14.9572,179.055,1.95557,-145.129,444
1569684423,323.924,28.4634,-14.9572,179.055,1.95557,-145.129,444
1569684423,323.924,28.4634,-14.9572,179.055,1.95557,-145.129,444
1569684423,323.924,28.4634,-14.9572,179.055,1.95557,-145.129,444
1569684423,323.924,28.4634,-14.9572,179.055,1.95557,-145.129,444
1569684423,323.924,28.4634,-14.9572,179.055,1.95557,-145.129,444
1569684423,323.924,28.4634,-14.9572,179.055,1.95557,-145.129,444
1569684423,323.924,28.4634,-14.9572,179.055,1.95557,-145.129,444
1569684423,323.924,28.4634,-14.9572,179.055,1.97754,-145.129,444
1569684423,323.924,28.4634,-14.9572,179.055,1.97754,-145.129,444
1569684423,323.924,28.4634,-14.9572,179.055,1.97754,-145.129,444
1569684423,323.924,28.4634,-14.8456,179.055,1.97754,-145.129,444
1569684423,323.924,28.4634,-14.8456,179.055,1.97754,-145.129,444
1569684423,323.924,28.4634,-14.8456,179.055,1.97754,-145.129,444
1569684423,323.924,28.4634,-14.8456,179.055,1.97754,-145.129,444
1569684423,323.924,28.4634,-14.8456,179.055,1.97754,-145.129,444
1569684423,323.924,28.4634,-14.8456,179.055,1.97754,-145.129,444
1569684423,323.924,28.4634,-14.8456,179.055,1.97754,-145.129,444
1569684423,323.924,28.4634,-14.9572,179.055,1.97754,-145.129,444
1569684423,323.924,28.4634,-14.9572,179.055,1.97754,-145.129,444
1569684423,323.924,28.4634,-14.9572,179.055,1.97754,-145.129,444
1569684423,323.924,28.4634,-14.9572,179.055,1.97754,-145.129,444
1569684423,323.924,28.4634,-14.9572,179.055,1.97754,-145.129,444
1569684423,323.924,28.4634,-14.9572,179.055,1.97754,-145.129,444
1569684423,323.924,28.4634,-14.9572,179.055,1.97754,-145.129,444
1569684423,323.924,28.4634,-14.9572,179.055,1.97754,-145.129,444
1569684423,323.924,28.4634,-14.9572,179.055,1.97754,-145.129,444
1569684423,323.924,28.4634,-14.9572,179.055,1.97754,-145.129,444
1569684423,323.924,28.4634,-14.9572,179.055,1.97754,-145.129,444
1569684423,323.924,28.4634,-14.9572,179.055,1.97754,-145.129,444
1569684423,323.924,28.4634,-14.9572,179.055,1.97754,-145.129,440
1569684423,323.924,28.4634,-14.9572,179.055,1.97754,-145.129,440
1569684423,323.924,28.4634,-14.9572,179.055,1.97754,-145.129,440
1569684423,323.924,28.4634,-14.9572,179.055,1.97754,-145.129,440
1569684423,323.924,28.4634,-14.9572,179.055,1.97754,-145.129,440
1569684423,323.924,28.4634,-14.9572,179.055,1.97754,-145.129,440
1569684423,323.924,28.4634,-14.9572,179.055,1.97754,-145.129,440
1569684423,323.924,28.4634,-14.9572,179.055,1.97754,-145.129,436
1569684423,323.924,28.4634,-14.9572,179.055,1.97754,-145.129,436
1569684423,323.924,28.4634,-14.9572,179.055,1.97754,-145.129,436
1569684423,323.924,28.575,-14.9572,179.055,1.97754,-145.129,436
1569684423,323.924,28.575,-14.9572,179.055,1.97754,-145.129,436
1569684423,323.924,28.575,-14.9572,179.055,1.97754,-145.129,432
1569684423,323.924,28.575,-14.9572,179.055,1.97754,-145.129,432
1569684423,323.924,28.575,-14.9572,179.055,1.97754,-145.129,432
1569684423,323.924,28.575,-14.9572,179.055,1.97754,-145.129,428
1569684423,324.036,28.575,-14.9572,179.055,1.95557,-145.129,428
1569684423,324.036,28.575,-14.9572,179.055,1.95557,-145.129,428
1569684423,324.036,28.575,-14.9572,179.055,1.95557,-145.129,428
1569684423,324.036,28.575,-14.9572,179.055,1.95557,-145.129,428
1569684423,324.036,28.575,-14.9572,179.055,1.97754,-145.129,424
1569684423,324.036,28.575,-14.9572,179.055,1.97754,-145.129,424
1569684423,324.036,28.575,-14.9572,179.055,1.97754,-145.129,424
1569684423,324.036,28.575,-14.9572,179.055,1.97754,-145.129,424
1569684423,324.036,28.575,-14.9572,179.055,1.97754,-145.129,424
1569684423,324.036,28.575,-14.9572,179.055,1.97754,-145.129,424
1569684423,324.036,28.575,-14.9572,179.055,1.97754,-145.129,424
1569684423,324.036,28.575,-14.9572,179.055,1.97754,-145.129,424
1569684423,324.036,28.575,-14.9572,179.055,1.97754,-145.129,424
1569684423,324.036,28.575,-14.9572,179.055,1.97754,-145.129,424
1569684423,324.036,28.575,-14.9572,179.055,1.97754,-145.129,424
1569684423,324.036,28.575,-14.9572,179.055,1.97754,-145.129,424
1569684423,324.036,28.575,-14.9572,179.055,1.97754,-145.129,424
1569684423,324.036,28.575,-14.9572,179.055,1.97754,-145.129,424
1569684423,324.036,28.575,-14.9572,179.055,1.97754,-145.129,424
1569684423,324.036,28.575,-14.9572,179.055,1.97754,-145.129,424
1569684423,324.036,28.575,-14.9572,179.055,1.97754,-145.129,424
1569684423,324.036,28.575,-14.8456,179.055,1.97754,-145.129,420
1569684423,324.036,28.575,-14.8456,179.055,1.97754,-145.129,420
1569684423,324.036,28.575,-14.8456,179.055,1.97754,-145.129,420
1569684423,324.036,28.575,-14.8456,179.055,1.97754,-145.129,420
1569684423,324.036,28.575,-14.8456,179.055,1.97754,-145.129,420
1569684423,324.036,28.575,-14.8456,179.055,1.97754,-145.129,424
1569684424,324.036,28.575,-14.8456,179.055,1.97754,-145.129,424
1569684424,324.036,28.575,-14.8456,179.055,1.97754,-145.129,424
1569684424,324.036,28.575,-14.8456,179.055,1.97754,-145.129,424
1569684424,324.036,28.575,-14.8456,179.055,1.97754,-145.129,424
1569684424,324.036,28.575,-14.9572,179.055,1.97754,-145.129,424
1569684424,324.036,28.575,-14.9572,179.055,1.97754,-145.129,424
1569684424,324.036,28.575,-14.9572,179.055,1.97754,-145.129,424
1569684424,324.036,28.4634,-14.9572,179.055,1.97754,-145.129,428
1569684424,324.036,28.4634,-14.9572,179.055,1.97754,-145.129,428
1569684424,324.036,28.4634,-14.9572,179.055,1.97754,-145.129,428
1569684424,324.036,28.4634,-14.9572,179.055,1.97754,-145.129,428
1569684424,324.036,28.4634,-14.9572,179.055,1.97754,-145.129,428
1569684424,324.036,28.4634,-14.9572,179.055,1.97754,-145.129,428
1569684424,323.924,28.4634,-14.9572,179.055,1.97754,-145.129,428
1569684424,323.924,28.4634,-14.9572,179.055,1.97754,-145.129,432
1569684424,323.924,28.4634,-14.9572,179.055,1.97754,-145.129,432
1569684424,323.924,28.4634,-14.9572,179.055,1.97754,-145.129,432
1569684424,323.924,28.4634,-14.9572,179.055,1.97754,-145.129,432
1569684424,323.924,28.4634,-14.9572,179.055,1.97754,-145.129,432
1569684424,323.924,28.4634,-14.9572,179.055,1.97754,-145.129,436
1569684424,323.924,28.4634,-14.9572,179.055,1.97754,-145.129,436
1569684424,323.924,28.4634,-14.9572,179.055,1.97754,-145.129,436
1569684424,323.924,28.4634,-14.9572,179.055,1.97754,-145.129,436
1569684424,323.924,28.4634,-14.9572,179.055,1.97754,-145.129,436
1569684424,323.924,28.4634,-14.9572,179.055,1.97754,-145.129,436
1569684424,323.924,28.4634,-14.9572,179.055,1.97754,-145.129,440
1569684424,323.924,28.4634,-14.9572,179.055,1.97754,-145.129,440
1569684424,323.924,28.4634,-14.9572,179.055,1.97754,-145.129,440
1569684424,323.924,28.4634,-14.9572,179.055,1.97754,-145.129,440
1569684424,323.924,28.4634,-14.9572,179.055,1.97754,-145.129,440
1569684424,323.924,28.575,-14.9572,179.055,1.97754,-145.151,440
1569684424,323.924,28.575,-14.9572,179.055,1.97754,-145.151,440
1569684424,323.924,28.575,-14.9572,179.055,1.97754,-145.151,444
1569684424,323.924,28.575,-14.9572,179.055,1.97754,-145.151,444
1569684424,323.924,28.575,-14.9572,179.055,1.97754,-145.151,444
1569684424,323.924,28.575,-14.9572,179.055,1.97754,-145.151,444
1569684424,323.924,28.575,-14.9572,179.055,1.97754,-145.151,444
1569684424,323.924,28.575,-14.9572,179.055,1.97754,-145.151,444
1569684424,323.924,28.575,-14.9572,179.055,1.97754,-145.151,444
1569684424,323.924,28.575,-14.9572,179.055,1.97754,-145.151,444
1569684424,323.924,28.575,-14.9572,179.055,1.97754,-145.151,444
1569684424,323.924,28.575,-14.9572,179.055,1.97754,-145.151,444
1569684424,323.924,28.575,-14.9572,179.055,1.97754,-145.151,444
1569684424,323.924,28.575,-14.9572,179.055,1.97754,-145.151,444
1569684424,323.924,28.575,-14.9572,179.055,1.97754,-145.151,444
1569684424,323.924,28.575,-14.9572,179.055,1.97754,-145.151,444
1569684424,323.924,28.575,-14.9572,179.055,1.97754,-145.151,444
1569684424,323.924,28.575,-14.9572,179.055,1.97754,-145.151,444
1569684424,323.924,28.575,-14.9572,179.055,1.97754,-145.151,444
1569684424,323.924,28.575,-14.9572,179.055,1.97754,-145.151,444
1569684424,323.924,28.575,-14.9572,179.055,1.97754,-145.151,444
1569684424,323.924,28.575,-14.9572,179.055,1.97754,-145.151,440
1569684424,323.924,28.575,-14.9572,179.055,1.97754,-145.151,440
1569684424,323.924,28.575,-14.9572,179.055,1.97754,-145.151,440
1569684424,323.924,28.575,-14.9572,179.055,1.97754,-145.151,440
1569684424,323.924,28.575,-14.9572,179.055,1.97754,-145.151,440
1569684424,323.924,28.575,-14.9572,179.055,1.97754,-145.151,440
1569684424,323.924,28.575,-14.9572,179.055,1.97754,-145.151,440
1569684424,323.924,28.575,-14.9572,179.055,1.97754,-145.151,436
1569684424,323.924,28.575,-14.9572,179.055,1.97754,-145.151,436
1569684424,323.924,28.575,-14.9572,179.055,1.97754,-145.151,436
1569684424,323.924,28.575,-14.9572,179.055,1.97754,-145.151,436
1569684424,323.924,28.575,-14.9572,179.055,1.97754,-145.151,436
1569684424,323.924,28.575,-14.9572,179.055,1.97754,-145.151,436
1569684424,323.924,28.575,-14.9572,179.055,1.97754,-145.151,436
1569684424,323.924,28.575,-14.9572,179.055,1.97754,-145.151,432
1569684424,323.924,28.575,-14.9572,179.055,1.97754,-145.151,432
1569684424,323.924,28.575,-14.9572,179.055,1.97754,-145.151,432
1569684424,323.924,28.575,-14.9572,179.055,1.97754,-145.151,432
1569684424,323.924,28.575,-14.9572,179.055,1.97754,-145.151,432
1569684424,323.924,28.575,-14.9572,179.055,1.97754,-145.151,432
1569684424,323.924,28.575,-14.9572,179.055,1.97754,-145.151,432
1569684424,323.924,28.575,-14.9572,179.055,1.97754,-145.151,432
1569684424,323.924,28.575,-14.9572,179.055,1.97754,-145.129,432
1569684424,323.924,28.4634,-14.9572,179.055,1.97754,-145.129,432
1569684424,323.924,28.4634,-14.9572,179.055,1.97754,-145.129,432
1569684424,323.924,28.4634,-14.9572,179.055,1.97754,-145.129,432
1569684424,323.924,28.4634,-14.9572,179.055,1.97754,-145.129,432
1569684424,323.924,28.4634,-14.9572,179.055,1.97754,-145.129,432
1569684424,323.924,28.4634,-14.9572,179.055,1.97754,-145.129,432
1569684424,323.924,28.4634,-14.9572,179.055,1.97754,-145.129,432
1569684424,323.924,28.4634,-14.9572,179.055,1.97754,-145.129,432
1569684424,323.924,28.4634,-14.9572,179.055,1.97754,-145.129,432
1569684424,323.924,28.4634,-14.9572,179.055,1.95557,-145.129,432
1569684424,323.924,28.4634,-14.9572,179.055,1.95557,-145.129,432
1569684424,323.924,28.4634,-14.9572,179.055,1.95557,-145.129,432
1569684424,323.924,28.4634,-14.9572,179.055,1.95557,-145.129,432
1569684424,323.924,28.4634,-14.9572,179.055,1.95557,-145.129,432
1569684424,323.924,28.4634,-14.9572,179.055,1.95557,-145.129,432
1569684424,323.924,28.4634,-14.9572,179.055,1.95557,-145.129,432
1569684424,323.924,28.4634,-14.9572,179.055,1.95557,-145.129,432
1569684424,323.924,28.4634,-14.9572,179.055,1.95557,-145.129,432
1569684424,323.924,28.4634,-14.9572,179.055,1.95557,-145.129,432
1569684424,323.924,28.4634,-14.9572,179.055,1.95557,-145.129,432
1569684424,323.924,28.4634,-14.9572,179.055,1.95557,-145.129,432
1569684424,323.924,28.4634,-14.9572,179.055,1.95557,-145.129,432
1569684424,323.924,28.4634,-14.9572,179.055,1.95557,-145.129,436
1569684424,323.924,28.4634,-14.9572,179.055,1.95557,-145.129,436
1569684424,323.924,28.4634,-14.9572,179.055,1.95557,-145.129,436
1569684424,323.924,28.4634,-14.9572,179.055,1.95557,-145.129,436
1569684425,323.924,28.4634,-14.9572,179.055,1.95557,-145.129,436
1569684425,323.924,28.4634,-14.9572,179.055,1.95557,-145.129,436
1569684425,323.924,28.4634,-14.9572,179.033,1.95557,-145.129,436
1569684425,323.924,28.4634,-14.9572,179.033,1.95557,-145.129,436
1569684425,323.924,28.4634,-14.9572,179.033,1.95557,-145.129,436
1569684425,323.924,28.4634,-14.9572,179.033,1.95557,-145.129,436
1569684425,323.924,28.4634,-14.9572,179.033,1.95557,-145.129,436
1569684425,323.924,28.4634,-14.9572,179.033,1.95557,-145.129,436
1569684425,323.924,28.4634,-14.9572,179.033,1.95557,-145.129,436
1569684425,323.924,28.4634,-14.9572,179.033,1.95557,-145.129,436
1569684425,323.924,28.4634,-14.9572,179.033,1.95557,-145.129,436
1569684425,323.924,28.4634,-14.9572,179.033,1.95557,-145.129,436
1569684425,323.924,28.4634,-14.9572,179.033,1.97754,-145.129,436
1569684428,339.216,12.1667,-14.734,179.165,1.82373,-144.8,464
1569684428,339.216,12.1667,-14.734,179.165,1.82373,-144.8,464
1569684428,339.216,12.1667,-14.734,179.165,1.82373,-144.8,464
1569684428,339.216,12.1667,-14.734,179.165,1.82373,-144.8,464
1569684428,339.216,12.1667,-14.734,179.143,1.82373,-144.8,464
1569684428,339.216,12.1667,-14.734,179.143,1.82373,-144.8,464
1569684428,339.216,12.1667,-14.734,179.143,1.82373,-144.8,464
1569684428,339.216,12.1667,-14.734,179.143,1.82373,-144.8,464
1569684428,339.216,12.1667,-14.734,179.143,1.82373,-144.8,464
1569684428,339.216,12.1667,-14.734,179.143,1.82373,-144.8,468
1569684428,339.216,12.1667,-14.734,179.143,1.82373,-144.8,468
1569684428,339.216,12.1667,-14.734,179.143,1.82373,-144.8,468
1569684428,339.216,12.1667,-14.734,179.165,1.82373,-144.8,468
1569684428,339.216,12.1667,-14.734,179.165,1.82373,-144.8,468
1569684428,339.216,12.1667,-14.734,179.165,1.82373,-144.8,468
1569684428,339.216,12.1667,-14.734,179.165,1.82373,-144.8,472
1569684428,339.105,12.1667,-14.734,179.165,1.82373,-144.8,472
1569684428,339.105,12.1667,-14.734,179.165,1.82373,-144.8,472
1569684428,339.105,12.1667,-14.734,179.165,1.8457,-144.8,472
1569684428,339.105,12.1667,-14.734,179.165,1.8457,-144.8,472
1569684428,339.105,12.1667,-14.734,179.165,1.8457,-144.8,476
1569684428,339.105,12.1667,-14.734,179.165,1.8457,-144.8,476
1569684428,339.105,12.1667,-14.734,179.165,1.8457,-144.8,476
1569684428,339.105,12.1667,-14.734,179.165,1.8457,-144.8,476
1569684428,339.105,12.1667,-14.734,179.165,1.8457,-144.8,476
1569684428,339.216,12.1667,-14.734,179.165,1.8457,-144.8,476
1569684428,339.216,12.1667,-14.734,179.165,1.8457,-144.8,476
1569684428,339.216,12.1667,-14.734,179.165,1.8457,-144.8,476
1569684428,339.216,12.1667,-14.734,179.165,1.8457,-144.8,476
1569684428,339.216,12.1667,-14.734,179.165,1.8457,-144.8,480
1569684428,339.216,12.1667,-14.734,179.165,1.8457,-144.8,480
1569684428,339.216,12.1667,-14.734,179.165,1.8457,-144.8,480
1569684428,339.216,12.1667,-14.734,179.165,1.8457,-144.8,480
1569684428,339.216,12.1667,-14.734,179.165,1.8457,-144.8,480
1569684428,339.216,12.1667,-14.734,179.165,1.82373,-144.8,480
1569684428,339.216,12.1667,-14.734,179.165,1.82373,-144.8,480
1569684428,339.216,12.1667,-14.734,179.165,1.82373,-144.8,480
1569684428,339.216,12.1667,-14.734,179.165,1.82373,-144.8,476
1569684428,339.216,12.1667,-14.734,179.165,1.82373,-144.8,476
1569684428,339.216,12.1667,-14.734,179.165,1.82373,-144.778,476
1569684428,339.216,12.1667,-14.734,179.165,1.82373,-144.778,476
1569684428,339.105,12.1667,-14.734,179.165,1.82373,-144.778,476
1569684428,339.105,12.1667,-14.734,179.165,1.82373,-144.778,476
1569684428,339.105,12.1667,-14.734,179.165,1.8457,-144.778,476
1569684428,339.105,12.2783,-14.734,179.165,1.8457,-144.778,472
1569684428,339.105,12.2783,-14.734,179.165,1.8457,-144.778,472
1569684428,339.105,12.2783,-14.734,179.165,1.8457,-144.778,472
1569684428,339.105,12.2783,-14.734,179.187,1.8457,-144.778,472
1569684428,339.216,12.2783,-14.734,179.187,1.8457,-144.778,472
1569684428,339.216,12.2783,-14.734,179.187,1.8457,-144.778,468
1569684428,339.216,12.2783,-14.734,179.187,1.8457,-144.778,468
1569684428,339.216,12.2783,-14.734,179.187,1.8457,-144.778,468
1569684428,339.216,12.2783,-14.734,179.187,1.8457,-144.778,464
1569684428,339.216,12.2783,-14.734,179.187,1.8457,-144.778,464
1569684428,339.216,12.2783,-14.734,179.187,1.8457,-144.778,464
1569684428,339.216,12.2783,-14.734,179.187,1.8457,-144.778,464
1569684428,339.216,12.2783,-14.734,179.187,1.82373,-144.778,460
1569684428,339.216,12.2783,-14.734,179.187,1.82373,-144.778,460
1569684428,339.216,12.2783,-14.734,179.187,1.82373,-144.778,460
1569684428,339.216,12.2783,-14.734,179.187,1.82373,-144.778,456
1569684428,339.216,12.2783,-14.734,179.187,1.82373,-144.778,456
1569684428,339.216,12.1667,-14.734,179.187,1.82373,-144.778,456
1569684428,339.216,12.1667,-14.734,179.187,1.82373,-144.778,456
1569684428,339.216,12.1667,-14.734,179.187,1.82373,-144.778,456
1569684428,339.216,12.1667,-14.734,179.187,1.80176,-144.778,456
1569684428,339.216,12.1667,-14.734,179.187,1.80176,-144.8,456
1569684428,339.216,12.1667,-14.734,179.187,1.80176,-144.8,452
1569684429,339.216,12.1667,-14.734,179.187,1.80176,-144.8,452
1569684429,339.216,12.1667,-14.734,179.187,1.80176,-144.8,452
1569684429,339.216,12.1667,-14.734,179.165,1.80176,-144.8,452
1569684429,339.216,12.1667,-14.734,179.165,1.80176,-144.8,452
1569684429,339.216,12.1667,-14.734,179.165,1.82373,-144.8,452
1569684429,339.216,12.1667,-14.734,179.165,1.82373,-144.8,452
1569684429,339.216,12.1667,-14.734,179.165,1.82373,-144.8,452
1569684429,339.216,12.1667,-14.734,179.165,1.82373,-144.8,452
1569684429,339.216,12.1667,-14.734,179.165,1.82373,-144.8,452
1569684429,339.216,12.1667,-14.734,179.165,1.82373,-144.8,452
1569684429,339.216,12.1667,-14.734,179.165,1.82373,-144.8,452
1569684429,339.216,12.1667,-14.734,179.165,1.82373,-144.8,452
1569684429,339.216,12.1667,-14.734,179.165,1.80176,-144.8,452
1569684429,339.216,12.1667,-14.734,179.165,1.80176,-144.8,452
1569684429,339.216,12.1667,-14.734,179.165,1.80176,-144.8,452
1569684429,339.216,12.1667,-14.734,179.165,1.80176,-144.8,452
1569684429,339.216,12.1667,-14.734,179.165,1.80176,-144.8,452
1569684429,339.216,12.1667,-14.734,179.165,1.80176,-144.8,452
1569684429,339.216,12.1667,-14.734,179.165,1.80176,-144.8,452
1569684429,339.216,12.1667,-14.734,179.165,1.80176,-144.8,456
1569684429,339.216,12.1667,-14.734,179.165,1.80176,-144.8,456
1569684429,339.216,12.1667,-14.734,179.165,1.80176,-144.8,456
1569684429,339.216,12.1667,-14.734,179.187,1.80176,-144.8,456
1569684429,339.216,12.1667,-14.734,179.187,1.80176,-144.8,456
1569684429,339.216,12.1667,-14.734,179.187,1.80176,-144.8,456
1569684429,339.216,12.2783,-14.8456,179.187,1.80176,-144.8,456
1569684429,339.216,12.2783,-14.8456,179.187,1.80176,-144.8,456
1569684429,339.216,12.1667,-14.8456,179.187,1.80176,-144.8,456
1569684429,339.216,12.1667,-14.8456,179.165,1.80176,-144.8,456
1569684429,339.105,12.1667,-14.8456,179.165,1.80176,-144.8,456
1569684429,339.105,12.1667,-14.8456,179.165,1.80176,-144.8,456
1569684429,339.105,12.1667,-14.8456,179.165,1.80176,-144.8,456
1569684429,339.105,12.1667,-14.8456,179.165,1.80176,-144.8,456
1569684429,339.105,12.1667,-14.8456,179.165,1.80176,-144.8,460
1569684429,339.105,12.1667,-14.8456,179.165,1.80176,-144.822,460
1569684429,339.105,12.1667,-14.8456,179.165,1.80176,-144.822,460
1569684429,339.105,12.1667,-14.8456,179.165,1.80176,-144.822,460
1569684429,339.105,12.1667,-14.8456,179.165,1.80176,-144.822,460
1569684429,339.105,12.1667,-14.8456,179.165,1.80176,-144.822,460
1569684429,339.105,12.1667,-14.8456,179.165,1.80176,-144.822,460
1569684429,339.105,12.1667,-14.8456,179.165,1.80176,-144.822,464
1569684429,339.105,12.1667,-14.8456,179.165,1.80176,-144.822,464
1569684429,339.105,12.1667,-14.8456,179.165,1.80176,-144.822,464
1569684429,339.105,12.1667,-14.8456,179.165,1.80176,-144.822,464
1569684429,339.105,12.1667,-14.8456,179.165,1.80176,-144.822,464
1569684429,339.105,12.1667,-14.8456,179.165,1.80176,-144.822,468
1569684429,339.105,12.1667,-14.8456,179.165,1.80176,-144.822,468
1569684429,339.105,12.1667,-14.8456,179.165,1.80176,-144.822,468
1569684429,339.105,12.2783,-14.8456,179.165,1.80176,-144.822,468
1569684429,339.105,12.2783,-14.8456,179.165,1.80176,-144.822,468
1569684429,339.105,12.2783,-14.8456,179.165,1.80176,-144.822,468
1569684429,339.105,12.2783,-14.8456,179.165,1.80176,-144.8,468
1569684429,339.105,12.2783,-14.8456,179.165,1.80176,-144.8,468
1569684429,339.105,12.2783,-14.8456,179.165,1.80176,-144.8,468
1569684429,339.105,12.2783,-14.8456,179.165,1.80176,-144.8,468
1569684429,339.105,12.2783,-14.8456,179.165,1.80176,-144.8,468
1569684429,339.105,12.2783,-14.8456,179.165,1.80176,-144.8,468
1569684429,339.105,12.2783,-14.8456,179.187,1.80176,-144.8,468
1569684429,339.105,12.2783,-14.734,179.187,1.80176,-144.8,468
1569684429,339.105,12.2783,-14.734,179.187,1.80176,-144.8,468
1569684429,339.105,12.2783,-14.734,179.187,1.80176,-144.8,468
1569684429,339.105,12.2783,-14.734,179.187,1.80176,-144.8,468
1569684429,339.105,12.2783,-14.734,179.187,1.80176,-144.8,468
1569684429,339.105,12.2783,-14.734,179.187,1.80176,-144.8,468
1569684429,339.105,12.2783,-14.734,179.187,1.80176,-144.8,468
1569684429,339.105,12.2783,-14.734,179.187,1.80176,-144.8,468
1569684429,339.105,12.2783,-14.734,179.187,1.80176,-144.8,468
1569684429,339.105,12.2783,-14.734,179.187,1.80176,-144.8,472
1569684429,339.105,12.2783,-14.734,179.187,1.80176,-144.8,472
1569684429,339.105,12.2783,-14.734,179.187,1.80176,-144.8,472
1569684429,339.105,12.2783,-14.734,179.187,1.80176,-144.8,472
1569684429,339.105,12.2783,-14.734,179.187,1.80176,-144.8,472
1569684429,339.105,12.2783,-14.734,179.187,1.80176,-144.8,472
1569684429,339.105,12.2783,-14.734,179.187,1.80176,-144.8,472
1569684429,339.105,12.2783,-14.734,179.187,1.80176,-144.8,472
1569684429,339.105,12.1667,-14.734,179.165,1.80176,-144.8,472
1569684429,339.105,12.1667,-14.734,179.165,1.80176,-144.8,472
1569684429,339.105,12.1667,-14.734,179.165,1.80176,-144.8,472
1569684429,339.105,12.1667,-14.734,179.165,1.80176,-144.8,472
1569684429,339.105,12.1667,-14.734,179.165,1.82373,-144.8,468
1569684429,339.105,12.1667,-14.734,179.165,1.82373,-144.8,468
1569684429,339.105,12.1667,-14.734,179.165,1.82373,-144.8,468
1569684429,339.216,12.1667,-14.734,179.165,1.82373,-144.8,468
1569684429,339.216,12.1667,-14.734,179.165,1.82373,-144.8,468
1569684429,339.216,12.1667,-14.734,179.165,1.82373,-144.8,468
1569684429,339.216,12.1667,-14.734,179.165,1.82373,-144.8,468
1569684429,339.216,12.1667,-14.734,179.165,1.82373,-144.8,468
1569684429,339.216,12.1667,-14.734,179.165,1.82373,-144.8,468
1569684429,339.216,12.1667,-14.734,179.165,1.82373,-144.8,468
1569684429,339.216,12.1667,-14.734,179.165,1.82373,-144.8,468
1569684429,339.216,12.1667,-14.734,179.165,1.82373,-144.8,468
1569684429,339.216,12.1667,-14.734,179.165,1.82373,-144.8,468
1569684429,339.216,12.1667,-14.734,179.165,1.82373,-144.8,464
1569684429,339.216,12.1667,-14.734,179.165,1.82373,-144.8,464
1569684429,339.216,12.1667,-14.734,179.165,1.82373,-144.8,464
1569684429,339.216,12.1667,-14.734,179.165,1.82373,-144.8,464
1569684429,339.216,12.1667,-14.734,179.165,1.82373,-144.8,464
1569684429,339.216,12.1667,-14.734,179.165,1.82373,-144.8,464
1569684429,339.216,12.1667,-14.734,179.165,1.82373,-144.8,464
1569684429,339.216,12.1667,-14.734,179.165,1.82373,-144.8,464
1569684430,339.216,12.1667,-14.734,179.165,1.82373,-144.8,464
1569684430,339.216,12.1667,-14.734,179.165,1.82373,-144.8,464
1569684430,339.216,12.1667,-14.734,179.165,1.82373,-144.8,464
1569684430,339.216,12.1667,-14.734,179.165,1.82373,-144.8,464
1569684430,339.216,12.1667,-14.734,179.165,1.82373,-144.8,460
1569684430,339.216,12.1667,-14.734,179.165,1.82373,-144.8,460
1569684430,339.216,12.1667,-14.734,179.165,1.82373,-144.8,460
1569684430,339.216,12.1667,-14.734,179.165,1.82373,-144.8,460
1569684430,339.216,12.1667,-14.734,179.165,1.82373,-144.8,460
1569684430,339.216,12.1667,-14.734,179.165,1.8457,-144.8,460
1569684430,339.216,12.1667,-14.734,179.165,1.8457,-144.8,460
1569684430,339.216,12.1667,-14.734,179.165,1.8457,-144.8,456
1569684430,339.216,12.1667,-14.734,179.165,1.8457,-144.8,456
1569684430,339.216,12.1667,-14.734,179.165,1.8457,-144.8,456
1569684430,339.216,12.1667,-14.734,179.165,1.8457,-144.8,456
1569684430,339.216,12.1667,-14.6224,179.143,1.8457,-144.8,456
1569684430,339.216,12.1667,-14.6224,179.143,1.8457,-144.8,456
1569684430,339.216,12.1667,-14.6224,179.143,1.8457,-144.8,452
1569684430,339.216,12.1667,-14.6224,179.143,1.8457,-144.8,452
1569684430,339.216,12.1667,-14.6224,179.143,1.8457,-144.8,452
1569684430,339.216,12.1667,-14.6224,179.143,1.8457,-144.8,452
1569684430,339.216,12.1667,-14.6224,179.143,1.8457,-144.8,452
1569684430,339.216,12.1667,-14.6224,179.143,1.8457,-144.778,452
1569684430,339.216,12.1667,-14.734,179.143,1.8457,-144.778,452
1569684430,339.216,12.1667,-14.734,179.165,1.8457,-144.778,452
1569684430,339.216,12.1667,-14.734,179.165,1.8457,-144.778,452
1569684430,339.216,12.1667,-14.734,179.165,1.8457,-144.778,452
1569684430,339.216,12.1667,-14.734,179.165,1.8457,-144.778,452
1569684430,339.216,12.1667,-14.734,179.165,1.8457,-144.778,452
1569684430,339.216,12.1667,-14.734,179.165,1.8457,-144.778,452
1569684430,339.216,12.1667,-14.734,179.165,1.8457,-144.778,452
1569684430,339.216,12.1667,-14.734,179.165,1.8457,-144.778,452
1569684430,339.216,12.1667,-14.734,179.165,1.8457,-144.778,452
1569684430,339.216,12.1667,-14.734,179.165,1.8457,-144.778,452
1569684430,339.216,12.1667,-14.734,179.165,1.8457,-144.778,452
1569684430,339.216,12.1667,-14.734,179.165,1.8457,-144.778,456
1569684430,339.216,12.1667,-14.734,179.165,1.8457,-144.778,456
1569684430,339.216,12.1667,-14.734,179.165,1.8457,-144.8,456
1569684430,339.216,12.1667,-14.734,179.165,1.8457,-144.8,456
1569684430,339.216,12.1667,-14.734,179.165,1.8457,-144.8,456
1569684430,339.216,12.1667,-14.734,179.165,1.8457,-144.8,456
1569684430,339.216,12.1667,-14.734,179.165,1.8457,-144.8,460
1569684430,339.216,12.1667,-14.734,179.165,1.82373,-144.8,460
1569684430,339.216,12.1667,-14.734,179.165,1.82373,-144.8,460
1569684430,339.216,12.1667,-14.734,179.165,1.82373,-144.8,460
1569684430,339.216,12.1667,-14.734,179.165,1.82373,-144.8,460
1569684430,339.216,12.1667,-14.734,179.165,1.82373,-144.8,460
1569684430,339.216,12.1667,-14.734,179.165,1.82373,-144.8,464
1569684430,339.216,12.1667,-14.734,179.165,1.82373,-144.8,464
1569684430,339.216,12.1667,-14.734,179.165,1.82373,-144.8,464
1569684430,339.216,12.1667,-14.734,179.165,1.82373,-144.8,464
1569684430,339.216,12.1667,-14.734,179.165,1.82373,-144.8,464
1569684430,339.216,12.1667,-14.734,179.165,1.82373,-144.8,464
1569684430,339.216,12.1667,-14.734,179.165,1.82373,-144.778,464
1569684430,339.216,12.1667,-14.734,179.165,1.82373,-144.778,468
1569684430,339.216,12.1667,-14.734,179.165,1.82373,-144.778,468
1569684430,339.216,12.1667,-14.734,179.165,1.82373,-144.778,468
1569684430,339.216,12.1667,-14.734,179.165,1.8457,-144.778,468
1569684430,339.216,12.1667,-14.734,179.165,1.8457,-144.778,468
1569684430,339.216,12.1667,-14.734,179.165,1.8457,-144.778,464
1569684430,339.216,12.1667,-14.734,179.165,1.8457,-144.778,464
1569684430,339.216,12.1667,-14.734,179.165,1.8457,-144.778,464
1569684430,339.216,12.1667,-14.734,179.165,1.8457,-144.778,464
1569684430,339.216,12.1667,-14.734,179.165,1.8457,-144.778,464
1569684430,339.216,12.1667,-14.734,179.165,1.8457,-144.778,468
1569684430,339.216,12.1667,-14.734,179.165,1.8457,-144.778,468
1569684430,339.216,12.1667,-14.734,179.165,1.8457,-144.778,468
1569684430,339.216,12.1667,-14.734,179.165,1.8457,-144.778,468
1569684430,339.105,12.1667,-14.734,179.165,1.8457,-144.778,468
1569684430,339.105,12.1667,-14.734,179.165,1.8457,-144.778,468
1569684430,339.105,12.1667,-14.734,179.165,1.8457,-144.778,472
1569684430,339.105,12.1667,-14.734,179.165,1.8457,-144.8,472
1569684430,339.105,12.1667,-14.734,179.165,1.8457,-144.8,472
1569684430,339.105,12.1667,-14.734,179.165,1.8457,-144.8,472
1569684430,339.105,12.1667,-14.734,179.165,1.8457,-144.8,472
1569684430,339.216,12.1667,-14.734,179.165,1.8457,-144.8,472
1569684430,339.216,12.1667,-14.734,179.165,1.8457,-144.8,472
1569684430,339.216,12.1667,-14.734,179.165,1.8457,-144.8,472
1569684430,339.216,12.1667,-14.734,179.165,1.8457,-144.8,472
1569684430,339.216,12.1667,-14.734,179.165,1.8457,-144.8,472
1569684430,339.216,12.1667,-14.734,179.165,1.8457,-144.8,472
1569684430,339.216,12.1667,-14.734,179.165,1.8457,-144.8,472
1569684430,339.216,12.1667,-14.734,179.165,1.8457,-144.8,472
1569684430,339.216,12.1667,-14.734,179.165,1.8457,-144.8,472
1569684430,339.216,12.1667,-14.734,179.165,1.8457,-144.8,472
1569684430,339.216,12.1667,-14.734,179.165,1.8457,-144.8,472
1569684430,339.216,12.1667,-14.734,179.165,1.8457,-144.8,472
1569684430,339.216,12.1667,-14.734,179.165,1.8457,-144.8,468
1569684430,339.216,12.1667,-14.734,179.165,1.8457,-144.8,468
1569684430,339.216,12.1667,-14.734,179.165,1.8457,-144.8,468
1569684430,339.216,12.1667,-14.734,179.165,1.8457,-144.8,468
1569684430,339.216,12.1667,-14.734,179.165,1.8457,-144.8,468
1569684430,339.216,12.1667,-14.734,179.165,1.8457,-144.8,468
1569684430,339.216,12.1667,-14.734,179.165,1.8457,-144.8,464
1569684430,339.216,12.1667,-14.734,179.165,1.8457,-144.8,464
1569684430,339.216,12.1667,-14.734,179.165,1.8457,-144.8,464
1569684430,339.216,12.1667,-14.734,179.165,1.8457,-144.8,464
1569684430,339.216,12.1667,-14.734,179.165,1.8457,-144.8,464
1569684430,339.216,12.1667,-14.734,179.165,1.8457,-144.8,464
1569684430,339.216,12.1667,-14.734,179.165,1.8457,-144.8,464
1569684431,339.216,12.1667,-14.734,179.165,1.8457,-144.8,464
1569684431,339.216,12.2783,-14.734,179.165,1.8457,-144.8,464
1569684431,339.216,12.2783,-14.6224,179.165,1.8457,-144.8,464
1569684431,339.216,12.2783,-14.6224,179.165,1.8457,-144.8,464
1569684431,339.216,12.2783,-14.6224,179.165,1.8457,-144.8,464
1569684431,339.216,12.2783,-14.6224,179.165,1.8457,-144.8,464
1569684431,339.216,12.2783,-14.6224,179.165,1.8457,-144.8,464
1569684431,339.216,12.2783,-14.6224,179.165,1.8457,-144.8,464
1569684431,339.216,12.2783,-14.6224,179.165,1.8457,-144.8,464
1569684431,339.216,12.2783,-14.6224,179.165,1.8457,-144.8,464
1569684431,339.216,12.2783,-14.734,179.165,1.8457,-144.8,464
1569684431,339.216,12.2783,-14.734,179.165,1.8457,-144.8,464
1569684431,339.216,12.2783,-14.734,179.165,1.8457,-144.8,460
1569684431,339.216,12.2783,-14.734,179.165,1.8457,-144.8,460
1569684431,339.216,12.2783,-14.734,179.165,1.8457,-144.8,460
1569684431,339.216,12.2783,-14.734,179.165,1.8457,-144.8,460
1569684431,339.216,12.2783,-14.734,179.165,1.8457,-144.8,460
1569684431,339.216,12.2783,-14.734,179.165,1.8457,-144.8,460
1569684431,339.216,12.1667,-14.734,179.165,1.8457,-144.8,460
1569684431,339.216,12.1667,-14.734,179.165,1.8457,-144.8,460
1569684431,339.216,12.1667,-14.734,179.165,1.8457,-144.8,460
1569684431,339.216,12.1667,-14.734,179.165,1.8457,-144.8,460
1569684431,339.216,12.1667,-14.6224,179.165,1.8457,-144.8,460
1569684431,339.216,12.1667,-14.6224,179.165,1.8457,-144.8,460
1569684431,339.216,12.1667,-14.6224,179.165,1.8457,-144.8,460
1569684431,339.216,12.1667,-14.6224,179.165,1.8457,-144.8,460
1569684431,339.216,12.1667,-14.6224,179.165,1.8457,-144.8,460
1569684431,339.216,12.1667,-14.6224,179.165,1.8457,-144.8,460
1569684431,339.216,12.1667,-14.6224,179.165,1.8457,-144.8,460
1569684431,339.216,12.1667,-14.6224,179.165,1.8457,-144.8,460
1569684431,339.216,12.1667,-14.6224,179.165,1.8457,-144.8,460
1569684431,339.216,12.1667,-14.6224,179.165,1.8457,-144.8,460
1569684431,339.216,12.1667,-14.734,179.165,1.8457,-144.8,460
1569684431,339.216,12.1667,-14.734,179.165,1.8457,-144.8,460
1569684431,339.216,12.1667,-14.734,179.165,1.8457,-144.8,460
1569684431,339.216,12.1667,-14.734,179.165,1.8457,-144.8,460
1569684431,339.216,12.1667,-14.734,179.165,1.8457,-144.8,460
1569684431,339.216,12.2783,-14.734,179.165,1.8457,-144.8,460
1569684431,339.105,12.2783,-14.734,179.165,1.8457,-144.8,460
1569684431,339.105,12.2783,-14.734,179.165,1.8457,-144.8,460
1569684431,339.105,12.2783,-14.734,179.165,1.82373,-144.8,460
1569684431,339.105,12.2783,-14.734,179.165,1.82373,-144.8,460
1569684431,339.105,12.2783,-14.734,179.165,1.82373,-144.8,460
1569684431,339.105,12.2783,-14.734,179.165,1.82373,-144.8,460
1569684431,339.105,12.2783,-14.734,179.165,1.82373,-144.8,460
1569684431,339.105,12.1667,-14.734,179.165,1.82373,-144.8,460
1569684431,339.105,12.1667,-14.734,179.165,1.82373,-144.8,460
1569684431,339.105,12.1667,-14.734,179.165,1.82373,-144.8,460
1569684431,339.105,12.1667,-14.734,179.165,1.82373,-144.8,460
1569684431,339.105,12.1667,-14.734,179.165,1.8457,-144.8,464
1569684431,339.105,12.1667,-14.734,179.165,1.8457,-144.8,464
1569684431,339.105,12.1667,-14.734,179.165,1.8457,-144.8,464
1569684431,339.105,12.1667,-14.734,179.165,1.8457,-144.8,464
1569684431,339.105,12.1667,-14.734,179.165,1.8457,-144.8,464
1569684431,339.105,12.1667,-14.734,179.165,1.8457,-144.8,464
1569684431,339.105,12.1667,-14.734,179.165,1.8457,-144.8,464
1569684431,339.105,12.1667,-14.734,179.165,1.8457,-144.8,468
1569684431,339.105,12.1667,-14.734,179.165,1.8457,-144.8,468
1569684431,339.105,12.1667,-14.734,179.165,1.82373,-144.8,468
1569684431,339.105,12.1667,-14.734,179.165,1.82373,-144.8,468
1569684431,339.105,12.1667,-14.734,179.165,1.82373,-144.8,468
1569684431,339.105,12.1667,-14.734,179.165,1.82373,-144.8,468
1569684431,339.105,12.1667,-14.734,179.165,1.82373,-144.8,468
1569684431,339.105,12.1667,-14.734,179.165,1.82373,-144.822,468
1569684431,339.216,12.1667,-14.734,179.165,1.82373,-144.822,468
1569684431,339.216,12.1667,-14.734,179.165,1.82373,-144.8,468
1569684431,339.216,12.1667,-14.734,179.165,1.82373,-144.8,468
1569684431,339.216,12.1667,-14.734,179.165,1.82373,-144.8,468
1569684431,339.216,12.1667,-14.734,179.165,1.82373,-144.8,468
1569684431,339.216,12.1667,-14.734,179.165,1.82373,-144.8,468
1569684431,339.216,12.1667,-14.734,179.165,1.82373,-144.8,468
1569684431,339.216,12.1667,-14.734,179.165,1.82373,-144.8,464
1569684431,339.216,12.1667,-14.734,179.165,1.82373,-144.8,464
1569684431,339.216,12.1667,-14.734,179.165,1.82373,-144.8,464
1569684431,339.216,12.1667,-14.734,179.165,1.82373,-144.8,464
1569684431,339.216,12.1667,-14.734,179.165,1.82373,-144.8,464
1569684431,339.216,12.1667,-14.734,179.165,1.82373,-144.8,464
1569684431,339.216,12.1667,-14.734,179.143,1.82373,-144.8,464
1569684431,339.216,12.1667,-14.734,179.165,1.82373,-144.8,464
1569684431,339.216,12.1667,-14.734,179.165,1.82373,-144.8,464
1569684431,339.216,12.1667,-14.734,179.165,1.82373,-144.8,464
1569684431,339.216,12.1667,-14.734,179.165,1.82373,-144.8,464
1569684431,339.216,12.1667,-14.734,179.165,1.82373,-144.8,464
1569684431,339.216,12.1667,-14.734,179.165,1.82373,-144.8,464
1569684431,339.216,12.1667,-14.734,179.165,1.82373,-144.8,460
1569684431,339.216,12.1667,-14.734,179.165,1.82373,-144.8,460
1569684431,339.216,12.1667,-14.734,179.165,1.82373,-144.8,460
1569684431,339.216,12.1667,-14.734,179.165,1.82373,-144.8,460
1569684431,339.216,12.1667,-14.734,179.165,1.82373,-144.8,460
1569684431,339.216,12.1667,-14.734,179.165,1.82373,-144.8,460
1569684431,339.216,12.1667,-14.734,179.165,1.82373,-144.8,460
1569684431,339.216,12.2783,-14.734,179.165,1.82373,-144.8,460
1569684431,339.216,12.2783,-14.734,179.165,1.82373,-144.8,460
1569684431,339.216,12.2783,-14.734,179.165,1.82373,-144.8,460
1569684431,339.216,12.2783,-14.734,179.165,1.82373,-144.8,460
1569684431,339.216,12.2783,-14.734,179.165,1.80176,-144.8,460
1569684431,339.216,12.2783,-14.734,179.165,1.80176,-144.8,460
1569684431,339.216,12.2783,-14.734,179.165,1.80176,-144.8,460
1569684431,339.216,12.2783,-14.734,179.165,1.80176,-144.8,460
1569684431,339.216,12.2783,-14.734,179.187,1.80176,-144.8,460
1569684432,339.216,12.2783,-14.734,179.187,1.80176,-144.8,460
1569684432,339.216,12.2783,-14.734,179.187,1.80176,-144.8,460
1569684432,339.216,12.2783,-14.734,179.187,1.80176,-144.8,460
1569684432,339.216,12.2783,-14.734,179.187,1.80176,-144.8,460
1569684432,339.216,12.2783,-14.734,179.187,1.80176,-144.8,460
1569684432,339.216,12.2783,-14.734,179.187,1.80176,-144.8,460
1569684432,339.216,12.2783,-14.734,179.187,1.80176,-144.8,460
1569684432,339.216,12.2783,-14.734,179.187,1.80176,-144.8,460
1569684432,339.216,12.2783,-14.734,179.187,1.80176,-144.8,460
1569684432,339.216,12.2783,-14.734,179.187,1.80176,-144.8,460
1569684432,339.216,12.2783,-14.734,179.187,1.80176,-144.8,460
1569684432,339.216,12.2783,-14.734,179.187,1.80176,-144.8,460
1569684432,339.216,12.2783,-14.734,179.187,1.80176,-144.8,460
1569684432,339.216,12.2783,-14.734,179.187,1.80176,-144.8,460
1569684432,339.216,12.2783,-14.734,179.187,1.80176,-144.8,456
1569684432,339.216,12.2783,-14.734,179.187,1.80176,-144.8,456
1569684432,339.216,12.2783,-14.734,179.187,1.80176,-144.8,456
1569684432,339.105,12.2783,-14.734,179.187,1.80176,-144.8,460
1569684432,339.105,12.2783,-14.734,179.187,1.80176,-144.8,460
1569684432,339.105,12.2783,-14.734,179.187,1.80176,-144.8,460
1569684432,339.105,12.2783,-14.734,179.187,1.80176,-144.8,460
1569684432,339.105,12.2783,-14.734,179.187,1.80176,-144.8,460
1569684432,339.105,12.2783,-14.734,179.187,1.80176,-144.8,460
1569684432,339.105,12.2783,-14.734,179.187,1.80176,-144.822,460
1569684432,339.105,12.2783,-14.734,179.187,1.80176,-144.822,464
1569684432,339.105,12.2783,-14.734,179.187,1.80176,-144.822,464
1569684432,339.105,12.2783,-14.734,179.187,1.80176,-144.822,464
1569684432,339.105,12.2783,-14.734,179.187,1.82373,-144.822,464
1569684432,339.105,12.2783,-14.734,179.187,1.82373,-144.822,464
1569684432,339.105,12.2783,-14.734,179.187,1.82373,-144.822,464
1569684432,339.105,12.2783,-14.734,179.187,1.82373,-144.822,464
1569684432,339.105,12.2783,-14.734,179.187,1.82373,-144.822,464
1569684432,339.105,12.2783,-14.734,179.187,1.82373,-144.822,464
1569684432,339.105,12.2783,-14.734,179.187,1.82373,-144.822,464
1569684432,339.216,12.2783,-14.734,179.187,1.82373,-144.822,464
1569684432,339.216,12.2783,-14.734,179.187,1.82373,-144.8,464
1569684432,339.216,12.2783,-14.734,179.187,1.82373,-144.8,464
1569684432,339.216,12.2783,-14.734,179.187,1.82373,-144.8,464
1569684432,339.216,12.2783,-14.734,179.187,1.82373,-144.8,464
1569684432,339.216,12.2783,-14.734,179.165,1.82373,-144.8,464
1569684432,339.216,12.2783,-14.734,179.165,1.82373,-144.8,464
1569684432,339.216,12.2783,-14.734,179.165,1.82373,-144.8,464
1569684432,339.216,12.1667,-14.734,179.165,1.82373,-144.8,464
1569684432,339.216,12.1667,-14.734,179.165,1.82373,-144.8,464
1569684432,339.216,12.1667,-14.734,179.165,1.82373,-144.8,464
1569684432,339.216,12.1667,-14.734,179.165,1.82373,-144.8,464
1569684432,339.216,12.1667,-14.734,179.165,1.82373,-144.8,464
1569684432,339.216,12.1667,-14.734,179.165,1.82373,-144.8,464
1569684432,339.216,12.1667,-14.734,179.165,1.82373,-144.8,464
1569684432,339.216,12.1667,-14.734,179.165,1.82373,-144.8,460
1569684432,339.216,12.1667,-14.734,179.165,1.82373,-144.8,460
1569684432,339.216,12.1667,-14.734,179.165,1.82373,-144.8,460
1569684432,339.216,12.1667,-14.734,179.165,1.82373,-144.8,460
1569684432,339.216,12.1667,-14.734,179.165,1.82373,-144.8,460
1569684432,339.216,12.1667,-14.734,179.165,1.82373,-144.8,460
1569684432,339.216,12.1667,-14.734,179.165,1.82373,-144.8,460
1569684432,339.216,12.1667,-14.734,179.165,1.82373,-144.8,456
1569684432,339.216,12.1667,-14.734,179.165,1.82373,-144.8,456
1569684432,339.216,12.1667,-14.734,179.165,1.82373,-144.8,456
1569684432,339.216,12.1667,-14.734,179.165,1.82373,-144.8,456
1569684432,339.216,12.1667,-14.734,179.165,1.82373,-144.8,456
1569684432,339.216,12.1667,-14.734,179.165,1.82373,-144.8,456
1569684432,339.216,12.1667,-14.734,179.165,1.82373,-144.8,456
1569684432,339.216,12.1667,-14.734,179.165,1.82373,-144.8,456
1569684432,339.216,12.1667,-14.734,179.165,1.82373,-144.8,456
1569684432,339.216,12.1667,-14.734,179.165,1.82373,-144.8,456
1569684432,339.216,12.1667,-14.734,179.165,1.82373,-144.8,456
1569684432,339.216,12.1667,-14.734,179.165,1.82373,-144.8,452
1569684432,339.216,12.1667,-14.734,179.165,1.82373,-144.8,452
1569684432,339.216,12.1667,-14.734,179.165,1.82373,-144.8,452
1569684432,339.216,12.1667,-14.734,179.165,1.82373,-144.8,452
1569684432,339.216,12.1667,-14.734,179.165,1.82373,-144.8,452
1569684432,339.216,12.1667,-14.734,179.165,1.82373,-144.8,452
1569684432,339.216,12.1667,-14.734,179.165,1.8457,-144.8,452
1569684432,339.216,12.1667,-14.734,179.165,1.8457,-144.8,452
1569684432,339.216,12.1667,-14.734,179.165,1.8457,-144.8,452
1569684432,339.216,12.1667,-14.734,179.165,1.8457,-144.8,452
1569684432,339.216,12.1667,-14.734,179.165,1.8457,-144.8,452
1569684432,339.216,12.1667,-14.734,179.165,1.8457,-144.8,456
1569684432,339.216,12.1667,-14.734,179.165,1.8457,-144.8,456
1569684432,339.216,12.1667,-14.734,179.165,1.82373,-144.8,456
1569684432,339.216,12.2783,-14.734,179.165,1.82373,-144.8,456
1569684432,339.216,12.2783,-14.734,179.165,1.82373,-144.8,460
1569684432,339.216,12.2783,-14.734,179.165,1.82373,-144.8,460
1569684432,339.216,12.2783,-14.734,179.165,1.82373,-144.8,460
1569684432,339.216,12.2783,-14.734,179.165,1.82373,-144.8,460
1569684432,339.216,12.2783,-14.734,179.165,1.82373,-144.822,464
1569684432,339.105,12.2783,-14.734,179.165,1.82373,-144.822,464
1569684432,339.105,12.2783,-14.734,179.165,1.82373,-144.822,464
1569684432,339.216,12.2783,-14.734,179.165,1.82373,-144.822,464
1569684432,339.216,12.2783,-14.734,179.165,1.82373,-144.822,468
1569684432,339.216,12.2783,-14.734,179.165,1.82373,-144.822,468
1569684432,339.216,12.1667,-14.734,179.165,1.82373,-144.822,468
1569684432,339.216,12.1667,-14.734,179.165,1.82373,-144.822,468
1569684432,339.216,12.1667,-14.734,179.165,1.82373,-144.822,468
1569684432,339.216,12.1667,-14.734,179.165,1.82373,-144.822,468
1569684432,339.216,12.1667,-14.734,179.165,1.82373,-144.822,468
1569684432,339.216,12.1667,-14.734,179.165,1.82373,-144.822,468
1569684432,339.216,12.1667,-14.734,179.165,1.82373,-144.822,468
1569684432,339.216,12.1667,-14.734,179.165,1.82373,-144.822,468
1569684433,339.216,12.1667,-14.734,179.165,1.82373,-144.822,464
1569684433,339.216,12.1667,-14.734,179.143,1.80176,-144.822,464
1569684433,339.216,12.1667,-14.734,179.143,1.80176,-144.822,464
1569684433,339.216,12.1667,-14.734,179.143,1.80176,-144.822,464
1569684433,339.216,12.1667,-14.734,179.143,1.80176,-144.822,464
1569684433,339.216,12.1667,-14.734,179.143,1.80176,-144.822,464
1569684433,339.216,12.1667,-14.734,179.143,1.80176,-144.822,464
1569684433,339.216,12.1667,-14.734,179.143,1.80176,-144.822,464
1569684433,339.216,12.1667,-14.734,179.143,1.80176,-144.822,464
1569684433,339.216,12.1667,-14.734,179.143,1.82373,-144.822,464
1569684433,339.216,12.1667,-14.734,179.143,1.82373,-144.822,464
1569684433,339.216,12.1667,-14.734,179.143,1.82373,-144.822,464
1569684433,339.216,12.1667,-14.734,179.143,1.82373,-144.822,464
1569684433,339.216,12.1667,-14.734,179.143,1.82373,-144.822,464
1569684433,339.216,12.1667,-14.734,179.143,1.82373,-144.822,468
1569684433,339.216,12.1667,-14.734,179.143,1.82373,-144.822,468
1569684433,339.216,12.1667,-14.734,179.143,1.82373,-144.822,468
1569684433,339.216,12.1667,-14.734,179.143,1.82373,-144.822,468
1569684433,339.216,12.1667,-14.734,179.143,1.82373,-144.822,468
1569684433,339.216,12.1667,-14.734,179.143,1.82373,-144.822,468
1569684433,339.216,12.1667,-14.734,179.143,1.82373,-144.822,468
1569684433,339.216,12.1667,-14.734,179.143,1.82373,-144.822,468
1569684433,339.216,12.1667,-14.734,179.143,1.82373,-144.822,468
1569684433,339.216,12.1667,-14.734,179.143,1.82373,-144.822,468
1569684433,339.216,12.1667,-14.734,179.143,1.82373,-144.822,468
1569684433,339.216,12.1667,-14.734,179.143,1.8457,-144.822,468
1569684433,339.216,12.1667,-14.734,179.143,1.8457,-144.822,468
1569684433,339.216,12.1667,-14.734,179.143,1.8457,-144.822,468
1569684433,339.216,12.1667,-14.734,179.143,1.8457,-144.822,468
1569684433,339.216,12.1667,-14.734,179.143,1.8457,-144.822,468
1569684433,339.216,12.1667,-14.734,179.143,1.8457,-144.822,468
1569684433,339.216,12.1667,-14.734,179.143,1.8457,-144.822,468
1569684433,339.216,12.1667,-14.734,179.143,1.8457,-144.822,468
1569684436,362.21,-11.8318,-14.1759,179.319,1.97754,-145.042,520
1569684436,362.21,-11.8318,-14.1759,179.319,1.97754,-145.042,520
1569684436,362.21,-11.8318,-14.1759,179.319,1.97754,-145.042,520
1569684436,362.21,-11.8318,-14.1759,179.319,1.97754,-145.042,520
1569684436,362.21,-11.8318,-14.1759,179.319,1.97754,-145.042,520
1569684436,362.21,-11.8318,-14.1759,179.319,1.97754,-145.042,520
1569684436,362.21,-11.8318,-14.1759,179.319,1.97754,-145.042,520
1569684436,362.21,-11.8318,-14.1759,179.319,1.97754,-145.042,520
1569684436,362.21,-11.8318,-14.1759,179.319,1.97754,-145.042,520
1569684436,362.21,-11.8318,-14.1759,179.319,1.97754,-145.042,520
1569684436,362.21,-11.8318,-14.1759,179.319,1.99951,-145.042,520
1569684436,362.21,-11.8318,-14.1759,179.319,1.99951,-145.042,520
1569684436,362.21,-11.8318,-14.1759,179.319,1.99951,-145.042,520
1569684436,362.21,-11.8318,-14.1759,179.319,1.99951,-145.042,524
1569684436,362.21,-11.8318,-14.1759,179.319,1.99951,-145.042,524
1569684436,362.21,-11.8318,-14.1759,179.319,1.99951,-145.042,524
1569684436,362.21,-11.8318,-14.1759,179.319,1.99951,-145.042,524
1569684436,362.21,-11.8318,-14.1759,179.319,1.99951,-145.042,524
1569684436,362.21,-11.8318,-14.1759,179.297,1.99951,-145.042,524
1569684436,362.21,-11.8318,-14.1759,179.319,1.99951,-145.042,524
1569684436,362.21,-11.8318,-14.1759,179.319,1.99951,-145.042,528
1569684436,362.21,-11.8318,-14.1759,179.319,1.99951,-145.042,528
1569684436,362.21,-11.8318,-14.1759,179.319,1.99951,-145.042,528
1569684436,362.21,-11.8318,-14.1759,179.319,1.99951,-145.042,528
1569684436,362.21,-11.8318,-14.1759,179.297,1.99951,-145.042,528
1569684436,362.21,-11.8318,-14.1759,179.297,1.99951,-145.042,528
1569684436,362.099,-11.8318,-14.1759,179.319,1.99951,-145.042,528
1569684436,362.099,-11.8318,-14.1759,179.319,1.99951,-145.042,528
1569684436,362.099,-11.8318,-14.1759,179.297,1.99951,-145.042,528
1569684436,362.099,-11.8318,-14.1759,179.297,1.99951,-145.042,532
1569684436,362.099,-11.8318,-14.1759,179.297,1.99951,-145.042,532
1569684436,362.099,-11.8318,-14.1759,179.297,1.99951,-145.042,532
1569684436,362.099,-11.8318,-14.0643,179.297,1.99951,-145.042,532
1569684436,362.21,-11.8318,-14.0643,179.297,1.99951,-145.042,532
1569684436,362.21,-11.8318,-14.0643,179.297,1.99951,-145.042,532
1569684436,362.21,-11.8318,-14.0643,179.297,1.99951,-145.042,532
1569684436,362.21,-11.8318,-14.0643,179.297,1.99951,-145.042,532
1569684436,362.21,-11.8318,-14.0643,179.297,1.99951,-145.042,532
1569684436,362.21,-11.8318,-14.0643,179.297,1.99951,-145.042,532
1569684436,362.21,-11.8318,-14.0643,179.297,1.99951,-145.042,528
1569684436,362.21,-11.8318,-14.1759,179.297,1.99951,-145.042,528
1569684436,362.21,-11.8318,-14.1759,179.297,1.99951,-145.042,528
1569684436,362.21,-11.8318,-14.1759,179.297,1.99951,-145.042,528
1569684437,362.21,-11.8318,-14.1759,179.297,1.99951,-145.042,528
1569684437,362.21,-11.8318,-14.1759,179.319,1.99951,-145.042,528
1569684437,362.21,-11.8318,-14.1759,179.319,1.99951,-145.042,524
1569684437,362.21,-11.8318,-14.0643,179.319,1.99951,-145.042,524
1569684437,362.21,-11.8318,-14.0643,179.319,1.99951,-145.042,524
1569684437,362.21,-11.8318,-14.0643,179.319,1.99951,-145.042,524
1569684437,362.21,-11.8318,-14.0643,179.319,1.99951,-145.042,524
1569684437,362.21,-11.8318,-14.0643,179.319,1.99951,-145.042,524
1569684437,362.21,-11.8318,-14.0643,179.319,1.99951,-145.042,524
1569684437,362.21,-11.8318,-14.0643,179.319,1.99951,-145.042,524
1569684437,362.21,-11.8318,-14.0643,179.319,1.99951,-145.042,524
1569684437,362.21,-11.8318,-14.0643,179.319,1.99951,-145.042,520
1569684437,362.21,-11.8318,-14.0643,179.319,1.99951,-145.042,520
1569684437,362.21,-11.8318,-14.1759,179.319,1.99951,-145.063,520
1569684437,362.21,-11.8318,-14.1759,179.319,1.99951,-145.063,520
1569684437,362.21,-11.8318,-14.1759,179.319,1.99951,-145.063,524
1569684437,362.21,-11.8318,-14.1759,179.319,1.97754,-145.063,524
1569684437,362.21,-11.8318,-14.1759,179.319,1.97754,-145.063,524
1569684437,362.21,-11.8318,-14.1759,179.319,1.97754,-145.063,524
1569684437,362.21,-11.8318,-14.1759,179.319,1.97754,-145.063,524
1569684437,362.21,-11.8318,-14.1759,179.319,1.97754,-145.063,524
1569684437,362.21,-11.8318,-14.1759,179.319,1.97754,-145.063,520
1569684437,362.21,-11.8318,-14.1759,179.319,1.97754,-145.063,520
1569684437,362.21,-11.8318,-14.1759,179.319,1.97754,-145.063,520
1569684437,362.21,-11.8318,-14.1759,179.319,1.97754,-145.063,520
1569684437,362.21,-11.8318,-14.1759,179.319,1.97754,-145.063,520
1569684437,362.21,-11.8318,-14.1759,179.319,1.97754,-145.063,520
1569684437,362.21,-11.8318,-14.1759,179.319,1.97754,-145.063,520
1569684437,362.21,-11.8318,-14.1759,179.319,1.97754,-145.063,520
1569684437,362.21,-11.8318,-14.1759,179.319,1.97754,-145.063,520
1569684437,362.21,-11.8318,-14.1759,179.319,1.97754,-145.063,520
1569684437,362.21,-11.8318,-14.1759,179.319,1.97754,-145.063,520
1569684437,362.21,-11.8318,-14.1759,179.319,1.97754,-145.063,520
1569684437,362.21,-11.8318,-14.1759,179.319,1.97754,-145.063,520
1569684437,362.21,-11.8318,-14.1759,179.319,1.97754,-145.063,520
1569684437,362.21,-11.8318,-14.1759,179.319,1.97754,-145.063,520
1569684437,362.21,-11.8318,-14.1759,179.319,1.97754,-145.063,520
1569684437,362.21,-11.8318,-14.1759,179.319,1.97754,-145.063,520
1569684437,362.21,-11.8318,-14.1759,179.319,1.97754,-145.063,520
1569684437,362.21,-11.8318,-14.1759,179.319,1.97754,-145.063,516
1569684437,362.21,-11.8318,-14.1759,179.319,1.99951,-145.063,516
1569684437,362.21,-11.8318,-14.1759,179.319,1.99951,-145.063,516
1569684437,362.21,-11.8318,-14.1759,179.319,1.99951,-145.063,516
1569684437,362.21,-11.8318,-14.1759,179.319,1.99951,-145.063,516
1569684437,362.21,-11.8318,-14.1759,179.319,1.99951,-145.063,516
1569684437,362.21,-11.8318,-14.1759,179.319,1.99951,-145.063,516
1569684437,362.21,-11.8318,-14.1759,179.319,1.99951,-145.063,516
1569684437,362.21,-11.8318,-14.1759,179.319,1.99951,-145.063,512
1569684437,362.21,-11.8318,-14.1759,179.319,1.99951,-145.063,512
1569684437,362.21,-11.8318,-14.1759,179.319,1.99951,-145.063,512
1569684437,362.21,-11.8318,-14.1759,179.319,1.99951,-145.063,512
1569684437,362.21,-11.8318,-14.1759,179.319,1.99951,-145.063,512
1569684437,362.21,-11.8318,-14.1759,179.319,1.99951,-145.063,512
1569684437,362.21,-11.8318,-14.1759,179.319,1.99951,-145.063,512
1569684437,362.21,-11.8318,-14.1759,179.319,1.99951,-145.063,512
1569684437,362.21,-11.8318,-14.1759,179.319,1.99951,-145.063,512
1569684437,362.21,-11.8318,-14.1759,179.319,1.99951,-145.063,512
1569684437,362.21,-11.8318,-14.1759,179.319,1.99951,-145.063,508
1569684437,362.21,-11.8318,-14.1759,179.319,1.99951,-145.063,508
1569684437,362.21,-11.8318,-14.1759,179.319,1.99951,-145.063,508
1569684437,362.21,-11.8318,-14.1759,179.319,1.99951,-145.063,508
1569684437,362.21,-11.8318,-14.1759,179.319,1.99951,-145.063,508
1569684437,362.21,-11.8318,-14.1759,179.319,1.99951,-145.063,508
1569684437,362.21,-11.8318,-14.1759,179.319,1.99951,-145.063,504
1569684437,362.21,-11.8318,-14.1759,179.319,1.99951,-145.063,504
1569684437,362.21,-11.8318,-14.1759,179.319,1.99951,-145.063,504
1569684437,362.21,-11.8318,-14.1759,179.319,1.99951,-145.063,504
1569684437,362.21,-11.8318,-14.1759,179.297,1.99951,-145.063,504
1569684437,362.21,-11.8318,-14.1759,179.297,1.99951,-145.063,504
1569684437,362.21,-11.8318,-14.1759,179.297,1.99951,-145.063,504
1569684437,362.21,-11.8318,-14.1759,179.297,1.99951,-145.063,508
1569684437,362.21,-11.8318,-14.1759,179.297,1.99951,-145.063,508
1569684437,362.21,-11.8318,-14.1759,179.297,1.99951,-145.063,508
1569684437,362.21,-11.8318,-14.1759,179.275,1.99951,-145.063,508
1569684437,362.21,-11.9435,-14.1759,179.275,1.99951,-145.063,512
1569684437,362.21,-11.9435,-14.1759,179.275,1.99951,-145.063,512
1569684437,362.21,-11.9435,-14.1759,179.275,1.99951,-145.063,512
1569684437,362.21,-11.9435,-14.0643,179.275,1.99951,-145.063,516
1569684437,362.21,-11.9435,-14.0643,179.275,1.99951,-145.063,516
1569684437,362.21,-11.9435,-14.0643,179.275,1.99951,-145.063,516
1569684437,362.21,-11.9435,-14.0643,179.275,1.99951,-145.063,516
1569684437,362.21,-11.9435,-14.0643,179.275,1.99951,-145.063,516
1569684437,362.21,-11.9435,-14.0643,179.275,1.99951,-145.063,516
1569684437,362.21,-11.9435,-14.0643,179.275,1.99951,-145.063,516
1569684437,362.21,-11.9435,-14.0643,179.275,1.99951,-145.063,520
1569684437,362.21,-11.9435,-14.0643,179.275,1.99951,-145.063,520
1569684437,362.099,-11.9435,-14.0643,179.275,1.99951,-145.063,520
1569684437,362.099,-11.9435,-14.0643,179.275,1.99951,-145.063,520
1569684437,362.099,-11.9435,-14.0643,179.275,1.99951,-145.063,520
1569684437,362.099,-11.9435,-14.0643,179.275,1.99951,-145.063,520
1569684437,362.099,-11.9435,-14.0643,179.275,1.99951,-145.063,524
1569684437,362.099,-11.9435,-14.0643,179.275,1.99951,-145.063,524
1569684437,362.099,-11.9435,-14.0643,179.275,2.02148,-145.063,524
1569684437,362.099,-11.9435,-14.0643,179.275,2.02148,-145.063,524
1569684437,362.099,-11.9435,-14.0643,179.275,2.02148,-145.063,524
1569684437,362.21,-11.9435,-14.0643,179.275,2.02148,-145.063,524
1569684437,362.21,-11.9435,-14.0643,179.275,2.02148,-145.063,528
1569684437,362.21,-11.9435,-14.0643,179.275,2.02148,-145.063,528
1569684437,362.21,-11.9435,-14.0643,179.275,2.02148,-145.063,528
1569684437,362.21,-11.9435,-14.0643,179.275,2.02148,-145.063,528
1569684438,362.21,-11.9435,-14.0643,179.275,2.02148,-145.063,528
1569684438,362.21,-11.8318,-14.0643,179.275,2.02148,-145.063,528
1569684438,362.21,-11.8318,-14.0643,179.297,2.02148,-145.063,528
1569684438,362.21,-11.8318,-14.0643,179.297,2.02148,-145.042,528
1569684438,362.21,-11.8318,-14.0643,179.297,2.02148,-145.042,528
1569684438,362.21,-11.8318,-14.0643,179.297,2.02148,-145.042,528
1569684438,362.21,-11.8318,-14.0643,179.297,2.02148,-145.042,528
1569684438,362.21,-11.8318,-14.0643,179.297,2.02148,-145.042,528
1569684438,362.21,-11.8318,-14.0643,179.297,2.04346,-145.042,528
1569684438,362.21,-11.8318,-14.0643,179.297,2.04346,-145.063,524
1569684438,362.21,-11.8318,-13.9526,179.297,2.04346,-145.063,524
1569684438,362.21,-11.8318,-13.9526,179.297,2.04346,-145.063,524
1569684438,362.21,-11.8318,-13.9526,179.297,2.04346,-145.063,524
1569684438,362.21,-11.8318,-13.9526,179.297,2.04346,-145.063,524
1569684438,362.21,-11.8318,-13.9526,179.297,2.04346,-145.063,524
1569684438,362.21,-11.8318,-13.9526,179.297,2.04346,-145.063,524
1569684438,362.21,-11.8318,-13.9526,179.275,2.04346,-145.063,520
1569684438,362.21,-11.8318,-13.9526,179.275,2.04346,-145.063,520
1569684438,362.21,-11.8318,-13.9526,179.275,2.04346,-145.063,520
1569684438,362.21,-11.8318,-14.0643,179.275,2.04346,-145.063,520
1569684438,362.21,-11.8318,-14.0643,179.275,2.04346,-145.063,520
1569684438,362.21,-11.8318,-14.0643,179.275,2.04346,-145.063,516
1569684438,362.21,-11.8318,-14.0643,179.275,2.04346,-145.063,516
1569684438,362.21,-11.8318,-14.0643,179.275,2.04346,-145.042,516
1569684438,362.21,-11.8318,-14.0643,179.275,2.04346,-145.042,516
1569684438,362.21,-11.8318,-14.0643,179.297,2.04346,-145.042,516
1569684438,362.21,-11.8318,-14.0643,179.297,2.04346,-145.042,516
1569684438,362.21,-11.8318,-14.0643,179.297,2.04346,-145.042,516
1569684438,362.21,-11.8318,-14.0643,179.297,2.04346,-145.042,512
1569684438,362.21,-11.8318,-14.0643,179.297,2.04346,-145.042,512
1569684438,362.21,-11.8318,-14.0643,179.297,2.04346,-145.042,512
1569684438,362.21,-11.8318,-14.0643,179.297,2.04346,-145.042,512
1569684438,362.21,-11.8318,-14.0643,179.297,2.02148,-145.042,512
1569684438,362.21,-11.8318,-14.0643,179.297,2.02148,-145.042,512
1569684438,362.21,-11.8318,-14.0643,179.297,2.02148,-145.063,512
1569684438,362.21,-11.8318,-14.0643,179.297,2.02148,-145.063,512
1569684438,362.21,-11.8318,-14.0643,179.297,2.02148,-145.063,512
1569684438,362.21,-11.8318,-14.0643,179.297,2.02148,-145.063,512
1569684438,362.21,-11.8318,-14.0643,179.297,2.02148,-145.042,512
1569684438,362.21,-11.8318,-14.0643,179.297,2.02148,-145.042,508
1569684438,362.21,-11.8318,-14.0643,179.297,2.02148,-145.042,508
1569684438,362.21,-11.8318,-14.0643,179.297,2.02148,-145.042,508
1569684438,362.21,-11.9435,-14.0643,179.275,2.02148,-145.042,508
1569684438,362.21,-11.9435,-14.0643,179.275,2.02148,-145.042,508
1569684438,362.21,-11.9435,-14.0643,179.275,2.02148,-145.042,508
1569684438,362.21,-11.9435,-14.0643,179.275,2.02148,-145.042,508
1569684438,362.21,-11.9435,-14.0643,179.275,2.02148,-145.042,508
1569684438,362.21,-11.9435,-14.0643,179.275,2.02148,-145.042,508
1569684438,362.21,-11.9435,-14.0643,179.275,2.02148,-145.042,508
1569684438,362.21,-11.9435,-14.0643,179.275,2.02148,-145.042,508
1569684438,362.21,-11.9435,-14.0643,179.275,2.02148,-145.042,512
1569684438,362.21,-11.9435,-14.0643,179.275,2.02148,-145.042,512
1569684438,362.21,-11.9435,-14.0643,179.275,2.02148,-145.042,512
1569684438,362.21,-11.9435,-14.0643,179.275,2.02148,-145.042,512
1569684438,362.21,-11.9435,-14.0643,179.275,2.02148,-145.042,512
1569684438,362.21,-11.9435,-14.0643,179.275,2.02148,-145.042,512
1569684438,362.21,-11.9435,-14.0643,179.275,2.02148,-145.042,512
1569684438,362.21,-11.9435,-14.0643,179.275,2.02148,-145.042,512
1569684438,362.21,-11.9435,-14.0643,179.275,2.02148,-145.042,512
1569684438,362.21,-11.9435,-14.0643,179.275,2.02148,-145.042,512
1569684438,362.21,-11.9435,-14.0643,179.275,2.02148,-145.042,512
1569684438,362.21,-11.9435,-14.0643,179.275,2.02148,-145.042,512
1569684438,362.21,-11.9435,-14.0643,179.275,2.02148,-145.042,512
1569684438,362.21,-11.9435,-14.0643,179.275,2.02148,-145.042,512
1569684438,362.21,-11.9435,-14.0643,179.275,2.02148,-145.042,512
1569684438,362.21,-11.9435,-14.0643,179.275,2.02148,-145.042,512
1569684438,362.21,-11.9435,-14.0643,179.275,2.02148,-145.042,512
1569684438,362.21,-11.9435,-14.0643,179.275,2.02148,-145.042,512
1569684438,362.21,-11.9435,-14.0643,179.275,2.02148,-145.042,512
1569684438,362.21,-11.9435,-14.0643,179.275,2.04346,-145.042,512
1569684438,362.21,-11.9435,-14.0643,179.275,2.04346,-145.042,512
1569684438,362.21,-11.9435,-13.9526,179.275,2.04346,-145.042,512
1569684438,362.21,-11.9435,-13.9526,179.275,2.04346,-145.042,512
1569684438,362.21,-11.9435,-13.9526,179.275,2.04346,-145.042,512
1569684438,362.21,-11.9435,-13.9526,179.275,2.04346,-145.042,516
1569684438,362.21,-11.9435,-13.9526,179.275,2.04346,-145.042,516
1569684438,362.21,-11.9435,-13.9526,179.275,2.04346,-145.042,516
1569684438,362.21,-11.9435,-13.9526,179.275,2.04346,-145.042,516
1569684438,362.21,-11.9435,-13.9526,179.275,2.04346,-145.042,516
1569684438,362.21,-11.9435,-13.9526,179.275,2.04346,-145.042,516
1569684438,362.21,-11.9435,-13.9526,179.275,2.04346,-145.042,516
1569684438,362.21,-11.9435,-13.9526,179.275,2.04346,-145.042,516
1569684438,362.21,-11.9435,-13.9526,179.275,2.04346,-145.042,516
1569684438,362.21,-11.9435,-13.9526,179.275,2.04346,-145.042,516
1569684438,362.21,-11.9435,-13.9526,179.275,2.04346,-145.042,516
1569684438,362.21,-11.9435,-13.9526,179.275,2.04346,-145.042,516
1569684438,362.21,-11.9435,-13.9526,179.275,2.04346,-145.042,516
1569684438,362.21,-11.9435,-13.9526,179.275,2.04346,-145.042,516
1569684438,362.21,-11.9435,-13.9526,179.275,2.04346,-145.042,516
1569684438,362.21,-11.9435,-13.9526,179.275,2.04346,-145.042,516
1569684438,362.21,-11.9435,-13.9526,179.275,2.04346,-145.042,516
1569684438,362.21,-11.9435,-13.9526,179.275,2.04346,-145.042,516
1569684438,362.21,-11.9435,-13.9526,179.275,2.04346,-145.042,516
1569684438,362.21,-11.9435,-13.9526,179.275,2.04346,-145.042,516
1569684438,362.21,-11.9435,-14.0643,179.275,2.04346,-145.042,516
1569684438,362.099,-11.9435,-14.0643,179.275,2.04346,-145.042,516
1569684438,362.099,-11.9435,-14.0643,179.275,2.04346,-145.042,516
1569684438,362.099,-11.9435,-14.0643,179.275,2.04346,-145.042,516
1569684438,362.099,-11.9435,-14.0643,179.275,2.02148,-145.042,520
1569684438,362.099,-11.9435,-14.0643,179.275,2.02148,-145.042,520
1569684439,362.099,-11.9435,-14.0643,179.275,2.02148,-145.042,520
1569684439,362.099,-11.9435,-14.0643,179.275,2.02148,-145.042,520
1569684439,362.099,-11.9435,-14.0643,179.275,2.02148,-145.042,524
1569684439,362.099,-11.9435,-14.0643,179.275,2.02148,-145.042,524
1569684439,362.099,-11.9435,-14.0643,179.275,2.02148,-145.042,524
1569684439,362.099,-11.9435,-14.0643,179.275,2.02148,-145.042,524
1569684439,362.099,-11.9435,-14.0643,179.275,2.02148,-145.042,524
1569684439,362.099,-11.9435,-14.0643,179.275,2.02148,-145.042,524
1569684439,362.099,-11.9435,-14.0643,179.275,2.02148,-145.042,524
1569684439,362.099,-11.9435,-14.0643,179.275,2.02148,-145.042,528
1569684439,362.099,-11.9435,-14.0643,179.275,2.02148,-145.042,528
1569684439,362.099,-11.9435,-14.0643,179.275,2.02148,-145.042,528
1569684439,362.099,-11.9435,-14.0643,179.275,2.02148,-145.063,528
1569684439,362.099,-11.9435,-14.0643,179.275,2.02148,-145.063,524
1569684439,362.099,-11.9435,-14.0643,179.275,2.02148,-145.063,524
1569684439,362.099,-11.9435,-14.0643,179.275,2.02148,-145.063,524
1569684439,362.099,-11.9435,-14.0643,179.275,2.02148,-145.063,524
1569684439,362.099,-11.9435,-14.0643,179.275,2.02148,-145.063,524
1569684439,362.099,-11.9435,-14.0643,179.275,2.02148,-145.063,524
1569684439,362.099,-11.9435,-14.0643,179.275,2.02148,-145.063,524
1569684439,362.099,-11.9435,-14.0643,179.275,2.02148,-145.063,524
1569684439,362.099,-11.9435,-14.0643,179.297,2.02148,-145.063,520
1569684439,362.099,-11.8318,-14.0643,179.297,2.02148,-145.063,520
1569684439,362.099,-11.8318,-14.0643,179.297,2.02148,-145.063,520
1569684439,362.21,-11.8318,-14.0643,179.297,2.02148,-145.063,520
1569684439,362.21,-11.8318,-14.0643,179.297,2.02148,-145.063,520
1569684439,362.21,-11.8318,-14.0643,179.297,2.02148,-145.063,520
1569684439,362.21,-11.8318,-14.0643,179.297,2.02148,-145.063,520
1569684439,362.21,-11.8318,-14.0643,179.297,1.99951,-145.042,520
1569684439,362.099,-11.8318,-14.0643,179.319,1.99951,-145.042,520
1569684439,362.099,-11.8318,-14.1759,179.319,1.99951,-145.042,520
1569684439,362.099,-11.8318,-14.1759,179.319,1.99951,-145.042,520
1569684439,362.099,-11.8318,-14.1759,179.319,1.99951,-145.063,520
1569684439,362.099,-11.8318,-14.1759,179.319,1.99951,-145.063,520
1569684439,362.099,-11.8318,-14.1759,179.319,1.99951,-145.063,520
1569684439,362.099,-11.8318,-14.1759,179.319,1.99951,-145.063,520
1569684439,362.099,-11.8318,-14.1759,179.319,1.99951,-145.063,520
1569684439,362.099,-11.8318,-14.0643,179.319,1.99951,-145.063,520
1569684439,362.099,-11.8318,-14.0643,179.319,1.99951,-145.063,520
1569684439,362.099,-11.8318,-14.0643,179.319,1.99951,-145.063,520
1569684439,362.099,-11.8318,-14.0643,179.319,1.99951,-145.063,520
1569684439,362.099,-11.8318,-14.0643,179.319,1.99951,-145.063,520
1569684439,362.099,-11.8318,-14.1759,179.319,1.99951,-145.063,520
1569684439,362.099,-11.8318,-14.1759,179.319,1.99951,-145.063,520
1569684439,362.099,-11.8318,-14.1759,179.319,1.99951,-145.063,520
1569684439,362.099,-11.8318,-14.1759,179.319,1.99951,-145.063,516
1569684439,362.099,-11.8318,-14.1759,179.297,1.99951,-145.063,516
1569684439,362.099,-11.8318,-14.1759,179.297,1.99951,-145.063,516
1569684439,362.099,-11.8318,-14.1759,179.297,1.99951,-145.063,516
1569684439,362.099,-11.8318,-14.1759,179.297,1.99951,-145.063,516
1569684439,362.099,-11.8318,-14.1759,179.297,1.99951,-145.063,516
1569684439,362.099,-11.8318,-14.1759,179.297,1.99951,-145.063,520
1569684439,362.099,-11.8318,-14.1759,179.297,1.99951,-145.063,520
1569684439,362.099,-11.8318,-14.1759,179.297,1.99951,-145.063,520
1569684439,362.099,-11.8318,-14.1759,179.297,1.99951,-145.063,520
1569684439,362.099,-11.8318,-14.1759,179.297,1.99951,-145.063,520
1569684439,362.099,-11.8318,-14.0643,179.297,1.99951,-145.063,520
1569684439,362.099,-11.8318,-14.0643,179.297,2.02148,-145.063,520
1569684439,362.099,-11.8318,-14.0643,179.297,2.02148,-145.063,520
1569684439,362.099,-11.8318,-14.0643,179.297,2.02148,-145.063,520
1569684439,362.099,-11.8318,-14.0643,179.297,2.02148,-145.063,520
1569684439,362.099,-11.8318,-14.0643,179.297,2.02148,-145.063,520
1569684439,362.099,-11.8318,-14.0643,179.297,2.02148,-145.063,520
1569684439,362.099,-11.8318,-14.0643,179.297,2.02148,-145.063,520
1569684439,362.099,-11.8318,-14.0643,179.275,2.02148,-145.063,520
1569684439,362.099,-11.8318,-14.0643,179.275,2.02148,-145.063,520
1569684439,362.099,-11.8318,-14.0643,179.275,2.02148,-145.063,520
1569684439,362.099,-11.8318,-14.0643,179.297,1.99951,-145.063,520
1569684439,362.099,-11.8318,-14.0643,179.297,1.99951,-145.063,520
1569684439,362.099,-11.8318,-14.1759,179.297,1.99951,-145.063,520
1569684439,362.099,-11.8318,-14.1759,179.297,1.99951,-145.063,520
1569684439,362.099,-11.8318,-14.1759,179.297,1.99951,-145.063,520
1569684439,362.099,-11.8318,-14.1759,179.297,1.99951,-145.063,520
1569684439,362.21,-11.8318,-14.1759,179.297,1.99951,-145.063,520
1569684439,362.21,-11.8318,-14.1759,179.297,1.99951,-145.063,520
1569684439,362.21,-11.8318,-14.1759,179.297,1.99951,-145.063,520
1569684439,362.21,-11.8318,-14.1759,179.297,1.99951,-145.063,520
1569684439,362.21,-11.8318,-14.1759,179.297,1.99951,-145.063,520
1569684439,362.21,-11.8318,-14.1759,179.297,1.99951,-145.063,520
1569684439,362.21,-11.8318,-14.1759,179.297,1.99951,-145.063,520
1569684439,362.21,-11.8318,-14.1759,179.297,1.99951,-145.063,520
1569684439,362.21,-11.8318,-14.1759,179.297,1.99951,-145.063,520
1569684439,362.21,-11.8318,-14.1759,179.297,1.99951,-145.063,520
1569684439,362.21,-11.8318,-14.1759,179.297,1.99951,-145.063,520
1569684439,362.21,-11.8318,-14.1759,179.297,1.99951,-145.063,520
1569684439,362.21,-11.8318,-14.1759,179.297,1.99951,-145.063,520
1569684439,362.21,-11.8318,-14.1759,179.297,1.99951,-145.063,520
1569684439,362.21,-11.8318,-14.1759,179.297,1.99951,-145.063,520
1569684439,362.21,-11.8318,-14.1759,179.297,1.99951,-145.042,516
1569684439,362.21,-11.8318,-14.1759,179.297,1.99951,-145.042,516
1569684439,362.21,-11.8318,-14.1759,179.297,1.99951,-145.042,516
1569684439,362.21,-11.8318,-14.1759,179.297,1.99951,-145.042,516
1569684439,362.21,-11.8318,-14.1759,179.297,1.99951,-145.042,516
1569684439,362.21,-11.8318,-14.1759,179.297,1.99951,-145.042,516
1569684439,362.21,-11.8318,-14.1759,179.297,1.99951,-145.042,516
1569684439,362.21,-11.8318,-14.1759,179.297,1.99951,-145.042,516
1569684439,362.21,-11.8318,-14.1759,179.297,1.99951,-145.042,516
1569684439,362.21,-11.8318,-14.1759,179.297,1.99951,-145.042,516
1569684439,362.21,-11.8318,-14.1759,179.297,1.99951,-145.042,516
1569684439,362.21,-11.8318,-14.1759,179.297,1.99951,-145.042,516
1569684440,362.21,-11.8318,-14.1759,179.297,1.99951,-145.042,516
1569684440,362.21,-11.8318,-14.1759,179.297,1.99951,-145.042,516
1569684440,362.21,-11.8318,-14.1759,179.297,1.99951,-145.042,516
1569684440,362.21,-11.8318,-14.1759,179.297,1.99951,-145.042,516
1569684440,362.21,-11.8318,-14.1759,179.297,1.99951,-145.042,516
1569684440,362.21,-11.8318,-14.1759,179.297,1.99951,-145.042,516
1569684440,362.21,-11.8318,-14.1759,179.297,1.99951,-145.042,516
1569684440,362.21,-11.8318,-14.1759,179.297,1.99951,-145.042,516
1569684440,362.21,-11.8318,-14.1759,179.297,1.99951,-145.042,520
1569684440,362.21,-11.8318,-14.1759,179.297,1.99951,-145.042,520
1569684440,362.21,-11.8318,-14.1759,179.297,1.99951,-145.042,520
1569684440,362.21,-11.8318,-14.1759,179.297,1.99951,-145.042,520
1569684440,362.21,-11.8318,-14.1759,179.297,1.99951,-145.042,520
1569684440,362.21,-11.8318,-14.1759,179.297,1.99951,-145.042,520
1569684440,362.21,-11.8318,-14.1759,179.297,1.99951,-145.042,520
1569684440,362.21,-11.8318,-14.1759,179.297,1.99951,-145.042,524
1569684440,362.21,-11.8318,-14.0643,179.297,1.99951,-145.042,524
1569684440,362.21,-11.8318,-14.0643,179.297,1.99951,-145.042,520
1569684440,362.21,-11.8318,-14.0643,179.297,1.99951,-145.042,520
1569684440,362.21,-11.8318,-14.0643,179.297,1.99951,-145.042,520
1569684440,362.21,-11.8318,-14.0643,179.297,1.99951,-145.063,520
1569684440,362.21,-11.8318,-14.0643,179.297,2.02148,-145.063,520
1569684440,362.21,-11.8318,-14.0643,179.297,2.02148,-145.063,520
1569684440,362.21,-11.8318,-14.0643,179.297,2.02148,-145.063,520
1569684440,362.21,-11.8318,-14.0643,179.297,2.02148,-145.063,520
1569684440,362.21,-11.8318,-14.0643,179.297,2.02148,-145.042,520
1569684440,362.21,-11.8318,-14.0643,179.297,2.02148,-145.042,520
1569684440,362.21,-11.8318,-14.0643,179.297,2.02148,-145.042,520
1569684440,362.21,-11.8318,-14.0643,179.297,2.02148,-145.042,520
1569684440,362.21,-11.8318,-14.0643,179.297,2.02148,-145.042,520
1569684440,362.21,-11.8318,-14.0643,179.297,2.02148,-145.042,520
1569684440,362.21,-11.8318,-14.0643,179.297,2.02148,-145.042,520
1569684440,362.21,-11.8318,-14.0643,179.297,2.02148,-145.042,520
1569684440,362.21,-11.8318,-14.0643,179.297,2.02148,-145.042,520
1569684440,362.21,-11.8318,-14.0643,179.297,2.02148,-145.042,520
1569684440,362.21,-11.8318,-14.0643,179.297,2.02148,-145.042,520
1569684440,362.21,-11.8318,-14.0643,179.297,2.02148,-145.042,520
1569684440,362.21,-11.8318,-14.0643,179.297,2.02148,-145.042,520
1569684440,362.21,-11.8318,-14.0643,179.297,2.02148,-145.042,520
1569684440,362.21,-11.8318,-14.0643,179.297,2.02148,-145.042,516
1569684440,362.21,-11.8318,-14.0643,179.297,2.02148,-145.042,516
1569684440,362.21,-11.8318,-14.0643,179.297,2.02148,-145.042,516
1569684440,362.21,-11.8318,-14.0643,179.297,2.02148,-145.042,516
1569684440,362.21,-11.8318,-14.0643,179.297,2.02148,-145.042,516
1569684440,362.21,-11.8318,-14.1759,179.297,2.02148,-145.042,512
1569684440,362.21,-11.8318,-14.1759,179.297,1.99951,-145.042,512
1569684440,362.21,-11.8318,-14.1759,179.297,1.99951,-145.042,512
1569684440,362.21,-11.8318,-14.1759,179.319,1.99951,-145.042,512
1569684440,362.21,-11.8318,-14.1759,179.319,1.99951,-145.042,512
1569684440,362.21,-11.8318,-14.1759,179.319,1.99951,-145.042,512
1569684440,362.21,-11.8318,-14.1759,179.319,1.99951,-145.042,512
1569684440,362.21,-11.8318,-14.1759,179.319,1.99951,-145.042,512
1569684440,362.21,-11.8318,-14.1759,179.319,1.99951,-145.042,512
1569684440,362.21,-11.8318,-14.1759,179.319,1.99951,-145.042,512
1569684440,362.21,-11.8318,-14.1759,179.319,1.99951,-145.042,516
1569684440,362.21,-11.8318,-14.1759,179.319,1.99951,-145.042,516
1569684440,362.21,-11.8318,-14.1759,179.319,1.99951,-145.042,516
1569684440,362.21,-11.8318,-14.1759,179.319,1.99951,-145.042,516
1569684440,362.21,-11.8318,-14.1759,179.319,1.99951,-145.042,516
1569684440,362.21,-11.8318,-14.1759,179.319,1.99951,-145.042,516
1569684440,362.21,-11.8318,-14.1759,179.297,1.99951,-145.042,516
1569684440,362.21,-11.8318,-14.1759,179.297,1.99951,-145.063,516
1569684440,362.21,-11.8318,-14.1759,179.297,1.99951,-145.063,516
1569684440,362.21,-11.8318,-14.1759,179.297,1.99951,-145.063,516
1569684440,362.21,-11.8318,-14.1759,179.297,1.99951,-145.063,516
1569684440,362.21,-11.8318,-14.1759,179.297,2.02148,-145.063,516
1569684440,362.21,-11.8318,-14.0643,179.297,2.02148,-145.063,516
1569684440,362.21,-11.8318,-14.0643,179.297,2.02148,-145.063,516
1569684440,362.21,-11.8318,-14.0643,179.297,2.02148,-145.063,516
1569684440,362.21,-11.8318,-14.0643,179.297,2.02148,-145.063,516
1569684440,362.21,-11.8318,-14.0643,179.297,2.02148,-145.063,516
1569684440,362.21,-11.8318,-14.0643,179.297,2.02148,-145.063,520
1569684440,362.21,-11.8318,-14.0643,179.297,2.02148,-145.063,520
1569684440,362.21,-11.8318,-14.0643,179.297,2.02148,-145.063,520
1569684440,362.21,-11.8318,-14.0643,179.297,2.02148,-145.063,520
1569684440,362.21,-11.8318,-14.0643,179.297,2.02148,-145.063,520
1569684440,362.21,-11.8318,-14.0643,179.297,2.02148,-145.063,520
1569684440,362.21,-11.8318,-14.0643,179.297,2.02148,-145.063,520
1569684440,362.21,-11.8318,-14.0643,179.297,2.02148,-145.063,520
1569684440,362.21,-11.8318,-14.0643,179.297,2.02148,-145.063,520
1569684440,362.21,-11.8318,-14.0643,179.297,2.02148,-145.063,516
1569684440,362.21,-11.8318,-14.0643,179.297,2.02148,-145.063,516
1569684440,362.21,-11.8318,-14.0643,179.297,2.02148,-145.063,516
1569684440,362.21,-11.8318,-14.0643,179.297,2.02148,-145.063,516
1569684440,362.21,-11.8318,-14.0643,179.297,1.99951,-145.063,516
1569684440,362.21,-11.8318,-14.0643,179.297,1.99951,-145.063,516
1569684440,362.21,-11.8318,-14.1759,179.297,1.99951,-145.063,516
1569684440,362.21,-11.8318,-14.1759,179.297,1.99951,-145.063,516
1569684440,362.21,-11.8318,-14.1759,179.297,1.99951,-145.063,516
1569684440,362.21,-11.8318,-14.1759,179.297,1.99951,-145.063,516
1569684440,362.21,-11.8318,-14.1759,179.297,1.99951,-145.063,516
1569684440,362.21,-11.8318,-14.1759,179.297,1.99951,-145.063,516
1569684440,362.21,-11.8318,-14.1759,179.297,1.99951,-145.063,516
1569684440,362.21,-11.8318,-14.1759,179.297,1.99951,-145.063,516
1569684440,362.21,-11.8318,-14.0643,179.297,1.99951,-145.063,520
1569684440,362.21,-11.8318,-14.0643,179.297,1.99951,-145.063,520
1569684440,362.21,-11.8318,-14.0643,179.297,1.99951,-145.063,520
1569684440,362.21,-11.8318,-14.0643,179.297,1.99951,-145.063,520
1569684440,362.099,-11.8318,-14.0643,179.297,1.99951,-145.063,520
1569684440,362.099,-11.8318,-14.0643,179.297,1.99951,-145.063,520
1569684441,362.099,-11.8318,-14.0643,179.297,1.99951,-145.063,520
1569684441,362.099,-11.8318,-14.1759,179.297,1.99951,-145.063,524
1569684441,362.099,-11.8318,-14.1759,179.297,1.99951,-145.063,524
1569684441,362.099,-11.8318,-14.1759,179.297,1.99951,-145.063,524
1569684441,362.099,-11.8318,-14.1759,179.297,1.99951,-145.042,524
1569684441,362.099,-11.8318,-14.1759,179.297,1.99951,-145.042,524
1569684441,362.099,-11.8318,-14.1759,179.297,1.99951,-145.042,524
1569684441,362.099,-11.8318,-14.1759,179.297,1.99951,-145.042,524
1569684441,362.099,-11.8318,-14.1759,179.297,1.99951,-145.042,524
1569684441,362.099,-11.8318,-14.1759,179.297,1.99951,-145.042,528
1569684441,362.099,-11.8318,-14.1759,179.297,1.99951,-145.042,528
1569684441,362.099,-11.8318,-14.1759,179.275,1.99951,-145.042,528
1569684441,362.099,-11.9435,-14.1759,179.275,1.99951,-145.042,528
1569684441,362.099,-11.9435,-14.1759,179.275,1.99951,-145.042,528
1569684441,362.099,-11.9435,-14.1759,179.275,1.99951,-145.042,528
1569684441,362.099,-11.9435,-14.1759,179.275,1.99951,-145.042,528
1569684441,362.099,-11.9435,-14.1759,179.275,1.99951,-145.042,528
1569684441,362.099,-11.9435,-14.1759,179.275,1.99951,-145.042,528
1569684441,362.099,-11.9435,-14.1759,179.275,1.99951,-145.042,528
1569684441,362.099,-11.8318,-14.1759,179.275,1.99951,-145.042,528
1569684441,362.099,-11.8318,-14.1759,179.275,1.99951,-145.042,528
1569684441,362.099,-11.8318,-14.1759,179.275,1.99951,-145.042,528
1569684441,362.099,-11.8318,-14.1759,179.297,1.99951,-145.042,532
1569684441,362.099,-11.8318,-14.1759,179.297,1.99951,-145.042,532
1569684441,362.099,-11.8318,-14.1759,179.297,1.99951,-145.042,532
1569684441,362.099,-11.8318,-14.0643,179.297,1.99951,-145.042,532
1569684441,362.099,-11.8318,-14.0643,179.297,1.99951,-145.042,532
1569684441,362.099,-11.8318,-14.0643,179.297,1.99951,-145.042,532
1569684441,362.099,-11.8318,-14.0643,179.297,1.99951,-145.042,532
1569684441,362.099,-11.8318,-14.0643,179.275,1.99951,-145.042,532
1569684441,362.099,-11.8318,-14.0643,179.275,2.02148,-145.042,536
1569684441,362.099,-11.8318,-14.0643,179.275,2.02148,-145.042,536
1569684441,362.099,-11.8318,-14.0643,179.275,2.02148,-145.042,536
1569684441,362.099,-11.9435,-14.0643,179.275,2.02148,-145.042,536
1569684441,362.099,-11.9435,-14.0643,179.275,2.02148,-145.042,536
1569684441,362.099,-11.9435,-14.0643,179.275,2.02148,-145.042,536
1569684441,362.099,-11.8318,-14.0643,179.275,2.02148,-145.042,536
1569684441,362.099,-11.8318,-14.0643,179.275,2.02148,-145.042,536
1569684441,362.099,-11.8318,-14.0643,179.275,1.99951,-145.042,536
1569684441,362.099,-11.8318,-14.0643,179.297,1.99951,-145.063,536
1569684441,362.099,-11.8318,-14.0643,179.297,1.99951,-145.063,536
1569684441,362.099,-11.8318,-14.0643,179.297,1.99951,-145.063,536
1569684441,362.099,-11.8318,-14.0643,179.297,1.99951,-145.063,536
1569684441,362.099,-11.8318,-14.0643,179.297,1.99951,-145.063,536
1569684441,362.099,-11.8318,-14.0643,179.297,1.99951,-145.063,532
1569684441,362.099,-11.8318,-14.0643,179.297,1.99951,-145.063,532
1569684441,362.099,-11.8318,-14.0643,179.275,1.99951,-145.063,532
1569684441,362.099,-11.8318,-14.0643,179.275,1.99951,-145.063,532
1569684441,362.099,-11.8318,-14.0643,179.275,1.99951,-145.063,532
1569684441,362.099,-11.8318,-14.0643,179.275,1.99951,-145.063,532
1569684441,362.099,-11.8318,-14.0643,179.275,1.99951,-145.063,532
1569684441,362.099,-11.8318,-14.0643,179.275,1.99951,-145.063,532
1569684441,362.099,-11.8318,-14.0643,179.275,1.99951,-145.063,532
1569684441,362.099,-11.8318,-14.0643,179.275,1.99951,-145.063,532
1569684441,362.099,-11.8318,-14.0643,179.297,1.99951,-145.063,532
1569684441,362.099,-11.8318,-14.0643,179.297,1.99951,-145.063,532
1569684441,362.099,-11.8318,-14.0643,179.297,1.99951,-145.063,532
1569684444,400.72,-52.1271,-12.948,179.517,2.48291,-144.888,592
1569684444,400.72,-52.1271,-12.948,179.517,2.48291,-144.888,592
1569684444,400.72,-52.1271,-12.948,179.517,2.48291,-144.888,592
1569684444,400.72,-52.1271,-12.948,179.517,2.48291,-144.866,592
1569684445,400.72,-52.1271,-12.8364,179.517,2.48291,-144.866,592
1569684445,400.72,-52.1271,-12.8364,179.517,2.50488,-144.866,592
1569684445,400.72,-52.1271,-12.8364,179.517,2.50488,-144.866,592
1569684445,400.72,-52.1271,-12.8364,179.517,2.50488,-144.866,588
1569684445,400.72,-52.1271,-12.8364,179.517,2.50488,-144.866,588
1569684445,400.72,-52.1271,-12.8364,179.517,2.52686,-144.866,588
1569684445,400.72,-52.1271,-12.8364,179.517,2.52686,-144.866,588
1569684445,400.72,-52.1271,-12.8364,179.517,2.52686,-144.866,588
1569684445,400.72,-52.1271,-12.7248,179.517,2.52686,-144.866,584
1569684445,400.72,-52.1271,-12.7248,179.517,2.52686,-144.866,584
1569684445,400.72,-52.1271,-12.7248,179.517,2.52686,-144.866,584
1569684445,400.72,-52.1271,-12.7248,179.517,2.52686,-144.866,584
1569684445,400.72,-52.1271,-12.7248,179.517,2.52686,-144.866,580
1569684445,400.72,-52.1271,-12.7248,179.517,2.52686,-144.866,580
1569684445,400.72,-52.0154,-12.7248,179.517,2.52686,-144.866,580
1569684445,400.72,-52.0154,-12.7248,179.517,2.52686,-144.866,580
1569684445,400.72,-52.0154,-12.7248,179.517,2.52686,-144.866,580
1569684445,400.72,-52.0154,-12.7248,179.517,2.52686,-144.866,580
1569684445,400.72,-52.0154,-12.7248,179.539,2.52686,-144.866,580
1569684445,400.72,-52.0154,-12.7248,179.539,2.52686,-144.866,580
1569684445,400.72,-52.0154,-12.7248,179.517,2.52686,-144.866,580
1569684445,400.72,-52.0154,-12.7248,179.517,2.52686,-144.866,584
1569684445,400.608,-52.0154,-12.7248,179.517,2.52686,-144.866,584
1569684445,400.608,-52.0154,-12.8364,179.517,2.52686,-144.866,584
1569684445,400.608,-52.0154,-12.8364,179.517,2.50488,-144.866,584
1569684445,400.608,-52.0154,-12.8364,179.517,2.50488,-144.866,584
1569684445,400.608,-52.0154,-12.8364,179.517,2.50488,-144.866,584
1569684445,400.608,-52.1271,-12.8364,179.517,2.50488,-144.866,584
1569684445,400.608,-52.1271,-12.8364,179.517,2.50488,-144.866,584
1569684445,400.608,-52.1271,-12.8364,179.517,2.50488,-144.866,588
1569684445,400.608,-52.0154,-12.8364,179.517,2.48291,-144.866,588
1569684445,400.608,-52.0154,-12.8364,179.517,2.48291,-144.866,588
1569684445,400.608,-52.0154,-12.8364,179.539,2.48291,-144.866,588
1569684445,400.608,-52.0154,-12.8364,179.539,2.50488,-144.866,588
1569684445,400.608,-52.0154,-12.8364,179.539,2.50488,-144.866,588
1569684445,400.608,-52.0154,-12.8364,179.539,2.50488,-144.866,588
1569684445,400.72,-52.0154,-12.8364,179.539,2.50488,-144.866,588
1569684445,400.72,-52.0154,-12.8364,179.539,2.50488,-144.866,584
1569684445,400.72,-52.0154,-12.8364,179.539,2.50488,-144.866,584
1569684445,400.72,-52.0154,-12.8364,179.539,2.50488,-144.866,584
1569684445,400.72,-52.0154,-12.7248,179.539,2.50488,-144.866,584
1569684445,400.72,-52.0154,-12.7248,179.539,2.50488,-144.866,584
1569684445,400.72,-52.0154,-12.7248,179.539,2.52686,-144.866,580
1569684445,400.72,-52.0154,-12.7248,179.561,2.52686,-144.866,580
1569684445,400.72,-52.0154,-12.7248,179.561,2.52686,-144.866,580
1569684445,400.72,-52.0154,-12.7248,179.561,2.52686,-144.866,580
1569684445,400.72,-52.0154,-12.8364,179.561,2.50488,-144.866,580
1569684445,400.72,-52.0154,-12.8364,179.561,2.50488,-144.866,580
1569684445,400.72,-52.0154,-12.8364,179.561,2.50488,-144.866,580
1569684445,400.72,-52.0154,-12.8364,179.561,2.50488,-144.866,580
1569684445,400.72,-52.0154,-12.8364,179.561,2.50488,-144.866,580
1569684445,400.72,-52.0154,-12.8364,179.561,2.50488,-144.866,580
1569684445,400.72,-52.0154,-12.8364,179.561,2.50488,-144.866,580
1569684445,400.72,-52.0154,-12.8364,179.561,2.50488,-144.866,580
1569684445,400.831,-52.0154,-12.8364,179.561,2.50488,-144.866,580
1569684445,400.831,-52.0154,-12.8364,179.561,2.50488,-144.866,580
1569684445,400.831,-52.0154,-12.8364,179.561,2.50488,-144.866,576
1569684445,400.831,-52.0154,-12.8364,179.561,2.50488,-144.866,576
1569684445,400.831,-52.0154,-12.8364,179.561,2.50488,-144.866,576
1569684445,400.831,-52.0154,-12.8364,179.539,2.50488,-144.866,576
1569684445,400.831,-52.0154,-12.8364,179.539,2.50488,-144.866,576
1569684445,400.831,-52.0154,-12.8364,179.539,2.50488,-144.866,576
1569684445,400.831,-52.0154,-12.8364,179.539,2.50488,-144.866,572
1569684445,400.831,-52.0154,-12.8364,179.539,2.50488,-144.866,572
1569684445,400.831,-52.0154,-12.8364,179.539,2.50488,-144.866,572
1569684445,400.831,-52.0154,-12.8364,179.539,2.50488,-144.866,572
1569684445,400.831,-52.1271,-12.8364,179.539,2.50488,-144.866,572
1569684445,400.831,-52.1271,-12.8364,179.517,2.50488,-144.866,568
1569684445,400.831,-52.1271,-12.8364,179.517,2.50488,-144.866,568
1569684445,400.831,-52.1271,-12.7248,179.517,2.50488,-144.866,568
1569684445,400.831,-52.1271,-12.7248,179.517,2.52686,-144.866,568
1569684445,400.831,-52.1271,-12.7248,179.517,2.52686,-144.866,568
1569684445,400.831,-52.1271,-12.7248,179.517,2.52686,-144.866,568
1569684445,400.831,-52.1271,-12.7248,179.517,2.52686,-144.866,568
1569684445,400.831,-52.1271,-12.7248,179.495,2.52686,-144.866,568
1569684445,400.831,-52.1271,-12.7248,179.495,2.52686,-144.866,564
1569684445,400.831,-52.1271,-12.7248,179.495,2.52686,-144.866,564
1569684445,400.831,-52.1271,-12.7248,179.495,2.52686,-144.866,564
1569684445,400.831,-52.1271,-12.7248,179.495,2.52686,-144.866,564
1569684445,400.831,-52.1271,-12.7248,179.495,2.52686,-144.866,564
1569684445,400.831,-52.1271,-12.7248,179.495,2.52686,-144.866,568
1569684445,400.831,-52.1271,-12.7248,179.495,2.52686,-144.866,568
1569684445,400.831,-52.1271,-12.7248,179.495,2.52686,-144.866,568
1569684445,400.72,-52.1271,-12.7248,179.495,2.52686,-144.866,568
1569684445,400.72,-52.1271,-12.7248,179.495,2.52686,-144.866,568
1569684445,400.72,-52.1271,-12.7248,179.495,2.52686,-144.866,572
1569684445,400.72,-52.1271,-12.7248,179.495,2.52686,-144.866,572
1569684445,400.72,-52.1271,-12.7248,179.495,2.52686,-144.866,576
1569684445,400.72,-52.1271,-12.7248,179.495,2.52686,-144.866,576
1569684445,400.72,-52.1271,-12.7248,179.495,2.52686,-144.866,576
1569684445,400.72,-52.1271,-12.7248,179.495,2.52686,-144.866,576
1569684445,400.72,-52.1271,-12.7248,179.495,2.52686,-144.866,576
1569684445,400.72,-52.1271,-12.7248,179.495,2.52686,-144.866,580
1569684445,400.72,-52.1271,-12.7248,179.495,2.52686,-144.866,580
1569684445,400.72,-52.1271,-12.7248,179.495,2.52686,-144.866,580
1569684445,400.72,-52.1271,-12.7248,179.495,2.52686,-144.866,580
1569684445,400.72,-52.1271,-12.7248,179.495,2.52686,-144.866,576
1569684445,400.831,-52.1271,-12.7248,179.517,2.52686,-144.866,576
1569684445,400.831,-52.1271,-12.7248,179.517,2.52686,-144.866,576
1569684445,400.831,-52.1271,-12.7248,179.517,2.52686,-144.866,576
1569684446,400.831,-52.1271,-12.7248,179.517,2.52686,-144.844,576
1569684446,400.831,-52.1271,-12.7248,179.517,2.52686,-144.844,572
1569684446,400.831,-52.1271,-12.7248,179.517,2.54883,-144.844,572
1569684446,400.831,-52.1271,-12.7248,179.517,2.54883,-144.844,572
1569684446,400.831,-52.1271,-12.7248,179.517,2.54883,-144.844,568
1569684446,400.831,-52.1271,-12.7248,179.517,2.54883,-144.844,568
1569684446,400.831,-52.1271,-12.7248,179.517,2.54883,-144.844,568
1569684446,400.831,-52.1271,-12.6132,179.517,2.5708,-144.844,564
1569684446,400.831,-52.1271,-12.6132,179.517,2.5708,-144.844,564
1569684446,400.831,-52.1271,-12.6132,179.517,2.5708,-144.844,564
1569684446,400.831,-52.1271,-12.6132,179.517,2.5708,-144.844,560
1569684446,400.831,-52.1271,-12.6132,179.517,2.5708,-144.844,560
1569684446,400.831,-52.0154,-12.6132,179.539,2.5708,-144.844,560
1569684446,400.831,-52.0154,-12.6132,179.539,2.5708,-144.844,560
1569684446,400.831,-52.0154,-12.6132,179.539,2.5708,-144.844,560
1569684446,400.831,-52.0154,-12.6132,179.539,2.5708,-144.844,560
1569684446,400.831,-52.0154,-12.6132,179.539,2.5708,-144.844,560
1569684446,400.831,-52.0154,-12.6132,179.539,2.5708,-144.844,560
1569684446,400.831,-52.0154,-12.6132,179.561,2.5708,-144.844,560
1569684446,400.831,-52.0154,-12.6132,179.561,2.5708,-144.844,556
1569684446,400.831,-52.0154,-12.6132,179.561,2.5708,-144.844,556
1569684446,400.831,-52.0154,-12.6132,179.561,2.5708,-144.844,556
1569684446,400.831,-52.0154,-12.6132,179.561,2.5708,-144.844,556
1569684446,400.831,-52.0154,-12.6132,179.561,2.5708,-144.844,556
1569684446,400.831,-52.0154,-12.6132,179.561,2.5708,-144.844,556
1569684446,400.831,-52.0154,-12.6132,179.539,2.5708,-144.844,556
1569684446,400.831,-52.0154,-12.6132,179.539,2.5708,-144.844,560
1569684446,400.831,-52.0154,-12.6132,179.539,2.5708,-144.844,560
1569684446,400.831,-52.0154,-12.6132,179.539,2.5708,-144.844,560
1569684446,400.831,-52.0154,-12.6132,179.539,2.5708,-144.844,560
1569684446,400.831,-52.0154,-12.6132,179.539,2.5708,-144.844,564
1569684446,400.831,-52.0154,-12.6132,179.539,2.5708,-144.844,564
1569684446,400.831,-52.0154,-12.6132,179.539,2.5708,-144.844,564
1569684446,400.831,-52.0154,-12.6132,179.539,2.59277,-144.844,564
1569684446,400.72,-52.0154,-12.6132,179.561,2.59277,-144.844,568
1569684446,400.72,-52.0154,-12.6132,179.561,2.59277,-144.844,568
1569684446,400.831,-52.0154,-12.6132,179.561,2.59277,-144.844,568
1569684446,400.831,-52.0154,-12.6132,179.561,2.59277,-144.866,568
1569684446,400.831,-52.0154,-12.5016,179.561,2.59277,-144.866,568
1569684446,400.831,-52.0154,-12.5016,179.561,2.59277,-144.866,568
1569684446,400.831,-52.0154,-12.5016,179.561,2.59277,-144.866,568
1569684446,400.831,-52.0154,-12.6132,179.561,2.59277,-144.866,572
1569684446,400.831,-52.0154,-12.6132,179.561,2.59277,-144.866,572
1569684446,400.831,-52.0154,-12.6132,179.561,2.5708,-144.866,572
1569684446,400.831,-52.0154,-12.6132,179.539,2.5708,-144.888,572
1569684446,400.831,-52.0154,-12.6132,179.539,2.5708,-144.888,572
1569684446,400.831,-52.0154,-12.6132,179.539,2.59277,-144.888,572
1569684446,400.831,-52.0154,-12.6132,179.539,2.5708,-144.888,572
1569684446,400.831,-52.0154,-12.6132,179.539,2.5708,-144.888,576
1569684446,400.831,-52.0154,-12.6132,179.539,2.5708,-144.888,576
1569684446,400.831,-52.1271,-12.6132,179.539,2.5708,-144.866,576
1569684446,400.831,-52.1271,-12.6132,179.539,2.5708,-144.866,576
1569684446,400.831,-52.1271,-12.6132,179.539,2.5708,-144.866,580
1569684446,400.831,-52.1271,-12.6132,179.539,2.5708,-144.866,580
1569684446,400.831,-52.0154,-12.7248,179.539,2.54883,-144.866,580
1569684446,400.831,-52.0154,-12.7248,179.539,2.54883,-144.866,580
1569684446,400.831,-52.0154,-12.7248,179.539,2.54883,-144.866,580
1569684446,400.72,-52.0154,-12.7248,179.539,2.54883,-144.866,584
1569684446,400.72,-52.0154,-12.7248,179.539,2.54883,-144.866,584
1569684446,400.72,-52.0154,-12.7248,179.539,2.54883,-144.866,584
1569684446,400.72,-52.0154,-12.7248,179.539,2.54883,-144.866,584
1569684446,400.72,-52.0154,-12.7248,179.539,2.52686,-144.866,584
1569684446,400.72,-52.0154,-12.7248,179.539,2.52686,-144.866,588
1569684446,400.72,-52.0154,-12.7248,179.539,2.52686,-144.866,588
1569684446,400.72,-52.0154,-12.7248,179.539,2.52686,-144.866,588
1569684446,400.72,-52.0154,-12.7248,179.561,2.52686,-144.866,588
1569684446,400.72,-52.0154,-12.7248,179.561,2.52686,-144.866,588
1569684446,400.72,-51.9038,-12.7248,179.561,2.52686,-144.866,592
1569684446,400.72,-51.9038,-12.7248,179.561,2.52686,-144.866,592
1569684446,400.72,-51.9038,-12.7248,179.561,2.52686,-144.866,592
1569684446,400.72,-51.9038,-12.7248,179.561,2.52686,-144.866,592
1569684446,400.72,-52.0154,-12.7248,179.561,2.52686,-144.866,592
1569684446,400.72,-52.0154,-12.7248,179.561,2.52686,-144.866,588
1569684446,400.72,-52.0154,-12.7248,179.561,2.52686,-144.866,588
1569684446,400.72,-52.0154,-12.7248,179.539,2.52686,-144.866,588
1569684446,400.72,-52.0154,-12.7248,179.539,2.52686,-144.844,588
1569684446,400.72,-52.0154,-12.7248,179.539,2.52686,-144.844,588
1569684446,400.72,-52.0154,-12.7248,179.539,2.52686,-144.844,584
1569684446,400.72,-52.0154,-12.7248,179.539,2.52686,-144.844,584
1569684446,400.72,-52.0154,-12.7248,179.539,2.52686,-144.844,584
1569684446,400.72,-52.0154,-12.7248,179.539,2.52686,-144.844,580
1569684446,400.72,-52.0154,-12.7248,179.539,2.52686,-144.844,580
1569684446,400.72,-52.0154,-12.7248,179.539,2.50488,-144.844,580
1569684446,400.72,-52.0154,-12.7248,179.539,2.50488,-144.844,580
1569684446,400.72,-52.0154,-12.7248,179.539,2.50488,-144.844,576
1569684446,400.72,-52.0154,-12.8364,179.539,2.50488,-144.844,576
1569684446,400.72,-52.0154,-12.8364,179.561,2.50488,-144.844,576
1569684446,400.72,-52.0154,-12.8364,179.561,2.50488,-144.844,576
1569684446,400.72,-52.0154,-12.8364,179.561,2.50488,-144.844,572
1569684446,400.72,-52.0154,-12.8364,179.561,2.50488,-144.844,572
1569684446,400.72,-52.0154,-12.8364,179.561,2.50488,-144.844,572
1569684446,400.72,-52.0154,-12.8364,179.561,2.50488,-144.844,572
1569684446,400.72,-52.0154,-12.8364,179.561,2.50488,-144.844,572
1569684446,400.72,-52.0154,-12.8364,179.561,2.50488,-144.844,572
1569684446,400.72,-52.0154,-12.8364,179.539,2.50488,-144.844,572
1569684446,400.72,-52.0154,-12.8364,179.539,2.48291,-144.844,576
1569684446,400.72,-52.0154,-12.8364,179.539,2.48291,-144.844,576
1569684446,400.72,-52.0154,-12.8364,179.539,2.48291,-144.844,576
1569684446,400.72,-52.0154,-12.8364,179.561,2.48291,-144.844,576
1569684446,400.72,-52.0154,-12.8364,179.561,2.48291,-144.844,580
1569684447,400.72,-52.0154,-12.8364,179.561,2.48291,-144.844,580
1569684447,400.72,-52.0154,-12.8364,179.561,2.50488,-144.844,580
1569684447,400.72,-52.0154,-12.8364,179.561,2.50488,-144.844,584
1569684447,400.72,-52.0154,-12.8364,179.561,2.50488,-144.844,584
1569684447,400.72,-51.9038,-12.8364,179.561,2.50488,-144.844,584
1569684447,400.72,-51.9038,-12.8364,179.561,2.50488,-144.844,584
1569684447,400.72,-51.9038,-12.8364,179.561,2.50488,-144.844,584
1569684447,400.72,-52.0154,-12.8364,179.561,2.50488,-144.844,580
1569684447,400.72,-52.0154,-12.8364,179.561,2.50488,-144.844,580
1569684447,400.72,-52.0154,-12.8364,179.561,2.50488,-144.844,580
1569684447,400.72,-52.0154,-12.8364,179.561,2.48291,-144.866,580
1569684447,400.72,-52.0154,-12.8364,179.561,2.48291,-144.866,576
1569684447,400.72,-52.0154,-12.8364,179.561,2.48291,-144.866,576
1569684447,400.72,-52.0154,-12.8364,179.561,2.48291,-144.866,576
1569684447,400.72,-52.0154,-12.8364,179.561,2.48291,-144.866,572
1569684447,400.72,-52.0154,-12.8364,179.561,2.48291,-144.866,572
1569684447,400.72,-52.0154,-12.8364,179.561,2.50488,-144.866,572
1569684447,400.72,-52.0154,-12.8364,179.561,2.50488,-144.844,572
1569684447,400.72,-52.0154,-12.8364,179.561,2.50488,-144.844,572
1569684447,400.72,-52.0154,-12.7248,179.561,2.50488,-144.844,572
1569684447,400.72,-52.0154,-12.7248,179.561,2.52686,-144.844,572
1569684447,400.72,-52.0154,-12.7248,179.561,2.52686,-144.844,572
1569684447,400.72,-52.0154,-12.7248,179.561,2.52686,-144.844,572
1569684447,400.72,-52.0154,-12.7248,179.561,2.52686,-144.844,572
1569684447,400.72,-52.0154,-12.7248,179.539,2.54883,-144.844,572
1569684447,400.72,-52.0154,-12.7248,179.539,2.54883,-144.844,572
1569684447,400.72,-52.0154,-12.6132,179.539,2.54883,-144.844,572
1569684447,400.72,-52.0154,-12.6132,179.539,2.54883,-144.844,572
1569684447,400.72,-52.0154,-12.7248,179.539,2.54883,-144.844,572
1569684447,400.72,-52.0154,-12.7248,179.539,2.54883,-144.844,572
1569684447,400.72,-52.0154,-12.7248,179.539,2.54883,-144.844,572
1569684447,400.72,-52.0154,-12.6132,179.539,2.54883,-144.844,572
1569684447,400.72,-52.0154,-12.6132,179.539,2.54883,-144.844,572
1569684447,400.72,-52.0154,-12.6132,179.539,2.54883,-144.844,572
1569684447,400.72,-52.0154,-12.6132,179.539,2.54883,-144.844,572
1569684447,400.72,-52.0154,-12.6132,179.539,2.54883,-144.844,576
1569684447,400.72,-52.0154,-12.6132,179.539,2.54883,-144.844,576
1569684447,400.72,-52.0154,-12.6132,179.539,2.54883,-144.844,576
1569684447,400.72,-52.0154,-12.6132,179.539,2.54883,-144.844,576
1569684447,400.72,-52.0154,-12.6132,179.539,2.54883,-144.844,576
1569684447,400.72,-52.0154,-12.6132,179.539,2.54883,-144.844,576
1569684447,400.72,-52.0154,-12.6132,179.539,2.54883,-144.844,576
1569684447,400.72,-52.0154,-12.6132,179.539,2.54883,-144.844,576
1569684447,400.72,-52.0154,-12.6132,179.539,2.54883,-144.844,580
1569684447,400.72,-52.0154,-12.6132,179.561,2.54883,-144.844,580
1569684447,400.72,-52.0154,-12.6132,179.561,2.54883,-144.844,580
1569684447,400.72,-52.0154,-12.6132,179.561,2.54883,-144.844,580
1569684447,400.72,-52.0154,-12.6132,179.561,2.54883,-144.844,580
1569684447,400.72,-52.0154,-12.6132,179.561,2.54883,-144.844,580
1569684447,400.72,-52.0154,-12.6132,179.561,2.54883,-144.844,580
1569684447,400.72,-52.0154,-12.6132,179.561,2.54883,-144.844,576
1569684447,400.72,-52.0154,-12.6132,179.561,2.54883,-144.844,576
1569684447,400.831,-52.0154,-12.6132,179.561,2.54883,-144.844,576
1569684447,400.831,-52.0154,-12.6132,179.561,2.54883,-144.844,576
1569684447,400.831,-52.0154,-12.6132,179.539,2.54883,-144.844,576
1569684447,400.831,-52.0154,-12.6132,179.539,2.5708,-144.844,576
1569684447,400.831,-52.0154,-12.6132,179.539,2.5708,-144.844,576
1569684447,400.831,-52.0154,-12.6132,179.539,2.5708,-144.844,576
1569684447,400.831,-52.0154,-12.5016,179.539,2.5708,-144.844,576
1569684447,400.831,-52.0154,-12.5016,179.539,2.5708,-144.844,572
1569684447,400.831,-52.0154,-12.5016,179.539,2.5708,-144.844,572
1569684447,400.831,-52.0154,-12.5016,179.539,2.5708,-144.844,572
1569684447,400.831,-52.0154,-12.5016,179.539,2.5708,-144.822,572
1569684447,400.831,-52.0154,-12.5016,179.539,2.5708,-144.822,572
1569684447,400.831,-52.0154,-12.6132,179.539,2.5708,-144.822,568
1569684447,400.831,-52.0154,-12.6132,179.539,2.5708,-144.822,568
1569684447,400.831,-52.0154,-12.6132,179.539,2.5708,-144.822,568
1569684447,400.831,-52.0154,-12.6132,179.561,2.54883,-144.822,564
1569684447,400.831,-52.0154,-12.6132,179.561,2.54883,-144.844,564
1569684447,400.831,-52.0154,-12.7248,179.561,2.54883,-144.844,564
1569684447,400.943,-52.0154,-12.7248,179.561,2.54883,-144.844,564
1569684447,400.943,-52.0154,-12.7248,179.561,2.54883,-144.844,560
1569684447,400.943,-52.0154,-12.7248,179.561,2.54883,-144.844,560
1569684447,400.943,-52.0154,-12.7248,179.561,2.54883,-144.844,560
1569684447,400.943,-52.0154,-12.7248,179.561,2.54883,-144.844,560
1569684447,400.943,-52.0154,-12.7248,179.561,2.54883,-144.844,560
1569684447,400.943,-52.0154,-12.7248,179.539,2.52686,-144.844,560
1569684447,400.943,-52.1271,-12.7248,179.539,2.52686,-144.844,560
1569684447,400.831,-52.1271,-12.7248,179.539,2.52686,-144.866,560
1569684447,400.831,-52.1271,-12.7248,179.539,2.52686,-144.866,560
1569684447,400.831,-52.1271,-12.7248,179.539,2.52686,-144.866,560
1569684447,400.831,-52.1271,-12.7248,179.539,2.52686,-144.866,564
1569684447,400.831,-52.1271,-12.7248,179.539,2.54883,-144.866,564
1569684447,400.831,-52.1271,-12.7248,179.539,2.54883,-144.866,564
1569684447,400.831,-52.1271,-12.7248,179.539,2.54883,-144.866,568
1569684447,400.831,-52.1271,-12.7248,179.539,2.54883,-144.866,568
1569684447,400.831,-52.1271,-12.7248,179.539,2.54883,-144.866,572
1569684447,400.831,-52.1271,-12.7248,179.539,2.54883,-144.866,572
1569684447,400.72,-52.1271,-12.7248,179.539,2.54883,-144.866,572
1569684447,400.72,-52.0154,-12.7248,179.539,2.54883,-144.866,576
1569684447,400.72,-52.0154,-12.6132,179.539,2.54883,-144.866,576
1569684447,400.72,-52.0154,-12.6132,179.539,2.54883,-144.866,576
1569684447,400.72,-52.0154,-12.6132,179.539,2.54883,-144.866,576
1569684447,400.72,-52.0154,-12.7248,179.539,2.54883,-144.866,580
1569684447,400.831,-52.0154,-12.7248,179.539,2.54883,-144.866,580
1569684447,400.72,-52.0154,-12.7248,179.539,2.54883,-144.844,580
1569684447,400.72,-52.0154,-12.7248,179.539,2.54883,-144.844,580
1569684447,400.72,-52.0154,-12.7248,179.539,2.54883,-144.844,576
1569684447,400.831,-52.0154,-12.7248,179.539,2.54883,-144.844,576
1569684447,400.831,-52.0154,-12.7248,179.539,2.52686,-144.844,576
1569684448,400.831,-52.0154,-12.7248,179.539,2.52686,-144.844,576
1569684448,400.72,-52.0154,-12.7248,179.539,2.52686,-144.844,576
1569684448,400.72,-52.0154,-12.7248,179.539,2.52686,-144.844,576
1569684448,400.72,-52.0154,-12.7248,179.539,2.52686,-144.844,576
1569684448,400.72,-52.0154,-12.7248,179.539,2.52686,-144.844,572
1569684448,400.72,-52.1271,-12.7248,179.517,2.52686,-144.844,572
1569684448,400.72,-52.1271,-12.7248,179.517,2.52686,-144.844,572
1569684448,400.72,-52.1271,-12.7248,179.517,2.52686,-144.844,572
1569684448,400.72,-52.1271,-12.7248,179.517,2.52686,-144.866,572
1569684448,400.72,-52.1271,-12.7248,179.517,2.52686,-144.866,572
1569684448,400.72,-52.1271,-12.7248,179.517,2.52686,-144.866,572
1569684448,400.72,-52.1271,-12.7248,179.517,2.52686,-144.866,572
1569684448,400.72,-52.1271,-12.8364,179.517,2.50488,-144.866,572
1569684448,400.72,-52.1271,-12.8364,179.517,2.50488,-144.866,572
1569684448,400.72,-52.1271,-12.8364,179.517,2.50488,-144.866,572
1569684448,400.72,-52.1271,-12.8364,179.517,2.50488,-144.866,572
1569684448,400.72,-52.1271,-12.8364,179.517,2.50488,-144.866,572
1569684448,400.72,-52.1271,-12.8364,179.517,2.50488,-144.866,568
1569684448,400.72,-52.1271,-12.8364,179.495,2.50488,-144.866,568
1569684448,400.72,-52.1271,-12.8364,179.495,2.50488,-144.866,568
1569684448,400.72,-52.1271,-12.8364,179.495,2.50488,-144.844,568
1569684448,400.72,-52.1271,-12.8364,179.495,2.50488,-144.844,568
1569684448,400.72,-52.2387,-12.8364,179.495,2.52686,-144.844,564
1569684448,400.72,-52.2387,-12.8364,179.495,2.52686,-144.844,564
1569684448,400.72,-52.1271,-12.8364,179.495,2.52686,-144.844,564
1569684448,400.72,-52.1271,-12.8364,179.495,2.52686,-144.844,564
1569684448,400.72,-52.1271,-12.8364,179.495,2.52686,-144.844,564
1569684448,400.72,-52.1271,-12.8364,179.495,2.52686,-144.866,564
1569684448,400.72,-52.1271,-12.8364,179.517,2.52686,-144.866,564
1569684448,400.72,-52.1271,-12.8364,179.517,2.50488,-144.866,564
1569684448,400.72,-52.1271,-12.8364,179.517,2.52686,-144.866,564
