time,x,y,z,ax,ay,az,q
1565023398,325.487,29.8028,-16.7432,178.77,1.31836,-155.544,236
1565023398,325.487,29.8028,-16.7432,178.77,1.31836,-155.544,236
1565023398,325.487,29.8028,-16.7432,178.77,1.31836,-155.544,236
1565023398,325.487,29.8028,-16.7432,178.77,1.31836,-155.544,236
1565023398,325.487,29.8028,-16.7432,178.77,1.31836,-155.544,236
1565023398,325.487,29.8028,-16.7432,178.77,1.31836,-155.544,236
1565023398,325.487,29.8028,-16.7432,178.77,1.31836,-155.544,236
1565023398,325.487,29.8028,-16.7432,178.77,1.31836,-155.544,236
1565023398,325.487,29.8028,-16.7432,178.77,1.31836,-155.544,236
1565023398,325.487,29.8028,-16.7432,178.77,1.31836,-155.544,236
1565023398,325.487,29.8028,-16.7432,178.748,1.31836,-155.544,236
1565023398,325.487,29.8028,-16.7432,178.748,1.31836,-155.544,236
1565023398,325.487,29.8028,-16.7432,178.748,1.31836,-155.544,232
1565023398,325.487,29.8028,-16.7432,178.748,1.31836,-155.544,232
1565023398,325.487,29.8028,-16.7432,178.748,1.31836,-155.544,232
1565023398,325.487,29.8028,-16.7432,178.748,1.31836,-155.544,232
1565023398,325.487,29.8028,-16.7432,178.748,1.31836,-155.544,232
1565023398,325.487,29.8028,-16.7432,178.748,1.31836,-155.544,232
1565023398,325.487,29.8028,-16.7432,178.748,1.31836,-155.544,232
1565023398,325.487,29.8028,-16.7432,178.748,1.31836,-155.544,232
1565023398,325.487,29.6912,-16.7432,178.748,1.31836,-155.544,232
1565023398,325.487,29.6912,-16.7432,178.748,1.31836,-155.544,232
1565023398,325.487,29.6912,-16.7432,178.748,1.31836,-155.544,232
1565023398,325.487,29.6912,-16.7432,178.748,1.31836,-155.544,232
1565023398,325.487,29.6912,-16.7432,178.748,1.31836,-155.544,232
1565023398,325.487,29.6912,-16.7432,178.748,1.31836,-155.544,232
1565023398,325.375,29.6912,-16.8548,178.748,1.31836,-155.544,232
1565023398,325.375,29.8028,-16.8548,178.748,1.31836,-155.544,232
1565023398,325.375,29.8028,-16.8548,178.748,1.31836,-155.544,232
1565023398,325.375,29.8028,-16.8548,178.748,1.31836,-155.544,232
1565023398,325.375,29.8028,-16.8548,178.748,1.31836,-155.544,232
1565023398,325.375,29.8028,-16.8548,178.748,1.31836,-155.544,232
1565023398,325.375,29.8028,-16.8548,178.748,1.31836,-155.544,232
1565023398,325.375,29.8028,-16.8548,178.748,1.31836,-155.544,232
1565023398,325.375,29.8028,-16.8548,178.748,1.31836,-155.544,232
1565023398,325.375,29.8028,-16.8548,178.748,1.31836,-155.544,232
1565023398,325.375,29.8028,-16.8548,178.748,1.31836,-155.544,232
1565023398,325.375,29.8028,-16.7432,178.748,1.31836,-155.544,232
1565023398,325.375,29.8028,-16.7432,178.748,1.31836,-155.544,232
1565023398,325.375,29.8028,-16.7432,178.748,1.31836,-155.544,232
1565023398,325.375,29.8028,-16.7432,178.748,1.31836,-155.544,232
1565023398,325.375,29.8028,-16.7432,178.748,1.31836,-155.544,232
1565023398,325.375,29.8028,-16.8548,178.748,1.31836,-155.544,232
1565023398,325.375,29.8028,-16.8548,178.748,1.31836,-155.544,232
1565023398,325.375,29.8028,-16.8548,178.748,1.31836,-155.544,232
1565023398,325.375,29.8028,-16.8548,178.748,1.29639,-155.544,232
1565023398,325.375,29.8028,-16.8548,178.77,1.29639,-155.544,232
1565023398,325.375,29.8028,-16.8548,178.77,1.29639,-155.544,236
1565023398,325.375,29.8028,-16.8548,178.77,1.29639,-155.544,236
1565023398,325.375,29.8028,-16.8548,178.77,1.29639,-155.544,236
1565023398,325.375,29.8028,-16.8548,178.748,1.29639,-155.544,236
1565023398,325.375,29.8028,-16.8548,178.748,1.29639,-155.544,236
1565023398,325.375,29.8028,-16.8548,178.748,1.29639,-155.544,236
1565023398,325.375,29.8028,-16.8548,178.748,1.29639,-155.544,236
1565023398,325.375,29.8028,-16.8548,178.748,1.29639,-155.544,236
1565023398,325.375,29.8028,-16.8548,178.748,1.29639,-155.544,236
1565023398,325.487,29.8028,-16.8548,178.748,1.29639,-155.544,236
1565023398,325.487,29.8028,-16.8548,178.748,1.29639,-155.544,236
1565023398,325.487,29.8028,-16.8548,178.748,1.31836,-155.544,236
1565023398,325.487,29.8028,-16.8548,178.748,1.31836,-155.566,236
1565023398,325.487,29.8028,-16.8548,178.748,1.31836,-155.566,236
1565023398,325.487,29.8028,-16.7432,178.748,1.31836,-155.566,236
1565023398,325.487,29.8028,-16.7432,178.748,1.31836,-155.566,236
1565023398,325.487,29.8028,-16.7432,178.748,1.31836,-155.566,236
1565023398,325.487,29.8028,-16.7432,178.748,1.31836,-155.566,232
1565023398,325.487,29.8028,-16.7432,178.748,1.31836,-155.566,232
1565023398,325.487,29.8028,-16.7432,178.748,1.31836,-155.566,232
1565023398,325.487,29.8028,-16.7432,178.748,1.31836,-155.566,232
1565023398,325.487,29.8028,-16.7432,178.748,1.31836,-155.566,232
1565023398,325.487,29.8028,-16.7432,178.748,1.31836,-155.566,232
1565023398,325.487,29.8028,-16.7432,178.748,1.31836,-155.544,232
1565023398,325.487,29.8028,-16.7432,178.748,1.31836,-155.544,232
1565023398,325.487,29.8028,-16.7432,178.748,1.31836,-155.544,232
1565023398,325.487,29.8028,-16.7432,178.748,1.31836,-155.544,232
1565023398,325.487,29.8028,-16.7432,178.748,1.31836,-155.544,232
1565023398,325.487,29.8028,-16.7432,178.748,1.31836,-155.544,232
1565023398,325.487,29.8028,-16.7432,178.748,1.31836,-155.544,232
1565023398,325.375,29.8028,-16.7432,178.748,1.31836,-155.544,232
1565023398,325.375,29.8028,-16.7432,178.748,1.31836,-155.544,232
1565023398,325.375,29.8028,-16.7432,178.748,1.31836,-155.544,232
1565023398,325.375,29.8028,-16.7432,178.748,1.31836,-155.544,232
1565023398,325.375,29.8028,-16.7432,178.748,1.31836,-155.544,232
1565023398,325.375,29.8028,-16.7432,178.748,1.31836,-155.544,232
1565023398,325.375,29.8028,-16.7432,178.748,1.31836,-155.544,232
1565023398,325.375,29.8028,-16.7432,178.748,1.31836,-155.544,232
1565023399,325.375,29.8028,-16.7432,178.748,1.31836,-155.544,232
1565023399,325.375,29.8028,-16.7432,178.748,1.31836,-155.544,232
1565023399,325.375,29.8028,-16.7432,178.748,1.31836,-155.544,232
1565023399,325.375,29.8028,-16.7432,178.748,1.31836,-155.544,232
1565023399,325.375,29.8028,-16.7432,178.77,1.31836,-155.544,232
1565023399,325.375,29.8028,-16.7432,178.77,1.31836,-155.544,232
1565023399,325.375,29.8028,-16.7432,178.748,1.31836,-155.544,232
1565023399,325.375,29.8028,-16.7432,178.748,1.31836,-155.544,232
1565023399,325.375,29.8028,-16.7432,178.748,1.31836,-155.544,232
1565023399,325.375,29.8028,-16.7432,178.748,1.31836,-155.544,232
1565023399,325.375,29.8028,-16.7432,178.748,1.31836,-155.544,232
1565023399,325.375,29.8028,-16.7432,178.748,1.31836,-155.544,232
1565023399,325.375,29.8028,-16.7432,178.748,1.31836,-155.544,232
1565023399,325.375,29.8028,-16.7432,178.748,1.31836,-155.544,232
1565023399,325.487,29.8028,-16.7432,178.748,1.31836,-155.544,232
1565023399,325.487,29.8028,-16.7432,178.748,1.31836,-155.544,232
1565023399,325.487,29.8028,-16.7432,178.748,1.31836,-155.544,232
1565023399,325.487,29.8028,-16.7432,178.748,1.31836,-155.544,232
1565023399,325.487,29.8028,-16.7432,178.748,1.31836,-155.544,232
1565023399,325.487,29.8028,-16.7432,178.748,1.31836,-155.544,232
1565023399,325.487,29.8028,-16.7432,178.748,1.31836,-155.544,232
1565023399,325.487,29.8028,-16.7432,178.748,1.31836,-155.544,232
1565023399,325.487,29.8028,-16.7432,178.77,1.31836,-155.544,232
1565023399,325.487,29.8028,-16.7432,178.77,1.31836,-155.544,232
1565023399,325.487,29.8028,-16.7432,178.77,1.31836,-155.544,232
1565023399,325.487,29.8028,-16.7432,178.77,1.31836,-155.544,236
1565023399,325.487,29.8028,-16.7432,178.77,1.31836,-155.544,236
1565023399,325.487,29.8028,-16.7432,178.77,1.31836,-155.544,236
1565023399,325.375,29.8028,-16.7432,178.77,1.31836,-155.544,236
1565023399,325.375,29.8028,-16.7432,178.77,1.31836,-155.544,236
1565023399,325.375,29.8028,-16.7432,178.77,1.31836,-155.544,236
1565023399,325.375,29.8028,-16.7432,178.77,1.31836,-155.544,236
1565023399,325.375,29.8028,-16.7432,178.77,1.31836,-155.544,236
1565023399,325.375,29.8028,-16.7432,178.77,1.31836,-155.544,236
1565023399,325.375,29.8028,-16.7432,178.77,1.31836,-155.544,240
1565023399,325.375,29.8028,-16.7432,178.77,1.31836,-155.544,240
1565023399,325.375,29.8028,-16.7432,178.77,1.31836,-155.544,240
1565023399,325.375,29.8028,-16.7432,178.77,1.31836,-155.544,240
1565023399,325.375,29.8028,-16.7432,178.77,1.31836,-155.544,240
1565023399,325.375,29.8028,-16.7432,178.77,1.31836,-155.544,240
1565023399,325.375,29.8028,-16.7432,178.77,1.31836,-155.544,240
1565023399,325.375,29.8028,-16.7432,178.77,1.31836,-155.544,240
1565023399,325.487,29.8028,-16.7432,178.77,1.34033,-155.544,240
1565023399,325.487,29.8028,-16.7432,178.77,1.34033,-155.544,240
1565023399,325.487,29.8028,-16.7432,178.77,1.31836,-155.544,236
1565023399,325.487,29.8028,-16.7432,178.77,1.31836,-155.544,236
1565023399,325.487,29.8028,-16.7432,178.77,1.31836,-155.544,236
1565023399,325.487,29.8028,-16.7432,178.748,1.31836,-155.544,236
1565023399,325.487,29.8028,-16.7432,178.748,1.31836,-155.544,236
1565023399,325.375,29.8028,-16.7432,178.748,1.31836,-155.544,236
1565023399,325.375,29.8028,-16.7432,178.748,1.31836,-155.544,236
1565023399,325.375,29.8028,-16.7432,178.748,1.31836,-155.544,236
1565023399,325.375,29.8028,-16.7432,178.748,1.31836,-155.544,236
1565023399,325.375,29.8028,-16.7432,178.748,1.31836,-155.544,236
1565023399,325.375,29.8028,-16.7432,178.748,1.31836,-155.544,236
1565023399,325.375,29.8028,-16.7432,178.748,1.31836,-155.544,236
1565023399,325.375,29.8028,-16.7432,178.748,1.31836,-155.544,236
1565023399,325.375,29.8028,-16.7432,178.748,1.31836,-155.544,236
1565023399,325.375,29.8028,-16.7432,178.748,1.31836,-155.544,236
1565023399,325.375,29.8028,-16.7432,178.748,1.31836,-155.544,236
1565023399,325.375,29.8028,-16.7432,178.748,1.31836,-155.544,236
1565023399,325.375,29.8028,-16.7432,178.748,1.31836,-155.544,236
1565023399,325.375,29.8028,-16.7432,178.77,1.31836,-155.544,236
1565023399,325.375,29.8028,-16.7432,178.77,1.31836,-155.544,236
1565023399,325.375,29.8028,-16.7432,178.77,1.31836,-155.544,236
1565023399,325.375,29.8028,-16.7432,178.77,1.31836,-155.544,236
1565023399,325.375,29.8028,-16.7432,178.77,1.31836,-155.544,240
1565023399,325.375,29.8028,-16.7432,178.77,1.31836,-155.544,240
1565023399,325.375,29.8028,-16.7432,178.77,1.31836,-155.544,236
1565023399,325.375,29.8028,-16.7432,178.77,1.31836,-155.544,236
1565023399,325.375,29.8028,-16.7432,178.77,1.31836,-155.544,236
1565023399,325.375,29.8028,-16.7432,178.77,1.31836,-155.544,236
1565023399,325.375,29.8028,-16.7432,178.77,1.31836,-155.544,236
1565023399,325.375,29.8028,-16.7432,178.77,1.31836,-155.544,236
1565023399,325.375,29.8028,-16.7432,178.77,1.31836,-155.544,240
1565023399,325.375,29.8028,-16.7432,178.77,1.31836,-155.544,240
1565023399,325.375,29.8028,-16.7432,178.77,1.31836,-155.544,240
1565023399,325.375,29.8028,-16.7432,178.77,1.31836,-155.544,240
1565023399,325.375,29.8028,-16.7432,178.748,1.31836,-155.544,240
1565023399,325.375,29.8028,-16.7432,178.748,1.31836,-155.544,240
1565023399,325.375,29.8028,-16.7432,178.748,1.31836,-155.544,240
1565023399,325.375,29.8028,-16.7432,178.748,1.31836,-155.544,240
1565023399,325.375,29.8028,-16.7432,178.748,1.31836,-155.544,240
1565023399,325.375,29.8028,-16.7432,178.748,1.31836,-155.544,240
1565023399,325.375,29.8028,-16.7432,178.77,1.31836,-155.544,240
1565023399,325.375,29.8028,-16.7432,178.77,1.31836,-155.544,240
1565023399,325.375,29.8028,-16.7432,178.77,1.31836,-155.544,240
1565023399,325.375,29.8028,-16.7432,178.77,1.31836,-155.544,240
1565023399,325.375,29.8028,-16.8548,178.77,1.31836,-155.544,240
1565023399,325.375,29.8028,-16.8548,178.77,1.31836,-155.544,240
1565023399,325.375,29.8028,-16.8548,178.77,1.29639,-155.544,240
1565023399,325.375,29.8028,-16.8548,178.77,1.29639,-155.544,240
1565023399,325.375,29.8028,-16.8548,178.77,1.29639,-155.544,240
1565023399,325.375,29.8028,-16.8548,178.77,1.29639,-155.544,240
1565023399,325.375,29.8028,-16.8548,178.77,1.29639,-155.544,240
1565023399,325.375,29.8028,-16.8548,178.77,1.29639,-155.544,240
1565023399,325.375,29.8028,-16.8548,178.748,1.29639,-155.544,240
1565023399,325.375,29.8028,-16.8548,178.748,1.29639,-155.544,240
1565023399,325.375,29.8028,-16.8548,178.748,1.29639,-155.544,240
1565023399,325.375,29.8028,-16.8548,178.748,1.29639,-155.544,240
1565023400,325.375,29.8028,-16.8548,178.748,1.29639,-155.544,240
1565023400,325.375,29.8028,-16.8548,178.748,1.29639,-155.544,240
1565023400,325.375,29.8028,-16.8548,178.748,1.29639,-155.544,240
1565023400,325.375,29.8028,-16.8548,178.748,1.31836,-155.544,240
1565023400,325.375,29.8028,-16.8548,178.748,1.31836,-155.544,240
1565023400,325.375,29.8028,-16.8548,178.748,1.31836,-155.544,240
1565023400,325.375,29.8028,-16.8548,178.748,1.31836,-155.544,240
1565023400,325.375,29.8028,-16.8548,178.77,1.31836,-155.544,236
1565023400,325.375,29.8028,-16.8548,178.77,1.29639,-155.544,236
1565023400,325.375,29.8028,-16.8548,178.77,1.29639,-155.544,236
1565023400,325.487,29.8028,-16.8548,178.748,1.29639,-155.544,236
1565023400,325.487,29.8028,-16.8548,178.748,1.29639,-155.544,236
1565023400,325.487,29.8028,-16.8548,178.748,1.29639,-155.544,236
1565023400,325.487,29.8028,-16.8548,178.748,1.29639,-155.544,232
1565023400,325.487,29.8028,-16.8548,178.748,1.29639,-155.544,232
1565023400,325.487,29.8028,-16.8548,178.748,1.29639,-155.544,232
1565023400,325.487,29.8028,-16.8548,178.748,1.29639,-155.544,232
1565023400,325.487,29.8028,-16.8548,178.748,1.29639,-155.544,232
1565023400,325.487,29.8028,-16.8548,178.748,1.29639,-155.544,232
1565023400,325.487,29.8028,-16.8548,178.748,1.29639,-155.544,232
1565023400,325.487,29.8028,-16.8548,178.748,1.29639,-155.544,232
1565023400,325.375,29.8028,-16.8548,178.77,1.31836,-155.544,232
1565023400,325.375,29.8028,-16.8548,178.77,1.31836,-155.544,232
1565023400,325.375,29.8028,-16.7432,178.77,1.31836,-155.544,232
1565023400,325.375,29.8028,-16.7432,178.77,1.31836,-155.544,232
1565023400,325.375,29.8028,-16.7432,178.77,1.31836,-155.544,232
1565023400,325.375,29.8028,-16.7432,178.77,1.31836,-155.544,232
1565023400,325.487,29.8028,-16.7432,178.77,1.31836,-155.544,232
1565023400,325.487,29.8028,-16.7432,178.77,1.31836,-155.544,232
1565023400,325.487,29.8028,-16.7432,178.77,1.31836,-155.544,232
1565023400,325.487,29.8028,-16.7432,178.77,1.31836,-155.544,232
1565023400,325.487,29.8028,-16.7432,178.77,1.31836,-155.544,232
1565023400,325.487,29.8028,-16.7432,178.77,1.31836,-155.544,232
1565023400,325.375,29.8028,-16.7432,178.77,1.31836,-155.544,232
1565023400,325.375,29.8028,-16.7432,178.77,1.31836,-155.544,232
1565023400,325.375,29.8028,-16.7432,178.77,1.31836,-155.544,232
1565023400,325.375,29.8028,-16.7432,178.77,1.31836,-155.544,232
1565023400,325.375,29.8028,-16.7432,178.77,1.31836,-155.544,232
1565023400,325.375,29.8028,-16.8548,178.77,1.31836,-155.544,232
1565023400,325.375,29.8028,-16.8548,178.77,1.31836,-155.544,232
1565023400,325.375,29.8028,-16.8548,178.77,1.29639,-155.544,232
1565023400,325.375,29.8028,-16.8548,178.77,1.31836,-155.544,232
1565023400,325.375,29.8028,-16.8548,178.77,1.31836,-155.544,232
1565023400,325.375,29.8028,-16.7432,178.77,1.31836,-155.544,232
1565023400,325.375,29.8028,-16.7432,178.77,1.31836,-155.544,232
1565023400,325.375,29.8028,-16.7432,178.77,1.31836,-155.544,232
1565023400,325.375,29.8028,-16.7432,178.77,1.31836,-155.544,232
1565023400,325.487,29.8028,-16.7432,178.77,1.31836,-155.544,232
1565023400,325.487,29.8028,-16.7432,178.77,1.31836,-155.544,232
1565023400,325.487,29.8028,-16.7432,178.77,1.31836,-155.544,232
1565023400,325.487,29.8028,-16.7432,178.77,1.31836,-155.544,232
1565023400,325.487,29.8028,-16.7432,178.77,1.31836,-155.544,232
1565023400,325.487,29.8028,-16.7432,178.77,1.31836,-155.544,232
1565023400,325.487,29.8028,-16.7432,178.77,1.31836,-155.544,232
1565023400,325.487,29.8028,-16.7432,178.77,1.31836,-155.544,232
1565023400,325.487,29.8028,-16.7432,178.77,1.31836,-155.544,232
1565023400,325.487,29.8028,-16.7432,178.77,1.31836,-155.544,232
1565023400,325.487,29.8028,-16.7432,178.77,1.31836,-155.544,232
1565023400,325.487,29.8028,-16.7432,178.77,1.31836,-155.544,232
1565023400,325.375,29.8028,-16.7432,178.77,1.31836,-155.544,232
1565023400,325.375,29.8028,-16.7432,178.748,1.31836,-155.544,232
1565023400,325.375,29.8028,-16.7432,178.748,1.31836,-155.544,232
1565023400,325.375,29.8028,-16.7432,178.748,1.31836,-155.544,232
1565023400,325.375,29.8028,-16.7432,178.748,1.31836,-155.544,232
1565023400,325.375,29.8028,-16.7432,178.748,1.31836,-155.544,232
1565023400,325.375,29.8028,-16.7432,178.748,1.31836,-155.544,232
1565023400,325.375,29.8028,-16.7432,178.748,1.31836,-155.544,232
1565023400,325.375,29.8028,-16.7432,178.748,1.31836,-155.544,232
1565023400,325.375,29.8028,-16.7432,178.748,1.31836,-155.544,232
1565023400,325.375,29.8028,-16.7432,178.748,1.31836,-155.544,232
1565023400,325.375,29.8028,-16.7432,178.748,1.31836,-155.544,232
1565023400,325.375,29.8028,-16.7432,178.748,1.31836,-155.544,232
1565023400,325.375,29.8028,-16.7432,178.748,1.31836,-155.544,232
1565023400,325.375,29.8028,-16.7432,178.748,1.31836,-155.544,232
1565023400,325.375,29.8028,-16.7432,178.748,1.31836,-155.544,232
1565023400,325.375,29.8028,-16.7432,178.748,1.31836,-155.544,232
1565023400,325.375,29.8028,-16.7432,178.748,1.31836,-155.544,232
1565023400,325.375,29.8028,-16.7432,178.748,1.31836,-155.544,232
1565023400,325.375,29.8028,-16.7432,178.748,1.31836,-155.544,232
1565023400,325.375,29.8028,-16.7432,178.748,1.31836,-155.544,232
1565023400,325.375,29.8028,-16.7432,178.748,1.31836,-155.544,232
1565023400,325.375,29.8028,-16.7432,178.748,1.31836,-155.544,232
1565023400,325.375,29.8028,-16.7432,178.748,1.31836,-155.544,232
1565023400,325.375,29.8028,-16.7432,178.748,1.31836,-155.544,232
1565023400,325.375,29.8028,-16.7432,178.748,1.34033,-155.544,232
1565023400,325.375,29.8028,-16.7432,178.748,1.34033,-155.544,232
1565023400,325.487,29.8028,-16.7432,178.748,1.34033,-155.544,232
1565023400,325.487,29.8028,-16.7432,178.748,1.34033,-155.544,232
1565023400,325.487,29.8028,-16.7432,178.748,1.34033,-155.544,232
1565023400,325.487,29.8028,-16.7432,178.748,1.34033,-155.544,232
1565023400,325.487,29.8028,-16.7432,178.748,1.34033,-155.544,232
1565023400,325.487,29.8028,-16.7432,178.748,1.34033,-155.544,232
1565023400,325.487,29.8028,-16.7432,178.748,1.34033,-155.544,232
1565023400,325.487,29.8028,-16.7432,178.748,1.34033,-155.544,232
1565023400,325.487,29.8028,-16.7432,178.748,1.34033,-155.544,232
1565023400,325.487,29.8028,-16.7432,178.748,1.34033,-155.544,228
1565023400,325.487,29.8028,-16.7432,178.748,1.34033,-155.544,228
1565023400,325.487,29.8028,-16.7432,178.748,1.34033,-155.544,228
1565023400,325.487,29.8028,-16.7432,178.748,1.34033,-155.544,228
1565023400,325.487,29.8028,-16.7432,178.748,1.34033,-155.544,228
1565023401,325.487,29.8028,-16.7432,178.748,1.34033,-155.544,228
1565023401,325.487,29.8028,-16.7432,178.748,1.34033,-155.522,224
1565023401,325.487,29.8028,-16.7432,178.748,1.31836,-155.522,224
1565023401,325.487,29.8028,-16.7432,178.748,1.31836,-155.522,224
1565023401,325.487,29.8028,-16.7432,178.748,1.31836,-155.522,224
1565023401,325.487,29.8028,-16.7432,178.748,1.31836,-155.522,224
1565023401,325.487,29.8028,-16.7432,178.748,1.31836,-155.522,224
1565023401,325.487,29.8028,-16.7432,178.748,1.31836,-155.522,224
1565023401,325.487,29.8028,-16.7432,178.748,1.31836,-155.522,224
1565023401,325.487,29.8028,-16.7432,178.748,1.31836,-155.522,224
1565023401,325.487,29.8028,-16.7432,178.748,1.31836,-155.522,224
1565023401,325.487,29.8028,-16.7432,178.748,1.31836,-155.522,224
1565023401,325.487,29.8028,-16.7432,178.748,1.31836,-155.522,224
1565023401,325.487,29.8028,-16.7432,178.748,1.31836,-155.522,224
1565023401,325.487,29.8028,-16.7432,178.748,1.31836,-155.522,224
1565023401,325.487,29.8028,-16.7432,178.748,1.31836,-155.522,224
1565023401,325.487,29.8028,-16.8548,178.748,1.31836,-155.522,224
1565023401,325.487,29.8028,-16.8548,178.748,1.31836,-155.544,224
1565023401,325.487,29.8028,-16.8548,178.748,1.31836,-155.522,224
1565023401,325.487,29.8028,-16.8548,178.748,1.31836,-155.522,224
1565023401,325.487,29.8028,-16.8548,178.748,1.29639,-155.522,228
1565023401,325.487,29.8028,-16.8548,178.748,1.29639,-155.522,228
1565023401,325.487,29.8028,-16.8548,178.748,1.29639,-155.522,228
1565023401,325.487,29.8028,-16.8548,178.748,1.29639,-155.522,228
1565023401,325.487,29.8028,-16.8548,178.748,1.29639,-155.522,228
1565023401,325.487,29.8028,-16.8548,178.748,1.29639,-155.522,228
1565023401,325.487,29.8028,-16.8548,178.748,1.29639,-155.522,228
1565023401,325.487,29.8028,-16.8548,178.748,1.29639,-155.522,232
1565023401,325.487,29.8028,-16.8548,178.748,1.29639,-155.522,232
1565023401,325.487,29.8028,-16.8548,178.748,1.29639,-155.522,232
1565023401,325.487,29.8028,-16.8548,178.748,1.29639,-155.522,232
1565023401,325.487,29.8028,-16.8548,178.748,1.29639,-155.522,232
1565023401,325.487,29.8028,-16.8548,178.748,1.29639,-155.544,232
1565023401,325.487,29.8028,-16.8548,178.748,1.29639,-155.544,232
1565023401,325.487,29.8028,-16.8548,178.77,1.29639,-155.544,232
1565023401,325.487,29.8028,-16.8548,178.77,1.29639,-155.544,236
1565023401,325.487,29.8028,-16.8548,178.77,1.29639,-155.544,236
1565023401,325.487,29.8028,-16.8548,178.77,1.29639,-155.544,236
1565023401,325.487,29.8028,-16.8548,178.77,1.29639,-155.544,236
1565023401,325.487,29.8028,-16.8548,178.77,1.29639,-155.544,236
1565023401,325.487,29.8028,-16.8548,178.748,1.29639,-155.544,236
1565023401,325.487,29.8028,-16.8548,178.748,1.29639,-155.544,236
1565023401,325.487,29.8028,-16.8548,178.748,1.29639,-155.544,236
1565023401,325.487,29.8028,-16.8548,178.748,1.29639,-155.544,236
1565023401,325.487,29.8028,-16.8548,178.748,1.31836,-155.544,236
1565023401,325.487,29.8028,-16.8548,178.748,1.31836,-155.544,240
1565023401,325.487,29.8028,-16.7432,178.748,1.31836,-155.544,240
1565023401,325.487,29.8028,-16.7432,178.748,1.31836,-155.544,240
1565023401,325.487,29.8028,-16.7432,178.748,1.31836,-155.522,240
1565023401,325.487,29.8028,-16.7432,178.748,1.31836,-155.522,240
1565023401,325.487,29.8028,-16.7432,178.748,1.31836,-155.522,240
1565023401,325.487,29.8028,-16.7432,178.748,1.31836,-155.522,240
1565023401,325.487,29.8028,-16.7432,178.748,1.31836,-155.522,244
1565023401,325.487,29.8028,-16.7432,178.748,1.31836,-155.522,244
1565023401,325.487,29.8028,-16.7432,178.748,1.31836,-155.544,244
1565023401,325.487,29.8028,-16.7432,178.77,1.31836,-155.544,244
1565023401,325.487,29.8028,-16.7432,178.77,1.31836,-155.544,244
1565023401,325.487,29.8028,-16.7432,178.77,1.31836,-155.544,244
1565023401,325.487,29.8028,-16.7432,178.77,1.31836,-155.544,244
1565023401,325.487,29.8028,-16.7432,178.77,1.31836,-155.544,244
1565023401,325.487,29.8028,-16.7432,178.77,1.31836,-155.544,244
1565023401,325.487,29.8028,-16.7432,178.77,1.31836,-155.544,244
1565023401,325.487,29.8028,-16.7432,178.77,1.31836,-155.544,244
1565023401,325.487,29.8028,-16.7432,178.77,1.31836,-155.544,244
1565023401,325.487,29.8028,-16.7432,178.77,1.31836,-155.544,244
1565023401,325.487,29.8028,-16.7432,178.77,1.31836,-155.544,244
1565023401,325.487,29.8028,-16.7432,178.77,1.31836,-155.544,244
1565023401,325.487,29.8028,-16.7432,178.77,1.31836,-155.544,244
1565023401,325.487,29.8028,-16.7432,178.77,1.31836,-155.544,244
1565023401,325.487,29.8028,-16.7432,178.77,1.31836,-155.544,244
1565023401,325.487,29.8028,-16.7432,178.77,1.31836,-155.544,240
1565023401,325.487,29.8028,-16.7432,178.77,1.31836,-155.544,240
1565023401,325.487,29.8028,-16.7432,178.77,1.31836,-155.544,240
1565023401,325.487,29.8028,-16.7432,178.77,1.34033,-155.544,240
1565023401,325.487,29.8028,-16.7432,178.748,1.34033,-155.544,240
1565023401,325.487,29.8028,-16.7432,178.748,1.34033,-155.544,236
1565023401,325.487,29.8028,-16.7432,178.748,1.34033,-155.544,236
1565023401,325.487,29.8028,-16.7432,178.748,1.34033,-155.544,236
1565023401,325.487,29.8028,-16.7432,178.748,1.34033,-155.544,236
1565023401,325.487,29.8028,-16.7432,178.748,1.34033,-155.544,236
1565023401,325.487,29.8028,-16.7432,178.748,1.34033,-155.544,232
1565023401,325.487,29.8028,-16.7432,178.748,1.31836,-155.544,232
1565023401,325.487,29.8028,-16.7432,178.748,1.31836,-155.544,232
1565023401,325.487,29.8028,-16.7432,178.748,1.31836,-155.544,232
1565023401,325.487,29.8028,-16.7432,178.748,1.31836,-155.522,232
1565023401,325.487,29.8028,-16.7432,178.748,1.31836,-155.522,232
1565023401,325.487,29.8028,-16.7432,178.748,1.31836,-155.522,232
1565023401,325.487,29.8028,-16.7432,178.748,1.31836,-155.522,232
1565023401,325.487,29.8028,-16.7432,178.748,1.31836,-155.522,232
1565023401,325.487,29.8028,-16.7432,178.748,1.31836,-155.522,232
1565023401,325.487,29.8028,-16.7432,178.748,1.31836,-155.522,232
1565023401,325.487,29.8028,-16.7432,178.748,1.31836,-155.522,232
1565023401,325.487,29.8028,-16.7432,178.77,1.31836,-155.522,228
1565023401,325.487,29.8028,-16.7432,178.77,1.31836,-155.522,228
1565023401,325.487,29.8028,-16.7432,178.77,1.31836,-155.522,228
1565023401,325.487,29.8028,-16.7432,178.77,1.31836,-155.522,228
1565023401,325.487,29.8028,-16.7432,178.77,1.31836,-155.522,228
1565023401,325.487,29.8028,-16.8548,178.77,1.31836,-155.544,228
1565023401,325.487,29.8028,-16.8548,178.77,1.31836,-155.544,228
1565023401,325.487,29.8028,-16.8548,178.77,1.31836,-155.544,228
1565023402,325.487,29.8028,-16.8548,178.77,1.31836,-155.544,228
1565023402,325.487,29.8028,-16.8548,178.77,1.31836,-155.544,228
1565023402,325.487,29.8028,-16.8548,178.77,1.31836,-155.544,228
1565023402,325.487,29.8028,-16.8548,178.77,1.31836,-155.544,228
1565023402,325.487,29.8028,-16.8548,178.748,1.31836,-155.544,228
1565023402,325.487,29.8028,-16.8548,178.748,1.31836,-155.544,228
1565023402,325.487,29.8028,-16.8548,178.748,1.31836,-155.544,228
1565023402,325.487,29.8028,-16.8548,178.748,1.31836,-155.544,228
1565023402,325.487,29.8028,-16.8548,178.748,1.31836,-155.544,228
1565023402,325.487,29.8028,-16.8548,178.748,1.31836,-155.522,228
1565023402,325.487,29.8028,-16.8548,178.748,1.31836,-155.522,228
1565023402,325.487,29.8028,-16.8548,178.748,1.31836,-155.522,224
1565023402,325.487,29.8028,-16.8548,178.748,1.29639,-155.522,224
1565023402,325.487,29.8028,-16.8548,178.748,1.29639,-155.522,224
1565023402,325.487,29.8028,-16.8548,178.748,1.29639,-155.522,224
1565023402,325.487,29.8028,-16.8548,178.748,1.29639,-155.522,224
1565023402,325.487,29.8028,-16.8548,178.748,1.29639,-155.522,228
1565023402,325.487,29.8028,-16.8548,178.748,1.29639,-155.522,228
1565023402,325.487,29.8028,-16.8548,178.748,1.29639,-155.522,228
1565023402,325.487,29.8028,-16.8548,178.748,1.29639,-155.522,228
1565023402,325.487,29.8028,-16.8548,178.748,1.29639,-155.522,228
1565023402,325.487,29.8028,-16.8548,178.748,1.29639,-155.522,228
1565023402,325.487,29.8028,-16.8548,178.748,1.29639,-155.522,228
1565023402,325.487,29.8028,-16.8548,178.748,1.29639,-155.522,228
1565023402,325.487,29.8028,-16.8548,178.748,1.29639,-155.522,228
1565023402,325.487,29.8028,-16.8548,178.748,1.29639,-155.522,228
1565023402,325.487,29.8028,-16.8548,178.748,1.29639,-155.522,228
1565023402,325.487,29.8028,-16.8548,178.748,1.29639,-155.522,228
1565023402,325.487,29.8028,-16.8548,178.748,1.29639,-155.522,228
1565023402,325.487,29.8028,-16.8548,178.748,1.29639,-155.522,228
1565023402,325.487,29.8028,-16.8548,178.748,1.29639,-155.522,228
1565023402,325.487,29.8028,-16.8548,178.748,1.31836,-155.522,228
1565023402,325.487,29.8028,-16.8548,178.748,1.31836,-155.522,228
1565023402,325.487,29.8028,-16.8548,178.748,1.31836,-155.522,228
1565023402,325.487,29.8028,-16.8548,178.748,1.31836,-155.522,228
1565023402,325.487,29.8028,-16.8548,178.77,1.31836,-155.522,228
1565023402,325.487,29.8028,-16.7432,178.77,1.31836,-155.522,232
1565023402,325.487,29.8028,-16.7432,178.77,1.31836,-155.544,232
1565023402,325.487,29.8028,-16.7432,178.77,1.31836,-155.544,232
1565023402,325.375,29.8028,-16.7432,178.77,1.31836,-155.544,232
1565023402,325.375,29.8028,-16.7432,178.748,1.31836,-155.544,232
1565023402,325.375,29.8028,-16.7432,178.748,1.31836,-155.544,232
1565023402,325.375,29.8028,-16.7432,178.748,1.31836,-155.544,232
1565023402,325.375,29.8028,-16.7432,178.748,1.31836,-155.544,232
1565023402,325.375,29.8028,-16.7432,178.748,1.31836,-155.544,232
1565023402,325.375,29.8028,-16.7432,178.748,1.31836,-155.544,236
1565023402,325.375,29.8028,-16.7432,178.748,1.31836,-155.544,236
1565023402,325.375,29.8028,-16.7432,178.748,1.31836,-155.544,236
1565023402,325.375,29.8028,-16.7432,178.748,1.31836,-155.544,236
1565023402,325.375,29.8028,-16.7432,178.748,1.31836,-155.544,236
1565023402,325.375,29.8028,-16.7432,178.748,1.31836,-155.544,236
1565023402,325.375,29.8028,-16.8548,178.748,1.31836,-155.544,240
1565023402,325.375,29.8028,-16.8548,178.748,1.31836,-155.544,240
1565023402,325.375,29.8028,-16.8548,178.748,1.31836,-155.522,240
1565023402,325.375,29.8028,-16.8548,178.748,1.31836,-155.522,240
1565023402,325.375,29.8028,-16.8548,178.77,1.31836,-155.522,240
1565023402,325.375,29.8028,-16.8548,178.77,1.31836,-155.522,240
1565023402,325.375,29.8028,-16.8548,178.77,1.31836,-155.522,244
1565023402,325.375,29.8028,-16.8548,178.77,1.31836,-155.522,244
1565023402,325.375,29.8028,-16.8548,178.77,1.31836,-155.522,244
1565023402,325.375,29.8028,-16.8548,178.77,1.31836,-155.522,244
1565023402,325.375,29.8028,-16.8548,178.77,1.31836,-155.522,244
1565023402,325.375,29.8028,-16.8548,178.77,1.31836,-155.522,244
1565023402,325.375,29.8028,-16.8548,178.77,1.31836,-155.522,244
1565023402,325.375,29.8028,-16.8548,178.77,1.31836,-155.522,244
1565023402,325.375,29.8028,-16.8548,178.77,1.31836,-155.522,244
1565023402,325.375,29.8028,-16.8548,178.77,1.31836,-155.544,244
1565023402,325.375,29.8028,-16.8548,178.748,1.31836,-155.544,244
1565023402,325.375,29.8028,-16.8548,178.748,1.31836,-155.544,244
1565023402,325.375,29.8028,-16.8548,178.748,1.31836,-155.544,244
1565023402,325.375,29.8028,-16.8548,178.748,1.31836,-155.544,240
1565023402,325.375,29.8028,-16.7432,178.748,1.31836,-155.544,240
1565023402,325.487,29.8028,-16.7432,178.748,1.31836,-155.544,240
1565023402,325.487,29.8028,-16.7432,178.748,1.31836,-155.544,240
1565023402,325.487,29.8028,-16.7432,178.748,1.31836,-155.544,240
1565023402,325.375,29.8028,-16.7432,178.748,1.31836,-155.544,240
1565023402,325.375,29.8028,-16.7432,178.748,1.31836,-155.544,240
1565023402,325.375,29.8028,-16.7432,178.748,1.31836,-155.544,240
1565023402,325.375,29.8028,-16.7432,178.748,1.31836,-155.544,240
1565023402,325.487,29.8028,-16.7432,178.748,1.31836,-155.544,240
1565023402,325.487,29.8028,-16.7432,178.748,1.31836,-155.544,240
1565023402,325.487,29.8028,-16.7432,178.748,1.31836,-155.544,240
1565023402,325.487,29.8028,-16.7432,178.748,1.31836,-155.544,240
1565023402,325.487,29.8028,-16.7432,178.748,1.31836,-155.544,240
1565023402,325.487,29.8028,-16.7432,178.748,1.31836,-155.544,240
1565023402,325.487,29.8028,-16.7432,178.748,1.31836,-155.544,240
1565023402,325.487,29.8028,-16.7432,178.748,1.31836,-155.544,240
1565023402,325.487,29.8028,-16.7432,178.748,1.31836,-155.544,236
1565023402,325.487,29.8028,-16.7432,178.748,1.31836,-155.544,236
1565023402,325.487,29.6912,-16.7432,178.726,1.31836,-155.544,236
1565023402,325.487,29.6912,-16.7432,178.726,1.31836,-155.544,236
1565023402,325.487,29.6912,-16.7432,178.726,1.31836,-155.544,236
1565023402,325.487,29.6912,-16.7432,178.726,1.31836,-155.544,236
1565023402,325.487,29.6912,-16.7432,178.726,1.31836,-155.544,236
1565023402,325.487,29.6912,-16.7432,178.726,1.31836,-155.544,236
1565023402,325.487,29.6912,-16.7432,178.726,1.31836,-155.544,236
1565023402,325.487,29.6912,-16.7432,178.726,1.31836,-155.544,236
1565023402,325.487,29.6912,-16.7432,178.726,1.31836,-155.544,236
1565023402,325.487,29.6912,-16.7432,178.726,1.31836,-155.544,236
1565023402,325.487,29.6912,-16.7432,178.748,1.31836,-155.544,236
1565023403,325.487,29.8028,-16.7432,178.748,1.31836,-155.544,236
1565023403,325.487,29.8028,-16.7432,178.748,1.31836,-155.544,236
1565023403,325.487,29.8028,-16.7432,178.748,1.31836,-155.544,236
1565023403,325.487,29.8028,-16.7432,178.748,1.31836,-155.544,236
1565023403,325.487,29.8028,-16.7432,178.748,1.31836,-155.544,236
1565023403,325.487,29.8028,-16.7432,178.748,1.31836,-155.544,236
1565023403,325.487,29.8028,-16.7432,178.748,1.31836,-155.544,236
1565023403,325.487,29.8028,-16.8548,178.748,1.31836,-155.544,236
1565023403,325.487,29.8028,-16.8548,178.748,1.31836,-155.544,236
1565023403,325.487,29.8028,-16.7432,178.748,1.31836,-155.544,236
1565023403,325.487,29.8028,-16.7432,178.748,1.31836,-155.544,236
1565023403,325.487,29.8028,-16.7432,178.748,1.31836,-155.544,236
1565023403,325.487,29.8028,-16.7432,178.748,1.31836,-155.544,236
1565023403,325.487,29.8028,-16.7432,178.77,1.31836,-155.544,236
1565023403,325.487,29.8028,-16.7432,178.77,1.31836,-155.544,232
1565023416,341.002,13.5062,-16.6315,178.879,1.3623,-155.171,256
1565023416,341.002,13.5062,-16.6315,178.879,1.3623,-155.171,256
1565023416,341.002,13.5062,-16.6315,178.879,1.3623,-155.171,256
1565023416,341.002,13.5062,-16.6315,178.879,1.3623,-155.171,256
1565023416,341.002,13.5062,-16.6315,178.879,1.3623,-155.171,252
1565023416,341.002,13.5062,-16.6315,178.879,1.3623,-155.171,252
1565023416,341.002,13.5062,-16.6315,178.879,1.3623,-155.171,252
1565023416,341.002,13.5062,-16.6315,178.879,1.3623,-155.171,252
1565023416,341.002,13.5062,-16.6315,178.879,1.3623,-155.171,252
1565023416,341.002,13.5062,-16.6315,178.879,1.3623,-155.193,252
1565023416,341.002,13.5062,-16.6315,178.879,1.3623,-155.193,248
1565023416,341.002,13.5062,-16.6315,178.879,1.3623,-155.193,248
1565023416,340.891,13.5062,-16.6315,178.879,1.3623,-155.193,248
1565023416,341.002,13.5062,-16.6315,178.879,1.3623,-155.193,248
1565023416,341.002,13.5062,-16.6315,178.879,1.3623,-155.193,248
1565023416,341.002,13.5062,-16.6315,178.879,1.34033,-155.193,248
1565023416,341.002,13.5062,-16.6315,178.879,1.34033,-155.193,248
1565023416,341.002,13.5062,-16.6315,178.857,1.34033,-155.193,248
1565023416,341.002,13.3945,-16.6315,178.857,1.34033,-155.193,248
1565023416,340.891,13.3945,-16.7432,178.857,1.34033,-155.193,248
1565023416,340.891,13.3945,-16.7432,178.857,1.34033,-155.193,248
1565023416,340.891,13.3945,-16.7432,178.857,1.34033,-155.193,248
1565023416,340.891,13.5062,-16.7432,178.857,1.34033,-155.193,248
1565023416,340.891,13.5062,-16.7432,178.879,1.34033,-155.193,244
1565023416,340.891,13.5062,-16.7432,178.879,1.34033,-155.193,244
1565023416,340.891,13.5062,-16.7432,178.879,1.34033,-155.193,244
1565023416,340.891,13.5062,-16.7432,178.879,1.34033,-155.193,244
1565023416,340.891,13.5062,-16.7432,178.879,1.34033,-155.193,244
1565023416,340.891,13.5062,-16.7432,178.879,1.34033,-155.193,244
1565023416,340.891,13.5062,-16.7432,178.879,1.34033,-155.193,244
1565023416,340.891,13.5062,-16.7432,178.879,1.34033,-155.193,244
1565023416,340.891,13.5062,-16.7432,178.879,1.34033,-155.171,244
1565023416,340.891,13.5062,-16.7432,178.879,1.34033,-155.171,248
1565023416,340.891,13.5062,-16.7432,178.879,1.34033,-155.171,248
1565023416,340.891,13.5062,-16.7432,178.879,1.34033,-155.171,248
1565023416,340.891,13.5062,-16.7432,178.879,1.34033,-155.171,248
1565023416,340.891,13.5062,-16.7432,178.879,1.34033,-155.171,248
1565023416,340.891,13.5062,-16.7432,178.879,1.34033,-155.171,248
1565023416,340.891,13.5062,-16.7432,178.879,1.34033,-155.171,248
1565023416,340.891,13.5062,-16.7432,178.879,1.34033,-155.171,248
1565023416,340.891,13.5062,-16.7432,178.879,1.34033,-155.171,248
1565023416,340.891,13.5062,-16.7432,178.879,1.34033,-155.171,248
1565023416,340.891,13.5062,-16.7432,178.879,1.34033,-155.171,252
1565023416,340.891,13.5062,-16.7432,178.879,1.34033,-155.171,252
1565023416,340.891,13.5062,-16.7432,178.879,1.34033,-155.171,252
1565023416,340.891,13.5062,-16.7432,178.857,1.34033,-155.171,252
1565023416,340.891,13.5062,-16.7432,178.857,1.34033,-155.193,252
1565023416,340.891,13.5062,-16.7432,178.857,1.34033,-155.193,252
1565023416,340.891,13.5062,-16.7432,178.857,1.34033,-155.193,252
1565023416,340.891,13.5062,-16.7432,178.857,1.34033,-155.193,252
1565023416,340.891,13.5062,-16.7432,178.857,1.34033,-155.193,252
1565023416,340.891,13.5062,-16.7432,178.857,1.34033,-155.193,252
1565023416,340.891,13.5062,-16.7432,178.857,1.34033,-155.193,252
1565023416,340.891,13.5062,-16.7432,178.857,1.34033,-155.193,252
1565023416,340.891,13.5062,-16.7432,178.857,1.34033,-155.193,252
1565023416,341.002,13.5062,-16.7432,178.857,1.34033,-155.193,252
1565023416,341.002,13.5062,-16.7432,178.857,1.34033,-155.193,252
1565023416,341.002,13.3945,-16.7432,178.857,1.34033,-155.193,252
1565023416,341.002,13.3945,-16.7432,178.857,1.34033,-155.193,252
1565023417,341.002,13.3945,-16.7432,178.857,1.34033,-155.193,252
1565023417,341.002,13.3945,-16.7432,178.857,1.34033,-155.171,252
1565023417,341.002,13.3945,-16.7432,178.857,1.34033,-155.171,252
1565023417,341.002,13.5062,-16.7432,178.857,1.31836,-155.171,252
1565023417,341.002,13.5062,-16.7432,178.857,1.31836,-155.171,252
1565023417,341.002,13.5062,-16.7432,178.857,1.31836,-155.171,252
1565023417,340.891,13.5062,-16.7432,178.857,1.31836,-155.171,252
1565023417,340.891,13.3945,-16.7432,178.857,1.31836,-155.171,252
1565023417,340.891,13.3945,-16.7432,178.857,1.31836,-155.171,252
1565023417,340.891,13.3945,-16.7432,178.857,1.31836,-155.171,252
1565023417,340.891,13.3945,-16.7432,178.857,1.31836,-155.171,252
1565023417,340.891,13.3945,-16.8548,178.857,1.31836,-155.171,252
1565023417,340.891,13.3945,-16.7432,178.857,1.31836,-155.171,252
1565023417,340.891,13.3945,-16.7432,178.857,1.31836,-155.171,252
1565023417,340.891,13.3945,-16.7432,178.857,1.31836,-155.171,252
1565023417,341.002,13.3945,-16.7432,178.857,1.31836,-155.171,248
1565023417,341.002,13.3945,-16.7432,178.857,1.31836,-155.171,248
1565023417,341.002,13.3945,-16.7432,178.857,1.31836,-155.171,248
1565023417,341.002,13.3945,-16.7432,178.857,1.31836,-155.171,248
1565023417,341.002,13.3945,-16.7432,178.857,1.31836,-155.171,244
1565023417,341.002,13.5062,-16.7432,178.857,1.31836,-155.171,244
1565023417,341.002,13.5062,-16.7432,178.857,1.31836,-155.171,244
1565023417,341.002,13.5062,-16.7432,178.879,1.31836,-155.171,244
1565023417,341.002,13.5062,-16.7432,178.879,1.31836,-155.171,244
1565023417,341.002,13.5062,-16.7432,178.879,1.31836,-155.171,244
1565023417,341.002,13.5062,-16.7432,178.879,1.31836,-155.171,240
1565023417,341.002,13.5062,-16.7432,178.879,1.31836,-155.171,240
1565023417,341.002,13.5062,-16.7432,178.879,1.31836,-155.171,240
1565023417,341.002,13.5062,-16.7432,178.879,1.31836,-155.171,240
1565023417,341.002,13.5062,-16.7432,178.879,1.31836,-155.171,240
1565023417,341.002,13.5062,-16.7432,178.879,1.31836,-155.171,240
1565023417,341.002,13.5062,-16.7432,178.879,1.31836,-155.171,240
1565023417,341.002,13.5062,-16.7432,178.879,1.34033,-155.171,240
1565023417,341.002,13.5062,-16.7432,178.857,1.34033,-155.171,240
1565023417,341.002,13.5062,-16.7432,178.857,1.34033,-155.193,240
1565023417,341.002,13.5062,-16.7432,178.857,1.34033,-155.193,240
1565023417,341.002,13.5062,-16.7432,178.857,1.34033,-155.193,240
1565023417,341.002,13.5062,-16.7432,178.857,1.34033,-155.193,240
1565023417,341.002,13.5062,-16.7432,178.857,1.34033,-155.193,236
1565023417,341.002,13.3945,-16.7432,178.857,1.34033,-155.193,236
1565023417,341.002,13.3945,-16.7432,178.857,1.34033,-155.193,236
1565023417,341.002,13.3945,-16.7432,178.857,1.34033,-155.193,236
1565023417,341.002,13.3945,-16.7432,178.857,1.34033,-155.193,236
1565023417,341.002,13.3945,-16.7432,178.857,1.34033,-155.193,236
1565023417,341.002,13.3945,-16.7432,178.857,1.34033,-155.193,236
1565023417,341.002,13.3945,-16.7432,178.857,1.34033,-155.193,236
1565023417,341.002,13.3945,-16.7432,178.857,1.34033,-155.193,236
1565023417,341.002,13.3945,-16.7432,178.857,1.34033,-155.193,236
1565023417,341.002,13.3945,-16.7432,178.857,1.34033,-155.193,236
1565023417,341.002,13.3945,-16.7432,178.835,1.34033,-155.193,236
1565023417,341.002,13.3945,-16.7432,178.835,1.34033,-155.193,236
1565023417,341.002,13.3945,-16.7432,178.835,1.34033,-155.193,240
1565023417,341.002,13.3945,-16.7432,178.835,1.34033,-155.193,240
1565023417,341.002,13.3945,-16.7432,178.835,1.34033,-155.193,240
1565023417,341.002,13.3945,-16.7432,178.835,1.34033,-155.193,240
1565023417,341.002,13.3945,-16.7432,178.835,1.34033,-155.193,240
1565023417,341.002,13.3945,-16.7432,178.835,1.34033,-155.193,240
1565023417,341.002,13.3945,-16.6315,178.835,1.34033,-155.193,240
1565023417,341.002,13.3945,-16.6315,178.835,1.34033,-155.193,240
1565023417,341.002,13.3945,-16.6315,178.835,1.34033,-155.193,240
1565023417,341.002,13.3945,-16.7432,178.835,1.34033,-155.193,240
1565023417,341.002,13.3945,-16.7432,178.835,1.34033,-155.193,240
1565023417,341.002,13.3945,-16.7432,178.835,1.34033,-155.193,240
1565023417,341.002,13.3945,-16.7432,178.835,1.34033,-155.193,240
1565023417,341.002,13.3945,-16.7432,178.835,1.34033,-155.193,240
1565023417,341.002,13.3945,-16.7432,178.835,1.34033,-155.193,244
1565023417,341.002,13.3945,-16.7432,178.835,1.34033,-155.193,244
1565023417,341.002,13.3945,-16.7432,178.835,1.34033,-155.193,244
1565023417,341.002,13.3945,-16.7432,178.835,1.34033,-155.193,240
1565023417,341.002,13.3945,-16.7432,178.835,1.34033,-155.193,240
1565023417,341.002,13.3945,-16.7432,178.835,1.34033,-155.193,240
1565023417,341.002,13.3945,-16.7432,178.835,1.34033,-155.193,240
1565023417,341.002,13.3945,-16.7432,178.835,1.34033,-155.193,240
1565023417,341.002,13.3945,-16.7432,178.835,1.34033,-155.171,240
1565023417,341.002,13.3945,-16.7432,178.835,1.34033,-155.171,240
1565023417,341.002,13.3945,-16.7432,178.835,1.34033,-155.171,240
1565023417,341.002,13.3945,-16.7432,178.835,1.34033,-155.171,240
1565023417,341.002,13.3945,-16.7432,178.835,1.34033,-155.171,244
1565023417,341.002,13.3945,-16.7432,178.835,1.34033,-155.171,244
1565023417,341.002,13.3945,-16.7432,178.835,1.34033,-155.171,244
1565023417,341.002,13.3945,-16.7432,178.835,1.34033,-155.171,244
1565023417,341.002,13.3945,-16.7432,178.835,1.34033,-155.193,244
1565023417,341.002,13.3945,-16.7432,178.835,1.34033,-155.193,244
1565023417,341.002,13.3945,-16.7432,178.835,1.34033,-155.193,244
1565023417,341.002,13.3945,-16.7432,178.835,1.34033,-155.193,244
1565023417,341.002,13.3945,-16.7432,178.835,1.34033,-155.193,244
1565023417,341.002,13.3945,-16.7432,178.835,1.34033,-155.193,244
1565023417,341.002,13.3945,-16.7432,178.835,1.34033,-155.193,244
1565023417,341.002,13.3945,-16.7432,178.835,1.34033,-155.193,244
1565023417,341.002,13.3945,-16.7432,178.835,1.34033,-155.193,244
1565023417,341.002,13.3945,-16.7432,178.835,1.34033,-155.193,244
1565023417,341.002,13.3945,-16.7432,178.835,1.34033,-155.193,244
1565023417,341.002,13.3945,-16.7432,178.835,1.34033,-155.193,244
1565023417,341.002,13.3945,-16.7432,178.835,1.34033,-155.193,244
1565023417,341.002,13.3945,-16.7432,178.835,1.34033,-155.193,244
1565023417,341.002,13.3945,-16.7432,178.835,1.34033,-155.193,244
1565023417,341.002,13.3945,-16.7432,178.835,1.34033,-155.193,244
1565023417,341.002,13.3945,-16.7432,178.835,1.34033,-155.193,244
1565023417,341.002,13.3945,-16.6315,178.835,1.34033,-155.193,244
1565023417,341.002,13.3945,-16.6315,178.835,1.34033,-155.193,244
1565023418,341.002,13.3945,-16.6315,178.835,1.34033,-155.193,244
1565023418,341.002,13.3945,-16.6315,178.835,1.34033,-155.193,244
1565023418,341.002,13.3945,-16.6315,178.835,1.34033,-155.171,244
1565023418,341.002,13.3945,-16.6315,178.835,1.34033,-155.171,244
1565023418,341.002,13.3945,-16.6315,178.835,1.34033,-155.171,244
1565023418,341.002,13.3945,-16.6315,178.835,1.34033,-155.171,244
1565023418,341.002,13.3945,-16.6315,178.835,1.34033,-155.171,244
1565023418,341.002,13.3945,-16.7432,178.835,1.34033,-155.171,244
1565023418,341.002,13.3945,-16.7432,178.835,1.34033,-155.171,244
1565023418,341.002,13.3945,-16.7432,178.835,1.34033,-155.171,244
1565023418,341.002,13.3945,-16.6315,178.835,1.34033,-155.171,244
1565023418,341.002,13.3945,-16.6315,178.835,1.34033,-155.171,240
1565023418,341.002,13.3945,-16.6315,178.835,1.34033,-155.171,240
1565023418,341.002,13.3945,-16.6315,178.835,1.34033,-155.171,240
1565023418,341.002,13.3945,-16.6315,178.835,1.34033,-155.171,240
1565023418,341.002,13.3945,-16.6315,178.835,1.34033,-155.171,240
1565023418,341.002,13.3945,-16.6315,178.835,1.34033,-155.171,240
1565023418,341.002,13.3945,-16.6315,178.835,1.34033,-155.171,240
1565023418,341.002,13.3945,-16.6315,178.857,1.34033,-155.171,240
1565023418,341.002,13.3945,-16.6315,178.857,1.34033,-155.171,240
1565023418,341.002,13.3945,-16.6315,178.857,1.34033,-155.171,240
1565023418,341.002,13.3945,-16.6315,178.857,1.34033,-155.171,240
1565023418,341.002,13.3945,-16.6315,178.857,1.34033,-155.171,240
1565023418,341.002,13.5062,-16.7432,178.857,1.34033,-155.171,240
1565023418,341.002,13.5062,-16.7432,178.857,1.34033,-155.171,236
1565023418,341.002,13.5062,-16.7432,178.857,1.34033,-155.171,236
1565023418,341.002,13.5062,-16.7432,178.857,1.34033,-155.171,236
1565023418,341.002,13.5062,-16.7432,178.857,1.34033,-155.171,236
1565023418,341.002,13.5062,-16.7432,178.879,1.34033,-155.171,236
1565023418,341.002,13.5062,-16.7432,178.879,1.34033,-155.171,236
1565023418,341.002,13.5062,-16.7432,178.879,1.34033,-155.171,236
1565023418,341.002,13.5062,-16.7432,178.879,1.34033,-155.171,236
1565023418,341.002,13.5062,-16.7432,178.879,1.34033,-155.171,236
1565023418,341.002,13.5062,-16.7432,178.879,1.34033,-155.171,236
1565023418,341.002,13.5062,-16.7432,178.879,1.34033,-155.171,236
1565023418,341.002,13.5062,-16.7432,178.879,1.34033,-155.171,236
1565023418,341.002,13.5062,-16.7432,178.879,1.34033,-155.171,236
1565023418,341.002,13.5062,-16.7432,178.879,1.34033,-155.171,236
1565023418,341.002,13.5062,-16.7432,178.879,1.34033,-155.171,236
1565023418,341.002,13.5062,-16.7432,178.879,1.34033,-155.171,240
1565023418,341.002,13.5062,-16.7432,178.879,1.34033,-155.171,240
1565023418,340.891,13.5062,-16.7432,178.879,1.34033,-155.171,240
1565023418,340.891,13.5062,-16.7432,178.879,1.34033,-155.171,240
1565023418,340.891,13.5062,-16.7432,178.879,1.34033,-155.171,240
1565023418,340.891,13.5062,-16.7432,178.879,1.31836,-155.171,240
1565023418,340.891,13.5062,-16.7432,178.879,1.31836,-155.171,240
1565023418,340.891,13.5062,-16.7432,178.879,1.31836,-155.171,244
1565023418,340.891,13.5062,-16.7432,178.857,1.31836,-155.171,244
1565023418,340.891,13.5062,-16.7432,178.857,1.31836,-155.171,244
1565023418,340.891,13.5062,-16.7432,178.879,1.31836,-155.171,244
1565023418,340.891,13.5062,-16.7432,178.879,1.31836,-155.171,244
1565023418,340.891,13.5062,-16.7432,178.879,1.31836,-155.171,244
1565023418,340.891,13.5062,-16.7432,178.879,1.31836,-155.193,244
1565023418,340.891,13.5062,-16.7432,178.879,1.31836,-155.193,244
1565023418,340.891,13.5062,-16.7432,178.879,1.31836,-155.193,244
1565023418,340.891,13.5062,-16.7432,178.879,1.34033,-155.193,244
1565023418,340.891,13.5062,-16.7432,178.879,1.34033,-155.193,244
1565023418,340.891,13.5062,-16.7432,178.879,1.34033,-155.193,244
1565023418,340.891,13.5062,-16.7432,178.857,1.34033,-155.193,248
1565023418,340.891,13.5062,-16.7432,178.857,1.34033,-155.193,248
1565023418,340.891,13.5062,-16.7432,178.857,1.34033,-155.193,248
1565023418,340.891,13.5062,-16.7432,178.857,1.34033,-155.193,248
1565023418,340.891,13.5062,-16.7432,178.857,1.34033,-155.193,248
1565023418,340.891,13.5062,-16.7432,178.879,1.34033,-155.193,248
1565023418,340.891,13.5062,-16.7432,178.879,1.34033,-155.193,248
1565023418,340.891,13.5062,-16.7432,178.879,1.34033,-155.193,252
1565023418,340.891,13.5062,-16.7432,178.879,1.34033,-155.193,252
1565023418,340.891,13.5062,-16.7432,178.879,1.34033,-155.193,252
1565023418,340.891,13.5062,-16.7432,178.879,1.34033,-155.193,252
1565023418,340.891,13.5062,-16.7432,178.879,1.34033,-155.193,252
1565023418,340.891,13.5062,-16.7432,178.879,1.34033,-155.193,252
1565023418,340.891,13.5062,-16.7432,178.879,1.34033,-155.193,252
1565023418,340.891,13.5062,-16.7432,178.879,1.34033,-155.193,252
1565023418,340.891,13.5062,-16.7432,178.879,1.34033,-155.171,252
1565023418,340.891,13.5062,-16.7432,178.879,1.34033,-155.171,252
1565023418,340.891,13.5062,-16.7432,178.879,1.34033,-155.171,252
1565023418,340.891,13.5062,-16.7432,178.879,1.34033,-155.171,252
1565023418,340.891,13.5062,-16.7432,178.879,1.34033,-155.171,252
1565023418,340.891,13.5062,-16.7432,178.879,1.34033,-155.193,252
1565023418,340.891,13.5062,-16.7432,178.879,1.34033,-155.193,252
1565023418,340.891,13.5062,-16.7432,178.879,1.34033,-155.193,252
1565023418,340.891,13.5062,-16.7432,178.879,1.34033,-155.193,252
1565023418,340.891,13.5062,-16.7432,178.879,1.34033,-155.193,252
1565023418,340.891,13.5062,-16.7432,178.879,1.34033,-155.193,252
1565023418,340.891,13.5062,-16.7432,178.879,1.34033,-155.171,252
1565023418,340.891,13.5062,-16.7432,178.879,1.34033,-155.171,252
1565023418,341.002,13.5062,-16.7432,178.879,1.34033,-155.171,248
1565023418,341.002,13.5062,-16.7432,178.879,1.34033,-155.171,248
1565023418,341.002,13.5062,-16.7432,178.879,1.34033,-155.171,248
1565023418,341.002,13.5062,-16.7432,178.879,1.31836,-155.171,248
1565023418,341.002,13.5062,-16.7432,178.879,1.31836,-155.171,248
1565023418,341.002,13.5062,-16.7432,178.879,1.31836,-155.171,244
1565023418,341.002,13.5062,-16.7432,178.857,1.31836,-155.171,244
1565023418,341.002,13.5062,-16.7432,178.857,1.31836,-155.171,244
1565023418,341.002,13.5062,-16.7432,178.857,1.31836,-155.171,244
1565023418,341.002,13.5062,-16.7432,178.857,1.31836,-155.171,244
1565023418,341.002,13.5062,-16.7432,178.857,1.31836,-155.171,244
1565023418,341.002,13.5062,-16.7432,178.857,1.31836,-155.171,244
1565023418,341.002,13.5062,-16.7432,178.857,1.31836,-155.171,244
1565023418,341.002,13.5062,-16.7432,178.857,1.31836,-155.171,244
1565023419,341.002,13.5062,-16.7432,178.857,1.31836,-155.171,244
1565023419,340.891,13.5062,-16.7432,178.857,1.31836,-155.171,244
1565023419,340.891,13.5062,-16.7432,178.857,1.29639,-155.171,244
1565023419,340.891,13.5062,-16.7432,178.857,1.29639,-155.171,244
1565023419,340.891,13.5062,-16.7432,178.857,1.29639,-155.171,244
1565023419,340.891,13.5062,-16.7432,178.857,1.29639,-155.171,244
1565023419,340.891,13.5062,-16.7432,178.857,1.31836,-155.171,244
1565023419,340.891,13.5062,-16.7432,178.857,1.31836,-155.171,244
1565023419,340.891,13.5062,-16.7432,178.857,1.31836,-155.171,244
1565023419,340.891,13.5062,-16.7432,178.857,1.31836,-155.171,248
1565023419,340.891,13.5062,-16.7432,178.857,1.31836,-155.193,248
1565023419,340.891,13.5062,-16.7432,178.857,1.31836,-155.193,248
1565023419,340.891,13.5062,-16.7432,178.857,1.31836,-155.193,248
1565023419,340.891,13.5062,-16.7432,178.857,1.31836,-155.193,248
1565023419,340.891,13.5062,-16.7432,178.857,1.31836,-155.193,248
1565023419,341.002,13.5062,-16.7432,178.857,1.31836,-155.193,248
1565023419,341.002,13.5062,-16.7432,178.857,1.31836,-155.193,248
1565023419,341.002,13.5062,-16.7432,178.857,1.34033,-155.193,248
1565023419,340.891,13.3945,-16.7432,178.857,1.34033,-155.193,248
1565023419,340.891,13.3945,-16.7432,178.857,1.34033,-155.193,248
1565023419,340.891,13.3945,-16.7432,178.857,1.34033,-155.193,248
1565023419,340.891,13.3945,-16.7432,178.857,1.34033,-155.193,248
1565023419,340.891,13.3945,-16.7432,178.857,1.34033,-155.193,248
1565023419,340.891,13.3945,-16.6315,178.857,1.34033,-155.171,248
1565023419,340.891,13.3945,-16.6315,178.835,1.34033,-155.171,252
1565023419,340.891,13.3945,-16.6315,178.835,1.34033,-155.171,252
1565023419,340.891,13.3945,-16.6315,178.835,1.34033,-155.171,248
1565023419,340.891,13.3945,-16.6315,178.835,1.34033,-155.171,248
1565023419,340.891,13.3945,-16.6315,178.835,1.34033,-155.171,248
1565023419,340.891,13.3945,-16.6315,178.835,1.34033,-155.171,248
1565023419,340.891,13.3945,-16.6315,178.835,1.34033,-155.171,248
1565023419,340.891,13.3945,-16.6315,178.835,1.34033,-155.171,248
1565023419,340.891,13.3945,-16.6315,178.835,1.34033,-155.171,248
1565023419,340.891,13.3945,-16.6315,178.835,1.34033,-155.171,248
1565023419,340.891,13.3945,-16.6315,178.835,1.34033,-155.171,248
1565023419,340.891,13.3945,-16.6315,178.835,1.34033,-155.171,248
1565023419,340.891,13.3945,-16.7432,178.835,1.34033,-155.171,248
1565023419,340.891,13.3945,-16.7432,178.835,1.34033,-155.171,248
1565023419,340.891,13.3945,-16.7432,178.835,1.34033,-155.171,248
1565023419,340.891,13.3945,-16.7432,178.835,1.34033,-155.171,248
1565023419,340.891,13.3945,-16.7432,178.835,1.34033,-155.171,248
1565023419,340.891,13.3945,-16.7432,178.835,1.34033,-155.171,248
1565023419,340.891,13.3945,-16.7432,178.835,1.34033,-155.171,248
1565023419,340.891,13.3945,-16.7432,178.835,1.34033,-155.171,248
1565023419,340.891,13.3945,-16.7432,178.835,1.34033,-155.171,248
1565023419,340.891,13.3945,-16.7432,178.857,1.34033,-155.171,248
1565023419,340.891,13.3945,-16.7432,178.857,1.34033,-155.171,248
1565023419,340.891,13.3945,-16.7432,178.857,1.34033,-155.171,248
1565023419,340.891,13.3945,-16.7432,178.857,1.34033,-155.171,252
1565023419,340.891,13.3945,-16.7432,178.857,1.34033,-155.171,252
1565023419,340.891,13.3945,-16.7432,178.857,1.34033,-155.171,252
1565023419,340.891,13.3945,-16.7432,178.857,1.34033,-155.171,252
1565023419,340.891,13.3945,-16.7432,178.857,1.34033,-155.171,252
1565023419,340.891,13.3945,-16.7432,178.857,1.34033,-155.171,252
1565023419,340.891,13.3945,-16.7432,178.857,1.34033,-155.171,252
1565023419,341.002,13.3945,-16.7432,178.857,1.34033,-155.171,252
1565023419,341.002,13.3945,-16.7432,178.857,1.34033,-155.171,252
1565023419,341.002,13.3945,-16.7432,178.857,1.34033,-155.171,252
1565023419,341.002,13.3945,-16.7432,178.857,1.31836,-155.171,252
1565023419,341.002,13.3945,-16.7432,178.835,1.31836,-155.171,252
1565023419,341.002,13.3945,-16.7432,178.835,1.31836,-155.171,252
1565023419,340.891,13.3945,-16.7432,178.835,1.31836,-155.171,252
1565023419,340.891,13.3945,-16.7432,178.835,1.31836,-155.171,252
1565023419,340.891,13.3945,-16.7432,178.835,1.31836,-155.171,252
1565023419,340.891,13.3945,-16.7432,178.835,1.31836,-155.171,252
1565023419,340.891,13.3945,-16.7432,178.835,1.31836,-155.171,248
1565023419,340.891,13.3945,-16.7432,178.835,1.31836,-155.171,248
1565023419,340.891,13.3945,-16.7432,178.857,1.31836,-155.171,248
1565023419,340.891,13.3945,-16.7432,178.857,1.31836,-155.171,248
1565023419,340.891,13.3945,-16.7432,178.857,1.31836,-155.171,248
1565023419,340.891,13.3945,-16.7432,178.857,1.31836,-155.171,248
1565023419,340.891,13.3945,-16.7432,178.857,1.31836,-155.171,248
1565023419,340.891,13.3945,-16.7432,178.857,1.31836,-155.171,248
1565023419,340.891,13.3945,-16.7432,178.857,1.31836,-155.171,248
1565023419,340.891,13.3945,-16.7432,178.857,1.31836,-155.171,248
1565023419,340.891,13.3945,-16.7432,178.857,1.31836,-155.171,248
1565023419,340.891,13.3945,-16.7432,178.857,1.31836,-155.171,244
1565023419,341.002,13.3945,-16.7432,178.857,1.31836,-155.171,244
1565023419,341.002,13.3945,-16.7432,178.857,1.31836,-155.171,244
1565023419,341.002,13.3945,-16.7432,178.857,1.31836,-155.171,244
1565023419,341.002,13.3945,-16.7432,178.857,1.31836,-155.171,244
1565023419,341.002,13.3945,-16.7432,178.857,1.31836,-155.171,244
1565023419,341.002,13.3945,-16.7432,178.857,1.31836,-155.171,244
1565023419,341.002,13.3945,-16.7432,178.857,1.31836,-155.171,244
1565023419,340.891,13.3945,-16.7432,178.857,1.31836,-155.171,244
1565023419,340.891,13.3945,-16.7432,178.857,1.31836,-155.171,244
1565023419,340.891,13.3945,-16.7432,178.857,1.31836,-155.171,244
1565023419,340.891,13.3945,-16.7432,178.857,1.31836,-155.171,244
1565023419,340.891,13.3945,-16.7432,178.857,1.31836,-155.171,244
1565023419,340.891,13.3945,-16.7432,178.857,1.31836,-155.171,244
1565023419,340.891,13.3945,-16.7432,178.857,1.31836,-155.171,244
1565023419,340.891,13.3945,-16.7432,178.857,1.31836,-155.171,244
1565023419,340.891,13.3945,-16.7432,178.857,1.31836,-155.171,244
1565023419,340.891,13.3945,-16.7432,178.857,1.31836,-155.171,244
1565023419,340.891,13.3945,-16.7432,178.857,1.31836,-155.171,244
1565023419,340.891,13.3945,-16.7432,178.857,1.31836,-155.171,244
1565023419,340.891,13.3945,-16.7432,178.857,1.31836,-155.171,244
1565023419,340.891,13.3945,-16.7432,178.857,1.31836,-155.171,244
1565023419,340.891,13.3945,-16.7432,178.857,1.31836,-155.171,244
1565023419,340.891,13.3945,-16.7432,178.857,1.31836,-155.171,244
1565023420,340.891,13.3945,-16.7432,178.857,1.31836,-155.171,244
1565023420,340.891,13.3945,-16.7432,178.857,1.31836,-155.171,244
1565023420,340.891,13.3945,-16.7432,178.857,1.31836,-155.171,244
1565023420,340.891,13.3945,-16.7432,178.857,1.31836,-155.171,244
1565023420,340.891,13.3945,-16.7432,178.857,1.31836,-155.171,244
1565023420,340.891,13.3945,-16.7432,178.857,1.31836,-155.171,244
1565023420,340.891,13.3945,-16.7432,178.857,1.31836,-155.171,244
1565023420,340.891,13.3945,-16.7432,178.857,1.31836,-155.171,244
1565023420,340.891,13.3945,-16.7432,178.857,1.31836,-155.171,244
1565023420,340.891,13.3945,-16.7432,178.857,1.31836,-155.171,244
1565023420,340.891,13.3945,-16.7432,178.857,1.31836,-155.171,244
1565023420,340.891,13.3945,-16.7432,178.857,1.31836,-155.171,244
1565023420,340.891,13.3945,-16.7432,178.857,1.31836,-155.171,248
1565023420,340.891,13.3945,-16.7432,178.857,1.31836,-155.171,248
1565023420,340.891,13.3945,-16.7432,178.857,1.31836,-155.171,248
1565023420,340.891,13.3945,-16.7432,178.857,1.31836,-155.171,248
1565023420,340.891,13.5062,-16.7432,178.857,1.31836,-155.171,248
1565023420,340.891,13.5062,-16.7432,178.879,1.31836,-155.171,248
1565023420,340.891,13.5062,-16.7432,178.879,1.31836,-155.171,248
1565023420,340.891,13.5062,-16.7432,178.879,1.31836,-155.171,248
1565023420,340.891,13.5062,-16.7432,178.879,1.31836,-155.171,248
1565023420,340.891,13.5062,-16.7432,178.879,1.31836,-155.171,248
1565023420,340.891,13.5062,-16.7432,178.879,1.31836,-155.171,248
1565023420,340.891,13.5062,-16.7432,178.879,1.31836,-155.171,248
1565023420,340.891,13.5062,-16.7432,178.879,1.31836,-155.171,248
1565023420,340.891,13.5062,-16.7432,178.879,1.31836,-155.171,244
1565023420,340.891,13.5062,-16.7432,178.879,1.31836,-155.171,244
1565023420,340.891,13.5062,-16.7432,178.857,1.31836,-155.171,244
1565023420,341.002,13.5062,-16.7432,178.857,1.31836,-155.171,244
1565023420,341.002,13.3945,-16.7432,178.857,1.31836,-155.171,244
1565023420,341.002,13.3945,-16.7432,178.857,1.34033,-155.171,244
1565023420,341.002,13.3945,-16.7432,178.857,1.34033,-155.171,244
1565023420,341.002,13.3945,-16.7432,178.857,1.34033,-155.171,244
1565023420,341.002,13.3945,-16.7432,178.857,1.34033,-155.171,244
1565023420,341.002,13.3945,-16.7432,178.857,1.34033,-155.171,244
1565023420,341.002,13.3945,-16.7432,178.857,1.34033,-155.171,244
1565023420,341.002,13.3945,-16.7432,178.857,1.34033,-155.171,244
1565023420,341.002,13.3945,-16.7432,178.857,1.34033,-155.171,244
1565023420,341.002,13.3945,-16.7432,178.857,1.34033,-155.171,244
1565023420,341.002,13.3945,-16.7432,178.857,1.34033,-155.171,244
1565023420,341.002,13.3945,-16.7432,178.857,1.34033,-155.171,244
1565023420,341.002,13.3945,-16.7432,178.857,1.34033,-155.171,244
1565023420,341.002,13.3945,-16.7432,178.857,1.31836,-155.171,244
1565023420,341.002,13.3945,-16.7432,178.857,1.31836,-155.171,244
1565023420,341.002,13.3945,-16.7432,178.857,1.31836,-155.193,244
1565023420,341.002,13.3945,-16.7432,178.857,1.31836,-155.193,244
1565023420,341.002,13.3945,-16.7432,178.857,1.31836,-155.193,248
1565023420,341.002,13.3945,-16.7432,178.857,1.31836,-155.193,248
1565023420,341.002,13.3945,-16.7432,178.857,1.31836,-155.193,248
1565023420,341.002,13.3945,-16.7432,178.857,1.31836,-155.193,248
1565023420,341.002,13.3945,-16.7432,178.857,1.31836,-155.193,248
1565023420,341.002,13.3945,-16.7432,178.857,1.31836,-155.193,248
1565023420,341.002,13.3945,-16.7432,178.857,1.34033,-155.193,248
1565023420,341.002,13.3945,-16.7432,178.857,1.34033,-155.193,248
1565023420,341.002,13.3945,-16.7432,178.857,1.34033,-155.193,252
1565023420,341.002,13.3945,-16.7432,178.857,1.34033,-155.193,252
1565023420,341.002,13.3945,-16.7432,178.857,1.34033,-155.193,252
1565023420,341.002,13.3945,-16.7432,178.857,1.34033,-155.193,252
1565023420,341.002,13.3945,-16.7432,178.857,1.34033,-155.193,252
1565023420,341.002,13.3945,-16.7432,178.857,1.34033,-155.193,252
1565023420,341.002,13.3945,-16.7432,178.857,1.34033,-155.193,248
1565023420,341.002,13.3945,-16.7432,178.857,1.34033,-155.193,248
1565023420,341.002,13.3945,-16.7432,178.857,1.34033,-155.193,248
1565023420,341.002,13.3945,-16.7432,178.857,1.34033,-155.193,248
1565023420,341.002,13.3945,-16.7432,178.857,1.34033,-155.193,248
1565023420,340.891,13.3945,-16.7432,178.857,1.34033,-155.193,248
1565023420,340.891,13.3945,-16.7432,178.857,1.34033,-155.193,248
1565023420,340.891,13.3945,-16.7432,178.857,1.34033,-155.193,248
1565023420,340.891,13.3945,-16.7432,178.857,1.34033,-155.193,252
1565023420,340.891,13.3945,-16.7432,178.857,1.34033,-155.193,252
1565023420,340.891,13.3945,-16.6315,178.857,1.34033,-155.193,252
1565023420,340.891,13.3945,-16.6315,178.857,1.34033,-155.193,252
1565023420,341.002,13.5062,-16.6315,178.857,1.34033,-155.193,252
1565023420,341.002,13.5062,-16.6315,178.857,1.34033,-155.193,252
1565023420,341.002,13.5062,-16.6315,178.857,1.34033,-155.193,252
1565023420,341.002,13.5062,-16.6315,178.857,1.34033,-155.193,256
1565023420,341.002,13.5062,-16.7432,178.857,1.34033,-155.193,256
1565023420,341.002,13.5062,-16.7432,178.857,1.34033,-155.171,256
1565023420,341.002,13.5062,-16.7432,178.857,1.34033,-155.171,256
1565023420,341.002,13.5062,-16.7432,178.857,1.34033,-155.171,256
1565023420,341.002,13.5062,-16.7432,178.857,1.34033,-155.171,256
1565023420,341.002,13.5062,-16.7432,178.857,1.34033,-155.171,256
1565023420,341.002,13.5062,-16.7432,178.879,1.34033,-155.171,256
1565023420,341.002,13.5062,-16.7432,178.879,1.34033,-155.171,256
1565023420,341.002,13.5062,-16.7432,178.879,1.34033,-155.171,256
1565023420,341.002,13.5062,-16.7432,178.857,1.34033,-155.171,256
1565023420,341.002,13.5062,-16.7432,178.857,1.34033,-155.171,256
1565023420,341.002,13.5062,-16.7432,178.857,1.34033,-155.171,256
1565023420,341.002,13.5062,-16.7432,178.857,1.34033,-155.171,256
1565023420,341.002,13.5062,-16.7432,178.857,1.34033,-155.171,256
1565023420,341.002,13.5062,-16.7432,178.857,1.34033,-155.171,256
1565023420,341.002,13.5062,-16.7432,178.857,1.34033,-155.171,256
1565023420,341.002,13.5062,-16.7432,178.857,1.31836,-155.171,256
1565023420,341.002,13.5062,-16.7432,178.857,1.31836,-155.171,256
1565023420,341.002,13.5062,-16.7432,178.857,1.31836,-155.171,252
1565023420,341.002,13.5062,-16.7432,178.857,1.31836,-155.171,252
1565023420,341.002,13.5062,-16.7432,178.857,1.31836,-155.171,252
1565023420,341.002,13.5062,-16.7432,178.857,1.31836,-155.171,252
1565023420,341.002,13.5062,-16.7432,178.857,1.31836,-155.171,252
1565023420,341.002,13.5062,-16.7432,178.879,1.31836,-155.171,252
1565023421,341.002,13.5062,-16.7432,178.879,1.31836,-155.171,252
1565023421,341.002,13.5062,-16.7432,178.879,1.31836,-155.171,252
1565023421,341.002,13.5062,-16.7432,178.879,1.31836,-155.171,252
1565023421,341.002,13.5062,-16.7432,178.879,1.31836,-155.171,248
1565023421,341.002,13.5062,-16.7432,178.879,1.31836,-155.171,248
1565023421,341.002,13.5062,-16.7432,178.879,1.31836,-155.171,248
1565023421,341.002,13.5062,-16.7432,178.879,1.31836,-155.171,248
1565023421,341.002,13.5062,-16.7432,178.879,1.31836,-155.171,248
1565023421,341.002,13.5062,-16.7432,178.879,1.31836,-155.171,248
1565023421,341.002,13.5062,-16.7432,178.879,1.31836,-155.171,248
1565023421,341.002,13.5062,-16.7432,178.879,1.31836,-155.171,248
1565023421,341.002,13.5062,-16.7432,178.857,1.31836,-155.171,248
1565023421,341.002,13.5062,-16.7432,178.857,1.31836,-155.171,248
1565023421,341.002,13.5062,-16.7432,178.857,1.31836,-155.171,248
1565023421,341.002,13.5062,-16.7432,178.857,1.31836,-155.171,248
1565023421,341.002,13.5062,-16.7432,178.857,1.31836,-155.171,248
1565023421,341.002,13.5062,-16.7432,178.857,1.31836,-155.171,248
1565023421,341.002,13.3945,-16.7432,178.857,1.31836,-155.171,244
1565023421,341.002,13.3945,-16.7432,178.857,1.31836,-155.171,244
1565023421,341.002,13.3945,-16.7432,178.857,1.31836,-155.171,244
1565023421,341.002,13.3945,-16.7432,178.857,1.31836,-155.171,244
1565023421,341.002,13.3945,-16.7432,178.857,1.31836,-155.171,244
1565023421,341.002,13.3945,-16.7432,178.857,1.31836,-155.193,244
1565023421,341.002,13.5062,-16.7432,178.857,1.31836,-155.193,244
1565023421,341.002,13.5062,-16.7432,178.857,1.31836,-155.193,248
1565023421,341.002,13.3945,-16.7432,178.857,1.31836,-155.193,248
1565023421,341.002,13.3945,-16.7432,178.857,1.31836,-155.193,248
1565023421,341.002,13.3945,-16.7432,178.857,1.31836,-155.193,248
1565023421,341.002,13.3945,-16.7432,178.857,1.31836,-155.193,248
1565023421,341.002,13.3945,-16.7432,178.857,1.31836,-155.193,248
1565023421,341.002,13.3945,-16.7432,178.857,1.31836,-155.193,248
1565023421,341.002,13.5062,-16.7432,178.857,1.31836,-155.193,248
1565023421,341.002,13.5062,-16.7432,178.857,1.31836,-155.193,248
1565023421,341.002,13.5062,-16.7432,178.857,1.31836,-155.193,248
1565023421,341.002,13.5062,-16.7432,178.857,1.31836,-155.193,248
1565023421,341.002,13.5062,-16.7432,178.857,1.31836,-155.171,248
1565023421,341.002,13.5062,-16.7432,178.857,1.31836,-155.171,248
1565023421,341.002,13.5062,-16.7432,178.879,1.31836,-155.171,248
1565023421,341.002,13.5062,-16.7432,178.879,1.31836,-155.171,248
1565023421,341.002,13.5062,-16.7432,178.879,1.31836,-155.171,248
1565023421,341.002,13.5062,-16.7432,178.879,1.31836,-155.171,248
1565023435,364.22,-10.7156,-16.4083,178.967,1.49414,-155.369,284
1565023435,364.22,-10.7156,-16.4083,178.967,1.49414,-155.369,284
1565023435,364.22,-10.7156,-16.4083,178.967,1.49414,-155.369,284
1565023435,364.22,-10.7156,-16.4083,178.967,1.49414,-155.369,284
1565023435,364.22,-10.7156,-16.4083,178.967,1.49414,-155.369,284
1565023435,364.22,-10.7156,-16.4083,178.967,1.49414,-155.369,284
1565023435,364.22,-10.7156,-16.4083,178.967,1.49414,-155.369,284
1565023435,364.22,-10.7156,-16.4083,178.967,1.49414,-155.369,284
1565023435,364.22,-10.7156,-16.4083,178.967,1.49414,-155.391,284
1565023435,364.22,-10.7156,-16.2967,178.967,1.49414,-155.391,284
1565023435,364.22,-10.7156,-16.2967,178.967,1.49414,-155.391,284
1565023435,364.22,-10.7156,-16.2967,178.967,1.51611,-155.391,284
1565023435,364.22,-10.8272,-16.2967,178.967,1.51611,-155.391,284
1565023435,364.22,-10.8272,-16.2967,178.967,1.51611,-155.391,284
1565023435,364.22,-10.8272,-16.2967,178.967,1.51611,-155.391,284
1565023435,364.22,-10.8272,-16.2967,178.967,1.51611,-155.391,284
1565023435,364.22,-10.8272,-16.2967,178.967,1.51611,-155.391,284
1565023435,364.22,-10.8272,-16.2967,178.967,1.51611,-155.391,280
1565023435,364.22,-10.8272,-16.2967,178.967,1.51611,-155.391,280
1565023435,364.22,-10.8272,-16.2967,178.967,1.51611,-155.391,280
1565023435,364.22,-10.8272,-16.2967,178.967,1.51611,-155.391,280
1565023435,364.22,-10.8272,-16.2967,178.967,1.51611,-155.391,280
1565023435,364.22,-10.8272,-16.2967,178.967,1.51611,-155.391,280
1565023435,364.22,-10.8272,-16.2967,178.967,1.51611,-155.391,280
1565023435,364.22,-10.7156,-16.2967,178.967,1.51611,-155.391,280
1565023435,364.22,-10.7156,-16.2967,178.967,1.51611,-155.391,280
1565023435,364.22,-10.7156,-16.2967,178.967,1.51611,-155.391,280
1565023435,364.22,-10.7156,-16.2967,178.967,1.51611,-155.391,280
1565023435,364.22,-10.7156,-16.2967,178.967,1.51611,-155.391,280
1565023435,364.22,-10.7156,-16.2967,178.967,1.51611,-155.391,280
1565023435,364.22,-10.7156,-16.2967,178.989,1.51611,-155.391,280
1565023435,364.22,-10.7156,-16.2967,178.989,1.51611,-155.391,280
1565023435,364.22,-10.7156,-16.2967,178.989,1.51611,-155.391,276
1565023435,364.22,-10.7156,-16.2967,178.989,1.51611,-155.391,276
1565023435,364.22,-10.7156,-16.2967,178.989,1.51611,-155.391,276
1565023435,364.22,-10.7156,-16.2967,178.989,1.51611,-155.391,276
1565023435,364.22,-10.7156,-16.2967,178.989,1.51611,-155.391,276
1565023435,364.22,-10.7156,-16.2967,178.989,1.51611,-155.391,276
1565023435,364.22,-10.7156,-16.2967,178.989,1.51611,-155.391,276
1565023435,364.22,-10.7156,-16.2967,178.989,1.51611,-155.391,276
1565023435,364.22,-10.7156,-16.2967,178.989,1.49414,-155.391,276
1565023435,364.22,-10.7156,-16.2967,178.989,1.49414,-155.391,276
1565023435,364.22,-10.7156,-16.2967,178.989,1.49414,-155.391,276
1565023436,364.22,-10.7156,-16.2967,178.989,1.49414,-155.391,276
1565023436,364.22,-10.7156,-16.2967,178.989,1.49414,-155.391,276
1565023436,364.22,-10.7156,-16.4083,178.989,1.49414,-155.391,276
1565023436,364.22,-10.7156,-16.4083,178.989,1.49414,-155.391,272
1565023436,364.22,-10.604,-16.4083,178.989,1.49414,-155.391,272
1565023436,364.22,-10.604,-16.4083,179.011,1.49414,-155.391,272
1565023436,364.22,-10.604,-16.4083,179.011,1.49414,-155.391,272
1565023436,364.22,-10.604,-16.4083,179.011,1.47217,-155.391,272
1565023436,364.22,-10.604,-16.4083,179.011,1.47217,-155.391,276
1565023436,364.331,-10.604,-16.4083,179.011,1.47217,-155.391,276
1565023436,364.331,-10.604,-16.4083,179.011,1.47217,-155.391,276
1565023436,364.331,-10.604,-16.4083,179.011,1.47217,-155.391,272
1565023436,364.331,-10.7156,-16.4083,178.989,1.47217,-155.391,272
1565023436,364.331,-10.7156,-16.4083,178.989,1.47217,-155.391,272
1565023436,364.331,-10.7156,-16.4083,178.989,1.47217,-155.391,272
1565023436,364.331,-10.7156,-16.4083,178.989,1.47217,-155.369,272
1565023436,364.331,-10.7156,-16.4083,178.989,1.47217,-155.369,272
1565023436,364.331,-10.7156,-16.4083,178.989,1.47217,-155.369,272
1565023436,364.331,-10.7156,-16.4083,178.989,1.47217,-155.369,272
1565023436,364.331,-10.7156,-16.4083,178.989,1.47217,-155.391,272
1565023436,364.331,-10.7156,-16.4083,178.989,1.47217,-155.391,272
1565023436,364.331,-10.7156,-16.4083,178.989,1.47217,-155.391,272
1565023436,364.331,-10.7156,-16.4083,178.989,1.47217,-155.391,272
1565023436,364.331,-10.7156,-16.4083,178.989,1.47217,-155.391,272
1565023436,364.331,-10.7156,-16.4083,178.989,1.47217,-155.391,272
1565023436,364.331,-10.7156,-16.4083,178.989,1.4502,-155.391,272
1565023436,364.331,-10.7156,-16.4083,178.967,1.4502,-155.391,272
1565023436,364.331,-10.7156,-16.4083,178.967,1.4502,-155.391,272
1565023436,364.331,-10.7156,-16.5199,178.967,1.4502,-155.391,272
1565023436,364.331,-10.7156,-16.5199,178.967,1.4502,-155.391,272
1565023436,364.331,-10.7156,-16.4083,178.967,1.4502,-155.391,272
1565023436,364.331,-10.7156,-16.4083,178.967,1.4502,-155.391,272
1565023436,364.331,-10.7156,-16.4083,178.967,1.47217,-155.391,272
1565023436,364.331,-10.7156,-16.4083,178.967,1.47217,-155.391,272
1565023436,364.331,-10.7156,-16.4083,178.967,1.47217,-155.391,272
1565023436,364.331,-10.7156,-16.4083,178.967,1.47217,-155.391,272
1565023436,364.331,-10.7156,-16.4083,178.967,1.47217,-155.391,272
1565023436,364.331,-10.7156,-16.4083,178.967,1.47217,-155.391,272
1565023436,364.331,-10.7156,-16.4083,178.967,1.47217,-155.391,272
1565023436,364.331,-10.7156,-16.4083,178.967,1.47217,-155.391,272
1565023436,364.331,-10.7156,-16.4083,178.967,1.47217,-155.391,272
1565023436,364.331,-10.7156,-16.4083,178.967,1.47217,-155.391,268
1565023436,364.331,-10.7156,-16.4083,178.967,1.47217,-155.391,268
1565023436,364.331,-10.7156,-16.4083,178.967,1.47217,-155.391,268
1565023436,364.331,-10.7156,-16.4083,178.967,1.47217,-155.391,268
1565023436,364.331,-10.7156,-16.4083,178.967,1.47217,-155.391,268
1565023436,364.331,-10.7156,-16.4083,178.989,1.47217,-155.391,268
1565023436,364.331,-10.7156,-16.4083,178.989,1.47217,-155.391,268
1565023436,364.331,-10.7156,-16.4083,178.989,1.47217,-155.391,272
1565023436,364.331,-10.7156,-16.4083,178.989,1.47217,-155.369,272
1565023436,364.22,-10.7156,-16.4083,178.989,1.47217,-155.369,272
1565023436,364.22,-10.7156,-16.4083,178.989,1.47217,-155.369,272
1565023436,364.22,-10.7156,-16.4083,178.989,1.47217,-155.369,272
1565023436,364.22,-10.7156,-16.4083,178.967,1.47217,-155.369,272
1565023436,364.22,-10.7156,-16.4083,178.967,1.47217,-155.369,272
1565023436,364.22,-10.7156,-16.4083,178.967,1.47217,-155.369,276
1565023436,364.22,-10.7156,-16.4083,178.967,1.47217,-155.369,276
1565023436,364.22,-10.7156,-16.4083,178.967,1.47217,-155.391,276
1565023436,364.22,-10.7156,-16.4083,178.967,1.47217,-155.391,276
1565023436,364.22,-10.7156,-16.4083,178.967,1.47217,-155.391,276
1565023436,364.22,-10.7156,-16.4083,178.967,1.47217,-155.391,276
1565023436,364.22,-10.7156,-16.4083,178.967,1.47217,-155.391,280
1565023436,364.22,-10.7156,-16.4083,178.967,1.47217,-155.391,280
1565023436,364.22,-10.7156,-16.4083,178.967,1.47217,-155.391,280
1565023436,364.22,-10.7156,-16.4083,178.967,1.47217,-155.391,280
1565023436,364.22,-10.7156,-16.4083,178.967,1.47217,-155.391,280
1565023436,364.22,-10.7156,-16.4083,178.967,1.47217,-155.391,280
1565023436,364.22,-10.7156,-16.4083,178.967,1.47217,-155.391,280
1565023436,364.22,-10.7156,-16.4083,178.967,1.49414,-155.391,280
1565023436,364.22,-10.7156,-16.4083,178.967,1.49414,-155.391,280
1565023436,364.22,-10.7156,-16.4083,178.967,1.49414,-155.391,280
1565023436,364.22,-10.7156,-16.4083,178.967,1.49414,-155.391,280
1565023436,364.22,-10.7156,-16.4083,178.967,1.49414,-155.391,280
1565023436,364.22,-10.7156,-16.4083,178.967,1.49414,-155.391,280
1565023436,364.22,-10.7156,-16.4083,178.967,1.49414,-155.391,280
1565023436,364.22,-10.7156,-16.4083,178.989,1.49414,-155.391,280
1565023436,364.22,-10.7156,-16.4083,178.989,1.49414,-155.391,280
1565023436,364.22,-10.7156,-16.4083,178.989,1.49414,-155.391,280
1565023436,364.22,-10.7156,-16.4083,178.989,1.49414,-155.391,284
1565023436,364.108,-10.7156,-16.4083,178.989,1.49414,-155.391,284
1565023436,364.108,-10.7156,-16.4083,178.989,1.49414,-155.391,284
1565023436,364.108,-10.7156,-16.4083,178.989,1.49414,-155.391,284
1565023436,364.108,-10.7156,-16.4083,178.989,1.49414,-155.391,284
1565023436,364.108,-10.7156,-16.4083,178.989,1.49414,-155.391,284
1565023436,364.108,-10.7156,-16.4083,178.967,1.49414,-155.391,288
1565023436,364.108,-10.7156,-16.4083,178.967,1.49414,-155.391,288
1565023436,364.108,-10.7156,-16.4083,178.967,1.49414,-155.391,288
1565023436,364.108,-10.7156,-16.4083,178.967,1.49414,-155.413,288
1565023436,364.108,-10.7156,-16.4083,178.967,1.49414,-155.413,288
1565023436,364.108,-10.7156,-16.4083,178.967,1.49414,-155.413,288
1565023436,364.108,-10.7156,-16.4083,178.967,1.49414,-155.413,288
1565023436,364.108,-10.7156,-16.4083,178.967,1.49414,-155.413,288
1565023436,364.22,-10.7156,-16.4083,178.967,1.49414,-155.413,288
1565023436,364.22,-10.7156,-16.4083,178.967,1.49414,-155.413,288
1565023436,364.22,-10.7156,-16.4083,178.967,1.47217,-155.413,288
1565023436,364.22,-10.7156,-16.4083,178.967,1.47217,-155.413,288
1565023436,364.22,-10.7156,-16.4083,178.967,1.47217,-155.413,288
1565023436,364.22,-10.7156,-16.4083,178.967,1.47217,-155.413,288
1565023436,364.22,-10.7156,-16.4083,178.989,1.47217,-155.413,288
1565023436,364.22,-10.7156,-16.4083,178.989,1.47217,-155.413,288
1565023437,364.22,-10.7156,-16.4083,178.989,1.47217,-155.413,288
1565023437,364.22,-10.7156,-16.4083,178.989,1.47217,-155.413,288
1565023437,364.22,-10.7156,-16.5199,178.989,1.47217,-155.413,288
1565023437,364.22,-10.7156,-16.4083,178.989,1.47217,-155.391,288
1565023437,364.22,-10.7156,-16.5199,178.989,1.47217,-155.391,288
1565023437,364.22,-10.7156,-16.5199,178.989,1.47217,-155.391,284
1565023437,364.22,-10.7156,-16.5199,178.989,1.47217,-155.391,284
1565023437,364.22,-10.7156,-16.4083,178.989,1.47217,-155.391,284
1565023437,364.22,-10.7156,-16.4083,178.989,1.47217,-155.391,284
1565023437,364.22,-10.7156,-16.4083,178.989,1.47217,-155.391,284
1565023437,364.22,-10.7156,-16.4083,178.989,1.47217,-155.391,284
1565023437,364.22,-10.7156,-16.4083,178.989,1.47217,-155.391,284
1565023437,364.22,-10.7156,-16.4083,178.989,1.47217,-155.391,284
1565023437,364.22,-10.7156,-16.4083,178.989,1.47217,-155.391,284
1565023437,364.22,-10.7156,-16.4083,178.989,1.47217,-155.391,284
1565023437,364.22,-10.7156,-16.4083,178.989,1.47217,-155.391,284
1565023437,364.22,-10.7156,-16.4083,178.989,1.47217,-155.391,284
1565023437,364.22,-10.7156,-16.4083,178.989,1.47217,-155.391,284
1565023437,364.22,-10.7156,-16.4083,178.989,1.47217,-155.391,284
1565023437,364.22,-10.7156,-16.4083,178.989,1.47217,-155.369,284
1565023437,364.22,-10.7156,-16.4083,178.989,1.47217,-155.369,284
1565023437,364.22,-10.7156,-16.4083,178.989,1.47217,-155.369,288
1565023437,364.22,-10.7156,-16.4083,178.989,1.47217,-155.369,288
1565023437,364.22,-10.7156,-16.4083,178.989,1.47217,-155.369,288
1565023437,364.108,-10.7156,-16.4083,178.989,1.47217,-155.369,288
1565023437,364.108,-10.7156,-16.4083,178.989,1.47217,-155.369,288
1565023437,364.108,-10.7156,-16.4083,178.989,1.4502,-155.369,288
1565023437,364.108,-10.7156,-16.4083,178.989,1.4502,-155.369,288
1565023437,364.108,-10.7156,-16.4083,178.989,1.4502,-155.369,288
1565023437,364.108,-10.7156,-16.4083,178.989,1.4502,-155.369,288
1565023437,364.108,-10.7156,-16.4083,178.989,1.4502,-155.369,288
1565023437,364.22,-10.7156,-16.4083,178.989,1.4502,-155.369,288
1565023437,364.22,-10.7156,-16.4083,178.989,1.4502,-155.369,288
1565023437,364.22,-10.7156,-16.4083,178.989,1.4502,-155.369,288
1565023437,364.22,-10.7156,-16.4083,178.989,1.4502,-155.369,288
1565023437,364.22,-10.7156,-16.4083,178.989,1.4502,-155.391,288
1565023437,364.22,-10.7156,-16.4083,178.989,1.4502,-155.391,288
1565023437,364.22,-10.7156,-16.4083,178.989,1.4502,-155.391,288
1565023437,364.22,-10.7156,-16.4083,178.989,1.4502,-155.391,288
1565023437,364.22,-10.7156,-16.4083,178.967,1.4502,-155.391,288
1565023437,364.22,-10.7156,-16.4083,178.967,1.4502,-155.391,288
1565023437,364.22,-10.7156,-16.4083,178.967,1.4502,-155.391,288
1565023437,364.108,-10.7156,-16.4083,178.967,1.4502,-155.391,288
1565023437,364.108,-10.8272,-16.4083,178.967,1.4502,-155.391,288
1565023437,364.108,-10.8272,-16.4083,178.967,1.4502,-155.391,288
1565023437,364.108,-10.8272,-16.4083,178.967,1.4502,-155.391,288
1565023437,364.22,-10.7156,-16.4083,178.967,1.4502,-155.391,284
1565023437,364.22,-10.7156,-16.4083,178.967,1.4502,-155.391,284
1565023437,364.22,-10.7156,-16.4083,178.967,1.4502,-155.391,284
1565023437,364.22,-10.7156,-16.4083,178.967,1.4502,-155.369,284
1565023437,364.22,-10.7156,-16.4083,178.967,1.4502,-155.369,284
1565023437,364.22,-10.7156,-16.4083,178.967,1.47217,-155.369,284
1565023437,364.22,-10.7156,-16.4083,178.967,1.47217,-155.369,284
1565023437,364.22,-10.7156,-16.4083,178.967,1.47217,-155.369,284
1565023437,364.22,-10.7156,-16.4083,178.967,1.47217,-155.391,284
1565023437,364.22,-10.7156,-16.4083,178.967,1.47217,-155.391,280
1565023437,364.22,-10.7156,-16.4083,178.967,1.47217,-155.391,280
1565023437,364.22,-10.7156,-16.4083,178.967,1.47217,-155.391,280
1565023437,364.22,-10.7156,-16.4083,178.967,1.47217,-155.391,280
1565023437,364.22,-10.7156,-16.4083,178.967,1.47217,-155.391,276
1565023437,364.22,-10.7156,-16.4083,178.967,1.47217,-155.391,276
1565023437,364.22,-10.7156,-16.4083,178.967,1.47217,-155.391,276
1565023437,364.22,-10.7156,-16.4083,178.967,1.47217,-155.391,276
1565023437,364.331,-10.7156,-16.4083,178.967,1.47217,-155.391,272
1565023437,364.331,-10.7156,-16.4083,178.967,1.47217,-155.391,272
1565023437,364.331,-10.7156,-16.4083,178.967,1.47217,-155.391,272
1565023437,364.331,-10.7156,-16.4083,178.967,1.47217,-155.391,272
1565023437,364.331,-10.7156,-16.4083,178.967,1.47217,-155.391,272
1565023437,364.331,-10.7156,-16.4083,178.989,1.47217,-155.391,268
1565023437,364.331,-10.7156,-16.4083,178.989,1.47217,-155.391,268
1565023437,364.331,-10.7156,-16.4083,178.989,1.47217,-155.391,268
1565023437,364.331,-10.7156,-16.4083,178.989,1.47217,-155.391,268
1565023437,364.331,-10.7156,-16.4083,178.989,1.47217,-155.391,268
1565023437,364.331,-10.7156,-16.4083,178.989,1.47217,-155.391,268
1565023437,364.331,-10.7156,-16.5199,178.989,1.4502,-155.391,268
1565023437,364.331,-10.7156,-16.5199,178.989,1.4502,-155.391,268
1565023437,364.331,-10.7156,-16.5199,178.989,1.4502,-155.391,264
1565023437,364.331,-10.7156,-16.5199,178.989,1.4502,-155.391,264
1565023437,364.331,-10.7156,-16.5199,178.989,1.4502,-155.391,264
1565023437,364.331,-10.7156,-16.5199,178.989,1.4502,-155.391,264
1565023437,364.331,-10.7156,-16.5199,178.989,1.4502,-155.391,264
1565023437,364.331,-10.7156,-16.5199,178.989,1.4502,-155.391,264
1565023437,364.331,-10.7156,-16.5199,178.989,1.4502,-155.391,264
1565023437,364.331,-10.7156,-16.4083,178.989,1.47217,-155.369,264
1565023437,364.331,-10.7156,-16.4083,178.989,1.47217,-155.369,264
1565023437,364.331,-10.7156,-16.4083,178.989,1.47217,-155.369,264
1565023437,364.331,-10.7156,-16.4083,178.989,1.47217,-155.369,264
1565023437,364.331,-10.7156,-16.4083,178.989,1.47217,-155.369,264
1565023437,364.331,-10.7156,-16.4083,178.989,1.47217,-155.369,264
1565023437,364.331,-10.604,-16.4083,178.989,1.47217,-155.369,264
1565023437,364.331,-10.604,-16.4083,178.989,1.47217,-155.369,264
1565023437,364.331,-10.604,-16.4083,179.011,1.47217,-155.369,268
1565023437,364.331,-10.604,-16.4083,179.011,1.47217,-155.369,268
1565023437,364.22,-10.604,-16.4083,179.011,1.47217,-155.369,268
1565023437,364.22,-10.604,-16.4083,179.011,1.47217,-155.369,268
1565023437,364.22,-10.604,-16.4083,179.011,1.47217,-155.369,268
1565023437,364.22,-10.604,-16.4083,179.011,1.47217,-155.369,268
1565023437,364.22,-10.604,-16.4083,179.011,1.47217,-155.369,268
1565023437,364.22,-10.604,-16.4083,179.011,1.47217,-155.369,268
1565023437,364.22,-10.604,-16.4083,179.011,1.47217,-155.369,268
1565023438,364.22,-10.604,-16.4083,179.011,1.47217,-155.369,272
1565023438,364.22,-10.604,-16.4083,179.033,1.47217,-155.369,272
1565023438,364.22,-10.604,-16.4083,179.033,1.47217,-155.369,272
1565023438,364.22,-10.604,-16.4083,179.033,1.47217,-155.369,276
1565023438,364.22,-10.604,-16.4083,179.033,1.47217,-155.369,276
1565023438,364.22,-10.604,-16.4083,179.033,1.47217,-155.369,276
1565023438,364.22,-10.604,-16.4083,179.033,1.47217,-155.369,280
1565023438,364.22,-10.604,-16.4083,179.011,1.47217,-155.369,280
1565023438,364.22,-10.604,-16.4083,179.011,1.47217,-155.369,280
1565023438,364.22,-10.604,-16.4083,179.011,1.47217,-155.369,280
1565023438,364.22,-10.604,-16.4083,179.011,1.47217,-155.369,280
1565023438,364.22,-10.604,-16.4083,179.011,1.47217,-155.391,280
1565023438,364.22,-10.604,-16.4083,179.011,1.47217,-155.391,280
1565023438,364.22,-10.7156,-16.4083,179.011,1.47217,-155.391,280
1565023438,364.22,-10.7156,-16.4083,179.011,1.47217,-155.391,280
1565023438,364.22,-10.7156,-16.4083,179.011,1.47217,-155.391,280
1565023438,364.22,-10.7156,-16.4083,178.989,1.47217,-155.391,280
1565023438,364.22,-10.7156,-16.4083,178.989,1.47217,-155.391,280
1565023438,364.22,-10.7156,-16.4083,178.989,1.47217,-155.391,280
1565023438,364.22,-10.7156,-16.4083,178.989,1.47217,-155.391,280
1565023438,364.22,-10.7156,-16.4083,178.989,1.47217,-155.391,280
1565023438,364.22,-10.7156,-16.4083,178.989,1.47217,-155.391,280
1565023438,364.22,-10.7156,-16.4083,178.989,1.47217,-155.391,280
1565023438,364.22,-10.7156,-16.4083,178.989,1.47217,-155.391,280
1565023438,364.22,-10.7156,-16.4083,178.989,1.47217,-155.391,280
1565023438,364.22,-10.7156,-16.4083,178.989,1.47217,-155.391,280
1565023438,364.22,-10.7156,-16.4083,178.989,1.47217,-155.391,280
1565023438,364.22,-10.7156,-16.4083,178.989,1.47217,-155.391,280
1565023438,364.22,-10.7156,-16.4083,178.989,1.47217,-155.391,280
1565023438,364.22,-10.7156,-16.4083,178.989,1.47217,-155.391,280
1565023438,364.22,-10.7156,-16.4083,178.989,1.47217,-155.391,280
1565023438,364.22,-10.7156,-16.4083,178.989,1.47217,-155.391,276
1565023438,364.22,-10.7156,-16.4083,178.989,1.47217,-155.391,276
1565023438,364.22,-10.7156,-16.4083,178.989,1.47217,-155.391,276
1565023438,364.22,-10.7156,-16.4083,178.989,1.47217,-155.391,276
1565023438,364.22,-10.7156,-16.4083,178.989,1.47217,-155.391,276
1565023438,364.22,-10.7156,-16.4083,178.989,1.47217,-155.391,276
1565023438,364.22,-10.7156,-16.4083,178.989,1.47217,-155.391,276
1565023438,364.22,-10.7156,-16.4083,178.989,1.47217,-155.391,276
1565023438,364.22,-10.7156,-16.4083,178.989,1.47217,-155.391,272
1565023438,364.22,-10.7156,-16.4083,178.967,1.47217,-155.391,272
1565023438,364.22,-10.7156,-16.4083,178.967,1.47217,-155.391,272
1565023438,364.22,-10.7156,-16.4083,178.967,1.47217,-155.391,272
1565023438,364.22,-10.8272,-16.4083,178.967,1.47217,-155.391,272
1565023438,364.22,-10.8272,-16.4083,178.967,1.47217,-155.391,272
1565023438,364.22,-10.8272,-16.4083,178.967,1.47217,-155.391,272
1565023438,364.22,-10.8272,-16.4083,178.967,1.47217,-155.369,272
1565023438,364.22,-10.8272,-16.4083,178.967,1.47217,-155.369,272
1565023438,364.22,-10.8272,-16.4083,178.967,1.47217,-155.369,272
1565023438,364.22,-10.8272,-16.4083,178.967,1.47217,-155.369,272
1565023438,364.22,-10.8272,-16.4083,178.967,1.47217,-155.369,272
1565023438,364.22,-10.8272,-16.4083,178.967,1.47217,-155.369,272
1565023438,364.22,-10.8272,-16.4083,178.967,1.47217,-155.369,272
1565023438,364.22,-10.8272,-16.4083,178.967,1.47217,-155.369,272
1565023438,364.22,-10.8272,-16.4083,178.967,1.4502,-155.369,276
1565023438,364.22,-10.8272,-16.4083,178.967,1.4502,-155.369,276
1565023438,364.22,-10.8272,-16.4083,178.967,1.4502,-155.369,276
1565023438,364.22,-10.8272,-16.4083,178.967,1.4502,-155.369,276
1565023438,364.22,-10.8272,-16.4083,178.967,1.4502,-155.369,276
1565023438,364.22,-10.8272,-16.5199,178.967,1.4502,-155.369,280
1565023438,364.22,-10.7156,-16.5199,178.967,1.4502,-155.369,280
1565023438,364.22,-10.7156,-16.5199,178.967,1.4502,-155.369,280
1565023438,364.22,-10.7156,-16.5199,178.967,1.4502,-155.369,280
1565023438,364.22,-10.7156,-16.5199,178.967,1.4502,-155.369,280
1565023438,364.22,-10.7156,-16.5199,178.967,1.4502,-155.369,280
1565023438,364.22,-10.7156,-16.4083,178.967,1.4502,-155.369,280
1565023438,364.22,-10.7156,-16.4083,178.967,1.4502,-155.369,280
1565023438,364.22,-10.7156,-16.4083,178.967,1.4502,-155.369,280
1565023438,364.22,-10.8272,-16.4083,178.967,1.4502,-155.369,280
1565023438,364.22,-10.8272,-16.4083,178.967,1.4502,-155.369,280
1565023438,364.22,-10.8272,-16.4083,178.967,1.4502,-155.369,280
1565023438,364.22,-10.8272,-16.4083,178.967,1.4502,-155.369,280
1565023438,364.22,-10.8272,-16.4083,178.967,1.4502,-155.369,280
1565023438,364.22,-10.8272,-16.5199,178.967,1.4502,-155.369,280
1565023438,364.22,-10.7156,-16.5199,178.967,1.4502,-155.369,280
1565023438,364.22,-10.7156,-16.5199,178.967,1.4502,-155.369,280
1565023438,364.22,-10.7156,-16.5199,178.989,1.4502,-155.369,280
1565023438,364.22,-10.7156,-16.5199,178.989,1.4502,-155.369,280
1565023438,364.22,-10.7156,-16.5199,178.989,1.4502,-155.369,280
1565023438,364.22,-10.7156,-16.5199,178.989,1.4502,-155.391,280
1565023438,364.22,-10.7156,-16.5199,178.989,1.4502,-155.391,280
1565023438,364.22,-10.7156,-16.5199,178.989,1.4502,-155.391,280
1565023438,364.22,-10.7156,-16.5199,178.989,1.4502,-155.391,280
1565023438,364.22,-10.7156,-16.5199,178.989,1.4502,-155.391,280
1565023438,364.22,-10.7156,-16.5199,178.989,1.4502,-155.391,280
1565023438,364.22,-10.7156,-16.5199,178.989,1.4502,-155.391,280
1565023438,364.22,-10.7156,-16.5199,178.989,1.4502,-155.391,280
1565023438,364.22,-10.7156,-16.5199,178.989,1.4502,-155.391,280
1565023438,364.22,-10.7156,-16.5199,178.989,1.4502,-155.369,280
1565023438,364.22,-10.7156,-16.5199,178.989,1.4502,-155.369,280
1565023438,364.22,-10.7156,-16.5199,178.989,1.4502,-155.369,280
1565023438,364.22,-10.7156,-16.5199,178.989,1.4502,-155.369,276
1565023438,364.22,-10.7156,-16.5199,178.989,1.4502,-155.369,276
1565023438,364.22,-10.7156,-16.5199,178.989,1.4502,-155.369,276
1565023438,364.22,-10.7156,-16.5199,178.989,1.4502,-155.369,276
1565023438,364.22,-10.7156,-16.5199,178.989,1.4502,-155.369,276
1565023438,364.22,-10.7156,-16.5199,178.989,1.4502,-155.369,276
1565023438,364.22,-10.7156,-16.5199,178.989,1.4502,-155.369,276
1565023438,364.22,-10.7156,-16.5199,178.989,1.4502,-155.369,276
1565023438,364.22,-10.7156,-16.5199,178.989,1.4502,-155.369,276
1565023439,364.22,-10.7156,-16.5199,178.989,1.4502,-155.369,276
1565023439,364.22,-10.7156,-16.5199,178.989,1.4502,-155.369,276
1565023439,364.22,-10.7156,-16.5199,178.989,1.47217,-155.369,276
1565023439,364.22,-10.7156,-16.4083,178.989,1.47217,-155.369,276
1565023439,364.22,-10.7156,-16.4083,178.989,1.47217,-155.369,276
1565023439,364.22,-10.7156,-16.4083,178.989,1.47217,-155.369,276
1565023439,364.22,-10.7156,-16.4083,178.989,1.47217,-155.369,276
1565023439,364.22,-10.7156,-16.4083,178.989,1.47217,-155.369,276
1565023439,364.22,-10.7156,-16.4083,178.989,1.47217,-155.369,276
1565023439,364.22,-10.7156,-16.4083,178.989,1.47217,-155.369,276
1565023439,364.22,-10.7156,-16.4083,178.989,1.47217,-155.369,276
1565023439,364.22,-10.7156,-16.4083,178.989,1.47217,-155.369,276
1565023439,364.22,-10.7156,-16.4083,178.989,1.47217,-155.369,276
1565023439,364.22,-10.7156,-16.4083,178.989,1.47217,-155.369,276
1565023439,364.22,-10.7156,-16.4083,178.989,1.47217,-155.369,276
1565023439,364.22,-10.7156,-16.4083,178.989,1.47217,-155.369,276
1565023439,364.22,-10.7156,-16.4083,178.989,1.47217,-155.369,276
1565023439,364.22,-10.7156,-16.4083,178.967,1.47217,-155.369,276
1565023439,364.22,-10.7156,-16.4083,178.967,1.4502,-155.369,276
1565023439,364.22,-10.7156,-16.4083,178.967,1.4502,-155.369,276
1565023439,364.22,-10.7156,-16.4083,178.967,1.47217,-155.369,276
1565023439,364.22,-10.7156,-16.4083,178.967,1.47217,-155.369,276
1565023439,364.22,-10.7156,-16.4083,178.967,1.47217,-155.369,276
1565023439,364.22,-10.7156,-16.4083,178.967,1.47217,-155.369,276
1565023439,364.22,-10.8272,-16.4083,178.967,1.47217,-155.369,276
1565023439,364.22,-10.8272,-16.4083,178.967,1.47217,-155.369,280
1565023439,364.22,-10.8272,-16.4083,178.967,1.47217,-155.369,280
1565023439,364.22,-10.8272,-16.4083,178.967,1.47217,-155.369,280
1565023439,364.22,-10.8272,-16.4083,178.967,1.47217,-155.369,280
1565023439,364.22,-10.8272,-16.4083,178.967,1.47217,-155.369,280
1565023439,364.22,-10.8272,-16.4083,178.967,1.47217,-155.369,280
1565023439,364.22,-10.8272,-16.4083,178.967,1.47217,-155.369,280
1565023439,364.22,-10.8272,-16.4083,178.967,1.47217,-155.369,280
1565023439,364.22,-10.8272,-16.4083,178.967,1.47217,-155.369,280
1565023439,364.22,-10.8272,-16.4083,178.967,1.47217,-155.369,280
1565023439,364.22,-10.8272,-16.4083,178.967,1.47217,-155.369,280
1565023439,364.22,-10.7156,-16.4083,178.967,1.47217,-155.369,280
1565023439,364.22,-10.7156,-16.4083,178.967,1.47217,-155.369,280
1565023439,364.22,-10.7156,-16.4083,178.967,1.47217,-155.369,284
1565023439,364.22,-10.7156,-16.4083,178.967,1.47217,-155.369,284
1565023439,364.22,-10.7156,-16.4083,178.967,1.4502,-155.369,280
1565023439,364.22,-10.7156,-16.4083,178.967,1.4502,-155.369,280
1565023439,364.22,-10.7156,-16.5199,178.967,1.4502,-155.369,280
1565023439,364.22,-10.7156,-16.5199,178.967,1.4502,-155.369,280
1565023439,364.22,-10.7156,-16.5199,178.967,1.4502,-155.369,280
1565023439,364.22,-10.7156,-16.5199,178.967,1.4502,-155.369,280
1565023439,364.22,-10.7156,-16.5199,178.967,1.4502,-155.369,276
1565023439,364.22,-10.7156,-16.5199,178.967,1.4502,-155.369,276
1565023439,364.22,-10.7156,-16.4083,178.967,1.4502,-155.369,276
1565023439,364.22,-10.7156,-16.4083,178.967,1.47217,-155.391,276
1565023439,364.22,-10.7156,-16.4083,178.967,1.47217,-155.391,276
1565023439,364.22,-10.7156,-16.4083,178.967,1.47217,-155.391,276
1565023439,364.22,-10.7156,-16.4083,178.967,1.47217,-155.391,276
1565023439,364.22,-10.7156,-16.4083,178.967,1.47217,-155.391,276
1565023439,364.22,-10.7156,-16.4083,178.967,1.47217,-155.391,280
1565023439,364.22,-10.7156,-16.4083,178.967,1.47217,-155.391,280
1565023439,364.331,-10.7156,-16.4083,178.967,1.47217,-155.391,280
1565023439,364.331,-10.7156,-16.4083,178.967,1.47217,-155.391,276
1565023439,364.331,-10.7156,-16.4083,178.967,1.47217,-155.391,276
1565023439,364.331,-10.7156,-16.4083,178.967,1.47217,-155.391,276
1565023439,364.331,-10.7156,-16.4083,178.967,1.47217,-155.391,276
1565023439,364.331,-10.7156,-16.4083,178.967,1.47217,-155.391,276
1565023439,364.331,-10.7156,-16.4083,178.967,1.47217,-155.391,276
1565023439,364.331,-10.7156,-16.4083,178.967,1.47217,-155.391,276
1565023439,364.331,-10.7156,-16.4083,178.967,1.47217,-155.391,272
1565023439,364.331,-10.7156,-16.4083,178.967,1.47217,-155.391,272
1565023439,364.331,-10.7156,-16.4083,178.967,1.47217,-155.391,272
1565023439,364.331,-10.7156,-16.4083,178.967,1.47217,-155.391,272
1565023439,364.331,-10.7156,-16.4083,178.967,1.47217,-155.369,272
1565023439,364.331,-10.7156,-16.4083,178.967,1.47217,-155.369,272
1565023439,364.331,-10.7156,-16.4083,178.967,1.47217,-155.369,272
1565023439,364.331,-10.7156,-16.4083,178.967,1.47217,-155.369,272
1565023439,364.331,-10.7156,-16.4083,178.967,1.47217,-155.369,272
1565023439,364.331,-10.7156,-16.4083,178.967,1.47217,-155.369,272
1565023439,364.331,-10.7156,-16.4083,178.967,1.47217,-155.369,272
1565023439,364.331,-10.7156,-16.4083,178.967,1.47217,-155.369,272
1565023439,364.331,-10.7156,-16.4083,178.967,1.47217,-155.369,272
1565023439,364.331,-10.7156,-16.4083,178.989,1.47217,-155.369,272
1565023439,364.331,-10.7156,-16.4083,178.989,1.47217,-155.369,272
1565023439,364.331,-10.7156,-16.4083,178.989,1.47217,-155.369,272
1565023439,364.22,-10.7156,-16.4083,178.989,1.47217,-155.369,272
1565023439,364.22,-10.7156,-16.4083,178.989,1.47217,-155.369,268
1565023439,364.22,-10.7156,-16.4083,178.989,1.47217,-155.369,268
1565023439,364.22,-10.7156,-16.4083,178.989,1.47217,-155.369,268
1565023439,364.22,-10.7156,-16.4083,178.989,1.47217,-155.369,272
1565023439,364.22,-10.7156,-16.4083,178.989,1.47217,-155.369,272
1565023439,364.22,-10.7156,-16.4083,178.989,1.47217,-155.369,272
1565023439,364.22,-10.7156,-16.4083,178.989,1.47217,-155.369,272
1565023439,364.22,-10.7156,-16.4083,178.989,1.49414,-155.369,272
1565023439,364.22,-10.7156,-16.4083,178.989,1.49414,-155.369,272
1565023439,364.22,-10.7156,-16.4083,178.967,1.49414,-155.369,272
1565023439,364.22,-10.7156,-16.4083,178.967,1.49414,-155.369,272
1565023439,364.22,-10.7156,-16.4083,178.967,1.49414,-155.369,272
1565023439,364.22,-10.7156,-16.4083,178.967,1.49414,-155.369,272
1565023439,364.22,-10.7156,-16.4083,178.967,1.49414,-155.369,272
1565023439,364.22,-10.7156,-16.4083,178.967,1.49414,-155.369,272
1565023439,364.22,-10.7156,-16.4083,178.967,1.49414,-155.369,272
1565023439,364.22,-10.7156,-16.4083,178.967,1.47217,-155.369,276
1565023439,364.22,-10.7156,-16.4083,178.967,1.47217,-155.369,276
1565023439,364.22,-10.7156,-16.4083,178.967,1.47217,-155.369,272
1565023440,364.331,-10.7156,-16.4083,178.967,1.47217,-155.369,272
1565023440,364.331,-10.7156,-16.4083,178.967,1.47217,-155.369,272
1565023440,364.331,-10.7156,-16.4083,178.967,1.47217,-155.369,272
1565023440,364.331,-10.7156,-16.4083,178.967,1.47217,-155.369,272
1565023440,364.331,-10.7156,-16.4083,178.967,1.47217,-155.369,272
1565023440,364.331,-10.7156,-16.4083,178.967,1.47217,-155.391,272
1565023440,364.22,-10.7156,-16.4083,178.967,1.47217,-155.391,272
1565023440,364.22,-10.7156,-16.4083,178.967,1.47217,-155.391,272
1565023440,364.22,-10.7156,-16.4083,178.967,1.47217,-155.391,272
1565023440,364.22,-10.7156,-16.4083,178.967,1.47217,-155.391,272
1565023440,364.22,-10.7156,-16.4083,178.967,1.47217,-155.391,272
1565023440,364.22,-10.7156,-16.4083,178.967,1.47217,-155.391,272
1565023440,364.22,-10.7156,-16.4083,178.967,1.47217,-155.391,272
1565023440,364.22,-10.7156,-16.4083,178.967,1.47217,-155.391,272
1565023440,364.22,-10.7156,-16.4083,178.967,1.47217,-155.391,272
1565023440,364.22,-10.7156,-16.4083,178.967,1.47217,-155.391,272
1565023440,364.22,-10.7156,-16.4083,178.967,1.47217,-155.391,276
1565023440,364.22,-10.7156,-16.4083,178.967,1.47217,-155.391,276
1565023440,364.22,-10.7156,-16.4083,178.967,1.47217,-155.391,276
1565023440,364.22,-10.7156,-16.4083,178.967,1.47217,-155.391,280
1565023440,364.22,-10.7156,-16.4083,178.967,1.47217,-155.391,280
1565023440,364.22,-10.7156,-16.4083,178.967,1.47217,-155.391,280
1565023440,364.22,-10.7156,-16.4083,178.967,1.47217,-155.391,284
1565023440,364.22,-10.7156,-16.4083,178.967,1.47217,-155.391,284
1565023440,364.108,-10.7156,-16.4083,178.967,1.4502,-155.391,284
1565023440,364.108,-10.7156,-16.4083,178.967,1.4502,-155.391,288
1565023440,364.108,-10.7156,-16.4083,178.967,1.4502,-155.391,288
1565023440,364.108,-10.7156,-16.5199,178.967,1.4502,-155.391,288
1565023440,364.108,-10.7156,-16.5199,178.967,1.4502,-155.391,292
1565023440,364.108,-10.7156,-16.5199,178.967,1.4502,-155.391,292
1565023440,364.108,-10.7156,-16.5199,178.967,1.4502,-155.391,292
1565023440,364.108,-10.7156,-16.5199,178.967,1.4502,-155.391,292
1565023440,364.108,-10.7156,-16.5199,178.967,1.4502,-155.391,292
1565023440,364.108,-10.7156,-16.5199,178.967,1.4502,-155.391,292
1565023440,364.108,-10.7156,-16.5199,178.967,1.4502,-155.391,292
1565023440,364.22,-10.7156,-16.5199,178.967,1.4502,-155.391,292
1565023440,364.22,-10.7156,-16.5199,178.967,1.4502,-155.391,292
1565023440,364.22,-10.7156,-16.4083,178.967,1.4502,-155.391,292
1565023440,364.22,-10.7156,-16.4083,178.989,1.4502,-155.391,292
1565023440,364.22,-10.7156,-16.4083,178.989,1.4502,-155.391,292
1565023440,364.22,-10.7156,-16.4083,178.989,1.4502,-155.391,292
1565023440,364.22,-10.7156,-16.4083,178.989,1.4502,-155.391,292
1565023440,364.22,-10.7156,-16.4083,178.989,1.4502,-155.391,292
1565023440,364.22,-10.7156,-16.4083,178.989,1.4502,-155.391,288
1565023440,364.22,-10.7156,-16.4083,178.989,1.4502,-155.391,288
1565023440,364.22,-10.7156,-16.4083,178.989,1.47217,-155.391,288
1565023440,364.22,-10.7156,-16.4083,178.989,1.47217,-155.391,288
1565023440,364.22,-10.7156,-16.4083,178.989,1.47217,-155.391,288
1565023440,364.22,-10.7156,-16.4083,178.989,1.47217,-155.391,284
1565023440,364.22,-10.7156,-16.4083,178.989,1.47217,-155.391,284
1565023440,364.22,-10.7156,-16.4083,178.989,1.47217,-155.391,284
1565023440,364.22,-10.7156,-16.4083,178.989,1.49414,-155.391,284
1565023440,364.22,-10.7156,-16.4083,178.989,1.49414,-155.391,280
1565023440,364.22,-10.7156,-16.4083,178.989,1.49414,-155.391,280
1565023440,364.22,-10.7156,-16.4083,178.967,1.49414,-155.391,280
1565023440,364.22,-10.7156,-16.4083,178.967,1.47217,-155.369,280
1565023440,364.22,-10.7156,-16.4083,178.989,1.47217,-155.369,280
1565023455,403.175,-51.0108,-15.8502,179.209,1.73584,-155.632,304
1565023455,403.175,-51.0108,-15.8502,179.209,1.73584,-155.632,304
1565023455,403.175,-51.0108,-15.8502,179.209,1.73584,-155.632,304
1565023455,403.175,-51.0108,-15.8502,179.209,1.73584,-155.632,304
1565023455,403.175,-51.0108,-15.8502,179.209,1.73584,-155.632,300
1565023455,403.175,-51.0108,-15.8502,179.209,1.73584,-155.61,300
1565023455,403.175,-51.0108,-15.8502,179.209,1.73584,-155.61,300
1565023455,403.175,-51.0108,-15.8502,179.209,1.73584,-155.61,300
1565023455,403.175,-51.0108,-15.8502,179.209,1.75781,-155.61,300
1565023455,403.175,-51.0108,-15.8502,179.209,1.75781,-155.61,300
1565023455,403.175,-51.0108,-15.8502,179.209,1.75781,-155.61,300
1565023455,403.175,-51.0108,-15.8502,179.187,1.75781,-155.61,300
1565023455,403.175,-51.1225,-15.8502,179.187,1.75781,-155.61,300
1565023455,403.175,-51.1225,-15.8502,179.187,1.75781,-155.61,300
1565023455,403.175,-51.1225,-15.8502,179.187,1.75781,-155.61,300
1565023455,403.175,-51.1225,-15.8502,179.187,1.75781,-155.61,300
1565023455,403.175,-51.1225,-15.8502,179.187,1.75781,-155.61,300
1565023455,403.175,-51.1225,-15.8502,179.187,1.75781,-155.61,304
1565023455,403.175,-51.1225,-15.8502,179.187,1.75781,-155.588,300
1565023455,403.175,-51.1225,-15.8502,179.187,1.75781,-155.588,300
1565023455,403.175,-51.1225,-15.8502,179.187,1.75781,-155.588,300
1565023455,403.287,-51.0108,-15.8502,179.187,1.75781,-155.588,300
1565023455,403.287,-51.0108,-15.8502,179.187,1.75781,-155.588,300
1565023455,403.175,-51.0108,-15.8502,179.187,1.75781,-155.588,300
1565023455,403.175,-51.0108,-15.8502,179.209,1.75781,-155.588,300
1565023455,403.175,-51.0108,-15.8502,179.209,1.75781,-155.588,296
1565023455,403.175,-51.0108,-15.8502,179.209,1.73584,-155.588,296
1565023455,403.175,-51.0108,-15.8502,179.209,1.73584,-155.61,296
1565023455,403.175,-51.0108,-15.8502,179.209,1.73584,-155.61,296
1565023455,403.175,-51.0108,-15.9618,179.209,1.73584,-155.61,296
1565023455,403.175,-51.0108,-15.9618,179.209,1.73584,-155.61,296
1565023455,403.175,-51.0108,-15.9618,179.209,1.73584,-155.61,296
1565023455,403.175,-51.0108,-15.9618,179.209,1.73584,-155.61,296
1565023455,403.175,-51.0108,-15.9618,179.209,1.73584,-155.61,296
1565023455,403.175,-51.0108,-15.9618,179.209,1.73584,-155.61,300
1565023455,403.175,-51.0108,-15.9618,179.209,1.73584,-155.61,300
1565023455,403.175,-51.0108,-15.9618,179.209,1.73584,-155.61,300
1565023455,403.175,-51.0108,-15.9618,179.209,1.73584,-155.632,300
1565023455,403.175,-51.0108,-15.9618,179.209,1.73584,-155.632,300
1565023455,403.175,-51.0108,-15.9618,179.209,1.73584,-155.632,300
1565023455,403.287,-51.0108,-15.9618,179.209,1.73584,-155.632,300
1565023455,403.287,-51.0108,-15.9618,179.209,1.73584,-155.632,300
1565023455,403.287,-51.0108,-15.8502,179.209,1.73584,-155.632,300
1565023455,403.287,-51.0108,-15.8502,179.209,1.75781,-155.632,300
1565023455,403.287,-51.0108,-15.8502,179.209,1.75781,-155.632,300
1565023455,403.287,-51.0108,-15.8502,179.209,1.75781,-155.632,304
1565023455,403.287,-51.0108,-15.8502,179.209,1.75781,-155.632,304
1565023455,403.287,-51.0108,-15.8502,179.209,1.75781,-155.61,304
1565023455,403.287,-51.0108,-15.8502,179.209,1.75781,-155.61,304
1565023455,403.287,-51.0108,-15.8502,179.209,1.75781,-155.61,304
1565023455,403.287,-51.0108,-15.8502,179.209,1.75781,-155.61,304
1565023455,403.287,-51.0108,-15.8502,179.209,1.75781,-155.61,308
1565023455,403.287,-51.0108,-15.8502,179.231,1.75781,-155.61,308
1565023455,403.287,-51.0108,-15.8502,179.231,1.75781,-155.61,308
1565023455,403.287,-51.0108,-15.8502,179.231,1.75781,-155.61,308
1565023455,403.175,-51.0108,-15.8502,179.231,1.75781,-155.61,308
1565023455,403.175,-51.0108,-15.8502,179.231,1.75781,-155.61,308
1565023455,403.175,-51.0108,-15.8502,179.231,1.75781,-155.61,312
1565023455,403.175,-51.0108,-15.8502,179.231,1.75781,-155.61,312
1565023455,403.175,-51.0108,-15.8502,179.231,1.75781,-155.61,312
1565023455,403.175,-51.0108,-15.8502,179.231,1.75781,-155.61,312
1565023455,403.175,-51.0108,-15.8502,179.231,1.75781,-155.61,312
1565023455,403.175,-50.8992,-15.8502,179.231,1.73584,-155.61,312
1565023455,403.175,-50.8992,-15.8502,179.231,1.73584,-155.61,312
1565023455,403.175,-51.0108,-15.8502,179.231,1.73584,-155.61,312
1565023455,403.175,-51.0108,-15.8502,179.231,1.73584,-155.61,308
1565023455,403.175,-51.0108,-15.8502,179.231,1.73584,-155.61,308
1565023455,403.175,-51.0108,-15.8502,179.231,1.73584,-155.61,308
1565023456,403.175,-51.0108,-15.8502,179.231,1.73584,-155.61,308
1565023456,403.175,-51.0108,-15.8502,179.231,1.73584,-155.61,308
1565023456,403.175,-51.0108,-15.8502,179.231,1.73584,-155.61,308
1565023456,403.175,-51.0108,-15.8502,179.231,1.73584,-155.61,308
1565023456,403.175,-51.0108,-15.8502,179.231,1.73584,-155.61,308
1565023456,403.175,-50.8992,-15.8502,179.231,1.73584,-155.61,308
1565023456,403.175,-50.8992,-15.8502,179.231,1.73584,-155.61,308
1565023456,403.175,-50.8992,-15.8502,179.231,1.73584,-155.61,308
1565023456,403.287,-50.8992,-15.8502,179.231,1.73584,-155.61,308
1565023456,403.287,-50.8992,-15.8502,179.231,1.73584,-155.61,308
1565023456,403.287,-50.8992,-15.8502,179.231,1.73584,-155.61,312
1565023456,403.287,-50.8992,-15.8502,179.231,1.73584,-155.61,312
1565023456,403.287,-50.8992,-15.8502,179.253,1.73584,-155.61,312
1565023456,403.287,-50.8992,-15.8502,179.253,1.73584,-155.61,312
1565023456,403.287,-50.8992,-15.8502,179.253,1.73584,-155.61,308
1565023456,403.287,-50.8992,-15.8502,179.253,1.73584,-155.61,308
1565023456,403.287,-50.8992,-15.8502,179.231,1.73584,-155.61,308
1565023456,403.287,-50.8992,-15.8502,179.231,1.73584,-155.588,308
1565023456,403.287,-50.8992,-15.8502,179.231,1.73584,-155.61,308
1565023456,403.287,-50.8992,-15.9618,179.231,1.73584,-155.61,308
1565023456,403.287,-50.8992,-15.9618,179.231,1.73584,-155.61,304
1565023456,403.287,-50.8992,-15.9618,179.231,1.71387,-155.61,304
1565023456,403.287,-50.8992,-15.9618,179.231,1.71387,-155.61,304
1565023456,403.287,-50.8992,-15.9618,179.231,1.73584,-155.61,304
1565023456,403.287,-50.8992,-15.8502,179.231,1.73584,-155.61,300
1565023456,403.287,-50.8992,-15.8502,179.231,1.73584,-155.61,300
1565023456,403.287,-50.8992,-15.9618,179.231,1.71387,-155.61,300
1565023456,403.287,-50.8992,-15.9618,179.231,1.71387,-155.61,296
1565023456,403.287,-50.8992,-15.9618,179.231,1.71387,-155.61,296
1565023456,403.287,-50.8992,-15.9618,179.231,1.71387,-155.61,296
1565023456,403.287,-50.8992,-15.9618,179.231,1.71387,-155.61,292
1565023456,403.287,-50.8992,-15.9618,179.231,1.71387,-155.61,292
1565023456,403.287,-50.8992,-15.9618,179.231,1.73584,-155.61,288
1565023456,403.287,-50.8992,-15.9618,179.231,1.73584,-155.61,288
1565023456,403.287,-50.8992,-15.8502,179.231,1.73584,-155.61,288
1565023456,403.287,-51.0108,-15.8502,179.231,1.73584,-155.61,288
1565023456,403.287,-51.0108,-15.8502,179.209,1.73584,-155.61,284
1565023456,403.287,-51.0108,-15.8502,179.209,1.75781,-155.61,284
1565023456,403.287,-51.0108,-15.8502,179.209,1.75781,-155.61,284
1565023456,403.287,-51.0108,-15.8502,179.209,1.75781,-155.61,284
1565023456,403.287,-51.0108,-15.8502,179.209,1.75781,-155.61,284
1565023456,403.287,-51.0108,-15.7386,179.209,1.75781,-155.61,284
1565023456,403.287,-51.0108,-15.7386,179.209,1.75781,-155.61,284
1565023456,403.287,-51.0108,-15.7386,179.209,1.75781,-155.61,284
1565023456,403.287,-51.0108,-15.7386,179.209,1.77979,-155.61,284
1565023456,403.287,-51.0108,-15.7386,179.209,1.77979,-155.588,288
1565023456,403.287,-51.0108,-15.7386,179.209,1.77979,-155.588,288
1565023456,403.287,-51.0108,-15.7386,179.209,1.77979,-155.588,288
1565023456,403.287,-51.0108,-15.7386,179.209,1.77979,-155.588,288
1565023456,403.287,-51.0108,-15.7386,179.209,1.75781,-155.588,288
1565023456,403.287,-51.0108,-15.8502,179.209,1.75781,-155.588,292
1565023456,403.287,-51.0108,-15.8502,179.209,1.75781,-155.588,292
1565023456,403.287,-51.0108,-15.8502,179.209,1.75781,-155.588,292
1565023456,403.287,-51.0108,-15.8502,179.209,1.75781,-155.588,296
1565023456,403.287,-51.0108,-15.8502,179.209,1.75781,-155.588,296
1565023456,403.287,-51.0108,-15.8502,179.209,1.75781,-155.588,296
1565023456,403.287,-51.0108,-15.8502,179.209,1.75781,-155.61,300
1565023456,403.287,-51.0108,-15.8502,179.209,1.75781,-155.61,300
1565023456,403.287,-51.0108,-15.8502,179.209,1.75781,-155.61,300
1565023456,403.287,-51.0108,-15.8502,179.209,1.75781,-155.61,300
1565023456,403.287,-51.0108,-15.8502,179.209,1.75781,-155.61,300
1565023456,403.287,-51.0108,-15.8502,179.209,1.77979,-155.61,296
1565023456,403.287,-51.0108,-15.8502,179.209,1.77979,-155.61,296
1565023456,403.287,-51.0108,-15.8502,179.209,1.77979,-155.61,296
1565023456,403.287,-51.0108,-15.8502,179.209,1.77979,-155.61,292
1565023456,403.287,-51.0108,-15.8502,179.209,1.77979,-155.61,292
1565023456,403.287,-51.0108,-15.8502,179.209,1.75781,-155.61,292
1565023456,403.287,-51.0108,-15.8502,179.209,1.75781,-155.61,292
1565023456,403.287,-51.0108,-15.8502,179.209,1.75781,-155.61,292
1565023456,403.287,-51.0108,-15.8502,179.209,1.75781,-155.61,288
1565023456,403.287,-51.0108,-15.8502,179.209,1.75781,-155.61,288
1565023456,403.287,-51.0108,-15.8502,179.209,1.75781,-155.61,288
1565023456,403.287,-51.0108,-15.8502,179.209,1.73584,-155.61,288
1565023456,403.287,-51.0108,-15.8502,179.209,1.73584,-155.61,288
1565023456,403.287,-51.0108,-15.8502,179.209,1.73584,-155.61,292
1565023456,403.287,-51.0108,-15.8502,179.209,1.73584,-155.61,292
1565023456,403.287,-51.0108,-15.8502,179.231,1.73584,-155.61,292
1565023456,403.287,-51.0108,-15.8502,179.231,1.73584,-155.61,292
1565023456,403.287,-51.0108,-15.9618,179.231,1.73584,-155.61,292
1565023456,403.287,-51.0108,-15.9618,179.231,1.73584,-155.61,292
1565023456,403.287,-51.0108,-15.9618,179.231,1.73584,-155.61,292
1565023456,403.399,-51.0108,-15.9618,179.231,1.73584,-155.61,292
1565023456,403.399,-51.0108,-15.9618,179.231,1.73584,-155.61,292
1565023456,403.399,-51.0108,-15.9618,179.231,1.71387,-155.61,292
1565023456,403.399,-51.0108,-15.9618,179.231,1.71387,-155.61,292
1565023456,403.399,-51.0108,-15.9618,179.231,1.71387,-155.61,288
1565023456,403.399,-51.0108,-15.9618,179.231,1.71387,-155.61,288
1565023456,403.399,-51.0108,-15.9618,179.231,1.71387,-155.61,288
1565023456,403.399,-51.0108,-15.9618,179.231,1.71387,-155.61,288
1565023456,403.399,-51.0108,-15.9618,179.231,1.71387,-155.61,288
1565023456,403.399,-51.0108,-15.9618,179.231,1.71387,-155.61,288
1565023456,403.399,-51.0108,-15.9618,179.231,1.71387,-155.61,288
1565023456,403.399,-51.0108,-15.9618,179.231,1.71387,-155.632,288
1565023456,403.399,-51.0108,-15.9618,179.231,1.71387,-155.632,288
1565023456,403.399,-51.0108,-15.9618,179.231,1.71387,-155.632,288
1565023456,403.399,-51.0108,-15.9618,179.231,1.71387,-155.632,288
1565023456,403.399,-51.0108,-15.9618,179.231,1.71387,-155.632,288
1565023456,403.399,-51.0108,-15.9618,179.231,1.71387,-155.632,288
1565023456,403.399,-50.8992,-15.9618,179.231,1.71387,-155.654,288
1565023456,403.399,-50.8992,-15.9618,179.231,1.71387,-155.654,288
1565023457,403.287,-50.8992,-15.9618,179.231,1.71387,-155.654,292
1565023457,403.287,-50.8992,-15.9618,179.231,1.71387,-155.654,292
1565023457,403.287,-50.8992,-15.9618,179.231,1.71387,-155.654,292
1565023457,403.287,-50.8992,-15.9618,179.231,1.71387,-155.654,292
1565023457,403.287,-50.8992,-15.9618,179.231,1.71387,-155.654,292
1565023457,403.287,-50.8992,-15.9618,179.231,1.71387,-155.654,292
1565023457,403.287,-50.8992,-15.9618,179.231,1.71387,-155.654,292
1565023457,403.287,-50.8992,-15.9618,179.231,1.71387,-155.654,296
1565023457,403.287,-50.8992,-15.9618,179.231,1.71387,-155.654,296
1565023457,403.287,-50.8992,-15.9618,179.253,1.69189,-155.654,296
1565023457,403.287,-50.8992,-15.9618,179.253,1.69189,-155.654,296
1565023457,403.287,-50.8992,-15.9618,179.231,1.69189,-155.654,296
1565023457,403.287,-50.8992,-15.9618,179.231,1.69189,-155.654,296
1565023457,403.287,-50.8992,-15.9618,179.231,1.69189,-155.654,296
1565023457,403.287,-50.8992,-15.9618,179.231,1.69189,-155.654,296
1565023457,403.287,-50.8992,-15.9618,179.231,1.69189,-155.654,292
1565023457,403.399,-50.8992,-16.0734,179.231,1.69189,-155.654,292
1565023457,403.399,-50.8992,-16.0734,179.231,1.69189,-155.654,292
1565023457,403.399,-51.0108,-16.0734,179.231,1.69189,-155.654,292
1565023457,403.399,-51.0108,-16.0734,179.231,1.69189,-155.654,288
1565023457,403.399,-51.0108,-16.0734,179.209,1.69189,-155.654,288
1565023457,403.399,-51.0108,-15.9618,179.209,1.69189,-155.654,288
1565023457,403.399,-51.0108,-15.9618,179.209,1.69189,-155.654,288
1565023457,403.399,-51.0108,-15.9618,179.209,1.71387,-155.654,288
1565023457,403.399,-51.0108,-15.9618,179.209,1.71387,-155.632,284
1565023457,403.399,-51.0108,-15.9618,179.209,1.71387,-155.632,284
1565023457,403.287,-51.1225,-15.9618,179.209,1.71387,-155.632,284
1565023457,403.287,-51.1225,-15.9618,179.187,1.71387,-155.632,284
1565023457,403.287,-51.1225,-15.9618,179.187,1.71387,-155.632,288
1565023457,403.287,-51.1225,-15.9618,179.187,1.71387,-155.632,288
1565023457,403.287,-51.1225,-15.9618,179.187,1.71387,-155.632,288
1565023457,403.287,-51.1225,-15.9618,179.187,1.73584,-155.632,288
1565023457,403.287,-51.1225,-15.9618,179.187,1.73584,-155.632,288
1565023457,403.287,-51.1225,-15.9618,179.187,1.73584,-155.632,288
1565023457,403.287,-51.1225,-15.9618,179.187,1.73584,-155.61,288
1565023457,403.287,-51.1225,-15.9618,179.209,1.73584,-155.61,288
1565023457,403.287,-51.0108,-15.9618,179.209,1.71387,-155.61,288
1565023457,403.287,-51.0108,-15.9618,179.209,1.71387,-155.61,292
1565023457,403.287,-51.0108,-15.9618,179.209,1.71387,-155.61,292
1565023457,403.287,-51.0108,-15.9618,179.209,1.71387,-155.61,292
1565023457,403.287,-51.0108,-15.9618,179.209,1.71387,-155.61,292
1565023457,403.287,-51.0108,-15.9618,179.209,1.71387,-155.61,292
1565023457,403.287,-51.0108,-15.9618,179.209,1.71387,-155.61,292
1565023457,403.287,-51.0108,-15.9618,179.209,1.71387,-155.61,292
1565023457,403.287,-51.0108,-15.9618,179.209,1.71387,-155.61,292
1565023457,403.287,-51.1225,-15.9618,179.209,1.71387,-155.61,292
1565023457,403.287,-51.1225,-15.9618,179.187,1.71387,-155.61,296
1565023457,403.287,-51.1225,-15.9618,179.187,1.71387,-155.61,296
1565023457,403.287,-51.1225,-15.9618,179.187,1.71387,-155.61,296
1565023457,403.287,-51.1225,-15.9618,179.187,1.73584,-155.61,296
1565023457,403.287,-51.1225,-15.9618,179.187,1.73584,-155.61,296
1565023457,403.287,-51.1225,-15.9618,179.187,1.73584,-155.61,296
1565023457,403.287,-51.0108,-15.9618,179.187,1.73584,-155.61,296
1565023457,403.287,-51.0108,-15.9618,179.187,1.73584,-155.61,296
1565023457,403.287,-51.0108,-15.9618,179.209,1.73584,-155.61,296
1565023457,403.287,-51.0108,-15.9618,179.209,1.73584,-155.61,296
1565023457,403.287,-51.0108,-15.9618,179.209,1.73584,-155.61,296
1565023457,403.287,-51.0108,-15.9618,179.209,1.73584,-155.61,300
1565023457,403.287,-51.0108,-15.9618,179.209,1.73584,-155.61,300
1565023457,403.287,-51.0108,-15.9618,179.209,1.71387,-155.61,300
1565023457,403.287,-51.0108,-15.9618,179.231,1.71387,-155.61,300
1565023457,403.287,-51.0108,-15.9618,179.231,1.71387,-155.61,300
1565023457,403.287,-51.0108,-15.9618,179.231,1.71387,-155.61,304
1565023457,403.287,-51.0108,-15.9618,179.231,1.71387,-155.61,304
1565023457,403.287,-50.8992,-15.9618,179.231,1.71387,-155.61,304
1565023457,403.287,-50.8992,-15.9618,179.231,1.71387,-155.61,304
1565023457,403.287,-50.8992,-15.9618,179.231,1.71387,-155.61,304
1565023457,403.287,-51.0108,-15.9618,179.231,1.71387,-155.61,304
1565023457,403.287,-51.0108,-15.9618,179.231,1.71387,-155.61,304
1565023457,403.287,-51.0108,-15.9618,179.209,1.71387,-155.61,300
1565023457,403.287,-51.0108,-15.9618,179.209,1.71387,-155.61,300
1565023457,403.287,-51.0108,-16.0734,179.209,1.71387,-155.61,300
1565023457,403.287,-51.0108,-16.0734,179.209,1.71387,-155.61,300
1565023457,403.287,-51.0108,-16.0734,179.209,1.69189,-155.61,300
1565023457,403.287,-51.0108,-16.0734,179.209,1.69189,-155.61,300
1565023457,403.287,-51.0108,-16.0734,179.209,1.69189,-155.61,296
1565023457,403.287,-51.0108,-16.0734,179.209,1.69189,-155.61,296
1565023457,403.287,-51.0108,-16.0734,179.187,1.69189,-155.61,296
1565023457,403.287,-51.0108,-16.0734,179.187,1.69189,-155.61,296
1565023457,403.287,-51.0108,-16.0734,179.187,1.69189,-155.61,296
1565023457,403.399,-51.0108,-16.0734,179.187,1.69189,-155.61,296
1565023457,403.399,-51.0108,-16.0734,179.209,1.69189,-155.61,296
1565023457,403.399,-51.0108,-16.0734,179.209,1.69189,-155.61,296
1565023457,403.399,-51.0108,-16.0734,179.209,1.69189,-155.61,296
1565023457,403.399,-51.0108,-16.0734,179.209,1.69189,-155.61,296
1565023457,403.399,-51.0108,-16.0734,179.209,1.69189,-155.61,296
1565023457,403.399,-51.0108,-16.0734,179.209,1.69189,-155.61,296
1565023457,403.399,-51.0108,-15.9618,179.209,1.71387,-155.61,296
1565023457,403.399,-51.0108,-15.9618,179.209,1.71387,-155.61,296
1565023457,403.399,-51.0108,-15.9618,179.209,1.71387,-155.61,296
1565023457,403.399,-51.0108,-15.9618,179.209,1.71387,-155.61,296
1565023457,403.399,-51.0108,-15.9618,179.209,1.71387,-155.61,296
1565023457,403.399,-51.0108,-15.9618,179.209,1.73584,-155.61,296
1565023457,403.399,-51.0108,-15.9618,179.231,1.73584,-155.61,296
1565023457,403.399,-51.0108,-15.8502,179.231,1.73584,-155.61,296
1565023457,403.399,-51.0108,-15.8502,179.231,1.73584,-155.61,296
1565023457,403.399,-51.0108,-15.8502,179.231,1.73584,-155.61,296
1565023457,403.399,-51.0108,-15.8502,179.231,1.75781,-155.61,296
1565023457,403.399,-51.0108,-15.8502,179.231,1.75781,-155.61,296
1565023457,403.399,-51.0108,-15.8502,179.231,1.73584,-155.61,296
1565023458,403.399,-51.0108,-15.8502,179.231,1.73584,-155.61,296
1565023458,403.399,-51.0108,-15.8502,179.231,1.73584,-155.61,296
1565023458,403.399,-51.0108,-15.8502,179.231,1.73584,-155.61,300
1565023458,403.399,-51.0108,-15.8502,179.231,1.73584,-155.61,300
1565023458,403.399,-51.0108,-15.8502,179.231,1.73584,-155.61,300
1565023458,403.399,-51.0108,-15.8502,179.231,1.73584,-155.61,300
1565023458,403.399,-51.0108,-15.8502,179.231,1.73584,-155.61,300
1565023458,403.399,-51.0108,-15.8502,179.231,1.73584,-155.61,304
1565023458,403.399,-51.0108,-15.8502,179.231,1.73584,-155.61,304
1565023458,403.287,-51.0108,-15.8502,179.231,1.73584,-155.61,304
1565023458,403.287,-51.0108,-15.8502,179.231,1.73584,-155.61,304
1565023458,403.287,-50.8992,-15.8502,179.231,1.75781,-155.61,304
1565023458,403.287,-51.0108,-15.8502,179.231,1.75781,-155.61,304
1565023458,403.287,-51.0108,-15.8502,179.231,1.75781,-155.61,304
1565023458,403.287,-51.0108,-15.8502,179.231,1.75781,-155.61,308
1565023458,403.287,-51.0108,-15.8502,179.209,1.75781,-155.61,308
1565023458,403.287,-51.0108,-15.8502,179.209,1.75781,-155.61,308
1565023458,403.287,-51.0108,-15.8502,179.209,1.75781,-155.61,308
1565023458,403.287,-51.0108,-15.8502,179.209,1.75781,-155.588,308
1565023458,403.287,-51.0108,-15.7386,179.209,1.75781,-155.588,304
1565023458,403.287,-51.0108,-15.7386,179.209,1.75781,-155.588,304
1565023458,403.287,-51.0108,-15.7386,179.209,1.75781,-155.588,304
1565023458,403.287,-51.0108,-15.7386,179.209,1.75781,-155.588,304
1565023458,403.287,-51.0108,-15.7386,179.209,1.75781,-155.588,304
1565023458,403.287,-51.0108,-15.7386,179.209,1.75781,-155.588,304
1565023458,403.287,-51.0108,-15.8502,179.209,1.75781,-155.61,300
1565023458,403.175,-51.0108,-15.8502,179.209,1.75781,-155.61,300
1565023458,403.175,-51.0108,-15.8502,179.209,1.75781,-155.61,300
1565023458,403.175,-51.0108,-15.8502,179.209,1.75781,-155.61,300
1565023458,403.175,-51.0108,-15.8502,179.209,1.75781,-155.61,300
1565023458,403.175,-51.0108,-15.8502,179.209,1.75781,-155.61,300
1565023458,403.175,-51.0108,-15.8502,179.209,1.75781,-155.61,300
1565023458,403.175,-51.0108,-15.8502,179.209,1.75781,-155.61,304
1565023458,403.175,-51.0108,-15.8502,179.209,1.75781,-155.61,304
1565023458,403.175,-51.0108,-15.7386,179.209,1.75781,-155.61,304
1565023458,403.175,-51.0108,-15.7386,179.209,1.75781,-155.61,304
1565023458,403.175,-51.0108,-15.7386,179.209,1.75781,-155.61,304
1565023458,403.175,-51.0108,-15.7386,179.209,1.75781,-155.61,308
1565023458,403.175,-51.0108,-15.7386,179.209,1.77979,-155.61,308
1565023458,403.175,-51.0108,-15.7386,179.209,1.77979,-155.61,308
1565023458,403.175,-51.0108,-15.7386,179.209,1.77979,-155.61,308
1565023458,403.175,-51.0108,-15.7386,179.209,1.77979,-155.61,308
1565023458,403.175,-51.0108,-15.7386,179.231,1.75781,-155.61,312
1565023458,403.175,-51.0108,-15.7386,179.231,1.75781,-155.61,312
1565023458,403.175,-51.0108,-15.7386,179.231,1.75781,-155.61,312
1565023458,403.175,-51.0108,-15.8502,179.231,1.75781,-155.61,312
1565023458,403.175,-51.0108,-15.8502,179.231,1.75781,-155.61,312
1565023458,403.175,-51.0108,-15.8502,179.231,1.75781,-155.61,312
1565023458,403.175,-51.0108,-15.8502,179.231,1.75781,-155.61,312
1565023458,403.175,-51.0108,-15.8502,179.231,1.73584,-155.61,312
1565023458,403.175,-51.0108,-15.8502,179.231,1.73584,-155.61,316
