time,x,y,z,ax,ay,az,q
1567618600,289.545,157.386,-17.4129,178.528,1.16455,-155.522,196
1567618600,289.545,157.386,-17.4129,178.528,1.16455,-155.522,196
1567618600,289.545,157.386,-17.4129,178.528,1.16455,-155.522,196
1567618600,289.545,157.274,-17.4129,178.528,1.16455,-155.522,196
1567618600,289.545,157.274,-17.4129,178.528,1.16455,-155.522,196
1567618600,289.545,157.274,-17.4129,178.528,1.16455,-155.522,196
1567618600,289.545,157.386,-17.4129,178.528,1.16455,-155.522,196
1567618600,289.545,157.386,-17.3013,178.528,1.16455,-155.522,200
1567618600,289.545,157.386,-17.3013,178.528,1.16455,-155.522,200
1567618600,289.545,157.386,-17.3013,178.528,1.18652,-155.522,200
1567618600,289.545,157.386,-17.3013,178.528,1.18652,-155.522,200
1567618600,289.545,157.386,-17.3013,178.528,1.18652,-155.522,200
1567618600,289.545,157.386,-17.3013,178.528,1.18652,-155.522,200
1567618600,289.545,157.386,-17.3013,178.528,1.18652,-155.522,196
1567618600,289.545,157.386,-17.3013,178.528,1.18652,-155.522,196
1567618600,289.545,157.386,-17.3013,178.528,1.18652,-155.522,196
1567618600,289.545,157.386,-17.3013,178.528,1.18652,-155.522,196
1567618600,289.545,157.386,-17.3013,178.528,1.18652,-155.522,196
1567618600,289.545,157.274,-17.3013,178.528,1.18652,-155.522,196
1567618600,289.545,157.274,-17.3013,178.528,1.18652,-155.522,196
1567618600,289.545,157.274,-17.3013,178.528,1.18652,-155.522,196
1567618600,289.545,157.274,-17.3013,178.528,1.18652,-155.522,196
1567618600,289.545,157.274,-17.3013,178.528,1.18652,-155.522,196
1567618600,289.545,157.274,-17.3013,178.528,1.18652,-155.522,196
1567618600,289.545,157.274,-17.3013,178.528,1.18652,-155.522,196
1567618600,289.545,157.274,-17.3013,178.528,1.18652,-155.522,196
1567618600,289.434,157.274,-17.3013,178.528,1.16455,-155.522,196
1567618600,289.434,157.274,-17.3013,178.528,1.16455,-155.522,196
1567618600,289.434,157.274,-17.3013,178.528,1.16455,-155.522,196
1567618600,289.434,157.274,-17.3013,178.528,1.16455,-155.522,196
1567618600,289.434,157.386,-17.3013,178.528,1.16455,-155.522,196
1567618600,289.434,157.386,-17.4129,178.528,1.16455,-155.522,196
1567618600,289.434,157.386,-17.4129,178.528,1.16455,-155.522,196
1567618600,289.434,157.386,-17.4129,178.55,1.16455,-155.522,196
1567618600,289.434,157.386,-17.4129,178.55,1.16455,-155.522,196
1567618600,289.434,157.386,-17.3013,178.55,1.16455,-155.522,196
1567618600,289.434,157.386,-17.3013,178.55,1.16455,-155.522,196
1567618600,289.434,157.386,-17.3013,178.55,1.18652,-155.522,196
1567618600,289.434,157.386,-17.3013,178.55,1.18652,-155.522,192
1567618600,289.434,157.386,-17.3013,178.55,1.18652,-155.522,192
1567618600,289.434,157.386,-17.3013,178.55,1.18652,-155.522,192
1567618600,289.434,157.386,-17.3013,178.55,1.18652,-155.522,192
1567618600,289.434,157.386,-17.3013,178.55,1.18652,-155.522,196
1567618600,289.434,157.386,-17.3013,178.55,1.18652,-155.522,196
1567618600,289.434,157.386,-17.3013,178.55,1.18652,-155.522,196
1567618600,289.434,157.386,-17.3013,178.55,1.18652,-155.522,196
1567618600,289.434,157.386,-17.3013,178.55,1.18652,-155.522,196
1567618600,289.434,157.386,-17.3013,178.55,1.18652,-155.522,196
1567618600,289.434,157.386,-17.3013,178.55,1.18652,-155.522,196
1567618600,289.434,157.386,-17.3013,178.55,1.18652,-155.522,196
1567618600,289.434,157.386,-17.3013,178.55,1.18652,-155.522,200
1567618600,289.434,157.386,-17.3013,178.55,1.18652,-155.522,200
1567618600,289.434,157.386,-17.3013,178.55,1.18652,-155.522,200
1567618600,289.434,157.386,-17.3013,178.55,1.18652,-155.522,200
1567618600,289.434,157.386,-17.3013,178.55,1.18652,-155.522,200
1567618600,289.434,157.386,-17.3013,178.55,1.18652,-155.522,200
1567618601,289.434,157.386,-17.3013,178.55,1.18652,-155.522,200
1567618601,289.434,157.386,-17.3013,178.55,1.18652,-155.522,200
1567618601,289.434,157.386,-17.3013,178.55,1.18652,-155.522,200
1567618601,289.434,157.386,-17.3013,178.55,1.18652,-155.522,200
1567618601,289.434,157.386,-17.3013,178.55,1.18652,-155.522,200
1567618601,289.434,157.386,-17.3013,178.55,1.18652,-155.522,200
1567618601,289.434,157.386,-17.3013,178.55,1.18652,-155.522,200
1567618601,289.434,157.386,-17.3013,178.55,1.18652,-155.522,200
1567618601,289.434,157.386,-17.3013,178.55,1.18652,-155.522,200
1567618601,289.434,157.386,-17.3013,178.55,1.18652,-155.522,200
1567618601,289.434,157.274,-17.3013,178.55,1.18652,-155.522,200
1567618601,289.434,157.274,-17.3013,178.528,1.18652,-155.522,200
1567618601,289.434,157.274,-17.3013,178.528,1.18652,-155.522,200
1567618601,289.434,157.274,-17.3013,178.528,1.18652,-155.522,200
1567618601,289.434,157.274,-17.3013,178.528,1.18652,-155.522,200
1567618601,289.434,157.274,-17.3013,178.528,1.18652,-155.522,200
1567618601,289.434,157.274,-17.3013,178.528,1.18652,-155.522,200
1567618601,289.434,157.274,-17.3013,178.528,1.18652,-155.522,200
1567618601,289.434,157.274,-17.3013,178.528,1.18652,-155.522,200
1567618601,289.434,157.274,-17.3013,178.528,1.18652,-155.522,200
1567618601,289.434,157.274,-17.3013,178.528,1.18652,-155.522,200
1567618601,289.434,157.274,-17.3013,178.528,1.18652,-155.522,200
1567618601,289.434,157.274,-17.3013,178.528,1.18652,-155.522,200
1567618601,289.434,157.274,-17.3013,178.528,1.18652,-155.522,200
1567618601,289.434,157.274,-17.3013,178.528,1.18652,-155.522,200
1567618601,289.434,157.274,-17.3013,178.528,1.18652,-155.522,200
1567618601,289.434,157.274,-17.3013,178.528,1.18652,-155.522,200
1567618601,289.434,157.274,-17.3013,178.528,1.18652,-155.522,200
1567618601,289.434,157.274,-17.3013,178.528,1.18652,-155.522,200
1567618601,289.434,157.274,-17.3013,178.528,1.18652,-155.522,200
1567618601,289.434,157.274,-17.3013,178.528,1.18652,-155.522,200
1567618601,289.434,157.274,-17.3013,178.528,1.18652,-155.522,200
1567618601,289.434,157.274,-17.3013,178.528,1.18652,-155.522,200
1567618601,289.434,157.274,-17.3013,178.528,1.18652,-155.522,200
1567618601,289.434,157.386,-17.3013,178.55,1.18652,-155.522,200
1567618601,289.434,157.386,-17.3013,178.55,1.18652,-155.522,200
1567618601,289.434,157.386,-17.3013,178.55,1.16455,-155.522,200
1567618601,289.434,157.386,-17.3013,178.55,1.16455,-155.522,200
1567618601,289.434,157.386,-17.3013,178.55,1.16455,-155.522,200
1567618601,289.434,157.386,-17.3013,178.55,1.16455,-155.522,200
1567618601,289.434,157.386,-17.4129,178.55,1.16455,-155.522,200
1567618601,289.434,157.386,-17.4129,178.55,1.16455,-155.522,200
1567618601,289.434,157.386,-17.4129,178.55,1.16455,-155.522,200
1567618601,289.434,157.386,-17.4129,178.55,1.16455,-155.522,200
1567618601,289.434,157.386,-17.4129,178.55,1.16455,-155.522,200
1567618601,289.434,157.386,-17.4129,178.55,1.16455,-155.522,200
1567618601,289.434,157.386,-17.4129,178.55,1.16455,-155.522,200
1567618601,289.434,157.386,-17.4129,178.55,1.16455,-155.522,200
1567618601,289.434,157.386,-17.4129,178.55,1.16455,-155.522,200
1567618601,289.434,157.386,-17.4129,178.55,1.16455,-155.522,200
1567618601,289.434,157.386,-17.4129,178.55,1.16455,-155.522,200
1567618601,289.434,157.386,-17.4129,178.55,1.16455,-155.522,200
1567618601,289.434,157.386,-17.4129,178.55,1.16455,-155.522,196
1567618601,289.434,157.386,-17.4129,178.55,1.16455,-155.522,196
1567618601,289.434,157.386,-17.4129,178.55,1.16455,-155.522,196
1567618601,289.434,157.386,-17.4129,178.55,1.16455,-155.522,196
1567618601,289.434,157.386,-17.4129,178.55,1.16455,-155.522,196
1567618601,289.434,157.386,-17.3013,178.55,1.16455,-155.522,196
1567618601,289.434,157.386,-17.3013,178.55,1.16455,-155.522,196
1567618601,289.434,157.386,-17.3013,178.55,1.16455,-155.522,196
1567618601,289.434,157.386,-17.4129,178.55,1.16455,-155.522,196
1567618601,289.434,157.386,-17.4129,178.55,1.16455,-155.522,196
1567618601,289.434,157.386,-17.4129,178.55,1.16455,-155.522,196
1567618601,289.434,157.386,-17.4129,178.55,1.16455,-155.522,196
1567618601,289.434,157.386,-17.4129,178.55,1.16455,-155.522,196
1567618601,289.434,157.386,-17.4129,178.55,1.16455,-155.522,196
1567618601,289.434,157.386,-17.4129,178.55,1.16455,-155.522,196
1567618601,289.434,157.386,-17.4129,178.55,1.16455,-155.522,196
1567618601,289.434,157.386,-17.4129,178.55,1.16455,-155.522,192
1567618601,289.434,157.386,-17.4129,178.55,1.16455,-155.522,192
1567618601,289.434,157.386,-17.4129,178.55,1.16455,-155.522,192
1567618601,289.434,157.386,-17.4129,178.55,1.16455,-155.522,192
1567618601,289.434,157.386,-17.4129,178.55,1.16455,-155.522,192
1567618601,289.434,157.386,-17.4129,178.55,1.16455,-155.522,192
1567618601,289.434,157.386,-17.4129,178.55,1.16455,-155.522,192
1567618601,289.434,157.386,-17.4129,178.55,1.16455,-155.522,192
1567618601,289.434,157.386,-17.4129,178.55,1.16455,-155.522,192
1567618601,289.434,157.386,-17.4129,178.55,1.16455,-155.522,192
1567618601,289.434,157.386,-17.4129,178.55,1.16455,-155.522,188
1567618601,289.434,157.386,-17.4129,178.55,1.16455,-155.522,188
1567618601,289.434,157.386,-17.4129,178.55,1.16455,-155.522,188
1567618601,289.434,157.386,-17.4129,178.55,1.16455,-155.522,188
1567618601,289.434,157.386,-17.4129,178.55,1.16455,-155.522,188
1567618601,289.434,157.386,-17.4129,178.55,1.16455,-155.522,188
1567618601,289.434,157.386,-17.4129,178.55,1.16455,-155.522,188
1567618601,289.434,157.386,-17.4129,178.55,1.16455,-155.522,188
1567618601,289.434,157.386,-17.4129,178.55,1.16455,-155.522,188
1567618601,289.434,157.386,-17.4129,178.55,1.16455,-155.522,188
1567618601,289.434,157.386,-17.4129,178.55,1.16455,-155.522,192
1567618601,289.434,157.386,-17.4129,178.55,1.16455,-155.522,192
1567618601,289.434,157.386,-17.4129,178.55,1.16455,-155.522,192
1567618601,289.434,157.386,-17.4129,178.55,1.16455,-155.522,192
1567618601,289.434,157.386,-17.4129,178.55,1.16455,-155.522,192
1567618601,289.434,157.386,-17.4129,178.55,1.16455,-155.522,192
1567618601,289.434,157.386,-17.4129,178.55,1.16455,-155.522,192
1567618601,289.434,157.386,-17.4129,178.55,1.16455,-155.522,192
1567618601,289.434,157.386,-17.4129,178.55,1.16455,-155.522,192
1567618601,289.434,157.386,-17.4129,178.55,1.16455,-155.522,192
1567618601,289.434,157.386,-17.4129,178.572,1.16455,-155.522,196
1567618601,289.434,157.386,-17.4129,178.572,1.16455,-155.522,196
1567618601,289.434,157.386,-17.4129,178.572,1.16455,-155.522,196
1567618602,289.434,157.386,-17.4129,178.572,1.16455,-155.522,196
1567618602,289.434,157.386,-17.4129,178.572,1.16455,-155.522,196
1567618602,289.434,157.386,-17.4129,178.572,1.16455,-155.522,196
1567618602,289.434,157.386,-17.4129,178.572,1.16455,-155.522,196
1567618602,289.434,157.386,-17.4129,178.55,1.16455,-155.522,196
1567618602,289.434,157.386,-17.4129,178.55,1.16455,-155.522,196
1567618602,289.434,157.386,-17.4129,178.55,1.16455,-155.522,200
1567618602,289.434,157.386,-17.4129,178.55,1.16455,-155.522,200
1567618602,289.434,157.386,-17.4129,178.55,1.16455,-155.522,200
1567618602,289.434,157.386,-17.4129,178.55,1.16455,-155.522,200
1567618602,289.434,157.386,-17.4129,178.55,1.16455,-155.522,200
1567618602,289.434,157.386,-17.4129,178.55,1.16455,-155.522,200
1567618602,289.434,157.386,-17.4129,178.55,1.16455,-155.522,204
1567618602,289.434,157.386,-17.4129,178.55,1.16455,-155.522,204
1567618602,289.434,157.386,-17.4129,178.55,1.16455,-155.522,204
1567618602,289.434,157.386,-17.4129,178.55,1.16455,-155.522,204
1567618602,289.434,157.386,-17.4129,178.55,1.16455,-155.522,204
1567618602,289.434,157.386,-17.4129,178.55,1.16455,-155.522,204
1567618602,289.434,157.386,-17.4129,178.55,1.16455,-155.522,204
1567618602,289.434,157.386,-17.4129,178.55,1.16455,-155.522,208
1567618602,289.434,157.386,-17.4129,178.55,1.16455,-155.522,208
1567618602,289.434,157.386,-17.4129,178.55,1.16455,-155.522,208
1567618602,289.434,157.386,-17.4129,178.55,1.16455,-155.522,208
1567618602,289.434,157.386,-17.4129,178.55,1.16455,-155.522,208
1567618602,289.434,157.386,-17.4129,178.55,1.16455,-155.522,208
1567618602,289.434,157.386,-17.4129,178.55,1.16455,-155.522,208
1567618602,289.434,157.386,-17.4129,178.55,1.16455,-155.522,208
1567618602,289.434,157.386,-17.4129,178.55,1.16455,-155.522,208
1567618602,289.434,157.386,-17.4129,178.55,1.16455,-155.522,208
1567618602,289.434,157.386,-17.4129,178.55,1.16455,-155.522,208
1567618602,289.434,157.386,-17.4129,178.55,1.16455,-155.522,208
1567618602,289.434,157.386,-17.4129,178.55,1.16455,-155.522,208
1567618602,289.434,157.386,-17.4129,178.55,1.16455,-155.522,208
1567618602,289.434,157.386,-17.4129,178.55,1.16455,-155.522,208
1567618602,289.434,157.386,-17.4129,178.55,1.16455,-155.522,208
1567618602,289.434,157.274,-17.4129,178.55,1.16455,-155.522,208
1567618602,289.434,157.274,-17.4129,178.55,1.16455,-155.522,208
1567618602,289.434,157.274,-17.4129,178.55,1.16455,-155.522,204
1567618602,289.434,157.274,-17.4129,178.55,1.16455,-155.522,204
1567618602,289.434,157.274,-17.4129,178.55,1.16455,-155.522,204
1567618602,289.434,157.386,-17.4129,178.55,1.16455,-155.522,204
1567618602,289.434,157.386,-17.4129,178.55,1.16455,-155.522,204
1567618602,289.434,157.386,-17.4129,178.55,1.16455,-155.522,204
1567618602,289.434,157.386,-17.4129,178.55,1.16455,-155.522,204
1567618602,289.434,157.386,-17.4129,178.55,1.16455,-155.522,204
1567618602,289.434,157.386,-17.4129,178.55,1.16455,-155.522,204
1567618602,289.434,157.386,-17.4129,178.55,1.16455,-155.522,200
1567618602,289.434,157.274,-17.4129,178.528,1.16455,-155.522,200
1567618602,289.434,157.274,-17.4129,178.528,1.16455,-155.522,200
1567618602,289.434,157.274,-17.4129,178.528,1.16455,-155.522,200
1567618602,289.434,157.274,-17.4129,178.528,1.16455,-155.522,200
1567618602,289.434,157.274,-17.4129,178.528,1.16455,-155.522,200
1567618602,289.434,157.274,-17.3013,178.528,1.16455,-155.522,200
1567618602,289.434,157.274,-17.3013,178.528,1.16455,-155.522,200
1567618602,289.434,157.274,-17.3013,178.528,1.16455,-155.522,200
1567618602,289.434,157.274,-17.3013,178.528,1.16455,-155.522,200
1567618602,289.434,157.274,-17.3013,178.528,1.16455,-155.522,200
1567618602,289.434,157.274,-17.3013,178.528,1.16455,-155.522,200
1567618602,289.434,157.274,-17.3013,178.528,1.16455,-155.522,200
1567618602,289.434,157.274,-17.3013,178.528,1.16455,-155.522,200
1567618602,289.434,157.274,-17.3013,178.528,1.16455,-155.522,200
1567618602,289.434,157.274,-17.3013,178.528,1.16455,-155.522,200
1567618602,289.434,157.274,-17.3013,178.528,1.16455,-155.522,200
1567618602,289.434,157.274,-17.3013,178.528,1.16455,-155.522,200
1567618602,289.434,157.274,-17.3013,178.528,1.16455,-155.522,200
1567618602,289.434,157.274,-17.3013,178.528,1.16455,-155.522,200
1567618602,289.434,157.274,-17.3013,178.528,1.16455,-155.522,200
1567618602,289.434,157.274,-17.3013,178.528,1.18652,-155.522,200
1567618602,289.434,157.274,-17.3013,178.528,1.18652,-155.522,200
1567618602,289.434,157.274,-17.3013,178.528,1.18652,-155.522,200
1567618602,289.434,157.274,-17.3013,178.528,1.18652,-155.522,200
1567618602,289.434,157.274,-17.3013,178.528,1.18652,-155.522,200
1567618602,289.434,157.274,-17.3013,178.528,1.18652,-155.522,200
1567618602,289.434,157.274,-17.3013,178.528,1.18652,-155.522,196
1567618602,289.434,157.274,-17.3013,178.528,1.18652,-155.522,196
1567618602,289.545,157.274,-17.3013,178.528,1.18652,-155.522,196
1567618602,289.545,157.274,-17.3013,178.528,1.18652,-155.522,196
1567618602,289.545,157.274,-17.3013,178.506,1.16455,-155.522,196
1567618602,289.545,157.274,-17.3013,178.506,1.16455,-155.522,196
1567618602,289.545,157.274,-17.3013,178.506,1.16455,-155.522,196
1567618602,289.545,157.274,-17.3013,178.506,1.16455,-155.522,196
1567618602,289.545,157.274,-17.3013,178.506,1.16455,-155.522,196
1567618602,289.545,157.274,-17.3013,178.506,1.16455,-155.522,196
1567618602,289.545,157.274,-17.3013,178.506,1.16455,-155.522,196
1567618602,289.545,157.274,-17.4129,178.506,1.16455,-155.522,196
1567618602,289.545,157.274,-17.4129,178.506,1.16455,-155.522,196
1567618602,289.545,157.274,-17.4129,178.506,1.16455,-155.522,196
1567618602,289.545,157.274,-17.4129,178.506,1.16455,-155.522,196
1567618602,289.545,157.274,-17.4129,178.506,1.16455,-155.522,196
1567618602,289.545,157.274,-17.4129,178.506,1.16455,-155.522,196
1567618602,289.545,157.274,-17.4129,178.506,1.16455,-155.522,196
1567618602,289.545,157.274,-17.4129,178.506,1.16455,-155.522,196
1567618602,289.545,157.274,-17.4129,178.506,1.16455,-155.522,192
1567618602,289.545,157.274,-17.4129,178.506,1.16455,-155.522,192
1567618602,289.545,157.274,-17.4129,178.506,1.16455,-155.522,192
1567618602,289.545,157.274,-17.4129,178.506,1.16455,-155.522,192
1567618602,289.545,157.274,-17.4129,178.506,1.16455,-155.522,192
1567618602,289.545,157.274,-17.3013,178.506,1.16455,-155.522,192
1567618602,289.545,157.274,-17.3013,178.506,1.16455,-155.522,192
1567618602,289.545,157.274,-17.3013,178.506,1.16455,-155.522,192
1567618603,289.545,157.274,-17.3013,178.506,1.16455,-155.522,192
1567618603,289.545,157.274,-17.3013,178.506,1.16455,-155.522,192
1567618603,289.545,157.274,-17.3013,178.506,1.16455,-155.522,192
1567618603,289.545,157.274,-17.4129,178.506,1.16455,-155.522,192
1567618603,289.545,157.274,-17.4129,178.506,1.16455,-155.522,192
1567618603,289.545,157.274,-17.4129,178.506,1.16455,-155.522,192
1567618603,289.545,157.274,-17.4129,178.506,1.16455,-155.522,192
1567618603,289.545,157.274,-17.4129,178.506,1.16455,-155.522,192
1567618603,289.545,157.274,-17.4129,178.506,1.16455,-155.522,192
1567618603,289.545,157.274,-17.4129,178.506,1.16455,-155.522,192
1567618603,289.545,157.274,-17.4129,178.506,1.16455,-155.522,192
1567618603,289.545,157.274,-17.4129,178.506,1.14258,-155.522,192
1567618603,289.545,157.274,-17.4129,178.528,1.14258,-155.522,192
1567618603,289.545,157.274,-17.4129,178.528,1.14258,-155.522,192
1567618603,289.545,157.274,-17.4129,178.528,1.16455,-155.522,192
1567618603,289.545,157.274,-17.4129,178.528,1.16455,-155.522,192
1567618603,289.434,157.274,-17.4129,178.528,1.16455,-155.522,192
1567618603,289.434,157.274,-17.4129,178.528,1.16455,-155.522,192
1567618603,289.434,157.274,-17.4129,178.528,1.16455,-155.522,192
1567618603,289.434,157.274,-17.4129,178.528,1.16455,-155.522,192
1567618603,289.434,157.274,-17.4129,178.528,1.16455,-155.522,192
1567618603,289.434,157.386,-17.4129,178.528,1.16455,-155.5,192
1567618603,289.434,157.386,-17.4129,178.528,1.16455,-155.5,192
1567618603,289.434,157.386,-17.4129,178.528,1.16455,-155.5,192
1567618603,289.434,157.386,-17.4129,178.528,1.16455,-155.5,192
1567618603,289.434,157.386,-17.4129,178.528,1.16455,-155.5,192
1567618603,289.434,157.386,-17.4129,178.55,1.16455,-155.5,192
1567618603,289.434,157.386,-17.4129,178.55,1.16455,-155.5,192
1567618603,289.434,157.386,-17.4129,178.55,1.16455,-155.5,192
1567618603,289.434,157.386,-17.4129,178.55,1.16455,-155.5,192
1567618603,289.434,157.386,-17.4129,178.55,1.16455,-155.5,192
1567618603,289.434,157.386,-17.4129,178.55,1.16455,-155.5,192
1567618603,289.434,157.386,-17.4129,178.55,1.16455,-155.5,192
1567618603,289.434,157.386,-17.4129,178.55,1.16455,-155.5,192
1567618603,289.434,157.386,-17.4129,178.55,1.16455,-155.5,192
1567618603,289.434,157.386,-17.4129,178.55,1.16455,-155.5,192
1567618603,289.434,157.386,-17.4129,178.55,1.16455,-155.5,192
1567618603,289.434,157.386,-17.4129,178.55,1.16455,-155.5,196
1567618603,289.434,157.386,-17.4129,178.55,1.16455,-155.5,196
1567618603,289.434,157.386,-17.4129,178.55,1.16455,-155.5,196
1567618603,289.434,157.386,-17.4129,178.55,1.16455,-155.5,196
1567618603,289.434,157.386,-17.4129,178.55,1.16455,-155.5,196
1567618603,289.434,157.386,-17.4129,178.55,1.16455,-155.5,196
1567618603,289.434,157.386,-17.4129,178.55,1.16455,-155.5,196
1567618603,289.434,157.386,-17.4129,178.55,1.14258,-155.5,196
1567618603,289.434,157.386,-17.4129,178.55,1.14258,-155.5,196
1567618603,289.434,157.386,-17.4129,178.55,1.14258,-155.5,196
1567618603,289.434,157.386,-17.4129,178.55,1.14258,-155.5,196
1567618603,289.434,157.386,-17.4129,178.55,1.14258,-155.5,196
1567618603,289.434,157.386,-17.4129,178.55,1.14258,-155.5,196
1567618603,289.434,157.386,-17.4129,178.528,1.14258,-155.5,196
1567618603,289.434,157.274,-17.4129,178.528,1.14258,-155.5,196
1567618603,289.434,157.274,-17.4129,178.528,1.14258,-155.5,196
1567618603,289.434,157.274,-17.4129,178.528,1.14258,-155.5,196
1567618603,289.434,157.274,-17.4129,178.528,1.14258,-155.5,196
1567618603,289.434,157.274,-17.4129,178.528,1.14258,-155.5,196
1567618603,289.434,157.274,-17.4129,178.528,1.14258,-155.5,196
1567618603,289.434,157.274,-17.4129,178.528,1.14258,-155.5,196
1567618603,289.434,157.274,-17.4129,178.528,1.14258,-155.5,196
1567618603,289.434,157.274,-17.4129,178.528,1.14258,-155.5,196
1567618603,289.434,157.274,-17.4129,178.528,1.14258,-155.5,196
1567618603,289.434,157.274,-17.4129,178.528,1.14258,-155.522,196
1567618603,289.434,157.274,-17.4129,178.528,1.14258,-155.522,200
1567618603,289.434,157.274,-17.4129,178.528,1.14258,-155.522,200
1567618603,289.434,157.274,-17.4129,178.528,1.16455,-155.522,200
1567618603,289.434,157.274,-17.4129,178.528,1.16455,-155.522,200
1567618603,289.434,157.274,-17.4129,178.528,1.16455,-155.522,200
1567618603,289.434,157.274,-17.4129,178.528,1.16455,-155.522,200
1567618603,289.434,157.274,-17.4129,178.528,1.16455,-155.522,200
1567618603,289.434,157.274,-17.4129,178.528,1.16455,-155.522,200
1567618603,289.434,157.386,-17.4129,178.528,1.16455,-155.522,200
1567618603,289.434,157.386,-17.4129,178.528,1.16455,-155.522,200
1567618603,289.434,157.386,-17.4129,178.528,1.16455,-155.522,196
1567618603,289.434,157.386,-17.4129,178.55,1.16455,-155.522,196
1567618603,289.434,157.386,-17.4129,178.55,1.16455,-155.522,196
1567618603,289.434,157.386,-17.4129,178.55,1.16455,-155.522,196
1567618603,289.434,157.386,-17.4129,178.55,1.16455,-155.522,196
1567618603,289.434,157.386,-17.4129,178.55,1.16455,-155.522,196
1567618603,289.434,157.386,-17.4129,178.55,1.16455,-155.522,196
1567618603,289.434,157.386,-17.4129,178.55,1.16455,-155.522,196
1567618603,289.434,157.386,-17.4129,178.55,1.16455,-155.522,196
1567618603,289.434,157.386,-17.4129,178.55,1.16455,-155.522,196
1567618603,289.434,157.386,-17.4129,178.55,1.16455,-155.522,196
1567618603,289.434,157.386,-17.4129,178.55,1.16455,-155.522,196
1567618603,289.434,157.386,-17.4129,178.55,1.18652,-155.522,196
1567618603,289.434,157.386,-17.4129,178.55,1.18652,-155.522,196
1567618603,289.434,157.386,-17.3013,178.55,1.18652,-155.522,196
1567618603,289.434,157.386,-17.3013,178.55,1.18652,-155.522,196
1567618603,289.434,157.386,-17.3013,178.55,1.18652,-155.544,196
1567618603,289.434,157.386,-17.3013,178.55,1.18652,-155.544,196
1567618603,289.434,157.386,-17.3013,178.55,1.18652,-155.544,196
1567618603,289.434,157.386,-17.3013,178.55,1.18652,-155.544,196
1567618603,289.434,157.386,-17.3013,178.55,1.18652,-155.544,196
1567618603,289.434,157.386,-17.3013,178.55,1.18652,-155.544,196
1567618603,289.434,157.386,-17.3013,178.55,1.16455,-155.544,196
1567618603,289.434,157.386,-17.3013,178.55,1.16455,-155.544,196
1567618603,289.434,157.386,-17.3013,178.55,1.18652,-155.544,196
1567618603,289.434,157.386,-17.3013,178.55,1.18652,-155.522,196
1567618603,289.434,157.386,-17.3013,178.55,1.18652,-155.522,196
1567618603,289.434,157.386,-17.3013,178.55,1.18652,-155.522,196
1567618604,289.434,157.386,-17.3013,178.55,1.18652,-155.522,196
1567618604,289.434,157.386,-17.3013,178.55,1.18652,-155.522,196
1567618604,289.434,157.386,-17.3013,178.55,1.18652,-155.522,196
1567618604,289.434,157.386,-17.3013,178.55,1.18652,-155.522,196
1567618604,289.434,157.386,-17.3013,178.55,1.18652,-155.522,196
1567618604,289.434,157.386,-17.3013,178.55,1.18652,-155.522,196
1567618604,289.434,157.386,-17.3013,178.55,1.18652,-155.522,196
1567618604,289.434,157.386,-17.3013,178.55,1.18652,-155.522,196
1567618604,289.434,157.386,-17.3013,178.55,1.18652,-155.522,196
1567618604,289.434,157.386,-17.3013,178.55,1.18652,-155.522,192
1567618604,289.434,157.386,-17.3013,178.55,1.18652,-155.522,192
1567618604,289.434,157.386,-17.3013,178.55,1.18652,-155.522,192
1567618604,289.434,157.386,-17.3013,178.55,1.18652,-155.522,192
1567618604,289.434,157.386,-17.3013,178.55,1.18652,-155.522,192
1567618604,289.434,157.386,-17.4129,178.55,1.18652,-155.522,192
1567618604,289.434,157.386,-17.4129,178.55,1.18652,-155.522,192
1567618604,289.434,157.386,-17.4129,178.55,1.16455,-155.522,192
1567618604,289.434,157.386,-17.4129,178.55,1.16455,-155.522,192
1567618604,289.434,157.386,-17.4129,178.55,1.16455,-155.522,192
1567618604,289.434,157.386,-17.4129,178.55,1.16455,-155.522,192
1567618604,289.434,157.386,-17.4129,178.55,1.16455,-155.522,192
1567618604,289.434,157.386,-17.4129,178.55,1.16455,-155.522,192
1567618604,289.434,157.386,-17.4129,178.55,1.16455,-155.522,192
1567618604,289.434,157.386,-17.4129,178.55,1.16455,-155.522,192
1567618604,289.434,157.386,-17.4129,178.55,1.16455,-155.522,192
1567618604,289.434,157.386,-17.4129,178.55,1.18652,-155.522,192
1567618604,289.434,157.386,-17.4129,178.55,1.18652,-155.522,192
1567618604,289.434,157.386,-17.4129,178.55,1.18652,-155.522,192
1567618604,289.434,157.386,-17.4129,178.55,1.18652,-155.522,192
1567618604,289.434,157.386,-17.4129,178.55,1.18652,-155.522,192
1567618604,289.434,157.386,-17.4129,178.55,1.18652,-155.522,192
1567618604,289.434,157.386,-17.4129,178.55,1.18652,-155.522,192
1567618604,289.545,157.386,-17.4129,178.55,1.18652,-155.522,192
1567618604,289.545,157.386,-17.4129,178.528,1.18652,-155.522,192
1567618604,289.545,157.386,-17.4129,178.528,1.18652,-155.522,188
1567618604,289.545,157.386,-17.4129,178.528,1.18652,-155.522,188
1567618604,289.545,157.386,-17.4129,178.528,1.18652,-155.522,188
1567618604,289.545,157.386,-17.4129,178.528,1.18652,-155.522,188
1567618604,289.545,157.386,-17.4129,178.528,1.16455,-155.522,188
1567618604,289.545,157.386,-17.4129,178.528,1.16455,-155.522,188
1567618604,289.545,157.386,-17.4129,178.528,1.18652,-155.522,188
1567618604,289.545,157.386,-17.4129,178.55,1.18652,-155.522,188
1567618604,289.545,157.386,-17.4129,178.55,1.18652,-155.522,188
1567618604,289.434,157.386,-17.4129,178.55,1.18652,-155.522,188
1567618604,289.434,157.386,-17.4129,178.55,1.18652,-155.522,188
1567618604,289.434,157.386,-17.4129,178.55,1.18652,-155.522,188
1567618604,289.434,157.386,-17.4129,178.55,1.18652,-155.522,188
1567618604,289.434,157.386,-17.4129,178.55,1.16455,-155.522,188
1567618604,289.434,157.386,-17.4129,178.55,1.16455,-155.522,188
1567618604,289.434,157.386,-17.4129,178.55,1.16455,-155.522,188
1567618604,289.434,157.497,-17.4129,178.55,1.16455,-155.522,188
1567618604,289.434,157.497,-17.4129,178.55,1.16455,-155.522,188
1567618604,289.434,157.497,-17.4129,178.55,1.16455,-155.522,188
1567618604,289.434,157.497,-17.4129,178.55,1.16455,-155.522,188
1567618604,289.434,157.497,-17.4129,178.55,1.16455,-155.522,188
1567618604,289.434,157.497,-17.4129,178.55,1.16455,-155.522,188
1567618604,289.434,157.497,-17.4129,178.55,1.16455,-155.522,188
1567618604,289.434,157.497,-17.4129,178.55,1.16455,-155.522,188
1567618604,289.434,157.497,-17.4129,178.55,1.16455,-155.522,188
1567618604,289.434,157.497,-17.4129,178.55,1.16455,-155.522,188
1567618604,289.434,157.386,-17.4129,178.55,1.16455,-155.522,188
1567618604,289.434,157.386,-17.4129,178.55,1.16455,-155.522,192
1567618604,289.434,157.386,-17.4129,178.55,1.16455,-155.522,192
1567618604,289.434,157.386,-17.4129,178.55,1.16455,-155.522,192
1567618604,289.434,157.386,-17.4129,178.55,1.16455,-155.522,192
1567618604,289.434,157.386,-17.4129,178.55,1.16455,-155.522,192
1567618604,289.434,157.386,-17.4129,178.55,1.16455,-155.522,196
1567618604,289.434,157.386,-17.4129,178.55,1.16455,-155.522,196
1567618604,289.434,157.386,-17.4129,178.55,1.16455,-155.522,196
1567618604,289.434,157.386,-17.4129,178.55,1.16455,-155.522,196
1567618604,289.434,157.386,-17.4129,178.55,1.16455,-155.522,196
1567618604,289.434,157.386,-17.4129,178.55,1.16455,-155.522,200
1567618604,289.434,157.386,-17.4129,178.55,1.16455,-155.522,200
1567618604,289.434,157.386,-17.4129,178.55,1.16455,-155.522,200
1567618604,289.434,157.386,-17.4129,178.55,1.16455,-155.522,200
1567618604,289.434,157.386,-17.4129,178.55,1.16455,-155.522,200
1567618604,289.434,157.386,-17.4129,178.55,1.16455,-155.522,200
1567618604,289.434,157.386,-17.4129,178.55,1.16455,-155.522,200
1567618604,289.434,157.386,-17.4129,178.55,1.16455,-155.522,200
1567618604,289.434,157.386,-17.4129,178.55,1.16455,-155.522,200
1567618604,289.434,157.386,-17.4129,178.55,1.16455,-155.522,200
1567618604,289.434,157.386,-17.4129,178.55,1.16455,-155.522,200
1567618604,289.434,157.386,-17.4129,178.55,1.16455,-155.522,200
1567618604,289.434,157.386,-17.4129,178.55,1.16455,-155.522,200
1567618604,289.434,157.386,-17.4129,178.55,1.16455,-155.522,200
1567618604,289.434,157.386,-17.4129,178.55,1.16455,-155.522,200
1567618604,289.434,157.386,-17.4129,178.55,1.16455,-155.522,200
1567618604,289.434,157.386,-17.4129,178.55,1.16455,-155.522,200
1567618604,289.434,157.386,-17.4129,178.55,1.16455,-155.522,200
1567618604,289.434,157.386,-17.4129,178.55,1.16455,-155.522,200
1567618604,289.434,157.386,-17.4129,178.55,1.16455,-155.522,200
1567618604,289.434,157.386,-17.3013,178.55,1.16455,-155.522,200
1567618604,289.434,157.386,-17.3013,178.55,1.18652,-155.522,200
1567618604,289.434,157.386,-17.3013,178.55,1.18652,-155.522,204
1567618604,289.434,157.386,-17.3013,178.55,1.18652,-155.522,204
1567618604,289.434,157.386,-17.3013,178.55,1.18652,-155.522,204
1567618604,289.434,157.386,-17.3013,178.55,1.18652,-155.522,204
1567618604,289.434,157.386,-17.3013,178.55,1.18652,-155.544,204
1567618604,289.434,157.386,-17.3013,178.572,1.18652,-155.544,204
1567618604,289.434,157.386,-17.3013,178.572,1.18652,-155.544,204
1567618605,289.434,157.386,-17.3013,178.572,1.16455,-155.544,204
1567618605,289.434,157.497,-17.3013,178.572,1.16455,-155.544,204
1567618605,289.434,157.497,-17.3013,178.572,1.16455,-155.544,204
1567618605,289.434,157.497,-17.3013,178.572,1.16455,-155.544,204
1567618605,289.434,157.497,-17.3013,178.572,1.16455,-155.544,204
1567618605,289.434,157.497,-17.3013,178.572,1.16455,-155.544,204
1567618605,289.434,157.497,-17.3013,178.572,1.16455,-155.522,200
1567618605,289.434,157.497,-17.3013,178.572,1.16455,-155.522,200
1567618605,289.434,157.497,-17.3013,178.572,1.16455,-155.522,200
1567618605,289.434,157.497,-17.3013,178.572,1.16455,-155.522,200
1567618605,289.434,157.497,-17.3013,178.572,1.16455,-155.522,200
1567618605,289.434,157.497,-17.3013,178.572,1.16455,-155.522,200
1567618605,289.434,157.497,-17.3013,178.572,1.16455,-155.522,200
1567618605,289.434,157.497,-17.4129,178.572,1.16455,-155.522,200
1567618605,289.434,157.497,-17.4129,178.572,1.16455,-155.522,196
1567618605,289.434,157.497,-17.4129,178.572,1.16455,-155.522,196
1567618605,289.434,157.497,-17.4129,178.572,1.16455,-155.522,196
1567618605,289.434,157.497,-17.4129,178.572,1.16455,-155.522,196
1567618605,289.434,157.497,-17.4129,178.572,1.16455,-155.522,196
1567618605,289.434,157.386,-17.4129,178.572,1.16455,-155.522,196
1567618605,289.434,157.386,-17.3013,178.572,1.16455,-155.522,196
1567618605,289.434,157.386,-17.3013,178.572,1.16455,-155.522,196
1567618605,289.434,157.386,-17.3013,178.572,1.16455,-155.522,192
1567618605,289.434,157.386,-17.3013,178.572,1.16455,-155.522,192
1567618605,289.434,157.386,-17.3013,178.572,1.18652,-155.522,192
1567618605,289.434,157.386,-17.3013,178.55,1.18652,-155.522,192
1567618605,289.434,157.386,-17.3013,178.55,1.18652,-155.522,192
1567618605,289.434,157.386,-17.3013,178.55,1.18652,-155.522,192
1567618605,289.434,157.386,-17.3013,178.55,1.18652,-155.522,192
1567618605,289.434,157.386,-17.3013,178.55,1.18652,-155.522,192
1567618605,289.434,157.386,-17.3013,178.55,1.16455,-155.522,192
1567618605,289.434,157.386,-17.3013,178.55,1.16455,-155.522,192
1567618605,289.434,157.386,-17.3013,178.55,1.16455,-155.522,192
1567618605,289.434,157.386,-17.3013,178.55,1.16455,-155.522,192
1567618605,289.434,157.386,-17.4129,178.55,1.16455,-155.522,192
1567618605,289.434,157.386,-17.4129,178.55,1.16455,-155.522,192
1567618605,289.434,157.386,-17.4129,178.55,1.16455,-155.522,192
1567618605,289.434,157.386,-17.4129,178.55,1.16455,-155.522,192
1567618605,289.434,157.386,-17.4129,178.55,1.16455,-155.522,192
1567618605,289.434,157.386,-17.4129,178.55,1.16455,-155.522,192
1567618605,289.434,157.386,-17.4129,178.55,1.16455,-155.522,192
1567618605,289.434,157.386,-17.4129,178.55,1.16455,-155.522,192
1567618605,289.434,157.386,-17.4129,178.55,1.16455,-155.522,192
1567618613,304.614,140.977,-17.7478,178.66,0.769043,-155.413,216
1567618613,304.614,140.977,-17.7478,178.66,0.769043,-155.413,216
1567618613,304.614,140.977,-17.7478,178.66,0.769043,-155.413,216
1567618613,304.614,140.977,-17.7478,178.66,0.769043,-155.413,220
1567618613,304.614,140.977,-17.7478,178.66,0.791016,-155.435,220
1567618613,304.614,140.977,-17.7478,178.66,0.791016,-155.435,220
1567618613,304.614,140.977,-17.7478,178.638,0.791016,-155.435,220
1567618614,304.614,140.977,-17.6361,178.638,0.791016,-155.435,220
1567618614,304.614,140.977,-17.6361,178.638,0.791016,-155.435,220
1567618614,304.614,140.977,-17.6361,178.638,0.791016,-155.435,220
1567618614,304.614,140.977,-17.6361,178.66,0.791016,-155.435,220
1567618614,304.614,140.977,-17.6361,178.66,0.791016,-155.435,220
1567618614,304.614,140.977,-17.6361,178.66,0.791016,-155.435,220
1567618614,304.614,140.977,-17.6361,178.66,0.791016,-155.435,220
1567618614,304.614,140.977,-17.6361,178.66,0.791016,-155.435,220
1567618614,304.614,140.977,-17.6361,178.66,0.791016,-155.435,220
1567618614,304.614,140.977,-17.6361,178.66,0.791016,-155.435,220
1567618614,304.614,140.977,-17.6361,178.66,0.791016,-155.435,220
1567618614,304.614,141.089,-17.6361,178.66,0.791016,-155.435,220
1567618614,304.614,141.089,-17.6361,178.66,0.791016,-155.435,220
1567618614,304.614,141.089,-17.6361,178.66,0.791016,-155.435,220
1567618614,304.614,141.089,-17.6361,178.66,0.791016,-155.435,220
1567618614,304.614,141.089,-17.6361,178.66,0.791016,-155.435,220
1567618614,304.726,141.089,-17.6361,178.66,0.791016,-155.435,220
1567618614,304.726,140.977,-17.6361,178.66,0.791016,-155.435,216
1567618614,304.726,140.977,-17.6361,178.66,0.791016,-155.435,216
1567618614,304.726,140.977,-17.6361,178.638,0.791016,-155.435,216
1567618614,304.726,140.977,-17.6361,178.638,0.791016,-155.435,216
1567618614,304.726,140.977,-17.6361,178.638,0.812988,-155.435,216
1567618614,304.726,140.977,-17.6361,178.638,0.812988,-155.435,216
1567618614,304.726,140.977,-17.6361,178.638,0.812988,-155.435,216
1567618614,304.726,140.977,-17.6361,178.638,0.812988,-155.435,212
1567618614,304.726,140.977,-17.6361,178.638,0.812988,-155.435,212
1567618614,304.726,140.977,-17.5245,178.638,0.812988,-155.435,212
1567618614,304.726,140.977,-17.5245,178.638,0.812988,-155.435,212
1567618614,304.726,140.977,-17.5245,178.638,0.812988,-155.435,212
1567618614,304.726,140.977,-17.5245,178.638,0.812988,-155.435,212
1567618614,304.726,140.977,-17.5245,178.638,0.812988,-155.435,208
1567618614,304.726,141.089,-17.6361,178.638,0.812988,-155.435,208
1567618614,304.726,141.089,-17.6361,178.66,0.812988,-155.435,208
1567618614,304.726,141.089,-17.6361,178.66,0.812988,-155.435,208
1567618614,304.726,141.089,-17.6361,178.66,0.812988,-155.435,208
1567618614,304.726,141.089,-17.6361,178.66,0.812988,-155.435,208
1567618614,304.726,141.089,-17.6361,178.66,0.812988,-155.435,208
1567618614,304.726,141.089,-17.6361,178.66,0.791016,-155.435,208
1567618614,304.726,141.089,-17.6361,178.66,0.791016,-155.435,208
1567618614,304.726,141.089,-17.6361,178.66,0.791016,-155.435,208
1567618614,304.726,141.089,-17.6361,178.66,0.791016,-155.435,208
1567618614,304.726,141.089,-17.6361,178.66,0.791016,-155.435,208
1567618614,304.726,141.089,-17.6361,178.66,0.791016,-155.435,208
1567618614,304.726,141.089,-17.6361,178.66,0.791016,-155.435,208
1567618614,304.726,141.089,-17.6361,178.66,0.791016,-155.435,208
1567618614,304.726,141.089,-17.6361,178.66,0.791016,-155.435,208
1567618614,304.726,141.089,-17.6361,178.66,0.791016,-155.435,208
1567618614,304.726,141.089,-17.6361,178.66,0.791016,-155.435,208
1567618614,304.726,140.977,-17.6361,178.638,0.791016,-155.435,208
1567618614,304.726,140.977,-17.6361,178.638,0.791016,-155.435,208
1567618614,304.726,140.977,-17.6361,178.638,0.791016,-155.435,208
1567618614,304.726,140.977,-17.6361,178.638,0.791016,-155.435,208
1567618614,304.726,140.977,-17.6361,178.638,0.791016,-155.435,204
1567618614,304.726,140.977,-17.6361,178.638,0.791016,-155.435,204
1567618614,304.726,140.977,-17.6361,178.638,0.791016,-155.435,204
1567618614,304.726,140.977,-17.6361,178.638,0.791016,-155.435,204
1567618614,304.726,140.977,-17.6361,178.638,0.791016,-155.435,204
1567618614,304.726,140.977,-17.6361,178.638,0.791016,-155.435,204
1567618614,304.726,140.977,-17.6361,178.638,0.791016,-155.435,204
1567618614,304.726,140.977,-17.7478,178.638,0.791016,-155.413,204
1567618614,304.726,141.089,-17.7478,178.638,0.791016,-155.413,208
1567618614,304.726,141.089,-17.7478,178.66,0.769043,-155.413,208
1567618614,304.726,141.089,-17.7478,178.66,0.769043,-155.413,208
1567618614,304.726,141.089,-17.7478,178.66,0.769043,-155.413,208
1567618614,304.726,141.089,-17.7478,178.66,0.769043,-155.413,208
1567618614,304.726,141.089,-17.7478,178.66,0.769043,-155.413,212
1567618614,304.726,141.089,-17.7478,178.66,0.769043,-155.413,212
1567618614,304.726,141.089,-17.7478,178.66,0.769043,-155.413,212
1567618614,304.726,141.089,-17.7478,178.66,0.769043,-155.413,212
1567618614,304.726,141.089,-17.6361,178.66,0.769043,-155.435,216
1567618614,304.726,141.089,-17.6361,178.66,0.791016,-155.435,216
1567618614,304.726,141.089,-17.6361,178.66,0.791016,-155.435,216
1567618614,304.726,141.089,-17.6361,178.66,0.791016,-155.435,216
1567618614,304.726,141.089,-17.6361,178.66,0.791016,-155.435,216
1567618614,304.726,141.089,-17.6361,178.66,0.791016,-155.435,216
1567618614,304.726,141.089,-17.6361,178.66,0.791016,-155.435,220
1567618614,304.726,141.089,-17.6361,178.66,0.791016,-155.435,220
1567618614,304.726,141.089,-17.6361,178.66,0.791016,-155.435,220
1567618614,304.726,141.089,-17.6361,178.66,0.791016,-155.435,220
1567618614,304.726,141.089,-17.6361,178.66,0.791016,-155.435,220
1567618614,304.726,141.089,-17.6361,178.66,0.791016,-155.435,220
1567618614,304.726,141.089,-17.6361,178.66,0.791016,-155.435,220
1567618614,304.726,141.089,-17.6361,178.66,0.791016,-155.435,220
1567618614,304.726,141.089,-17.6361,178.66,0.791016,-155.435,220
1567618614,304.726,141.089,-17.6361,178.66,0.791016,-155.435,220
1567618614,304.726,141.089,-17.6361,178.638,0.812988,-155.435,224
1567618614,304.726,141.089,-17.6361,178.638,0.812988,-155.435,224
1567618614,304.726,141.089,-17.6361,178.638,0.812988,-155.435,224
1567618614,304.726,140.977,-17.6361,178.638,0.812988,-155.435,224
1567618614,304.726,140.977,-17.6361,178.638,0.812988,-155.435,224
1567618614,304.726,140.977,-17.6361,178.638,0.812988,-155.435,224
1567618614,304.726,140.977,-17.6361,178.638,0.812988,-155.435,224
1567618614,304.726,140.977,-17.6361,178.638,0.812988,-155.435,224
1567618614,304.726,140.977,-17.6361,178.638,0.812988,-155.435,224
1567618614,304.726,140.977,-17.6361,178.638,0.812988,-155.435,224
1567618614,304.726,140.977,-17.6361,178.638,0.812988,-155.435,224
1567618614,304.726,140.977,-17.6361,178.638,0.812988,-155.435,224
1567618614,304.726,140.977,-17.6361,178.638,0.812988,-155.435,224
1567618614,304.726,140.977,-17.6361,178.638,0.812988,-155.435,224
1567618614,304.726,140.977,-17.6361,178.638,0.812988,-155.435,224
1567618615,304.726,140.977,-17.6361,178.638,0.812988,-155.435,224
1567618615,304.726,140.977,-17.6361,178.638,0.812988,-155.435,224
1567618615,304.726,140.977,-17.6361,178.638,0.812988,-155.435,224
1567618615,304.726,140.977,-17.6361,178.66,0.812988,-155.435,224
1567618615,304.726,140.977,-17.6361,178.66,0.812988,-155.435,224
1567618615,304.726,140.977,-17.6361,178.66,0.812988,-155.435,224
1567618615,304.726,140.977,-17.6361,178.66,0.812988,-155.435,224
1567618615,304.726,140.977,-17.6361,178.66,0.791016,-155.435,224
1567618615,304.726,140.977,-17.6361,178.66,0.791016,-155.435,224
1567618615,304.726,140.977,-17.6361,178.66,0.791016,-155.435,224
1567618615,304.614,140.977,-17.6361,178.66,0.791016,-155.413,224
1567618615,304.614,140.977,-17.6361,178.66,0.791016,-155.413,228
1567618615,304.614,140.977,-17.6361,178.66,0.791016,-155.413,228
1567618615,304.614,140.977,-17.6361,178.66,0.791016,-155.413,228
1567618615,304.614,140.977,-17.6361,178.66,0.791016,-155.413,228
1567618615,304.726,140.977,-17.6361,178.66,0.791016,-155.413,228
1567618615,304.726,140.977,-17.6361,178.66,0.791016,-155.413,224
1567618615,304.726,140.977,-17.6361,178.66,0.791016,-155.413,224
1567618615,304.726,140.977,-17.6361,178.66,0.791016,-155.413,224
1567618615,304.726,141.089,-17.6361,178.66,0.791016,-155.413,224
1567618615,304.726,141.089,-17.6361,178.66,0.791016,-155.413,224
1567618615,304.726,140.977,-17.6361,178.66,0.791016,-155.413,224
1567618615,304.726,140.977,-17.6361,178.66,0.791016,-155.413,224
1567618615,304.726,140.977,-17.7478,178.66,0.791016,-155.413,220
1567618615,304.726,140.977,-17.7478,178.66,0.791016,-155.413,220
1567618615,304.726,140.977,-17.7478,178.66,0.769043,-155.413,220
1567618615,304.726,140.977,-17.7478,178.66,0.769043,-155.413,220
1567618615,304.726,140.977,-17.7478,178.638,0.769043,-155.435,220
1567618615,304.726,140.977,-17.7478,178.638,0.769043,-155.435,220
1567618615,304.726,140.977,-17.7478,178.638,0.769043,-155.435,220
1567618615,304.726,140.977,-17.6361,178.638,0.769043,-155.435,220
1567618615,304.726,140.977,-17.6361,178.638,0.769043,-155.435,220
1567618615,304.726,140.977,-17.6361,178.638,0.769043,-155.435,220
1567618615,304.726,140.977,-17.6361,178.638,0.769043,-155.435,220
1567618615,304.726,140.977,-17.6361,178.638,0.791016,-155.435,220
1567618615,304.726,140.977,-17.6361,178.616,0.791016,-155.435,220
1567618615,304.726,140.977,-17.6361,178.616,0.791016,-155.435,220
1567618615,304.726,140.977,-17.6361,178.616,0.791016,-155.435,220
1567618615,304.726,140.977,-17.6361,178.616,0.791016,-155.435,220
1567618615,304.726,140.977,-17.6361,178.616,0.791016,-155.435,220
1567618615,304.726,140.977,-17.6361,178.616,0.791016,-155.435,220
1567618615,304.726,140.977,-17.6361,178.616,0.791016,-155.435,220
1567618615,304.726,140.977,-17.6361,178.616,0.791016,-155.435,220
1567618615,304.726,140.977,-17.6361,178.616,0.791016,-155.435,220
1567618615,304.726,140.977,-17.6361,178.616,0.791016,-155.435,220
1567618615,304.726,140.977,-17.6361,178.616,0.791016,-155.435,220
1567618615,304.726,140.977,-17.6361,178.616,0.791016,-155.435,220
1567618615,304.726,140.977,-17.6361,178.616,0.791016,-155.435,220
1567618615,304.726,140.977,-17.6361,178.616,0.791016,-155.435,220
1567618615,304.726,140.977,-17.6361,178.638,0.791016,-155.435,220
1567618615,304.726,140.977,-17.6361,178.638,0.791016,-155.435,220
1567618615,304.726,140.977,-17.6361,178.638,0.791016,-155.435,220
1567618615,304.726,140.977,-17.6361,178.638,0.791016,-155.435,220
1567618615,304.726,140.977,-17.6361,178.638,0.791016,-155.435,220
1567618615,304.726,140.977,-17.6361,178.638,0.769043,-155.435,220
1567618615,304.726,140.977,-17.7478,178.638,0.769043,-155.435,220
1567618615,304.726,140.977,-17.7478,178.638,0.769043,-155.435,220
1567618615,304.726,140.977,-17.7478,178.638,0.769043,-155.435,220
1567618615,304.726,140.977,-17.7478,178.66,0.769043,-155.435,220
1567618615,304.726,141.089,-17.7478,178.66,0.769043,-155.435,216
1567618615,304.614,141.089,-17.7478,178.66,0.769043,-155.435,216
1567618615,304.614,141.089,-17.7478,178.66,0.769043,-155.435,216
1567618615,304.614,141.089,-17.7478,178.66,0.769043,-155.435,216
1567618615,304.614,141.089,-17.7478,178.66,0.769043,-155.435,216
1567618615,304.614,141.089,-17.7478,178.66,0.769043,-155.435,216
1567618615,304.614,141.089,-17.7478,178.66,0.769043,-155.435,216
1567618615,304.614,141.089,-17.7478,178.66,0.769043,-155.435,216
1567618615,304.614,141.089,-17.7478,178.66,0.769043,-155.435,216
1567618615,304.614,141.089,-17.7478,178.66,0.769043,-155.435,216
1567618615,304.726,141.089,-17.7478,178.66,0.769043,-155.435,216
1567618615,304.726,141.089,-17.7478,178.66,0.769043,-155.435,212
1567618615,304.726,141.089,-17.7478,178.66,0.769043,-155.435,212
1567618615,304.726,141.089,-17.7478,178.66,0.769043,-155.435,212
1567618615,304.726,141.089,-17.7478,178.66,0.769043,-155.435,212
1567618615,304.726,141.089,-17.7478,178.66,0.769043,-155.435,212
1567618615,304.726,141.089,-17.7478,178.66,0.769043,-155.435,212
1567618615,304.726,141.089,-17.7478,178.66,0.791016,-155.435,212
1567618615,304.726,141.089,-17.7478,178.66,0.769043,-155.435,208
1567618615,304.726,141.089,-17.7478,178.66,0.769043,-155.435,208
1567618615,304.726,141.089,-17.7478,178.66,0.769043,-155.435,208
1567618615,304.726,141.089,-17.6361,178.66,0.791016,-155.435,208
1567618615,304.726,141.089,-17.7478,178.66,0.791016,-155.435,208
1567618615,304.726,141.089,-17.7478,178.66,0.769043,-155.435,208
1567618615,304.726,141.089,-17.7478,178.66,0.769043,-155.435,208
1567618615,304.726,141.089,-17.7478,178.66,0.769043,-155.435,212
1567618615,304.614,141.089,-17.7478,178.66,0.769043,-155.435,212
1567618615,304.614,141.089,-17.7478,178.66,0.769043,-155.435,212
1567618615,304.614,141.089,-17.7478,178.66,0.769043,-155.435,212
1567618615,304.614,141.089,-17.7478,178.66,0.769043,-155.435,212
1567618615,304.614,140.977,-17.7478,178.66,0.769043,-155.435,216
1567618615,304.614,140.977,-17.7478,178.66,0.769043,-155.413,216
1567618615,304.614,140.977,-17.7478,178.66,0.769043,-155.413,216
1567618615,304.614,140.977,-17.7478,178.66,0.769043,-155.413,216
1567618615,304.614,140.977,-17.7478,178.66,0.769043,-155.413,216
1567618615,304.614,140.977,-17.7478,178.66,0.769043,-155.413,220
1567618615,304.614,140.977,-17.7478,178.66,0.769043,-155.413,220
1567618615,304.614,140.977,-17.7478,178.66,0.769043,-155.413,220
1567618615,304.614,140.977,-17.7478,178.66,0.769043,-155.413,220
1567618615,304.614,140.977,-17.7478,178.66,0.769043,-155.413,220
1567618615,304.614,140.977,-17.7478,178.66,0.769043,-155.413,220
1567618616,304.614,140.977,-17.7478,178.66,0.769043,-155.413,220
1567618616,304.614,140.977,-17.7478,178.66,0.769043,-155.413,220
1567618616,304.614,140.977,-17.7478,178.66,0.769043,-155.413,220
1567618616,304.614,140.977,-17.7478,178.638,0.769043,-155.413,220
1567618616,304.614,140.977,-17.7478,178.638,0.769043,-155.413,220
1567618616,304.614,140.977,-17.7478,178.638,0.769043,-155.413,220
1567618616,304.614,140.977,-17.7478,178.638,0.769043,-155.413,220
1567618616,304.614,140.977,-17.7478,178.638,0.769043,-155.413,220
1567618616,304.614,140.977,-17.7478,178.638,0.769043,-155.413,220
1567618616,304.614,140.977,-17.7478,178.638,0.769043,-155.413,220
1567618616,304.614,140.977,-17.7478,178.638,0.769043,-155.413,220
1567618616,304.614,140.977,-17.7478,178.638,0.769043,-155.413,220
1567618616,304.614,140.977,-17.7478,178.638,0.769043,-155.413,220
1567618616,304.614,140.977,-17.7478,178.638,0.769043,-155.413,220
1567618616,304.614,140.977,-17.7478,178.638,0.769043,-155.413,220
1567618616,304.614,140.977,-17.7478,178.638,0.769043,-155.413,220
1567618616,304.614,140.977,-17.7478,178.638,0.769043,-155.413,220
1567618616,304.614,140.977,-17.7478,178.638,0.769043,-155.413,220
1567618616,304.614,140.977,-17.7478,178.638,0.769043,-155.413,220
1567618616,304.614,140.977,-17.7478,178.638,0.769043,-155.413,220
1567618616,304.614,140.977,-17.7478,178.638,0.769043,-155.413,220
1567618616,304.614,140.977,-17.7478,178.638,0.769043,-155.413,220
1567618616,304.614,140.977,-17.7478,178.638,0.769043,-155.413,220
1567618616,304.614,140.977,-17.7478,178.638,0.769043,-155.413,216
1567618616,304.614,140.977,-17.7478,178.638,0.769043,-155.413,216
1567618616,304.726,140.977,-17.7478,178.638,0.769043,-155.413,216
1567618616,304.726,140.977,-17.7478,178.638,0.769043,-155.413,216
1567618616,304.726,140.977,-17.7478,178.638,0.769043,-155.413,216
1567618616,304.726,140.977,-17.7478,178.638,0.769043,-155.413,216
1567618616,304.726,140.977,-17.7478,178.638,0.769043,-155.413,216
1567618616,304.726,140.977,-17.7478,178.638,0.769043,-155.413,216
1567618616,304.726,140.977,-17.7478,178.638,0.769043,-155.413,216
1567618616,304.726,140.977,-17.7478,178.638,0.769043,-155.413,216
1567618616,304.726,140.977,-17.7478,178.638,0.769043,-155.413,216
1567618616,304.726,140.977,-17.7478,178.638,0.769043,-155.413,212
1567618616,304.726,140.977,-17.7478,178.638,0.769043,-155.413,212
1567618616,304.726,140.977,-17.7478,178.638,0.769043,-155.413,212
1567618616,304.726,140.977,-17.7478,178.638,0.769043,-155.413,212
1567618616,304.726,140.977,-17.7478,178.638,0.769043,-155.413,212
1567618616,304.726,140.977,-17.7478,178.638,0.769043,-155.413,212
1567618616,304.726,140.977,-17.7478,178.638,0.769043,-155.413,212
1567618616,304.726,140.977,-17.7478,178.638,0.769043,-155.413,212
1567618616,304.726,140.977,-17.7478,178.616,0.769043,-155.413,212
1567618616,304.726,140.977,-17.7478,178.616,0.769043,-155.413,212
1567618616,304.726,140.977,-17.7478,178.616,0.769043,-155.413,212
1567618616,304.726,140.977,-17.7478,178.616,0.769043,-155.413,212
1567618616,304.726,140.977,-17.7478,178.616,0.769043,-155.413,212
1567618616,304.726,140.977,-17.7478,178.616,0.769043,-155.413,212
1567618616,304.726,140.977,-17.7478,178.616,0.769043,-155.413,212
1567618616,304.726,140.977,-17.7478,178.616,0.769043,-155.413,212
1567618616,304.726,140.977,-17.7478,178.616,0.769043,-155.413,212
1567618616,304.726,140.977,-17.7478,178.616,0.769043,-155.413,212
1567618616,304.614,140.977,-17.7478,178.616,0.769043,-155.413,212
1567618616,304.614,140.977,-17.7478,178.638,0.769043,-155.413,212
1567618616,304.614,140.977,-17.7478,178.638,0.769043,-155.413,216
1567618616,304.614,140.977,-17.7478,178.638,0.769043,-155.413,216
1567618616,304.614,140.977,-17.7478,178.638,0.769043,-155.413,216
1567618616,304.614,140.977,-17.7478,178.638,0.769043,-155.413,216
1567618616,304.614,140.977,-17.7478,178.638,0.791016,-155.413,216
1567618616,304.614,140.977,-17.7478,178.638,0.791016,-155.413,216
1567618616,304.614,140.977,-17.7478,178.638,0.791016,-155.413,216
1567618616,304.614,140.977,-17.7478,178.638,0.791016,-155.413,216
1567618616,304.614,140.977,-17.7478,178.638,0.791016,-155.413,216
1567618616,304.614,140.977,-17.7478,178.638,0.791016,-155.413,216
1567618616,304.726,140.977,-17.7478,178.638,0.791016,-155.413,216
1567618616,304.726,140.977,-17.7478,178.638,0.791016,-155.413,216
1567618616,304.726,140.977,-17.7478,178.638,0.791016,-155.413,216
1567618616,304.726,140.977,-17.7478,178.638,0.769043,-155.413,216
1567618616,304.726,140.977,-17.7478,178.638,0.769043,-155.413,216
1567618616,304.726,140.977,-17.7478,178.638,0.769043,-155.413,216
1567618616,304.726,140.977,-17.7478,178.638,0.769043,-155.413,216
1567618616,304.726,140.977,-17.7478,178.638,0.769043,-155.413,216
1567618616,304.726,141.089,-17.7478,178.66,0.791016,-155.413,216
1567618616,304.726,141.089,-17.7478,178.66,0.791016,-155.413,216
1567618616,304.726,141.089,-17.7478,178.66,0.791016,-155.413,216
1567618616,304.726,141.089,-17.6361,178.66,0.791016,-155.413,216
1567618616,304.726,141.089,-17.6361,178.66,0.791016,-155.413,216
1567618616,304.726,141.089,-17.6361,178.66,0.791016,-155.413,216
1567618616,304.726,141.089,-17.6361,178.66,0.791016,-155.413,216
1567618616,304.726,141.089,-17.6361,178.66,0.791016,-155.435,216
1567618616,304.726,140.977,-17.6361,178.66,0.791016,-155.435,216
1567618616,304.726,140.977,-17.6361,178.66,0.791016,-155.435,216
1567618616,304.726,140.977,-17.6361,178.66,0.791016,-155.435,216
1567618616,304.726,140.977,-17.6361,178.66,0.791016,-155.435,216
1567618616,304.726,140.977,-17.6361,178.638,0.791016,-155.435,216
1567618616,304.726,140.977,-17.6361,178.638,0.791016,-155.435,212
1567618616,304.726,140.977,-17.6361,178.638,0.791016,-155.435,212
1567618616,304.726,140.977,-17.6361,178.638,0.791016,-155.435,212
1567618616,304.726,140.977,-17.6361,178.638,0.791016,-155.435,212
1567618616,304.726,140.977,-17.6361,178.638,0.791016,-155.435,212
1567618616,304.726,140.977,-17.6361,178.638,0.791016,-155.435,212
1567618616,304.726,140.977,-17.6361,178.638,0.791016,-155.435,212
1567618616,304.726,140.977,-17.6361,178.638,0.791016,-155.435,212
1567618616,304.726,140.977,-17.6361,178.638,0.791016,-155.435,212
1567618616,304.726,140.977,-17.6361,178.638,0.791016,-155.435,212
1567618616,304.726,140.977,-17.6361,178.638,0.812988,-155.435,212
1567618616,304.726,140.977,-17.6361,178.638,0.812988,-155.435,212
1567618616,304.726,140.977,-17.6361,178.638,0.812988,-155.435,212
1567618616,304.726,140.977,-17.6361,178.638,0.812988,-155.435,212
1567618616,304.726,140.977,-17.6361,178.638,0.812988,-155.435,212
1567618617,304.726,140.977,-17.6361,178.638,0.812988,-155.435,212
1567618617,304.726,140.977,-17.6361,178.638,0.812988,-155.435,212
1567618617,304.726,140.977,-17.6361,178.638,0.812988,-155.435,212
1567618617,304.726,140.977,-17.6361,178.638,0.812988,-155.435,212
1567618617,304.726,140.977,-17.6361,178.638,0.812988,-155.435,212
1567618617,304.726,140.977,-17.6361,178.638,0.812988,-155.435,212
1567618617,304.726,140.977,-17.6361,178.638,0.812988,-155.435,212
1567618617,304.726,140.977,-17.6361,178.638,0.812988,-155.435,212
1567618617,304.726,140.977,-17.6361,178.638,0.812988,-155.435,212
1567618617,304.726,140.977,-17.6361,178.638,0.812988,-155.435,212
1567618617,304.726,140.977,-17.6361,178.638,0.812988,-155.435,212
1567618617,304.726,140.977,-17.6361,178.638,0.812988,-155.435,212
1567618617,304.726,140.977,-17.6361,178.638,0.812988,-155.435,212
1567618617,304.726,140.977,-17.6361,178.638,0.812988,-155.435,212
1567618617,304.726,140.977,-17.6361,178.638,0.812988,-155.435,212
1567618617,304.726,140.977,-17.6361,178.638,0.812988,-155.435,212
1567618617,304.726,140.977,-17.6361,178.638,0.812988,-155.435,216
1567618617,304.726,140.977,-17.6361,178.638,0.812988,-155.435,216
1567618617,304.726,140.977,-17.6361,178.638,0.791016,-155.435,216
1567618617,304.726,140.977,-17.6361,178.638,0.791016,-155.435,216
1567618617,304.726,140.977,-17.6361,178.638,0.791016,-155.435,216
1567618617,304.726,140.977,-17.6361,178.638,0.791016,-155.435,216
1567618617,304.726,140.977,-17.6361,178.638,0.791016,-155.413,216
1567618617,304.726,140.977,-17.6361,178.638,0.791016,-155.413,216
1567618617,304.726,140.977,-17.6361,178.638,0.791016,-155.413,216
1567618617,304.726,140.977,-17.6361,178.638,0.791016,-155.435,212
1567618617,304.726,140.977,-17.6361,178.638,0.791016,-155.435,212
1567618617,304.726,140.977,-17.6361,178.638,0.791016,-155.435,212
1567618617,304.726,140.977,-17.6361,178.638,0.791016,-155.435,212
1567618617,304.726,140.977,-17.6361,178.638,0.791016,-155.435,212
1567618617,304.726,140.977,-17.6361,178.638,0.791016,-155.435,212
1567618617,304.726,140.977,-17.6361,178.638,0.791016,-155.435,212
1567618617,304.726,140.977,-17.6361,178.638,0.791016,-155.435,212
1567618617,304.726,140.977,-17.6361,178.638,0.791016,-155.435,212
1567618617,304.726,140.977,-17.6361,178.638,0.791016,-155.435,212
1567618617,304.726,140.977,-17.6361,178.638,0.791016,-155.435,212
1567618617,304.726,140.977,-17.6361,178.638,0.791016,-155.435,212
1567618617,304.726,140.977,-17.6361,178.638,0.791016,-155.435,212
1567618617,304.726,140.977,-17.6361,178.638,0.791016,-155.435,212
1567618617,304.726,140.977,-17.6361,178.638,0.791016,-155.435,212
1567618617,304.726,140.977,-17.6361,178.638,0.791016,-155.435,216
1567618617,304.726,140.977,-17.6361,178.638,0.791016,-155.435,216
1567618617,304.726,140.977,-17.6361,178.638,0.791016,-155.435,216
1567618617,304.726,140.977,-17.6361,178.66,0.791016,-155.435,216
1567618617,304.726,140.977,-17.6361,178.66,0.791016,-155.435,216
1567618617,304.726,140.977,-17.6361,178.66,0.791016,-155.435,220
1567618617,304.726,140.977,-17.6361,178.66,0.791016,-155.435,220
1567618617,304.726,140.977,-17.6361,178.66,0.791016,-155.435,220
1567618617,304.726,140.977,-17.6361,178.66,0.791016,-155.435,220
1567618617,304.726,140.977,-17.6361,178.66,0.791016,-155.435,220
1567618617,304.726,140.977,-17.6361,178.66,0.791016,-155.435,224
1567618617,304.726,140.977,-17.6361,178.66,0.791016,-155.435,224
1567618617,304.726,140.977,-17.6361,178.66,0.791016,-155.435,224
1567618617,304.726,140.977,-17.6361,178.66,0.791016,-155.435,224
1567618617,304.726,140.977,-17.6361,178.66,0.791016,-155.435,224
1567618617,304.614,140.977,-17.6361,178.66,0.791016,-155.413,224
1567618617,304.614,140.977,-17.6361,178.66,0.791016,-155.413,224
1567618617,304.614,140.977,-17.6361,178.66,0.791016,-155.413,224
1567618617,304.614,140.977,-17.6361,178.66,0.791016,-155.413,224
1567618617,304.614,140.977,-17.6361,178.66,0.791016,-155.413,224
1567618617,304.614,140.977,-17.6361,178.66,0.791016,-155.413,224
1567618617,304.614,140.977,-17.6361,178.66,0.791016,-155.413,224
1567618617,304.614,140.977,-17.6361,178.66,0.791016,-155.413,224
1567618617,304.614,140.977,-17.6361,178.66,0.791016,-155.413,224
1567618617,304.614,140.977,-17.6361,178.66,0.791016,-155.413,224
1567618617,304.614,140.977,-17.6361,178.66,0.791016,-155.413,224
1567618617,304.614,140.977,-17.6361,178.66,0.791016,-155.413,224
1567618617,304.614,140.977,-17.6361,178.66,0.791016,-155.435,224
1567618617,304.614,140.977,-17.6361,178.66,0.791016,-155.435,224
1567618617,304.726,140.977,-17.6361,178.66,0.791016,-155.435,220
1567618617,304.726,140.977,-17.6361,178.638,0.791016,-155.435,220
1567618617,304.726,140.977,-17.6361,178.638,0.791016,-155.435,220
1567618617,304.726,140.977,-17.6361,178.638,0.791016,-155.413,220
1567618617,304.726,140.977,-17.6361,178.638,0.791016,-155.413,220
1567618617,304.726,140.977,-17.6361,178.638,0.791016,-155.413,220
1567618617,304.726,140.977,-17.6361,178.638,0.791016,-155.413,220
1567618617,304.726,140.977,-17.6361,178.638,0.791016,-155.413,220
1567618617,304.726,140.977,-17.6361,178.638,0.791016,-155.413,220
1567618617,304.726,140.977,-17.6361,178.638,0.791016,-155.413,220
1567618617,304.726,140.977,-17.6361,178.638,0.791016,-155.413,220
1567618617,304.726,140.977,-17.6361,178.638,0.791016,-155.413,220
1567618617,304.726,140.977,-17.6361,178.638,0.791016,-155.413,220
1567618617,304.726,140.977,-17.6361,178.638,0.791016,-155.413,220
1567618617,304.726,140.977,-17.6361,178.638,0.791016,-155.413,220
1567618617,304.726,140.977,-17.6361,178.638,0.791016,-155.413,220
1567618617,304.726,140.977,-17.6361,178.638,0.791016,-155.413,220
1567618617,304.726,140.977,-17.6361,178.638,0.791016,-155.413,220
1567618617,304.726,140.977,-17.6361,178.638,0.791016,-155.413,220
1567618617,304.726,140.977,-17.6361,178.638,0.791016,-155.413,220
1567618617,304.614,140.977,-17.6361,178.638,0.791016,-155.413,220
1567618617,304.614,140.977,-17.6361,178.638,0.791016,-155.413,220
1567618617,304.614,140.977,-17.6361,178.638,0.791016,-155.413,220
1567618617,304.726,140.977,-17.6361,178.638,0.791016,-155.413,220
1567618617,304.726,140.977,-17.6361,178.638,0.791016,-155.413,220
1567618617,304.726,140.977,-17.6361,178.638,0.791016,-155.413,220
1567618617,304.726,140.977,-17.6361,178.638,0.791016,-155.413,220
1567618617,304.726,140.977,-17.6361,178.638,0.791016,-155.413,220
1567618617,304.726,140.977,-17.6361,178.638,0.791016,-155.413,216
1567618617,304.726,140.977,-17.6361,178.616,0.791016,-155.413,216
1567618617,304.726,140.977,-17.6361,178.616,0.791016,-155.413,216
1567618618,304.726,140.977,-17.6361,178.616,0.791016,-155.435,216
1567618618,304.726,140.977,-17.6361,178.616,0.791016,-155.435,216
1567618618,304.726,140.977,-17.6361,178.616,0.791016,-155.435,216
1567618618,304.726,140.977,-17.6361,178.616,0.791016,-155.435,216
1567618618,304.726,140.977,-17.6361,178.616,0.791016,-155.435,216
1567618618,304.726,140.977,-17.6361,178.616,0.791016,-155.435,212
1567618618,304.726,140.977,-17.6361,178.616,0.791016,-155.435,212
1567618618,304.726,140.977,-17.6361,178.616,0.791016,-155.435,212
1567618618,304.726,140.977,-17.6361,178.616,0.791016,-155.435,212
1567618618,304.726,140.977,-17.6361,178.616,0.791016,-155.435,212
1567618618,304.726,140.977,-17.6361,178.638,0.791016,-155.435,212
1567618618,304.726,140.977,-17.6361,178.638,0.791016,-155.435,212
1567618618,304.726,140.977,-17.6361,178.638,0.791016,-155.435,208
1567618618,304.726,140.977,-17.6361,178.638,0.791016,-155.435,208
1567618618,304.726,140.977,-17.6361,178.638,0.791016,-155.435,208
1567618618,304.726,140.977,-17.6361,178.638,0.791016,-155.435,208
1567618618,304.726,140.977,-17.6361,178.638,0.791016,-155.435,208
1567618618,304.726,140.977,-17.6361,178.638,0.791016,-155.435,208
1567618618,304.726,140.977,-17.6361,178.638,0.791016,-155.435,208
1567618618,304.726,140.977,-17.6361,178.638,0.791016,-155.435,208
1567618618,304.726,140.977,-17.6361,178.638,0.812988,-155.435,208
1567618618,304.726,140.977,-17.6361,178.638,0.812988,-155.435,208
1567618618,304.726,140.977,-17.6361,178.638,0.812988,-155.435,208
1567618618,304.726,140.977,-17.6361,178.638,0.812988,-155.435,208
1567618618,304.726,140.977,-17.6361,178.638,0.812988,-155.435,208
1567618618,304.726,140.977,-17.6361,178.638,0.812988,-155.435,208
1567618618,304.726,140.977,-17.6361,178.638,0.812988,-155.435,208
1567618618,304.726,140.977,-17.6361,178.638,0.812988,-155.435,208
1567618618,304.726,140.977,-17.6361,178.638,0.812988,-155.435,208
1567618618,304.726,140.977,-17.6361,178.638,0.812988,-155.435,208
1567618618,304.726,140.977,-17.6361,178.638,0.812988,-155.435,208
1567618618,304.726,140.977,-17.6361,178.638,0.812988,-155.435,208
1567618618,304.726,140.977,-17.6361,178.638,0.812988,-155.435,208
1567618618,304.726,140.977,-17.6361,178.638,0.812988,-155.435,208
1567618618,304.726,140.977,-17.6361,178.638,0.812988,-155.435,208
1567618618,304.726,140.977,-17.6361,178.638,0.812988,-155.435,208
1567618618,304.726,140.977,-17.6361,178.638,0.812988,-155.435,208
1567618618,304.726,140.977,-17.6361,178.638,0.812988,-155.435,212
1567618618,304.726,140.977,-17.6361,178.638,0.812988,-155.435,212
1567618618,304.726,140.977,-17.6361,178.638,0.812988,-155.435,212
1567618618,304.726,140.977,-17.6361,178.638,0.812988,-155.435,212
1567618618,304.726,140.977,-17.6361,178.638,0.812988,-155.435,212
1567618618,304.726,140.977,-17.6361,178.638,0.812988,-155.435,212
1567618618,304.726,140.977,-17.6361,178.638,0.812988,-155.435,212
1567618618,304.726,140.977,-17.6361,178.638,0.812988,-155.435,212
1567618618,304.726,140.977,-17.6361,178.638,0.812988,-155.435,212
1567618618,304.726,140.977,-17.6361,178.638,0.812988,-155.435,212
1567618618,304.726,140.977,-17.6361,178.638,0.791016,-155.435,212
1567618618,304.726,140.977,-17.6361,178.638,0.791016,-155.435,216
1567618618,304.726,140.977,-17.6361,178.638,0.791016,-155.435,216
1567618618,304.726,140.977,-17.6361,178.638,0.791016,-155.435,216
1567618618,304.726,140.977,-17.6361,178.638,0.791016,-155.435,216
1567618618,304.726,140.977,-17.6361,178.638,0.791016,-155.435,216
1567618618,304.726,140.977,-17.6361,178.638,0.791016,-155.435,216
1567618618,304.726,140.977,-17.6361,178.638,0.791016,-155.435,216
1567618618,304.726,140.977,-17.7478,178.638,0.791016,-155.435,216
1567618618,304.726,140.977,-17.7478,178.638,0.791016,-155.435,216
1567618618,304.726,140.977,-17.7478,178.638,0.791016,-155.435,216
1567618618,304.726,140.977,-17.7478,178.638,0.791016,-155.435,216
1567618618,304.726,140.977,-17.7478,178.638,0.791016,-155.435,216
1567618618,304.726,140.977,-17.7478,178.638,0.791016,-155.435,216
1567618618,304.726,140.977,-17.7478,178.638,0.791016,-155.435,216
1567618618,304.726,140.977,-17.7478,178.638,0.791016,-155.435,216
1567618618,304.726,140.977,-17.7478,178.638,0.791016,-155.435,216
1567618618,304.726,140.977,-17.7478,178.638,0.791016,-155.435,216
1567618618,304.726,140.977,-17.7478,178.638,0.791016,-155.435,216
1567618618,304.726,140.977,-17.7478,178.638,0.791016,-155.435,216
1567618618,304.726,140.977,-17.7478,178.638,0.791016,-155.435,216
1567618618,304.726,140.977,-17.7478,178.638,0.791016,-155.435,216
1567618618,304.726,140.977,-17.7478,178.638,0.791016,-155.435,216
1567618618,304.726,140.977,-17.7478,178.638,0.791016,-155.435,220
1567618618,304.726,140.977,-17.7478,178.638,0.791016,-155.435,220
1567618618,304.726,140.977,-17.7478,178.638,0.791016,-155.435,220
1567618618,304.726,140.977,-17.7478,178.638,0.769043,-155.435,220
1567618618,304.726,140.977,-17.7478,178.638,0.769043,-155.413,220
1567618618,304.726,140.977,-17.7478,178.638,0.769043,-155.413,220
1567618618,304.726,140.977,-17.7478,178.638,0.769043,-155.413,220
1567618618,304.726,140.977,-17.7478,178.638,0.769043,-155.413,216
1567618618,304.726,140.977,-17.7478,178.638,0.769043,-155.413,216
1567618618,304.726,140.977,-17.7478,178.638,0.769043,-155.413,216
1567618618,304.726,140.977,-17.7478,178.638,0.769043,-155.413,216
1567618618,304.726,140.977,-17.7478,178.638,0.769043,-155.413,216
1567618618,304.726,140.977,-17.7478,178.638,0.769043,-155.413,216
1567618618,304.726,140.977,-17.7478,178.638,0.769043,-155.413,216
1567618618,304.726,140.977,-17.7478,178.638,0.769043,-155.413,212
1567618618,304.726,140.977,-17.7478,178.638,0.769043,-155.413,212
1567618618,304.726,140.977,-17.7478,178.638,0.769043,-155.413,212
1567618618,304.726,140.977,-17.7478,178.638,0.769043,-155.413,212
1567618618,304.726,140.977,-17.7478,178.638,0.769043,-155.413,212
1567618618,304.726,140.977,-17.7478,178.638,0.769043,-155.413,212
1567618618,304.726,140.977,-17.7478,178.638,0.769043,-155.435,212
1567618618,304.726,140.977,-17.7478,178.638,0.769043,-155.435,208
1567618618,304.726,140.977,-17.7478,178.638,0.769043,-155.435,208
1567618670,327.943,116.532,-17.5245,178.748,0.98877,-155.544,256
1567618670,327.943,116.532,-17.5245,178.748,0.98877,-155.544,256
1567618670,327.943,116.532,-17.5245,178.748,0.98877,-155.544,256
1567618670,327.943,116.532,-17.5245,178.748,0.98877,-155.544,256
1567618670,327.943,116.532,-17.5245,178.748,0.98877,-155.544,252
1567618670,327.943,116.532,-17.5245,178.748,0.98877,-155.544,252
1567618670,327.943,116.532,-17.5245,178.748,0.98877,-155.544,252
1567618670,327.943,116.532,-17.5245,178.748,0.98877,-155.544,252
1567618670,327.943,116.532,-17.5245,178.748,0.98877,-155.544,248
1567618670,327.943,116.532,-17.5245,178.748,0.98877,-155.544,248
1567618670,327.943,116.532,-17.5245,178.748,0.98877,-155.544,248
1567618670,327.943,116.532,-17.5245,178.748,0.98877,-155.544,248
1567618670,327.943,116.532,-17.5245,178.77,0.98877,-155.544,248
1567618670,327.943,116.532,-17.5245,178.77,0.98877,-155.544,248
1567618670,327.943,116.532,-17.5245,178.77,0.98877,-155.544,248
1567618670,327.943,116.532,-17.5245,178.77,0.98877,-155.544,248
1567618670,327.943,116.532,-17.5245,178.77,0.98877,-155.544,248
1567618670,327.943,116.532,-17.5245,178.77,0.98877,-155.544,252
1567618670,327.943,116.532,-17.5245,178.77,0.98877,-155.544,252
1567618670,327.943,116.532,-17.5245,178.77,0.98877,-155.544,252
1567618670,327.943,116.532,-17.5245,178.77,0.98877,-155.544,252
1567618670,327.943,116.532,-17.5245,178.77,0.98877,-155.544,252
1567618670,327.943,116.532,-17.5245,178.77,0.98877,-155.544,252
1567618670,327.831,116.532,-17.5245,178.77,0.98877,-155.544,252
1567618670,327.831,116.532,-17.5245,178.77,0.98877,-155.544,252
1567618670,327.831,116.532,-17.5245,178.77,0.98877,-155.544,256
1567618670,327.831,116.532,-17.5245,178.77,0.98877,-155.544,256
1567618670,327.831,116.532,-17.5245,178.77,0.98877,-155.544,256
1567618670,327.831,116.532,-17.5245,178.77,0.98877,-155.544,256
1567618670,327.831,116.532,-17.5245,178.77,0.98877,-155.544,256
1567618670,327.831,116.532,-17.5245,178.77,0.98877,-155.544,256
1567618670,327.831,116.532,-17.5245,178.77,0.98877,-155.544,256
1567618670,327.831,116.532,-17.5245,178.77,0.98877,-155.544,256
1567618670,327.831,116.532,-17.5245,178.77,0.98877,-155.544,256
1567618670,327.831,116.532,-17.5245,178.77,0.98877,-155.544,256
1567618670,327.943,116.532,-17.5245,178.77,0.98877,-155.544,252
1567618670,327.943,116.532,-17.6361,178.77,0.98877,-155.544,252
1567618670,327.943,116.532,-17.6361,178.77,0.98877,-155.544,252
1567618670,327.943,116.532,-17.6361,178.77,0.98877,-155.544,252
1567618670,327.943,116.644,-17.6361,178.77,0.98877,-155.544,248
1567618670,327.943,116.532,-17.6361,178.77,0.98877,-155.544,248
1567618670,327.943,116.532,-17.6361,178.77,0.98877,-155.544,248
1567618670,327.943,116.532,-17.6361,178.77,0.98877,-155.522,248
1567618670,327.943,116.532,-17.5245,178.77,0.98877,-155.522,248
1567618670,327.943,116.532,-17.5245,178.77,0.98877,-155.522,248
1567618670,327.943,116.532,-17.5245,178.77,0.98877,-155.522,248
1567618670,327.943,116.532,-17.5245,178.77,0.98877,-155.522,244
1567618670,327.943,116.532,-17.5245,178.77,0.98877,-155.522,244
1567618670,327.943,116.532,-17.5245,178.77,0.98877,-155.522,244
1567618670,327.943,116.532,-17.5245,178.77,0.98877,-155.522,248
1567618670,327.943,116.532,-17.5245,178.77,0.98877,-155.522,248
1567618670,327.943,116.532,-17.5245,178.77,0.98877,-155.522,248
1567618670,327.943,116.532,-17.5245,178.77,0.98877,-155.522,248
1567618670,327.943,116.532,-17.5245,178.77,0.98877,-155.522,248
1567618670,327.943,116.532,-17.5245,178.77,0.98877,-155.522,248
1567618670,327.943,116.532,-17.5245,178.77,0.98877,-155.522,248
1567618670,327.943,116.532,-17.5245,178.77,0.98877,-155.522,248
1567618671,327.831,116.532,-17.5245,178.77,0.98877,-155.522,248
1567618671,327.831,116.532,-17.5245,178.77,0.98877,-155.522,248
1567618671,327.831,116.532,-17.5245,178.77,0.98877,-155.522,248
1567618671,327.831,116.532,-17.5245,178.77,0.98877,-155.522,248
1567618671,327.831,116.532,-17.5245,178.77,0.98877,-155.522,248
1567618671,327.831,116.532,-17.5245,178.748,0.98877,-155.522,248
1567618671,327.831,116.532,-17.5245,178.748,0.98877,-155.544,248
1567618671,327.831,116.532,-17.5245,178.748,0.98877,-155.544,248
1567618671,327.831,116.532,-17.5245,178.748,0.98877,-155.544,248
1567618671,327.831,116.532,-17.5245,178.748,0.98877,-155.544,248
1567618671,327.831,116.532,-17.5245,178.748,0.98877,-155.544,248
1567618671,327.831,116.532,-17.5245,178.748,0.98877,-155.544,248
1567618671,327.831,116.532,-17.5245,178.748,0.98877,-155.544,248
1567618671,327.831,116.532,-17.5245,178.748,0.98877,-155.544,248
1567618671,327.831,116.532,-17.5245,178.748,0.98877,-155.544,248
1567618671,327.831,116.532,-17.5245,178.748,0.98877,-155.544,248
1567618671,327.831,116.532,-17.5245,178.748,0.98877,-155.544,248
1567618671,327.831,116.532,-17.5245,178.748,0.98877,-155.544,248
1567618671,327.831,116.532,-17.5245,178.748,0.98877,-155.522,248
1567618671,327.831,116.532,-17.5245,178.748,0.98877,-155.522,248
1567618671,327.831,116.532,-17.5245,178.748,0.98877,-155.522,248
1567618671,327.831,116.532,-17.5245,178.726,0.98877,-155.522,248
1567618671,327.831,116.532,-17.5245,178.726,0.98877,-155.522,248
1567618671,327.831,116.532,-17.5245,178.726,0.98877,-155.522,248
1567618671,327.831,116.532,-17.5245,178.726,0.98877,-155.522,248
1567618671,327.831,116.532,-17.5245,178.726,0.98877,-155.522,248
1567618671,327.831,116.532,-17.5245,178.726,0.98877,-155.522,248
1567618671,327.831,116.532,-17.5245,178.726,0.98877,-155.522,248
1567618671,327.831,116.532,-17.5245,178.726,0.98877,-155.522,248
1567618671,327.943,116.532,-17.5245,178.726,0.98877,-155.522,248
1567618671,327.943,116.532,-17.5245,178.726,0.98877,-155.522,248
1567618671,327.943,116.532,-17.5245,178.726,0.98877,-155.522,248
1567618671,327.943,116.532,-17.5245,178.726,0.98877,-155.522,248
1567618671,327.943,116.532,-17.5245,178.726,0.98877,-155.522,248
1567618671,327.943,116.532,-17.5245,178.726,0.98877,-155.522,248
1567618671,327.943,116.532,-17.5245,178.726,0.98877,-155.522,248
1567618671,327.943,116.532,-17.5245,178.726,0.98877,-155.522,248
1567618671,327.943,116.532,-17.5245,178.726,0.98877,-155.522,248
1567618671,327.943,116.532,-17.5245,178.726,0.98877,-155.522,248
1567618671,327.943,116.532,-17.5245,178.726,0.98877,-155.522,248
1567618671,327.943,116.532,-17.5245,178.748,0.98877,-155.522,248
1567618671,327.943,116.532,-17.5245,178.748,1.01074,-155.544,248
1567618671,327.943,116.532,-17.5245,178.748,1.01074,-155.544,248
1567618671,327.943,116.532,-17.5245,178.748,1.01074,-155.544,248
1567618671,327.943,116.532,-17.5245,178.748,1.01074,-155.544,248
1567618671,327.831,116.532,-17.5245,178.748,1.01074,-155.544,248
1567618671,327.831,116.532,-17.4129,178.748,1.01074,-155.544,248
1567618671,327.831,116.644,-17.4129,178.748,1.03271,-155.544,248
1567618671,327.831,116.644,-17.4129,178.77,1.03271,-155.544,248
1567618671,327.831,116.644,-17.4129,178.77,1.03271,-155.544,248
1567618671,327.831,116.644,-17.4129,178.77,1.03271,-155.544,252
1567618671,327.831,116.532,-17.4129,178.77,1.03271,-155.544,252
1567618671,327.831,116.532,-17.4129,178.77,1.03271,-155.544,252
1567618671,327.831,116.532,-17.4129,178.748,1.03271,-155.544,252
1567618671,327.831,116.532,-17.4129,178.748,1.03271,-155.544,252
1567618671,327.831,116.532,-17.4129,178.748,1.03271,-155.544,252
1567618671,327.831,116.532,-17.4129,178.748,1.03271,-155.544,252
1567618671,327.831,116.532,-17.4129,178.748,1.03271,-155.544,252
1567618671,327.831,116.532,-17.4129,178.748,1.03271,-155.544,252
1567618671,327.831,116.532,-17.4129,178.748,1.03271,-155.544,252
1567618671,327.831,116.532,-17.4129,178.748,1.03271,-155.544,252
1567618671,327.831,116.532,-17.5245,178.748,1.01074,-155.544,252
1567618671,327.831,116.532,-17.5245,178.748,1.01074,-155.544,252
1567618671,327.831,116.532,-17.5245,178.748,1.01074,-155.544,252
1567618671,327.831,116.532,-17.5245,178.748,1.01074,-155.544,252
1567618671,327.831,116.532,-17.5245,178.748,1.01074,-155.544,252
1567618671,327.831,116.532,-17.5245,178.748,1.01074,-155.544,252
1567618671,327.831,116.532,-17.5245,178.748,1.01074,-155.522,252
1567618671,327.831,116.532,-17.5245,178.748,1.01074,-155.522,252
1567618671,327.943,116.532,-17.5245,178.748,1.01074,-155.522,256
1567618671,327.943,116.532,-17.5245,178.748,0.98877,-155.522,256
1567618671,327.943,116.532,-17.5245,178.748,0.98877,-155.522,256
1567618671,327.943,116.532,-17.5245,178.748,0.98877,-155.522,252
1567618671,327.943,116.532,-17.5245,178.748,0.98877,-155.522,252
1567618671,327.943,116.532,-17.5245,178.748,0.98877,-155.522,252
1567618671,327.943,116.532,-17.5245,178.748,0.98877,-155.522,252
1567618671,327.943,116.532,-17.5245,178.748,0.98877,-155.522,256
1567618671,327.943,116.532,-17.5245,178.748,0.98877,-155.522,256
1567618671,327.943,116.532,-17.5245,178.748,0.98877,-155.522,256
1567618671,327.943,116.532,-17.5245,178.748,0.98877,-155.522,256
1567618671,327.943,116.532,-17.5245,178.726,0.98877,-155.522,256
1567618671,327.943,116.532,-17.5245,178.726,0.98877,-155.522,256
1567618671,327.943,116.532,-17.5245,178.726,0.98877,-155.522,256
1567618671,327.943,116.532,-17.5245,178.726,0.98877,-155.522,256
1567618671,327.943,116.532,-17.5245,178.726,0.98877,-155.522,256
1567618671,327.943,116.532,-17.5245,178.726,0.98877,-155.522,256
1567618671,327.943,116.532,-17.5245,178.726,0.98877,-155.522,256
1567618671,327.943,116.532,-17.5245,178.726,0.98877,-155.522,256
1567618671,327.943,116.532,-17.5245,178.726,0.98877,-155.522,256
1567618671,327.943,116.532,-17.5245,178.726,0.98877,-155.522,256
1567618671,327.943,116.532,-17.5245,178.748,0.98877,-155.522,252
1567618671,327.943,116.532,-17.5245,178.748,0.98877,-155.522,252
1567618671,327.943,116.532,-17.5245,178.748,0.98877,-155.522,252
1567618671,327.943,116.532,-17.5245,178.748,0.98877,-155.522,252
1567618671,327.943,116.532,-17.5245,178.748,0.98877,-155.522,252
1567618671,327.943,116.532,-17.5245,178.748,0.98877,-155.522,252
1567618671,327.943,116.532,-17.5245,178.748,0.98877,-155.522,252
1567618671,327.943,116.532,-17.5245,178.748,0.98877,-155.522,252
1567618671,327.943,116.532,-17.6361,178.748,0.98877,-155.522,252
1567618671,327.943,116.532,-17.6361,178.748,0.98877,-155.522,252
1567618672,327.943,116.532,-17.6361,178.748,0.98877,-155.522,252
1567618672,327.943,116.532,-17.6361,178.748,0.98877,-155.522,252
1567618672,327.943,116.532,-17.6361,178.726,0.98877,-155.522,252
1567618672,327.943,116.532,-17.6361,178.726,0.98877,-155.522,252
1567618672,327.943,116.532,-17.6361,178.726,0.98877,-155.522,248
1567618672,327.943,116.532,-17.6361,178.726,0.98877,-155.522,248
1567618672,327.943,116.421,-17.6361,178.726,0.98877,-155.522,248
1567618672,327.943,116.421,-17.6361,178.726,0.98877,-155.522,248
1567618672,327.943,116.421,-17.6361,178.726,0.98877,-155.522,248
1567618672,327.943,116.421,-17.6361,178.726,0.98877,-155.522,248
1567618672,327.943,116.421,-17.6361,178.726,0.966797,-155.522,252
1567618672,327.943,116.421,-17.6361,178.726,0.966797,-155.522,252
1567618672,327.943,116.421,-17.6361,178.726,0.966797,-155.522,252
1567618672,327.943,116.421,-17.6361,178.726,0.966797,-155.522,252
1567618672,327.943,116.421,-17.6361,178.726,0.966797,-155.522,252
1567618672,327.943,116.421,-17.6361,178.726,0.966797,-155.522,252
1567618672,327.943,116.421,-17.6361,178.726,0.966797,-155.522,252
1567618672,327.943,116.532,-17.6361,178.726,0.966797,-155.522,252
1567618672,327.943,116.532,-17.6361,178.726,0.966797,-155.522,252
1567618672,327.943,116.532,-17.6361,178.748,0.966797,-155.522,252
1567618672,327.943,116.532,-17.6361,178.748,0.966797,-155.522,252
1567618672,327.831,116.532,-17.6361,178.748,0.966797,-155.522,252
1567618672,327.831,116.532,-17.6361,178.748,0.966797,-155.522,252
1567618672,327.831,116.532,-17.6361,178.748,0.966797,-155.522,252
1567618672,327.831,116.532,-17.6361,178.748,0.966797,-155.522,252
1567618672,327.831,116.532,-17.6361,178.748,0.966797,-155.522,252
1567618672,327.831,116.532,-17.6361,178.748,0.98877,-155.522,252
1567618672,327.831,116.532,-17.6361,178.748,0.98877,-155.522,252
1567618672,327.831,116.421,-17.6361,178.726,0.98877,-155.522,252
1567618672,327.831,116.421,-17.5245,178.726,0.98877,-155.522,252
1567618672,327.831,116.421,-17.5245,178.726,0.98877,-155.522,256
1567618672,327.831,116.421,-17.5245,178.726,0.98877,-155.522,256
1567618672,327.943,116.421,-17.5245,178.726,0.98877,-155.522,256
1567618672,327.943,116.421,-17.5245,178.726,0.98877,-155.544,256
1567618672,327.943,116.421,-17.5245,178.726,0.98877,-155.544,256
1567618672,327.943,116.421,-17.5245,178.726,0.98877,-155.544,256
1567618672,327.943,116.421,-17.5245,178.726,0.98877,-155.544,256
1567618672,327.943,116.421,-17.5245,178.726,0.98877,-155.522,256
1567618672,327.943,116.532,-17.5245,178.726,0.98877,-155.522,256
1567618672,327.943,116.532,-17.5245,178.726,0.98877,-155.522,256
1567618672,327.943,116.532,-17.5245,178.726,0.98877,-155.522,256
1567618672,327.943,116.532,-17.5245,178.748,0.98877,-155.522,256
1567618672,327.943,116.532,-17.5245,178.748,0.98877,-155.522,252
1567618672,327.943,116.532,-17.5245,178.748,0.98877,-155.522,252
1567618672,327.943,116.532,-17.6361,178.748,0.98877,-155.522,252
1567618672,327.943,116.532,-17.6361,178.748,0.98877,-155.522,252
1567618672,327.831,116.532,-17.6361,178.748,0.98877,-155.522,252
1567618672,327.831,116.532,-17.6361,178.748,0.98877,-155.522,252
1567618672,327.831,116.532,-17.6361,178.748,0.98877,-155.522,252
1567618672,327.831,116.532,-17.6361,178.748,0.98877,-155.522,252
1567618672,327.831,116.532,-17.6361,178.748,0.98877,-155.522,252
1567618672,327.831,116.532,-17.6361,178.748,0.98877,-155.522,252
1567618672,327.831,116.532,-17.5245,178.748,0.98877,-155.522,252
1567618672,327.831,116.532,-17.5245,178.748,0.98877,-155.522,252
1567618672,327.831,116.532,-17.5245,178.748,0.98877,-155.522,252
1567618672,327.831,116.532,-17.5245,178.748,0.98877,-155.522,252
1567618672,327.831,116.532,-17.5245,178.748,0.98877,-155.522,256
1567618672,327.831,116.532,-17.5245,178.748,0.98877,-155.522,256
1567618672,327.831,116.532,-17.5245,178.748,0.98877,-155.522,256
1567618672,327.831,116.532,-17.5245,178.748,0.98877,-155.522,256
1567618672,327.831,116.532,-17.5245,178.748,0.98877,-155.522,256
1567618672,327.831,116.532,-17.5245,178.748,0.98877,-155.522,256
1567618672,327.943,116.532,-17.5245,178.748,0.98877,-155.522,256
1567618672,327.943,116.532,-17.5245,178.748,0.98877,-155.522,256
1567618672,327.943,116.532,-17.6361,178.748,0.98877,-155.522,256
1567618672,327.943,116.532,-17.6361,178.748,0.98877,-155.522,256
1567618672,327.943,116.532,-17.6361,178.748,0.98877,-155.522,256
1567618672,327.943,116.532,-17.6361,178.748,0.98877,-155.522,252
1567618672,327.943,116.532,-17.6361,178.748,0.98877,-155.522,252
1567618672,327.943,116.532,-17.6361,178.748,0.98877,-155.522,252
1567618672,327.943,116.532,-17.6361,178.726,0.98877,-155.522,252
1567618672,327.943,116.532,-17.6361,178.726,0.98877,-155.522,252
1567618672,327.943,116.532,-17.5245,178.726,0.98877,-155.522,248
1567618672,327.943,116.532,-17.5245,178.726,0.98877,-155.522,248
1567618672,327.943,116.421,-17.5245,178.726,0.98877,-155.522,248
1567618672,327.943,116.421,-17.5245,178.726,0.98877,-155.522,248
1567618672,327.943,116.421,-17.5245,178.726,0.98877,-155.522,248
1567618672,327.943,116.421,-17.5245,178.726,0.98877,-155.522,248
1567618672,327.943,116.421,-17.5245,178.726,0.98877,-155.522,248
1567618672,327.943,116.421,-17.5245,178.726,0.98877,-155.522,248
1567618672,327.943,116.421,-17.5245,178.726,0.98877,-155.522,248
1567618672,327.943,116.421,-17.5245,178.726,0.98877,-155.522,248
1567618672,327.943,116.421,-17.5245,178.726,0.98877,-155.544,248
1567618672,327.943,116.421,-17.5245,178.726,0.98877,-155.544,248
1567618672,327.943,116.421,-17.5245,178.726,0.98877,-155.544,248
1567618672,327.943,116.421,-17.5245,178.726,0.98877,-155.544,248
1567618672,327.943,116.421,-17.5245,178.726,0.98877,-155.544,248
1567618672,327.943,116.421,-17.5245,178.726,0.98877,-155.544,248
1567618672,327.943,116.532,-17.5245,178.726,0.98877,-155.544,248
1567618672,327.943,116.532,-17.5245,178.726,0.98877,-155.544,248
1567618672,327.943,116.532,-17.5245,178.726,0.98877,-155.544,248
1567618672,327.943,116.532,-17.5245,178.726,0.98877,-155.544,248
1567618672,327.943,116.532,-17.5245,178.726,0.98877,-155.544,248
1567618672,327.943,116.532,-17.5245,178.726,0.98877,-155.544,248
1567618672,327.943,116.532,-17.5245,178.726,0.98877,-155.544,248
1567618672,327.943,116.532,-17.5245,178.726,0.98877,-155.544,248
1567618672,327.943,116.532,-17.5245,178.726,0.98877,-155.544,248
1567618672,327.943,116.532,-17.5245,178.726,1.01074,-155.522,248
1567618672,327.943,116.532,-17.5245,178.726,1.01074,-155.522,248
1567618672,327.943,116.532,-17.5245,178.748,1.01074,-155.522,248
1567618673,327.943,116.532,-17.5245,178.748,1.01074,-155.522,248
1567618673,327.943,116.532,-17.5245,178.748,1.01074,-155.522,248
1567618673,327.943,116.532,-17.5245,178.748,1.01074,-155.522,248
1567618673,327.943,116.532,-17.5245,178.748,1.01074,-155.522,248
1567618673,327.943,116.532,-17.5245,178.748,1.01074,-155.522,248
1567618673,327.831,116.532,-17.5245,178.748,1.01074,-155.522,248
1567618673,327.831,116.532,-17.5245,178.748,1.01074,-155.522,248
1567618673,327.831,116.532,-17.5245,178.748,1.01074,-155.522,248
1567618673,327.831,116.532,-17.5245,178.748,0.98877,-155.522,248
1567618673,327.831,116.532,-17.5245,178.77,0.98877,-155.544,248
1567618673,327.831,116.532,-17.5245,178.77,0.98877,-155.544,248
1567618673,327.831,116.532,-17.5245,178.77,0.98877,-155.544,248
1567618673,327.831,116.532,-17.5245,178.77,0.98877,-155.544,248
1567618673,327.831,116.532,-17.5245,178.77,0.98877,-155.544,248
1567618673,327.831,116.532,-17.5245,178.748,0.98877,-155.544,248
1567618673,327.831,116.532,-17.5245,178.748,0.98877,-155.544,248
1567618673,327.831,116.532,-17.5245,178.748,0.98877,-155.544,248
1567618673,327.943,116.532,-17.5245,178.748,0.98877,-155.544,248
1567618673,327.943,116.532,-17.5245,178.748,0.98877,-155.544,248
1567618673,327.943,116.532,-17.5245,178.748,0.98877,-155.544,248
1567618673,327.943,116.532,-17.5245,178.748,0.98877,-155.544,248
1567618673,327.943,116.532,-17.5245,178.748,0.98877,-155.544,248
1567618673,327.943,116.532,-17.5245,178.748,0.98877,-155.544,248
1567618673,327.831,116.532,-17.5245,178.748,0.98877,-155.544,248
1567618673,327.831,116.532,-17.5245,178.748,0.98877,-155.544,248
1567618673,327.831,116.532,-17.5245,178.748,0.98877,-155.544,248
1567618673,327.831,116.532,-17.5245,178.748,0.98877,-155.522,248
1567618673,327.831,116.532,-17.5245,178.748,0.98877,-155.522,248
1567618673,327.831,116.532,-17.5245,178.748,0.98877,-155.522,248
1567618673,327.831,116.532,-17.5245,178.748,0.98877,-155.522,248
1567618673,327.831,116.532,-17.5245,178.77,0.98877,-155.522,252
1567618673,327.831,116.532,-17.5245,178.77,0.98877,-155.522,252
1567618673,327.831,116.532,-17.5245,178.77,0.98877,-155.522,252
1567618673,327.831,116.532,-17.5245,178.77,0.98877,-155.522,252
1567618673,327.831,116.532,-17.5245,178.77,0.98877,-155.544,252
1567618673,327.831,116.532,-17.5245,178.77,0.98877,-155.544,252
1567618673,327.831,116.532,-17.5245,178.77,0.98877,-155.544,252
1567618673,327.831,116.532,-17.5245,178.77,0.98877,-155.544,252
1567618673,327.831,116.532,-17.5245,178.77,0.98877,-155.544,252
1567618673,327.831,116.532,-17.5245,178.77,0.98877,-155.544,256
1567618673,327.831,116.532,-17.5245,178.77,0.98877,-155.544,256
1567618673,327.831,116.532,-17.5245,178.77,0.98877,-155.544,256
1567618673,327.831,116.644,-17.5245,178.77,0.98877,-155.544,256
1567618673,327.831,116.644,-17.5245,178.77,0.98877,-155.544,256
1567618673,327.831,116.644,-17.5245,178.77,0.98877,-155.522,260
1567618673,327.831,116.644,-17.5245,178.77,0.98877,-155.522,260
1567618673,327.831,116.644,-17.5245,178.77,0.966797,-155.522,260
1567618673,327.831,116.644,-17.5245,178.792,0.966797,-155.522,260
1567618673,327.831,116.644,-17.6361,178.792,0.966797,-155.522,260
1567618673,327.831,116.644,-17.6361,178.792,0.966797,-155.522,260
1567618673,327.831,116.644,-17.6361,178.792,0.966797,-155.522,260
1567618673,327.831,116.644,-17.6361,178.792,0.966797,-155.522,264
1567618673,327.831,116.644,-17.6361,178.792,0.966797,-155.522,264
1567618673,327.831,116.644,-17.6361,178.792,0.966797,-155.522,264
1567618673,327.831,116.644,-17.6361,178.792,0.966797,-155.522,264
1567618673,327.831,116.644,-17.6361,178.77,0.966797,-155.522,264
1567618673,327.831,116.644,-17.6361,178.77,0.966797,-155.522,264
1567618673,327.831,116.644,-17.6361,178.77,0.966797,-155.522,264
1567618673,327.831,116.644,-17.6361,178.77,0.966797,-155.522,264
1567618673,327.831,116.644,-17.6361,178.77,0.966797,-155.544,264
1567618673,327.831,116.644,-17.6361,178.77,0.966797,-155.544,260
1567618673,327.831,116.644,-17.6361,178.77,0.966797,-155.544,260
1567618673,327.831,116.644,-17.6361,178.77,0.966797,-155.544,260
1567618673,327.831,116.644,-17.6361,178.77,0.966797,-155.544,260
1567618673,327.831,116.532,-17.6361,178.77,0.966797,-155.544,260
1567618673,327.831,116.532,-17.6361,178.77,0.966797,-155.544,260
1567618673,327.831,116.532,-17.6361,178.77,0.98877,-155.544,260
1567618673,327.831,116.532,-17.6361,178.77,0.98877,-155.544,260
1567618673,327.831,116.532,-17.6361,178.77,0.98877,-155.544,260
1567618673,327.831,116.532,-17.6361,178.77,0.98877,-155.544,260
1567618673,327.831,116.532,-17.5245,178.77,0.98877,-155.544,260
1567618673,327.831,116.532,-17.5245,178.77,0.98877,-155.544,260
1567618673,327.831,116.532,-17.5245,178.77,0.98877,-155.544,260
1567618673,327.831,116.532,-17.5245,178.77,0.98877,-155.544,260
1567618673,327.831,116.532,-17.5245,178.77,0.98877,-155.544,260
1567618673,327.831,116.532,-17.5245,178.77,0.98877,-155.544,260
1567618673,327.831,116.532,-17.5245,178.77,0.98877,-155.544,260
1567618673,327.831,116.532,-17.5245,178.77,0.98877,-155.544,260
1567618673,327.831,116.532,-17.5245,178.77,0.98877,-155.544,260
1567618673,327.831,116.532,-17.5245,178.77,0.98877,-155.544,260
1567618673,327.831,116.532,-17.5245,178.77,0.98877,-155.544,260
1567618673,327.831,116.532,-17.5245,178.77,0.98877,-155.544,260
1567618673,327.831,116.532,-17.5245,178.77,0.98877,-155.544,260
1567618673,327.831,116.532,-17.5245,178.77,0.98877,-155.544,260
1567618673,327.831,116.532,-17.5245,178.77,0.98877,-155.544,260
1567618673,327.831,116.532,-17.5245,178.77,0.98877,-155.544,260
1567618673,327.831,116.532,-17.5245,178.77,0.98877,-155.544,260
1567618673,327.831,116.532,-17.6361,178.748,0.966797,-155.544,260
1567618673,327.831,116.532,-17.6361,178.77,0.966797,-155.544,260
1567618673,327.831,116.532,-17.6361,178.77,0.966797,-155.544,256
1567618673,327.831,116.532,-17.6361,178.77,0.966797,-155.544,256
1567618673,327.831,116.532,-17.6361,178.77,0.966797,-155.522,256
1567618673,327.831,116.532,-17.6361,178.77,0.966797,-155.522,256
1567618673,327.831,116.532,-17.6361,178.77,0.966797,-155.522,256
1567618673,327.831,116.532,-17.6361,178.77,0.966797,-155.522,256
1567618673,327.831,116.532,-17.6361,178.77,0.966797,-155.522,256
1567618673,327.831,116.644,-17.6361,178.77,0.966797,-155.522,256
1567618673,327.831,116.644,-17.6361,178.77,0.966797,-155.522,256
1567618673,327.831,116.644,-17.6361,178.77,0.966797,-155.522,256
1567618674,327.831,116.644,-17.6361,178.77,0.966797,-155.522,256
1567618674,327.831,116.532,-17.6361,178.77,0.966797,-155.522,256
1567618674,327.831,116.532,-17.6361,178.77,0.966797,-155.522,256
1567618674,327.831,116.532,-17.6361,178.77,0.98877,-155.522,256
1567618674,327.831,116.532,-17.6361,178.77,0.98877,-155.522,256
1567618674,327.831,116.532,-17.5245,178.77,0.98877,-155.522,256
1567618674,327.831,116.532,-17.6361,178.77,0.98877,-155.522,256
1567618674,327.831,116.532,-17.5245,178.77,0.98877,-155.522,256
1567618674,327.831,116.532,-17.5245,178.77,0.98877,-155.544,252
1567618674,327.831,116.532,-17.5245,178.77,0.98877,-155.544,252
1567618674,327.831,116.532,-17.5245,178.77,0.98877,-155.544,252
1567618674,327.831,116.644,-17.5245,178.77,0.98877,-155.544,252
1567618674,327.831,116.644,-17.5245,178.77,0.98877,-155.544,252
1567618674,327.831,116.644,-17.5245,178.77,0.98877,-155.522,252
1567618674,327.831,116.644,-17.6361,178.77,0.98877,-155.522,252
1567618674,327.831,116.644,-17.6361,178.77,0.98877,-155.522,252
1567618674,327.831,116.644,-17.6361,178.77,0.98877,-155.522,252
1567618674,327.831,116.644,-17.6361,178.77,0.966797,-155.522,256
1567618674,327.831,116.644,-17.6361,178.77,0.966797,-155.522,256
1567618674,327.831,116.644,-17.6361,178.77,0.966797,-155.522,256
1567618674,327.831,116.644,-17.6361,178.792,0.966797,-155.522,256
1567618674,327.831,116.644,-17.6361,178.792,0.966797,-155.522,256
1567618674,327.831,116.644,-17.6361,178.77,0.966797,-155.522,256
1567618674,327.831,116.644,-17.6361,178.77,0.966797,-155.522,256
1567618674,327.831,116.644,-17.6361,178.77,0.966797,-155.522,256
1567618674,327.831,116.644,-17.6361,178.77,0.966797,-155.522,256
1567618674,327.831,116.644,-17.6361,178.77,0.966797,-155.522,256
1567618674,327.831,116.644,-17.6361,178.77,0.966797,-155.522,256
1567618674,327.831,116.644,-17.6361,178.77,0.966797,-155.522,256
1567618674,327.831,116.644,-17.6361,178.77,0.966797,-155.522,256
1567618674,327.831,116.644,-17.6361,178.77,0.966797,-155.522,256
1567618674,327.831,116.644,-17.6361,178.77,0.966797,-155.522,256
1567618674,327.831,116.644,-17.6361,178.77,0.966797,-155.522,256
1567618674,327.831,116.644,-17.6361,178.77,0.966797,-155.522,256
1567618674,327.831,116.644,-17.6361,178.77,0.98877,-155.522,256
1567618674,327.831,116.644,-17.6361,178.77,0.98877,-155.522,256
1567618674,327.831,116.644,-17.6361,178.77,0.98877,-155.522,256
1567618674,327.831,116.532,-17.6361,178.77,0.966797,-155.522,256
1567618674,327.831,116.532,-17.6361,178.77,0.966797,-155.522,256
1567618674,327.831,116.532,-17.6361,178.77,0.966797,-155.522,256
1567618674,327.831,116.532,-17.6361,178.77,0.966797,-155.522,256
1567618674,327.831,116.532,-17.6361,178.77,0.966797,-155.522,256
1567618674,327.831,116.532,-17.6361,178.77,0.966797,-155.522,256
1567618674,327.831,116.532,-17.6361,178.77,0.966797,-155.522,256
1567618674,327.831,116.532,-17.6361,178.77,0.966797,-155.522,252
1567618674,327.831,116.532,-17.6361,178.77,0.966797,-155.522,252
1567618674,327.831,116.532,-17.6361,178.77,0.966797,-155.522,252
1567618674,327.831,116.532,-17.6361,178.77,0.966797,-155.522,252
1567618674,327.831,116.532,-17.6361,178.77,0.966797,-155.522,252
1567618674,327.831,116.532,-17.6361,178.77,0.966797,-155.522,252
1567618674,327.831,116.532,-17.6361,178.748,0.966797,-155.522,252
1567618674,327.831,116.532,-17.6361,178.748,0.966797,-155.522,252
1567618674,327.831,116.532,-17.6361,178.748,0.966797,-155.522,252
1567618674,327.831,116.532,-17.6361,178.748,0.966797,-155.522,252
1567618674,327.831,116.532,-17.6361,178.748,0.966797,-155.522,252
1567618674,327.831,116.532,-17.6361,178.748,0.966797,-155.522,252
1567618674,327.831,116.532,-17.6361,178.748,0.966797,-155.522,252
1567618674,327.831,116.532,-17.6361,178.748,0.966797,-155.522,252
1567618674,327.831,116.532,-17.6361,178.748,0.966797,-155.522,252
1567618674,327.831,116.532,-17.6361,178.748,0.966797,-155.522,252
1567618674,327.831,116.532,-17.6361,178.748,0.966797,-155.522,252
1567618674,327.831,116.532,-17.6361,178.748,0.966797,-155.522,252
1567618674,327.831,116.532,-17.6361,178.748,0.966797,-155.522,252
1567618674,327.831,116.532,-17.6361,178.748,0.966797,-155.522,252
1567618674,327.831,116.532,-17.6361,178.748,0.966797,-155.522,252
1567618674,327.831,116.532,-17.6361,178.748,0.966797,-155.522,252
1567618674,327.831,116.532,-17.6361,178.748,0.966797,-155.522,252
1567618674,327.943,116.532,-17.6361,178.748,0.966797,-155.522,252
1567618674,327.943,116.532,-17.6361,178.748,0.966797,-155.522,252
1567618674,327.943,116.532,-17.6361,178.748,0.966797,-155.522,252
1567618674,327.943,116.532,-17.6361,178.748,0.966797,-155.522,252
1567618674,327.943,116.532,-17.6361,178.748,0.966797,-155.522,252
1567618674,327.943,116.532,-17.6361,178.748,0.966797,-155.522,252
1567618674,327.943,116.532,-17.6361,178.748,0.966797,-155.522,252
1567618674,327.943,116.532,-17.6361,178.748,0.966797,-155.522,252
1567618674,327.831,116.532,-17.6361,178.748,0.966797,-155.522,252
1567618674,327.831,116.532,-17.6361,178.77,0.966797,-155.522,252
1567618674,327.831,116.532,-17.6361,178.77,0.966797,-155.522,252
1567618674,327.831,116.532,-17.6361,178.77,0.98877,-155.544,256
1567618674,327.831,116.532,-17.6361,178.77,0.98877,-155.544,256
1567618674,327.831,116.532,-17.6361,178.77,0.98877,-155.544,256
1567618674,327.831,116.532,-17.6361,178.77,0.966797,-155.544,256
1567618674,327.831,116.532,-17.6361,178.77,0.966797,-155.544,256
1567618674,327.831,116.532,-17.6361,178.77,0.966797,-155.544,256
1567618674,327.831,116.532,-17.6361,178.77,0.966797,-155.544,256
1567618674,327.831,116.532,-17.6361,178.77,0.966797,-155.544,256
1567618674,327.831,116.532,-17.6361,178.77,0.966797,-155.544,256
1567618674,327.831,116.532,-17.6361,178.77,0.966797,-155.544,256
1567618674,327.831,116.532,-17.6361,178.77,0.966797,-155.544,256
1567618674,327.831,116.532,-17.6361,178.77,0.966797,-155.544,256
1567618674,327.831,116.532,-17.6361,178.77,0.966797,-155.544,256
1567618674,327.831,116.532,-17.6361,178.77,0.966797,-155.544,256
1567618674,327.831,116.532,-17.6361,178.77,0.966797,-155.544,256
1567618674,327.831,116.532,-17.6361,178.77,0.966797,-155.544,256
1567618674,327.831,116.532,-17.6361,178.77,0.966797,-155.544,256
1567618674,327.831,116.532,-17.6361,178.77,0.966797,-155.544,256
1567618674,327.831,116.532,-17.6361,178.77,0.966797,-155.544,256
1567618674,327.831,116.644,-17.6361,178.77,0.966797,-155.544,256
1567618674,327.831,116.644,-17.6361,178.77,0.966797,-155.544,256
1567618674,327.831,116.644,-17.6361,178.77,0.966797,-155.544,256
1567618675,327.831,116.644,-17.6361,178.77,0.966797,-155.544,256
1567618675,327.831,116.644,-17.6361,178.77,0.966797,-155.544,256
1567618675,327.831,116.532,-17.6361,178.77,0.966797,-155.544,256
1567618675,327.831,116.532,-17.6361,178.77,0.966797,-155.544,256
1567618675,327.831,116.532,-17.6361,178.77,0.966797,-155.544,260
1567618675,327.831,116.532,-17.6361,178.77,0.966797,-155.544,260
1567618675,327.831,116.532,-17.6361,178.77,0.966797,-155.544,260
1567618675,327.831,116.532,-17.6361,178.77,0.98877,-155.544,260
1567618675,327.831,116.532,-17.6361,178.77,0.98877,-155.544,260
1567618675,327.831,116.532,-17.5245,178.77,0.98877,-155.544,260
1567618675,327.831,116.532,-17.5245,178.77,0.98877,-155.544,260
1567618675,327.831,116.532,-17.5245,178.77,0.98877,-155.544,260
1567618675,327.831,116.532,-17.5245,178.77,0.98877,-155.522,260
1567618675,327.831,116.644,-17.5245,178.77,0.98877,-155.522,260
1567618675,327.831,116.644,-17.5245,178.77,0.98877,-155.522,260
1567618675,327.831,116.644,-17.5245,178.77,0.98877,-155.522,260
1567618675,327.831,116.644,-17.5245,178.77,0.98877,-155.522,260
1567618675,327.831,116.644,-17.5245,178.77,0.98877,-155.522,260
1567618675,327.831,116.644,-17.5245,178.77,0.98877,-155.522,260
1567618675,327.831,116.644,-17.5245,178.77,0.98877,-155.522,260
1567618675,327.831,116.644,-17.5245,178.77,0.98877,-155.522,264
1567618675,327.831,116.644,-17.5245,178.77,0.98877,-155.522,264
1567618675,327.831,116.644,-17.5245,178.77,0.98877,-155.522,264
1567618675,327.831,116.644,-17.5245,178.77,0.98877,-155.522,264
1567618675,327.831,116.644,-17.5245,178.77,0.98877,-155.522,260
1567618675,327.831,116.644,-17.5245,178.77,0.98877,-155.522,260
1567618675,327.831,116.644,-17.5245,178.77,0.98877,-155.522,260
1567618675,327.831,116.644,-17.5245,178.77,0.98877,-155.522,260
1567618675,327.831,116.532,-17.5245,178.77,0.98877,-155.522,260
1567618675,327.831,116.532,-17.5245,178.77,0.98877,-155.522,260
1567618675,327.831,116.532,-17.5245,178.77,0.98877,-155.522,260
1567618675,327.831,116.532,-17.5245,178.77,0.98877,-155.522,260
1567618675,327.831,116.532,-17.5245,178.77,0.98877,-155.522,260
1567618675,327.831,116.532,-17.6361,178.77,0.98877,-155.522,260
1567618675,327.831,116.532,-17.6361,178.77,0.98877,-155.522,260
1567618675,327.831,116.532,-17.6361,178.77,0.98877,-155.522,260
1567618675,327.831,116.532,-17.6361,178.77,0.966797,-155.522,260
1567618675,327.831,116.532,-17.6361,178.77,0.966797,-155.522,260
1567618675,327.831,116.532,-17.6361,178.77,0.966797,-155.522,260
1567618675,327.831,116.532,-17.6361,178.77,0.966797,-155.522,260
1567618675,327.831,116.532,-17.6361,178.77,0.966797,-155.522,260
1567618675,327.831,116.532,-17.6361,178.77,0.966797,-155.522,260
1567618675,327.831,116.532,-17.6361,178.77,0.966797,-155.522,260
1567618675,327.831,116.532,-17.6361,178.77,0.966797,-155.522,260
1567618685,366.899,76.014,-16.4083,179.033,1.88965,-155.413,296
1567618685,366.899,76.014,-16.4083,179.033,1.88965,-155.413,296
1567618685,366.899,76.014,-16.4083,179.033,1.88965,-155.413,296
1567618685,366.899,76.014,-16.4083,179.033,1.88965,-155.413,296
1567618685,366.899,76.014,-16.4083,179.055,1.88965,-155.413,292
1567618685,366.899,76.014,-16.4083,179.055,1.88965,-155.413,292
1567618685,366.899,76.014,-16.4083,179.055,1.88965,-155.413,292
1567618685,366.899,76.014,-16.4083,179.055,1.88965,-155.413,292
1567618685,366.899,76.014,-16.4083,179.055,1.88965,-155.413,288
1567618685,366.899,76.014,-16.4083,179.055,1.88965,-155.413,288
1567618685,366.899,76.014,-16.4083,179.033,1.88965,-155.413,288
1567618685,366.899,76.014,-16.4083,179.033,1.88965,-155.413,288
1567618685,366.899,76.014,-16.4083,179.033,1.88965,-155.413,288
1567618685,366.899,76.014,-16.4083,179.033,1.88965,-155.413,288
1567618685,366.899,76.014,-16.4083,179.033,1.88965,-155.413,288
1567618685,366.899,76.014,-16.4083,179.033,1.88965,-155.413,288
1567618685,366.899,76.014,-16.4083,179.033,1.88965,-155.413,288
1567618685,366.899,76.014,-16.4083,179.033,1.88965,-155.413,292
1567618685,366.899,76.014,-16.4083,179.033,1.88965,-155.413,292
1567618685,366.899,76.014,-16.4083,179.033,1.88965,-155.413,292
1567618685,366.787,76.014,-16.4083,179.033,1.88965,-155.413,292
1567618685,366.787,76.014,-16.4083,179.055,1.91162,-155.413,292
1567618686,366.787,76.014,-16.4083,179.055,1.91162,-155.413,292
1567618686,366.787,76.014,-16.4083,179.055,1.91162,-155.413,292
1567618686,366.787,76.014,-16.4083,179.033,1.91162,-155.391,292
1567618686,366.787,76.014,-16.4083,179.033,1.91162,-155.391,292
1567618686,366.899,76.014,-16.4083,179.033,1.91162,-155.391,292
1567618686,366.899,76.014,-16.4083,179.033,1.91162,-155.391,296
1567618686,366.787,76.014,-16.4083,179.033,1.91162,-155.391,296
1567618686,366.899,76.014,-16.4083,179.033,1.88965,-155.391,296
1567618686,366.899,76.014,-16.4083,179.033,1.88965,-155.391,296
1567618686,366.899,76.014,-16.4083,179.033,1.88965,-155.391,296
1567618686,366.899,76.014,-16.4083,179.033,1.88965,-155.413,296
1567618686,366.787,75.9023,-16.4083,179.033,1.88965,-155.413,296
1567618686,366.787,75.9023,-16.4083,179.033,1.88965,-155.413,296
1567618686,366.787,75.9023,-16.4083,179.033,1.88965,-155.413,296
1567618686,366.787,75.9023,-16.4083,179.033,1.88965,-155.413,296
1567618686,366.787,75.9023,-16.4083,179.033,1.88965,-155.413,296
1567618686,366.787,75.9023,-16.4083,179.033,1.88965,-155.413,296
1567618686,366.787,75.9023,-16.4083,179.033,1.88965,-155.413,296
1567618686,366.787,75.9023,-16.4083,179.033,1.88965,-155.413,296
1567618686,366.787,75.9023,-16.4083,179.033,1.88965,-155.413,296
1567618686,366.787,75.9023,-16.4083,179.033,1.88965,-155.413,296
1567618686,366.787,75.9023,-16.4083,179.033,1.88965,-155.413,296
1567618686,366.787,75.9023,-16.4083,179.033,1.88965,-155.413,296
1567618686,366.787,75.9023,-16.4083,179.033,1.88965,-155.413,296
1567618686,366.787,75.9023,-16.4083,179.033,1.88965,-155.413,300
1567618686,366.787,75.9023,-16.4083,179.033,1.88965,-155.413,300
1567618686,366.787,75.9023,-16.4083,179.055,1.88965,-155.413,300
1567618686,366.787,75.9023,-16.4083,179.055,1.88965,-155.413,300
1567618686,366.787,75.9023,-16.4083,179.055,1.88965,-155.413,304
1567618686,366.787,75.9023,-16.4083,179.055,1.88965,-155.413,304
1567618686,366.675,75.9023,-16.4083,179.055,1.88965,-155.413,304
1567618686,366.675,75.9023,-16.4083,179.055,1.88965,-155.413,304
1567618686,366.675,75.9023,-16.4083,179.055,1.88965,-155.435,304
1567618686,366.675,75.9023,-16.4083,179.055,1.88965,-155.435,304
1567618686,366.675,75.9023,-16.4083,179.055,1.88965,-155.435,304
1567618686,366.675,75.9023,-16.4083,179.055,1.88965,-155.435,304
1567618686,366.675,75.9023,-16.4083,179.055,1.88965,-155.435,304
1567618686,366.787,75.9023,-16.4083,179.055,1.88965,-155.435,304
1567618686,366.787,75.9023,-16.4083,179.033,1.88965,-155.435,304
1567618686,366.787,75.9023,-16.4083,179.033,1.88965,-155.435,304
1567618686,366.787,75.9023,-16.4083,179.033,1.88965,-155.435,304
1567618686,366.787,75.9023,-16.4083,179.033,1.88965,-155.435,304
1567618686,366.787,75.9023,-16.4083,179.033,1.88965,-155.435,304
1567618686,366.787,75.9023,-16.4083,179.033,1.88965,-155.435,304
1567618686,366.787,75.9023,-16.4083,179.055,1.88965,-155.413,304
1567618686,366.787,75.9023,-16.5199,179.055,1.88965,-155.413,304
1567618686,366.787,75.9023,-16.5199,179.055,1.88965,-155.413,304
1567618686,366.787,76.014,-16.5199,179.055,1.88965,-155.413,304
1567618686,366.787,76.014,-16.5199,179.055,1.88965,-155.413,304
1567618686,366.787,76.014,-16.5199,179.055,1.88965,-155.413,300
1567618686,366.787,75.9023,-16.5199,179.055,1.88965,-155.413,300
1567618686,366.787,75.9023,-16.5199,179.055,1.88965,-155.413,300
1567618686,366.787,75.9023,-16.4083,179.033,1.88965,-155.413,300
1567618686,366.787,75.9023,-16.4083,179.033,1.88965,-155.413,300
1567618686,366.787,75.9023,-16.4083,179.033,1.88965,-155.413,296
1567618686,366.787,75.9023,-16.4083,179.033,1.88965,-155.413,296
1567618686,366.787,75.9023,-16.4083,179.033,1.91162,-155.413,296
1567618686,366.787,75.9023,-16.4083,179.033,1.91162,-155.413,296
1567618686,366.787,75.9023,-16.4083,179.033,1.91162,-155.413,296
1567618686,366.787,75.9023,-16.4083,179.033,1.91162,-155.413,296
1567618686,366.787,75.9023,-16.4083,179.033,1.91162,-155.413,296
1567618686,366.787,75.9023,-16.4083,179.033,1.91162,-155.413,296
1567618686,366.787,75.9023,-16.4083,179.033,1.91162,-155.413,296
1567618686,366.787,75.9023,-16.4083,179.033,1.91162,-155.413,296
1567618686,366.787,75.9023,-16.4083,179.033,1.91162,-155.413,296
1567618686,366.787,75.9023,-16.4083,179.033,1.88965,-155.413,296
1567618686,366.787,75.9023,-16.4083,179.033,1.88965,-155.413,300
1567618686,366.787,75.9023,-16.4083,179.033,1.88965,-155.413,300
1567618686,366.787,75.9023,-16.4083,179.033,1.88965,-155.413,300
1567618686,366.787,75.9023,-16.4083,179.055,1.88965,-155.413,304
1567618686,366.787,75.9023,-16.4083,179.055,1.88965,-155.413,304
1567618686,366.787,75.9023,-16.4083,179.055,1.88965,-155.413,304
1567618686,366.787,75.9023,-16.4083,179.055,1.88965,-155.413,304
1567618686,366.787,75.9023,-16.4083,179.055,1.88965,-155.413,304
1567618686,366.787,76.014,-16.4083,179.055,1.91162,-155.413,308
1567618686,366.787,76.014,-16.4083,179.055,1.91162,-155.435,308
1567618686,366.787,76.014,-16.4083,179.055,1.91162,-155.435,308
1567618686,366.787,76.014,-16.4083,179.055,1.91162,-155.435,308
1567618686,366.787,76.014,-16.4083,179.055,1.91162,-155.435,308
1567618686,366.787,76.014,-16.2967,179.055,1.91162,-155.435,308
1567618686,366.787,76.014,-16.2967,179.077,1.91162,-155.435,308
1567618686,366.675,76.014,-16.2967,179.077,1.91162,-155.435,308
1567618686,366.675,76.014,-16.2967,179.077,1.91162,-155.435,308
1567618686,366.675,76.014,-16.4083,179.077,1.91162,-155.435,308
1567618686,366.675,76.014,-16.4083,179.077,1.91162,-155.435,308
1567618686,366.675,76.014,-16.4083,179.077,1.91162,-155.435,308
1567618686,366.675,76.014,-16.4083,179.077,1.91162,-155.435,308
1567618686,366.675,76.014,-16.4083,179.077,1.91162,-155.435,308
1567618686,366.675,76.014,-16.4083,179.077,1.91162,-155.435,308
1567618686,366.675,76.014,-16.4083,179.077,1.88965,-155.435,304
1567618686,366.675,76.014,-16.4083,179.077,1.88965,-155.435,304
1567618686,366.675,76.014,-16.4083,179.077,1.88965,-155.435,304
1567618686,366.675,76.014,-16.4083,179.077,1.88965,-155.435,304
1567618686,366.675,76.014,-16.4083,179.077,1.88965,-155.435,300
1567618686,366.675,76.014,-16.4083,179.077,1.88965,-155.435,300
1567618686,366.675,76.014,-16.4083,179.077,1.88965,-155.435,300
1567618686,366.675,76.014,-16.4083,179.077,1.88965,-155.435,300
1567618686,366.675,76.014,-16.4083,179.055,1.88965,-155.435,300
1567618686,366.675,76.014,-16.4083,179.055,1.88965,-155.435,300
1567618687,366.675,76.014,-16.4083,179.055,1.88965,-155.435,300
1567618687,366.675,76.014,-16.4083,179.055,1.88965,-155.435,300
1567618687,366.675,76.014,-16.4083,179.055,1.88965,-155.435,300
1567618687,366.675,76.014,-16.4083,179.055,1.88965,-155.435,300
1567618687,366.675,76.014,-16.4083,179.055,1.88965,-155.435,300
1567618687,366.787,76.014,-16.2967,179.055,1.91162,-155.435,300
1567618687,366.787,76.014,-16.2967,179.055,1.91162,-155.435,300
1567618687,366.787,76.014,-16.2967,179.055,1.91162,-155.435,300
1567618687,366.787,76.014,-16.2967,179.077,1.91162,-155.413,300
1567618687,366.787,76.014,-16.4083,179.077,1.91162,-155.413,300
1567618687,366.787,76.014,-16.4083,179.077,1.88965,-155.413,296
1567618687,366.787,76.014,-16.4083,179.077,1.88965,-155.413,296
1567618687,366.787,76.014,-16.4083,179.077,1.88965,-155.413,296
1567618687,366.787,76.014,-16.4083,179.077,1.88965,-155.413,296
1567618687,366.787,76.014,-16.4083,179.077,1.88965,-155.413,292
1567618687,366.787,76.014,-16.4083,179.077,1.88965,-155.413,292
1567618687,366.787,76.014,-16.4083,179.077,1.88965,-155.413,292
1567618687,366.787,76.014,-16.4083,179.077,1.88965,-155.413,292
1567618687,366.787,76.014,-16.4083,179.077,1.91162,-155.413,292
1567618687,366.787,76.014,-16.4083,179.077,1.91162,-155.413,288
1567618687,366.787,76.014,-16.4083,179.077,1.91162,-155.413,288
1567618687,366.787,76.014,-16.2967,179.077,1.91162,-155.413,288
1567618687,366.787,76.014,-16.2967,179.077,1.91162,-155.413,288
1567618687,366.787,76.014,-16.2967,179.055,1.91162,-155.413,288
1567618687,366.787,76.014,-16.2967,179.055,1.91162,-155.413,288
1567618687,366.787,76.014,-16.2967,179.055,1.91162,-155.413,288
1567618687,366.787,76.014,-16.2967,179.055,1.91162,-155.413,288
1567618687,366.787,76.014,-16.4083,179.055,1.91162,-155.413,288
1567618687,366.787,76.014,-16.4083,179.055,1.91162,-155.413,288
1567618687,366.787,76.014,-16.4083,179.055,1.91162,-155.413,288
1567618687,366.787,76.014,-16.4083,179.055,1.91162,-155.413,288
1567618687,366.787,76.014,-16.4083,179.077,1.91162,-155.413,288
1567618687,366.787,76.014,-16.4083,179.077,1.91162,-155.413,288
1567618687,366.787,76.014,-16.4083,179.077,1.88965,-155.413,292
1567618687,366.787,76.014,-16.4083,179.077,1.88965,-155.413,292
1567618687,366.787,76.014,-16.4083,179.077,1.88965,-155.413,292
1567618687,366.787,76.014,-16.4083,179.077,1.88965,-155.413,292
1567618687,366.787,76.014,-16.4083,179.077,1.88965,-155.413,292
1567618687,366.675,76.014,-16.4083,179.077,1.88965,-155.413,296
1567618687,366.675,76.014,-16.4083,179.077,1.88965,-155.413,296
1567618687,366.675,76.1256,-16.4083,179.077,1.88965,-155.413,296
1567618687,366.675,76.1256,-16.4083,179.077,1.88965,-155.413,296
1567618687,366.675,76.1256,-16.4083,179.077,1.88965,-155.413,300
1567618687,366.675,76.1256,-16.4083,179.077,1.88965,-155.413,300
1567618687,366.675,76.1256,-16.4083,179.077,1.88965,-155.413,300
1567618687,366.675,76.1256,-16.4083,179.077,1.88965,-155.413,300
1567618687,366.675,76.1256,-16.4083,179.099,1.88965,-155.413,300
1567618687,366.675,76.1256,-16.4083,179.099,1.88965,-155.413,304
1567618687,366.675,76.1256,-16.4083,179.099,1.86768,-155.413,304
1567618687,366.675,76.1256,-16.4083,179.099,1.86768,-155.413,304
1567618687,366.675,76.1256,-16.4083,179.099,1.86768,-155.413,304
1567618687,366.675,76.1256,-16.4083,179.099,1.86768,-155.413,304
1567618687,366.675,76.1256,-16.4083,179.099,1.86768,-155.413,304
1567618687,366.675,76.1256,-16.4083,179.099,1.86768,-155.413,304
1567618687,366.787,76.1256,-16.4083,179.077,1.86768,-155.413,304
1567618687,366.787,76.1256,-16.4083,179.077,1.86768,-155.413,304
1567618687,366.787,76.1256,-16.4083,179.077,1.86768,-155.413,304
1567618687,366.787,76.1256,-16.4083,179.077,1.86768,-155.413,304
1567618687,366.787,76.014,-16.4083,179.077,1.86768,-155.413,304
1567618687,366.787,76.014,-16.4083,179.077,1.86768,-155.413,304
1567618687,366.787,76.014,-16.4083,179.077,1.86768,-155.413,300
1567618687,366.787,76.014,-16.4083,179.077,1.86768,-155.413,300
1567618687,366.787,76.014,-16.4083,179.077,1.86768,-155.413,300
1567618687,366.787,76.014,-16.4083,179.077,1.86768,-155.413,300
1567618687,366.787,76.014,-16.4083,179.077,1.86768,-155.413,300
1567618687,366.787,76.014,-16.4083,179.055,1.86768,-155.413,296
1567618687,366.787,76.014,-16.4083,179.055,1.86768,-155.413,296
1567618687,366.787,76.014,-16.4083,179.055,1.86768,-155.413,296
1567618687,366.787,76.014,-16.4083,179.055,1.86768,-155.413,296
1567618687,366.787,76.014,-16.4083,179.055,1.86768,-155.413,292
1567618687,366.787,76.014,-16.4083,179.055,1.86768,-155.413,292
1567618687,366.787,76.014,-16.4083,179.055,1.86768,-155.413,292
1567618687,366.787,76.014,-16.4083,179.055,1.88965,-155.413,292
1567618687,366.787,76.014,-16.4083,179.077,1.88965,-155.413,292
1567618687,366.787,76.014,-16.4083,179.077,1.88965,-155.413,292
1567618687,366.787,76.014,-16.4083,179.077,1.88965,-155.413,292
1567618687,366.787,76.014,-16.4083,179.077,1.88965,-155.413,292
1567618687,366.787,76.014,-16.4083,179.077,1.86768,-155.391,292
1567618687,366.787,76.014,-16.5199,179.077,1.86768,-155.391,292
1567618687,366.787,76.014,-16.5199,179.077,1.86768,-155.391,292
1567618687,366.787,76.014,-16.5199,179.055,1.86768,-155.391,296
1567618687,366.787,76.014,-16.5199,179.055,1.86768,-155.391,296
1567618687,366.787,76.014,-16.5199,179.055,1.86768,-155.391,296
1567618687,366.787,76.014,-16.5199,179.055,1.86768,-155.391,296
1567618687,366.787,76.014,-16.5199,179.055,1.86768,-155.391,296
1567618687,366.787,76.014,-16.5199,179.055,1.86768,-155.391,296
1567618687,366.787,76.014,-16.5199,179.055,1.86768,-155.391,296
1567618687,366.787,76.014,-16.5199,179.055,1.86768,-155.391,296
1567618687,366.787,76.014,-16.5199,179.055,1.86768,-155.391,296
1567618687,366.787,76.014,-16.5199,179.055,1.86768,-155.391,296
1567618687,366.787,76.014,-16.5199,179.055,1.86768,-155.391,296
1567618687,366.787,76.014,-16.5199,179.055,1.86768,-155.391,296
1567618687,366.899,76.014,-16.5199,179.055,1.86768,-155.391,296
1567618687,366.899,76.014,-16.5199,179.055,1.86768,-155.391,296
1567618687,366.899,76.014,-16.5199,179.055,1.86768,-155.391,296
1567618687,366.899,76.014,-16.5199,179.055,1.86768,-155.391,296
1567618687,366.899,76.014,-16.5199,179.055,1.86768,-155.391,296
1567618687,366.899,76.014,-16.4083,179.055,1.88965,-155.391,296
1567618687,366.899,76.014,-16.4083,179.055,1.88965,-155.391,296
1567618687,366.899,76.014,-16.4083,179.033,1.88965,-155.391,296
1567618688,366.899,76.014,-16.4083,179.055,1.88965,-155.391,296
1567618688,366.899,76.014,-16.4083,179.055,1.88965,-155.391,296
1567618688,366.899,76.014,-16.4083,179.055,1.88965,-155.391,292
1567618688,366.899,76.014,-16.4083,179.055,1.88965,-155.391,292
1567618688,366.899,76.014,-16.4083,179.055,1.88965,-155.391,292
1567618688,366.899,76.014,-16.4083,179.055,1.88965,-155.391,292
1567618688,366.899,76.014,-16.4083,179.055,1.88965,-155.391,292
1567618688,366.899,76.014,-16.4083,179.055,1.88965,-155.391,292
1567618688,366.899,76.014,-16.4083,179.055,1.88965,-155.391,292
1567618688,366.899,76.014,-16.4083,179.055,1.88965,-155.391,292
1567618688,366.899,76.014,-16.4083,179.055,1.88965,-155.391,288
1567618688,366.899,76.014,-16.4083,179.055,1.88965,-155.391,288
1567618688,366.899,76.014,-16.4083,179.077,1.88965,-155.391,288
1567618688,366.899,76.014,-16.4083,179.055,1.88965,-155.391,288
1567618688,366.899,76.014,-16.4083,179.055,1.88965,-155.391,288
1567618688,366.899,76.014,-16.4083,179.055,1.88965,-155.391,288
1567618688,366.899,76.014,-16.4083,179.055,1.88965,-155.391,288
1567618688,366.899,76.014,-16.4083,179.055,1.88965,-155.391,288
1567618688,366.899,76.014,-16.4083,179.055,1.88965,-155.391,288
1567618688,366.899,76.014,-16.4083,179.055,1.91162,-155.391,288
1567618688,366.899,76.014,-16.4083,179.077,1.91162,-155.391,288
1567618688,366.899,76.014,-16.4083,179.077,1.91162,-155.391,288
1567618688,366.899,76.014,-16.4083,179.077,1.91162,-155.391,284
1567618688,366.899,76.014,-16.4083,179.077,1.91162,-155.391,284
1567618688,366.899,76.014,-16.4083,179.077,1.91162,-155.391,284
1567618688,366.899,76.014,-16.4083,179.077,1.91162,-155.391,284
1567618688,366.899,76.014,-16.4083,179.077,1.91162,-155.391,284
1567618688,366.899,76.014,-16.4083,179.077,1.91162,-155.391,284
1567618688,366.899,76.014,-16.4083,179.077,1.91162,-155.391,280
1567618688,366.899,76.014,-16.4083,179.077,1.91162,-155.391,280
1567618688,366.899,76.1256,-16.4083,179.077,1.91162,-155.391,280
1567618688,366.899,76.1256,-16.4083,179.077,1.91162,-155.391,280
1567618688,366.899,76.1256,-16.4083,179.077,1.91162,-155.391,280
1567618688,366.899,76.1256,-16.4083,179.099,1.91162,-155.391,276
1567618688,366.899,76.1256,-16.4083,179.099,1.91162,-155.391,276
1567618688,366.899,76.1256,-16.4083,179.099,1.91162,-155.391,276
1567618688,366.899,76.1256,-16.4083,179.099,1.91162,-155.391,276
1567618688,366.899,76.1256,-16.4083,179.099,1.91162,-155.391,276
1567618688,366.899,76.1256,-16.4083,179.099,1.93359,-155.391,276
1567618688,366.899,76.1256,-16.4083,179.099,1.93359,-155.391,272
1567618688,366.899,76.1256,-16.4083,179.099,1.93359,-155.391,272
1567618688,366.899,76.1256,-16.4083,179.099,1.93359,-155.391,272
1567618688,366.899,76.1256,-16.4083,179.099,1.93359,-155.391,272
1567618688,366.899,76.1256,-16.4083,179.099,1.93359,-155.391,272
1567618688,366.899,76.1256,-16.4083,179.099,1.93359,-155.391,272
1567618688,366.899,76.1256,-16.4083,179.099,1.93359,-155.391,272
1567618688,366.899,76.1256,-16.4083,179.099,1.93359,-155.391,272
1567618688,366.899,76.1256,-16.4083,179.099,1.93359,-155.391,272
1567618688,366.899,76.1256,-16.4083,179.077,1.93359,-155.391,272
1567618688,366.899,76.1256,-16.4083,179.077,1.93359,-155.391,272
1567618688,366.899,76.1256,-16.4083,179.077,1.91162,-155.391,272
1567618688,366.899,76.1256,-16.4083,179.077,1.91162,-155.391,272
1567618688,366.899,76.1256,-16.4083,179.077,1.91162,-155.413,272
1567618688,366.899,76.1256,-16.4083,179.077,1.91162,-155.413,272
1567618688,366.899,76.1256,-16.4083,179.077,1.91162,-155.413,276
1567618688,366.787,76.1256,-16.4083,179.077,1.91162,-155.413,276
1567618688,366.787,76.1256,-16.4083,179.077,1.91162,-155.413,276
1567618688,366.787,76.1256,-16.4083,179.077,1.91162,-155.413,276
1567618688,366.787,76.1256,-16.4083,179.077,1.91162,-155.413,276
1567618688,366.787,76.014,-16.4083,179.077,1.88965,-155.391,276
1567618688,366.787,76.014,-16.4083,179.077,1.88965,-155.391,280
1567618688,366.787,76.014,-16.4083,179.077,1.88965,-155.391,280
1567618688,366.787,76.014,-16.4083,179.077,1.88965,-155.391,280
1567618688,366.787,76.014,-16.4083,179.077,1.88965,-155.391,284
1567618688,366.787,76.014,-16.4083,179.077,1.88965,-155.391,284
1567618688,366.899,76.014,-16.4083,179.077,1.88965,-155.391,288
1567618688,366.899,76.014,-16.4083,179.077,1.91162,-155.391,288
1567618688,366.899,76.014,-16.4083,179.077,1.91162,-155.391,292
1567618688,366.899,76.014,-16.4083,179.055,1.91162,-155.391,292
1567618688,366.899,76.014,-16.4083,179.055,1.91162,-155.391,292
1567618688,366.899,76.014,-16.4083,179.055,1.91162,-155.391,296
1567618688,366.899,76.014,-16.4083,179.055,1.88965,-155.391,296
1567618688,366.899,76.014,-16.4083,179.055,1.88965,-155.391,296
1567618688,366.899,76.014,-16.4083,179.055,1.88965,-155.391,296
1567618688,366.899,76.014,-16.4083,179.055,1.88965,-155.391,296
1567618688,366.899,76.014,-16.4083,179.055,1.88965,-155.391,296
1567618688,366.899,76.014,-16.4083,179.055,1.88965,-155.391,296
1567618688,366.787,76.014,-16.5199,179.055,1.88965,-155.413,296
1567618688,366.787,76.014,-16.5199,179.055,1.88965,-155.413,296
1567618688,366.787,76.014,-16.5199,179.055,1.88965,-155.413,296
1567618688,366.787,76.014,-16.5199,179.055,1.88965,-155.413,296
1567618688,366.787,76.014,-16.5199,179.055,1.88965,-155.413,296
1567618688,366.787,76.014,-16.5199,179.055,1.88965,-155.413,296
1567618688,366.787,76.014,-16.5199,179.055,1.86768,-155.413,296
1567618688,366.787,76.014,-16.5199,179.055,1.86768,-155.413,300
1567618688,366.787,76.014,-16.5199,179.055,1.86768,-155.413,300
1567618688,366.787,76.014,-16.5199,179.055,1.86768,-155.413,300
1567618688,366.787,76.014,-16.5199,179.055,1.86768,-155.413,300
1567618688,366.787,76.014,-16.5199,179.055,1.86768,-155.413,300
1567618688,366.787,76.014,-16.5199,179.055,1.88965,-155.413,304
1567618688,366.787,76.014,-16.5199,179.055,1.88965,-155.413,304
1567618688,366.787,76.014,-16.5199,179.055,1.88965,-155.413,304
1567618688,366.787,76.014,-16.5199,179.055,1.88965,-155.413,304
1567618688,366.787,76.014,-16.5199,179.055,1.88965,-155.413,304
1567618688,366.787,76.014,-16.5199,179.055,1.88965,-155.413,304
1567618688,366.787,76.014,-16.5199,179.055,1.88965,-155.413,304
1567618688,366.787,76.014,-16.5199,179.055,1.88965,-155.413,304
1567618688,366.787,76.014,-16.5199,179.055,1.86768,-155.413,304
1567618688,366.787,76.014,-16.5199,179.055,1.86768,-155.413,304
1567618688,366.787,76.014,-16.5199,179.055,1.86768,-155.413,304
1567618688,366.787,76.014,-16.5199,179.055,1.86768,-155.413,304
1567618689,366.787,76.014,-16.5199,179.055,1.86768,-155.413,304
