time,x,y,z,ax,ay,az,q
1569684314,323.924,28.4634,-14.9572,178.923,1.86768,-145.063,428
1569684314,323.924,28.4634,-14.9572,178.923,1.86768,-145.063,428
1569684314,323.924,28.4634,-14.9572,178.923,1.86768,-145.063,428
1569684314,323.924,28.4634,-14.9572,178.923,1.86768,-145.063,428
1569684314,323.924,28.4634,-14.9572,178.923,1.86768,-145.063,428
1569684314,323.924,28.4634,-14.9572,178.923,1.86768,-145.063,428
1569684314,323.924,28.4634,-14.9572,178.923,1.86768,-145.085,428
1569684314,323.924,28.4634,-14.9572,178.923,1.86768,-145.085,428
1569684314,323.924,28.4634,-14.9572,178.923,1.86768,-145.085,428
1569684314,323.924,28.4634,-14.9572,178.923,1.86768,-145.085,428
1569684314,323.924,28.4634,-14.9572,178.923,1.86768,-145.085,428
1569684314,323.924,28.4634,-14.9572,178.923,1.86768,-145.085,428
1569684314,323.924,28.4634,-14.9572,178.923,1.86768,-145.085,428
1569684314,323.924,28.4634,-14.9572,178.923,1.86768,-145.085,428
1569684314,323.924,28.4634,-14.9572,178.923,1.86768,-145.085,428
1569684314,323.924,28.4634,-14.9572,178.923,1.86768,-145.085,428
1569684314,323.924,28.4634,-14.9572,178.923,1.86768,-145.085,428
1569684314,323.924,28.4634,-14.9572,178.923,1.86768,-145.063,428
1569684314,323.924,28.4634,-14.9572,178.923,1.86768,-145.063,428
1569684314,323.924,28.4634,-14.9572,178.923,1.86768,-145.063,428
1569684314,323.924,28.4634,-14.9572,178.923,1.86768,-145.063,428
1569684314,323.924,28.4634,-14.9572,178.923,1.86768,-145.063,428
1569684314,323.924,28.4634,-14.9572,178.923,1.86768,-145.063,428
1569684314,323.924,28.4634,-14.9572,178.923,1.86768,-145.063,428
1569684314,323.924,28.4634,-14.9572,178.923,1.86768,-145.063,428
1569684314,323.924,28.4634,-14.9572,178.923,1.86768,-145.063,428
1569684314,323.924,28.4634,-14.9572,178.923,1.86768,-145.063,432
1569684314,323.924,28.4634,-14.9572,178.923,1.86768,-145.063,432
1569684314,323.924,28.4634,-14.9572,178.923,1.86768,-145.063,432
1569684314,323.924,28.4634,-14.9572,178.901,1.86768,-145.063,432
1569684314,323.924,28.4634,-14.9572,178.923,1.86768,-145.063,432
1569684315,323.924,28.4634,-14.9572,178.923,1.86768,-145.063,432
1569684315,323.924,28.4634,-14.9572,178.923,1.86768,-145.063,432
1569684315,323.924,28.4634,-14.9572,178.923,1.86768,-145.063,432
1569684315,323.924,28.4634,-14.9572,178.923,1.86768,-145.063,432
1569684315,323.924,28.4634,-14.9572,178.923,1.86768,-145.063,432
1569684315,323.924,28.4634,-14.9572,178.923,1.86768,-145.063,432
1569684315,323.924,28.4634,-14.9572,178.923,1.86768,-145.063,432
1569684315,323.924,28.4634,-14.9572,178.923,1.86768,-145.063,436
1569684315,323.924,28.4634,-14.9572,178.923,1.86768,-145.063,436
1569684315,323.924,28.4634,-14.9572,178.923,1.86768,-145.063,436
1569684315,323.924,28.4634,-14.9572,178.923,1.86768,-145.063,436
1569684315,323.924,28.4634,-14.9572,178.923,1.86768,-145.063,436
1569684315,323.924,28.4634,-14.9572,178.923,1.86768,-145.063,436
1569684315,323.924,28.4634,-14.9572,178.923,1.86768,-145.063,436
1569684315,323.924,28.4634,-14.9572,178.923,1.86768,-145.063,436
1569684315,323.924,28.4634,-14.9572,178.945,1.86768,-145.063,436
1569684315,323.924,28.4634,-14.9572,178.945,1.86768,-145.063,432
1569684315,323.924,28.4634,-14.9572,178.945,1.86768,-145.063,432
1569684315,323.924,28.4634,-14.9572,178.945,1.86768,-145.063,432
1569684315,323.924,28.4634,-14.9572,178.945,1.86768,-145.063,432
1569684315,323.924,28.4634,-14.9572,178.945,1.86768,-145.063,432
1569684315,323.924,28.4634,-14.9572,178.945,1.86768,-145.063,432
1569684315,323.924,28.4634,-14.9572,178.945,1.8457,-145.063,432
1569684315,323.924,28.4634,-14.9572,178.945,1.8457,-145.063,432
1569684315,323.924,28.4634,-14.9572,178.945,1.8457,-145.063,432
1569684315,323.924,28.4634,-14.9572,178.945,1.8457,-145.063,432
1569684315,323.924,28.4634,-15.0688,178.945,1.8457,-145.063,432
1569684315,323.924,28.4634,-15.0688,178.923,1.8457,-145.063,432
1569684315,323.924,28.4634,-15.0688,178.923,1.8457,-145.063,432
1569684315,323.924,28.4634,-15.0688,178.923,1.8457,-145.063,432
1569684315,323.924,28.4634,-15.0688,178.923,1.8457,-145.063,432
1569684315,323.924,28.4634,-14.9572,178.923,1.8457,-145.063,432
1569684315,323.924,28.4634,-14.9572,178.923,1.8457,-145.063,432
1569684315,323.924,28.4634,-14.9572,178.923,1.8457,-145.063,432
1569684315,323.924,28.4634,-14.9572,178.923,1.8457,-145.063,432
1569684315,323.924,28.4634,-14.9572,178.923,1.8457,-145.063,432
1569684315,323.924,28.4634,-14.9572,178.923,1.8457,-145.063,432
1569684315,323.924,28.4634,-14.9572,178.923,1.86768,-145.063,432
1569684315,323.924,28.4634,-14.9572,178.923,1.86768,-145.063,432
1569684315,323.924,28.4634,-14.9572,178.945,1.86768,-145.063,432
1569684315,323.924,28.4634,-14.9572,178.923,1.86768,-145.063,432
1569684315,323.924,28.4634,-14.9572,178.923,1.86768,-145.063,432
1569684315,323.924,28.4634,-14.9572,178.923,1.86768,-145.063,432
1569684315,323.924,28.4634,-14.9572,178.923,1.86768,-145.063,432
1569684315,323.924,28.4634,-14.9572,178.923,1.86768,-145.063,432
1569684315,323.924,28.4634,-14.9572,178.923,1.86768,-145.063,432
1569684315,323.924,28.4634,-14.9572,178.923,1.86768,-145.063,432
1569684315,323.924,28.4634,-14.9572,178.923,1.86768,-145.063,432
1569684315,323.924,28.4634,-14.9572,178.923,1.86768,-145.063,432
1569684315,323.924,28.4634,-14.9572,178.923,1.86768,-145.085,432
1569684315,323.924,28.4634,-14.9572,178.923,1.86768,-145.085,432
1569684315,323.924,28.4634,-14.9572,178.923,1.86768,-145.085,432
1569684315,323.924,28.4634,-14.9572,178.923,1.86768,-145.085,432
1569684315,323.924,28.4634,-14.9572,178.923,1.86768,-145.085,432
1569684315,323.924,28.4634,-14.9572,178.923,1.86768,-145.085,432
1569684315,323.924,28.4634,-14.9572,178.923,1.86768,-145.063,432
1569684315,323.924,28.4634,-14.9572,178.923,1.86768,-145.063,432
1569684315,323.924,28.4634,-14.9572,178.923,1.86768,-145.063,432
1569684315,323.924,28.4634,-14.9572,178.923,1.86768,-145.063,432
1569684315,323.924,28.4634,-14.9572,178.923,1.86768,-145.063,432
1569684315,323.924,28.4634,-14.9572,178.923,1.86768,-145.063,432
1569684315,323.924,28.4634,-14.9572,178.923,1.86768,-145.063,432
1569684315,323.924,28.4634,-14.9572,178.923,1.86768,-145.063,432
1569684315,323.924,28.4634,-14.9572,178.923,1.86768,-145.063,432
1569684315,323.924,28.4634,-14.9572,178.923,1.86768,-145.063,432
1569684315,323.924,28.4634,-14.9572,178.923,1.86768,-145.063,432
1569684315,323.924,28.4634,-14.9572,178.923,1.86768,-145.063,432
1569684315,323.924,28.4634,-14.9572,178.923,1.86768,-145.063,432
1569684315,323.924,28.4634,-14.9572,178.923,1.86768,-145.063,432
1569684315,323.924,28.4634,-14.9572,178.923,1.86768,-145.063,432
1569684315,323.924,28.4634,-14.9572,178.923,1.86768,-145.063,432
1569684315,323.924,28.4634,-14.9572,178.923,1.86768,-145.063,432
1569684315,323.924,28.4634,-14.9572,178.923,1.86768,-145.063,432
1569684315,323.924,28.4634,-14.9572,178.923,1.86768,-145.063,432
1569684315,323.924,28.4634,-14.9572,178.923,1.86768,-145.063,432
1569684315,323.924,28.4634,-14.9572,178.923,1.86768,-145.063,432
1569684315,323.924,28.4634,-14.9572,178.923,1.86768,-145.063,432
1569684315,323.924,28.4634,-14.9572,178.923,1.86768,-145.063,432
1569684315,323.924,28.4634,-14.9572,178.923,1.86768,-145.063,432
1569684315,323.924,28.4634,-14.9572,178.923,1.86768,-145.063,428
1569684315,323.924,28.4634,-14.9572,178.923,1.86768,-145.063,428
1569684315,323.924,28.4634,-14.9572,178.923,1.86768,-145.063,428
1569684315,323.924,28.4634,-14.9572,178.923,1.86768,-145.063,428
1569684315,323.924,28.4634,-14.9572,178.923,1.86768,-145.063,428
1569684315,323.924,28.4634,-14.9572,178.923,1.86768,-145.063,428
1569684315,323.924,28.4634,-14.9572,178.923,1.86768,-145.063,428
1569684315,323.924,28.4634,-14.9572,178.923,1.86768,-145.063,428
1569684315,323.924,28.4634,-14.9572,178.923,1.86768,-145.063,428
1569684315,323.924,28.4634,-14.9572,178.923,1.86768,-145.063,428
1569684315,323.924,28.4634,-14.9572,178.923,1.86768,-145.063,428
1569684315,323.924,28.4634,-14.9572,178.923,1.86768,-145.063,428
1569684315,323.924,28.4634,-14.9572,178.923,1.86768,-145.063,428
1569684315,323.924,28.4634,-14.9572,178.923,1.86768,-145.063,428
1569684315,323.924,28.4634,-14.9572,178.923,1.8457,-145.063,428
1569684315,323.924,28.4634,-15.0688,178.923,1.8457,-145.063,428
1569684315,323.924,28.4634,-15.0688,178.923,1.8457,-145.063,424
1569684315,323.924,28.4634,-15.0688,178.923,1.8457,-145.063,424
1569684315,323.924,28.4634,-15.0688,178.923,1.8457,-145.063,424
1569684315,324.036,28.4634,-15.0688,178.923,1.8457,-145.063,424
1569684315,324.036,28.4634,-15.0688,178.923,1.8457,-145.063,424
1569684316,324.036,28.4634,-15.0688,178.923,1.8457,-145.063,424
1569684316,324.036,28.4634,-15.0688,178.923,1.8457,-145.063,424
1569684316,323.924,28.4634,-14.9572,178.923,1.8457,-145.063,424
1569684316,323.924,28.4634,-14.9572,178.923,1.8457,-145.063,424
1569684316,323.924,28.4634,-14.9572,178.923,1.8457,-145.063,424
1569684316,323.924,28.4634,-14.9572,178.923,1.86768,-145.063,424
1569684316,323.924,28.4634,-14.9572,178.923,1.86768,-145.063,424
1569684316,323.924,28.4634,-14.9572,178.923,1.86768,-145.063,424
1569684316,323.924,28.4634,-14.9572,178.923,1.86768,-145.063,424
1569684316,323.924,28.4634,-14.9572,178.923,1.86768,-145.063,424
1569684316,323.924,28.4634,-14.9572,178.923,1.86768,-145.063,424
1569684316,323.924,28.4634,-14.9572,178.923,1.86768,-145.063,424
1569684316,323.924,28.4634,-14.9572,178.923,1.86768,-145.063,424
1569684316,323.924,28.4634,-14.9572,178.923,1.86768,-145.063,424
1569684316,323.924,28.4634,-14.9572,178.923,1.86768,-145.063,428
1569684316,323.924,28.4634,-14.9572,178.923,1.86768,-145.063,428
1569684316,323.924,28.4634,-14.9572,178.923,1.86768,-145.063,428
1569684316,323.924,28.4634,-14.9572,178.923,1.86768,-145.063,428
1569684316,323.924,28.4634,-14.9572,178.923,1.86768,-145.063,428
1569684316,323.924,28.4634,-14.9572,178.923,1.86768,-145.063,428
1569684316,323.924,28.4634,-14.9572,178.923,1.86768,-145.063,428
1569684316,323.924,28.4634,-14.9572,178.923,1.86768,-145.063,432
1569684316,323.924,28.4634,-14.9572,178.923,1.86768,-145.063,432
1569684316,323.924,28.4634,-14.9572,178.923,1.86768,-145.063,432
1569684316,323.924,28.4634,-14.9572,178.923,1.86768,-145.063,432
1569684316,323.924,28.4634,-14.9572,178.923,1.86768,-145.063,432
1569684316,323.924,28.4634,-14.9572,178.923,1.86768,-145.063,432
1569684316,323.924,28.4634,-14.9572,178.923,1.86768,-145.063,432
1569684316,323.924,28.4634,-14.9572,178.923,1.86768,-145.063,432
1569684316,323.924,28.4634,-14.9572,178.923,1.86768,-145.063,432
1569684316,323.924,28.4634,-14.9572,178.923,1.86768,-145.063,432
1569684316,323.924,28.4634,-14.9572,178.923,1.86768,-145.063,432
1569684316,323.924,28.4634,-14.9572,178.923,1.86768,-145.063,432
1569684316,323.924,28.4634,-14.9572,178.923,1.86768,-145.063,432
1569684316,323.924,28.4634,-14.9572,178.923,1.86768,-145.063,432
1569684316,323.924,28.4634,-14.9572,178.923,1.86768,-145.063,432
1569684316,323.924,28.4634,-14.9572,178.923,1.86768,-145.063,432
1569684316,323.924,28.4634,-14.9572,178.923,1.86768,-145.085,432
1569684316,323.924,28.4634,-14.9572,178.923,1.86768,-145.085,432
1569684316,323.924,28.4634,-14.9572,178.923,1.86768,-145.085,432
1569684316,323.924,28.4634,-14.9572,178.923,1.86768,-145.085,432
1569684316,323.924,28.4634,-14.9572,178.923,1.86768,-145.085,432
1569684316,323.924,28.4634,-14.9572,178.923,1.86768,-145.085,432
1569684316,323.924,28.4634,-14.9572,178.923,1.86768,-145.085,432
1569684316,323.924,28.4634,-14.9572,178.923,1.86768,-145.085,432
1569684316,323.924,28.4634,-14.9572,178.923,1.86768,-145.085,432
1569684316,323.924,28.4634,-14.9572,178.923,1.86768,-145.063,432
1569684316,323.924,28.4634,-14.9572,178.923,1.8457,-145.063,432
1569684316,323.924,28.4634,-14.9572,178.923,1.8457,-145.063,432
1569684316,323.924,28.4634,-14.9572,178.923,1.8457,-145.063,432
1569684316,323.924,28.4634,-14.9572,178.923,1.8457,-145.063,432
1569684316,323.924,28.4634,-14.9572,178.923,1.8457,-145.063,432
1569684316,323.924,28.4634,-14.9572,178.923,1.8457,-145.063,432
1569684316,323.924,28.4634,-14.9572,178.923,1.8457,-145.063,432
1569684316,323.924,28.4634,-15.0688,178.923,1.8457,-145.063,436
1569684316,323.924,28.4634,-15.0688,178.923,1.8457,-145.063,436
1569684316,323.924,28.4634,-15.0688,178.923,1.8457,-145.063,436
1569684316,323.924,28.4634,-15.0688,178.923,1.8457,-145.063,436
1569684316,323.924,28.4634,-15.0688,178.923,1.8457,-145.063,436
1569684316,323.924,28.4634,-15.0688,178.923,1.8457,-145.063,436
1569684316,323.924,28.4634,-15.0688,178.923,1.8457,-145.063,436
1569684316,323.924,28.4634,-15.0688,178.923,1.8457,-145.063,436
1569684316,323.924,28.4634,-15.0688,178.923,1.8457,-145.063,436
1569684316,323.924,28.4634,-15.0688,178.923,1.8457,-145.063,436
1569684316,323.924,28.4634,-15.0688,178.923,1.8457,-145.063,436
1569684316,323.924,28.4634,-15.0688,178.923,1.8457,-145.063,436
1569684316,323.924,28.4634,-14.9572,178.923,1.8457,-145.063,436
1569684316,323.924,28.4634,-14.9572,178.923,1.8457,-145.063,436
1569684316,323.924,28.4634,-14.9572,178.923,1.8457,-145.063,436
1569684316,323.924,28.4634,-15.0688,178.923,1.8457,-145.063,436
1569684316,323.924,28.4634,-15.0688,178.923,1.8457,-145.063,436
1569684316,323.924,28.4634,-15.0688,178.923,1.8457,-145.063,436
1569684316,323.924,28.4634,-15.0688,178.923,1.8457,-145.063,436
1569684316,323.924,28.4634,-15.0688,178.923,1.8457,-145.063,436
1569684316,323.924,28.4634,-15.0688,178.923,1.8457,-145.063,436
1569684316,323.924,28.4634,-15.0688,178.923,1.8457,-145.063,436
1569684316,323.924,28.4634,-15.0688,178.923,1.8457,-145.063,436
1569684316,323.924,28.4634,-15.0688,178.923,1.8457,-145.063,436
1569684316,323.924,28.4634,-15.0688,178.923,1.8457,-145.063,436
1569684316,323.924,28.4634,-15.0688,178.923,1.8457,-145.063,436
1569684316,323.924,28.4634,-15.0688,178.923,1.8457,-145.063,436
1569684316,323.924,28.4634,-14.9572,178.923,1.8457,-145.063,436
1569684316,323.924,28.4634,-14.9572,178.923,1.8457,-145.063,436
1569684316,323.924,28.4634,-14.9572,178.923,1.8457,-145.063,436
1569684316,323.924,28.4634,-14.9572,178.923,1.86768,-145.063,436
1569684316,323.924,28.4634,-14.9572,178.923,1.86768,-145.085,436
1569684316,323.924,28.4634,-14.9572,178.923,1.86768,-145.085,436
1569684316,323.924,28.4634,-14.9572,178.923,1.86768,-145.085,432
1569684316,323.924,28.4634,-14.9572,178.923,1.86768,-145.085,432
1569684316,323.924,28.4634,-14.9572,178.923,1.86768,-145.085,432
1569684316,323.924,28.4634,-14.9572,178.923,1.86768,-145.085,432
1569684316,323.924,28.4634,-14.9572,178.923,1.86768,-145.085,432
1569684316,323.924,28.4634,-14.9572,178.923,1.86768,-145.085,432
1569684316,323.924,28.4634,-14.9572,178.923,1.86768,-145.085,432
1569684316,323.924,28.4634,-14.9572,178.923,1.86768,-145.085,432
1569684316,323.924,28.4634,-14.9572,178.923,1.86768,-145.085,432
1569684316,323.924,28.4634,-14.9572,178.923,1.86768,-145.085,432
1569684316,323.924,28.4634,-14.9572,178.923,1.86768,-145.085,432
1569684316,323.924,28.4634,-14.9572,178.923,1.86768,-145.085,432
1569684316,323.924,28.4634,-14.9572,178.923,1.86768,-145.085,432
1569684317,323.924,28.4634,-14.9572,178.923,1.86768,-145.085,432
1569684317,323.924,28.4634,-14.9572,178.923,1.86768,-145.085,432
1569684317,323.924,28.4634,-14.9572,178.923,1.86768,-145.085,432
1569684317,323.924,28.4634,-14.9572,178.923,1.86768,-145.085,432
1569684317,323.924,28.4634,-14.9572,178.923,1.86768,-145.085,432
1569684317,323.924,28.4634,-14.9572,178.923,1.86768,-145.085,432
1569684317,323.924,28.4634,-14.9572,178.923,1.86768,-145.063,432
1569684317,323.924,28.4634,-14.9572,178.923,1.86768,-145.063,432
1569684317,323.924,28.4634,-14.9572,178.923,1.86768,-145.063,432
1569684317,323.924,28.4634,-14.9572,178.923,1.86768,-145.063,432
1569684317,323.924,28.4634,-14.9572,178.923,1.86768,-145.063,432
1569684317,323.924,28.4634,-14.9572,178.923,1.88965,-145.063,432
1569684317,323.924,28.4634,-14.9572,178.923,1.88965,-145.063,432
1569684317,323.924,28.4634,-14.9572,178.923,1.88965,-145.063,432
1569684317,323.924,28.4634,-14.9572,178.923,1.88965,-145.063,432
1569684317,323.924,28.4634,-14.9572,178.923,1.88965,-145.063,432
1569684317,323.924,28.4634,-14.9572,178.923,1.88965,-145.063,432
1569684317,323.924,28.4634,-14.9572,178.923,1.88965,-145.063,432
1569684317,323.924,28.4634,-14.9572,178.923,1.88965,-145.063,432
1569684317,323.924,28.4634,-14.9572,178.923,1.86768,-145.063,432
1569684317,323.924,28.4634,-14.9572,178.923,1.86768,-145.063,432
1569684317,323.924,28.4634,-14.9572,178.923,1.86768,-145.063,432
1569684317,323.924,28.4634,-14.9572,178.923,1.86768,-145.063,428
1569684317,323.924,28.4634,-14.9572,178.923,1.86768,-145.063,428
1569684317,323.924,28.4634,-14.9572,178.923,1.86768,-145.063,428
1569684317,323.924,28.4634,-14.9572,178.923,1.86768,-145.063,428
1569684317,323.924,28.4634,-14.9572,178.923,1.86768,-145.063,428
1569684317,323.924,28.4634,-14.9572,178.923,1.86768,-145.063,428
1569684317,323.924,28.4634,-14.9572,178.923,1.86768,-145.063,428
1569684317,323.924,28.4634,-14.9572,178.923,1.86768,-145.063,428
1569684317,323.924,28.4634,-14.9572,178.923,1.86768,-145.063,428
1569684317,323.924,28.4634,-14.9572,178.923,1.86768,-145.063,428
1569684317,323.924,28.4634,-14.9572,178.923,1.86768,-145.063,428
1569684317,323.924,28.4634,-14.9572,178.923,1.86768,-145.063,428
1569684317,323.924,28.4634,-14.9572,178.923,1.8457,-145.063,428
1569684317,323.924,28.4634,-14.9572,178.923,1.8457,-145.063,428
1569684317,323.924,28.4634,-14.9572,178.923,1.8457,-145.063,428
1569684317,323.924,28.4634,-14.9572,178.923,1.8457,-145.063,428
1569684317,323.924,28.4634,-14.9572,178.923,1.8457,-145.063,428
1569684317,323.924,28.4634,-14.9572,178.923,1.8457,-145.063,428
1569684317,323.924,28.4634,-14.9572,178.923,1.8457,-145.063,428
1569684317,323.924,28.4634,-14.9572,178.923,1.8457,-145.063,428
1569684317,323.924,28.4634,-14.9572,178.923,1.8457,-145.063,428
1569684317,323.924,28.4634,-14.9572,178.923,1.8457,-145.063,428
1569684317,323.924,28.4634,-14.9572,178.923,1.8457,-145.063,428
1569684317,323.924,28.4634,-15.0688,178.923,1.8457,-145.063,428
1569684317,323.924,28.4634,-15.0688,178.923,1.8457,-145.063,432
1569684317,323.924,28.4634,-15.0688,178.923,1.8457,-145.063,432
1569684317,323.924,28.4634,-15.0688,178.923,1.8457,-145.063,432
1569684317,323.924,28.4634,-15.0688,178.923,1.8457,-145.063,432
1569684317,323.924,28.4634,-15.0688,178.923,1.8457,-145.063,432
1569684317,323.924,28.4634,-15.0688,178.923,1.8457,-145.063,432
1569684317,323.924,28.4634,-15.0688,178.923,1.8457,-145.063,432
1569684317,323.924,28.4634,-15.0688,178.923,1.8457,-145.063,432
1569684317,323.924,28.4634,-15.0688,178.923,1.8457,-145.063,432
1569684317,323.924,28.4634,-15.0688,178.923,1.8457,-145.063,432
1569684317,323.924,28.4634,-15.0688,178.923,1.8457,-145.063,432
1569684317,323.924,28.4634,-15.0688,178.923,1.8457,-145.063,436
1569684317,323.924,28.4634,-15.0688,178.923,1.8457,-145.063,436
1569684317,323.924,28.4634,-15.0688,178.923,1.8457,-145.063,436
1569684317,323.924,28.4634,-15.0688,178.923,1.8457,-145.063,436
1569684317,323.924,28.4634,-15.0688,178.923,1.8457,-145.063,436
1569684317,323.924,28.4634,-15.0688,178.923,1.8457,-145.063,436
1569684317,323.924,28.4634,-15.0688,178.923,1.82373,-145.063,436
1569684317,323.924,28.4634,-15.0688,178.923,1.82373,-145.063,436
1569684317,323.924,28.4634,-15.0688,178.923,1.82373,-145.063,436
1569684317,323.924,28.4634,-15.0688,178.945,1.82373,-145.063,436
1569684317,323.924,28.4634,-15.0688,178.945,1.82373,-145.063,436
1569684317,323.924,28.4634,-15.0688,178.945,1.82373,-145.063,436
1569684317,323.924,28.4634,-15.0688,178.945,1.82373,-145.063,436
1569684317,323.924,28.4634,-15.0688,178.945,1.82373,-145.063,436
1569684317,323.924,28.4634,-15.0688,178.945,1.82373,-145.063,436
1569684317,323.924,28.4634,-15.0688,178.945,1.8457,-145.063,436
1569684317,323.924,28.4634,-15.0688,178.945,1.8457,-145.063,440
1569684317,323.924,28.4634,-15.0688,178.945,1.8457,-145.063,440
1569684317,323.924,28.4634,-15.0688,178.945,1.8457,-145.063,440
1569684317,323.924,28.4634,-15.0688,178.945,1.8457,-145.063,440
1569684317,323.924,28.4634,-15.0688,178.945,1.8457,-145.063,440
1569684317,323.924,28.4634,-15.0688,178.945,1.8457,-145.063,440
1569684317,323.924,28.4634,-15.0688,178.945,1.8457,-145.063,440
1569684317,323.924,28.4634,-14.9572,178.945,1.8457,-145.063,440
1569684317,323.924,28.4634,-14.9572,178.945,1.8457,-145.063,440
1569684317,323.924,28.4634,-14.9572,178.945,1.8457,-145.063,440
1569684317,323.924,28.4634,-14.9572,178.945,1.8457,-145.063,440
1569684317,323.924,28.4634,-14.9572,178.945,1.8457,-145.063,440
1569684317,323.924,28.4634,-14.9572,178.945,1.8457,-145.063,440
1569684317,323.924,28.4634,-14.9572,178.945,1.8457,-145.063,440
1569684317,323.924,28.4634,-14.9572,178.945,1.8457,-145.063,440
1569684317,323.924,28.4634,-14.9572,178.945,1.8457,-145.063,440
1569684317,323.924,28.4634,-14.9572,178.945,1.8457,-145.063,440
1569684317,323.924,28.4634,-14.9572,178.923,1.8457,-145.063,440
1569684317,323.924,28.4634,-14.9572,178.923,1.8457,-145.063,440
1569684317,323.924,28.4634,-14.9572,178.923,1.8457,-145.063,440
1569684317,323.924,28.4634,-14.9572,178.923,1.86768,-145.063,440
1569684317,323.924,28.4634,-14.9572,178.923,1.86768,-145.063,440
1569684317,323.924,28.4634,-14.9572,178.923,1.86768,-145.063,440
1569684317,323.924,28.4634,-14.9572,178.923,1.86768,-145.063,440
1569684317,323.924,28.4634,-14.9572,178.923,1.86768,-145.063,444
1569684317,323.924,28.4634,-14.9572,178.923,1.86768,-145.063,444
1569684317,323.924,28.4634,-14.9572,178.923,1.86768,-145.063,444
1569684318,323.924,28.4634,-14.9572,178.923,1.86768,-145.063,444
1569684318,323.924,28.4634,-14.9572,178.923,1.86768,-145.063,444
1569684318,323.924,28.3518,-14.9572,178.923,1.86768,-145.063,444
1569684318,323.924,28.3518,-14.9572,178.901,1.86768,-145.063,444
1569684318,323.924,28.3518,-14.9572,178.901,1.86768,-145.063,444
1569684318,323.924,28.3518,-14.9572,178.901,1.86768,-145.063,444
1569684318,323.924,28.3518,-14.9572,178.901,1.86768,-145.063,444
1569684318,323.924,28.3518,-14.9572,178.901,1.86768,-145.063,444
1569684318,323.924,28.3518,-14.9572,178.901,1.86768,-145.063,444
1569684318,323.924,28.3518,-14.9572,178.901,1.86768,-145.063,444
1569684318,323.924,28.3518,-14.9572,178.901,1.86768,-145.063,444
1569684318,323.924,28.4634,-14.9572,178.901,1.86768,-145.063,444
1569684318,323.924,28.4634,-14.9572,178.901,1.86768,-145.063,444
1569684318,323.924,28.4634,-14.9572,178.901,1.86768,-145.063,444
1569684318,323.924,28.3518,-14.9572,178.901,1.86768,-145.063,444
1569684318,323.924,28.3518,-14.9572,178.901,1.86768,-145.063,444
1569684318,323.924,28.3518,-14.9572,178.901,1.86768,-145.063,444
1569684318,323.924,28.3518,-14.9572,178.901,1.86768,-145.063,444
1569684318,323.924,28.4634,-14.9572,178.923,1.88965,-145.063,444
1569684318,323.924,28.4634,-14.9572,178.923,1.88965,-145.063,444
1569684318,323.924,28.4634,-14.9572,178.923,1.88965,-145.063,444
1569684318,323.924,28.4634,-14.9572,178.923,1.88965,-145.063,444
1569684318,323.924,28.4634,-14.9572,178.923,1.88965,-145.063,440
1569684318,323.924,28.4634,-14.9572,178.923,1.88965,-145.063,440
1569684318,323.924,28.4634,-14.9572,178.923,1.88965,-145.063,440
1569684318,323.924,28.4634,-14.9572,178.923,1.86768,-145.063,440
1569684318,323.924,28.4634,-14.9572,178.923,1.86768,-145.063,440
1569684318,323.924,28.4634,-14.9572,178.923,1.86768,-145.063,440
1569684318,323.924,28.4634,-14.9572,178.923,1.86768,-145.063,440
1569684318,323.924,28.4634,-14.9572,178.923,1.86768,-145.063,440
1569684318,323.924,28.4634,-14.9572,178.923,1.86768,-145.063,440
1569684318,323.924,28.4634,-14.9572,178.945,1.86768,-145.063,440
1569684318,323.924,28.4634,-14.9572,178.945,1.86768,-145.063,440
1569684318,323.924,28.4634,-14.9572,178.945,1.86768,-145.063,440
1569684318,323.924,28.4634,-14.9572,178.945,1.86768,-145.063,440
1569684318,323.924,28.4634,-14.9572,178.945,1.86768,-145.063,440
1569684318,323.924,28.4634,-14.9572,178.945,1.86768,-145.063,440
1569684318,323.924,28.4634,-14.9572,178.945,1.86768,-145.063,440
1569684318,323.924,28.4634,-14.9572,178.945,1.86768,-145.063,436
1569684318,323.924,28.4634,-14.9572,178.945,1.86768,-145.063,436
1569684318,323.924,28.4634,-14.9572,178.945,1.86768,-145.063,436
1569684318,323.924,28.4634,-14.9572,178.945,1.86768,-145.063,436
1569684318,323.924,28.4634,-14.9572,178.945,1.86768,-145.063,436
1569684318,323.924,28.4634,-14.9572,178.945,1.86768,-145.063,436
1569684318,323.924,28.4634,-14.9572,178.945,1.86768,-145.063,436
1569684318,323.924,28.4634,-14.9572,178.945,1.86768,-145.063,436
1569684318,323.924,28.4634,-14.9572,178.945,1.86768,-145.063,436
1569684318,323.924,28.4634,-14.9572,178.945,1.86768,-145.063,436
1569684318,323.924,28.4634,-14.9572,178.945,1.86768,-145.063,436
1569684318,323.924,28.4634,-14.9572,178.945,1.86768,-145.063,436
1569684318,323.924,28.4634,-14.9572,178.945,1.86768,-145.063,436
1569684318,323.924,28.4634,-14.9572,178.923,1.86768,-145.063,436
1569684318,323.924,28.4634,-14.9572,178.923,1.86768,-145.063,436
1569684318,323.924,28.4634,-14.9572,178.923,1.86768,-145.063,436
1569684318,323.924,28.4634,-14.9572,178.923,1.8457,-145.063,436
1569684318,323.924,28.4634,-14.9572,178.923,1.8457,-145.063,436
1569684318,323.924,28.4634,-14.9572,178.923,1.8457,-145.063,436
1569684318,323.924,28.4634,-14.9572,178.923,1.86768,-145.063,436
1569684318,323.924,28.4634,-14.9572,178.923,1.86768,-145.063,436
1569684318,323.924,28.4634,-14.9572,178.923,1.86768,-145.063,440
1569684318,323.924,28.4634,-14.9572,178.923,1.86768,-145.063,440
1569684318,323.924,28.4634,-14.9572,178.923,1.86768,-145.063,440
1569684318,323.924,28.4634,-14.9572,178.923,1.86768,-145.063,440
1569684318,323.924,28.4634,-14.9572,178.923,1.86768,-145.063,440
1569684318,323.924,28.4634,-14.9572,178.923,1.86768,-145.063,440
1569684318,323.924,28.4634,-14.9572,178.923,1.86768,-145.063,440
1569684318,323.924,28.4634,-14.9572,178.923,1.86768,-145.063,440
1569684318,323.924,28.4634,-14.9572,178.923,1.86768,-145.063,440
1569684318,323.924,28.4634,-14.9572,178.923,1.86768,-145.063,440
1569684318,323.924,28.4634,-14.9572,178.923,1.86768,-145.063,440
1569684318,323.924,28.4634,-14.9572,178.923,1.86768,-145.063,436
1569684318,323.924,28.4634,-14.9572,178.923,1.86768,-145.063,436
1569684318,323.924,28.4634,-14.9572,178.923,1.86768,-145.063,436
1569684318,323.924,28.4634,-14.9572,178.923,1.86768,-145.063,436
1569684318,323.924,28.4634,-14.9572,178.923,1.86768,-145.063,436
1569684318,323.924,28.4634,-14.9572,178.923,1.86768,-145.063,432
1569684318,323.924,28.4634,-14.9572,178.923,1.86768,-145.063,432
1569684318,323.924,28.4634,-14.9572,178.923,1.86768,-145.063,432
1569684318,323.924,28.4634,-14.9572,178.923,1.86768,-145.063,432
1569684318,323.924,28.4634,-14.9572,178.923,1.86768,-145.063,432
1569684318,323.924,28.4634,-14.9572,178.923,1.86768,-145.063,432
1569684318,323.924,28.4634,-14.9572,178.923,1.86768,-145.063,432
1569684318,323.924,28.4634,-14.9572,178.923,1.86768,-145.063,432
1569684318,323.924,28.4634,-14.9572,178.923,1.86768,-145.063,432
1569684318,323.924,28.4634,-14.9572,178.923,1.86768,-145.063,432
1569684318,323.924,28.4634,-14.9572,178.923,1.86768,-145.063,432
1569684318,323.924,28.4634,-14.9572,178.923,1.86768,-145.063,432
1569684318,323.924,28.4634,-14.9572,178.923,1.86768,-145.063,432
1569684318,323.924,28.4634,-14.9572,178.923,1.86768,-145.063,432
1569684318,323.924,28.4634,-14.9572,178.923,1.86768,-145.085,432
1569684318,323.924,28.4634,-14.9572,178.923,1.86768,-145.085,432
1569684318,323.924,28.4634,-14.9572,178.923,1.86768,-145.085,432
1569684318,323.924,28.4634,-14.9572,178.923,1.86768,-145.085,432
1569684318,323.924,28.4634,-14.9572,178.923,1.86768,-145.085,432
1569684318,323.924,28.4634,-14.9572,178.923,1.86768,-145.085,432
1569684318,323.924,28.4634,-14.9572,178.923,1.86768,-145.085,432
1569684318,323.924,28.4634,-14.9572,178.923,1.86768,-145.085,432
1569684318,323.924,28.4634,-14.9572,178.923,1.86768,-145.085,432
1569684318,323.924,28.4634,-14.9572,178.923,1.86768,-145.085,436
1569684318,323.924,28.4634,-14.9572,178.923,1.86768,-145.085,436
1569684319,323.924,28.4634,-14.9572,178.923,1.86768,-145.085,436
1569684319,323.924,28.4634,-14.9572,178.923,1.86768,-145.085,436
1569684319,323.924,28.4634,-14.9572,178.923,1.86768,-145.085,436
1569684319,323.924,28.4634,-14.9572,178.923,1.86768,-145.085,436
1569684319,323.924,28.4634,-14.9572,178.923,1.86768,-145.085,436
1569684319,323.924,28.4634,-14.9572,178.923,1.86768,-145.085,436
1569684319,323.924,28.4634,-14.9572,178.923,1.86768,-145.085,436
1569684319,323.924,28.4634,-14.9572,178.923,1.86768,-145.085,436
1569684319,323.924,28.4634,-14.9572,178.923,1.86768,-145.085,436
1569684319,323.924,28.4634,-14.9572,178.923,1.86768,-145.085,436
1569684319,323.924,28.4634,-14.9572,178.923,1.86768,-145.085,436
1569684319,323.924,28.4634,-14.9572,178.923,1.86768,-145.085,436
1569684319,323.924,28.4634,-14.9572,178.923,1.8457,-145.063,436
1569684319,323.924,28.4634,-14.9572,178.923,1.8457,-145.063,436
1569684319,323.924,28.4634,-14.9572,178.923,1.8457,-145.063,436
1569684319,323.924,28.4634,-14.9572,178.923,1.8457,-145.063,436
1569684319,323.924,28.4634,-14.9572,178.923,1.8457,-145.063,436
1569684319,323.924,28.4634,-14.9572,178.923,1.8457,-145.063,440
1569684319,323.924,28.4634,-14.9572,178.945,1.8457,-145.063,440
1569684319,323.924,28.4634,-15.0688,178.945,1.8457,-145.063,440
1569684319,323.924,28.4634,-15.0688,178.945,1.8457,-145.063,440
1569684319,323.924,28.4634,-15.0688,178.945,1.8457,-145.063,440
1569684319,323.924,28.4634,-15.0688,178.945,1.8457,-145.063,440
1569684319,323.924,28.4634,-15.0688,178.945,1.8457,-145.063,440
1569684319,323.924,28.4634,-15.0688,178.945,1.8457,-145.063,440
1569684319,323.924,28.4634,-15.0688,178.945,1.8457,-145.063,440
1569684319,323.924,28.4634,-15.0688,178.945,1.8457,-145.063,440
1569684319,323.924,28.4634,-15.0688,178.923,1.8457,-145.063,440
1569684319,323.924,28.4634,-15.0688,178.923,1.8457,-145.063,440
1569684319,323.924,28.4634,-15.0688,178.923,1.8457,-145.063,440
1569684319,323.924,28.4634,-14.9572,178.923,1.8457,-145.063,440
1569684319,323.924,28.4634,-14.9572,178.923,1.8457,-145.063,440
1569684319,323.924,28.4634,-14.9572,178.923,1.8457,-145.063,440
1569684319,323.924,28.4634,-14.9572,178.923,1.8457,-145.063,440
1569684319,323.924,28.4634,-14.9572,178.923,1.8457,-145.063,440
1569684319,323.924,28.4634,-14.9572,178.923,1.8457,-145.063,440
1569684319,323.924,28.4634,-14.9572,178.923,1.8457,-145.063,440
1569684319,323.924,28.4634,-14.9572,178.923,1.8457,-145.063,440
1569684319,323.924,28.4634,-14.9572,178.923,1.8457,-145.063,440
1569684319,323.924,28.4634,-14.9572,178.923,1.8457,-145.063,436
1569684319,323.924,28.4634,-14.9572,178.923,1.8457,-145.063,436
1569684319,323.924,28.4634,-14.9572,178.923,1.8457,-145.063,436
1569684319,323.924,28.4634,-14.9572,178.923,1.8457,-145.063,436
1569684319,323.924,28.4634,-14.9572,178.923,1.86768,-145.063,436
1569684319,323.924,28.4634,-14.9572,178.923,1.86768,-145.063,436
1569684319,323.924,28.4634,-14.9572,178.923,1.86768,-145.063,436
1569684319,323.924,28.4634,-14.9572,178.923,1.86768,-145.063,436
1569684319,323.924,28.4634,-14.9572,178.923,1.86768,-145.063,436
1569684319,323.924,28.4634,-14.9572,178.923,1.86768,-145.063,436
1569684319,323.924,28.4634,-14.9572,178.923,1.86768,-145.063,436
1569684319,323.924,28.4634,-14.9572,178.923,1.86768,-145.063,436
1569684319,323.924,28.4634,-14.9572,178.923,1.86768,-145.063,436
1569684319,323.924,28.4634,-14.9572,178.923,1.86768,-145.063,436
1569684319,323.924,28.4634,-14.9572,178.923,1.86768,-145.063,436
1569684319,323.924,28.4634,-14.9572,178.923,1.86768,-145.063,436
1569684319,323.924,28.4634,-14.9572,178.923,1.86768,-145.063,432
1569684319,323.924,28.4634,-14.9572,178.923,1.86768,-145.063,432
1569684319,323.924,28.4634,-14.9572,178.923,1.86768,-145.063,432
1569684319,323.924,28.4634,-14.9572,178.923,1.86768,-145.063,432
1569684319,323.924,28.4634,-14.9572,178.923,1.86768,-145.063,432
1569684319,323.924,28.4634,-14.9572,178.923,1.86768,-145.063,432
1569684319,323.924,28.4634,-14.9572,178.923,1.86768,-145.063,432
1569684319,323.924,28.4634,-14.9572,178.923,1.86768,-145.063,432
1569684319,323.924,28.4634,-14.9572,178.923,1.86768,-145.063,432
1569684319,323.924,28.4634,-14.9572,178.901,1.86768,-145.063,432
1569684319,323.924,28.4634,-14.9572,178.901,1.86768,-145.063,432
1569684319,323.924,28.4634,-14.9572,178.923,1.86768,-145.063,432
1569684319,323.924,28.4634,-14.9572,178.923,1.86768,-145.063,432
1569684319,323.924,28.4634,-14.9572,178.923,1.86768,-145.063,432
1569684323,339.216,12.1667,-14.734,179.033,1.75781,-144.778,460
1569684323,339.216,12.1667,-14.734,179.033,1.75781,-144.778,460
1569684323,339.216,12.2783,-14.734,179.033,1.75781,-144.778,460
1569684323,339.216,12.2783,-14.734,179.033,1.75781,-144.778,460
1569684323,339.216,12.2783,-14.734,179.033,1.75781,-144.778,460
1569684323,339.216,12.2783,-14.734,179.033,1.75781,-144.778,460
1569684323,339.216,12.2783,-14.734,179.033,1.75781,-144.778,460
1569684323,339.216,12.2783,-14.734,179.033,1.75781,-144.778,460
1569684323,339.216,12.2783,-14.734,179.033,1.75781,-144.778,460
1569684323,339.216,12.2783,-14.734,179.033,1.75781,-144.778,460
1569684323,339.216,12.2783,-14.734,179.033,1.75781,-144.756,460
1569684324,339.216,12.2783,-14.734,179.033,1.75781,-144.756,460
1569684324,339.216,12.2783,-14.734,179.033,1.75781,-144.756,460
1569684324,339.216,12.2783,-14.734,179.033,1.75781,-144.756,460
1569684324,339.216,12.2783,-14.734,179.033,1.75781,-144.756,460
1569684324,339.216,12.2783,-14.734,179.033,1.75781,-144.756,460
1569684324,339.216,12.2783,-14.734,179.033,1.75781,-144.778,456
1569684324,339.216,12.2783,-14.734,179.033,1.75781,-144.778,456
1569684324,339.216,12.2783,-14.734,179.033,1.75781,-144.778,456
1569684324,339.216,12.2783,-14.734,179.033,1.75781,-144.778,456
1569684324,339.216,12.2783,-14.734,179.033,1.75781,-144.778,456
1569684324,339.216,12.2783,-14.734,179.033,1.75781,-144.778,456
1569684324,339.216,12.2783,-14.734,179.033,1.75781,-144.778,452
1569684324,339.216,12.2783,-14.734,179.033,1.75781,-144.778,452
1569684324,339.216,12.2783,-14.734,179.033,1.75781,-144.778,452
1569684324,339.216,12.2783,-14.734,179.033,1.75781,-144.778,452
1569684324,339.216,12.2783,-14.734,179.033,1.75781,-144.756,452
1569684324,339.216,12.1667,-14.734,179.033,1.75781,-144.756,452
1569684324,339.216,12.1667,-14.734,179.033,1.75781,-144.756,452
1569684324,339.216,12.1667,-14.734,179.011,1.73584,-144.756,452
1569684324,339.216,12.1667,-14.734,179.011,1.73584,-144.756,452
1569684324,339.216,12.1667,-14.734,179.011,1.73584,-144.756,452
1569684324,339.216,12.1667,-14.734,179.011,1.73584,-144.756,448
1569684324,339.216,12.1667,-14.734,179.011,1.73584,-144.756,448
1569684324,339.216,12.1667,-14.734,179.011,1.75781,-144.756,448
1569684324,339.216,12.1667,-14.734,179.011,1.75781,-144.756,448
1569684324,339.216,12.1667,-14.734,179.011,1.75781,-144.756,448
1569684324,339.216,12.1667,-14.734,179.011,1.75781,-144.756,448
1569684324,339.216,12.1667,-14.734,179.011,1.75781,-144.756,448
1569684324,339.216,12.1667,-14.734,179.011,1.75781,-144.756,448
1569684324,339.216,12.1667,-14.734,179.011,1.75781,-144.756,448
1569684324,339.216,12.1667,-14.734,179.011,1.75781,-144.756,448
1569684324,339.216,12.1667,-14.734,179.011,1.75781,-144.756,448
1569684324,339.216,12.1667,-14.734,179.011,1.75781,-144.756,448
1569684324,339.216,12.1667,-14.734,179.011,1.75781,-144.756,448
1569684324,339.216,12.1667,-14.734,179.011,1.75781,-144.756,448
1569684324,339.216,12.1667,-14.734,179.011,1.75781,-144.756,448
1569684324,339.216,12.1667,-14.734,179.011,1.75781,-144.756,448
1569684324,339.216,12.1667,-14.734,179.011,1.75781,-144.756,448
1569684324,339.216,12.1667,-14.734,179.011,1.75781,-144.756,448
1569684324,339.216,12.1667,-14.734,179.011,1.75781,-144.756,448
1569684324,339.216,12.1667,-14.734,179.011,1.75781,-144.756,448
1569684324,339.216,12.1667,-14.734,178.989,1.75781,-144.756,448
1569684324,339.216,12.1667,-14.734,178.989,1.75781,-144.756,448
1569684324,339.216,12.1667,-14.734,178.989,1.75781,-144.756,448
1569684324,339.216,12.1667,-14.734,178.989,1.75781,-144.756,448
1569684324,339.216,12.1667,-14.734,178.989,1.75781,-144.756,448
1569684324,339.216,12.1667,-14.734,178.989,1.75781,-144.756,448
1569684324,339.216,12.1667,-14.734,178.989,1.75781,-144.756,448
1569684324,339.216,12.0551,-14.734,178.989,1.75781,-144.756,448
1569684324,339.216,12.0551,-14.734,178.989,1.75781,-144.756,448
1569684324,339.216,12.0551,-14.734,178.989,1.75781,-144.756,448
1569684324,339.216,12.0551,-14.734,178.989,1.75781,-144.756,448
1569684324,339.216,12.0551,-14.734,178.989,1.75781,-144.756,452
1569684324,339.216,12.0551,-14.734,178.989,1.75781,-144.756,452
1569684324,339.216,12.0551,-14.734,178.989,1.75781,-144.756,452
1569684324,339.216,12.0551,-14.734,178.989,1.75781,-144.756,452
1569684324,339.216,12.0551,-14.734,178.989,1.75781,-144.756,456
1569684324,339.216,12.0551,-14.734,178.989,1.75781,-144.756,456
1569684324,339.216,12.0551,-14.734,178.989,1.75781,-144.756,456
1569684324,339.216,12.0551,-14.734,178.989,1.75781,-144.756,460
1569684324,339.216,12.0551,-14.734,178.989,1.75781,-144.756,460
1569684324,339.216,12.0551,-14.734,178.989,1.75781,-144.756,460
1569684324,339.216,12.0551,-14.734,178.989,1.75781,-144.756,460
1569684324,339.216,12.0551,-14.734,178.989,1.75781,-144.756,460
1569684324,339.216,12.0551,-14.734,178.989,1.75781,-144.756,460
1569684324,339.216,12.0551,-14.734,178.989,1.75781,-144.756,464
1569684324,339.216,12.0551,-14.734,178.989,1.75781,-144.756,464
1569684324,339.216,12.1667,-14.734,178.989,1.75781,-144.756,464
1569684324,339.216,12.1667,-14.734,179.011,1.73584,-144.756,464
1569684324,339.216,12.1667,-14.734,179.011,1.73584,-144.756,464
1569684324,339.216,12.1667,-14.734,179.011,1.73584,-144.756,464
1569684324,339.216,12.1667,-14.734,179.011,1.73584,-144.756,464
1569684324,339.216,12.1667,-14.734,179.011,1.73584,-144.756,464
1569684324,339.216,12.1667,-14.734,179.011,1.73584,-144.756,464
1569684324,339.216,12.1667,-14.734,179.011,1.73584,-144.756,464
1569684324,339.216,12.1667,-14.734,179.011,1.73584,-144.756,464
1569684324,339.216,12.1667,-14.734,179.011,1.73584,-144.756,464
1569684324,339.216,12.1667,-14.734,179.033,1.73584,-144.756,464
1569684324,339.216,12.1667,-14.734,179.033,1.73584,-144.756,464
1569684324,339.216,12.1667,-14.734,179.033,1.73584,-144.756,464
1569684324,339.216,12.1667,-14.734,179.033,1.73584,-144.756,464
1569684324,339.216,12.1667,-14.734,179.033,1.73584,-144.756,464
1569684324,339.216,12.1667,-14.734,179.033,1.73584,-144.756,460
1569684324,339.216,12.1667,-14.734,179.033,1.73584,-144.756,460
1569684324,339.216,12.1667,-14.734,179.033,1.73584,-144.756,460
1569684324,339.216,12.1667,-14.734,179.033,1.73584,-144.756,460
1569684324,339.216,12.1667,-14.734,179.033,1.73584,-144.756,456
1569684324,339.216,12.1667,-14.734,179.033,1.73584,-144.756,456
1569684324,339.216,12.1667,-14.734,179.033,1.73584,-144.756,456
1569684324,339.216,12.1667,-14.734,179.033,1.73584,-144.756,456
1569684324,339.216,12.1667,-14.734,179.033,1.73584,-144.756,456
1569684324,339.216,12.1667,-14.734,179.033,1.73584,-144.756,452
1569684324,339.216,12.1667,-14.734,179.033,1.73584,-144.756,452
1569684324,339.216,12.1667,-14.734,179.033,1.73584,-144.756,452
1569684324,339.216,12.1667,-14.734,179.033,1.73584,-144.756,452
1569684324,339.216,12.1667,-14.734,179.033,1.73584,-144.756,452
1569684324,339.216,12.1667,-14.734,179.033,1.73584,-144.756,452
1569684324,339.216,12.1667,-14.734,179.033,1.73584,-144.756,452
1569684324,339.216,12.1667,-14.734,179.033,1.73584,-144.756,452
1569684324,339.216,12.1667,-14.734,179.033,1.73584,-144.756,452
1569684325,339.216,12.1667,-14.734,179.033,1.73584,-144.756,452
1569684325,339.216,12.1667,-14.734,179.033,1.73584,-144.756,452
1569684325,339.216,12.1667,-14.734,179.033,1.73584,-144.756,452
1569684325,339.216,12.1667,-14.734,179.033,1.73584,-144.756,452
1569684325,339.216,12.1667,-14.734,179.033,1.73584,-144.756,456
1569684325,339.216,12.1667,-14.8456,179.033,1.73584,-144.734,456
1569684325,339.216,12.1667,-14.8456,179.033,1.73584,-144.734,456
1569684325,339.216,12.1667,-14.8456,179.033,1.73584,-144.734,456
1569684325,339.216,12.1667,-14.734,179.033,1.73584,-144.734,456
1569684325,339.216,12.1667,-14.734,179.033,1.73584,-144.734,456
1569684325,339.216,12.1667,-14.8456,179.033,1.73584,-144.734,456
1569684325,339.216,12.1667,-14.8456,179.033,1.73584,-144.734,456
1569684325,339.216,12.1667,-14.8456,179.033,1.73584,-144.756,456
1569684325,339.216,12.1667,-14.8456,179.033,1.73584,-144.756,456
1569684325,339.216,12.1667,-14.8456,179.011,1.73584,-144.756,460
1569684325,339.216,12.1667,-14.8456,179.011,1.73584,-144.756,460
1569684325,339.216,12.1667,-14.8456,179.011,1.73584,-144.756,460
1569684325,339.216,12.1667,-14.8456,179.011,1.73584,-144.756,460
1569684325,339.216,12.1667,-14.8456,179.011,1.73584,-144.756,464
1569684325,339.216,12.1667,-14.8456,179.011,1.73584,-144.756,464
1569684325,339.216,12.1667,-14.8456,179.011,1.73584,-144.756,464
1569684325,339.216,12.1667,-14.8456,179.011,1.73584,-144.756,464
1569684325,339.216,12.1667,-14.8456,179.011,1.73584,-144.756,464
1569684325,339.216,12.1667,-14.8456,179.011,1.73584,-144.756,468
1569684325,339.216,12.1667,-14.8456,179.011,1.73584,-144.756,468
1569684325,339.216,12.1667,-14.8456,179.011,1.73584,-144.756,468
1569684325,339.216,12.1667,-14.8456,179.011,1.73584,-144.756,468
1569684325,339.216,12.1667,-14.8456,179.011,1.73584,-144.756,468
1569684325,339.216,12.1667,-14.8456,178.989,1.73584,-144.756,468
1569684325,339.216,12.1667,-14.8456,178.989,1.73584,-144.756,468
1569684325,339.216,12.1667,-14.8456,178.989,1.73584,-144.756,468
1569684325,339.216,12.1667,-14.734,178.989,1.73584,-144.756,468
1569684325,339.216,12.1667,-14.734,179.011,1.73584,-144.756,468
1569684325,339.216,12.1667,-14.734,179.011,1.73584,-144.756,468
1569684325,339.216,12.1667,-14.734,179.011,1.73584,-144.756,472
1569684325,339.216,12.1667,-14.734,179.011,1.73584,-144.756,472
1569684325,339.216,12.1667,-14.734,179.011,1.73584,-144.756,472
1569684325,339.216,12.1667,-14.734,179.011,1.75781,-144.778,472
1569684325,339.105,12.1667,-14.734,179.011,1.75781,-144.778,472
1569684325,339.105,12.1667,-14.734,179.011,1.75781,-144.778,472
1569684325,339.105,12.1667,-14.734,179.011,1.75781,-144.778,472
1569684325,339.105,12.1667,-14.734,179.011,1.75781,-144.778,472
1569684325,339.105,12.1667,-14.734,179.011,1.75781,-144.778,472
1569684325,339.216,12.1667,-14.734,179.011,1.75781,-144.778,472
1569684325,339.216,12.1667,-14.734,179.011,1.75781,-144.778,472
1569684325,339.216,12.1667,-14.734,179.011,1.75781,-144.778,476
1569684325,339.216,12.1667,-14.734,179.011,1.75781,-144.778,476
1569684325,339.216,12.1667,-14.734,179.011,1.75781,-144.778,472
1569684325,339.216,12.1667,-14.734,179.011,1.75781,-144.778,472
1569684325,339.216,12.1667,-14.734,179.011,1.75781,-144.778,472
1569684325,339.216,12.1667,-14.734,179.033,1.75781,-144.778,472
1569684325,339.216,12.1667,-14.734,179.033,1.75781,-144.778,472
1569684325,339.216,12.1667,-14.734,179.033,1.75781,-144.778,472
1569684325,339.216,12.1667,-14.734,179.033,1.75781,-144.778,472
1569684325,339.216,12.1667,-14.734,179.033,1.75781,-144.778,472
1569684325,339.216,12.1667,-14.734,179.033,1.75781,-144.778,472
1569684325,339.216,12.1667,-14.734,179.033,1.75781,-144.778,472
1569684325,339.216,12.1667,-14.734,179.033,1.75781,-144.778,472
1569684325,339.216,12.1667,-14.734,179.033,1.75781,-144.778,472
1569684325,339.216,12.1667,-14.734,179.033,1.75781,-144.778,472
1569684325,339.216,12.1667,-14.734,179.033,1.75781,-144.778,472
1569684325,339.216,12.1667,-14.734,179.055,1.75781,-144.778,472
1569684325,339.216,12.1667,-14.734,179.055,1.75781,-144.778,472
1569684325,339.216,12.1667,-14.734,179.055,1.75781,-144.756,472
1569684325,339.216,12.1667,-14.734,179.055,1.75781,-144.756,472
1569684325,339.216,12.1667,-14.734,179.055,1.75781,-144.756,472
1569684325,339.216,12.1667,-14.734,179.033,1.75781,-144.756,468
1569684325,339.216,12.1667,-14.734,179.033,1.75781,-144.756,468
1569684325,339.216,12.1667,-14.734,179.033,1.75781,-144.756,468
1569684325,339.216,12.1667,-14.734,179.033,1.75781,-144.756,468
1569684325,339.216,12.1667,-14.734,179.033,1.75781,-144.756,468
1569684325,339.216,12.1667,-14.734,179.033,1.75781,-144.756,468
1569684325,339.216,12.1667,-14.734,179.033,1.75781,-144.756,468
1569684325,339.216,12.1667,-14.734,179.033,1.75781,-144.756,464
1569684325,339.216,12.1667,-14.734,179.033,1.75781,-144.756,464
1569684325,339.216,12.1667,-14.734,179.033,1.75781,-144.756,464
1569684325,339.216,12.1667,-14.734,179.033,1.75781,-144.756,464
1569684325,339.216,12.1667,-14.734,179.033,1.75781,-144.756,464
1569684325,339.216,12.1667,-14.734,179.033,1.75781,-144.756,464
1569684325,339.216,12.1667,-14.734,179.033,1.75781,-144.756,464
1569684325,339.216,12.1667,-14.734,179.033,1.75781,-144.756,464
1569684325,339.216,12.1667,-14.734,179.033,1.75781,-144.756,460
1569684325,339.216,12.1667,-14.734,179.033,1.75781,-144.756,460
1569684325,339.216,12.1667,-14.734,179.033,1.75781,-144.756,460
1569684325,339.216,12.1667,-14.734,179.033,1.75781,-144.756,460
1569684325,339.216,12.1667,-14.734,179.033,1.75781,-144.756,460
1569684325,339.216,12.1667,-14.734,179.033,1.75781,-144.756,460
1569684325,339.216,12.1667,-14.734,179.033,1.75781,-144.756,456
1569684325,339.216,12.1667,-14.734,179.033,1.75781,-144.756,456
1569684325,339.216,12.1667,-14.734,179.033,1.75781,-144.756,456
1569684325,339.216,12.1667,-14.734,179.033,1.75781,-144.756,456
1569684325,339.216,12.1667,-14.734,179.033,1.75781,-144.756,456
1569684325,339.216,12.1667,-14.734,179.033,1.75781,-144.756,456
1569684325,339.216,12.2783,-14.734,179.055,1.75781,-144.756,452
1569684325,339.216,12.2783,-14.734,179.055,1.75781,-144.756,452
1569684325,339.216,12.2783,-14.734,179.055,1.75781,-144.756,452
1569684325,339.216,12.2783,-14.734,179.055,1.75781,-144.756,452
1569684325,339.216,12.2783,-14.734,179.055,1.75781,-144.756,452
1569684325,339.216,12.2783,-14.734,179.055,1.75781,-144.756,452
1569684325,339.216,12.2783,-14.734,179.055,1.75781,-144.756,452
1569684326,339.216,12.2783,-14.734,179.055,1.75781,-144.756,452
1569684326,339.216,12.2783,-14.734,179.055,1.75781,-144.756,452
1569684326,339.216,12.2783,-14.734,179.055,1.75781,-144.756,452
1569684326,339.216,12.2783,-14.734,179.055,1.75781,-144.756,452
1569684326,339.216,12.2783,-14.734,179.055,1.75781,-144.756,452
1569684326,339.216,12.2783,-14.734,179.055,1.75781,-144.756,452
1569684326,339.216,12.2783,-14.734,179.055,1.75781,-144.756,452
1569684326,339.216,12.2783,-14.734,179.055,1.75781,-144.756,452
1569684326,339.216,12.2783,-14.734,179.055,1.75781,-144.756,452
1569684326,339.216,12.2783,-14.734,179.055,1.75781,-144.756,456
1569684326,339.216,12.2783,-14.734,179.055,1.75781,-144.756,456
1569684326,339.216,12.2783,-14.734,179.055,1.75781,-144.756,456
1569684326,339.216,12.2783,-14.734,179.055,1.75781,-144.756,456
1569684326,339.216,12.2783,-14.734,179.055,1.75781,-144.756,456
1569684326,339.216,12.2783,-14.734,179.055,1.75781,-144.778,456
1569684326,339.216,12.2783,-14.734,179.055,1.75781,-144.778,460
1569684326,339.216,12.2783,-14.734,179.055,1.75781,-144.778,460
1569684326,339.216,12.2783,-14.734,179.033,1.75781,-144.778,460
1569684326,339.216,12.1667,-14.734,179.033,1.77979,-144.778,460
1569684326,339.216,12.1667,-14.734,179.033,1.77979,-144.778,460
1569684326,339.216,12.1667,-14.734,179.033,1.77979,-144.778,464
1569684326,339.216,12.1667,-14.734,179.033,1.77979,-144.778,464
1569684326,339.216,12.1667,-14.734,179.033,1.75781,-144.778,464
1569684326,339.216,12.1667,-14.734,179.033,1.75781,-144.778,464
1569684326,339.216,12.1667,-14.734,179.011,1.75781,-144.778,464
1569684326,339.216,12.1667,-14.734,179.011,1.77979,-144.778,464
1569684326,339.216,12.1667,-14.734,179.011,1.77979,-144.778,464
1569684326,339.216,12.1667,-14.734,179.011,1.77979,-144.778,468
1569684326,339.216,12.1667,-14.734,179.011,1.77979,-144.778,468
1569684326,339.216,12.1667,-14.734,179.011,1.77979,-144.778,468
1569684326,339.216,12.1667,-14.734,179.011,1.77979,-144.778,468
1569684326,339.216,12.1667,-14.734,179.011,1.77979,-144.756,468
1569684326,339.216,12.1667,-14.734,179.011,1.77979,-144.756,468
1569684326,339.105,12.1667,-14.734,179.011,1.77979,-144.756,468
1569684326,339.105,12.1667,-14.734,179.011,1.77979,-144.756,468
1569684326,339.105,12.1667,-14.734,179.011,1.77979,-144.756,468
1569684326,339.105,12.1667,-14.734,179.033,1.77979,-144.756,468
1569684326,339.105,12.1667,-14.734,179.033,1.77979,-144.756,468
1569684326,339.105,12.1667,-14.734,179.033,1.77979,-144.756,468
1569684326,339.105,12.1667,-14.734,179.033,1.77979,-144.756,468
1569684326,339.105,12.1667,-14.734,179.033,1.77979,-144.756,468
1569684326,339.105,12.1667,-14.734,179.033,1.77979,-144.756,468
1569684326,339.105,12.1667,-14.734,179.033,1.77979,-144.756,468
1569684326,339.216,12.1667,-14.734,179.033,1.75781,-144.756,468
1569684326,339.216,12.2783,-14.734,179.033,1.75781,-144.756,468
1569684326,339.216,12.2783,-14.734,179.033,1.75781,-144.756,468
1569684326,339.105,12.2783,-14.734,179.055,1.75781,-144.756,468
1569684326,339.105,12.2783,-14.734,179.055,1.75781,-144.756,468
1569684326,339.105,12.2783,-14.734,179.055,1.75781,-144.756,468
1569684326,339.105,12.2783,-14.734,179.055,1.75781,-144.756,464
1569684326,339.105,12.2783,-14.734,179.055,1.75781,-144.756,464
1569684326,339.105,12.2783,-14.734,179.033,1.75781,-144.756,464
1569684326,339.105,12.2783,-14.734,179.033,1.75781,-144.756,464
1569684326,339.105,12.1667,-14.734,179.033,1.75781,-144.756,464
1569684326,339.216,12.1667,-14.734,179.033,1.75781,-144.756,464
1569684326,339.216,12.1667,-14.734,179.033,1.75781,-144.756,464
1569684326,339.216,12.1667,-14.734,179.033,1.75781,-144.778,464
1569684326,339.216,12.1667,-14.734,179.033,1.75781,-144.778,464
1569684326,339.216,12.1667,-14.734,179.033,1.75781,-144.778,460
1569684326,339.216,12.1667,-14.734,179.033,1.75781,-144.778,460
1569684326,339.216,12.1667,-14.734,179.033,1.75781,-144.778,460
1569684326,339.216,12.1667,-14.734,179.033,1.75781,-144.778,460
1569684326,339.216,12.1667,-14.734,179.033,1.75781,-144.778,460
1569684326,339.216,12.1667,-14.734,179.033,1.75781,-144.778,460
1569684326,339.216,12.1667,-14.734,179.033,1.73584,-144.778,460
1569684326,339.216,12.1667,-14.734,179.033,1.73584,-144.778,460
1569684326,339.216,12.1667,-14.734,179.033,1.73584,-144.778,460
1569684326,339.216,12.1667,-14.734,179.033,1.73584,-144.778,460
1569684326,339.216,12.1667,-14.734,179.033,1.73584,-144.778,460
1569684326,339.216,12.1667,-14.734,179.033,1.73584,-144.778,460
1569684326,339.216,12.1667,-14.734,179.033,1.73584,-144.756,460
1569684326,339.216,12.1667,-14.734,179.033,1.73584,-144.756,460
1569684326,339.216,12.1667,-14.734,179.033,1.73584,-144.756,460
1569684326,339.105,12.1667,-14.734,179.033,1.73584,-144.756,460
1569684326,339.105,12.1667,-14.734,179.033,1.73584,-144.756,460
1569684326,339.105,12.1667,-14.734,179.033,1.73584,-144.756,460
1569684326,339.105,12.1667,-14.734,179.033,1.73584,-144.756,460
1569684326,339.105,12.1667,-14.734,179.033,1.73584,-144.756,460
1569684326,339.105,12.1667,-14.734,179.033,1.73584,-144.756,460
1569684326,339.105,12.1667,-14.734,179.033,1.73584,-144.756,460
1569684326,339.105,12.1667,-14.734,179.033,1.73584,-144.756,460
1569684326,339.105,12.1667,-14.734,179.033,1.73584,-144.756,460
1569684326,339.105,12.1667,-14.734,179.033,1.73584,-144.756,460
1569684326,339.105,12.1667,-14.734,179.033,1.73584,-144.756,460
1569684326,339.105,12.1667,-14.734,179.033,1.73584,-144.756,460
1569684326,339.105,12.1667,-14.734,179.033,1.73584,-144.756,460
1569684326,339.105,12.1667,-14.734,179.033,1.73584,-144.756,460
1569684326,339.105,12.1667,-14.734,179.033,1.75781,-144.756,460
1569684326,339.105,12.1667,-14.734,179.033,1.75781,-144.756,460
1569684326,339.105,12.1667,-14.734,179.033,1.75781,-144.756,460
1569684326,339.105,12.1667,-14.734,179.033,1.75781,-144.756,460
1569684326,339.105,12.1667,-14.734,179.033,1.75781,-144.756,464
1569684326,339.105,12.1667,-14.734,179.033,1.75781,-144.756,464
1569684326,339.105,12.1667,-14.734,179.033,1.75781,-144.756,464
1569684326,339.105,12.1667,-14.734,179.033,1.75781,-144.756,464
1569684326,339.105,12.1667,-14.734,179.033,1.75781,-144.756,464
1569684326,339.105,12.1667,-14.734,179.033,1.75781,-144.756,464
1569684326,339.105,12.1667,-14.734,179.033,1.75781,-144.756,464
1569684326,339.105,12.1667,-14.734,179.033,1.75781,-144.778,464
1569684326,339.105,12.1667,-14.734,179.033,1.75781,-144.778,464
1569684327,339.105,12.1667,-14.734,179.033,1.75781,-144.778,464
1569684327,339.105,12.1667,-14.734,179.033,1.75781,-144.778,464
1569684327,339.105,12.1667,-14.734,179.033,1.75781,-144.778,464
1569684327,339.216,12.1667,-14.734,179.033,1.75781,-144.778,464
1569684327,339.216,12.1667,-14.734,179.033,1.75781,-144.778,464
1569684327,339.216,12.1667,-14.734,179.033,1.75781,-144.778,464
1569684327,339.216,12.1667,-14.734,179.033,1.75781,-144.778,464
1569684327,339.216,12.1667,-14.734,179.033,1.75781,-144.778,464
1569684327,339.216,12.1667,-14.734,179.011,1.75781,-144.778,464
1569684327,339.216,12.1667,-14.734,179.011,1.75781,-144.778,464
1569684327,339.216,12.1667,-14.734,179.011,1.75781,-144.778,464
1569684327,339.216,12.1667,-14.734,179.011,1.75781,-144.778,464
1569684327,339.216,12.1667,-14.734,179.011,1.75781,-144.778,464
1569684327,339.216,12.1667,-14.734,179.011,1.75781,-144.778,464
1569684327,339.216,12.1667,-14.734,179.011,1.75781,-144.778,464
1569684327,339.216,12.1667,-14.734,179.011,1.75781,-144.778,460
1569684327,339.216,12.1667,-14.734,179.011,1.75781,-144.778,460
1569684327,339.216,12.1667,-14.734,179.011,1.75781,-144.778,460
1569684327,339.216,12.1667,-14.734,179.011,1.75781,-144.778,460
1569684327,339.216,12.1667,-14.734,179.011,1.75781,-144.778,460
1569684327,339.216,12.1667,-14.734,179.011,1.75781,-144.778,460
1569684327,339.216,12.1667,-14.734,179.011,1.75781,-144.778,460
1569684327,339.216,12.1667,-14.734,179.011,1.75781,-144.778,460
1569684327,339.216,12.1667,-14.734,179.011,1.73584,-144.778,460
1569684327,339.216,12.1667,-14.734,179.011,1.73584,-144.778,456
1569684327,339.216,12.1667,-14.734,179.011,1.73584,-144.756,456
1569684327,339.216,12.1667,-14.734,179.011,1.73584,-144.778,456
1569684327,339.216,12.1667,-14.734,179.011,1.73584,-144.778,456
1569684327,339.216,12.1667,-14.734,179.011,1.73584,-144.778,460
1569684327,339.216,12.1667,-14.734,179.011,1.73584,-144.778,460
1569684327,339.216,12.1667,-14.734,179.011,1.73584,-144.778,460
1569684327,339.216,12.1667,-14.734,179.011,1.73584,-144.778,460
1569684327,339.216,12.1667,-14.734,179.011,1.75781,-144.778,460
1569684327,339.216,12.1667,-14.734,179.011,1.75781,-144.778,460
1569684327,339.216,12.1667,-14.734,179.011,1.75781,-144.778,460
1569684327,339.216,12.1667,-14.734,179.011,1.75781,-144.778,460
1569684327,339.216,12.1667,-14.734,179.011,1.75781,-144.778,460
1569684327,339.216,12.1667,-14.734,179.011,1.75781,-144.778,460
1569684327,339.216,12.1667,-14.734,179.011,1.75781,-144.778,460
1569684327,339.216,12.1667,-14.734,179.011,1.75781,-144.778,460
1569684327,339.216,12.1667,-14.734,179.011,1.75781,-144.778,460
1569684327,339.216,12.1667,-14.734,179.011,1.75781,-144.778,460
1569684327,339.216,12.1667,-14.734,179.011,1.75781,-144.778,460
1569684327,339.216,12.1667,-14.734,179.011,1.75781,-144.778,460
1569684327,339.216,12.1667,-14.734,179.011,1.75781,-144.778,460
1569684327,339.216,12.1667,-14.734,179.011,1.75781,-144.778,460
1569684327,339.216,12.1667,-14.734,179.011,1.75781,-144.778,460
1569684327,339.216,12.1667,-14.734,179.011,1.75781,-144.778,460
1569684327,339.216,12.1667,-14.734,179.033,1.75781,-144.778,456
1569684327,339.216,12.1667,-14.734,179.033,1.75781,-144.778,456
1569684327,339.216,12.1667,-14.734,179.033,1.75781,-144.778,456
1569684327,339.216,12.1667,-14.734,179.033,1.75781,-144.778,456
1569684327,339.216,12.1667,-14.734,179.033,1.75781,-144.756,456
1569684327,339.216,12.1667,-14.734,179.033,1.75781,-144.756,456
1569684327,339.216,12.1667,-14.734,179.033,1.75781,-144.756,456
1569684327,339.216,12.1667,-14.734,179.033,1.75781,-144.756,456
1569684327,339.216,12.1667,-14.734,179.033,1.75781,-144.756,456
1569684327,339.216,12.1667,-14.734,179.033,1.75781,-144.756,452
1569684327,339.216,12.1667,-14.734,179.033,1.75781,-144.756,452
1569684327,339.216,12.1667,-14.734,179.033,1.75781,-144.756,452
1569684327,339.216,12.1667,-14.734,179.033,1.75781,-144.756,452
1569684327,339.216,12.1667,-14.734,179.033,1.75781,-144.756,452
1569684327,339.216,12.1667,-14.734,179.033,1.75781,-144.756,452
1569684327,339.216,12.1667,-14.734,179.033,1.75781,-144.756,452
1569684327,339.216,12.1667,-14.734,179.033,1.75781,-144.756,452
1569684327,339.216,12.1667,-14.734,179.033,1.75781,-144.756,456
1569684327,339.216,12.1667,-14.734,179.033,1.75781,-144.756,456
1569684327,339.216,12.1667,-14.734,179.033,1.75781,-144.756,456
1569684327,339.216,12.1667,-14.734,179.033,1.75781,-144.756,456
1569684327,339.216,12.1667,-14.734,179.033,1.75781,-144.756,456
1569684327,339.216,12.1667,-14.734,179.033,1.75781,-144.756,456
1569684327,339.216,12.1667,-14.734,179.033,1.75781,-144.756,456
1569684327,339.216,12.1667,-14.734,179.033,1.75781,-144.756,452
1569684327,339.216,12.1667,-14.734,179.033,1.75781,-144.756,452
1569684327,339.216,12.1667,-14.734,179.033,1.75781,-144.756,452
1569684327,339.216,12.1667,-14.734,179.033,1.75781,-144.756,452
1569684327,339.216,12.1667,-14.734,179.033,1.75781,-144.756,452
1569684327,339.216,12.1667,-14.734,179.033,1.75781,-144.756,452
1569684327,339.216,12.1667,-14.734,179.033,1.75781,-144.756,452
1569684327,339.216,12.1667,-14.734,179.033,1.75781,-144.756,452
1569684327,339.216,12.1667,-14.734,179.033,1.75781,-144.756,452
1569684327,339.216,12.1667,-14.734,179.033,1.75781,-144.756,452
1569684327,339.216,12.1667,-14.734,179.033,1.75781,-144.756,452
1569684327,339.216,12.1667,-14.734,179.033,1.75781,-144.756,452
1569684327,339.216,12.1667,-14.734,179.033,1.75781,-144.756,452
1569684327,339.216,12.1667,-14.734,179.033,1.75781,-144.756,452
1569684327,339.216,12.1667,-14.734,179.033,1.75781,-144.756,452
1569684327,339.216,12.1667,-14.734,179.033,1.75781,-144.756,452
1569684327,339.216,12.1667,-14.734,179.033,1.75781,-144.756,452
1569684327,339.216,12.1667,-14.734,179.033,1.73584,-144.756,452
1569684327,339.216,12.1667,-14.734,179.033,1.73584,-144.756,452
1569684327,339.216,12.1667,-14.734,179.033,1.73584,-144.756,452
1569684327,339.216,12.1667,-14.734,179.033,1.73584,-144.756,452
1569684327,339.216,12.1667,-14.734,179.033,1.73584,-144.756,452
1569684327,339.216,12.1667,-14.734,179.033,1.73584,-144.756,452
1569684327,339.216,12.1667,-14.734,179.033,1.73584,-144.756,456
1569684327,339.216,12.1667,-14.734,179.033,1.73584,-144.756,456
1569684327,339.216,12.1667,-14.734,179.033,1.73584,-144.756,456
1569684327,339.216,12.1667,-14.734,179.033,1.73584,-144.756,456
1569684327,339.216,12.1667,-14.734,179.033,1.73584,-144.756,456
1569684328,339.216,12.1667,-14.734,179.033,1.73584,-144.756,456
1569684328,339.216,12.1667,-14.734,179.033,1.73584,-144.756,456
1569684328,339.216,12.1667,-14.734,179.033,1.73584,-144.756,456
1569684328,339.216,12.1667,-14.734,179.033,1.73584,-144.756,456
1569684328,339.216,12.1667,-14.734,179.033,1.73584,-144.756,456
1569684328,339.216,12.1667,-14.734,179.033,1.73584,-144.756,456
1569684328,339.216,12.1667,-14.8456,179.033,1.73584,-144.756,456
1569684328,339.216,12.1667,-14.8456,179.033,1.73584,-144.756,456
1569684328,339.216,12.1667,-14.8456,179.033,1.73584,-144.756,456
1569684328,339.216,12.1667,-14.8456,179.033,1.73584,-144.756,456
1569684328,339.216,12.1667,-14.8456,179.033,1.73584,-144.756,456
1569684328,339.216,12.1667,-14.8456,179.033,1.73584,-144.756,456
1569684328,339.216,12.2783,-14.8456,179.033,1.73584,-144.756,460
1569684328,339.216,12.2783,-14.8456,179.033,1.73584,-144.778,460
1569684328,339.216,12.2783,-14.8456,179.033,1.73584,-144.778,460
1569684328,339.216,12.2783,-14.8456,179.033,1.73584,-144.778,460
1569684328,339.216,12.2783,-14.8456,179.033,1.73584,-144.778,460
1569684328,339.216,12.2783,-14.8456,179.055,1.73584,-144.778,464
1569684328,339.216,12.2783,-14.8456,179.055,1.73584,-144.778,464
1569684328,339.216,12.2783,-14.8456,179.055,1.73584,-144.778,464
1569684328,339.216,12.2783,-14.734,179.055,1.73584,-144.778,464
1569684328,339.216,12.1667,-14.734,179.055,1.73584,-144.756,464
1569684328,339.105,12.1667,-14.734,179.033,1.73584,-144.756,464
1569684328,339.105,12.1667,-14.734,179.033,1.73584,-144.756,464
1569684328,339.105,12.1667,-14.734,179.033,1.73584,-144.756,464
1569684328,339.105,12.1667,-14.734,179.033,1.73584,-144.778,464
1569684328,339.105,12.1667,-14.734,179.033,1.73584,-144.778,464
1569684328,339.105,12.1667,-14.734,179.033,1.73584,-144.778,464
1569684328,339.105,12.1667,-14.734,179.033,1.73584,-144.778,464
1569684328,339.105,12.1667,-14.734,179.033,1.73584,-144.778,464
1569684328,339.105,12.1667,-14.734,179.033,1.73584,-144.778,464
1569684328,339.105,12.1667,-14.734,179.033,1.73584,-144.778,464
1569684328,339.105,12.1667,-14.734,179.033,1.73584,-144.778,464
1569684328,339.105,12.1667,-14.734,179.033,1.73584,-144.778,464
1569684328,339.105,12.1667,-14.8456,179.033,1.73584,-144.778,468
1569684328,339.105,12.1667,-14.8456,179.033,1.73584,-144.778,468
1569684328,339.105,12.1667,-14.8456,179.033,1.73584,-144.778,468
1569684328,339.105,12.1667,-14.8456,179.033,1.71387,-144.778,468
1569684328,339.105,12.1667,-14.8456,179.033,1.71387,-144.778,468
1569684328,339.105,12.1667,-14.8456,179.033,1.71387,-144.778,468
1569684328,339.105,12.1667,-14.8456,179.033,1.71387,-144.778,468
1569684328,339.105,12.1667,-14.8456,179.011,1.71387,-144.778,468
1569684328,339.105,12.1667,-14.8456,179.011,1.71387,-144.778,468
1569684328,339.105,12.1667,-14.8456,179.011,1.71387,-144.778,468
1569684328,339.105,12.1667,-14.8456,179.011,1.71387,-144.778,468
1569684328,339.105,12.1667,-14.8456,179.011,1.71387,-144.778,464
1569684328,339.105,12.1667,-14.8456,179.011,1.71387,-144.778,464
1569684328,339.105,12.1667,-14.8456,179.011,1.71387,-144.778,464
1569684328,339.105,12.1667,-14.8456,179.011,1.73584,-144.778,464
1569684328,339.105,12.0551,-14.8456,179.011,1.73584,-144.778,464
1569684328,339.216,12.0551,-14.8456,179.011,1.73584,-144.778,464
1569684328,339.216,12.0551,-14.8456,179.011,1.73584,-144.778,464
1569684328,339.216,12.1667,-14.8456,179.011,1.73584,-144.778,464
1569684328,339.216,12.1667,-14.8456,179.011,1.73584,-144.778,464
1569684328,339.216,12.1667,-14.8456,179.011,1.73584,-144.778,460
1569684328,339.216,12.1667,-14.8456,179.011,1.73584,-144.778,460
1569684328,339.216,12.1667,-14.8456,179.011,1.73584,-144.778,460
1569684328,339.216,12.1667,-14.8456,179.011,1.73584,-144.778,460
1569684328,339.216,12.1667,-14.8456,179.011,1.73584,-144.778,460
1569684328,339.216,12.1667,-14.734,179.011,1.73584,-144.778,460
1569684328,339.216,12.1667,-14.734,179.011,1.73584,-144.778,460
1569684328,339.216,12.1667,-14.734,179.011,1.73584,-144.778,460
1569684328,339.216,12.0551,-14.734,178.989,1.75781,-144.778,456
1569684328,339.216,12.0551,-14.734,178.989,1.75781,-144.778,456
1569684328,339.216,12.0551,-14.734,178.989,1.75781,-144.778,456
1569684328,339.216,12.0551,-14.734,178.989,1.75781,-144.778,456
1569684328,339.216,12.0551,-14.734,178.989,1.75781,-144.778,456
1569684328,339.216,12.0551,-14.734,178.989,1.75781,-144.778,456
1569684328,339.216,12.1667,-14.734,178.989,1.75781,-144.778,456
1569684328,339.216,12.1667,-14.734,178.989,1.75781,-144.778,456
1569684328,339.216,12.1667,-14.734,178.989,1.75781,-144.778,456
1569684328,339.105,12.1667,-14.734,178.989,1.75781,-144.778,456
1569684328,339.105,12.1667,-14.734,178.989,1.75781,-144.778,456
1569684328,339.105,12.1667,-14.734,178.989,1.75781,-144.778,456
1569684328,339.216,12.1667,-14.734,179.011,1.75781,-144.778,456
1569684328,339.216,12.1667,-14.734,179.011,1.75781,-144.778,460
1569684328,339.216,12.1667,-14.734,179.011,1.75781,-144.778,460
1569684328,339.216,12.1667,-14.734,179.011,1.75781,-144.756,460
1569684328,339.216,12.1667,-14.734,179.011,1.75781,-144.756,456
1569684328,339.216,12.1667,-14.734,179.011,1.73584,-144.756,456
1569684328,339.216,12.1667,-14.734,179.011,1.73584,-144.756,456
1569684328,339.216,12.1667,-14.734,179.011,1.73584,-144.756,456
1569684328,339.216,12.1667,-14.734,179.011,1.73584,-144.778,456
1569684328,339.216,12.1667,-14.734,179.011,1.73584,-144.778,456
1569684328,339.216,12.1667,-14.734,179.011,1.73584,-144.778,456
1569684328,339.216,12.1667,-14.734,179.011,1.73584,-144.778,456
1569684328,339.216,12.1667,-14.734,179.011,1.73584,-144.778,456
1569684328,339.216,12.1667,-14.734,179.033,1.73584,-144.778,456
1569684328,339.216,12.1667,-14.734,179.033,1.73584,-144.778,456
1569684332,362.099,-11.8318,-13.9526,179.121,2.04346,-145.042,520
1569684332,362.099,-11.8318,-13.9526,179.121,2.04346,-145.042,520
1569684332,362.099,-11.9435,-13.9526,179.121,2.04346,-145.042,520
1569684332,362.099,-11.9435,-13.9526,179.121,2.04346,-145.042,520
1569684332,362.099,-11.9435,-13.9526,179.121,2.06543,-145.042,520
1569684332,362.099,-11.9435,-13.9526,179.121,2.06543,-145.042,516
1569684332,362.21,-11.9435,-13.9526,179.121,2.06543,-145.042,516
1569684332,362.21,-11.9435,-13.9526,179.121,2.06543,-145.042,516
1569684332,362.21,-11.9435,-13.9526,179.121,2.04346,-145.042,516
1569684332,362.21,-11.9435,-13.9526,179.121,2.04346,-145.042,516
1569684332,362.21,-11.9435,-14.0643,179.121,2.04346,-145.042,516
1569684332,362.21,-11.9435,-14.0643,179.121,2.04346,-145.042,512
1569684332,362.21,-11.9435,-14.0643,179.121,2.04346,-145.042,512
1569684332,362.21,-11.9435,-14.0643,179.121,2.04346,-145.042,512
1569684332,362.21,-11.8318,-14.0643,179.121,2.02148,-145.02,512
1569684332,362.21,-11.8318,-14.0643,179.121,2.02148,-145.02,508
1569684332,362.21,-11.8318,-14.0643,179.121,2.02148,-145.02,508
1569684332,362.21,-11.8318,-14.0643,179.121,2.02148,-145.02,508
1569684332,362.21,-11.8318,-14.0643,179.121,2.02148,-145.02,508
1569684332,362.21,-11.8318,-14.0643,179.121,2.02148,-145.02,508
1569684332,362.21,-11.8318,-14.0643,179.121,2.02148,-145.02,508
1569684332,362.21,-11.8318,-14.0643,179.143,2.02148,-145.02,508
1569684332,362.21,-11.8318,-14.0643,179.121,2.02148,-145.02,508
1569684332,362.21,-11.8318,-14.0643,179.121,2.02148,-145.02,508
1569684332,362.21,-11.9435,-14.0643,179.121,2.02148,-145.02,508
1569684332,362.21,-11.9435,-14.0643,179.121,2.02148,-145.02,508
1569684332,362.21,-11.9435,-14.0643,179.121,2.02148,-145.02,508
1569684332,362.21,-11.9435,-14.0643,179.121,2.02148,-145.02,508
1569684332,362.21,-11.9435,-14.0643,179.121,2.02148,-145.02,508
1569684332,362.21,-11.9435,-14.0643,179.121,1.99951,-145.02,508
1569684332,362.21,-11.9435,-14.1759,179.121,1.99951,-145.02,508
1569684332,362.21,-11.9435,-14.1759,179.121,1.99951,-145.02,508
1569684332,362.21,-11.9435,-14.1759,179.121,1.99951,-145.02,508
1569684332,362.21,-11.9435,-14.1759,179.121,1.99951,-145.02,508
1569684332,362.21,-11.9435,-14.1759,179.121,1.99951,-145.02,508
1569684332,362.21,-11.9435,-14.1759,179.121,1.99951,-145.02,508
1569684332,362.21,-11.9435,-14.1759,179.121,1.99951,-145.02,504
1569684332,362.21,-11.9435,-14.1759,179.121,1.99951,-145.02,504
1569684332,362.21,-11.9435,-14.1759,179.121,1.99951,-145.02,504
1569684332,362.21,-11.9435,-14.1759,179.121,1.99951,-145.042,504
1569684332,362.21,-11.9435,-14.1759,179.121,1.99951,-145.042,504
1569684332,362.21,-11.9435,-14.1759,179.121,1.99951,-145.042,504
1569684332,362.21,-11.9435,-14.1759,179.121,1.99951,-145.042,504
1569684332,362.21,-11.9435,-14.1759,179.121,1.99951,-145.042,500
1569684332,362.21,-11.9435,-14.0643,179.121,1.99951,-145.042,500
1569684332,362.21,-11.9435,-14.0643,179.121,1.99951,-145.042,500
1569684332,362.21,-11.9435,-14.0643,179.121,1.99951,-145.042,500
1569684332,362.21,-11.9435,-14.0643,179.121,1.99951,-145.042,500
1569684332,362.21,-11.9435,-14.0643,179.121,1.99951,-145.042,500
1569684332,362.21,-11.9435,-14.0643,179.143,1.99951,-145.042,500
1569684332,362.21,-11.8318,-14.0643,179.143,2.02148,-145.042,500
1569684332,362.21,-11.8318,-14.0643,179.143,2.02148,-145.042,500
1569684332,362.21,-11.8318,-14.0643,179.143,2.02148,-145.042,500
1569684332,362.21,-11.8318,-14.0643,179.143,2.02148,-145.042,500
1569684332,362.21,-11.8318,-14.0643,179.143,2.02148,-145.042,500
1569684332,362.21,-11.8318,-14.0643,179.143,2.02148,-145.042,500
1569684332,362.21,-11.8318,-14.0643,179.143,2.02148,-145.042,504
1569684332,362.21,-11.8318,-14.0643,179.143,2.02148,-145.042,504
1569684333,362.21,-11.8318,-14.0643,179.143,2.02148,-145.042,504
1569684333,362.21,-11.8318,-14.0643,179.143,2.02148,-145.042,504
1569684333,362.21,-11.8318,-14.0643,179.143,2.02148,-145.042,504
1569684333,362.21,-11.8318,-14.0643,179.143,2.02148,-145.02,500
1569684333,362.21,-11.8318,-14.0643,179.143,2.02148,-145.02,500
1569684333,362.21,-11.8318,-14.0643,179.143,2.02148,-145.02,500
1569684333,362.21,-11.8318,-14.0643,179.143,2.02148,-145.02,500
1569684333,362.21,-11.8318,-14.0643,179.143,2.02148,-145.02,500
1569684333,362.21,-11.8318,-14.0643,179.143,2.02148,-145.02,500
1569684333,362.21,-11.8318,-14.0643,179.143,2.02148,-145.02,500
1569684333,362.21,-11.8318,-14.0643,179.143,2.02148,-145.02,500
1569684333,362.21,-11.8318,-14.0643,179.143,2.02148,-145.02,500
1569684333,362.21,-11.8318,-14.0643,179.143,2.02148,-145.02,500
1569684333,362.21,-11.8318,-14.0643,179.143,2.02148,-145.02,500
1569684333,362.21,-11.8318,-14.0643,179.143,2.02148,-145.02,496
1569684333,362.21,-11.8318,-14.0643,179.143,2.02148,-145.02,496
1569684333,362.21,-11.8318,-14.0643,179.143,2.02148,-145.02,496
1569684333,362.21,-11.8318,-14.0643,179.143,2.02148,-145.02,496
1569684333,362.21,-11.8318,-14.0643,179.143,2.02148,-145.02,496
1569684333,362.21,-11.8318,-14.0643,179.143,2.02148,-145.02,496
1569684333,362.21,-11.8318,-14.0643,179.165,2.02148,-145.02,496
1569684333,362.21,-11.8318,-14.0643,179.165,2.02148,-145.02,496
1569684333,362.21,-11.8318,-14.0643,179.165,2.02148,-145.02,496
1569684333,362.21,-11.8318,-14.0643,179.165,2.02148,-145.02,496
1569684333,362.21,-11.8318,-14.0643,179.165,2.02148,-145.02,496
1569684333,362.21,-11.8318,-14.0643,179.165,2.02148,-145.02,496
1569684333,362.21,-11.8318,-14.0643,179.165,2.02148,-145.02,496
1569684333,362.21,-11.8318,-14.0643,179.165,2.02148,-145.02,496
1569684333,362.21,-11.8318,-14.0643,179.165,2.02148,-145.02,496
1569684333,362.21,-11.8318,-14.0643,179.165,2.02148,-145.02,496
1569684333,362.21,-11.8318,-14.0643,179.165,2.02148,-145.02,500
1569684333,362.099,-11.8318,-14.0643,179.143,2.02148,-145.02,500
1569684333,362.099,-11.8318,-14.0643,179.143,2.02148,-145.02,500
1569684333,362.099,-11.8318,-14.0643,179.143,2.02148,-145.02,500
1569684333,362.099,-11.8318,-14.0643,179.143,2.02148,-145.02,500
1569684333,362.099,-11.8318,-14.0643,179.143,2.02148,-145.02,504
1569684333,362.099,-11.8318,-14.0643,179.143,2.02148,-145.02,504
1569684333,362.099,-11.8318,-14.0643,179.143,2.02148,-145.02,504
1569684333,362.099,-11.8318,-14.0643,179.143,2.02148,-145.02,504
1569684333,362.099,-11.8318,-14.0643,179.143,2.02148,-145.02,508
1569684333,362.21,-11.8318,-14.0643,179.143,2.02148,-145.02,508
1569684333,362.21,-11.8318,-14.0643,179.143,2.02148,-145.02,508
1569684333,362.21,-11.8318,-14.0643,179.143,2.02148,-145.02,508
1569684333,362.21,-11.8318,-14.0643,179.143,2.02148,-145.02,508
1569684333,362.099,-11.8318,-14.0643,179.143,2.02148,-145.02,508
1569684333,362.099,-11.8318,-14.0643,179.143,2.02148,-145.02,512
1569684333,362.099,-11.8318,-14.0643,179.143,2.02148,-145.02,512
1569684333,362.099,-11.8318,-14.0643,179.143,2.02148,-145.02,512
1569684333,362.099,-11.8318,-14.0643,179.143,2.02148,-145.02,512
1569684333,362.099,-11.8318,-14.0643,179.143,2.02148,-145.02,512
1569684333,362.099,-11.8318,-14.0643,179.143,2.02148,-145.02,512
1569684333,362.099,-11.8318,-14.0643,179.143,2.02148,-145.02,516
1569684333,362.099,-11.8318,-14.0643,179.143,2.02148,-145.02,516
1569684333,362.099,-11.8318,-14.0643,179.143,2.02148,-145.02,516
1569684333,362.099,-11.8318,-14.0643,179.143,2.02148,-145.02,516
1569684333,362.099,-11.8318,-14.0643,179.143,2.02148,-145.02,520
1569684333,362.099,-11.8318,-14.0643,179.143,2.02148,-145.02,520
1569684333,362.099,-11.8318,-14.0643,179.143,2.02148,-145.02,520
1569684333,362.099,-11.8318,-14.0643,179.143,2.02148,-145.02,524
1569684333,362.099,-11.8318,-14.0643,179.143,2.02148,-145.02,524
1569684333,362.099,-11.8318,-14.0643,179.143,2.02148,-145.02,524
1569684333,362.099,-11.8318,-14.0643,179.143,2.02148,-145.042,524
1569684333,362.099,-11.8318,-14.0643,179.143,2.02148,-145.042,524
1569684333,362.099,-11.8318,-14.0643,179.143,2.04346,-145.042,528
1569684333,362.099,-11.8318,-14.0643,179.143,2.04346,-145.042,528
1569684333,362.099,-11.8318,-13.9526,179.143,2.04346,-145.042,528
1569684333,362.099,-11.8318,-13.9526,179.143,2.04346,-145.042,528
1569684333,362.099,-11.8318,-13.9526,179.143,2.04346,-145.042,528
1569684333,362.099,-11.8318,-13.9526,179.143,2.04346,-145.042,528
1569684333,362.21,-11.8318,-13.9526,179.143,2.04346,-145.042,528
1569684333,362.21,-11.8318,-13.9526,179.143,2.04346,-145.042,528
1569684333,362.21,-11.8318,-13.9526,179.143,2.04346,-145.042,528
1569684333,362.21,-11.8318,-13.9526,179.143,2.04346,-145.042,528
1569684333,362.21,-11.8318,-13.9526,179.143,2.04346,-145.042,528
1569684333,362.21,-11.8318,-13.9526,179.143,2.04346,-145.042,528
1569684333,362.21,-11.8318,-14.0643,179.165,2.02148,-145.042,524
1569684333,362.21,-11.8318,-14.0643,179.165,2.02148,-145.042,524
1569684333,362.21,-11.8318,-14.0643,179.165,2.02148,-145.042,524
1569684333,362.21,-11.8318,-14.0643,179.165,2.02148,-145.042,524
1569684333,362.21,-11.8318,-14.0643,179.165,2.02148,-145.042,524
1569684333,362.21,-11.8318,-14.0643,179.165,2.02148,-145.042,524
1569684333,362.21,-11.8318,-14.0643,179.165,2.02148,-145.042,524
1569684333,362.21,-11.8318,-14.0643,179.165,2.02148,-145.042,524
1569684333,362.21,-11.8318,-14.0643,179.165,2.02148,-145.042,524
1569684333,362.21,-11.8318,-14.0643,179.165,2.02148,-145.042,520
1569684333,362.21,-11.8318,-14.0643,179.165,2.02148,-145.042,520
1569684333,362.21,-11.8318,-14.0643,179.165,2.02148,-145.042,520
1569684333,362.21,-11.8318,-14.0643,179.165,2.02148,-145.042,520
1569684333,362.21,-11.8318,-14.0643,179.165,2.02148,-145.042,520
1569684333,362.21,-11.8318,-14.0643,179.165,2.02148,-145.042,516
1569684333,362.21,-11.8318,-14.0643,179.165,2.02148,-145.042,516
1569684333,362.21,-11.8318,-14.0643,179.165,2.02148,-145.042,516
1569684333,362.21,-11.8318,-14.0643,179.165,2.02148,-145.042,516
1569684333,362.21,-11.8318,-14.0643,179.165,2.02148,-145.042,516
1569684333,362.21,-11.8318,-14.0643,179.165,2.02148,-145.042,516
1569684333,362.21,-11.8318,-14.0643,179.165,2.02148,-145.02,516
1569684333,362.21,-11.8318,-14.0643,179.165,2.02148,-145.02,516
1569684333,362.21,-11.8318,-14.0643,179.165,2.02148,-145.02,516
1569684333,362.21,-11.8318,-14.0643,179.165,2.02148,-145.02,516
1569684333,362.21,-11.8318,-14.0643,179.165,2.02148,-145.02,516
1569684334,362.21,-11.8318,-14.0643,179.165,2.02148,-145.02,516
1569684334,362.21,-11.8318,-14.0643,179.165,2.02148,-145.02,516
1569684334,362.21,-11.8318,-14.0643,179.143,2.02148,-145.02,516
1569684334,362.21,-11.8318,-14.0643,179.143,2.02148,-145.02,516
1569684334,362.21,-11.8318,-14.0643,179.143,2.02148,-145.02,516
1569684334,362.21,-11.8318,-14.0643,179.143,2.02148,-145.02,516
1569684334,362.21,-11.8318,-14.0643,179.143,2.02148,-145.02,516
1569684334,362.21,-11.8318,-14.0643,179.143,2.02148,-145.02,516
1569684334,362.21,-11.8318,-14.0643,179.143,2.02148,-145.02,516
1569684334,362.21,-11.8318,-14.0643,179.143,2.02148,-145.02,516
1569684334,362.21,-11.8318,-14.0643,179.143,2.02148,-145.02,516
1569684334,362.21,-11.8318,-14.0643,179.143,2.02148,-145.02,516
1569684334,362.21,-11.8318,-14.0643,179.143,2.02148,-145.02,516
1569684334,362.21,-11.8318,-13.9526,179.143,2.04346,-145.02,516
1569684334,362.21,-11.8318,-13.9526,179.143,2.04346,-145.02,516
1569684334,362.21,-11.8318,-13.9526,179.143,2.04346,-145.02,516
1569684334,362.21,-11.8318,-13.9526,179.165,2.04346,-145.02,516
1569684334,362.21,-11.8318,-14.0643,179.165,2.04346,-145.02,516
1569684334,362.21,-11.8318,-14.0643,179.165,2.02148,-145.02,520
1569684334,362.21,-11.8318,-14.0643,179.165,2.02148,-145.02,520
1569684334,362.21,-11.8318,-14.0643,179.165,2.02148,-145.02,520
1569684334,362.21,-11.8318,-14.0643,179.165,2.02148,-145.02,520
1569684334,362.21,-11.8318,-14.0643,179.165,2.02148,-145.02,520
1569684334,362.21,-11.8318,-14.0643,179.165,2.02148,-145.02,520
1569684334,362.21,-11.8318,-14.0643,179.165,2.02148,-145.02,520
1569684334,362.21,-11.8318,-14.0643,179.165,2.02148,-145.02,520
1569684334,362.21,-11.8318,-14.0643,179.165,2.02148,-145.02,520
1569684334,362.21,-11.8318,-14.0643,179.165,2.02148,-145.02,520
1569684334,362.21,-11.8318,-14.0643,179.165,2.02148,-145.02,524
1569684334,362.21,-11.8318,-14.0643,179.165,2.02148,-145.02,524
1569684334,362.21,-11.8318,-14.0643,179.165,2.02148,-145.02,524
1569684334,362.21,-11.8318,-14.0643,179.165,2.02148,-145.02,524
1569684334,362.21,-11.8318,-14.0643,179.165,2.02148,-145.02,524
1569684334,362.21,-11.8318,-14.0643,179.165,2.02148,-145.042,524
1569684334,362.21,-11.8318,-14.0643,179.165,2.02148,-145.042,524
1569684334,362.21,-11.8318,-14.0643,179.165,2.02148,-145.042,524
1569684334,362.099,-11.8318,-14.0643,179.165,2.02148,-145.042,524
1569684334,362.099,-11.8318,-14.0643,179.165,2.02148,-145.042,528
1569684334,362.099,-11.8318,-14.0643,179.165,2.02148,-145.042,528
1569684334,362.099,-11.8318,-14.0643,179.165,2.02148,-145.042,528
1569684334,362.099,-11.8318,-14.0643,179.165,2.02148,-145.042,528
1569684334,362.099,-11.8318,-14.0643,179.165,2.02148,-145.042,528
1569684334,362.099,-11.8318,-14.0643,179.165,2.02148,-145.042,532
1569684334,362.099,-11.8318,-14.0643,179.165,2.02148,-145.042,532
1569684334,362.099,-11.8318,-14.0643,179.165,2.02148,-145.042,532
1569684334,362.099,-11.8318,-14.0643,179.165,2.02148,-145.042,536
1569684334,362.099,-11.8318,-14.0643,179.143,2.02148,-145.042,536
1569684334,362.099,-11.8318,-14.0643,179.143,2.02148,-145.042,536
1569684334,362.099,-11.8318,-14.0643,179.143,2.02148,-145.042,540
1569684334,362.099,-11.8318,-14.0643,179.143,2.02148,-145.042,540
1569684334,362.099,-11.8318,-14.0643,179.143,2.02148,-145.042,540
1569684334,362.099,-11.8318,-14.0643,179.143,2.02148,-145.042,540
1569684334,362.099,-11.8318,-14.0643,179.143,2.02148,-145.042,544
1569684334,362.099,-11.8318,-14.0643,179.143,2.02148,-145.042,544
1569684334,362.099,-11.8318,-14.0643,179.143,2.02148,-145.042,544
1569684334,362.099,-11.8318,-14.0643,179.143,2.02148,-145.042,544
1569684334,362.099,-11.8318,-14.0643,179.143,2.02148,-145.042,544
1569684334,362.099,-11.8318,-14.0643,179.143,2.02148,-145.042,544
1569684334,362.099,-11.8318,-14.0643,179.143,1.99951,-145.042,548
1569684334,362.099,-11.8318,-14.0643,179.143,1.99951,-145.042,548
1569684334,362.099,-11.8318,-14.0643,179.143,1.99951,-145.042,548
1569684334,362.099,-11.8318,-14.0643,179.143,1.99951,-145.042,548
1569684334,362.099,-11.8318,-14.0643,179.143,1.99951,-145.042,548
1569684334,362.099,-11.9435,-14.0643,179.121,1.99951,-145.042,548
1569684334,362.099,-11.9435,-14.0643,179.121,1.99951,-145.042,548
1569684334,362.099,-11.9435,-14.0643,179.121,1.99951,-145.042,548
1569684334,362.099,-11.9435,-14.1759,179.121,1.99951,-145.042,548
1569684334,362.099,-11.9435,-14.1759,179.121,1.99951,-145.042,548
1569684334,362.099,-11.9435,-14.1759,179.121,1.99951,-145.042,544
1569684334,362.099,-11.9435,-14.1759,179.121,1.99951,-145.042,544
1569684334,362.099,-11.9435,-14.1759,179.121,1.99951,-145.042,544
1569684334,362.099,-11.9435,-14.1759,179.121,1.99951,-145.042,544
1569684334,362.099,-11.9435,-14.1759,179.121,1.99951,-145.042,544
1569684334,362.099,-11.9435,-14.1759,179.121,1.99951,-145.042,540
1569684334,362.099,-11.9435,-14.1759,179.121,1.99951,-145.042,540
1569684334,362.21,-11.9435,-14.1759,179.121,1.99951,-145.042,540
1569684334,362.21,-11.9435,-14.1759,179.121,1.99951,-145.042,540
1569684334,362.21,-11.9435,-14.1759,179.121,1.99951,-145.042,540
1569684334,362.21,-11.9435,-14.1759,179.121,1.99951,-145.042,540
1569684334,362.21,-11.9435,-14.1759,179.121,1.99951,-145.042,536
1569684334,362.21,-11.9435,-14.1759,179.121,1.99951,-145.042,536
1569684334,362.21,-11.9435,-14.1759,179.121,1.99951,-145.042,536
1569684334,362.21,-11.9435,-14.1759,179.121,1.99951,-145.042,536
1569684334,362.21,-11.9435,-14.1759,179.121,1.99951,-145.042,536
1569684334,362.099,-11.9435,-14.1759,179.121,1.99951,-145.042,536
1569684334,362.099,-11.9435,-14.1759,179.121,1.99951,-145.042,536
1569684334,362.099,-11.9435,-14.1759,179.121,1.99951,-145.042,536
1569684334,362.099,-11.9435,-14.1759,179.121,1.99951,-145.042,536
1569684334,362.099,-11.9435,-14.1759,179.099,1.99951,-145.042,536
1569684334,362.099,-11.9435,-14.1759,179.099,1.99951,-145.042,536
1569684334,362.099,-11.9435,-14.1759,179.099,1.99951,-145.042,536
1569684334,362.099,-11.9435,-14.1759,179.099,1.99951,-145.042,536
1569684334,362.099,-11.9435,-14.1759,179.099,1.97754,-145.042,536
1569684334,362.099,-11.9435,-14.1759,179.099,1.97754,-145.042,536
1569684334,362.099,-11.9435,-14.1759,179.099,1.97754,-145.042,536
1569684334,362.099,-11.9435,-14.1759,179.099,1.97754,-145.042,536
1569684334,362.099,-11.9435,-14.1759,179.099,1.97754,-145.042,536
1569684334,362.099,-11.9435,-14.1759,179.099,1.97754,-145.042,536
1569684334,362.099,-11.9435,-14.1759,179.099,1.97754,-145.042,536
1569684334,362.099,-11.9435,-14.1759,179.121,1.97754,-145.042,536
1569684335,362.099,-11.9435,-14.1759,179.121,1.97754,-145.042,540
1569684335,362.099,-11.9435,-14.1759,179.121,1.97754,-145.042,540
1569684335,362.099,-11.9435,-14.1759,179.121,1.97754,-145.042,540
1569684335,362.099,-11.9435,-14.1759,179.121,1.97754,-145.042,536
1569684335,362.099,-11.9435,-14.1759,179.121,1.97754,-145.042,536
1569684335,362.099,-11.9435,-14.1759,179.121,1.97754,-145.042,536
1569684335,362.099,-11.9435,-14.1759,179.099,1.97754,-145.042,536
1569684335,362.099,-11.9435,-14.1759,179.099,1.97754,-145.042,536
1569684335,362.099,-11.9435,-14.1759,179.099,1.97754,-145.042,536
1569684335,362.099,-11.9435,-14.1759,179.099,1.99951,-145.042,536
1569684335,362.099,-11.9435,-14.1759,179.099,1.99951,-145.042,532
1569684335,362.099,-11.9435,-14.1759,179.099,1.99951,-145.042,532
1569684335,362.099,-11.9435,-14.1759,179.099,1.99951,-145.042,532
1569684335,362.099,-11.9435,-14.1759,179.099,1.99951,-145.042,532
1569684335,362.099,-11.9435,-14.0643,179.099,1.99951,-145.042,532
1569684335,362.099,-11.9435,-14.0643,179.099,1.99951,-145.042,532
1569684335,362.099,-11.9435,-14.0643,179.099,1.99951,-145.042,532
1569684335,362.099,-11.9435,-14.0643,179.099,1.99951,-145.042,532
1569684335,362.099,-11.9435,-14.0643,179.099,1.99951,-145.042,532
1569684335,362.099,-11.9435,-14.0643,179.099,1.99951,-145.042,532
1569684335,362.099,-11.8318,-14.0643,179.099,1.99951,-145.042,532
1569684335,362.099,-11.8318,-14.0643,179.121,1.99951,-145.042,532
1569684335,362.099,-11.8318,-14.0643,179.121,1.99951,-145.042,532
1569684335,362.099,-11.8318,-14.0643,179.121,1.99951,-145.042,532
1569684335,362.099,-11.8318,-14.0643,179.121,1.99951,-145.042,532
1569684335,362.099,-11.8318,-14.1759,179.121,1.99951,-145.042,532
1569684335,362.099,-11.8318,-14.1759,179.121,1.99951,-145.042,532
1569684335,362.099,-11.8318,-14.1759,179.121,1.99951,-145.042,532
1569684335,362.099,-11.8318,-14.1759,179.121,1.99951,-145.042,532
1569684335,362.099,-11.8318,-14.1759,179.121,1.99951,-145.042,532
1569684335,362.099,-11.8318,-14.1759,179.121,1.99951,-145.02,532
1569684335,362.099,-11.8318,-14.1759,179.121,1.99951,-145.02,532
1569684335,362.099,-11.8318,-14.1759,179.121,1.99951,-145.02,532
1569684335,362.099,-11.8318,-14.1759,179.121,1.99951,-145.02,532
1569684335,362.099,-11.8318,-14.1759,179.121,1.99951,-145.02,532
1569684335,362.099,-11.8318,-14.1759,179.121,1.99951,-145.02,528
1569684335,362.099,-11.8318,-14.0643,179.121,1.99951,-145.02,528
1569684335,362.099,-11.8318,-14.0643,179.121,1.99951,-145.042,528
1569684335,362.099,-11.8318,-14.0643,179.121,1.99951,-145.042,528
1569684335,362.099,-11.8318,-14.0643,179.121,1.99951,-145.042,528
1569684335,362.099,-11.8318,-14.0643,179.121,2.02148,-145.042,528
1569684335,362.099,-11.8318,-14.0643,179.121,2.02148,-145.042,528
1569684335,362.099,-11.8318,-14.0643,179.121,2.02148,-145.042,528
1569684335,362.099,-11.8318,-14.0643,179.121,2.02148,-145.042,528
1569684335,362.099,-11.8318,-14.0643,179.121,2.02148,-145.042,524
1569684335,362.099,-11.8318,-14.0643,179.121,2.02148,-145.042,524
1569684335,362.099,-11.9435,-14.0643,179.121,1.99951,-145.042,524
1569684335,362.099,-11.9435,-14.0643,179.121,1.99951,-145.042,528
1569684335,362.099,-11.9435,-14.0643,179.121,1.99951,-145.042,528
1569684335,362.099,-11.9435,-14.0643,179.121,2.02148,-145.042,528
1569684335,362.099,-11.9435,-14.0643,179.121,2.02148,-145.042,528
1569684335,362.099,-11.9435,-14.0643,179.121,2.02148,-145.042,528
1569684335,362.099,-11.9435,-14.0643,179.121,2.02148,-145.042,528
1569684335,362.099,-11.9435,-14.0643,179.121,2.02148,-145.042,528
1569684335,362.099,-11.9435,-14.0643,179.121,2.02148,-145.042,528
1569684335,362.099,-11.9435,-14.0643,179.121,2.02148,-145.042,528
1569684335,362.099,-11.9435,-14.0643,179.121,2.02148,-145.042,528
1569684335,362.099,-11.9435,-14.0643,179.121,2.02148,-145.042,528
1569684335,362.099,-11.9435,-14.0643,179.121,2.02148,-145.042,528
1569684335,362.099,-11.9435,-14.0643,179.121,2.02148,-145.042,528
1569684335,362.099,-11.9435,-14.0643,179.121,2.02148,-145.042,528
1569684335,362.099,-11.9435,-14.0643,179.121,2.02148,-145.042,528
1569684335,362.099,-11.9435,-14.0643,179.121,2.02148,-145.042,532
1569684335,362.099,-11.9435,-14.0643,179.121,2.02148,-145.042,532
1569684335,362.099,-11.9435,-14.0643,179.121,2.02148,-145.042,532
1569684335,362.099,-11.9435,-14.0643,179.121,2.02148,-145.042,532
1569684335,362.099,-11.9435,-14.0643,179.121,1.99951,-145.042,532
1569684335,362.099,-11.9435,-14.0643,179.121,1.99951,-145.042,532
1569684335,362.099,-11.9435,-14.0643,179.121,1.99951,-145.042,532
1569684335,362.099,-11.9435,-14.1759,179.121,1.99951,-145.042,532
1569684335,362.099,-11.9435,-14.1759,179.121,1.99951,-145.042,532
1569684335,362.099,-11.9435,-14.1759,179.121,1.99951,-145.042,532
1569684335,362.099,-11.9435,-14.1759,179.121,1.99951,-145.042,532
1569684335,362.099,-11.9435,-14.1759,179.121,1.99951,-145.042,532
1569684335,362.099,-11.9435,-14.0643,179.121,1.99951,-145.042,532
1569684335,362.099,-11.9435,-14.0643,179.121,1.99951,-145.042,532
1569684335,362.099,-11.9435,-14.0643,179.121,1.99951,-145.042,532
1569684335,362.099,-11.9435,-14.0643,179.121,1.99951,-145.042,532
1569684335,362.099,-11.9435,-14.0643,179.121,1.99951,-145.042,532
1569684335,362.099,-11.9435,-14.0643,179.121,1.99951,-145.042,532
1569684335,362.099,-11.9435,-14.0643,179.121,1.99951,-145.042,532
1569684335,362.099,-11.9435,-14.0643,179.121,1.99951,-145.042,532
1569684335,362.099,-11.9435,-14.0643,179.121,1.99951,-145.042,532
1569684335,362.099,-11.9435,-14.0643,179.121,1.99951,-145.042,532
1569684335,362.099,-11.9435,-14.0643,179.121,1.99951,-145.042,532
1569684335,362.099,-11.9435,-14.0643,179.121,1.99951,-145.042,532
1569684335,362.099,-11.9435,-14.1759,179.121,1.99951,-145.042,532
1569684335,362.099,-11.9435,-14.1759,179.121,1.99951,-145.02,532
1569684335,362.099,-11.9435,-14.1759,179.121,1.99951,-145.02,532
1569684335,362.099,-11.9435,-14.1759,179.121,1.99951,-145.02,532
1569684335,362.099,-11.9435,-14.1759,179.121,1.99951,-145.02,532
1569684335,362.099,-11.9435,-14.1759,179.121,1.99951,-145.02,532
1569684335,362.099,-11.9435,-14.1759,179.121,1.99951,-145.02,532
1569684335,362.099,-11.9435,-14.1759,179.121,1.99951,-145.02,528
1569684335,362.099,-11.9435,-14.1759,179.121,1.99951,-145.02,528
1569684335,362.099,-11.9435,-14.1759,179.121,1.99951,-145.02,528
1569684335,362.099,-11.9435,-14.1759,179.121,1.99951,-145.02,528
1569684335,362.099,-11.9435,-14.1759,179.121,1.99951,-145.02,524
1569684335,362.099,-11.9435,-14.1759,179.121,1.99951,-145.02,524
1569684335,362.099,-11.9435,-14.1759,179.121,1.99951,-145.02,524
1569684336,362.099,-11.9435,-14.1759,179.121,1.99951,-145.02,520
1569684336,362.099,-11.9435,-14.1759,179.121,1.99951,-145.02,520
1569684336,362.099,-11.9435,-14.1759,179.121,1.99951,-145.042,516
1569684336,362.099,-11.9435,-14.1759,179.121,1.99951,-145.042,516
1569684336,362.099,-11.9435,-14.1759,179.121,1.99951,-145.042,516
1569684336,362.099,-11.9435,-14.1759,179.121,1.99951,-145.042,516
1569684336,362.099,-11.9435,-14.1759,179.121,1.99951,-145.042,512
1569684336,362.099,-11.9435,-14.1759,179.121,1.99951,-145.042,512
1569684336,362.099,-11.9435,-14.1759,179.121,1.99951,-145.042,512
1569684336,362.099,-11.9435,-14.1759,179.121,1.99951,-145.042,512
1569684336,362.099,-11.9435,-14.1759,179.143,1.99951,-145.042,512
1569684336,362.099,-11.9435,-14.1759,179.143,1.99951,-145.042,512
1569684336,362.099,-11.8318,-14.0643,179.143,1.99951,-145.042,512
1569684336,362.099,-11.8318,-14.0643,179.143,1.99951,-145.042,508
1569684336,362.099,-11.8318,-14.0643,179.143,1.99951,-145.042,508
1569684336,362.099,-11.8318,-14.0643,179.143,2.02148,-145.042,508
1569684336,362.099,-11.9435,-14.0643,179.143,2.02148,-145.042,508
1569684336,362.099,-11.9435,-14.0643,179.121,2.02148,-145.042,508
1569684336,362.099,-11.9435,-14.0643,179.121,2.02148,-145.042,508
1569684336,362.099,-11.8318,-14.0643,179.143,2.02148,-145.042,508
1569684336,362.099,-11.8318,-14.0643,179.143,2.02148,-145.042,508
1569684336,362.099,-11.8318,-14.0643,179.143,2.02148,-145.042,512
1569684336,362.099,-11.8318,-14.0643,179.143,2.02148,-145.042,512
1569684336,362.099,-11.8318,-14.0643,179.143,2.02148,-145.042,512
1569684336,362.099,-11.8318,-14.0643,179.143,2.02148,-145.042,512
1569684336,362.099,-11.8318,-14.0643,179.143,2.02148,-145.042,516
1569684336,362.099,-11.8318,-14.0643,179.143,2.02148,-145.042,516
1569684336,362.099,-11.8318,-14.0643,179.143,2.02148,-145.042,516
1569684336,362.099,-11.8318,-14.0643,179.143,2.02148,-145.042,516
1569684336,362.099,-11.8318,-14.0643,179.121,2.02148,-145.042,520
1569684336,362.099,-11.9435,-14.0643,179.121,2.02148,-145.042,520
1569684336,362.099,-11.9435,-14.0643,179.121,2.02148,-145.042,520
1569684336,362.099,-11.9435,-14.0643,179.121,2.02148,-145.042,520
1569684336,362.099,-11.9435,-14.0643,179.121,2.02148,-145.042,520
1569684336,362.21,-11.9435,-14.0643,179.121,2.02148,-145.042,520
1569684336,362.21,-11.9435,-14.0643,179.121,1.99951,-145.042,520
1569684336,362.21,-11.9435,-14.0643,179.121,1.99951,-145.042,520
1569684336,362.21,-11.9435,-14.0643,179.099,1.99951,-145.042,520
1569684336,362.21,-11.9435,-14.0643,179.099,1.99951,-145.042,520
1569684336,362.21,-11.9435,-14.0643,179.099,1.99951,-145.042,520
1569684336,362.21,-11.9435,-14.0643,179.099,1.99951,-145.042,516
1569684336,362.21,-11.9435,-14.0643,179.099,1.99951,-145.063,516
1569684336,362.21,-11.9435,-14.0643,179.099,1.99951,-145.063,516
1569684336,362.21,-11.9435,-14.1759,179.099,1.99951,-145.042,516
1569684336,362.21,-11.9435,-14.1759,179.099,1.99951,-145.042,516
1569684336,362.21,-11.9435,-14.1759,179.121,1.99951,-145.042,516
1569684336,362.21,-11.9435,-14.1759,179.121,1.99951,-145.042,516
1569684336,362.21,-11.9435,-14.1759,179.121,1.97754,-145.042,516
1569684336,362.21,-11.9435,-14.1759,179.121,1.97754,-145.042,516
1569684336,362.21,-11.9435,-14.1759,179.121,1.97754,-145.042,516
1569684336,362.21,-11.9435,-14.1759,179.121,1.97754,-145.042,516
1569684336,362.21,-11.9435,-14.1759,179.121,1.97754,-145.042,516
1569684336,362.21,-11.9435,-14.1759,179.121,1.97754,-145.042,520
1569684336,362.21,-11.9435,-14.1759,179.121,1.97754,-145.042,520
1569684336,362.21,-11.9435,-14.1759,179.121,1.97754,-145.042,520
1569684336,362.21,-11.9435,-14.1759,179.121,1.97754,-145.042,520
1569684336,362.21,-11.9435,-14.1759,179.121,1.97754,-145.042,520
1569684336,362.21,-11.9435,-14.1759,179.121,1.97754,-145.042,520
1569684336,362.21,-11.9435,-14.1759,179.121,1.97754,-145.042,524
1569684336,362.21,-11.9435,-14.1759,179.121,1.97754,-145.042,524
1569684336,362.21,-11.9435,-14.1759,179.121,1.99951,-145.042,524
1569684336,362.21,-11.9435,-14.1759,179.121,1.97754,-145.042,524
1569684336,362.21,-11.9435,-14.1759,179.121,1.97754,-145.042,524
1569684336,362.21,-11.8318,-14.1759,179.121,1.97754,-145.042,524
1569684336,362.21,-11.8318,-14.1759,179.121,1.97754,-145.042,524
1569684336,362.099,-11.8318,-14.1759,179.143,1.97754,-145.042,524
1569684336,362.099,-11.8318,-14.1759,179.143,1.97754,-145.042,524
1569684336,362.099,-11.8318,-14.1759,179.143,1.97754,-145.042,528
1569684336,362.099,-11.8318,-14.1759,179.143,1.97754,-145.042,528
1569684336,362.099,-11.8318,-14.1759,179.143,1.99951,-145.042,528
1569684336,362.099,-11.8318,-14.1759,179.143,1.99951,-145.042,528
1569684336,362.099,-11.8318,-14.1759,179.143,1.99951,-145.042,532
1569684336,362.099,-11.8318,-14.1759,179.143,1.99951,-145.042,532
1569684336,362.099,-11.8318,-14.1759,179.143,1.99951,-145.042,532
1569684336,362.099,-11.8318,-14.1759,179.143,1.99951,-145.042,532
1569684336,362.099,-11.8318,-14.1759,179.143,1.99951,-145.042,536
1569684336,362.099,-11.8318,-14.1759,179.143,1.99951,-145.042,536
1569684336,362.099,-11.8318,-14.1759,179.143,1.99951,-145.042,536
1569684336,362.099,-11.8318,-14.1759,179.143,1.99951,-145.042,536
1569684336,362.099,-11.8318,-14.1759,179.143,1.99951,-145.042,536
1569684336,362.099,-11.8318,-14.1759,179.143,1.97754,-145.042,536
1569684336,362.099,-11.8318,-14.1759,179.143,1.97754,-145.042,536
1569684336,362.099,-11.8318,-14.1759,179.143,1.97754,-145.042,536
1569684336,362.099,-11.8318,-14.1759,179.143,1.97754,-145.042,536
1569684336,362.099,-11.8318,-14.1759,179.143,1.97754,-145.042,536
1569684336,362.099,-11.8318,-14.1759,179.143,1.97754,-145.042,536
1569684336,362.099,-11.8318,-14.1759,179.143,1.97754,-145.042,536
1569684336,362.099,-11.8318,-14.1759,179.143,1.97754,-145.042,536
1569684336,362.099,-11.8318,-14.1759,179.143,1.97754,-145.042,536
1569684336,362.099,-11.8318,-14.1759,179.143,1.97754,-145.042,532
1569684336,362.099,-11.8318,-14.1759,179.143,1.99951,-145.042,532
1569684336,362.099,-11.8318,-14.1759,179.143,1.99951,-145.042,532
1569684336,362.099,-11.8318,-14.1759,179.143,1.99951,-145.042,528
1569684336,362.099,-11.8318,-14.1759,179.143,1.99951,-145.042,528
1569684336,362.099,-11.8318,-14.1759,179.143,1.99951,-145.042,528
1569684336,362.099,-11.8318,-14.1759,179.143,1.99951,-145.042,528
1569684336,362.099,-11.8318,-14.1759,179.143,1.99951,-145.042,524
1569684336,362.099,-11.8318,-14.0643,179.143,1.99951,-145.042,524
1569684336,362.099,-11.8318,-14.0643,179.143,1.99951,-145.042,524
1569684336,362.099,-11.8318,-14.0643,179.143,1.99951,-145.042,524
1569684337,362.099,-11.8318,-14.0643,179.143,1.99951,-145.042,524
1569684337,362.099,-11.9435,-14.0643,179.121,1.99951,-145.042,524
1569684337,362.099,-11.9435,-14.0643,179.121,1.99951,-145.063,524
1569684337,362.099,-11.9435,-14.0643,179.121,1.99951,-145.063,524
1569684337,362.099,-11.9435,-14.0643,179.121,1.99951,-145.063,524
1569684337,362.099,-11.9435,-14.0643,179.121,1.99951,-145.063,524
1569684337,362.099,-11.9435,-14.0643,179.121,1.99951,-145.063,524
1569684337,362.099,-11.9435,-14.0643,179.121,1.99951,-145.063,524
1569684337,362.099,-11.9435,-14.0643,179.099,1.99951,-145.063,524
1569684337,362.099,-11.9435,-14.0643,179.099,1.99951,-145.063,524
1569684337,362.099,-11.9435,-14.0643,179.099,1.99951,-145.063,524
1569684337,362.099,-11.9435,-14.0643,179.099,1.99951,-145.063,524
1569684337,362.099,-11.9435,-14.0643,179.099,1.99951,-145.063,528
1569684337,362.099,-11.9435,-14.0643,179.099,1.99951,-145.063,528
1569684337,362.099,-11.9435,-14.0643,179.099,1.99951,-145.063,528
1569684337,362.099,-11.9435,-14.0643,179.099,1.99951,-145.063,528
1569684337,362.099,-11.9435,-14.0643,179.099,1.99951,-145.063,528
1569684337,362.099,-11.9435,-14.0643,179.099,1.99951,-145.063,528
1569684337,362.099,-11.9435,-14.0643,179.121,2.02148,-145.063,528
1569684337,362.099,-11.9435,-14.0643,179.121,2.02148,-145.063,528
1569684337,362.099,-11.9435,-14.0643,179.121,2.02148,-145.063,528
1569684337,362.099,-11.9435,-14.0643,179.121,2.02148,-145.063,528
1569684337,362.099,-11.9435,-14.0643,179.121,2.02148,-145.063,528
1569684337,362.099,-11.9435,-14.0643,179.121,2.02148,-145.063,528
1569684337,362.099,-11.9435,-14.0643,179.121,2.02148,-145.042,528
1569684337,362.099,-11.9435,-14.0643,179.121,2.02148,-145.042,528
1569684337,362.099,-11.9435,-14.0643,179.121,2.02148,-145.042,528
1569684337,362.099,-11.8318,-14.0643,179.121,2.02148,-145.042,528
1569684337,362.099,-11.8318,-14.0643,179.121,2.02148,-145.042,528
1569684337,362.099,-11.9435,-14.0643,179.121,2.02148,-145.042,528
1569684337,362.099,-11.9435,-14.0643,179.121,2.02148,-145.042,532
1569684337,362.099,-11.9435,-14.0643,179.121,2.02148,-145.042,532
1569684337,362.099,-11.9435,-14.0643,179.121,2.02148,-145.042,532
1569684337,362.099,-11.9435,-14.0643,179.121,2.02148,-145.042,532
1569684337,362.099,-11.9435,-14.0643,179.121,2.02148,-145.042,532
1569684337,362.099,-11.9435,-14.0643,179.121,2.02148,-145.042,532
1569684337,362.099,-11.9435,-14.0643,179.121,2.02148,-145.042,532
1569684337,362.099,-11.9435,-14.0643,179.121,2.02148,-145.042,532
1569684337,362.099,-11.9435,-14.0643,179.121,2.02148,-145.042,532
1569684337,362.099,-11.9435,-14.0643,179.121,2.02148,-145.042,532
1569684337,362.099,-11.9435,-14.0643,179.121,2.02148,-145.042,532
1569684337,362.099,-11.9435,-14.0643,179.099,2.02148,-145.042,532
1569684345,400.608,-52.1271,-12.7248,179.407,2.50488,-144.822,604
1569684345,400.608,-52.1271,-12.7248,179.407,2.50488,-144.822,600
1569684345,400.608,-52.2387,-12.7248,179.407,2.52686,-144.822,596
1569684345,400.608,-52.1271,-12.7248,179.407,2.52686,-144.822,596
1569684345,400.608,-52.1271,-12.7248,179.407,2.52686,-144.822,592
1569684345,400.608,-52.1271,-12.7248,179.407,2.52686,-144.822,592
1569684345,400.608,-52.1271,-12.7248,179.407,2.52686,-144.822,588
1569684345,400.608,-52.1271,-12.7248,179.407,2.52686,-144.822,588
1569684345,400.608,-52.1271,-12.7248,179.407,2.52686,-144.822,584
1569684345,400.608,-52.1271,-12.7248,179.407,2.52686,-144.822,584
1569684345,400.608,-52.1271,-12.7248,179.407,2.52686,-144.822,584
1569684345,400.608,-52.1271,-12.7248,179.407,2.50488,-144.822,580
1569684345,400.608,-52.1271,-12.7248,179.407,2.50488,-144.822,580
1569684345,400.608,-52.1271,-12.7248,179.407,2.50488,-144.822,580
1569684345,400.608,-52.1271,-12.7248,179.407,2.50488,-144.822,580
1569684345,400.608,-52.1271,-12.7248,179.429,2.50488,-144.822,580
1569684345,400.608,-52.1271,-12.7248,179.429,2.50488,-144.822,580
1569684345,400.608,-52.1271,-12.7248,179.429,2.50488,-144.822,580
1569684345,400.608,-52.1271,-12.8364,179.429,2.48291,-144.822,580
1569684345,400.608,-52.1271,-12.8364,179.429,2.48291,-144.822,580
1569684345,400.608,-52.1271,-12.8364,179.429,2.48291,-144.822,584
1569684345,400.608,-52.1271,-12.8364,179.429,2.48291,-144.822,584
1569684345,400.608,-52.1271,-12.8364,179.429,2.48291,-144.822,584
1569684345,400.608,-52.1271,-12.8364,179.429,2.48291,-144.822,584
1569684345,400.608,-52.1271,-12.8364,179.429,2.48291,-144.822,588
1569684345,400.608,-52.1271,-12.8364,179.429,2.48291,-144.822,588
1569684345,400.608,-52.0154,-12.8364,179.451,2.48291,-144.822,588
1569684345,400.608,-52.0154,-12.8364,179.451,2.46094,-144.822,588
1569684345,400.72,-52.1271,-12.8364,179.451,2.46094,-144.822,588
1569684345,400.72,-52.1271,-12.8364,179.451,2.46094,-144.822,588
1569684345,400.72,-52.1271,-12.948,179.451,2.46094,-144.822,588
1569684345,400.72,-52.1271,-12.948,179.451,2.46094,-144.822,588
1569684345,400.608,-52.0154,-12.948,179.451,2.46094,-144.822,584
1569684345,400.608,-52.0154,-12.948,179.451,2.46094,-144.822,584
1569684345,400.608,-52.0154,-12.948,179.451,2.46094,-144.822,584
1569684345,400.608,-52.0154,-12.8364,179.451,2.46094,-144.822,584
1569684345,400.608,-52.0154,-12.8364,179.451,2.46094,-144.822,588
1569684345,400.608,-52.0154,-12.8364,179.451,2.46094,-144.822,588
1569684345,400.608,-52.0154,-12.8364,179.451,2.48291,-144.822,588
1569684345,400.608,-52.0154,-12.8364,179.451,2.48291,-144.822,588
1569684345,400.608,-52.0154,-12.8364,179.451,2.48291,-144.822,588
1569684345,400.608,-52.0154,-12.8364,179.451,2.46094,-144.822,588
1569684345,400.72,-52.0154,-12.8364,179.451,2.48291,-144.822,592
1569684345,400.72,-52.0154,-12.8364,179.451,2.48291,-144.822,592
1569684345,400.72,-52.0154,-12.8364,179.451,2.46094,-144.822,592
1569684345,400.72,-52.0154,-12.8364,179.451,2.46094,-144.822,592
1569684345,400.72,-52.0154,-12.8364,179.451,2.46094,-144.822,592
1569684345,400.72,-52.0154,-12.8364,179.451,2.46094,-144.822,592
1569684345,400.72,-52.0154,-12.8364,179.451,2.46094,-144.822,592
1569684345,400.72,-52.0154,-12.8364,179.451,2.46094,-144.822,592
1569684345,400.72,-52.0154,-12.8364,179.473,2.46094,-144.822,592
1569684345,400.72,-52.0154,-12.8364,179.473,2.46094,-144.822,592
1569684345,400.72,-52.0154,-12.8364,179.473,2.46094,-144.822,592
1569684345,400.72,-52.0154,-12.8364,179.473,2.46094,-144.822,588
1569684345,400.72,-52.0154,-12.8364,179.451,2.46094,-144.822,588
1569684345,400.72,-52.0154,-12.8364,179.451,2.46094,-144.822,588
1569684345,400.72,-52.0154,-12.8364,179.451,2.48291,-144.822,588
1569684345,400.72,-52.0154,-12.8364,179.451,2.48291,-144.822,588
1569684345,400.72,-52.0154,-12.8364,179.451,2.48291,-144.822,584
1569684345,400.72,-52.0154,-12.8364,179.451,2.48291,-144.822,584
1569684345,400.72,-52.0154,-12.8364,179.451,2.48291,-144.822,584
1569684345,400.72,-52.0154,-12.8364,179.451,2.48291,-144.822,584
1569684345,400.72,-52.0154,-12.8364,179.451,2.48291,-144.822,580
1569684345,400.72,-52.0154,-12.8364,179.451,2.48291,-144.822,580
1569684345,400.72,-52.0154,-12.8364,179.451,2.48291,-144.822,580
1569684345,400.72,-52.0154,-12.8364,179.451,2.48291,-144.822,580
1569684345,400.72,-52.0154,-12.8364,179.451,2.48291,-144.822,576
1569684345,400.72,-52.0154,-12.8364,179.451,2.48291,-144.822,576
1569684345,400.72,-52.0154,-12.8364,179.451,2.48291,-144.822,576
1569684345,400.72,-52.0154,-12.8364,179.451,2.48291,-144.822,576
1569684345,400.72,-52.0154,-12.8364,179.451,2.48291,-144.822,576
1569684345,400.72,-52.0154,-12.8364,179.451,2.48291,-144.822,576
1569684345,400.72,-52.0154,-12.8364,179.451,2.48291,-144.822,576
1569684345,400.72,-52.0154,-12.8364,179.451,2.48291,-144.822,572
1569684345,400.72,-52.0154,-12.8364,179.451,2.48291,-144.822,572
1569684345,400.72,-52.0154,-12.8364,179.451,2.50488,-144.822,572
1569684345,400.72,-52.0154,-12.7248,179.451,2.50488,-144.822,572
1569684345,400.72,-52.1271,-12.7248,179.429,2.50488,-144.822,572
1569684345,400.72,-52.1271,-12.7248,179.451,2.50488,-144.822,572
1569684345,400.72,-52.1271,-12.7248,179.451,2.50488,-144.822,572
1569684345,400.72,-52.1271,-12.7248,179.451,2.50488,-144.822,572
1569684345,400.72,-52.1271,-12.7248,179.451,2.50488,-144.822,572
1569684345,400.72,-52.0154,-12.7248,179.451,2.50488,-144.822,572
1569684345,400.72,-52.0154,-12.7248,179.451,2.50488,-144.822,572
1569684345,400.72,-52.0154,-12.7248,179.451,2.50488,-144.822,572
1569684345,400.72,-52.0154,-12.7248,179.451,2.50488,-144.822,572
1569684345,400.72,-52.0154,-12.7248,179.451,2.50488,-144.822,576
1569684345,400.72,-52.0154,-12.8364,179.451,2.48291,-144.822,576
1569684345,400.72,-52.0154,-12.8364,179.451,2.48291,-144.822,576
1569684345,400.72,-52.0154,-12.8364,179.451,2.48291,-144.822,576
1569684345,400.608,-52.0154,-12.8364,179.451,2.48291,-144.822,576
1569684345,400.608,-52.0154,-12.8364,179.473,2.48291,-144.822,576
1569684345,400.608,-52.0154,-12.8364,179.473,2.50488,-144.822,580
1569684345,400.608,-52.0154,-12.8364,179.473,2.50488,-144.822,580
1569684345,400.608,-52.0154,-12.7248,179.473,2.50488,-144.822,580
1569684346,400.608,-52.0154,-12.7248,179.451,2.50488,-144.822,580
1569684346,400.608,-52.0154,-12.7248,179.451,2.50488,-144.822,580
1569684346,400.608,-52.0154,-12.7248,179.451,2.52686,-144.822,580
1569684346,400.608,-52.0154,-12.7248,179.451,2.52686,-144.822,584
1569684346,400.608,-52.0154,-12.7248,179.451,2.52686,-144.822,584
1569684346,400.608,-52.0154,-12.7248,179.451,2.52686,-144.822,584
1569684346,400.608,-52.1271,-12.7248,179.451,2.52686,-144.822,584
1569684346,400.608,-52.1271,-12.7248,179.451,2.52686,-144.822,584
1569684346,400.608,-52.1271,-12.7248,179.451,2.52686,-144.822,584
1569684346,400.608,-52.1271,-12.7248,179.451,2.52686,-144.822,584
1569684346,400.72,-52.1271,-12.7248,179.451,2.52686,-144.822,580
1569684346,400.72,-52.1271,-12.7248,179.451,2.52686,-144.822,580
1569684346,400.72,-52.1271,-12.7248,179.451,2.52686,-144.822,580
1569684346,400.72,-52.1271,-12.7248,179.451,2.52686,-144.822,580
1569684346,400.72,-52.1271,-12.7248,179.451,2.52686,-144.822,580
1569684346,400.72,-52.1271,-12.7248,179.451,2.52686,-144.822,576
1569684346,400.72,-52.1271,-12.7248,179.451,2.52686,-144.822,576
1569684346,400.72,-52.1271,-12.7248,179.451,2.52686,-144.822,576
1569684346,400.72,-52.1271,-12.7248,179.429,2.52686,-144.822,576
1569684346,400.72,-52.1271,-12.7248,179.429,2.52686,-144.822,576
1569684346,400.72,-52.1271,-12.7248,179.429,2.52686,-144.822,576
1569684346,400.72,-52.1271,-12.7248,179.429,2.52686,-144.822,576
1569684346,400.608,-52.1271,-12.7248,179.429,2.52686,-144.822,576
1569684346,400.608,-52.1271,-12.7248,179.429,2.52686,-144.822,572
1569684346,400.608,-52.1271,-12.7248,179.429,2.52686,-144.822,572
1569684346,400.608,-52.1271,-12.7248,179.429,2.52686,-144.822,572
1569684346,400.608,-52.1271,-12.7248,179.429,2.52686,-144.822,572
1569684346,400.72,-52.1271,-12.7248,179.429,2.52686,-144.822,572
1569684346,400.72,-52.1271,-12.7248,179.429,2.52686,-144.822,572
1569684346,400.72,-52.1271,-12.7248,179.429,2.52686,-144.822,572
1569684346,400.72,-52.1271,-12.7248,179.429,2.52686,-144.822,572
1569684346,400.72,-52.1271,-12.7248,179.429,2.52686,-144.822,576
1569684346,400.72,-52.1271,-12.7248,179.429,2.52686,-144.822,576
1569684346,400.72,-52.1271,-12.7248,179.429,2.52686,-144.822,576
1569684346,400.72,-52.2387,-12.7248,179.407,2.52686,-144.822,576
1569684346,400.72,-52.2387,-12.7248,179.407,2.52686,-144.822,580
1569684346,400.72,-52.2387,-12.7248,179.407,2.52686,-144.822,580
1569684346,400.72,-52.2387,-12.7248,179.407,2.52686,-144.822,580
1569684346,400.72,-52.2387,-12.7248,179.407,2.52686,-144.822,580
1569684346,400.72,-52.2387,-12.7248,179.407,2.52686,-144.822,584
1569684346,400.72,-52.2387,-12.7248,179.407,2.52686,-144.822,584
1569684346,400.72,-52.2387,-12.6132,179.407,2.52686,-144.8,584
1569684346,400.72,-52.2387,-12.6132,179.407,2.52686,-144.8,584
1569684346,400.72,-52.2387,-12.6132,179.407,2.54883,-144.8,584
1569684346,400.72,-52.2387,-12.6132,179.407,2.54883,-144.8,584
1569684346,400.72,-52.2387,-12.6132,179.407,2.54883,-144.822,584
1569684346,400.72,-52.2387,-12.6132,179.407,2.54883,-144.822,584
1569684346,400.72,-52.2387,-12.6132,179.407,2.54883,-144.822,584
1569684346,400.72,-52.2387,-12.6132,179.407,2.54883,-144.822,584
1569684346,400.72,-52.2387,-12.6132,179.407,2.54883,-144.822,580
1569684346,400.72,-52.2387,-12.6132,179.407,2.54883,-144.822,580
1569684346,400.72,-52.2387,-12.6132,179.385,2.54883,-144.822,580
1569684346,400.72,-52.2387,-12.6132,179.385,2.54883,-144.822,576
1569684346,400.72,-52.2387,-12.6132,179.385,2.54883,-144.822,576
1569684346,400.72,-52.2387,-12.6132,179.385,2.54883,-144.822,576
1569684346,400.72,-52.2387,-12.6132,179.385,2.54883,-144.822,572
1569684346,400.72,-52.2387,-12.6132,179.385,2.54883,-144.822,572
1569684346,400.72,-52.2387,-12.6132,179.385,2.54883,-144.822,572
1569684346,400.72,-52.2387,-12.6132,179.385,2.54883,-144.822,568
1569684346,400.72,-52.2387,-12.6132,179.385,2.54883,-144.822,568
1569684346,400.72,-52.2387,-12.6132,179.385,2.54883,-144.822,568
1569684346,400.72,-52.2387,-12.6132,179.385,2.54883,-144.822,568
1569684346,400.72,-52.2387,-12.6132,179.385,2.54883,-144.822,568
1569684346,400.72,-52.2387,-12.6132,179.385,2.52686,-144.822,564
1569684346,400.72,-52.2387,-12.7248,179.385,2.52686,-144.822,564
1569684346,400.72,-52.2387,-12.7248,179.385,2.52686,-144.822,568
1569684346,400.72,-52.2387,-12.7248,179.385,2.52686,-144.822,568
1569684346,400.72,-52.2387,-12.7248,179.385,2.52686,-144.822,568
1569684346,400.72,-52.2387,-12.7248,179.385,2.52686,-144.822,568
1569684346,400.72,-52.2387,-12.7248,179.385,2.52686,-144.822,568
1569684346,400.72,-52.2387,-12.7248,179.385,2.52686,-144.822,568
1569684346,400.72,-52.2387,-12.7248,179.385,2.52686,-144.822,568
1569684346,400.72,-52.2387,-12.7248,179.385,2.50488,-144.822,568
1569684346,400.72,-52.2387,-12.7248,179.385,2.50488,-144.822,568
1569684346,400.72,-52.2387,-12.7248,179.385,2.50488,-144.822,568
1569684346,400.72,-52.2387,-12.7248,179.385,2.50488,-144.822,568
1569684346,400.72,-52.2387,-12.7248,179.407,2.50488,-144.822,568
1569684346,400.72,-52.2387,-12.8364,179.407,2.50488,-144.844,568
1569684346,400.72,-52.1271,-12.8364,179.407,2.50488,-144.844,568
1569684346,400.72,-52.1271,-12.8364,179.407,2.50488,-144.844,568
1569684346,400.72,-52.1271,-12.8364,179.407,2.50488,-144.844,568
1569684346,400.72,-52.1271,-12.8364,179.407,2.50488,-144.844,568
1569684346,400.72,-52.1271,-12.8364,179.407,2.50488,-144.844,568
1569684346,400.72,-52.1271,-12.7248,179.407,2.50488,-144.844,568
1569684346,400.72,-52.1271,-12.7248,179.407,2.50488,-144.844,568
1569684346,400.72,-52.1271,-12.7248,179.429,2.50488,-144.844,568
1569684346,400.72,-52.1271,-12.7248,179.429,2.50488,-144.844,568
1569684346,400.72,-52.1271,-12.7248,179.429,2.50488,-144.844,568
1569684346,400.72,-52.1271,-12.7248,179.429,2.50488,-144.844,568
1569684346,400.72,-52.1271,-12.7248,179.429,2.50488,-144.844,568
1569684346,400.72,-52.1271,-12.7248,179.429,2.50488,-144.844,568
1569684346,400.72,-52.1271,-12.7248,179.429,2.50488,-144.844,564
1569684346,400.72,-52.1271,-12.7248,179.429,2.50488,-144.844,564
1569684346,400.72,-52.0154,-12.7248,179.429,2.50488,-144.844,564
1569684346,400.72,-52.0154,-12.7248,179.429,2.50488,-144.844,564
1569684346,400.72,-52.0154,-12.7248,179.429,2.50488,-144.844,564
1569684346,400.72,-52.1271,-12.7248,179.429,2.50488,-144.844,564
1569684346,400.72,-52.1271,-12.7248,179.429,2.50488,-144.844,564
1569684346,400.72,-52.1271,-12.7248,179.429,2.50488,-144.844,564
1569684346,400.72,-52.1271,-12.7248,179.429,2.50488,-144.844,564
1569684347,400.72,-52.1271,-12.7248,179.407,2.50488,-144.844,564
1569684347,400.72,-52.1271,-12.7248,179.407,2.52686,-144.844,564
1569684347,400.72,-52.1271,-12.7248,179.407,2.52686,-144.844,564
1569684347,400.72,-52.1271,-12.7248,179.407,2.52686,-144.844,564
1569684347,400.72,-52.1271,-12.7248,179.407,2.52686,-144.844,564
1569684347,400.608,-52.2387,-12.7248,179.407,2.52686,-144.844,564
1569684347,400.608,-52.2387,-12.7248,179.407,2.50488,-144.844,564
1569684347,400.72,-52.2387,-12.7248,179.407,2.50488,-144.844,568
1569684347,400.72,-52.2387,-12.7248,179.407,2.50488,-144.844,568
1569684347,400.72,-52.2387,-12.7248,179.407,2.50488,-144.844,568
1569684347,400.72,-52.1271,-12.7248,179.407,2.50488,-144.844,568
1569684347,400.72,-52.1271,-12.7248,179.407,2.50488,-144.844,568
1569684347,400.72,-52.1271,-12.7248,179.407,2.50488,-144.844,568
1569684347,400.72,-52.1271,-12.7248,179.407,2.50488,-144.844,568
1569684347,400.72,-52.1271,-12.8364,179.429,2.48291,-144.822,568
1569684347,400.72,-52.1271,-12.8364,179.429,2.48291,-144.822,568
1569684347,400.72,-52.1271,-12.8364,179.429,2.48291,-144.822,568
1569684347,400.72,-52.1271,-12.8364,179.429,2.48291,-144.822,568
1569684347,400.72,-52.1271,-12.8364,179.429,2.48291,-144.844,568
1569684347,400.72,-52.1271,-12.8364,179.429,2.48291,-144.844,568
1569684347,400.72,-52.1271,-12.8364,179.429,2.48291,-144.844,572
1569684347,400.72,-52.1271,-12.8364,179.429,2.48291,-144.844,572
1569684347,400.72,-52.1271,-12.8364,179.429,2.48291,-144.822,572
1569684347,400.72,-52.1271,-12.8364,179.407,2.48291,-144.822,572
1569684347,400.72,-52.1271,-12.8364,179.407,2.48291,-144.822,572
1569684347,400.72,-52.1271,-12.8364,179.407,2.48291,-144.822,572
1569684347,400.72,-52.2387,-12.8364,179.407,2.48291,-144.822,572
1569684347,400.72,-52.2387,-12.8364,179.407,2.50488,-144.822,572
1569684347,400.72,-52.2387,-12.8364,179.407,2.50488,-144.822,572
1569684347,400.72,-52.2387,-12.8364,179.407,2.50488,-144.822,568
1569684347,400.72,-52.2387,-12.8364,179.407,2.50488,-144.822,568
1569684347,400.72,-52.1271,-12.8364,179.429,2.48291,-144.822,568
1569684347,400.72,-52.1271,-12.8364,179.429,2.48291,-144.822,568
1569684347,400.72,-52.1271,-12.8364,179.429,2.48291,-144.822,568
1569684347,400.72,-52.1271,-12.8364,179.429,2.48291,-144.822,568
1569684347,400.72,-52.1271,-12.8364,179.429,2.48291,-144.822,564
1569684347,400.72,-52.1271,-12.8364,179.429,2.48291,-144.822,564
1569684347,400.72,-52.1271,-12.8364,179.451,2.48291,-144.822,564
1569684347,400.72,-52.1271,-12.8364,179.451,2.48291,-144.822,564
1569684347,400.72,-52.1271,-12.8364,179.429,2.48291,-144.822,564
1569684347,400.72,-52.1271,-12.8364,179.429,2.48291,-144.822,560
1569684347,400.72,-52.1271,-12.8364,179.429,2.48291,-144.822,560
1569684347,400.72,-52.1271,-12.8364,179.429,2.48291,-144.822,560
1569684347,400.72,-52.1271,-12.8364,179.429,2.48291,-144.822,560
1569684347,400.72,-52.1271,-12.8364,179.429,2.48291,-144.822,560
1569684347,400.72,-52.2387,-12.8364,179.429,2.48291,-144.822,560
1569684347,400.72,-52.2387,-12.8364,179.429,2.48291,-144.822,560
1569684347,400.72,-52.2387,-12.8364,179.429,2.48291,-144.822,560
1569684347,400.72,-52.2387,-12.8364,179.429,2.48291,-144.822,560
1569684347,400.72,-52.2387,-12.8364,179.407,2.48291,-144.822,560
1569684347,400.72,-52.2387,-12.8364,179.429,2.48291,-144.822,560
1569684347,400.72,-52.1271,-12.8364,179.429,2.48291,-144.822,564
1569684347,400.72,-52.1271,-12.8364,179.429,2.48291,-144.822,564
1569684347,400.72,-52.1271,-12.8364,179.429,2.48291,-144.822,564
1569684347,400.72,-52.1271,-12.8364,179.429,2.48291,-144.822,568
1569684347,400.72,-52.1271,-12.8364,179.429,2.48291,-144.822,568
1569684347,400.72,-52.1271,-12.8364,179.429,2.48291,-144.822,572
1569684347,400.72,-52.1271,-12.8364,179.429,2.48291,-144.844,572
1569684347,400.72,-52.1271,-12.8364,179.429,2.48291,-144.844,572
1569684347,400.72,-52.1271,-12.8364,179.429,2.48291,-144.844,576
1569684347,400.72,-52.1271,-12.8364,179.429,2.48291,-144.844,576
1569684347,400.72,-52.1271,-12.8364,179.429,2.48291,-144.844,576
1569684347,400.72,-52.1271,-12.8364,179.429,2.48291,-144.844,576
1569684347,400.72,-52.1271,-12.8364,179.429,2.48291,-144.822,576
1569684347,400.72,-52.1271,-12.8364,179.429,2.50488,-144.822,580
1569684347,400.72,-52.1271,-12.7248,179.429,2.50488,-144.822,580
1569684347,400.72,-52.1271,-12.7248,179.429,2.50488,-144.822,580
1569684347,400.72,-52.1271,-12.7248,179.429,2.50488,-144.822,580
1569684347,400.72,-52.1271,-12.7248,179.429,2.50488,-144.822,580
1569684347,400.72,-52.1271,-12.7248,179.429,2.52686,-144.822,580
1569684347,400.72,-52.1271,-12.7248,179.429,2.52686,-144.822,580
1569684347,400.72,-52.1271,-12.6132,179.429,2.52686,-144.822,580
1569684347,400.72,-52.1271,-12.6132,179.429,2.52686,-144.822,580
1569684347,400.72,-52.1271,-12.6132,179.429,2.52686,-144.822,580
1569684347,400.72,-52.1271,-12.6132,179.429,2.52686,-144.822,576
1569684347,400.72,-52.1271,-12.6132,179.429,2.52686,-144.822,576
1569684347,400.72,-52.1271,-12.6132,179.429,2.52686,-144.822,576
1569684347,400.831,-52.1271,-12.6132,179.429,2.52686,-144.822,576
1569684347,400.831,-52.1271,-12.6132,179.429,2.52686,-144.822,572
1569684347,400.831,-52.1271,-12.6132,179.429,2.52686,-144.822,572
1569684347,400.831,-52.1271,-12.6132,179.429,2.52686,-144.822,572
1569684347,400.831,-52.1271,-12.6132,179.429,2.52686,-144.822,572
1569684347,400.831,-52.1271,-12.6132,179.429,2.52686,-144.822,568
1569684347,400.831,-52.1271,-12.6132,179.451,2.52686,-144.822,568
1569684347,400.72,-52.1271,-12.6132,179.451,2.52686,-144.822,568
1569684347,400.72,-52.1271,-12.6132,179.451,2.52686,-144.822,568
1569684347,400.72,-52.1271,-12.7248,179.451,2.52686,-144.822,568
1569684347,400.72,-52.0154,-12.7248,179.451,2.52686,-144.822,568
1569684347,400.72,-52.0154,-12.7248,179.451,2.52686,-144.822,568
1569684347,400.72,-52.0154,-12.7248,179.451,2.52686,-144.822,568
1569684347,400.72,-52.0154,-12.7248,179.451,2.52686,-144.822,568
1569684347,400.72,-52.0154,-12.7248,179.451,2.52686,-144.822,568
1569684347,400.72,-52.0154,-12.7248,179.451,2.52686,-144.8,568
1569684347,400.72,-52.0154,-12.7248,179.473,2.52686,-144.8,568
1569684347,400.72,-52.0154,-12.7248,179.451,2.52686,-144.8,568
1569684347,400.72,-52.0154,-12.7248,179.451,2.52686,-144.8,568
1569684347,400.72,-52.0154,-12.7248,179.451,2.52686,-144.8,568
1569684347,400.72,-52.0154,-12.7248,179.451,2.52686,-144.8,568
1569684347,400.72,-52.0154,-12.7248,179.451,2.52686,-144.8,568
1569684347,400.72,-52.0154,-12.7248,179.451,2.52686,-144.8,568
1569684348,400.72,-52.1271,-12.7248,179.451,2.52686,-144.8,568
1569684348,400.72,-52.1271,-12.7248,179.451,2.52686,-144.8,568
1569684348,400.72,-52.1271,-12.7248,179.451,2.52686,-144.8,568
1569684348,400.72,-52.1271,-12.7248,179.451,2.52686,-144.8,568
1569684348,400.72,-52.1271,-12.7248,179.451,2.50488,-144.8,568
1569684348,400.72,-52.1271,-12.7248,179.451,2.50488,-144.8,572
1569684348,400.72,-52.1271,-12.7248,179.451,2.50488,-144.8,572
1569684348,400.72,-52.1271,-12.7248,179.451,2.50488,-144.8,572
1569684348,400.72,-52.1271,-12.7248,179.451,2.50488,-144.8,576
1569684348,400.608,-52.1271,-12.7248,179.451,2.50488,-144.8,576
1569684348,400.608,-52.1271,-12.7248,179.451,2.50488,-144.8,576
1569684348,400.72,-52.1271,-12.7248,179.451,2.50488,-144.8,576
1569684348,400.72,-52.1271,-12.7248,179.429,2.50488,-144.8,580
1569684348,400.72,-52.1271,-12.7248,179.429,2.50488,-144.8,580
1569684348,400.72,-52.1271,-12.7248,179.429,2.50488,-144.8,580
1569684348,400.72,-52.1271,-12.7248,179.429,2.50488,-144.8,580
1569684348,400.72,-52.1271,-12.7248,179.429,2.50488,-144.8,584
1569684348,400.72,-52.1271,-12.7248,179.429,2.50488,-144.8,584
1569684348,400.72,-52.1271,-12.7248,179.429,2.50488,-144.8,584
1569684348,400.72,-52.1271,-12.7248,179.429,2.50488,-144.8,584
1569684348,400.72,-52.1271,-12.7248,179.429,2.50488,-144.8,584
1569684348,400.72,-52.0154,-12.7248,179.429,2.50488,-144.8,588
1569684348,400.608,-52.0154,-12.7248,179.429,2.50488,-144.8,588
1569684348,400.608,-52.0154,-12.7248,179.429,2.50488,-144.8,588
1569684348,400.608,-52.0154,-12.7248,179.429,2.50488,-144.8,588
1569684348,400.608,-52.0154,-12.7248,179.429,2.50488,-144.8,588
1569684348,400.608,-52.0154,-12.8364,179.429,2.50488,-144.8,588
1569684348,400.608,-52.0154,-12.8364,179.429,2.50488,-144.8,592
1569684348,400.608,-52.0154,-12.8364,179.429,2.50488,-144.8,592
