time,x,y,z,ax,ay,az,q
1582295686,458.986,-6.13916,28.1285,178.572,-2.96631,88.6377,728
1582295686,458.986,-6.13916,28.1285,178.572,-2.96631,88.6377,728
1582295686,458.986,-6.13916,28.1285,178.572,-2.96631,88.6377,728
1582295686,458.986,-6.13916,28.1285,178.572,-2.96631,88.6377,728
1582295686,458.986,-6.13916,28.0169,178.572,-2.98828,88.6377,728
1582295686,458.986,-6.13916,28.0169,178.572,-2.98828,88.6377,728
1582295686,458.986,-6.13916,28.0169,178.572,-2.98828,88.6377,728
1582295686,458.986,-6.13916,28.0169,178.572,-2.98828,88.6377,728
1582295686,458.986,-6.13916,28.0169,178.572,-2.98828,88.6597,728
1582295686,458.986,-6.13916,28.0169,178.572,-2.98828,88.6597,728
1582295686,458.986,-6.13916,28.0169,178.572,-2.98828,88.6597,728
1582295686,458.986,-6.13916,28.0169,178.572,-2.98828,88.6597,728
1582295686,458.986,-6.13916,28.1285,178.572,-2.98828,88.6597,728
1582295686,458.986,-6.13916,28.1285,178.572,-2.98828,88.6597,728
1582295686,458.986,-6.13916,28.1285,178.572,-2.98828,88.6597,728
1582295686,458.986,-6.13916,28.1285,178.572,-2.96631,88.6597,728
1582295686,458.986,-6.13916,28.1285,178.572,-2.96631,88.6597,728
1582295686,458.986,-6.13916,28.1285,178.572,-2.96631,88.6597,728
1582295686,458.986,-6.13916,28.1285,178.572,-2.96631,88.6597,728
1582295686,458.986,-6.13916,28.1285,178.572,-2.96631,88.6597,728
1582295686,458.986,-6.13916,28.1285,178.572,-2.96631,88.6597,728
1582295686,458.986,-6.13916,28.1285,178.572,-2.96631,88.6597,728
1582295686,458.986,-6.13916,28.1285,178.572,-2.96631,88.6597,728
1582295686,458.986,-6.13916,28.1285,178.572,-2.96631,88.6597,728
1582295686,458.986,-6.13916,28.1285,178.572,-2.96631,88.6597,728
1582295686,458.986,-6.13916,28.1285,178.572,-2.96631,88.6597,728
1582295686,458.986,-6.13916,28.1285,178.572,-2.96631,88.6597,728
1582295686,458.986,-6.13916,28.1285,178.572,-2.96631,88.6597,728
1582295686,458.986,-6.13916,28.1285,178.572,-2.96631,88.6597,728
1582295686,458.986,-6.13916,28.1285,178.572,-2.96631,88.6597,728
1582295686,458.986,-6.13916,28.1285,178.572,-2.96631,88.6597,728
1582295686,458.986,-6.13916,28.1285,178.572,-2.96631,88.6597,728
1582295686,458.986,-6.13916,28.1285,178.572,-2.96631,88.6597,728
1582295686,458.986,-6.13916,28.1285,178.572,-2.96631,88.6597,728
1582295686,458.986,-6.13916,28.1285,178.572,-2.96631,88.6597,728
1582295686,458.986,-6.13916,28.1285,178.572,-2.96631,88.6597,728
1582295686,458.986,-6.13916,28.1285,178.572,-2.96631,88.6597,728
1582295686,458.986,-6.13916,28.1285,178.572,-2.96631,88.6597,728
1582295686,458.986,-6.13916,28.1285,178.572,-2.96631,88.6597,728
1582295686,458.986,-6.13916,28.1285,178.572,-2.96631,88.6597,728
1582295686,458.986,-6.13916,28.1285,178.572,-2.96631,88.6597,728
1582295686,458.986,-6.13916,28.1285,178.572,-2.96631,88.6597,728
1582295686,458.986,-6.13916,28.1285,178.572,-2.96631,88.6597,728
1582295686,458.874,-6.13916,28.1285,178.572,-2.96631,88.6597,728
1582295686,458.874,-6.13916,28.1285,178.572,-2.96631,88.6597,728
1582295686,458.874,-6.13916,28.1285,178.572,-2.96631,88.6597,728
1582295686,458.874,-6.13916,28.1285,178.572,-2.96631,88.6597,728
1582295686,458.874,-6.13916,28.1285,178.572,-2.96631,88.6597,728
1582295686,458.874,-6.13916,28.1285,178.572,-2.96631,88.6597,728
1582295686,458.874,-6.13916,28.1285,178.572,-2.96631,88.6597,728
1582295686,458.986,-6.13916,28.1285,178.572,-2.96631,88.6597,728
1582295686,458.986,-6.13916,28.1285,178.572,-2.96631,88.6597,728
1582295686,458.986,-6.13916,28.1285,178.572,-2.96631,88.6597,728
1582295686,458.986,-6.13916,28.1285,178.572,-2.96631,88.6597,728
1582295686,458.986,-6.13916,28.1285,178.572,-2.96631,88.6597,728
1582295686,458.986,-6.13916,28.1285,178.572,-2.96631,88.6597,728
1582295686,458.986,-6.13916,28.1285,178.572,-2.98828,88.6597,728
1582295686,458.986,-6.13916,28.1285,178.572,-2.96631,88.6597,728
1582295686,458.986,-6.13916,28.1285,178.572,-2.96631,88.6597,728
1582295686,458.986,-6.13916,28.1285,178.572,-2.96631,88.6597,728
1582295686,458.986,-6.13916,28.1285,178.572,-2.96631,88.6597,728
1582295686,458.986,-6.13916,28.1285,178.572,-2.96631,88.6597,728
1582295686,458.986,-6.13916,28.1285,178.572,-2.96631,88.6597,728
1582295686,458.986,-6.13916,28.1285,178.572,-2.96631,88.6597,728
1582295686,458.986,-6.13916,28.1285,178.572,-2.96631,88.6597,728
1582295686,458.986,-6.13916,28.1285,178.572,-2.96631,88.6597,728
1582295686,458.986,-6.13916,28.1285,178.572,-2.96631,88.6597,728
1582295686,458.986,-6.13916,28.1285,178.572,-2.96631,88.6597,728
1582295686,458.986,-6.13916,28.1285,178.572,-2.96631,88.6597,728
1582295686,458.986,-6.13916,28.1285,178.572,-2.96631,88.6597,724
1582295686,458.986,-6.13916,28.1285,178.572,-2.96631,88.6597,724
1582295686,458.986,-6.13916,28.1285,178.572,-2.96631,88.6377,724
1582295686,458.986,-6.13916,28.1285,178.572,-2.96631,88.6377,724
1582295686,458.986,-6.13916,28.1285,178.572,-2.96631,88.6377,724
1582295686,458.986,-6.13916,28.1285,178.572,-2.96631,88.6377,724
1582295686,458.986,-6.13916,28.1285,178.572,-2.96631,88.6377,724
1582295686,458.986,-6.13916,28.1285,178.572,-2.96631,88.6377,724
1582295686,458.986,-6.13916,28.1285,178.572,-2.96631,88.6377,724
1582295686,458.986,-6.13916,28.1285,178.572,-2.96631,88.6377,724
1582295686,458.986,-6.13916,28.1285,178.572,-2.96631,88.6377,724
1582295686,458.986,-6.13916,28.1285,178.572,-2.96631,88.6377,724
1582295686,458.986,-6.13916,28.1285,178.572,-2.96631,88.6377,724
1582295686,458.986,-6.13916,28.1285,178.572,-2.96631,88.6377,724
1582295686,458.986,-6.13916,28.1285,178.572,-2.96631,88.6377,724
1582295686,458.986,-6.13916,28.1285,178.572,-2.96631,88.6377,724
1582295686,458.986,-6.13916,28.1285,178.572,-2.96631,88.6377,724
1582295686,458.986,-6.13916,28.1285,178.572,-2.96631,88.6377,724
1582295686,458.986,-6.13916,28.1285,178.572,-2.96631,88.6377,724
1582295686,458.986,-6.13916,28.1285,178.572,-2.96631,88.6377,724
1582295686,458.986,-6.13916,28.1285,178.572,-2.96631,88.6597,724
1582295686,458.986,-6.13916,28.1285,178.572,-2.96631,88.6597,724
1582295686,458.986,-6.13916,28.1285,178.572,-2.96631,88.6597,724
1582295686,458.986,-6.13916,28.1285,178.572,-2.96631,88.6597,724
1582295686,458.986,-6.13916,28.1285,178.572,-2.96631,88.6597,724
1582295686,458.986,-6.13916,28.1285,178.572,-2.96631,88.6597,724
1582295686,458.986,-6.13916,28.1285,178.572,-2.96631,88.6597,724
1582295687,458.986,-6.13916,28.1285,178.572,-2.96631,88.6597,724
1582295687,458.986,-6.13916,28.1285,178.572,-2.96631,88.6597,724
1582295687,458.986,-6.13916,28.1285,178.572,-2.96631,88.6597,724
1582295687,458.986,-6.13916,28.1285,178.572,-2.96631,88.6597,724
1582295687,458.986,-6.13916,28.1285,178.572,-2.96631,88.6597,724
1582295687,458.986,-6.13916,28.1285,178.572,-2.96631,88.6597,724
1582295687,458.986,-6.13916,28.1285,178.572,-2.96631,88.6597,724
1582295687,458.986,-6.13916,28.1285,178.572,-2.96631,88.6597,724
1582295687,458.986,-6.13916,28.1285,178.572,-2.96631,88.6597,724
1582295687,458.986,-6.13916,28.1285,178.572,-2.96631,88.6597,724
1582295687,458.986,-6.13916,28.1285,178.572,-2.96631,88.6597,724
1582295687,458.986,-6.13916,28.1285,178.572,-2.96631,88.6597,724
1582295687,458.986,-6.13916,28.1285,178.572,-2.96631,88.6597,724
1582295687,458.986,-6.13916,28.1285,178.572,-2.96631,88.6597,724
1582295687,458.986,-6.25078,28.1285,178.572,-2.96631,88.6597,724
1582295687,458.986,-6.25078,28.1285,178.572,-2.96631,88.6597,724
1582295687,458.986,-6.25078,28.1285,178.572,-2.96631,88.6377,724
1582295687,458.986,-6.25078,28.1285,178.572,-2.96631,88.6377,724
1582295687,458.986,-6.25078,28.1285,178.572,-2.96631,88.6377,724
1582295687,458.986,-6.25078,28.1285,178.572,-2.96631,88.6377,724
1582295687,458.986,-6.25078,28.1285,178.572,-2.96631,88.6377,724
1582295687,458.986,-6.25078,28.1285,178.572,-2.96631,88.6377,724
1582295687,458.986,-6.25078,28.1285,178.572,-2.96631,88.6377,724
1582295687,458.986,-6.25078,28.1285,178.572,-2.96631,88.6377,724
1582295687,458.986,-6.25078,28.1285,178.572,-2.96631,88.6377,724
1582295687,458.986,-6.25078,28.1285,178.572,-2.96631,88.6377,724
1582295687,458.986,-6.25078,28.1285,178.572,-2.96631,88.6377,724
1582295687,458.986,-6.13916,28.1285,178.572,-2.96631,88.6377,724
1582295687,458.986,-6.13916,28.1285,178.572,-2.96631,88.6377,724
1582295687,458.986,-6.13916,28.1285,178.572,-2.96631,88.6377,724
1582295687,458.986,-6.13916,28.1285,178.572,-2.96631,88.6377,724
1582295687,458.986,-6.13916,28.1285,178.572,-2.96631,88.6377,724
1582295687,458.986,-6.13916,28.1285,178.572,-2.96631,88.6377,724
1582295687,458.986,-6.13916,28.1285,178.572,-2.96631,88.6377,724
1582295687,458.986,-6.13916,28.1285,178.572,-2.96631,88.6377,724
1582295687,458.986,-6.13916,28.1285,178.572,-2.96631,88.6377,724
1582295687,458.986,-6.13916,28.1285,178.572,-2.96631,88.6377,724
1582295687,458.986,-6.13916,28.1285,178.572,-2.96631,88.6377,724
1582295687,458.986,-6.13916,28.1285,178.572,-2.96631,88.6377,724
1582295687,458.986,-6.13916,28.1285,178.572,-2.96631,88.6377,724
1582295687,458.986,-6.13916,28.1285,178.572,-2.96631,88.6377,724
1582295687,458.986,-6.13916,28.1285,178.572,-2.96631,88.6377,724
1582295687,458.986,-6.13916,28.1285,178.572,-2.96631,88.6377,724
1582295687,458.986,-6.13916,28.1285,178.572,-2.96631,88.6377,724
1582295687,458.986,-6.13916,28.1285,178.572,-2.96631,88.6377,724
1582295687,458.986,-6.13916,28.1285,178.572,-2.96631,88.6377,724
1582295687,458.986,-6.13916,28.1285,178.572,-2.96631,88.6377,724
1582295687,458.986,-6.13916,28.1285,178.572,-2.96631,88.6597,724
1582295687,458.986,-6.13916,28.1285,178.572,-2.96631,88.6597,724
1582295687,458.986,-6.13916,28.1285,178.572,-2.96631,88.6597,724
1582295687,458.986,-6.13916,28.1285,178.572,-2.96631,88.6597,724
1582295687,458.986,-6.13916,28.1285,178.572,-2.96631,88.6597,724
1582295687,458.986,-6.13916,28.1285,178.572,-2.96631,88.6597,724
1582295687,458.986,-6.13916,28.1285,178.572,-2.96631,88.6597,724
1582295687,458.986,-6.13916,28.1285,178.572,-2.96631,88.6597,724
1582295687,458.986,-6.13916,28.1285,178.572,-2.96631,88.6597,724
1582295687,458.986,-6.13916,28.1285,178.572,-2.96631,88.6597,724
1582295687,458.986,-6.13916,28.1285,178.572,-2.96631,88.6597,724
1582295687,458.986,-6.13916,28.1285,178.572,-2.96631,88.6597,724
1582295687,458.986,-6.13916,28.1285,178.572,-2.96631,88.6597,724
1582295687,458.986,-6.13916,28.1285,178.572,-2.96631,88.6597,724
1582295687,458.986,-6.13916,28.1285,178.572,-2.96631,88.6597,724
1582295687,458.986,-6.13916,28.1285,178.572,-2.96631,88.6597,724
1582295687,458.986,-6.13916,28.1285,178.572,-2.96631,88.6597,724
1582295687,458.986,-6.13916,28.1285,178.572,-2.96631,88.6597,724
1582295687,458.986,-6.13916,28.1285,178.572,-2.96631,88.6597,724
1582295687,458.986,-6.13916,28.1285,178.572,-2.96631,88.6597,724
1582295687,458.986,-6.13916,28.1285,178.572,-2.96631,88.6597,724
1582295687,458.986,-6.13916,28.1285,178.572,-2.96631,88.6597,724
1582295687,458.986,-6.13916,28.1285,178.572,-2.96631,88.6597,724
1582295687,458.986,-6.13916,28.1285,178.572,-2.96631,88.6597,724
1582295687,458.986,-6.13916,28.1285,178.572,-2.96631,88.6597,724
1582295687,458.986,-6.13916,28.1285,178.572,-2.96631,88.6597,724
1582295687,458.986,-6.13916,28.1285,178.572,-2.96631,88.6597,724
1582295687,458.986,-6.13916,28.1285,178.572,-2.96631,88.6597,724
1582295687,458.986,-6.13916,28.1285,178.572,-2.96631,88.6597,724
1582295687,458.986,-6.13916,28.1285,178.572,-2.96631,88.6597,724
1582295687,458.986,-6.13916,28.1285,178.572,-2.96631,88.6597,724
1582295687,458.986,-6.13916,28.1285,178.572,-2.96631,88.6597,724
1582295687,458.986,-6.13916,28.1285,178.572,-2.96631,88.6597,724
1582295687,458.986,-6.13916,28.1285,178.572,-2.96631,88.6597,724
1582295687,458.986,-6.13916,28.0169,178.572,-2.98828,88.6597,724
1582295687,458.986,-6.13916,28.0169,178.572,-2.98828,88.6597,724
1582295687,458.986,-6.13916,28.0169,178.594,-2.98828,88.6597,724
1582295687,458.986,-6.13916,28.0169,178.594,-2.98828,88.6597,724
1582295687,458.986,-6.13916,28.0169,178.594,-2.98828,88.6597,724
1582295687,458.986,-6.13916,28.0169,178.594,-2.98828,88.6597,724
1582295687,458.986,-6.13916,28.0169,178.594,-2.98828,88.6597,724
1582295687,458.986,-6.13916,28.0169,178.594,-2.98828,88.6597,724
1582295687,458.986,-6.13916,28.0169,178.594,-2.98828,88.6597,724
1582295687,458.986,-6.13916,28.0169,178.594,-2.98828,88.6597,724
1582295687,458.986,-6.13916,28.1285,178.572,-2.98828,88.6597,724
1582295687,458.986,-6.13916,28.1285,178.572,-2.98828,88.6597,724
1582295687,458.986,-6.13916,28.1285,178.572,-2.96631,88.6597,724
1582295687,458.986,-6.13916,28.1285,178.572,-2.96631,88.6597,724
1582295687,458.986,-6.13916,28.1285,178.572,-2.96631,88.6597,724
1582295687,458.986,-6.13916,28.1285,178.572,-2.96631,88.6597,724
1582295687,458.986,-6.13916,28.1285,178.572,-2.96631,88.6597,724
1582295687,458.986,-6.13916,28.1285,178.572,-2.96631,88.6597,724
1582295687,458.986,-6.13916,28.1285,178.572,-2.96631,88.6597,724
1582295688,458.986,-6.13916,28.1285,178.572,-2.96631,88.6597,724
1582295688,458.986,-6.13916,28.1285,178.572,-2.96631,88.6597,724
1582295688,458.986,-6.13916,28.1285,178.572,-2.96631,88.6597,724
1582295688,458.986,-6.13916,28.1285,178.594,-2.96631,88.6597,724
1582295688,458.986,-6.13916,28.1285,178.594,-2.96631,88.6597,724
1582295688,458.986,-6.13916,28.1285,178.594,-2.96631,88.6597,724
1582295688,458.986,-6.13916,28.1285,178.594,-2.96631,88.6597,724
1582295688,458.986,-6.13916,28.1285,178.594,-2.96631,88.6597,724
1582295688,458.986,-6.13916,28.1285,178.594,-2.96631,88.6597,724
1582295688,458.986,-6.13916,28.1285,178.594,-2.96631,88.6597,724
1582295688,458.986,-6.13916,28.1285,178.594,-2.96631,88.6597,724
1582295688,458.986,-6.13916,28.1285,178.594,-2.96631,88.6597,724
1582295688,458.986,-6.13916,28.1285,178.594,-2.96631,88.6597,724
1582295688,458.986,-6.13916,28.1285,178.594,-2.96631,88.6597,724
1582295688,458.986,-6.13916,28.1285,178.594,-2.96631,88.6597,724
1582295688,458.986,-6.13916,28.1285,178.594,-2.96631,88.6597,724
1582295688,458.986,-6.13916,28.1285,178.594,-2.96631,88.6597,724
1582295688,458.986,-6.13916,28.1285,178.594,-2.96631,88.6597,724
1582295688,458.986,-6.13916,28.1285,178.594,-2.96631,88.6597,724
1582295688,458.986,-6.13916,28.1285,178.594,-2.96631,88.6597,724
1582295688,458.986,-6.13916,28.1285,178.594,-2.96631,88.6597,724
1582295688,458.986,-6.13916,28.1285,178.594,-2.96631,88.6597,724
1582295688,458.986,-6.13916,28.1285,178.572,-2.96631,88.6597,724
1582295688,458.986,-6.13916,28.1285,178.572,-2.96631,88.6597,724
1582295688,458.986,-6.13916,28.1285,178.572,-2.96631,88.6597,724
1582295688,458.986,-6.13916,28.1285,178.572,-2.96631,88.6597,724
1582295688,458.986,-6.13916,28.1285,178.572,-2.96631,88.6597,724
1582295688,458.986,-6.13916,28.1285,178.572,-2.96631,88.6597,724
1582295688,458.986,-6.13916,28.1285,178.572,-2.96631,88.6597,724
1582295688,458.986,-6.13916,28.1285,178.572,-2.96631,88.6597,724
1582295688,458.986,-6.13916,28.1285,178.572,-2.96631,88.6597,724
1582295688,458.986,-6.13916,28.1285,178.572,-2.96631,88.6597,724
1582295688,458.986,-6.13916,28.1285,178.572,-2.96631,88.6597,724
1582295688,458.874,-6.13916,28.1285,178.572,-2.96631,88.6597,724
1582295688,458.874,-6.13916,28.1285,178.572,-2.96631,88.6597,724
1582295688,458.874,-6.13916,28.1285,178.572,-2.96631,88.6597,724
1582295688,458.874,-6.13916,28.1285,178.572,-2.96631,88.6597,724
1582295688,458.874,-6.13916,28.1285,178.572,-2.96631,88.6597,724
1582295688,458.874,-6.13916,28.1285,178.572,-2.96631,88.6597,728
1582295688,458.874,-6.13916,28.1285,178.572,-2.96631,88.6597,728
1582295688,458.986,-6.13916,28.1285,178.572,-2.96631,88.6597,728
1582295688,458.986,-6.13916,28.1285,178.572,-2.96631,88.6597,728
1582295688,458.986,-6.13916,28.1285,178.572,-2.96631,88.6597,728
1582295688,458.986,-6.13916,28.1285,178.572,-2.96631,88.6597,728
1582295688,458.986,-6.13916,28.1285,178.572,-2.96631,88.6597,728
1582295688,458.986,-6.13916,28.1285,178.572,-2.96631,88.6597,728
1582295688,458.986,-6.13916,28.1285,178.572,-2.96631,88.6597,728
1582295688,458.986,-6.13916,28.1285,178.572,-2.96631,88.6597,728
1582295688,458.986,-6.13916,28.1285,178.572,-2.96631,88.6597,728
1582295688,458.986,-6.13916,28.1285,178.572,-2.96631,88.6597,728
1582295688,458.986,-6.13916,28.1285,178.572,-2.96631,88.6597,728
1582295688,458.986,-6.13916,28.1285,178.572,-2.96631,88.6597,724
1582295688,458.986,-6.13916,28.1285,178.572,-2.96631,88.6597,724
1582295688,458.986,-6.13916,28.1285,178.572,-2.96631,88.6597,724
1582295688,458.986,-6.13916,28.1285,178.572,-2.96631,88.6597,724
1582295688,458.986,-6.13916,28.1285,178.572,-2.96631,88.6377,724
1582295688,458.986,-6.13916,28.1285,178.572,-2.96631,88.6377,724
1582295688,458.986,-6.13916,28.1285,178.572,-2.96631,88.6377,724
1582295688,458.986,-6.13916,28.1285,178.572,-2.96631,88.6377,724
1582295688,458.986,-6.13916,28.1285,178.572,-2.96631,88.6377,724
1582295688,458.986,-6.13916,28.1285,178.572,-2.96631,88.6377,724
1582295688,458.986,-6.13916,28.1285,178.572,-2.96631,88.6377,724
1582295688,458.986,-6.13916,28.1285,178.572,-2.96631,88.6377,724
1582295688,458.986,-6.13916,28.1285,178.572,-2.96631,88.6377,728
1582295688,458.986,-6.13916,28.1285,178.572,-2.96631,88.6377,728
1582295688,458.986,-6.13916,28.1285,178.572,-2.96631,88.6377,728
1582295688,458.986,-6.13916,28.1285,178.572,-2.96631,88.6597,728
1582295688,458.986,-6.13916,28.1285,178.572,-2.96631,88.6597,728
1582295688,458.986,-6.13916,28.1285,178.572,-2.96631,88.6597,728
1582295688,458.986,-6.13916,28.1285,178.572,-2.96631,88.6597,728
1582295688,458.986,-6.13916,28.1285,178.572,-2.98828,88.6597,728
1582295688,458.986,-6.13916,28.0169,178.572,-2.98828,88.6597,728
1582295688,458.986,-6.13916,28.0169,178.572,-2.98828,88.6597,728
1582295688,458.986,-6.13916,28.0169,178.572,-2.98828,88.6597,728
1582295688,458.986,-6.13916,28.0169,178.572,-2.96631,88.6597,728
1582295688,458.986,-6.13916,28.0169,178.572,-2.96631,88.6597,728
1582295688,458.986,-6.13916,28.0169,178.572,-2.96631,88.6597,728
1582295688,458.986,-6.13916,28.0169,178.572,-2.96631,88.6597,728
1582295688,458.986,-6.13916,28.0169,178.572,-2.96631,88.6597,728
1582295688,458.986,-6.13916,28.0169,178.572,-2.96631,88.6597,728
1582295688,458.986,-6.13916,28.0169,178.572,-2.96631,88.6597,728
1582295688,458.986,-6.13916,28.0169,178.572,-2.96631,88.6597,728
1582295688,458.986,-6.13916,28.0169,178.572,-2.96631,88.6597,728
1582295688,458.986,-6.13916,28.1285,178.572,-2.96631,88.6597,728
1582295688,458.986,-6.13916,28.1285,178.572,-2.96631,88.6597,728
1582295688,458.986,-6.13916,28.1285,178.572,-2.96631,88.6597,728
1582295688,458.986,-6.13916,28.1285,178.572,-2.96631,88.6597,728
1582295688,458.986,-6.13916,28.1285,178.572,-2.96631,88.6597,728
1582295688,458.986,-6.13916,28.1285,178.572,-2.96631,88.6597,728
1582295688,458.986,-6.13916,28.1285,178.572,-2.96631,88.6597,728
1582295688,458.986,-6.13916,28.1285,178.572,-2.96631,88.6597,728
1582295688,458.986,-6.13916,28.1285,178.572,-2.98828,88.6597,728
1582295688,458.986,-6.13916,28.0169,178.572,-2.98828,88.6597,728
1582295688,458.986,-6.13916,28.0169,178.572,-2.98828,88.6597,728
1582295688,458.986,-6.13916,28.0169,178.572,-2.98828,88.6597,728
1582295688,458.986,-6.13916,28.0169,178.572,-2.98828,88.6597,728
1582295688,458.986,-6.13916,28.0169,178.572,-2.98828,88.6597,728
1582295688,458.986,-6.13916,28.0169,178.572,-2.98828,88.6597,728
1582295688,458.986,-6.13916,28.0169,178.572,-2.98828,88.6597,728
1582295688,458.986,-6.13916,28.0169,178.572,-2.98828,88.6377,728
1582295689,458.986,-6.13916,28.0169,178.572,-2.98828,88.6377,728
1582295689,458.986,-6.13916,28.0169,178.572,-2.98828,88.6377,728
1582295689,458.986,-6.13916,28.1285,178.572,-2.98828,88.6377,728
1582295689,458.986,-6.13916,28.1285,178.572,-2.98828,88.6377,728
1582295689,458.986,-6.13916,28.1285,178.572,-2.98828,88.6377,728
1582295689,458.986,-6.13916,28.1285,178.572,-2.98828,88.6377,728
1582295689,458.986,-6.13916,28.1285,178.572,-2.98828,88.6377,728
1582295689,458.986,-6.13916,28.1285,178.594,-2.98828,88.6377,728
1582295689,458.986,-6.13916,28.1285,178.594,-2.98828,88.6597,728
1582295689,458.986,-6.13916,28.1285,178.594,-2.98828,88.6597,728
1582295689,458.986,-6.13916,28.1285,178.594,-2.98828,88.6597,728
1582295689,458.986,-6.13916,28.1285,178.594,-2.98828,88.6597,728
1582295689,458.986,-6.13916,28.1285,178.594,-2.98828,88.6597,728
1582295689,458.986,-6.13916,28.1285,178.594,-2.98828,88.6597,728
1582295689,458.986,-6.13916,28.1285,178.594,-2.98828,88.6597,728
1582295689,458.986,-6.13916,28.1285,178.594,-2.98828,88.6597,728
1582295689,458.986,-6.13916,28.1285,178.572,-2.98828,88.6597,728
1582295689,458.986,-6.13916,28.1285,178.572,-2.98828,88.6597,728
1582295689,458.986,-6.13916,28.1285,178.572,-2.96631,88.6597,728
1582295689,458.986,-6.13916,28.1285,178.572,-2.96631,88.6597,728
1582295689,458.986,-6.13916,28.1285,178.572,-2.96631,88.6597,728
1582295689,458.986,-6.13916,28.1285,178.572,-2.96631,88.6597,728
1582295689,458.986,-6.13916,28.1285,178.572,-2.96631,88.6597,728
1582295689,458.986,-6.13916,28.1285,178.572,-2.96631,88.6597,728
1582295689,458.986,-6.13916,28.1285,178.572,-2.96631,88.6597,728
1582295689,458.986,-6.13916,28.1285,178.572,-2.96631,88.6597,728
1582295689,458.986,-6.13916,28.1285,178.572,-2.96631,88.6597,728
1582295689,458.986,-6.13916,28.1285,178.572,-2.96631,88.6597,728
1582295689,458.874,-6.13916,28.1285,178.572,-2.96631,88.6597,728
1582295689,458.874,-6.13916,28.1285,178.572,-2.96631,88.6597,728
1582295689,458.874,-6.13916,28.1285,178.572,-2.96631,88.6597,728
1582295689,458.874,-6.13916,28.0169,178.572,-2.98828,88.6597,728
1582295689,458.874,-6.13916,28.0169,178.572,-2.98828,88.6597,728
1582295689,458.874,-6.13916,28.0169,178.594,-2.98828,88.6597,728
1582295689,458.874,-6.13916,28.0169,178.594,-2.98828,88.6597,728
1582295689,458.874,-6.13916,28.0169,178.594,-2.98828,88.6597,728
1582295689,458.874,-6.13916,28.0169,178.594,-2.98828,88.6597,728
1582295689,458.874,-6.13916,28.0169,178.594,-2.98828,88.6597,728
1582295689,458.874,-6.13916,28.0169,178.594,-2.98828,88.6597,728
1582295689,458.874,-6.13916,28.0169,178.594,-2.98828,88.6597,728
1582295689,458.874,-6.13916,28.0169,178.594,-2.98828,88.6597,728
1582295689,458.874,-6.13916,28.0169,178.594,-2.98828,88.6597,728
1582295689,458.874,-6.13916,28.0169,178.594,-2.98828,88.6597,728
1582295689,458.874,-6.13916,28.0169,178.594,-2.98828,88.6597,728
1582295689,458.874,-6.13916,28.0169,178.594,-2.98828,88.6597,728
1582295689,458.874,-6.13916,28.0169,178.594,-2.98828,88.6597,728
1582295689,458.874,-6.13916,28.0169,178.594,-2.98828,88.6597,728
1582295689,458.986,-6.13916,28.1285,178.594,-2.98828,88.6377,728
1582295689,458.986,-6.13916,28.1285,178.594,-2.98828,88.6377,728
1582295689,458.986,-6.13916,28.1285,178.594,-2.98828,88.6377,728
1582295689,458.986,-6.13916,28.1285,178.594,-2.98828,88.6377,728
1582295689,458.986,-6.13916,28.1285,178.594,-2.98828,88.6377,728
1582295689,458.986,-6.13916,28.1285,178.594,-2.98828,88.6377,728
1582295689,458.986,-6.13916,28.1285,178.594,-2.98828,88.6377,728
1582295689,458.986,-6.13916,28.1285,178.594,-2.98828,88.6377,728
1582295689,458.986,-6.13916,28.1285,178.572,-2.98828,88.6377,728
1582295689,458.986,-6.13916,28.1285,178.572,-2.98828,88.6377,728
1582295689,458.986,-6.13916,28.1285,178.572,-2.98828,88.6377,728
1582295689,458.986,-6.13916,28.1285,178.572,-2.98828,88.6377,728
1582295689,458.986,-6.13916,28.1285,178.572,-2.98828,88.6377,728
1582295689,458.986,-6.13916,28.1285,178.572,-2.96631,88.6377,728
1582295689,458.986,-6.13916,28.1285,178.572,-2.96631,88.6377,728
1582295689,458.986,-6.13916,28.1285,178.572,-2.96631,88.6597,728
1582295689,458.986,-6.13916,28.1285,178.572,-2.96631,88.6597,728
1582295689,458.986,-6.13916,28.1285,178.572,-2.96631,88.6597,728
1582295689,458.986,-6.13916,28.1285,178.572,-2.96631,88.6597,728
1582295689,458.986,-6.13916,28.1285,178.572,-2.96631,88.6597,728
1582295689,458.986,-6.13916,28.1285,178.572,-2.96631,88.6597,728
1582295689,458.986,-6.13916,28.1285,178.572,-2.96631,88.6597,728
1582295689,458.986,-6.13916,28.1285,178.572,-2.96631,88.6597,728
1582295689,458.986,-6.13916,28.1285,178.572,-2.96631,88.6597,728
1582295689,458.986,-6.13916,28.1285,178.572,-2.96631,88.6597,728
1582295689,458.986,-6.13916,28.1285,178.572,-2.96631,88.6597,728
1582295689,458.986,-6.13916,28.1285,178.572,-2.96631,88.6597,728
1582295689,458.986,-6.13916,28.1285,178.572,-2.96631,88.6597,728
1582295689,458.986,-6.13916,28.1285,178.572,-2.96631,88.6597,728
1582295689,458.986,-6.13916,28.1285,178.572,-2.98828,88.6597,728
1582295689,458.986,-6.13916,28.1285,178.572,-2.98828,88.6597,728
1582295689,458.986,-6.13916,28.0169,178.572,-2.98828,88.6597,728
1582295689,458.986,-6.13916,28.0169,178.572,-2.98828,88.6597,728
1582295689,458.986,-6.13916,28.0169,178.572,-2.98828,88.6597,728
1582295689,458.986,-6.13916,28.0169,178.572,-2.98828,88.6597,728
1582295689,458.986,-6.13916,28.0169,178.572,-2.98828,88.6597,728
1582295689,458.986,-6.13916,28.0169,178.572,-2.98828,88.6597,728
1582295689,458.986,-6.13916,28.0169,178.572,-2.98828,88.6597,728
1582295689,458.986,-6.13916,28.0169,178.572,-2.98828,88.6597,732
1582295689,458.986,-6.13916,28.0169,178.572,-2.98828,88.6597,732
1582295689,458.986,-6.13916,28.1285,178.572,-2.98828,88.6597,732
1582295689,458.986,-6.13916,28.1285,178.572,-2.98828,88.6597,732
1582295689,458.986,-6.13916,28.1285,178.572,-2.98828,88.6597,732
1582295689,458.986,-6.13916,28.1285,178.572,-2.98828,88.6597,732
1582295689,458.986,-6.13916,28.1285,178.572,-2.96631,88.6597,732
1582295689,458.986,-6.13916,28.1285,178.572,-2.96631,88.6597,732
1582295689,458.986,-6.13916,28.1285,178.572,-2.96631,88.6597,732
1582295689,458.986,-6.13916,28.1285,178.572,-2.96631,88.6597,732
1582295689,458.986,-6.13916,28.1285,178.572,-2.96631,88.6597,732
1582295689,458.986,-6.13916,28.1285,178.572,-2.96631,88.6597,732
1582295689,458.986,-6.13916,28.1285,178.572,-2.96631,88.6597,732
1582295689,458.986,-6.13916,28.1285,178.572,-2.96631,88.6597,732
1582295689,458.986,-6.13916,28.1285,178.572,-2.96631,88.6597,732
1582295690,458.986,-6.13916,28.1285,178.572,-2.96631,88.6597,732
1582295690,458.986,-6.13916,28.1285,178.572,-2.96631,88.6597,732
1582295690,458.986,-6.13916,28.1285,178.572,-2.96631,88.6597,732
1582295690,458.986,-6.13916,28.1285,178.572,-2.96631,88.6597,732
1582295690,458.986,-6.13916,28.1285,178.572,-2.96631,88.6597,732
1582295690,458.986,-6.13916,28.1285,178.572,-2.96631,88.6597,728
1582295690,458.986,-6.13916,28.1285,178.572,-2.96631,88.6597,728
1582295690,458.986,-6.13916,28.1285,178.572,-2.96631,88.6597,728
1582295690,458.986,-6.25078,28.1285,178.572,-2.96631,88.6597,728
1582295690,458.986,-6.25078,28.1285,178.572,-2.96631,88.6597,728
1582295690,458.986,-6.25078,28.1285,178.572,-2.96631,88.6597,728
1582295690,458.986,-6.25078,28.1285,178.572,-2.96631,88.6597,728
1582295690,458.986,-6.25078,28.1285,178.572,-2.96631,88.6597,728
1582295690,458.986,-6.25078,28.1285,178.572,-2.96631,88.6597,728
1582295690,458.986,-6.13916,28.1285,178.572,-2.96631,88.6597,728
1582295690,458.986,-6.13916,28.1285,178.572,-2.96631,88.6597,728
1582295690,458.986,-6.13916,28.1285,178.572,-2.96631,88.6597,728
1582295690,458.986,-6.13916,28.1285,178.572,-2.96631,88.6597,728
1582295690,458.986,-6.13916,28.1285,178.572,-2.96631,88.6597,728
1582295690,458.986,-6.13916,28.1285,178.572,-2.96631,88.6597,728
1582295690,458.986,-6.13916,28.1285,178.572,-2.96631,88.6597,728
1582295690,458.986,-6.13916,28.1285,178.572,-2.96631,88.6597,728
1582295690,458.986,-6.13916,28.1285,178.572,-2.96631,88.6597,728
1582295690,458.986,-6.13916,28.1285,178.572,-2.96631,88.6597,728
1582295690,458.986,-6.13916,28.1285,178.572,-2.96631,88.6597,728
1582295690,458.986,-6.13916,28.1285,178.572,-2.96631,88.6597,728
1582295690,458.986,-6.13916,28.1285,178.572,-2.96631,88.6597,728
1582295690,458.986,-6.25078,28.1285,178.572,-2.96631,88.6597,728
1582295690,458.986,-6.25078,28.1285,178.572,-2.96631,88.6597,728
1582295690,458.986,-6.25078,28.1285,178.572,-2.96631,88.6597,728
1582295690,458.986,-6.25078,28.1285,178.572,-2.96631,88.6597,728
1582295690,458.986,-6.25078,28.1285,178.572,-2.96631,88.6597,728
1582295690,458.986,-6.25078,28.1285,178.572,-2.96631,88.6597,728
1582295690,458.986,-6.25078,28.1285,178.572,-2.96631,88.6597,728
1582295690,458.986,-6.25078,28.1285,178.572,-2.96631,88.6597,728
1582295690,458.986,-6.25078,28.1285,178.572,-2.96631,88.6597,728
1582295690,458.986,-6.25078,28.1285,178.572,-2.96631,88.6597,728
1582295690,458.986,-6.25078,28.1285,178.572,-2.96631,88.6597,728
1582295690,458.986,-6.25078,28.1285,178.572,-2.96631,88.6597,728
1582295690,458.986,-6.25078,28.1285,178.572,-2.96631,88.6597,728
1582295690,458.986,-6.25078,28.1285,178.572,-2.96631,88.6597,724
1582295690,458.986,-6.25078,28.1285,178.572,-2.96631,88.6597,724
1582295690,458.986,-6.25078,28.1285,178.572,-2.96631,88.6597,724
1582295690,458.986,-6.25078,28.1285,178.572,-2.96631,88.6597,724
1582295690,458.986,-6.25078,28.1285,178.572,-2.96631,88.6597,724
1582295690,458.986,-6.25078,28.1285,178.572,-2.96631,88.6597,724
1582295690,458.986,-6.25078,28.1285,178.572,-2.96631,88.6597,724
1582295690,458.986,-6.25078,28.1285,178.572,-2.96631,88.6597,724
1582295690,458.986,-6.25078,28.1285,178.572,-2.96631,88.6597,724
1582295690,458.986,-6.25078,28.1285,178.572,-2.96631,88.6597,724
1582295690,458.986,-6.25078,28.1285,178.572,-2.96631,88.6597,724
1582295690,458.986,-6.25078,28.1285,178.572,-2.96631,88.6597,724
1582295690,458.986,-6.25078,28.1285,178.572,-2.96631,88.6597,728
1582295690,458.986,-6.25078,28.1285,178.572,-2.96631,88.6597,728
1582295690,458.986,-6.25078,28.1285,178.572,-2.98828,88.6597,728
1582295690,458.986,-6.25078,28.1285,178.572,-2.96631,88.6597,728
1582295690,458.986,-6.25078,28.1285,178.572,-2.96631,88.6597,728
1582295690,458.986,-6.13916,28.1285,178.572,-2.96631,88.6597,728
1582295690,458.986,-6.13916,28.1285,178.572,-2.96631,88.6597,728
1582295690,458.986,-6.13916,28.1285,178.572,-2.96631,88.6597,728
1582295690,458.986,-6.13916,28.1285,178.572,-2.96631,88.6597,728
1582295690,458.986,-6.13916,28.1285,178.572,-2.96631,88.6597,728
1582295690,458.986,-6.13916,28.1285,178.572,-2.96631,88.6597,728
1582295690,458.986,-6.13916,28.1285,178.572,-2.96631,88.6597,728
1582295690,458.986,-6.13916,28.1285,178.572,-2.96631,88.6597,728
1582295690,458.986,-6.13916,28.1285,178.572,-2.96631,88.6597,724
1582295690,458.986,-6.13916,28.1285,178.572,-2.96631,88.6597,724
1582295690,458.986,-6.13916,28.1285,178.572,-2.96631,88.6597,724
1582295690,458.986,-6.13916,28.1285,178.572,-2.96631,88.6597,724
1582295690,458.986,-6.13916,28.1285,178.572,-2.96631,88.6597,724
1582295690,458.986,-6.13916,28.1285,178.572,-2.96631,88.6597,724
1582295690,458.986,-6.13916,28.1285,178.572,-2.96631,88.6597,724
1582295690,458.986,-6.13916,28.1285,178.572,-2.96631,88.6597,724
1582295690,458.986,-6.13916,28.1285,178.594,-2.96631,88.6597,724
1582295690,458.986,-6.13916,28.1285,178.594,-2.96631,88.6597,724
1582295690,458.986,-6.13916,28.1285,178.594,-2.96631,88.6597,724
1582295690,458.986,-6.13916,28.1285,178.594,-2.96631,88.6597,724
1582295690,458.986,-6.13916,28.1285,178.594,-2.96631,88.6597,724
1582295690,458.986,-6.13916,28.1285,178.594,-2.96631,88.6597,724
1582295690,458.986,-6.13916,28.1285,178.594,-2.96631,88.6597,724
1582295690,458.986,-6.13916,28.1285,178.594,-2.96631,88.6597,724
1582295690,458.986,-6.13916,28.1285,178.594,-2.96631,88.6597,724
1582295690,458.986,-6.13916,28.1285,178.594,-2.96631,88.6597,724
1582295690,458.986,-6.13916,28.1285,178.594,-2.96631,88.6597,724
1582295690,458.986,-6.13916,28.1285,178.594,-2.96631,88.6377,724
1582295690,458.986,-6.13916,28.1285,178.594,-2.96631,88.6377,724
1582295690,458.986,-6.13916,28.1285,178.594,-2.96631,88.6377,724
1582295690,458.986,-6.13916,28.1285,178.594,-2.96631,88.6377,724
1582295690,458.986,-6.13916,28.1285,178.594,-2.96631,88.6377,724
1582295690,458.986,-6.13916,28.1285,178.594,-2.96631,88.6377,724
1582295690,458.986,-6.13916,28.1285,178.594,-2.96631,88.6377,724
1582295690,458.986,-6.13916,28.1285,178.594,-2.96631,88.6377,724
1582295690,458.986,-6.13916,28.1285,178.594,-2.96631,88.6377,724
1582295690,458.986,-6.13916,28.1285,178.594,-2.96631,88.6597,724
1582295690,458.986,-6.13916,28.1285,178.594,-2.96631,88.6597,724
1582295690,458.986,-6.13916,28.1285,178.594,-2.96631,88.6597,724
1582295690,458.986,-6.13916,28.1285,178.594,-2.96631,88.6597,724
1582295690,458.986,-6.13916,28.1285,178.594,-2.96631,88.6597,724
1582295690,458.986,-6.13916,28.1285,178.594,-2.96631,88.6597,724
1582295690,458.986,-6.13916,28.1285,178.594,-2.96631,88.6597,724
1582295691,458.986,-6.13916,28.1285,178.594,-2.96631,88.6597,724
1582295691,458.986,-6.13916,28.1285,178.594,-2.96631,88.6597,724
1582295691,458.986,-6.13916,28.1285,178.594,-2.96631,88.6597,724
1582295691,458.986,-6.13916,28.1285,178.572,-2.96631,88.6597,724
1582295697,458.986,-6.13916,28.1285,178.572,-2.96631,88.6597,728
1582295697,458.986,-6.13916,28.1285,178.572,-2.96631,88.6597,728
1582295697,458.986,-6.13916,28.1285,178.572,-2.96631,88.6597,728
1582295697,458.986,-6.13916,28.1285,178.572,-2.96631,88.6597,728
1582295697,458.986,-6.13916,28.1285,178.572,-2.96631,88.6597,728
1582295697,458.986,-6.13916,28.1285,178.572,-2.96631,88.6597,728
1582295697,458.986,-6.13916,28.1285,178.572,-2.96631,88.6597,728
1582295697,458.986,-6.13916,28.1285,178.572,-2.96631,88.6597,728
1582295697,458.986,-6.13916,28.1285,178.572,-2.96631,88.6597,728
1582295697,458.986,-6.13916,28.1285,178.572,-2.96631,88.6597,728
1582295697,458.986,-6.13916,28.1285,178.572,-2.96631,88.6597,728
1582295697,458.986,-6.13916,28.1285,178.572,-2.96631,88.6597,728
1582295697,458.986,-6.13916,28.1285,178.572,-2.96631,88.6597,728
1582295697,458.986,-6.13916,28.1285,178.572,-2.96631,88.6597,728
1582295697,458.986,-6.13916,28.1285,178.572,-2.96631,88.6597,728
1582295697,458.986,-6.13916,28.1285,178.572,-2.96631,88.6597,728
1582295697,458.986,-6.13916,28.1285,178.572,-2.96631,88.6597,728
1582295697,458.986,-6.13916,28.1285,178.572,-2.96631,88.6597,728
1582295697,458.986,-6.13916,28.1285,178.572,-2.96631,88.6597,728
1582295697,458.986,-6.13916,28.1285,178.572,-2.96631,88.6597,728
1582295697,458.986,-6.13916,28.1285,178.572,-2.96631,88.6597,728
1582295697,458.986,-6.13916,28.1285,178.572,-2.96631,88.6597,728
1582295697,458.986,-6.13916,28.1285,178.572,-2.96631,88.6597,728
1582295697,458.986,-6.13916,28.1285,178.572,-2.96631,88.6597,728
1582295697,458.986,-6.13916,28.1285,178.572,-2.96631,88.6597,728
1582295697,458.986,-6.13916,28.1285,178.572,-2.96631,88.6597,728
1582295697,458.986,-6.13916,28.1285,178.572,-2.96631,88.6597,728
1582295697,458.986,-6.13916,28.1285,178.572,-2.96631,88.6597,728
1582295697,458.986,-6.13916,28.1285,178.572,-2.96631,88.6597,728
1582295697,458.986,-6.13916,28.1285,178.572,-2.96631,88.6597,728
1582295697,458.986,-6.13916,28.1285,178.572,-2.96631,88.6597,728
1582295697,458.986,-6.13916,28.1285,178.572,-2.96631,88.6377,728
1582295697,458.986,-6.13916,28.1285,178.572,-2.96631,88.6377,728
1582295697,458.986,-6.13916,28.1285,178.572,-2.96631,88.6377,728
1582295697,458.986,-6.13916,28.1285,178.572,-2.96631,88.6377,728
1582295697,458.986,-6.13916,28.1285,178.572,-2.96631,88.6377,728
1582295697,458.986,-6.13916,28.1285,178.572,-2.98828,88.6377,728
1582295697,458.874,-6.13916,28.1285,178.572,-2.98828,88.6377,728
1582295697,458.874,-6.13916,28.1285,178.572,-2.98828,88.6377,728
1582295697,458.874,-6.13916,28.1285,178.572,-2.98828,88.6377,728
1582295697,458.874,-6.13916,28.1285,178.572,-2.98828,88.6377,728
1582295697,458.874,-6.13916,28.1285,178.572,-2.96631,88.6377,728
1582295697,458.874,-6.13916,28.1285,178.572,-2.96631,88.6597,728
1582295697,458.874,-6.13916,28.1285,178.572,-2.96631,88.6597,728
1582295697,458.874,-6.13916,28.1285,178.572,-2.96631,88.6597,728
1582295697,458.874,-6.13916,28.1285,178.572,-2.96631,88.6597,728
1582295697,458.874,-6.13916,28.1285,178.572,-2.96631,88.6597,728
1582295697,458.874,-6.13916,28.1285,178.572,-2.96631,88.6597,728
1582295697,458.874,-6.13916,28.1285,178.572,-2.96631,88.6597,728
1582295697,458.874,-6.13916,28.1285,178.572,-2.96631,88.6597,728
1582295697,458.874,-6.13916,28.1285,178.572,-2.96631,88.6597,728
1582295697,458.874,-6.13916,28.1285,178.572,-2.96631,88.6597,728
1582295698,458.874,-6.13916,28.1285,178.572,-2.96631,88.6597,728
1582295698,458.874,-6.13916,28.1285,178.572,-2.96631,88.6597,728
1582295698,458.874,-6.13916,28.1285,178.572,-2.96631,88.6377,728
1582295698,458.874,-6.13916,28.1285,178.572,-2.96631,88.6377,728
1582295698,458.874,-6.13916,28.1285,178.572,-2.96631,88.6377,728
1582295698,458.874,-6.13916,28.1285,178.572,-2.96631,88.6377,728
1582295698,458.874,-6.13916,28.1285,178.572,-2.96631,88.6377,728
1582295698,458.874,-6.13916,28.1285,178.572,-2.96631,88.6377,728
1582295698,458.874,-6.13916,28.1285,178.572,-2.96631,88.6377,728
1582295698,458.874,-6.13916,28.1285,178.572,-2.96631,88.6377,728
1582295698,458.874,-6.13916,28.1285,178.572,-2.96631,88.6377,728
1582295698,458.874,-6.13916,28.1285,178.572,-2.96631,88.6377,728
1582295698,458.874,-6.13916,28.1285,178.572,-2.96631,88.6377,728
1582295698,458.874,-6.13916,28.1285,178.572,-2.96631,88.6377,728
1582295698,458.874,-6.13916,28.1285,178.572,-2.96631,88.6377,728
1582295698,458.874,-6.13916,28.1285,178.572,-2.98828,88.6377,728
1582295698,458.874,-6.13916,28.1285,178.572,-2.98828,88.6377,728
1582295698,458.874,-6.13916,28.1285,178.572,-2.98828,88.6377,728
1582295698,458.986,-6.13916,28.1285,178.572,-2.96631,88.6377,728
1582295698,458.986,-6.13916,28.1285,178.572,-2.96631,88.6377,728
1582295698,458.986,-6.13916,28.1285,178.572,-2.96631,88.6377,728
1582295698,458.986,-6.13916,28.1285,178.572,-2.96631,88.6377,728
1582295698,458.986,-6.13916,28.1285,178.572,-2.96631,88.6377,728
1582295698,458.986,-6.13916,28.1285,178.572,-2.96631,88.6377,728
1582295698,458.986,-6.13916,28.1285,178.572,-2.96631,88.6377,728
1582295698,458.986,-6.13916,28.1285,178.572,-2.96631,88.6377,728
1582295698,458.986,-6.13916,28.1285,178.572,-2.96631,88.6377,728
1582295698,458.986,-6.13916,28.1285,178.572,-2.96631,88.6377,728
1582295698,458.986,-6.13916,28.1285,178.594,-2.96631,88.6377,728
1582295698,458.986,-6.13916,28.1285,178.594,-2.96631,88.6377,728
1582295698,458.986,-6.13916,28.1285,178.594,-2.96631,88.6377,728
1582295698,458.986,-6.13916,28.1285,178.594,-2.96631,88.6377,728
1582295698,458.986,-6.13916,28.1285,178.594,-2.96631,88.6377,728
1582295698,458.986,-6.13916,28.1285,178.594,-2.96631,88.6377,728
1582295698,458.986,-6.13916,28.1285,178.594,-2.96631,88.6377,728
1582295698,458.986,-6.13916,28.1285,178.594,-2.96631,88.6377,728
1582295698,458.986,-6.13916,28.1285,178.572,-2.96631,88.6377,728
1582295698,458.986,-6.13916,28.1285,178.572,-2.96631,88.6377,728
1582295698,458.986,-6.13916,28.1285,178.572,-2.96631,88.6377,728
1582295698,458.986,-6.13916,28.1285,178.572,-2.96631,88.6377,728
1582295698,458.986,-6.13916,28.1285,178.572,-2.96631,88.6377,728
1582295698,458.986,-6.13916,28.1285,178.572,-2.96631,88.6377,728
1582295698,458.986,-6.13916,28.1285,178.572,-2.96631,88.6377,728
1582295698,458.986,-6.13916,28.1285,178.572,-2.96631,88.6377,728
1582295698,458.986,-6.13916,28.1285,178.572,-2.96631,88.6377,728
1582295698,458.986,-6.13916,28.1285,178.572,-2.96631,88.6597,728
1582295698,458.986,-6.13916,28.1285,178.572,-2.96631,88.6597,728
1582295698,458.986,-6.13916,28.1285,178.572,-2.96631,88.6597,728
1582295698,458.986,-6.13916,28.1285,178.572,-2.96631,88.6597,728
1582295698,458.986,-6.13916,28.1285,178.572,-2.96631,88.6597,728
1582295698,458.986,-6.13916,28.1285,178.572,-2.96631,88.6597,728
1582295698,458.986,-6.13916,28.1285,178.572,-2.96631,88.6597,728
1582295698,458.986,-6.13916,28.1285,178.572,-2.96631,88.6597,728
1582295698,458.986,-6.13916,28.1285,178.572,-2.96631,88.6597,728
1582295698,458.986,-6.13916,28.1285,178.572,-2.96631,88.6597,728
1582295698,458.986,-6.13916,28.1285,178.572,-2.96631,88.6597,728
1582295698,458.986,-6.13916,28.1285,178.572,-2.96631,88.6597,728
1582295698,458.986,-6.13916,28.1285,178.572,-2.96631,88.6597,728
1582295698,458.986,-6.13916,28.1285,178.572,-2.96631,88.6597,728
1582295698,458.986,-6.13916,28.1285,178.572,-2.96631,88.6597,728
1582295698,458.986,-6.13916,28.1285,178.572,-2.96631,88.6597,728
1582295698,458.986,-6.13916,28.1285,178.572,-2.96631,88.6597,728
1582295698,458.986,-6.13916,28.1285,178.572,-2.96631,88.6597,728
1582295698,458.986,-6.13916,28.1285,178.572,-2.96631,88.6597,728
1582295698,458.986,-6.13916,28.1285,178.572,-2.96631,88.6597,728
1582295698,458.986,-6.13916,28.1285,178.572,-2.96631,88.6597,728
1582295698,458.986,-6.13916,28.1285,178.572,-2.96631,88.6597,728
1582295698,458.986,-6.13916,28.1285,178.572,-2.96631,88.6597,728
1582295698,458.986,-6.13916,28.1285,178.572,-2.96631,88.6597,728
1582295698,458.986,-6.13916,28.1285,178.594,-2.96631,88.6597,728
1582295698,458.986,-6.13916,28.1285,178.594,-2.96631,88.6597,728
1582295698,458.986,-6.13916,28.1285,178.572,-2.96631,88.6597,728
1582295698,458.986,-6.13916,28.1285,178.572,-2.96631,88.6597,728
1582295698,458.986,-6.13916,28.1285,178.572,-2.96631,88.6597,728
1582295698,458.986,-6.13916,28.1285,178.572,-2.96631,88.6597,728
1582295698,458.986,-6.13916,28.1285,178.572,-2.96631,88.6597,728
1582295698,458.986,-6.13916,28.1285,178.572,-2.96631,88.6597,728
1582295698,458.986,-6.13916,28.1285,178.572,-2.96631,88.6377,728
1582295698,458.986,-6.13916,28.1285,178.572,-2.96631,88.6377,728
1582295698,458.986,-6.13916,28.1285,178.572,-2.96631,88.6377,728
1582295698,458.986,-6.13916,28.1285,178.572,-2.96631,88.6377,728
1582295698,458.986,-6.13916,28.1285,178.572,-2.96631,88.6377,728
1582295698,458.986,-6.13916,28.1285,178.572,-2.96631,88.6377,728
1582295698,458.986,-6.13916,28.1285,178.572,-2.96631,88.6377,728
1582295698,458.986,-6.13916,28.1285,178.572,-2.96631,88.6377,728
1582295698,458.986,-6.13916,28.1285,178.572,-2.96631,88.6377,728
1582295698,458.986,-6.13916,28.1285,178.572,-2.96631,88.6377,728
1582295698,458.986,-6.13916,28.1285,178.572,-2.96631,88.6377,728
1582295698,458.986,-6.13916,28.1285,178.572,-2.96631,88.6377,728
1582295698,458.986,-6.13916,28.1285,178.572,-2.96631,88.6377,728
1582295698,458.986,-6.13916,28.1285,178.572,-2.96631,88.6377,728
1582295698,458.986,-6.13916,28.1285,178.572,-2.96631,88.6377,728
1582295698,458.986,-6.13916,28.1285,178.572,-2.96631,88.6377,728
1582295698,458.986,-6.13916,28.1285,178.572,-2.96631,88.6377,728
1582295698,458.986,-6.13916,28.1285,178.572,-2.96631,88.6377,728
1582295698,458.986,-6.13916,28.1285,178.572,-2.98828,88.6377,728
1582295698,458.986,-6.13916,28.1285,178.572,-2.98828,88.6377,728
1582295698,458.986,-6.13916,28.0169,178.572,-2.98828,88.6377,728
1582295698,458.986,-6.13916,28.0169,178.572,-2.98828,88.6377,728
1582295698,458.986,-6.13916,28.0169,178.572,-2.98828,88.6377,728
1582295699,458.986,-6.13916,28.0169,178.572,-2.98828,88.6377,728
1582295699,458.986,-6.13916,28.0169,178.572,-2.98828,88.6377,728
1582295699,458.986,-6.13916,28.0169,178.572,-2.98828,88.6377,728
1582295699,458.986,-6.13916,28.0169,178.572,-2.98828,88.6377,728
1582295699,458.986,-6.13916,28.0169,178.572,-2.98828,88.6377,728
1582295699,458.986,-6.13916,28.0169,178.572,-2.98828,88.6377,728
1582295699,458.986,-6.13916,28.0169,178.572,-2.98828,88.6597,728
1582295699,458.986,-6.13916,28.0169,178.572,-2.98828,88.6597,728
1582295699,458.986,-6.13916,28.0169,178.572,-2.98828,88.6597,728
1582295699,458.986,-6.13916,28.0169,178.572,-2.98828,88.6597,728
1582295699,458.986,-6.13916,28.0169,178.572,-2.98828,88.6597,728
1582295699,458.986,-6.13916,28.1285,178.572,-2.98828,88.6597,728
1582295699,458.986,-6.13916,28.1285,178.572,-2.98828,88.6597,728
1582295699,458.986,-6.13916,28.1285,178.572,-2.98828,88.6597,728
1582295699,458.986,-6.13916,28.1285,178.572,-2.98828,88.6597,728
1582295699,458.986,-6.13916,28.1285,178.572,-2.96631,88.6597,728
1582295699,458.986,-6.13916,28.1285,178.572,-2.96631,88.6597,728
1582295699,458.986,-6.13916,28.1285,178.572,-2.96631,88.6597,728
1582295699,458.874,-6.13916,28.1285,178.572,-2.96631,88.6597,728
1582295699,458.874,-6.13916,28.1285,178.572,-2.96631,88.6597,728
1582295699,458.874,-6.13916,28.1285,178.572,-2.96631,88.6597,728
1582295699,458.874,-6.13916,28.1285,178.572,-2.96631,88.6597,728
1582295699,458.874,-6.13916,28.1285,178.572,-2.96631,88.6597,728
1582295699,458.874,-6.13916,28.1285,178.572,-2.96631,88.6597,728
1582295699,458.874,-6.13916,28.1285,178.572,-2.96631,88.6597,728
1582295699,458.874,-6.13916,28.1285,178.572,-2.96631,88.6597,728
1582295699,458.874,-6.13916,28.1285,178.572,-2.96631,88.6597,728
1582295699,458.874,-6.13916,28.1285,178.572,-2.96631,88.6597,728
1582295699,458.874,-6.13916,28.1285,178.572,-2.96631,88.6597,728
1582295699,458.874,-6.13916,28.1285,178.572,-2.96631,88.6597,728
1582295699,458.874,-6.13916,28.1285,178.572,-2.96631,88.6597,728
1582295699,458.874,-6.13916,28.1285,178.572,-2.96631,88.6597,728
1582295699,458.874,-6.13916,28.1285,178.572,-2.96631,88.6597,728
1582295699,458.874,-6.13916,28.1285,178.572,-2.96631,88.6597,728
1582295699,458.874,-6.13916,28.1285,178.572,-2.96631,88.6597,728
1582295699,458.874,-6.13916,28.1285,178.572,-2.96631,88.6597,728
1582295699,458.874,-6.13916,28.1285,178.572,-2.96631,88.6597,728
1582295699,458.986,-6.13916,28.1285,178.572,-2.96631,88.6597,728
1582295699,458.986,-6.13916,28.1285,178.572,-2.96631,88.6597,728
1582295699,458.986,-6.13916,28.1285,178.572,-2.96631,88.6597,728
1582295699,458.986,-6.13916,28.1285,178.572,-2.96631,88.6597,728
1582295699,458.986,-6.13916,28.1285,178.572,-2.96631,88.6597,728
1582295699,458.986,-6.13916,28.1285,178.572,-2.98828,88.6597,728
1582295699,458.986,-6.13916,28.0169,178.572,-2.98828,88.6597,728
1582295699,458.986,-6.13916,28.0169,178.572,-2.98828,88.6597,728
1582295699,458.986,-6.13916,28.0169,178.572,-2.98828,88.6597,728
1582295699,458.986,-6.13916,28.0169,178.572,-2.98828,88.6597,728
1582295699,458.986,-6.13916,28.0169,178.572,-2.98828,88.6597,728
1582295699,458.986,-6.13916,28.0169,178.572,-2.98828,88.6597,728
1582295699,458.986,-6.13916,28.0169,178.572,-2.98828,88.6597,728
1582295699,458.986,-6.13916,28.0169,178.572,-2.98828,88.6597,728
1582295699,458.986,-6.13916,28.1285,178.572,-2.96631,88.6597,728
1582295699,458.986,-6.13916,28.1285,178.572,-2.96631,88.6597,728
1582295699,458.986,-6.13916,28.1285,178.572,-2.96631,88.6597,728
1582295699,458.986,-6.13916,28.1285,178.572,-2.96631,88.6597,728
1582295699,458.986,-6.13916,28.1285,178.572,-2.96631,88.6597,728
1582295699,458.986,-6.13916,28.1285,178.572,-2.96631,88.6597,728
1582295699,458.986,-6.13916,28.1285,178.572,-2.96631,88.6597,728
1582295699,458.986,-6.13916,28.1285,178.572,-2.96631,88.6597,728
1582295699,458.986,-6.13916,28.1285,178.572,-2.96631,88.6597,728
1582295699,458.986,-6.13916,28.1285,178.572,-2.96631,88.6597,728
1582295699,458.986,-6.13916,28.1285,178.572,-2.96631,88.6597,728
1582295699,458.986,-6.13916,28.1285,178.572,-2.96631,88.6597,728
1582295699,458.986,-6.13916,28.1285,178.572,-2.96631,88.6377,728
1582295699,458.986,-6.25078,28.1285,178.572,-2.96631,88.6377,728
1582295699,458.986,-6.25078,28.1285,178.572,-2.96631,88.6377,728
1582295699,458.986,-6.25078,28.1285,178.572,-2.96631,88.6377,728
1582295699,458.986,-6.25078,28.1285,178.572,-2.96631,88.6377,728
1582295699,458.986,-6.25078,28.1285,178.572,-2.96631,88.6377,728
1582295699,458.986,-6.25078,28.1285,178.572,-2.96631,88.6377,728
1582295699,458.986,-6.25078,28.1285,178.572,-2.96631,88.6377,728
1582295699,458.986,-6.25078,28.1285,178.572,-2.96631,88.6597,728
1582295699,458.986,-6.25078,28.1285,178.572,-2.96631,88.6597,728
1582295699,458.986,-6.25078,28.1285,178.572,-2.96631,88.6597,728
1582295699,458.986,-6.25078,28.1285,178.572,-2.96631,88.6597,728
1582295699,458.986,-6.25078,28.1285,178.572,-2.96631,88.6597,728
1582295699,458.986,-6.25078,28.1285,178.572,-2.96631,88.6597,728
1582295699,458.986,-6.25078,28.1285,178.572,-2.96631,88.6597,728
1582295699,458.986,-6.25078,28.1285,178.572,-2.96631,88.6597,728
1582295699,458.986,-6.25078,28.1285,178.572,-2.96631,88.6597,724
1582295699,458.986,-6.25078,28.1285,178.572,-2.96631,88.6597,724
1582295699,458.986,-6.25078,28.1285,178.572,-2.96631,88.6597,724
1582295699,458.986,-6.25078,28.1285,178.572,-2.96631,88.6597,724
1582295699,458.986,-6.25078,28.1285,178.572,-2.96631,88.6597,724
1582295699,458.986,-6.25078,28.1285,178.572,-2.96631,88.6597,724
1582295699,458.986,-6.25078,28.1285,178.572,-2.96631,88.6597,724
1582295699,458.986,-6.25078,28.1285,178.572,-2.96631,88.6597,724
1582295699,458.986,-6.25078,28.1285,178.572,-2.96631,88.6597,724
1582295699,458.986,-6.25078,28.1285,178.572,-2.96631,88.6377,724
1582295699,458.986,-6.25078,28.1285,178.572,-2.96631,88.6377,724
1582295699,458.986,-6.25078,28.1285,178.572,-2.96631,88.6377,724
1582295699,458.986,-6.25078,28.1285,178.572,-2.96631,88.6377,724
1582295699,458.986,-6.25078,28.1285,178.572,-2.96631,88.6377,724
1582295699,458.986,-6.25078,28.1285,178.572,-2.96631,88.6377,724
1582295699,458.986,-6.25078,28.1285,178.572,-2.96631,88.6377,724
1582295699,458.986,-6.25078,28.1285,178.572,-2.96631,88.6377,724
1582295699,458.986,-6.25078,28.1285,178.572,-2.96631,88.6377,724
1582295699,458.986,-6.25078,28.1285,178.572,-2.96631,88.6377,724
1582295699,458.986,-6.25078,28.1285,178.572,-2.96631,88.6377,724
1582295699,458.986,-6.25078,28.1285,178.572,-2.96631,88.6377,724
1582295700,458.986,-6.25078,28.1285,178.572,-2.96631,88.6377,724
1582295700,458.986,-6.25078,28.1285,178.572,-2.96631,88.6377,724
1582295700,458.986,-6.25078,28.1285,178.572,-2.96631,88.6377,724
1582295700,458.986,-6.25078,28.1285,178.572,-2.96631,88.6377,724
1582295700,458.986,-6.25078,28.1285,178.572,-2.96631,88.6377,724
1582295700,458.986,-6.25078,28.1285,178.572,-2.96631,88.6377,724
1582295700,458.986,-6.25078,28.1285,178.572,-2.96631,88.6377,724
1582295700,458.986,-6.25078,28.1285,178.572,-2.96631,88.6377,724
1582295700,458.986,-6.25078,28.1285,178.572,-2.96631,88.6377,724
1582295700,458.986,-6.25078,28.1285,178.572,-2.96631,88.6377,724
1582295700,458.986,-6.25078,28.1285,178.572,-2.96631,88.6377,724
1582295700,458.986,-6.25078,28.1285,178.572,-2.96631,88.6377,724
1582295700,458.986,-6.25078,28.1285,178.572,-2.96631,88.6377,724
1582295700,458.986,-6.25078,28.1285,178.572,-2.96631,88.6377,724
1582295700,458.986,-6.25078,28.1285,178.572,-2.96631,88.6377,724
1582295700,458.986,-6.25078,28.1285,178.572,-2.96631,88.6377,724
1582295700,458.986,-6.25078,28.1285,178.572,-2.96631,88.6377,728
1582295700,458.986,-6.25078,28.1285,178.572,-2.96631,88.6377,728
1582295700,458.986,-6.25078,28.1285,178.572,-2.96631,88.6377,728
1582295700,458.986,-6.25078,28.1285,178.572,-2.96631,88.6377,728
1582295700,458.986,-6.13916,28.1285,178.572,-2.96631,88.6377,728
1582295700,458.986,-6.13916,28.1285,178.572,-2.96631,88.6377,728
1582295700,458.986,-6.13916,28.1285,178.572,-2.96631,88.6377,728
1582295700,458.986,-6.13916,28.1285,178.572,-2.96631,88.6377,728
1582295700,458.986,-6.13916,28.1285,178.572,-2.96631,88.6597,728
1582295700,458.986,-6.13916,28.1285,178.572,-2.96631,88.6597,728
1582295700,458.986,-6.13916,28.1285,178.572,-2.96631,88.6597,728
1582295700,458.986,-6.13916,28.1285,178.572,-2.98828,88.6597,728
1582295700,458.986,-6.13916,28.0169,178.572,-2.98828,88.6597,728
1582295700,458.986,-6.13916,28.0169,178.572,-2.98828,88.6597,728
1582295700,458.986,-6.13916,28.0169,178.572,-2.98828,88.6597,728
1582295700,458.986,-6.13916,28.0169,178.572,-2.98828,88.6597,728
1582295700,458.986,-6.13916,28.0169,178.572,-2.98828,88.6597,728
1582295700,458.986,-6.13916,28.0169,178.572,-2.98828,88.6597,728
1582295700,458.986,-6.13916,28.0169,178.572,-2.98828,88.6597,728
1582295700,458.986,-6.13916,28.0169,178.572,-2.98828,88.6597,728
1582295700,458.986,-6.13916,28.0169,178.572,-2.98828,88.6597,728
1582295700,458.986,-6.13916,28.0169,178.572,-2.98828,88.6597,728
1582295700,458.986,-6.13916,28.0169,178.572,-2.98828,88.6377,728
1582295700,458.986,-6.13916,28.0169,178.572,-2.98828,88.6377,728
1582295700,458.986,-6.13916,28.0169,178.572,-2.98828,88.6377,728
1582295700,458.986,-6.13916,28.0169,178.572,-2.98828,88.6377,728
1582295700,458.986,-6.13916,28.0169,178.572,-2.98828,88.6377,728
1582295700,458.986,-6.13916,28.0169,178.572,-2.98828,88.6377,728
1582295700,458.986,-6.13916,28.0169,178.572,-2.98828,88.6377,728
1582295700,458.986,-6.25078,28.0169,178.572,-2.98828,88.6377,728
1582295700,458.986,-6.25078,28.0169,178.572,-2.98828,88.6377,728
1582295700,458.986,-6.25078,28.1285,178.572,-2.98828,88.6377,728
1582295700,458.986,-6.25078,28.1285,178.572,-2.98828,88.6377,728
1582295700,458.986,-6.25078,28.1285,178.572,-2.98828,88.6377,728
1582295700,458.986,-6.25078,28.1285,178.572,-2.96631,88.6377,728
1582295700,458.986,-6.13916,28.1285,178.572,-2.96631,88.6377,728
1582295700,458.986,-6.13916,28.1285,178.572,-2.96631,88.6377,728
1582295700,458.986,-6.13916,28.1285,178.572,-2.96631,88.6377,728
1582295700,458.986,-6.13916,28.1285,178.572,-2.96631,88.6377,728
1582295700,458.986,-6.13916,28.1285,178.572,-2.96631,88.6597,728
1582295700,458.986,-6.13916,28.1285,178.572,-2.96631,88.6597,728
1582295700,458.986,-6.13916,28.1285,178.572,-2.96631,88.6597,728
1582295700,458.986,-6.13916,28.1285,178.572,-2.96631,88.6597,728
1582295700,458.986,-6.13916,28.1285,178.572,-2.96631,88.6597,728
1582295700,458.986,-6.13916,28.1285,178.572,-2.96631,88.6597,728
1582295700,458.986,-6.13916,28.1285,178.572,-2.96631,88.6597,728
1582295700,458.986,-6.13916,28.1285,178.572,-2.96631,88.6597,728
1582295700,458.986,-6.13916,28.1285,178.572,-2.96631,88.6597,728
1582295700,458.986,-6.13916,28.1285,178.572,-2.96631,88.6597,728
1582295700,458.986,-6.13916,28.1285,178.572,-2.96631,88.6597,728
1582295700,458.986,-6.13916,28.1285,178.572,-2.96631,88.6597,728
1582295700,458.986,-6.13916,28.1285,178.572,-2.96631,88.6597,728
1582295700,458.986,-6.13916,28.1285,178.572,-2.96631,88.6597,728
1582295700,458.986,-6.13916,28.1285,178.572,-2.96631,88.6597,728
1582295700,458.986,-6.13916,28.1285,178.572,-2.96631,88.6597,728
1582295700,458.986,-6.13916,28.1285,178.572,-2.96631,88.6377,728
1582295700,458.986,-6.13916,28.1285,178.572,-2.96631,88.6377,728
1582295700,458.986,-6.13916,28.1285,178.572,-2.96631,88.6377,728
1582295700,458.986,-6.13916,28.1285,178.572,-2.96631,88.6377,728
1582295700,458.986,-6.13916,28.1285,178.572,-2.96631,88.6597,728
1582295700,458.986,-6.13916,28.1285,178.572,-2.96631,88.6597,728
1582295700,458.986,-6.13916,28.1285,178.572,-2.96631,88.6597,728
1582295700,458.986,-6.13916,28.1285,178.572,-2.96631,88.6597,728
1582295700,458.986,-6.13916,28.1285,178.572,-2.96631,88.6597,728
1582295700,458.986,-6.13916,28.1285,178.572,-2.96631,88.6597,728
1582295700,458.986,-6.13916,28.1285,178.572,-2.96631,88.6377,728
1582295700,458.986,-6.13916,28.1285,178.572,-2.96631,88.6377,728
1582295700,458.986,-6.13916,28.1285,178.572,-2.96631,88.6377,728
1582295700,458.986,-6.13916,28.1285,178.572,-2.96631,88.6377,728
1582295700,458.986,-6.13916,28.1285,178.572,-2.96631,88.6377,728
1582295700,458.986,-6.13916,28.1285,178.572,-2.96631,88.6377,728
1582295700,458.986,-6.13916,28.1285,178.572,-2.96631,88.6377,728
1582295700,458.986,-6.13916,28.1285,178.572,-2.96631,88.6377,728
1582295700,458.986,-6.13916,28.1285,178.572,-2.96631,88.6377,728
1582295700,458.986,-6.13916,28.1285,178.572,-2.96631,88.6377,728
1582295700,458.986,-6.13916,28.1285,178.572,-2.96631,88.6377,728
1582295700,458.986,-6.25078,28.1285,178.572,-2.96631,88.6377,728
1582295700,458.986,-6.25078,28.1285,178.572,-2.96631,88.6597,728
1582295700,458.986,-6.25078,28.1285,178.572,-2.96631,88.6597,728
1582295700,458.986,-6.25078,28.1285,178.572,-2.96631,88.6597,728
1582295700,458.986,-6.25078,28.1285,178.572,-2.96631,88.6597,728
1582295700,458.986,-6.25078,28.1285,178.572,-2.96631,88.6597,728
1582295700,458.986,-6.13916,28.1285,178.572,-2.96631,88.6597,728
1582295700,458.986,-6.13916,28.1285,178.572,-2.96631,88.6597,728
1582295701,458.986,-6.13916,28.1285,178.572,-2.96631,88.6597,728
1582295701,458.986,-6.13916,28.1285,178.572,-2.96631,88.6597,728
1582295701,458.986,-6.13916,28.1285,178.572,-2.96631,88.6597,728
1582295701,458.986,-6.13916,28.1285,178.572,-2.96631,88.6597,728
1582295701,458.986,-6.13916,28.1285,178.572,-2.96631,88.6597,728
1582295701,458.986,-6.13916,28.1285,178.572,-2.96631,88.6597,728
1582295701,458.986,-6.13916,28.1285,178.572,-2.96631,88.6597,728
1582295701,458.986,-6.13916,28.1285,178.572,-2.96631,88.6597,728
1582295701,458.986,-6.13916,28.1285,178.572,-2.96631,88.6597,728
1582295701,458.986,-6.13916,28.1285,178.572,-2.96631,88.6597,728
1582295701,458.986,-6.13916,28.1285,178.572,-2.96631,88.6597,728
1582295701,458.986,-6.13916,28.1285,178.572,-2.96631,88.6377,728
1582295701,458.986,-6.13916,28.1285,178.572,-2.96631,88.6377,728
1582295701,458.986,-6.13916,28.1285,178.572,-2.96631,88.6377,728
1582295701,458.986,-6.13916,28.1285,178.572,-2.96631,88.6377,728
1582295701,458.986,-6.13916,28.1285,178.572,-2.96631,88.6377,728
1582295701,458.986,-6.13916,28.1285,178.572,-2.96631,88.6377,728
1582295701,458.986,-6.13916,28.1285,178.572,-2.96631,88.6377,728
1582295701,458.986,-6.13916,28.1285,178.572,-2.96631,88.6377,728
1582295701,458.986,-6.13916,28.1285,178.572,-2.96631,88.6377,728
1582295701,458.986,-6.13916,28.1285,178.572,-2.96631,88.6597,728
1582295701,458.986,-6.13916,28.1285,178.572,-2.96631,88.6597,728
1582295701,458.986,-6.13916,28.1285,178.572,-2.96631,88.6597,728
1582295701,458.986,-6.13916,28.1285,178.572,-2.96631,88.6597,728
1582295701,458.986,-6.13916,28.1285,178.594,-2.96631,88.6597,728
1582295701,458.986,-6.13916,28.1285,178.594,-2.96631,88.6597,728
1582295701,458.986,-6.13916,28.1285,178.594,-2.96631,88.6597,728
1582295701,458.986,-6.13916,28.1285,178.594,-2.96631,88.6597,728
1582295701,458.986,-6.13916,28.1285,178.594,-2.96631,88.6597,728
1582295701,458.986,-6.13916,28.1285,178.594,-2.96631,88.6597,728
1582295701,458.986,-6.13916,28.1285,178.594,-2.96631,88.6597,728
1582295701,458.986,-6.13916,28.1285,178.572,-2.96631,88.6597,728
1582295701,458.986,-6.13916,28.1285,178.572,-2.96631,88.6597,728
1582295701,458.986,-6.13916,28.1285,178.572,-2.96631,88.6597,728
1582295701,458.986,-6.13916,28.1285,178.572,-2.96631,88.6597,728
1582295701,458.986,-6.13916,28.1285,178.572,-2.96631,88.6597,728
1582295701,458.986,-6.13916,28.1285,178.572,-2.96631,88.6597,728
1582295701,458.986,-6.13916,28.1285,178.572,-2.96631,88.6597,728
1582295701,458.986,-6.13916,28.1285,178.572,-2.96631,88.6597,728
1582295701,458.986,-6.13916,28.1285,178.572,-2.96631,88.6597,728
1582295701,458.986,-6.13916,28.1285,178.572,-2.96631,88.6597,728
1582295701,458.986,-6.13916,28.1285,178.572,-2.96631,88.6597,728
1582295701,458.986,-6.13916,28.1285,178.572,-2.96631,88.6597,728
1582295701,458.986,-6.13916,28.1285,178.572,-2.96631,88.6597,728
1582295701,458.986,-6.13916,28.1285,178.572,-2.96631,88.6597,728
1582295701,458.986,-6.13916,28.1285,178.572,-2.96631,88.6597,728
1582295701,458.986,-6.13916,28.1285,178.572,-2.96631,88.6597,728
1582295701,458.986,-6.13916,28.1285,178.572,-2.96631,88.6597,728
1582295701,458.986,-6.13916,28.1285,178.572,-2.96631,88.6597,728
1582295701,458.986,-6.13916,28.1285,178.572,-2.96631,88.6597,728
1582295701,458.986,-6.13916,28.1285,178.572,-2.96631,88.6597,728
1582295701,458.986,-6.13916,28.1285,178.572,-2.96631,88.6597,728
1582295701,458.986,-6.13916,28.1285,178.572,-2.96631,88.6597,728
1582295701,458.986,-6.13916,28.1285,178.572,-2.96631,88.6377,728
1582295701,458.986,-6.13916,28.1285,178.572,-2.96631,88.6377,728
1582295701,458.986,-6.13916,28.1285,178.572,-2.96631,88.6377,728
1582295701,458.986,-6.13916,28.1285,178.572,-2.96631,88.6377,728
1582295701,458.986,-6.13916,28.1285,178.572,-2.96631,88.6377,728
1582295701,458.986,-6.13916,28.1285,178.572,-2.96631,88.6377,728
1582295701,458.986,-6.13916,28.1285,178.572,-2.96631,88.6377,728
1582295701,458.986,-6.13916,28.1285,178.572,-2.96631,88.6377,728
1582295701,458.986,-6.13916,28.1285,178.572,-2.96631,88.6377,728
1582295701,458.986,-6.13916,28.1285,178.572,-2.96631,88.6377,728
1582295701,458.986,-6.13916,28.1285,178.572,-2.96631,88.6377,728
1582295701,458.986,-6.13916,28.1285,178.572,-2.96631,88.6377,728
1582295701,458.986,-6.13916,28.1285,178.572,-2.96631,88.6377,728
1582295701,458.986,-6.13916,28.1285,178.572,-2.96631,88.6377,728
1582295701,458.986,-6.13916,28.1285,178.572,-2.98828,88.6377,728
1582295701,458.986,-6.13916,28.1285,178.572,-2.98828,88.6377,728
1582295701,458.986,-6.13916,28.1285,178.572,-2.98828,88.6377,728
1582295701,458.986,-6.13916,28.1285,178.572,-2.98828,88.6377,728
1582295701,458.986,-6.13916,28.1285,178.572,-2.98828,88.6377,728
1582295701,458.986,-6.13916,28.1285,178.572,-2.98828,88.6377,728
1582295701,458.986,-6.13916,28.1285,178.572,-2.98828,88.6377,728
1582295701,458.986,-6.13916,28.1285,178.572,-2.98828,88.6377,728
1582295701,458.986,-6.13916,28.1285,178.572,-2.98828,88.6377,728
1582295701,458.986,-6.13916,28.1285,178.572,-2.98828,88.6377,728
1582295701,458.986,-6.13916,28.1285,178.572,-2.98828,88.6377,728
1582295701,458.986,-6.13916,28.1285,178.572,-2.98828,88.6377,728
1582295701,458.986,-6.13916,28.1285,178.572,-2.96631,88.6377,728
1582295701,458.986,-6.13916,28.1285,178.572,-2.96631,88.6377,728
1582295701,458.986,-6.13916,28.1285,178.572,-2.96631,88.6377,728
1582295701,458.986,-6.13916,28.1285,178.572,-2.96631,88.6377,728
1582295701,458.986,-6.13916,28.1285,178.572,-2.96631,88.6597,728
1582295701,458.986,-6.13916,28.1285,178.572,-2.96631,88.6597,728
1582295701,458.986,-6.13916,28.1285,178.572,-2.96631,88.6597,728
1582295701,458.986,-6.13916,28.1285,178.572,-2.96631,88.6597,728
1582295701,458.986,-6.13916,28.1285,178.572,-2.96631,88.6597,728
1582295701,458.986,-6.13916,28.1285,178.572,-2.96631,88.6597,728
1582295701,458.986,-6.13916,28.1285,178.572,-2.96631,88.6597,728
1582295701,458.986,-6.13916,28.1285,178.572,-2.96631,88.6597,728
1582295701,458.986,-6.13916,28.1285,178.572,-2.96631,88.6597,728
1582295701,458.986,-6.13916,28.1285,178.572,-2.96631,88.6597,728
1582295701,458.986,-6.13916,28.1285,178.572,-2.96631,88.6597,728
1582295701,458.986,-6.13916,28.1285,178.572,-2.96631,88.6597,728
1582295701,458.986,-6.13916,28.1285,178.572,-2.96631,88.6597,728
1582295701,458.986,-6.13916,28.1285,178.572,-2.96631,88.6597,728
1582295701,458.986,-6.13916,28.1285,178.572,-2.96631,88.6597,728
1582295701,458.986,-6.13916,28.1285,178.572,-2.96631,88.6597,728
1582295701,458.986,-6.13916,28.1285,178.572,-2.96631,88.6597,728
1582295702,458.986,-6.13916,28.1285,178.572,-2.96631,88.6597,728
1582295702,458.986,-6.13916,28.1285,178.572,-2.96631,88.6597,728
1582295702,458.986,-6.13916,28.1285,178.572,-2.98828,88.6597,728
1582295702,458.986,-6.13916,28.1285,178.572,-2.98828,88.6597,728
1582295702,458.986,-6.13916,28.0169,178.572,-2.98828,88.6597,728
1582295702,458.986,-6.13916,28.0169,178.572,-2.98828,88.6597,728
1582295702,458.986,-6.13916,28.0169,178.572,-2.98828,88.6597,728
1582295702,458.986,-6.13916,28.0169,178.572,-2.98828,88.6597,728
1582295702,458.986,-6.13916,28.0169,178.572,-2.98828,88.6597,728
1582295702,458.986,-6.13916,28.0169,178.572,-2.98828,88.6377,728
1582295702,458.986,-6.13916,28.0169,178.572,-2.98828,88.6377,728
1582295702,458.986,-6.13916,28.0169,178.572,-2.98828,88.6377,728
1582295702,458.986,-6.13916,28.0169,178.572,-2.98828,88.6377,728
1582295702,458.986,-6.13916,28.0169,178.572,-2.98828,88.6597,728
1582295702,458.986,-6.13916,28.0169,178.572,-2.98828,88.6597,728
1582295702,458.986,-6.13916,28.0169,178.572,-2.98828,88.6597,728
1582295702,458.986,-6.13916,28.0169,178.572,-2.98828,88.6597,728
1582295702,458.986,-6.13916,28.0169,178.572,-2.98828,88.6597,728
1582295702,458.986,-6.13916,28.0169,178.572,-2.98828,88.6597,728
1582295702,458.986,-6.13916,28.0169,178.572,-2.98828,88.6597,728
1582295702,458.986,-6.13916,28.0169,178.572,-2.98828,88.6597,728
1582295702,458.986,-6.13916,28.0169,178.572,-2.98828,88.6597,728
1582295702,458.986,-6.13916,28.0169,178.572,-2.98828,88.6597,728
1582295702,458.874,-6.13916,28.1285,178.572,-2.98828,88.6597,728
1582295702,458.874,-6.13916,28.1285,178.572,-2.98828,88.6597,728
1582295702,458.874,-6.13916,28.1285,178.572,-2.98828,88.6597,728
1582295702,458.874,-6.13916,28.1285,178.572,-2.98828,88.6377,728
1582295702,458.874,-6.13916,28.1285,178.572,-2.98828,88.6377,728
1582295702,458.874,-6.13916,28.1285,178.572,-2.98828,88.6377,728
1582295702,458.874,-6.13916,28.1285,178.572,-2.98828,88.6377,728
1582295702,458.874,-6.13916,28.1285,178.572,-2.98828,88.6377,728
1582295702,458.874,-6.13916,28.1285,178.572,-2.98828,88.6377,728
1582295702,458.874,-6.13916,28.1285,178.572,-2.98828,88.6377,728
1582295702,458.874,-6.13916,28.1285,178.572,-2.98828,88.6377,728
1582295702,458.986,-6.13916,28.1285,178.572,-2.98828,88.6377,728
1582295702,458.986,-6.13916,28.1285,178.572,-2.98828,88.6377,728
1582295702,458.986,-6.25078,28.1285,178.572,-2.98828,88.6377,728
1582295702,458.986,-6.25078,28.1285,178.572,-2.98828,88.6377,728
1582295702,458.986,-6.25078,28.1285,178.572,-2.98828,88.6377,728
1582295702,458.986,-6.25078,28.1285,178.572,-2.96631,88.6377,728
1582295702,458.986,-6.25078,28.1285,178.572,-2.96631,88.6377,728
1582295702,458.986,-6.25078,28.1285,178.572,-2.96631,88.6377,728
1582295702,458.986,-6.25078,28.1285,178.572,-2.96631,88.6377,728
1582295702,458.986,-6.25078,28.1285,178.572,-2.96631,88.6377,728
1582295702,458.986,-6.25078,28.1285,178.572,-2.96631,88.6377,728
1582295702,458.986,-6.25078,28.1285,178.572,-2.96631,88.6377,728
1582295702,458.986,-6.25078,28.1285,178.572,-2.96631,88.6377,728
1582295702,458.986,-6.25078,28.1285,178.572,-2.96631,88.6377,728
1582295710,458.986,-6.13916,28.0169,178.594,-2.98828,88.6377,728
1582295710,458.986,-6.13916,28.0169,178.594,-2.98828,88.6377,728
1582295710,458.986,-6.13916,28.0169,178.594,-2.98828,88.6377,728
1582295710,458.986,-6.13916,28.0169,178.594,-2.98828,88.6377,728
1582295710,458.986,-6.13916,28.1285,178.594,-2.98828,88.6377,728
1582295710,458.986,-6.13916,28.1285,178.594,-2.96631,88.6377,728
1582295710,458.986,-6.13916,28.1285,178.594,-2.96631,88.6377,728
1582295710,458.986,-6.13916,28.1285,178.594,-2.96631,88.6377,728
1582295710,458.986,-6.13916,28.1285,178.594,-2.96631,88.6377,728
1582295710,458.986,-6.13916,28.1285,178.594,-2.96631,88.6377,728
1582295710,458.986,-6.13916,28.1285,178.594,-2.96631,88.6377,728
1582295710,458.986,-6.13916,28.1285,178.572,-2.96631,88.6377,728
1582295710,458.986,-6.13916,28.1285,178.572,-2.96631,88.6377,728
1582295710,458.986,-6.13916,28.1285,178.572,-2.96631,88.6377,728
1582295710,458.986,-6.13916,28.1285,178.572,-2.96631,88.6377,728
1582295710,458.986,-6.13916,28.1285,178.572,-2.96631,88.6377,728
1582295710,458.986,-6.13916,28.1285,178.572,-2.96631,88.6377,728
1582295710,458.986,-6.13916,28.1285,178.572,-2.96631,88.6377,728
1582295710,458.986,-6.13916,28.1285,178.572,-2.96631,88.6377,728
1582295710,458.986,-6.13916,28.1285,178.572,-2.96631,88.6377,728
1582295710,458.986,-6.13916,28.1285,178.572,-2.96631,88.6377,728
1582295710,458.986,-6.13916,28.1285,178.572,-2.96631,88.6377,728
1582295710,458.986,-6.13916,28.1285,178.594,-2.96631,88.6377,728
1582295710,458.986,-6.13916,28.1285,178.594,-2.96631,88.6377,728
1582295710,458.986,-6.13916,28.1285,178.594,-2.96631,88.6377,728
1582295710,458.986,-6.13916,28.1285,178.594,-2.96631,88.6377,728
1582295710,458.986,-6.13916,28.1285,178.594,-2.96631,88.6377,728
1582295710,458.986,-6.13916,28.1285,178.594,-2.96631,88.6377,724
1582295710,458.986,-6.13916,28.1285,178.594,-2.96631,88.6377,724
1582295710,458.986,-6.13916,28.1285,178.594,-2.96631,88.6377,724
1582295710,458.986,-6.13916,28.1285,178.594,-2.96631,88.6377,724
1582295710,458.986,-6.13916,28.1285,178.594,-2.96631,88.6377,724
1582295710,458.986,-6.13916,28.1285,178.594,-2.96631,88.6377,724
1582295710,458.986,-6.13916,28.1285,178.594,-2.96631,88.6377,724
1582295710,458.986,-6.13916,28.1285,178.594,-2.96631,88.6377,724
1582295710,458.986,-6.13916,28.1285,178.594,-2.96631,88.6377,724
1582295710,458.986,-6.13916,28.1285,178.594,-2.96631,88.6377,724
1582295710,458.986,-6.13916,28.1285,178.594,-2.96631,88.6377,724
1582295710,458.986,-6.13916,28.1285,178.594,-2.96631,88.6377,724
1582295710,458.986,-6.13916,28.1285,178.594,-2.96631,88.6377,724
1582295710,458.986,-6.13916,28.1285,178.594,-2.96631,88.6377,724
1582295710,458.986,-6.13916,28.1285,178.594,-2.96631,88.6377,724
1582295710,458.986,-6.13916,28.1285,178.594,-2.96631,88.6377,724
1582295710,458.986,-6.13916,28.1285,178.572,-2.96631,88.6377,724
1582295710,458.986,-6.13916,28.1285,178.572,-2.96631,88.6377,724
1582295710,458.986,-6.13916,28.1285,178.572,-2.96631,88.6377,724
1582295710,458.986,-6.13916,28.1285,178.594,-2.96631,88.6377,724
1582295710,458.986,-6.13916,28.1285,178.594,-2.96631,88.6377,724
1582295710,458.986,-6.13916,28.1285,178.594,-2.96631,88.6377,724
1582295710,458.986,-6.13916,28.1285,178.594,-2.96631,88.6377,724
1582295710,458.986,-6.13916,28.1285,178.594,-2.96631,88.6377,724
1582295710,458.986,-6.13916,28.1285,178.594,-2.96631,88.6377,724
1582295710,458.986,-6.13916,28.1285,178.572,-2.96631,88.6377,724
1582295710,458.986,-6.13916,28.1285,178.572,-2.96631,88.6377,724
1582295710,458.986,-6.13916,28.1285,178.572,-2.96631,88.6377,724
1582295710,458.986,-6.13916,28.1285,178.572,-2.96631,88.6377,724
1582295710,458.986,-6.13916,28.1285,178.572,-2.96631,88.6377,724
1582295710,458.986,-6.13916,28.1285,178.572,-2.96631,88.6377,724
1582295710,458.986,-6.13916,28.1285,178.572,-2.96631,88.6377,724
1582295710,458.986,-6.13916,28.1285,178.572,-2.98828,88.6377,724
1582295711,458.986,-6.13916,28.1285,178.572,-2.98828,88.6377,724
1582295711,458.986,-6.13916,28.1285,178.572,-2.98828,88.6377,724
1582295711,458.986,-6.13916,28.1285,178.572,-2.98828,88.6597,724
1582295711,458.986,-6.13916,28.0169,178.572,-2.98828,88.6597,724
1582295711,458.986,-6.13916,28.0169,178.572,-2.98828,88.6597,724
1582295711,458.986,-6.13916,28.0169,178.572,-2.98828,88.6597,724
1582295711,458.986,-6.13916,28.0169,178.572,-2.98828,88.6597,724
1582295711,458.986,-6.13916,28.0169,178.572,-2.98828,88.6597,724
1582295711,458.986,-6.13916,28.0169,178.572,-2.98828,88.6597,724
1582295711,458.986,-6.13916,28.0169,178.572,-2.98828,88.6597,724
1582295711,458.986,-6.13916,28.0169,178.572,-2.98828,88.6597,724
1582295711,458.986,-6.13916,28.0169,178.572,-2.98828,88.6597,724
1582295711,458.986,-6.13916,28.0169,178.572,-2.98828,88.6597,724
1582295711,458.986,-6.13916,28.0169,178.572,-2.98828,88.6597,724
1582295711,458.986,-6.13916,28.0169,178.572,-2.98828,88.6597,724
1582295711,458.986,-6.13916,28.0169,178.572,-2.98828,88.6597,724
1582295711,458.986,-6.13916,28.0169,178.572,-2.98828,88.6597,724
1582295711,458.986,-6.13916,28.0169,178.572,-2.98828,88.6597,724
1582295711,458.986,-6.13916,28.1285,178.572,-2.98828,88.6597,724
1582295711,458.986,-6.25078,28.1285,178.572,-2.96631,88.6597,724
1582295711,458.986,-6.25078,28.1285,178.572,-2.96631,88.6597,724
1582295711,458.986,-6.25078,28.1285,178.572,-2.96631,88.6597,724
1582295711,458.986,-6.25078,28.1285,178.572,-2.96631,88.6597,724
1582295711,458.986,-6.25078,28.1285,178.572,-2.96631,88.6597,724
1582295711,458.986,-6.25078,28.1285,178.572,-2.96631,88.6597,724
1582295711,458.986,-6.25078,28.1285,178.572,-2.96631,88.6597,724
1582295711,458.986,-6.25078,28.1285,178.572,-2.96631,88.6597,724
1582295711,458.986,-6.25078,28.1285,178.572,-2.96631,88.6597,724
1582295711,458.986,-6.25078,28.1285,178.572,-2.96631,88.6597,724
1582295711,458.986,-6.13916,28.1285,178.572,-2.96631,88.6597,724
1582295711,458.986,-6.13916,28.1285,178.572,-2.96631,88.6597,724
1582295711,458.986,-6.13916,28.1285,178.572,-2.96631,88.6597,724
1582295711,458.986,-6.13916,28.1285,178.572,-2.96631,88.6597,724
1582295711,458.986,-6.13916,28.1285,178.572,-2.96631,88.6597,724
1582295711,458.986,-6.13916,28.1285,178.572,-2.96631,88.6597,724
1582295711,458.986,-6.13916,28.1285,178.572,-2.98828,88.6597,724
1582295711,458.986,-6.13916,28.1285,178.572,-2.98828,88.6597,724
1582295711,458.986,-6.13916,28.1285,178.572,-2.98828,88.6597,724
1582295711,458.986,-6.13916,28.1285,178.572,-2.98828,88.6597,724
1582295711,458.986,-6.13916,28.1285,178.572,-2.98828,88.6597,724
1582295711,458.986,-6.13916,28.1285,178.572,-2.98828,88.6597,724
1582295711,458.986,-6.13916,28.1285,178.572,-2.98828,88.6597,724
1582295711,458.986,-6.13916,28.1285,178.572,-2.98828,88.6597,724
1582295711,458.986,-6.13916,28.1285,178.572,-2.98828,88.6597,724
1582295711,458.986,-6.13916,28.1285,178.572,-2.98828,88.6597,724
1582295711,458.986,-6.13916,28.1285,178.572,-2.98828,88.6597,724
1582295711,458.986,-6.13916,28.1285,178.572,-2.96631,88.6597,724
1582295711,458.986,-6.13916,28.1285,178.572,-2.96631,88.6597,724
1582295711,458.986,-6.13916,28.1285,178.572,-2.96631,88.6597,724
1582295711,458.986,-6.13916,28.1285,178.572,-2.96631,88.6597,724
1582295711,458.986,-6.13916,28.1285,178.572,-2.96631,88.6597,724
1582295711,458.986,-6.13916,28.1285,178.572,-2.96631,88.6597,724
1582295711,458.986,-6.13916,28.1285,178.572,-2.96631,88.6597,724
1582295711,458.986,-6.13916,28.1285,178.572,-2.98828,88.6597,724
1582295711,458.986,-6.13916,28.1285,178.572,-2.98828,88.6597,724
1582295711,458.986,-6.13916,28.1285,178.572,-2.96631,88.6597,724
1582295711,458.986,-6.13916,28.1285,178.572,-2.96631,88.6377,724
1582295711,458.986,-6.13916,28.1285,178.572,-2.96631,88.6377,724
1582295711,458.986,-6.13916,28.1285,178.572,-2.96631,88.6377,724
1582295711,458.986,-6.13916,28.1285,178.572,-2.96631,88.6377,724
1582295711,458.986,-6.13916,28.1285,178.572,-2.96631,88.6377,724
1582295711,458.986,-6.13916,28.1285,178.572,-2.96631,88.6377,724
1582295711,458.986,-6.13916,28.1285,178.572,-2.96631,88.6377,724
1582295711,458.986,-6.13916,28.1285,178.572,-2.96631,88.6377,724
1582295711,458.986,-6.13916,28.1285,178.572,-2.96631,88.6377,724
1582295711,458.986,-6.13916,28.1285,178.572,-2.96631,88.6377,724
1582295711,458.986,-6.13916,28.1285,178.572,-2.96631,88.6377,724
1582295711,458.986,-6.13916,28.1285,178.572,-2.96631,88.6377,724
1582295711,458.986,-6.13916,28.1285,178.572,-2.96631,88.6377,724
1582295711,458.986,-6.13916,28.1285,178.572,-2.96631,88.6597,724
1582295711,458.986,-6.13916,28.1285,178.572,-2.96631,88.6597,724
1582295711,458.986,-6.13916,28.1285,178.572,-2.96631,88.6597,724
1582295711,458.986,-6.13916,28.1285,178.572,-2.96631,88.6597,724
1582295711,458.986,-6.25078,28.1285,178.572,-2.96631,88.6597,724
1582295711,458.986,-6.25078,28.1285,178.572,-2.96631,88.6597,724
1582295711,458.986,-6.25078,28.1285,178.572,-2.96631,88.6597,724
1582295711,458.986,-6.25078,28.1285,178.572,-2.96631,88.6597,724
1582295711,458.986,-6.25078,28.1285,178.572,-2.96631,88.6597,724
1582295711,458.986,-6.25078,28.1285,178.572,-2.96631,88.6597,724
1582295711,458.986,-6.25078,28.1285,178.572,-2.96631,88.6597,724
1582295711,458.986,-6.25078,28.1285,178.572,-2.96631,88.6597,724
1582295711,458.986,-6.25078,28.1285,178.572,-2.96631,88.6597,724
1582295711,458.986,-6.25078,28.1285,178.572,-2.96631,88.6597,724
1582295711,458.986,-6.25078,28.1285,178.572,-2.96631,88.6597,724
1582295711,458.986,-6.25078,28.1285,178.572,-2.96631,88.6597,724
1582295711,458.986,-6.25078,28.1285,178.572,-2.96631,88.6597,724
1582295711,458.986,-6.25078,28.1285,178.572,-2.96631,88.6597,724
1582295711,458.986,-6.25078,28.1285,178.572,-2.96631,88.6597,724
1582295711,458.986,-6.13916,28.1285,178.572,-2.96631,88.6597,724
1582295711,458.986,-6.13916,28.1285,178.572,-2.96631,88.6597,724
1582295711,458.986,-6.13916,28.1285,178.572,-2.96631,88.6597,724
1582295711,458.986,-6.13916,28.1285,178.572,-2.96631,88.6597,724
1582295711,458.986,-6.13916,28.1285,178.572,-2.96631,88.6597,724
1582295711,458.986,-6.13916,28.1285,178.572,-2.96631,88.6597,724
1582295711,458.986,-6.13916,28.1285,178.572,-2.96631,88.6597,724
1582295711,458.986,-6.13916,28.1285,178.572,-2.96631,88.6597,724
1582295711,458.986,-6.13916,28.1285,178.572,-2.96631,88.6597,724
1582295711,458.986,-6.13916,28.1285,178.572,-2.96631,88.6597,724
1582295711,458.986,-6.13916,28.1285,178.572,-2.96631,88.6597,724
1582295711,458.986,-6.13916,28.1285,178.572,-2.96631,88.6597,724
1582295712,458.986,-6.13916,28.1285,178.572,-2.96631,88.6597,724
1582295712,458.986,-6.13916,28.1285,178.572,-2.96631,88.6597,724
1582295712,458.986,-6.13916,28.1285,178.572,-2.96631,88.6597,724
1582295712,458.986,-6.13916,28.1285,178.572,-2.96631,88.6597,724
1582295712,458.986,-6.13916,28.1285,178.572,-2.96631,88.6597,724
1582295712,458.986,-6.13916,28.1285,178.572,-2.96631,88.6597,724
1582295712,458.986,-6.13916,28.1285,178.572,-2.96631,88.6597,724
1582295712,458.986,-6.13916,28.1285,178.572,-2.96631,88.6597,724
1582295712,458.986,-6.13916,28.1285,178.572,-2.96631,88.6597,724
1582295712,458.986,-6.13916,28.1285,178.572,-2.96631,88.6597,724
1582295712,458.986,-6.13916,28.1285,178.572,-2.96631,88.6597,724
1582295712,458.986,-6.13916,28.1285,178.572,-2.96631,88.6597,724
1582295712,458.986,-6.13916,28.1285,178.572,-2.96631,88.6597,724
1582295712,458.986,-6.13916,28.1285,178.572,-2.96631,88.6597,724
1582295712,458.986,-6.13916,28.1285,178.572,-2.96631,88.6597,724
1582295712,458.986,-6.13916,28.1285,178.572,-2.96631,88.6597,724
1582295712,458.986,-6.13916,28.1285,178.572,-2.96631,88.6597,724
1582295712,458.986,-6.13916,28.1285,178.572,-2.96631,88.6597,724
1582295712,458.986,-6.13916,28.1285,178.572,-2.96631,88.6597,724
1582295712,458.986,-6.13916,28.1285,178.572,-2.96631,88.6597,724
1582295712,458.986,-6.13916,28.1285,178.572,-2.98828,88.6597,724
1582295712,458.986,-6.13916,28.1285,178.572,-2.98828,88.6597,724
1582295712,458.986,-6.13916,28.1285,178.572,-2.98828,88.6597,724
1582295712,458.986,-6.13916,28.1285,178.572,-2.98828,88.6597,724
1582295712,458.986,-6.13916,28.1285,178.572,-2.98828,88.6597,724
1582295712,458.986,-6.13916,28.1285,178.572,-2.98828,88.6597,724
1582295712,458.986,-6.13916,28.1285,178.572,-2.98828,88.6597,724
1582295712,458.986,-6.13916,28.1285,178.572,-2.98828,88.6597,724
1582295712,458.986,-6.13916,28.1285,178.572,-2.98828,88.6597,724
1582295712,458.986,-6.13916,28.1285,178.572,-2.98828,88.6597,724
1582295712,458.986,-6.13916,28.1285,178.572,-2.96631,88.6597,724
1582295712,458.986,-6.13916,28.1285,178.572,-2.96631,88.6597,724
1582295712,458.986,-6.13916,28.1285,178.572,-2.98828,88.6597,724
1582295712,458.986,-6.13916,28.1285,178.572,-2.98828,88.6597,724
1582295712,458.986,-6.13916,28.1285,178.572,-2.98828,88.6597,728
1582295712,458.986,-6.13916,28.1285,178.572,-2.98828,88.6597,728
1582295712,458.986,-6.13916,28.1285,178.594,-2.98828,88.6597,728
1582295712,458.986,-6.13916,28.1285,178.594,-2.98828,88.6597,728
1582295712,458.986,-6.13916,28.1285,178.594,-2.98828,88.6597,728
1582295712,458.986,-6.13916,28.1285,178.594,-2.98828,88.6597,728
1582295712,458.986,-6.13916,28.1285,178.594,-2.98828,88.6597,728
1582295712,458.986,-6.13916,28.1285,178.594,-2.98828,88.6597,728
1582295712,458.986,-6.13916,28.1285,178.594,-2.96631,88.6597,728
1582295712,458.986,-6.13916,28.1285,178.572,-2.96631,88.6597,728
1582295712,458.986,-6.13916,28.1285,178.572,-2.98828,88.6597,728
1582295712,458.986,-6.13916,28.1285,178.572,-2.98828,88.6597,728
1582295712,458.986,-6.13916,28.1285,178.572,-2.98828,88.6597,728
1582295712,458.986,-6.13916,28.1285,178.572,-2.98828,88.6597,728
1582295712,458.986,-6.13916,28.0169,178.572,-2.98828,88.6597,728
1582295712,458.986,-6.13916,28.0169,178.572,-2.98828,88.6597,728
1582295712,458.986,-6.13916,28.0169,178.572,-2.98828,88.6597,728
1582295712,458.986,-6.13916,28.0169,178.572,-2.98828,88.6597,728
1582295712,458.986,-6.13916,28.0169,178.572,-2.98828,88.6597,728
1582295712,458.986,-6.13916,28.0169,178.572,-2.98828,88.6597,728
1582295712,458.986,-6.13916,28.0169,178.572,-2.98828,88.6597,728
1582295712,458.986,-6.13916,28.0169,178.572,-2.98828,88.6597,728
1582295712,458.986,-6.13916,28.0169,178.572,-2.98828,88.6377,728
1582295712,458.986,-6.13916,28.1285,178.572,-2.98828,88.6377,728
1582295712,458.986,-6.13916,28.1285,178.572,-2.98828,88.6377,728
1582295712,458.986,-6.13916,28.1285,178.572,-2.98828,88.6377,724
1582295712,458.986,-6.13916,28.1285,178.572,-2.96631,88.6377,724
1582295712,458.986,-6.13916,28.1285,178.572,-2.96631,88.6377,724
1582295712,458.986,-6.13916,28.1285,178.572,-2.96631,88.6377,724
1582295712,458.986,-6.13916,28.1285,178.572,-2.96631,88.6377,724
1582295712,458.986,-6.13916,28.1285,178.572,-2.96631,88.6377,724
1582295712,458.986,-6.13916,28.1285,178.572,-2.96631,88.6377,724
1582295712,458.986,-6.13916,28.1285,178.572,-2.96631,88.6377,724
1582295712,458.986,-6.13916,28.1285,178.572,-2.96631,88.6377,724
1582295712,458.986,-6.13916,28.1285,178.572,-2.96631,88.6377,724
1582295712,458.986,-6.13916,28.1285,178.572,-2.96631,88.6377,724
1582295712,458.986,-6.13916,28.1285,178.572,-2.96631,88.6377,724
1582295712,458.986,-6.25078,28.1285,178.572,-2.96631,88.6377,724
1582295712,458.986,-6.25078,28.1285,178.572,-2.96631,88.6377,724
1582295712,458.986,-6.25078,28.1285,178.572,-2.96631,88.6377,724
1582295712,458.986,-6.25078,28.1285,178.572,-2.96631,88.6377,724
1582295712,458.986,-6.25078,28.1285,178.572,-2.96631,88.6377,724
1582295712,458.986,-6.25078,28.1285,178.572,-2.96631,88.6377,724
1582295712,458.986,-6.25078,28.1285,178.572,-2.96631,88.6377,724
1582295712,458.986,-6.25078,28.1285,178.572,-2.96631,88.6377,724
1582295712,458.986,-6.25078,28.1285,178.572,-2.96631,88.6377,724
1582295712,458.986,-6.25078,28.1285,178.572,-2.96631,88.6377,724
1582295712,458.986,-6.25078,28.1285,178.572,-2.96631,88.6377,724
1582295712,458.986,-6.25078,28.1285,178.572,-2.96631,88.6377,724
1582295712,458.986,-6.25078,28.1285,178.572,-2.96631,88.6377,724
1582295712,458.986,-6.25078,28.1285,178.572,-2.96631,88.6377,724
1582295712,458.986,-6.25078,28.1285,178.572,-2.96631,88.6377,724
1582295712,458.986,-6.25078,28.1285,178.572,-2.96631,88.6377,724
1582295712,458.986,-6.25078,28.1285,178.572,-2.96631,88.6377,724
1582295712,458.986,-6.25078,28.1285,178.572,-2.96631,88.6377,724
1582295712,458.986,-6.25078,28.1285,178.572,-2.96631,88.6377,724
1582295712,458.986,-6.25078,28.1285,178.572,-2.96631,88.6377,724
1582295712,458.986,-6.25078,28.1285,178.572,-2.96631,88.6377,724
1582295712,458.986,-6.25078,28.1285,178.572,-2.96631,88.6377,724
1582295712,458.986,-6.25078,28.1285,178.572,-2.96631,88.6377,724
1582295712,458.986,-6.13916,28.1285,178.572,-2.96631,88.6377,724
1582295712,458.986,-6.13916,28.1285,178.572,-2.96631,88.6377,724
1582295712,458.986,-6.13916,28.1285,178.572,-2.96631,88.6377,724
1582295712,458.986,-6.13916,28.1285,178.572,-2.96631,88.6377,724
1582295712,458.986,-6.13916,28.1285,178.572,-2.96631,88.6377,724
1582295712,458.986,-6.13916,28.1285,178.572,-2.96631,88.6377,724
1582295713,458.986,-6.13916,28.1285,178.572,-2.96631,88.6377,724
1582295713,458.986,-6.13916,28.1285,178.572,-2.96631,88.6377,724
1582295713,458.986,-6.13916,28.1285,178.572,-2.96631,88.6377,724
1582295713,458.986,-6.13916,28.1285,178.572,-2.96631,88.6377,724
1582295713,458.986,-6.13916,28.1285,178.572,-2.96631,88.6377,724
1582295713,458.986,-6.13916,28.1285,178.572,-2.96631,88.6377,724
1582295713,458.986,-6.13916,28.1285,178.572,-2.96631,88.6377,724
1582295713,458.986,-6.13916,28.1285,178.572,-2.96631,88.6377,724
1582295713,458.986,-6.13916,28.1285,178.572,-2.96631,88.6377,724
1582295713,458.986,-6.13916,28.1285,178.572,-2.96631,88.6377,724
1582295713,458.986,-6.13916,28.1285,178.572,-2.96631,88.6377,724
1582295713,458.986,-6.13916,28.1285,178.572,-2.96631,88.6377,724
1582295713,458.986,-6.13916,28.1285,178.572,-2.96631,88.6377,724
1582295713,458.986,-6.13916,28.1285,178.572,-2.96631,88.6377,724
1582295713,458.986,-6.13916,28.1285,178.572,-2.96631,88.6377,724
1582295713,458.986,-6.13916,28.1285,178.572,-2.96631,88.6377,724
1582295713,458.986,-6.13916,28.1285,178.572,-2.96631,88.6377,724
1582295713,458.986,-6.13916,28.1285,178.572,-2.96631,88.6377,724
1582295713,458.986,-6.13916,28.1285,178.572,-2.96631,88.6377,724
1582295713,458.986,-6.13916,28.1285,178.572,-2.96631,88.6377,724
1582295713,458.986,-6.13916,28.1285,178.572,-2.96631,88.6597,724
1582295713,458.986,-6.13916,28.1285,178.572,-2.96631,88.6597,724
1582295713,458.986,-6.13916,28.1285,178.572,-2.96631,88.6597,724
1582295713,458.986,-6.13916,28.1285,178.572,-2.96631,88.6597,724
1582295713,458.986,-6.13916,28.1285,178.572,-2.96631,88.6597,724
1582295713,458.986,-6.13916,28.1285,178.572,-2.96631,88.6597,724
1582295713,458.986,-6.13916,28.1285,178.572,-2.96631,88.6597,724
1582295713,458.986,-6.13916,28.1285,178.572,-2.96631,88.6597,724
1582295713,458.986,-6.13916,28.1285,178.572,-2.96631,88.6597,724
1582295713,458.986,-6.13916,28.1285,178.572,-2.96631,88.6597,724
1582295713,458.986,-6.13916,28.1285,178.572,-2.96631,88.6597,724
1582295713,458.986,-6.13916,28.1285,178.572,-2.98828,88.6597,724
1582295713,458.986,-6.13916,28.0169,178.572,-2.98828,88.6597,724
1582295713,458.986,-6.13916,28.0169,178.572,-2.98828,88.6597,724
1582295713,458.986,-6.13916,28.0169,178.572,-2.98828,88.6597,724
1582295713,458.986,-6.13916,28.0169,178.572,-2.98828,88.6597,724
1582295713,458.986,-6.13916,28.0169,178.572,-2.98828,88.6597,724
1582295713,458.986,-6.13916,28.0169,178.572,-2.98828,88.6597,724
1582295713,458.986,-6.13916,28.0169,178.572,-2.98828,88.6597,724
1582295713,458.986,-6.13916,28.0169,178.572,-2.98828,88.6597,724
1582295713,458.986,-6.13916,28.0169,178.572,-2.98828,88.6597,724
1582295713,458.986,-6.13916,28.1285,178.572,-2.98828,88.6597,724
1582295713,458.986,-6.13916,28.1285,178.572,-2.98828,88.6597,724
1582295713,458.986,-6.13916,28.1285,178.572,-2.98828,88.6597,724
1582295713,458.986,-6.13916,28.1285,178.572,-2.98828,88.6597,724
1582295713,458.986,-6.13916,28.1285,178.572,-2.98828,88.6597,724
1582295713,458.986,-6.13916,28.0169,178.572,-2.98828,88.6597,724
1582295713,458.986,-6.13916,28.0169,178.572,-2.98828,88.6597,724
1582295713,458.986,-6.13916,28.0169,178.572,-2.98828,88.6597,724
1582295713,458.986,-6.13916,28.0169,178.572,-2.98828,88.6597,724
1582295713,458.986,-6.13916,28.0169,178.572,-2.98828,88.6597,724
1582295713,458.986,-6.13916,28.0169,178.572,-2.98828,88.6597,724
1582295713,458.986,-6.13916,28.0169,178.572,-2.98828,88.6597,724
1582295713,458.986,-6.13916,28.0169,178.572,-2.98828,88.6597,724
1582295713,458.986,-6.13916,28.0169,178.572,-2.98828,88.6597,724
1582295713,458.986,-6.13916,28.0169,178.572,-2.98828,88.6597,724
1582295713,458.986,-6.13916,28.0169,178.572,-2.98828,88.6597,724
1582295713,458.986,-6.13916,28.0169,178.572,-2.98828,88.6597,724
1582295713,458.986,-6.13916,28.0169,178.572,-2.98828,88.6597,724
1582295713,458.986,-6.13916,28.0169,178.572,-2.98828,88.6597,724
1582295713,458.986,-6.13916,28.0169,178.572,-2.98828,88.6597,724
1582295713,458.986,-6.13916,28.0169,178.572,-2.98828,88.6597,724
1582295713,458.986,-6.13916,28.0169,178.572,-2.98828,88.6597,724
1582295713,458.986,-6.13916,28.0169,178.572,-2.98828,88.6597,724
1582295713,458.986,-6.13916,28.0169,178.572,-2.98828,88.6597,724
1582295713,458.986,-6.13916,28.0169,178.572,-2.98828,88.6597,724
1582295713,458.986,-6.13916,28.0169,178.572,-2.98828,88.6597,724
1582295713,458.986,-6.13916,28.0169,178.572,-2.98828,88.6597,724
1582295713,458.986,-6.13916,28.0169,178.572,-2.98828,88.6597,724
1582295713,458.986,-6.13916,28.1285,178.572,-2.98828,88.6597,724
1582295713,458.986,-6.13916,28.1285,178.572,-2.96631,88.6597,724
1582295713,458.986,-6.13916,28.1285,178.572,-2.96631,88.6597,724
1582295713,458.986,-6.13916,28.1285,178.572,-2.96631,88.6597,724
1582295713,458.986,-6.13916,28.1285,178.572,-2.96631,88.6597,724
1582295713,458.986,-6.13916,28.1285,178.572,-2.96631,88.6597,724
1582295713,458.986,-6.13916,28.1285,178.572,-2.96631,88.6597,724
1582295713,458.986,-6.13916,28.1285,178.572,-2.96631,88.6377,724
1582295713,458.986,-6.13916,28.1285,178.572,-2.96631,88.6377,724
1582295713,458.986,-6.13916,28.1285,178.572,-2.96631,88.6377,724
1582295713,458.986,-6.13916,28.1285,178.572,-2.96631,88.6377,724
1582295713,458.986,-6.13916,28.1285,178.572,-2.96631,88.6377,724
1582295713,458.986,-6.13916,28.1285,178.572,-2.96631,88.6377,724
1582295713,458.986,-6.13916,28.1285,178.572,-2.96631,88.6377,724
1582295713,458.986,-6.13916,28.1285,178.572,-2.96631,88.6377,724
1582295713,458.986,-6.13916,28.1285,178.572,-2.96631,88.6377,724
1582295713,458.986,-6.13916,28.1285,178.572,-2.96631,88.6377,724
1582295713,458.986,-6.13916,28.1285,178.572,-2.96631,88.6377,724
1582295713,458.986,-6.13916,28.1285,178.572,-2.96631,88.6377,724
1582295713,458.986,-6.13916,28.1285,178.572,-2.96631,88.6377,724
1582295713,458.986,-6.13916,28.1285,178.572,-2.96631,88.6377,724
1582295713,458.986,-6.13916,28.1285,178.572,-2.96631,88.6377,724
1582295713,458.986,-6.13916,28.1285,178.572,-2.96631,88.6377,724
1582295713,458.986,-6.13916,28.1285,178.572,-2.96631,88.6377,724
1582295713,458.986,-6.13916,28.1285,178.572,-2.96631,88.6377,724
1582295713,458.986,-6.13916,28.1285,178.572,-2.96631,88.6377,724
1582295713,458.986,-6.13916,28.1285,178.572,-2.96631,88.6377,724
1582295713,458.986,-6.13916,28.1285,178.572,-2.96631,88.6377,724
1582295713,458.986,-6.13916,28.1285,178.572,-2.96631,88.6377,724
1582295713,458.986,-6.13916,28.1285,178.572,-2.96631,88.6377,724
1582295713,458.986,-6.13916,28.1285,178.572,-2.96631,88.6377,724
1582295714,458.986,-6.13916,28.1285,178.572,-2.96631,88.6377,724
1582295714,458.986,-6.13916,28.1285,178.572,-2.96631,88.6377,724
1582295714,458.986,-6.13916,28.1285,178.572,-2.96631,88.6377,724
1582295714,458.986,-6.13916,28.1285,178.572,-2.96631,88.6377,724
1582295714,458.986,-6.13916,28.1285,178.572,-2.96631,88.6377,724
1582295714,458.986,-6.13916,28.1285,178.572,-2.96631,88.6377,724
1582295714,458.986,-6.13916,28.1285,178.572,-2.96631,88.6377,724
1582295714,458.986,-6.13916,28.1285,178.572,-2.96631,88.6377,724
1582295714,458.986,-6.13916,28.1285,178.572,-2.96631,88.6377,724
1582295714,458.986,-6.13916,28.1285,178.572,-2.96631,88.6377,724
1582295714,458.986,-6.13916,28.1285,178.572,-2.96631,88.6377,724
1582295714,458.986,-6.13916,28.1285,178.572,-2.96631,88.6377,724
1582295714,458.986,-6.13916,28.1285,178.572,-2.96631,88.6377,724
1582295714,458.986,-6.13916,28.1285,178.572,-2.96631,88.6377,724
1582295714,458.986,-6.13916,28.1285,178.572,-2.96631,88.6377,724
1582295714,458.986,-6.13916,28.1285,178.572,-2.96631,88.6377,724
1582295714,458.986,-6.13916,28.1285,178.572,-2.96631,88.6377,724
1582295714,458.986,-6.13916,28.1285,178.572,-2.96631,88.6377,724
1582295714,458.986,-6.13916,28.1285,178.572,-2.96631,88.6377,724
1582295714,458.986,-6.13916,28.1285,178.572,-2.98828,88.6377,724
1582295714,458.986,-6.13916,28.1285,178.572,-2.98828,88.6377,724
1582295714,458.986,-6.13916,28.1285,178.572,-2.98828,88.6377,724
1582295714,458.986,-6.13916,28.1285,178.572,-2.96631,88.6377,724
1582295714,458.986,-6.13916,28.1285,178.594,-2.96631,88.6377,724
1582295714,458.986,-6.13916,28.1285,178.594,-2.96631,88.6377,724
1582295714,458.986,-6.13916,28.1285,178.594,-2.96631,88.6377,724
1582295714,458.986,-6.13916,28.1285,178.594,-2.96631,88.6597,724
1582295714,458.986,-6.13916,28.1285,178.572,-2.96631,88.6597,724
1582295714,458.986,-6.13916,28.1285,178.572,-2.96631,88.6597,724
1582295714,458.986,-6.13916,28.1285,178.594,-2.96631,88.6597,724
1582295714,458.986,-6.13916,28.1285,178.594,-2.96631,88.6597,724
1582295714,458.986,-6.13916,28.1285,178.594,-2.96631,88.6597,724
1582295714,458.986,-6.13916,28.1285,178.594,-2.96631,88.6597,724
1582295714,458.986,-6.13916,28.1285,178.594,-2.96631,88.6597,724
1582295714,458.986,-6.13916,28.1285,178.594,-2.96631,88.6597,724
1582295714,458.986,-6.13916,28.1285,178.594,-2.96631,88.6597,724
1582295714,458.986,-6.13916,28.1285,178.594,-2.96631,88.6377,724
1582295714,458.986,-6.13916,28.1285,178.594,-2.96631,88.6377,724
1582295714,458.986,-6.13916,28.1285,178.594,-2.96631,88.6377,724
1582295714,458.986,-6.13916,28.1285,178.594,-2.96631,88.6377,724
1582295714,458.986,-6.13916,28.1285,178.594,-2.96631,88.6377,724
1582295714,458.986,-6.13916,28.1285,178.594,-2.96631,88.6377,724
1582295714,458.986,-6.13916,28.1285,178.594,-2.96631,88.6377,724
1582295714,458.986,-6.13916,28.1285,178.594,-2.96631,88.6377,724
1582295714,458.986,-6.13916,28.1285,178.594,-2.96631,88.6377,724
1582295714,458.986,-6.13916,28.1285,178.594,-2.96631,88.6377,724
1582295714,458.986,-6.13916,28.1285,178.594,-2.96631,88.6377,724
1582295714,458.986,-6.13916,28.1285,178.594,-2.96631,88.6377,724
1582295714,458.986,-6.13916,28.1285,178.594,-2.96631,88.6377,724
1582295714,458.986,-6.13916,28.1285,178.594,-2.96631,88.6377,724
1582295714,458.986,-6.13916,28.1285,178.594,-2.96631,88.6377,724
1582295714,458.986,-6.13916,28.1285,178.594,-2.96631,88.6377,724
1582295714,458.986,-6.13916,28.1285,178.594,-2.96631,88.6377,724
1582295714,458.986,-6.13916,28.1285,178.594,-2.96631,88.6377,724
1582295714,458.986,-6.13916,28.1285,178.594,-2.96631,88.6377,724
1582295714,458.986,-6.13916,28.1285,178.594,-2.96631,88.6377,724
1582295714,458.986,-6.13916,28.1285,178.594,-2.96631,88.6377,724
1582295714,458.986,-6.13916,28.1285,178.594,-2.96631,88.6377,724
1582295714,458.986,-6.13916,28.1285,178.572,-2.96631,88.6377,724
1582295714,458.986,-6.13916,28.1285,178.572,-2.96631,88.6377,724
1582295714,458.986,-6.13916,28.1285,178.572,-2.96631,88.6377,724
1582295714,458.986,-6.13916,28.1285,178.572,-2.96631,88.6377,724
1582295714,458.986,-6.13916,28.1285,178.572,-2.96631,88.6597,724
1582295714,458.986,-6.13916,28.1285,178.572,-2.96631,88.6597,724
1582295714,458.986,-6.13916,28.1285,178.572,-2.96631,88.6597,724
1582295714,458.986,-6.13916,28.1285,178.572,-2.96631,88.6597,724
1582295714,458.986,-6.13916,28.1285,178.572,-2.96631,88.6597,724
1582295714,458.986,-6.13916,28.1285,178.572,-2.96631,88.6597,724
1582295714,458.986,-6.13916,28.1285,178.572,-2.96631,88.6597,724
1582295714,458.986,-6.13916,28.1285,178.572,-2.96631,88.6597,724
1582295714,458.986,-6.13916,28.1285,178.572,-2.96631,88.6597,724
1582295714,458.986,-6.13916,28.1285,178.572,-2.98828,88.6597,724
1582295714,458.986,-6.13916,28.1285,178.572,-2.96631,88.6597,724
1582295714,458.986,-6.13916,28.1285,178.572,-2.96631,88.6377,724
1582295714,458.986,-6.13916,28.1285,178.572,-2.96631,88.6377,724
1582295714,458.986,-6.13916,28.1285,178.572,-2.96631,88.6377,724
1582295714,458.986,-6.13916,28.1285,178.572,-2.96631,88.6377,724
1582295714,458.986,-6.13916,28.1285,178.572,-2.96631,88.6377,724
1582295714,458.986,-6.13916,28.1285,178.572,-2.98828,88.6377,724
1582295714,458.986,-6.13916,28.1285,178.572,-2.98828,88.6597,724
1582295714,458.986,-6.13916,28.1285,178.572,-2.98828,88.6597,724
1582295714,458.986,-6.13916,28.0169,178.572,-2.98828,88.6597,724
1582295714,458.986,-6.13916,28.0169,178.572,-2.98828,88.6597,724
1582295714,458.986,-6.13916,28.0169,178.572,-2.98828,88.6597,724
1582295714,458.986,-6.13916,28.0169,178.572,-2.98828,88.6597,724
1582295714,458.986,-6.13916,28.0169,178.572,-2.98828,88.6597,724
1582295714,458.986,-6.13916,28.0169,178.572,-2.98828,88.6597,724
1582295714,458.986,-6.13916,28.0169,178.572,-2.98828,88.6377,724
1582295714,458.986,-6.13916,28.0169,178.572,-2.98828,88.6377,724
1582295714,458.986,-6.13916,28.1285,178.572,-2.98828,88.6377,724
1582295714,458.986,-6.13916,28.1285,178.572,-2.98828,88.6377,724
1582295714,458.986,-6.13916,28.1285,178.572,-2.98828,88.6377,724
1582295714,458.986,-6.13916,28.1285,178.572,-2.98828,88.6377,724
1582295714,458.986,-6.13916,28.1285,178.572,-2.98828,88.6377,724
1582295714,458.986,-6.13916,28.1285,178.572,-2.98828,88.6377,724
1582295714,458.986,-6.13916,28.1285,178.572,-2.98828,88.6377,724
1582295714,458.986,-6.13916,28.1285,178.572,-2.96631,88.6597,724
1582295714,458.986,-6.13916,28.1285,178.572,-2.96631,88.6597,724
1582295714,458.986,-6.13916,28.1285,178.572,-2.96631,88.6597,724
1582295714,458.986,-6.13916,28.1285,178.572,-2.96631,88.6597,724
1582295714,458.986,-6.13916,28.1285,178.572,-2.96631,88.6597,724
1582295715,458.986,-6.13916,28.1285,178.572,-2.96631,88.6597,724
1582295715,458.986,-6.13916,28.1285,178.572,-2.96631,88.6597,724
1582295715,458.986,-6.13916,28.1285,178.572,-2.96631,88.6597,724
1582295715,458.986,-6.13916,28.1285,178.572,-2.96631,88.6597,724
1582295715,458.986,-6.13916,28.1285,178.572,-2.96631,88.6597,724
1582295715,458.986,-6.13916,28.1285,178.572,-2.96631,88.6597,724
1582295715,458.986,-6.13916,28.1285,178.572,-2.96631,88.6597,724
1582295715,458.986,-6.13916,28.1285,178.572,-2.96631,88.6597,724
1582295715,458.986,-6.13916,28.1285,178.572,-2.96631,88.6597,724
1582295715,458.986,-6.13916,28.1285,178.572,-2.96631,88.6597,724
1582295715,458.986,-6.13916,28.1285,178.572,-2.96631,88.6597,724
1582295715,458.986,-6.13916,28.1285,178.572,-2.96631,88.6597,724
1582295715,458.986,-6.13916,28.1285,178.572,-2.96631,88.6597,724
1582295715,458.986,-6.13916,28.1285,178.572,-2.96631,88.6597,724
1582295715,458.986,-6.13916,28.1285,178.572,-2.96631,88.6597,724
1582295715,458.986,-6.13916,28.1285,178.572,-2.96631,88.6597,724
1582295715,458.986,-6.13916,28.1285,178.572,-2.96631,88.6597,724
1582295715,458.986,-6.13916,28.1285,178.572,-2.96631,88.6597,724
1582295715,458.986,-6.13916,28.1285,178.572,-2.96631,88.6597,724
1582295715,458.986,-6.13916,28.1285,178.572,-2.96631,88.6597,724
1582295715,458.986,-6.13916,28.1285,178.572,-2.96631,88.6597,728
1582295715,458.986,-6.13916,28.1285,178.572,-2.96631,88.6597,728
1582295715,458.986,-6.13916,28.1285,178.572,-2.96631,88.6597,728
1582295715,458.986,-6.13916,28.1285,178.572,-2.96631,88.6597,728
1582295715,458.986,-6.13916,28.1285,178.572,-2.96631,88.6597,728
1582295715,458.986,-6.13916,28.1285,178.572,-2.96631,88.6597,728
1582295715,458.986,-6.13916,28.1285,178.572,-2.96631,88.6597,728
1582295715,458.986,-6.13916,28.1285,178.572,-2.96631,88.6597,724
1582295715,458.986,-6.13916,28.1285,178.572,-2.96631,88.6597,724
1582295715,458.986,-6.13916,28.1285,178.572,-2.96631,88.6597,724
1582295715,458.986,-6.13916,28.1285,178.572,-2.96631,88.6597,724
1582295715,458.986,-6.13916,28.1285,178.572,-2.96631,88.6377,724
1582295715,458.986,-6.13916,28.1285,178.572,-2.96631,88.6377,724
1582295715,458.986,-6.13916,28.1285,178.572,-2.96631,88.6377,724
1582295715,458.986,-6.13916,28.1285,178.572,-2.96631,88.6377,724
1582295715,458.986,-6.13916,28.1285,178.572,-2.96631,88.6377,724
1582295715,458.986,-6.13916,28.1285,178.572,-2.96631,88.6377,724
1582295715,458.986,-6.13916,28.1285,178.572,-2.96631,88.6377,724
1582295715,458.986,-6.13916,28.1285,178.572,-2.96631,88.6377,724
1582295721,458.986,-6.13916,28.0169,178.572,-2.98828,88.6597,724
1582295721,458.986,-6.13916,28.0169,178.572,-2.98828,88.6597,724
1582295721,458.986,-6.13916,28.0169,178.572,-2.98828,88.6597,724
1582295721,458.986,-6.13916,28.0169,178.572,-2.98828,88.6597,724
1582295721,458.986,-6.13916,28.0169,178.572,-2.98828,88.6597,724
1582295721,458.986,-6.13916,28.0169,178.572,-2.98828,88.6597,724
1582295721,458.986,-6.13916,28.0169,178.572,-2.98828,88.6597,724
1582295721,458.986,-6.13916,28.0169,178.572,-2.98828,88.6597,728
1582295721,458.986,-6.13916,28.0169,178.572,-2.98828,88.6597,728
1582295721,458.986,-6.13916,28.0169,178.572,-2.98828,88.6597,728
1582295721,458.986,-6.13916,28.0169,178.572,-2.98828,88.6597,728
1582295721,458.986,-6.13916,28.0169,178.572,-2.98828,88.6597,728
1582295721,458.986,-6.13916,28.0169,178.572,-2.98828,88.6597,728
1582295721,458.986,-6.13916,28.0169,178.572,-2.98828,88.6597,728
1582295721,458.986,-6.13916,28.0169,178.572,-2.98828,88.6597,728
1582295721,458.986,-6.13916,28.0169,178.572,-2.98828,88.6597,728
1582295721,458.986,-6.13916,28.0169,178.572,-2.98828,88.6597,728
1582295721,458.986,-6.13916,28.0169,178.572,-2.98828,88.6597,728
1582295721,458.986,-6.13916,28.0169,178.572,-2.98828,88.6597,728
1582295721,458.986,-6.13916,28.0169,178.572,-2.98828,88.6597,728
1582295721,458.986,-6.13916,28.0169,178.572,-2.98828,88.6597,728
1582295721,458.986,-6.13916,28.0169,178.572,-2.98828,88.6597,728
1582295721,458.986,-6.13916,28.0169,178.572,-2.98828,88.6597,728
1582295721,458.986,-6.13916,28.0169,178.572,-2.98828,88.6597,728
1582295721,458.986,-6.25078,28.0169,178.572,-2.98828,88.6597,724
1582295721,458.986,-6.25078,28.0169,178.572,-2.98828,88.6597,724
1582295721,458.986,-6.25078,28.0169,178.572,-2.98828,88.6597,724
1582295721,458.986,-6.25078,28.0169,178.572,-2.98828,88.6597,724
1582295721,458.986,-6.25078,28.0169,178.572,-2.98828,88.6597,724
1582295721,458.986,-6.13916,28.0169,178.572,-2.98828,88.6597,724
1582295721,458.986,-6.13916,28.0169,178.572,-2.98828,88.6597,724
1582295721,458.986,-6.13916,28.0169,178.572,-2.98828,88.6597,724
1582295721,458.986,-6.13916,28.0169,178.572,-2.98828,88.6597,724
1582295721,458.986,-6.13916,28.0169,178.572,-2.98828,88.6597,724
1582295721,458.986,-6.13916,28.0169,178.572,-2.98828,88.6597,724
1582295721,458.986,-6.13916,28.0169,178.572,-2.98828,88.6597,724
1582295721,458.986,-6.13916,28.0169,178.572,-2.98828,88.6597,724
1582295721,458.986,-6.13916,28.0169,178.572,-2.98828,88.6597,724
1582295721,458.986,-6.13916,28.0169,178.572,-2.98828,88.6597,724
1582295721,458.986,-6.13916,28.0169,178.572,-2.98828,88.6597,724
1582295721,458.986,-6.25078,28.0169,178.572,-2.98828,88.6597,724
1582295721,458.986,-6.25078,28.0169,178.572,-2.98828,88.6597,724
1582295721,458.986,-6.25078,28.0169,178.572,-2.98828,88.6597,724
1582295721,458.986,-6.25078,28.0169,178.572,-2.98828,88.6597,724
1582295721,458.986,-6.25078,28.0169,178.572,-2.98828,88.6597,724
1582295721,458.986,-6.25078,28.0169,178.572,-2.98828,88.6597,724
1582295721,458.986,-6.25078,28.0169,178.572,-2.98828,88.6597,724
1582295721,458.986,-6.25078,28.0169,178.572,-2.98828,88.6597,724
1582295721,458.986,-6.25078,28.0169,178.572,-2.98828,88.6597,724
1582295721,458.986,-6.25078,28.0169,178.572,-2.98828,88.6597,724
1582295721,458.986,-6.13916,28.0169,178.572,-2.98828,88.6597,724
1582295721,458.986,-6.13916,28.0169,178.572,-2.98828,88.6597,724
1582295721,458.986,-6.13916,28.0169,178.572,-2.98828,88.6597,724
1582295721,458.986,-6.13916,28.0169,178.572,-2.98828,88.6597,724
1582295721,458.986,-6.13916,28.0169,178.572,-2.98828,88.6597,724
1582295721,458.986,-6.13916,28.0169,178.572,-2.98828,88.6597,724
1582295721,458.986,-6.13916,28.0169,178.572,-2.98828,88.6597,724
1582295721,458.986,-6.13916,28.0169,178.572,-2.98828,88.6597,724
1582295721,458.986,-6.13916,28.0169,178.572,-2.98828,88.6597,724
1582295721,458.986,-6.13916,28.0169,178.572,-2.98828,88.6597,724
1582295721,458.986,-6.13916,28.0169,178.572,-2.98828,88.6597,724
1582295721,458.986,-6.13916,28.0169,178.572,-2.98828,88.6597,724
1582295721,458.986,-6.13916,28.0169,178.572,-2.98828,88.6597,724
1582295721,458.986,-6.13916,28.0169,178.572,-2.98828,88.6597,724
1582295721,458.986,-6.13916,28.0169,178.572,-2.98828,88.6597,724
1582295721,458.986,-6.13916,28.0169,178.572,-2.98828,88.6597,724
1582295721,458.986,-6.13916,28.0169,178.572,-2.98828,88.6597,724
1582295721,458.986,-6.13916,28.0169,178.594,-2.98828,88.6597,724
1582295721,458.986,-6.13916,28.0169,178.594,-2.98828,88.6597,724
1582295721,458.986,-6.13916,28.0169,178.594,-2.98828,88.6597,724
1582295721,458.986,-6.13916,28.0169,178.594,-2.98828,88.6597,724
1582295721,458.986,-6.13916,28.0169,178.594,-2.98828,88.6597,724
1582295721,458.986,-6.13916,28.0169,178.594,-2.96631,88.6597,724
1582295721,458.986,-6.13916,28.0169,178.594,-2.96631,88.6597,724
1582295721,458.986,-6.13916,28.0169,178.572,-2.96631,88.6597,724
1582295721,458.986,-6.13916,28.0169,178.572,-2.96631,88.6597,724
1582295721,458.986,-6.13916,28.1285,178.572,-2.96631,88.6597,724
1582295721,458.986,-6.13916,28.1285,178.572,-2.96631,88.6597,724
1582295721,458.986,-6.13916,28.1285,178.572,-2.96631,88.6597,724
1582295721,458.986,-6.13916,28.1285,178.572,-2.96631,88.6597,724
1582295721,458.986,-6.13916,28.1285,178.572,-2.96631,88.6597,724
1582295722,458.986,-6.13916,28.1285,178.572,-2.96631,88.6597,724
1582295722,458.986,-6.13916,28.1285,178.572,-2.96631,88.6597,724
1582295722,458.986,-6.13916,28.1285,178.572,-2.96631,88.6597,724
1582295722,458.986,-6.13916,28.1285,178.572,-2.96631,88.6597,724
1582295722,458.986,-6.13916,28.1285,178.572,-2.96631,88.6597,724
1582295722,458.986,-6.13916,28.1285,178.572,-2.96631,88.6597,724
1582295722,458.986,-6.13916,28.1285,178.572,-2.96631,88.6597,724
1582295722,458.986,-6.13916,28.1285,178.572,-2.96631,88.6597,724
1582295722,458.986,-6.13916,28.1285,178.572,-2.96631,88.6597,724
1582295722,458.986,-6.13916,28.1285,178.572,-2.96631,88.6597,724
1582295722,458.986,-6.13916,28.1285,178.572,-2.96631,88.6597,724
1582295722,458.986,-6.13916,28.1285,178.572,-2.96631,88.6597,724
1582295722,458.986,-6.13916,28.1285,178.572,-2.96631,88.6597,724
1582295722,458.986,-6.13916,28.1285,178.572,-2.96631,88.6597,724
1582295722,458.986,-6.13916,28.1285,178.572,-2.96631,88.6597,724
1582295722,458.986,-6.13916,28.1285,178.572,-2.96631,88.6597,728
1582295722,458.986,-6.13916,28.1285,178.572,-2.96631,88.6597,728
1582295722,458.986,-6.13916,28.1285,178.572,-2.96631,88.6597,728
1582295722,458.986,-6.13916,28.1285,178.572,-2.96631,88.6597,728
1582295722,458.986,-6.13916,28.0169,178.572,-2.96631,88.6597,728
1582295722,458.986,-6.13916,28.0169,178.572,-2.96631,88.6597,728
1582295722,458.986,-6.13916,28.0169,178.572,-2.96631,88.6597,728
1582295722,458.986,-6.13916,28.0169,178.572,-2.96631,88.6597,728
1582295722,458.986,-6.13916,28.0169,178.572,-2.96631,88.6377,728
1582295722,458.986,-6.13916,28.0169,178.572,-2.96631,88.6377,728
1582295722,458.986,-6.13916,28.0169,178.572,-2.96631,88.6377,728
1582295722,458.986,-6.13916,28.0169,178.572,-2.98828,88.6377,728
1582295722,458.986,-6.13916,28.0169,178.572,-2.98828,88.6377,728
1582295722,458.986,-6.25078,28.0169,178.572,-2.98828,88.6377,728
1582295722,458.986,-6.25078,28.0169,178.572,-2.98828,88.6377,728
1582295722,458.986,-6.25078,28.0169,178.572,-2.98828,88.6377,728
1582295722,458.986,-6.25078,28.0169,178.572,-2.98828,88.6377,728
1582295722,458.986,-6.25078,28.0169,178.572,-2.98828,88.6377,728
1582295722,458.986,-6.25078,28.0169,178.572,-2.98828,88.6377,728
1582295722,458.986,-6.25078,28.0169,178.572,-2.98828,88.6377,728
1582295722,458.986,-6.25078,28.0169,178.572,-2.98828,88.6377,728
1582295722,458.986,-6.25078,28.0169,178.572,-2.98828,88.6377,728
1582295722,458.986,-6.25078,28.0169,178.572,-2.96631,88.6377,724
1582295722,458.986,-6.25078,28.0169,178.572,-2.96631,88.6377,724
1582295722,458.986,-6.25078,28.0169,178.572,-2.96631,88.6377,724
1582295722,458.986,-6.25078,28.1285,178.572,-2.96631,88.6377,724
1582295722,458.986,-6.25078,28.1285,178.572,-2.96631,88.6377,724
1582295722,458.986,-6.25078,28.1285,178.572,-2.96631,88.6377,724
1582295722,458.986,-6.25078,28.1285,178.572,-2.96631,88.6377,724
1582295722,458.986,-6.25078,28.1285,178.572,-2.96631,88.6377,724
1582295722,458.986,-6.25078,28.1285,178.572,-2.96631,88.6377,724
1582295722,458.986,-6.25078,28.1285,178.572,-2.96631,88.6377,724
1582295722,458.986,-6.25078,28.1285,178.572,-2.96631,88.6377,724
1582295722,458.986,-6.25078,28.1285,178.572,-2.96631,88.6377,724
1582295722,458.986,-6.25078,28.1285,178.572,-2.96631,88.6377,724
1582295722,458.986,-6.25078,28.1285,178.572,-2.96631,88.6597,724
1582295722,458.986,-6.13916,28.1285,178.572,-2.96631,88.6597,724
1582295722,458.986,-6.13916,28.1285,178.572,-2.96631,88.6597,728
1582295722,458.986,-6.13916,28.1285,178.572,-2.96631,88.6597,728
1582295722,458.986,-6.13916,28.1285,178.572,-2.96631,88.6597,728
1582295722,458.986,-6.13916,28.1285,178.572,-2.96631,88.6597,728
1582295722,458.986,-6.13916,28.1285,178.572,-2.96631,88.6597,728
1582295722,458.986,-6.13916,28.1285,178.572,-2.96631,88.6597,728
1582295722,458.986,-6.13916,28.1285,178.572,-2.96631,88.6597,728
1582295722,458.986,-6.13916,28.1285,178.572,-2.96631,88.6597,728
1582295722,458.986,-6.13916,28.1285,178.572,-2.96631,88.6597,728
1582295722,458.986,-6.13916,28.1285,178.572,-2.96631,88.6377,728
1582295722,458.986,-6.13916,28.1285,178.572,-2.96631,88.6377,728
1582295722,458.986,-6.13916,28.1285,178.572,-2.96631,88.6377,728
1582295722,458.986,-6.13916,28.1285,178.572,-2.98828,88.6377,728
1582295722,458.986,-6.13916,28.1285,178.572,-2.98828,88.6377,728
1582295722,458.986,-6.13916,28.1285,178.572,-2.98828,88.6377,728
1582295722,458.986,-6.13916,28.1285,178.572,-2.98828,88.6377,728
1582295722,458.986,-6.13916,28.1285,178.572,-2.98828,88.6377,728
1582295722,458.986,-6.13916,28.1285,178.572,-2.98828,88.6377,728
1582295722,458.986,-6.13916,28.1285,178.572,-2.98828,88.6377,728
1582295722,458.986,-6.13916,28.1285,178.572,-2.96631,88.6377,728
1582295722,458.986,-6.13916,28.1285,178.572,-2.96631,88.6377,728
1582295722,458.986,-6.13916,28.1285,178.572,-2.96631,88.6377,728
1582295722,458.986,-6.13916,28.1285,178.572,-2.96631,88.6377,728
1582295722,458.986,-6.13916,28.1285,178.572,-2.96631,88.6377,728
1582295722,458.986,-6.13916,28.1285,178.572,-2.96631,88.6377,728
1582295722,458.986,-6.13916,28.1285,178.572,-2.96631,88.6377,728
1582295722,458.986,-6.13916,28.1285,178.572,-2.96631,88.6377,728
1582295722,458.986,-6.13916,28.1285,178.572,-2.96631,88.6377,728
1582295722,458.986,-6.13916,28.1285,178.572,-2.96631,88.6377,728
1582295722,458.986,-6.13916,28.1285,178.572,-2.96631,88.6377,728
1582295722,458.986,-6.13916,28.1285,178.572,-2.96631,88.6377,728
1582295722,458.986,-6.13916,28.1285,178.572,-2.96631,88.6377,728
1582295722,458.986,-6.13916,28.1285,178.572,-2.96631,88.6377,728
1582295722,458.986,-6.13916,28.1285,178.572,-2.96631,88.6377,728
1582295722,458.986,-6.13916,28.0169,178.572,-2.98828,88.6377,728
1582295722,458.986,-6.13916,28.0169,178.572,-2.98828,88.6597,728
1582295722,458.986,-6.13916,28.0169,178.572,-2.98828,88.6597,728
1582295722,458.986,-6.13916,28.0169,178.572,-2.98828,88.6597,728
1582295722,458.986,-6.13916,28.0169,178.572,-2.98828,88.6597,728
1582295722,458.986,-6.13916,28.0169,178.572,-2.98828,88.6597,728
1582295722,458.986,-6.13916,28.0169,178.572,-2.98828,88.6597,728
1582295722,458.986,-6.13916,28.0169,178.572,-2.98828,88.6597,728
1582295722,458.986,-6.13916,28.0169,178.572,-2.98828,88.6597,724
1582295722,458.986,-6.13916,28.0169,178.572,-2.98828,88.6597,724
1582295722,458.986,-6.13916,28.0169,178.572,-2.98828,88.6597,724
1582295722,458.986,-6.13916,28.0169,178.572,-2.98828,88.6597,724
1582295722,458.986,-6.13916,28.0169,178.572,-2.98828,88.6597,724
1582295722,458.986,-6.13916,28.0169,178.572,-2.98828,88.6597,724
1582295723,458.986,-6.13916,28.0169,178.572,-2.98828,88.6597,724
1582295723,458.986,-6.13916,28.0169,178.572,-2.98828,88.6597,724
1582295723,458.986,-6.13916,28.0169,178.572,-2.98828,88.6597,724
1582295723,458.986,-6.13916,28.0169,178.572,-2.98828,88.6597,724
1582295723,458.986,-6.13916,28.0169,178.572,-2.98828,88.6597,724
1582295723,458.986,-6.13916,28.1285,178.572,-2.98828,88.6597,724
1582295723,458.986,-6.13916,28.1285,178.572,-2.98828,88.6597,724
1582295723,458.986,-6.13916,28.1285,178.572,-2.98828,88.6597,724
1582295723,458.986,-6.13916,28.1285,178.572,-2.96631,88.6597,724
1582295723,458.986,-6.13916,28.1285,178.572,-2.96631,88.6597,724
1582295723,458.986,-6.13916,28.1285,178.572,-2.96631,88.6597,724
1582295723,458.986,-6.13916,28.1285,178.572,-2.96631,88.6597,724
1582295723,458.986,-6.13916,28.1285,178.572,-2.96631,88.6597,724
1582295723,458.986,-6.13916,28.1285,178.572,-2.96631,88.6597,724
1582295723,458.986,-6.13916,28.1285,178.572,-2.96631,88.6597,724
1582295723,458.986,-6.13916,28.1285,178.572,-2.96631,88.6597,724
1582295723,458.986,-6.13916,28.1285,178.572,-2.96631,88.6597,724
1582295723,458.986,-6.13916,28.1285,178.572,-2.98828,88.6597,724
1582295723,458.986,-6.13916,28.1285,178.572,-2.98828,88.6597,724
1582295723,458.986,-6.13916,28.1285,178.572,-2.98828,88.6597,724
1582295723,458.986,-6.13916,28.1285,178.572,-2.98828,88.6597,724
1582295723,458.986,-6.13916,28.1285,178.572,-2.98828,88.6597,724
1582295723,458.986,-6.13916,28.1285,178.572,-2.98828,88.6597,724
1582295723,458.986,-6.13916,28.1285,178.572,-2.98828,88.6597,724
1582295723,458.986,-6.13916,28.1285,178.572,-2.98828,88.6597,724
1582295723,458.986,-6.13916,28.1285,178.572,-2.98828,88.6597,724
1582295723,458.986,-6.13916,28.1285,178.572,-2.98828,88.6597,724
1582295723,458.986,-6.13916,28.1285,178.572,-2.98828,88.6597,724
1582295723,458.986,-6.13916,28.1285,178.572,-2.96631,88.6597,724
1582295723,458.986,-6.13916,28.1285,178.572,-2.96631,88.6597,724
1582295723,458.986,-6.13916,28.1285,178.572,-2.96631,88.6597,724
1582295723,458.986,-6.13916,28.1285,178.572,-2.96631,88.6597,724
1582295723,458.986,-6.13916,28.1285,178.572,-2.96631,88.6597,724
1582295723,458.986,-6.13916,28.1285,178.572,-2.96631,88.6597,724
1582295723,458.986,-6.13916,28.1285,178.572,-2.96631,88.6597,724
1582295723,458.986,-6.13916,28.1285,178.572,-2.96631,88.6597,724
1582295723,458.986,-6.13916,28.1285,178.572,-2.96631,88.6597,724
1582295723,458.986,-6.13916,28.1285,178.572,-2.98828,88.6597,724
1582295723,458.986,-6.13916,28.1285,178.572,-2.98828,88.6597,724
1582295723,458.986,-6.13916,28.0169,178.572,-2.98828,88.6597,724
1582295723,458.986,-6.13916,28.0169,178.572,-2.98828,88.6597,724
1582295723,458.986,-6.13916,28.0169,178.572,-2.98828,88.6597,724
1582295723,458.986,-6.13916,28.0169,178.572,-2.98828,88.6597,724
1582295723,458.986,-6.13916,28.0169,178.572,-2.98828,88.6597,724
1582295723,458.986,-6.13916,28.0169,178.572,-2.98828,88.6597,724
1582295723,458.986,-6.13916,28.0169,178.572,-2.98828,88.6597,724
1582295723,458.986,-6.13916,28.0169,178.572,-2.98828,88.6597,724
1582295723,458.986,-6.13916,28.0169,178.572,-2.98828,88.6597,724
1582295723,458.986,-6.13916,28.0169,178.572,-2.98828,88.6597,724
1582295723,458.986,-6.13916,28.0169,178.572,-2.98828,88.6597,724
1582295723,458.986,-6.13916,28.0169,178.572,-2.98828,88.6597,724
1582295723,458.986,-6.13916,28.0169,178.572,-2.98828,88.6597,728
1582295723,458.986,-6.13916,28.0169,178.572,-2.98828,88.6597,728
1582295723,458.986,-6.13916,28.0169,178.572,-2.98828,88.6597,728
1582295723,458.986,-6.13916,28.0169,178.572,-2.98828,88.6597,728
1582295723,458.986,-6.13916,28.0169,178.572,-2.98828,88.6597,728
1582295723,458.986,-6.13916,28.0169,178.572,-2.98828,88.6597,728
1582295723,458.986,-6.13916,28.0169,178.572,-2.98828,88.6597,728
1582295723,458.986,-6.13916,28.0169,178.572,-2.98828,88.6597,728
1582295723,458.986,-6.13916,28.0169,178.572,-2.98828,88.6597,728
1582295723,458.986,-6.13916,28.0169,178.572,-2.96631,88.6597,728
1582295723,458.986,-6.13916,28.1285,178.572,-2.96631,88.6597,728
1582295723,458.986,-6.13916,28.1285,178.572,-2.96631,88.6597,728
1582295723,458.986,-6.13916,28.1285,178.572,-2.96631,88.6597,728
1582295723,458.986,-6.13916,28.1285,178.572,-2.96631,88.6597,728
1582295723,458.986,-6.13916,28.1285,178.572,-2.96631,88.6597,728
1582295723,458.986,-6.13916,28.1285,178.572,-2.96631,88.6597,728
1582295723,458.986,-6.13916,28.1285,178.572,-2.96631,88.6597,728
1582295723,458.986,-6.13916,28.1285,178.572,-2.96631,88.6597,728
1582295723,458.986,-6.13916,28.1285,178.572,-2.96631,88.6597,728
1582295723,458.986,-6.13916,28.1285,178.572,-2.98828,88.6597,728
1582295723,458.986,-6.13916,28.1285,178.572,-2.98828,88.6597,728
1582295723,458.986,-6.13916,28.0169,178.572,-2.98828,88.6597,724
1582295723,458.986,-6.13916,28.0169,178.572,-2.98828,88.6597,724
1582295723,458.986,-6.13916,28.0169,178.572,-2.98828,88.6597,724
1582295723,458.986,-6.13916,28.0169,178.572,-2.98828,88.6597,724
1582295723,458.986,-6.13916,28.0169,178.572,-2.98828,88.6597,724
1582295723,458.986,-6.13916,28.0169,178.572,-2.98828,88.6597,724
1582295723,458.986,-6.13916,28.0169,178.572,-2.98828,88.6597,724
1582295723,458.986,-6.13916,28.0169,178.572,-2.98828,88.6597,724
1582295723,458.986,-6.13916,28.0169,178.572,-2.98828,88.6597,724
1582295723,458.986,-6.13916,28.0169,178.572,-2.98828,88.6597,724
1582295723,458.986,-6.13916,28.0169,178.572,-2.98828,88.6597,724
1582295723,458.986,-6.13916,28.0169,178.572,-2.98828,88.6597,724
1582295723,458.986,-6.13916,28.0169,178.572,-2.98828,88.6597,724
1582295723,458.986,-6.13916,28.0169,178.572,-2.98828,88.6597,724
1582295723,458.986,-6.13916,28.0169,178.572,-2.98828,88.6597,724
1582295723,458.986,-6.13916,28.0169,178.572,-2.98828,88.6597,724
1582295723,458.986,-6.13916,28.0169,178.572,-2.98828,88.6597,724
1582295723,458.986,-6.13916,28.1285,178.572,-2.98828,88.6597,724
1582295723,458.986,-6.13916,28.1285,178.572,-2.98828,88.6597,724
1582295723,458.986,-6.13916,28.1285,178.572,-2.98828,88.6597,724
1582295723,458.986,-6.13916,28.1285,178.572,-2.98828,88.6597,724
1582295723,458.986,-6.13916,28.1285,178.572,-2.98828,88.6597,724
1582295723,458.986,-6.13916,28.1285,178.572,-2.96631,88.6597,724
1582295723,458.986,-6.13916,28.1285,178.572,-2.96631,88.6597,724
1582295723,458.986,-6.13916,28.1285,178.572,-2.96631,88.6597,724
1582295723,458.986,-6.13916,28.1285,178.572,-2.96631,88.6597,724
1582295723,458.986,-6.13916,28.1285,178.572,-2.96631,88.6597,724
1582295723,458.986,-6.13916,28.1285,178.572,-2.96631,88.6597,724
1582295724,458.986,-6.13916,28.1285,178.572,-2.96631,88.6597,724
1582295724,458.986,-6.13916,28.1285,178.572,-2.96631,88.6597,724
1582295724,458.986,-6.13916,28.1285,178.572,-2.96631,88.6597,724
1582295724,458.986,-6.13916,28.1285,178.572,-2.96631,88.6597,724
1582295724,458.986,-6.13916,28.1285,178.572,-2.96631,88.6597,724
1582295724,458.986,-6.13916,28.1285,178.572,-2.96631,88.6597,724
1582295724,458.986,-6.13916,28.1285,178.572,-2.96631,88.6597,724
1582295724,458.986,-6.13916,28.1285,178.572,-2.96631,88.6597,724
1582295724,458.986,-6.13916,28.1285,178.572,-2.96631,88.6597,724
1582295724,458.986,-6.13916,28.1285,178.572,-2.96631,88.6597,724
1582295724,458.986,-6.13916,28.1285,178.572,-2.96631,88.6597,724
1582295724,458.986,-6.13916,28.1285,178.572,-2.96631,88.6597,724
1582295724,458.986,-6.25078,28.1285,178.572,-2.96631,88.6597,724
1582295724,458.986,-6.25078,28.1285,178.572,-2.96631,88.6597,724
1582295724,458.986,-6.25078,28.1285,178.572,-2.96631,88.6597,724
1582295724,458.986,-6.25078,28.1285,178.572,-2.96631,88.6597,724
1582295724,458.986,-6.25078,28.1285,178.572,-2.96631,88.6597,724
1582295724,458.986,-6.25078,28.1285,178.572,-2.96631,88.6597,724
1582295724,458.986,-6.25078,28.1285,178.572,-2.96631,88.6597,724
1582295724,458.986,-6.25078,28.1285,178.572,-2.96631,88.6597,724
1582295724,458.986,-6.25078,28.1285,178.572,-2.96631,88.6597,724
1582295724,458.986,-6.25078,28.1285,178.572,-2.96631,88.6597,724
1582295724,458.986,-6.25078,28.1285,178.572,-2.96631,88.6597,724
1582295724,458.986,-6.25078,28.1285,178.572,-2.96631,88.6597,724
1582295724,458.986,-6.25078,28.1285,178.572,-2.96631,88.6597,724
1582295724,458.986,-6.25078,28.1285,178.572,-2.96631,88.6597,724
1582295724,458.986,-6.25078,28.1285,178.572,-2.96631,88.6597,724
1582295724,458.986,-6.25078,28.1285,178.572,-2.96631,88.6597,724
1582295724,458.986,-6.25078,28.1285,178.572,-2.96631,88.6597,724
1582295724,458.986,-6.25078,28.1285,178.572,-2.96631,88.6597,724
1582295724,458.986,-6.25078,28.1285,178.572,-2.96631,88.6597,724
1582295724,458.986,-6.25078,28.1285,178.572,-2.96631,88.6597,724
1582295724,458.986,-6.25078,28.1285,178.572,-2.96631,88.6597,724
1582295724,458.986,-6.25078,28.1285,178.572,-2.96631,88.6597,724
1582295724,458.986,-6.25078,28.1285,178.572,-2.96631,88.6597,724
1582295724,458.986,-6.25078,28.1285,178.572,-2.96631,88.6597,724
