time,x,y,z,ax,ay,az,q
1569942144,380.181,15.8502,-14.734,178.33,2.28516,-145.063,448
1569942144,380.181,15.8502,-14.734,178.33,2.28516,-145.063,448
1569942144,380.181,15.8502,-14.734,178.33,2.28516,-145.063,448
1569942144,380.181,15.8502,-14.734,178.33,2.28516,-145.063,448
1569942144,380.181,15.8502,-14.734,178.33,2.28516,-145.063,444
1569942144,380.181,15.8502,-14.734,178.33,2.30713,-145.063,444
1569942144,380.181,15.8502,-14.734,178.33,2.30713,-145.063,444
1569942144,380.181,15.8502,-14.734,178.33,2.30713,-145.063,440
1569942144,380.181,15.8502,-14.734,178.33,2.30713,-145.063,440
1569942144,380.181,15.8502,-14.734,178.33,2.30713,-145.063,440
1569942144,380.181,15.8502,-14.734,178.33,2.28516,-145.063,436
1569942144,380.181,15.8502,-14.734,178.33,2.28516,-145.063,436
1569942144,380.181,15.8502,-14.734,178.33,2.28516,-145.063,436
1569942144,380.181,15.8502,-14.734,178.33,2.28516,-145.063,436
1569942144,380.181,15.8502,-14.8456,178.33,2.28516,-145.063,436
1569942144,380.181,15.8502,-14.8456,178.33,2.28516,-145.063,436
1569942144,380.181,15.8502,-14.8456,178.33,2.26318,-145.063,432
1569942144,380.181,15.8502,-14.8456,178.33,2.26318,-145.063,432
1569942144,380.181,15.8502,-14.8456,178.33,2.26318,-145.063,432
1569942144,380.181,15.8502,-14.8456,178.33,2.26318,-145.063,432
1569942144,380.181,15.8502,-14.8456,178.33,2.26318,-145.063,432
1569942144,380.181,15.8502,-14.8456,178.33,2.26318,-145.063,432
1569942144,380.181,15.8502,-14.8456,178.33,2.26318,-145.063,432
1569942144,380.181,15.8502,-14.8456,178.33,2.26318,-145.063,428
1569942144,380.181,15.8502,-14.8456,178.33,2.26318,-145.063,428
1569942144,380.181,15.8502,-14.8456,178.33,2.26318,-145.063,428
1569942144,380.181,15.8502,-14.8456,178.33,2.26318,-145.063,428
1569942144,380.181,15.8502,-14.8456,178.33,2.28516,-145.063,428
1569942144,380.181,15.8502,-14.8456,178.33,2.28516,-145.063,428
1569942144,380.181,15.8502,-14.734,178.308,2.28516,-145.042,432
1569942144,380.181,15.8502,-14.734,178.308,2.28516,-145.042,432
1569942144,380.181,15.8502,-14.734,178.308,2.28516,-145.042,432
1569942144,380.181,15.8502,-14.734,178.308,2.28516,-145.042,432
1569942144,380.181,15.8502,-14.734,178.308,2.28516,-145.042,432
1569942144,380.181,15.8502,-14.734,178.308,2.28516,-145.042,432
1569942144,380.181,15.8502,-14.734,178.308,2.28516,-145.042,432
1569942144,380.181,15.8502,-14.734,178.33,2.28516,-145.042,432
1569942144,380.181,15.8502,-14.734,178.33,2.28516,-145.042,432
1569942144,380.181,15.8502,-14.734,178.33,2.28516,-145.042,432
1569942144,380.181,15.9618,-14.734,178.33,2.28516,-145.02,432
1569942144,380.07,15.9618,-14.734,178.33,2.28516,-145.02,432
1569942144,380.181,15.9618,-14.734,178.33,2.28516,-145.02,432
1569942144,380.181,15.9618,-14.734,178.33,2.28516,-145.02,432
1569942144,380.181,15.9618,-14.734,178.352,2.28516,-145.02,432
1569942144,380.181,15.9618,-14.734,178.352,2.28516,-145.02,432
1569942144,380.181,15.9618,-14.734,178.33,2.28516,-145.02,432
1569942144,380.181,15.9618,-14.734,178.33,2.28516,-145.02,432
1569942144,380.181,15.9618,-14.734,178.33,2.28516,-145.02,432
1569942144,380.181,15.8502,-14.734,178.33,2.28516,-145.02,432
1569942144,380.181,15.8502,-14.734,178.33,2.28516,-145.02,432
1569942144,380.181,15.8502,-14.734,178.33,2.28516,-145.02,432
1569942144,380.181,15.8502,-14.734,178.33,2.28516,-145.02,432
1569942144,380.181,15.8502,-14.734,178.33,2.28516,-145.02,432
1569942144,380.181,15.8502,-14.734,178.33,2.28516,-145.02,432
1569942144,380.181,15.8502,-14.734,178.33,2.28516,-145.02,432
1569942145,380.181,15.8502,-14.734,178.308,2.28516,-145.02,432
1569942145,380.181,15.8502,-14.734,178.308,2.28516,-145.02,428
1569942145,380.181,15.8502,-14.734,178.308,2.28516,-145.02,428
1569942145,380.181,15.8502,-14.734,178.308,2.28516,-145.02,428
1569942145,380.181,15.8502,-14.8456,178.33,2.28516,-145.02,428
1569942145,380.181,15.8502,-14.8456,178.33,2.28516,-145.02,424
1569942145,380.181,15.8502,-14.8456,178.33,2.28516,-145.02,424
1569942145,380.181,15.8502,-14.8456,178.33,2.26318,-145.02,424
1569942145,380.181,15.8502,-14.8456,178.33,2.26318,-145.042,424
1569942145,380.181,15.8502,-14.8456,178.33,2.26318,-145.042,424
1569942145,380.181,15.8502,-14.8456,178.33,2.26318,-145.042,424
1569942145,380.181,15.8502,-14.8456,178.33,2.26318,-145.02,424
1569942145,380.181,15.8502,-14.8456,178.33,2.26318,-145.02,424
1569942145,380.181,15.8502,-14.8456,178.33,2.26318,-145.02,424
1569942145,380.181,15.8502,-14.8456,178.33,2.26318,-145.02,424
1569942145,380.181,15.8502,-14.8456,178.33,2.26318,-145.02,424
1569942145,380.181,15.8502,-14.8456,178.33,2.28516,-145.02,424
1569942145,380.181,15.8502,-14.734,178.33,2.28516,-145.02,424
1569942145,380.181,15.8502,-14.734,178.33,2.28516,-145.02,424
1569942145,380.181,15.8502,-14.734,178.33,2.28516,-145.02,424
1569942145,380.181,15.8502,-14.734,178.33,2.28516,-145.02,424
1569942145,380.181,15.8502,-14.734,178.33,2.28516,-145.02,424
1569942145,380.181,15.8502,-14.734,178.33,2.28516,-145.02,428
1569942145,380.181,15.8502,-14.734,178.33,2.28516,-145.02,428
1569942145,380.181,15.8502,-14.734,178.33,2.28516,-145.02,428
1569942145,380.181,15.8502,-14.734,178.33,2.28516,-145.02,428
1569942145,380.181,15.8502,-14.734,178.352,2.28516,-145.02,428
1569942145,380.181,15.8502,-14.734,178.352,2.28516,-145.02,428
1569942145,380.181,15.8502,-14.734,178.352,2.28516,-145.02,428
1569942145,380.181,15.8502,-14.734,178.352,2.28516,-145.02,428
1569942145,380.181,15.8502,-14.734,178.352,2.28516,-145.02,428
1569942145,380.181,15.8502,-14.734,178.352,2.28516,-145.02,428
1569942145,380.181,15.8502,-14.734,178.352,2.28516,-145.02,428
1569942145,380.181,15.8502,-14.734,178.352,2.28516,-145.02,428
1569942145,380.181,15.8502,-14.8456,178.352,2.28516,-145.02,428
1569942145,380.181,15.8502,-14.8456,178.352,2.26318,-145.02,428
1569942145,380.07,15.8502,-14.8456,178.352,2.26318,-145.02,432
1569942145,380.07,15.8502,-14.8456,178.352,2.26318,-145.02,432
1569942145,380.07,15.8502,-14.8456,178.33,2.26318,-145.02,432
1569942145,380.181,15.8502,-14.8456,178.33,2.26318,-145.02,432
1569942145,380.181,15.8502,-14.8456,178.33,2.26318,-145.02,432
1569942145,380.181,15.8502,-14.8456,178.33,2.26318,-145.02,432
1569942145,380.181,15.8502,-14.8456,178.33,2.26318,-145.02,432
1569942145,380.181,15.8502,-14.8456,178.33,2.26318,-145.02,432
1569942145,380.181,15.8502,-14.8456,178.33,2.26318,-145.02,432
1569942145,380.181,15.8502,-14.8456,178.352,2.26318,-145.02,432
1569942145,380.181,15.8502,-14.8456,178.352,2.28516,-145.02,432
1569942145,380.181,15.9618,-14.8456,178.352,2.28516,-145.02,432
1569942145,380.181,15.9618,-14.8456,178.352,2.28516,-145.02,428
1569942145,380.181,15.9618,-14.8456,178.352,2.28516,-145.02,428
1569942145,380.181,15.9618,-14.8456,178.352,2.28516,-145.02,428
1569942145,380.181,15.9618,-14.8456,178.352,2.26318,-145.02,428
1569942145,380.181,15.9618,-14.8456,178.352,2.26318,-145.02,428
1569942145,380.181,15.9618,-14.8456,178.352,2.26318,-145.02,428
1569942145,380.181,15.9618,-14.8456,178.352,2.26318,-145.02,428
1569942145,380.181,15.9618,-14.8456,178.352,2.26318,-145.02,428
1569942145,380.181,15.9618,-14.8456,178.352,2.26318,-145.02,432
1569942145,380.181,15.9618,-14.8456,178.352,2.26318,-145.02,432
1569942145,380.181,15.9618,-14.8456,178.352,2.26318,-145.02,432
1569942145,380.181,15.9618,-14.8456,178.352,2.26318,-145.02,432
1569942145,380.181,15.9618,-14.8456,178.352,2.26318,-145.02,436
1569942145,380.07,15.9618,-14.8456,178.352,2.26318,-145.02,436
1569942145,380.07,15.9618,-14.8456,178.352,2.26318,-145.02,436
1569942145,380.07,15.9618,-14.8456,178.352,2.28516,-145.02,436
1569942145,380.07,15.9618,-14.8456,178.352,2.28516,-145.02,436
1569942145,380.07,15.9618,-14.8456,178.352,2.28516,-145.02,436
1569942145,380.07,15.9618,-14.8456,178.352,2.28516,-145.02,436
1569942145,380.07,15.9618,-14.8456,178.352,2.28516,-145.02,436
1569942145,380.07,15.9618,-14.8456,178.352,2.28516,-145.02,436
1569942145,380.07,15.9618,-14.8456,178.352,2.28516,-145.02,436
1569942145,380.07,15.9618,-14.8456,178.352,2.28516,-145.02,436
1569942145,380.07,15.9618,-14.8456,178.352,2.28516,-145.02,436
1569942145,380.07,15.9618,-14.8456,178.352,2.28516,-145.02,436
1569942145,380.07,15.9618,-14.8456,178.352,2.26318,-145.042,436
1569942145,380.07,15.9618,-14.8456,178.352,2.26318,-145.042,436
1569942145,380.07,15.9618,-14.8456,178.352,2.26318,-145.042,436
1569942145,380.181,15.9618,-14.8456,178.352,2.26318,-145.042,436
1569942145,380.181,15.9618,-14.8456,178.352,2.26318,-145.042,436
1569942145,380.181,15.9618,-14.8456,178.33,2.26318,-145.042,436
1569942145,380.181,15.9618,-14.8456,178.33,2.26318,-145.042,432
1569942145,380.181,15.9618,-14.8456,178.33,2.26318,-145.042,432
1569942145,380.181,15.8502,-14.8456,178.33,2.26318,-145.042,432
1569942145,380.181,15.8502,-14.8456,178.33,2.28516,-145.042,432
1569942145,380.181,15.8502,-14.8456,178.33,2.28516,-145.042,432
1569942145,380.181,15.8502,-14.8456,178.33,2.28516,-145.042,432
1569942145,380.181,15.8502,-14.8456,178.33,2.28516,-145.042,432
1569942145,380.181,15.8502,-14.734,178.33,2.28516,-145.042,432
1569942145,380.181,15.8502,-14.734,178.33,2.28516,-145.042,432
1569942145,380.181,15.8502,-14.734,178.33,2.28516,-145.042,432
1569942145,380.181,15.8502,-14.734,178.33,2.28516,-145.042,432
1569942145,380.181,15.8502,-14.734,178.33,2.28516,-145.042,432
1569942145,380.181,15.8502,-14.734,178.33,2.28516,-145.042,432
1569942145,380.181,15.8502,-14.734,178.33,2.28516,-145.042,432
1569942145,380.181,15.8502,-14.734,178.33,2.28516,-145.042,428
1569942145,380.181,15.8502,-14.734,178.33,2.28516,-145.042,428
1569942145,380.181,15.8502,-14.734,178.33,2.28516,-145.042,428
1569942145,380.181,15.8502,-14.734,178.33,2.28516,-145.042,428
1569942145,380.181,15.8502,-14.734,178.33,2.28516,-145.02,428
1569942145,380.181,15.8502,-14.734,178.33,2.28516,-145.02,428
1569942145,380.181,15.9618,-14.734,178.33,2.28516,-145.02,428
1569942146,380.181,15.9618,-14.734,178.33,2.28516,-145.02,428
1569942146,380.181,15.9618,-14.734,178.33,2.28516,-145.02,428
1569942146,380.181,15.9618,-14.734,178.33,2.28516,-145.02,424
1569942146,380.181,15.9618,-14.734,178.33,2.28516,-145.02,424
1569942146,380.181,15.9618,-14.734,178.33,2.28516,-145.02,424
1569942146,380.181,15.9618,-14.734,178.33,2.28516,-145.02,424
1569942146,380.181,15.9618,-14.734,178.33,2.28516,-145.02,424
1569942146,380.181,15.9618,-14.734,178.33,2.28516,-145.02,424
1569942146,380.181,15.9618,-14.734,178.33,2.28516,-145.02,424
1569942146,380.181,15.9618,-14.734,178.33,2.28516,-145.02,424
1569942146,380.181,15.9618,-14.734,178.33,2.28516,-145.02,424
1569942146,380.181,15.9618,-14.734,178.33,2.28516,-145.02,428
1569942146,380.181,15.9618,-14.734,178.33,2.28516,-145.02,428
1569942146,380.181,15.9618,-14.734,178.33,2.26318,-145.02,428
1569942146,380.181,15.9618,-14.8456,178.33,2.26318,-145.02,428
1569942146,380.181,15.9618,-14.8456,178.352,2.26318,-145.02,432
1569942146,380.181,15.9618,-14.8456,178.352,2.26318,-145.02,432
1569942146,380.181,15.9618,-14.8456,178.352,2.26318,-145.02,432
1569942146,380.181,15.9618,-14.8456,178.352,2.26318,-145.02,436
1569942146,380.181,15.9618,-14.8456,178.352,2.26318,-145.02,436
1569942146,380.181,15.9618,-14.8456,178.352,2.26318,-145.02,436
1569942146,380.181,15.9618,-14.8456,178.352,2.26318,-145.02,436
1569942146,380.181,15.9618,-14.8456,178.352,2.26318,-145.02,436
1569942146,380.181,15.9618,-14.8456,178.352,2.26318,-145.042,436
1569942146,380.181,15.9618,-14.8456,178.352,2.26318,-145.042,436
1569942146,380.181,15.9618,-14.8456,178.352,2.26318,-145.042,440
1569942146,380.181,15.9618,-14.8456,178.352,2.26318,-145.042,440
1569942146,380.181,15.9618,-14.8456,178.352,2.26318,-145.042,440
1569942146,380.181,15.9618,-14.8456,178.352,2.26318,-145.042,440
1569942146,380.181,15.9618,-14.8456,178.352,2.26318,-145.042,440
1569942146,380.181,15.9618,-14.8456,178.352,2.26318,-145.042,440
1569942146,380.181,15.9618,-14.8456,178.352,2.26318,-145.042,440
1569942146,380.181,15.9618,-14.8456,178.352,2.26318,-145.042,440
1569942146,380.181,15.9618,-14.8456,178.352,2.26318,-145.042,440
1569942146,380.181,15.9618,-14.8456,178.352,2.26318,-145.042,440
1569942146,380.181,15.9618,-14.8456,178.352,2.26318,-145.042,440
1569942146,380.181,15.9618,-14.8456,178.352,2.26318,-145.02,440
1569942146,380.07,15.8502,-14.8456,178.352,2.26318,-145.02,440
1569942146,380.07,15.8502,-14.8456,178.33,2.26318,-145.02,440
1569942146,380.07,15.8502,-14.8456,178.33,2.26318,-145.02,440
1569942146,380.07,15.8502,-14.8456,178.33,2.26318,-145.02,440
1569942146,380.181,15.8502,-14.8456,178.33,2.26318,-145.02,440
1569942146,380.07,15.8502,-14.734,178.33,2.26318,-145.02,440
1569942146,380.07,15.8502,-14.734,178.33,2.26318,-145.02,440
1569942146,380.07,15.8502,-14.734,178.33,2.26318,-145.02,440
1569942146,380.07,15.8502,-14.734,178.33,2.26318,-145.02,440
1569942146,380.07,15.8502,-14.734,178.33,2.26318,-145.02,440
1569942146,380.07,15.8502,-14.734,178.33,2.26318,-145.02,440
1569942146,380.07,15.8502,-14.734,178.352,2.26318,-145.02,440
1569942146,380.07,15.8502,-14.8456,178.352,2.26318,-145.02,440
1569942146,380.07,15.9618,-14.8456,178.352,2.26318,-145.02,440
1569942146,380.07,15.9618,-14.8456,178.352,2.26318,-145.02,440
1569942146,380.07,15.9618,-14.8456,178.352,2.26318,-145.02,440
1569942146,380.07,15.9618,-14.8456,178.352,2.26318,-145.02,440
1569942146,380.07,15.9618,-14.8456,178.374,2.26318,-145.02,444
1569942146,380.07,15.9618,-14.8456,178.374,2.26318,-145.02,444
1569942146,380.07,15.9618,-14.8456,178.374,2.26318,-145.02,444
1569942146,380.07,15.9618,-14.8456,178.374,2.26318,-145.02,444
1569942146,380.07,15.9618,-14.8456,178.374,2.26318,-145.02,444
1569942146,380.181,15.9618,-14.8456,178.374,2.26318,-145.02,444
1569942146,380.181,15.9618,-14.734,178.352,2.28516,-145.02,444
1569942146,380.181,15.9618,-14.734,178.352,2.28516,-145.02,444
1569942146,380.181,15.9618,-14.734,178.352,2.28516,-145.02,440
1569942146,380.181,15.9618,-14.734,178.352,2.28516,-145.02,440
1569942146,380.181,15.9618,-14.734,178.352,2.28516,-145.02,440
1569942146,380.181,15.9618,-14.734,178.352,2.28516,-145.02,440
1569942146,380.181,15.9618,-14.734,178.352,2.28516,-145.02,440
1569942146,380.181,15.9618,-14.734,178.352,2.30713,-145.02,436
1569942146,380.181,15.9618,-14.734,178.352,2.30713,-145.02,436
1569942146,380.181,15.9618,-14.734,178.352,2.30713,-145.02,436
1569942146,380.181,15.9618,-14.734,178.352,2.30713,-145.02,436
1569942146,380.181,15.9618,-14.6224,178.352,2.30713,-145.042,436
1569942146,380.181,15.9618,-14.6224,178.352,2.30713,-145.042,436
1569942146,380.181,15.9618,-14.734,178.352,2.30713,-145.042,432
1569942146,380.181,15.9618,-14.734,178.352,2.30713,-145.042,432
1569942146,380.181,15.9618,-14.734,178.352,2.30713,-145.042,432
1569942146,380.181,15.9618,-14.734,178.352,2.30713,-145.042,432
1569942146,380.181,15.9618,-14.734,178.352,2.30713,-145.042,432
1569942146,380.181,15.9618,-14.734,178.352,2.30713,-145.042,436
1569942146,380.181,15.9618,-14.734,178.33,2.30713,-145.042,436
1569942146,380.181,15.9618,-14.734,178.33,2.28516,-145.042,436
1569942146,380.181,15.9618,-14.734,178.33,2.28516,-145.042,436
1569942146,380.181,15.8502,-14.734,178.33,2.28516,-145.042,436
1569942146,380.181,15.8502,-14.734,178.33,2.28516,-145.042,440
1569942146,380.181,15.8502,-14.734,178.33,2.28516,-145.042,440
1569942146,380.181,15.8502,-14.734,178.33,2.28516,-145.042,440
1569942146,380.181,15.8502,-14.734,178.33,2.28516,-145.042,444
1569942146,380.181,15.8502,-14.734,178.33,2.28516,-145.042,444
1569942146,380.181,15.8502,-14.734,178.33,2.28516,-145.042,444
1569942146,380.181,15.8502,-14.734,178.33,2.28516,-145.042,444
1569942146,380.181,15.8502,-14.734,178.33,2.28516,-145.042,444
1569942146,380.181,15.8502,-14.734,178.33,2.28516,-145.042,448
1569942146,380.181,15.9618,-14.734,178.33,2.28516,-145.042,448
1569942146,380.181,15.9618,-14.734,178.352,2.28516,-145.042,448
1569942146,380.181,15.9618,-14.734,178.352,2.26318,-145.042,448
1569942146,380.181,15.9618,-14.8456,178.352,2.26318,-145.042,448
1569942146,380.181,15.9618,-14.8456,178.352,2.26318,-145.042,448
1569942146,380.181,15.9618,-14.8456,178.352,2.26318,-145.042,448
1569942146,380.181,15.9618,-14.8456,178.352,2.26318,-145.02,448
1569942146,380.181,15.9618,-14.8456,178.352,2.26318,-145.02,448
1569942147,380.181,15.9618,-14.8456,178.33,2.26318,-145.02,448
1569942147,380.181,15.9618,-14.8456,178.33,2.26318,-145.02,448
1569942147,380.181,15.9618,-14.8456,178.33,2.26318,-145.02,448
1569942147,380.181,15.8502,-14.8456,178.33,2.26318,-145.02,448
1569942147,380.181,15.8502,-14.8456,178.33,2.26318,-145.02,448
1569942147,380.181,15.8502,-14.8456,178.33,2.26318,-145.02,448
1569942147,380.181,15.8502,-14.8456,178.33,2.26318,-145.02,448
1569942147,380.181,15.8502,-14.8456,178.33,2.26318,-145.02,448
1569942147,380.181,15.8502,-14.8456,178.33,2.26318,-145.02,448
1569942147,380.181,15.8502,-14.8456,178.33,2.26318,-145.02,452
1569942147,380.181,15.8502,-14.8456,178.33,2.26318,-145.02,452
1569942147,380.181,15.8502,-14.8456,178.33,2.26318,-145.02,452
1569942147,380.181,15.8502,-14.8456,178.33,2.26318,-145.02,452
1569942147,380.181,15.8502,-14.8456,178.33,2.26318,-145.02,452
1569942147,380.181,15.8502,-14.8456,178.33,2.26318,-145.02,452
1569942147,380.181,15.8502,-14.8456,178.33,2.26318,-145.02,448
1569942147,380.181,15.8502,-14.734,178.33,2.28516,-145.042,448
1569942147,380.181,15.8502,-14.8456,178.33,2.28516,-145.042,448
1569942147,380.181,15.8502,-14.8456,178.33,2.28516,-145.042,448
1569942147,380.181,15.8502,-14.8456,178.33,2.28516,-145.042,448
1569942147,380.181,15.8502,-14.8456,178.352,2.28516,-145.042,444
1569942147,380.181,15.8502,-14.8456,178.352,2.28516,-145.042,444
1569942147,380.181,15.8502,-14.8456,178.352,2.26318,-145.042,444
1569942147,380.181,15.9618,-14.8456,178.352,2.26318,-145.042,444
1569942147,380.181,15.9618,-14.8456,178.352,2.26318,-145.042,444
1569942147,380.181,15.9618,-14.8456,178.352,2.26318,-145.042,444
1569942147,380.181,15.9618,-14.8456,178.352,2.26318,-145.042,440
1569942147,380.181,15.9618,-14.8456,178.352,2.26318,-145.042,440
1569942147,380.181,15.9618,-14.8456,178.352,2.26318,-145.042,440
1569942147,380.181,15.9618,-14.8456,178.352,2.26318,-145.042,440
1569942147,380.181,15.9618,-14.8456,178.352,2.26318,-145.042,440
1569942147,380.181,15.9618,-14.8456,178.352,2.24121,-145.042,440
1569942147,380.181,15.9618,-14.8456,178.352,2.24121,-145.042,440
1569942147,380.181,15.8502,-14.8456,178.352,2.24121,-145.042,444
1569942147,380.181,15.8502,-14.8456,178.352,2.24121,-145.042,444
1569942147,380.181,15.8502,-14.8456,178.352,2.24121,-145.042,444
1569942147,380.181,15.8502,-14.8456,178.352,2.24121,-145.042,444
1569942147,380.181,15.8502,-14.8456,178.352,2.24121,-145.042,444
1569942147,380.181,15.8502,-14.8456,178.352,2.24121,-145.042,444
1569942147,380.181,15.8502,-14.8456,178.352,2.24121,-145.042,444
1569942147,380.181,15.8502,-14.8456,178.352,2.24121,-145.042,444
1569942147,380.181,15.8502,-14.8456,178.352,2.24121,-145.042,444
1569942147,380.181,15.9618,-14.8456,178.352,2.24121,-145.042,444
1569942147,380.181,15.9618,-14.8456,178.352,2.24121,-145.042,444
1569942147,380.181,15.9618,-14.8456,178.352,2.24121,-145.042,444
1569942147,380.181,15.9618,-14.8456,178.352,2.24121,-145.042,444
1569942147,380.181,15.9618,-14.8456,178.352,2.26318,-145.042,444
1569942147,380.181,15.9618,-14.8456,178.352,2.26318,-145.042,440
1569942147,380.181,15.9618,-14.8456,178.352,2.26318,-145.042,440
1569942147,380.181,15.9618,-14.8456,178.352,2.26318,-145.042,440
1569942147,380.181,15.9618,-14.8456,178.352,2.26318,-145.042,440
1569942147,380.181,15.9618,-14.8456,178.352,2.26318,-145.042,440
1569942147,380.181,15.9618,-14.8456,178.352,2.26318,-145.042,440
1569942147,380.181,15.9618,-14.8456,178.352,2.26318,-145.042,440
1569942147,380.181,15.9618,-14.8456,178.374,2.26318,-145.042,440
1569942147,380.181,15.9618,-14.8456,178.374,2.26318,-145.042,440
1569942147,380.181,15.9618,-14.8456,178.374,2.26318,-145.042,440
1569942147,380.181,15.9618,-14.8456,178.374,2.26318,-145.042,440
1569942147,380.181,15.9618,-14.734,178.374,2.26318,-145.042,440
1569942147,380.181,15.9618,-14.734,178.374,2.28516,-145.042,440
1569942147,380.181,15.9618,-14.734,178.374,2.28516,-145.042,440
1569942147,380.181,16.0734,-14.734,178.374,2.28516,-145.042,440
1569942147,380.181,16.0734,-14.734,178.374,2.28516,-145.042,440
1569942147,380.181,16.0734,-14.734,178.374,2.28516,-145.042,440
1569942147,380.181,15.9618,-14.734,178.374,2.28516,-145.042,440
1569942147,380.181,15.9618,-14.734,178.374,2.28516,-145.042,440
1569942147,380.181,15.9618,-14.734,178.374,2.28516,-145.042,440
1569942147,380.181,15.9618,-14.734,178.374,2.28516,-145.042,440
1569942147,380.181,15.9618,-14.734,178.374,2.28516,-145.042,436
1569942147,380.181,15.9618,-14.734,178.374,2.28516,-145.042,436
1569942147,380.181,15.9618,-14.734,178.374,2.28516,-145.042,436
1569942147,380.181,16.0734,-14.734,178.374,2.28516,-145.042,436
1569942147,380.181,16.0734,-14.734,178.374,2.28516,-145.042,436
1569942147,380.181,16.0734,-14.734,178.374,2.28516,-145.042,436
1569942147,380.181,15.9618,-14.734,178.374,2.28516,-145.042,436
1569942147,380.181,15.9618,-14.734,178.374,2.28516,-145.042,436
1569942147,380.181,15.9618,-14.734,178.374,2.28516,-145.042,436
1569942147,380.181,15.9618,-14.734,178.374,2.28516,-145.042,436
1569942147,380.181,15.9618,-14.734,178.374,2.28516,-145.042,436
1569942147,380.181,15.9618,-14.734,178.374,2.28516,-145.042,436
1569942147,380.181,15.9618,-14.734,178.374,2.28516,-145.042,436
1569942147,380.181,15.9618,-14.734,178.374,2.28516,-145.042,440
1569942147,380.181,15.9618,-14.734,178.374,2.28516,-145.042,440
1569942147,380.181,15.9618,-14.734,178.352,2.28516,-145.042,440
1569942147,380.181,15.9618,-14.734,178.352,2.28516,-145.042,440
1569942147,380.181,15.9618,-14.734,178.352,2.28516,-145.042,444
1569942147,380.181,15.9618,-14.734,178.352,2.28516,-145.042,444
1569942147,380.181,15.9618,-14.734,178.352,2.28516,-145.042,444
1569942147,380.181,15.9618,-14.734,178.352,2.28516,-145.042,448
1569942147,380.181,15.8502,-14.734,178.352,2.28516,-145.042,448
1569942147,380.181,15.8502,-14.734,178.352,2.28516,-145.042,448
1569942147,380.181,15.8502,-14.734,178.352,2.28516,-145.042,448
1569942147,380.181,15.8502,-14.734,178.352,2.28516,-145.042,448
1569942147,380.181,15.8502,-14.734,178.352,2.28516,-145.042,448
1569942147,380.181,15.8502,-14.734,178.352,2.28516,-145.042,448
1569942147,380.181,15.9618,-14.734,178.352,2.28516,-145.042,452
1569942147,380.181,15.9618,-14.734,178.352,2.28516,-145.042,452
1569942147,380.181,15.9618,-14.734,178.352,2.28516,-145.042,452
1569942147,380.181,15.9618,-14.734,178.352,2.28516,-145.042,452
1569942147,380.181,15.9618,-14.734,178.352,2.28516,-145.042,452
1569942148,380.181,15.9618,-14.734,178.352,2.28516,-145.042,452
1569942148,380.181,15.9618,-14.734,178.352,2.28516,-145.042,452
1569942148,380.181,15.9618,-14.734,178.352,2.28516,-145.042,452
1569942148,380.181,15.9618,-14.734,178.352,2.28516,-145.042,448
1569942148,380.181,15.9618,-14.734,178.352,2.28516,-145.042,448
1569942148,380.181,15.9618,-14.734,178.374,2.28516,-145.042,448
1569942148,380.181,15.9618,-14.734,178.374,2.28516,-145.042,448
1569942148,380.181,15.9618,-14.734,178.374,2.28516,-145.042,448
1569942148,380.181,15.9618,-14.734,178.374,2.28516,-145.02,448
1569942148,380.181,15.9618,-14.734,178.374,2.28516,-145.02,448
1569942148,380.181,15.9618,-14.734,178.374,2.28516,-145.02,448
1569942148,380.181,15.9618,-14.734,178.374,2.28516,-145.02,448
1569942148,380.181,15.9618,-14.734,178.374,2.28516,-145.02,448
1569942148,380.181,15.9618,-14.8456,178.374,2.28516,-145.02,448
1569942148,380.181,15.9618,-14.8456,178.374,2.28516,-145.02,448
1569942148,380.181,15.9618,-14.8456,178.374,2.28516,-145.02,448
1569942148,380.07,15.9618,-14.8456,178.374,2.28516,-145.02,444
1569942148,380.07,15.9618,-14.8456,178.374,2.28516,-145.02,444
1569942148,380.07,15.9618,-14.8456,178.374,2.28516,-145.02,444
1569942148,380.07,15.9618,-14.8456,178.374,2.28516,-145.02,444
1569942148,380.07,15.9618,-14.8456,178.374,2.28516,-145.02,444
1569942148,380.07,15.9618,-14.8456,178.374,2.28516,-145.02,444
1569942148,380.07,15.9618,-14.8456,178.374,2.28516,-145.042,444
1569942148,380.07,15.9618,-14.8456,178.374,2.26318,-145.042,444
1569942148,380.07,15.9618,-14.8456,178.374,2.26318,-145.042,440
1569942148,380.07,15.9618,-14.8456,178.374,2.26318,-145.042,440
1569942148,380.07,15.9618,-14.8456,178.374,2.26318,-145.042,440
1569942148,380.07,15.9618,-14.734,178.374,2.28516,-145.042,440
1569942148,380.07,15.9618,-14.734,178.374,2.28516,-145.042,436
1569942148,380.07,15.9618,-14.734,178.374,2.28516,-145.042,436
1569942148,380.07,15.9618,-14.734,178.374,2.28516,-145.042,436
1569942148,380.07,15.9618,-14.734,178.374,2.28516,-145.042,436
1569942148,380.07,15.9618,-14.734,178.374,2.28516,-145.042,436
1569942148,380.07,15.9618,-14.734,178.352,2.28516,-145.042,436
1569942148,380.07,15.9618,-14.734,178.352,2.28516,-145.042,436
1569942148,380.07,15.9618,-14.734,178.352,2.28516,-145.042,436
1569942148,380.07,15.9618,-14.734,178.352,2.28516,-145.063,436
1569942148,380.07,15.9618,-14.734,178.352,2.28516,-145.063,432
1569942148,380.07,15.9618,-14.734,178.352,2.28516,-145.063,432
1569942148,380.07,15.9618,-14.734,178.352,2.30713,-145.063,432
1569942148,380.07,15.9618,-14.734,178.352,2.30713,-145.042,432
1569942148,380.07,15.9618,-14.734,178.352,2.30713,-145.042,432
1569942148,380.181,15.9618,-14.734,178.352,2.30713,-145.042,432
1569942148,380.181,15.9618,-14.734,178.352,2.30713,-145.042,432
1569942148,380.181,15.9618,-14.734,178.352,2.30713,-145.042,432
1569942148,380.181,15.9618,-14.734,178.352,2.30713,-145.042,432
1569942148,380.181,15.9618,-14.734,178.352,2.30713,-145.042,432
1569942148,380.181,15.9618,-14.734,178.352,2.30713,-145.042,432
1569942148,380.181,15.9618,-14.734,178.352,2.30713,-145.042,432
1569942148,380.181,15.9618,-14.734,178.352,2.30713,-145.042,432
1569942148,380.181,15.9618,-14.734,178.352,2.30713,-145.042,432
1569942148,380.181,15.9618,-14.734,178.352,2.30713,-145.063,432
1569942148,380.181,15.9618,-14.734,178.352,2.30713,-145.063,432
1569942148,380.181,15.9618,-14.734,178.352,2.30713,-145.063,432
1569942148,380.181,15.9618,-14.734,178.352,2.30713,-145.063,432
1569942148,380.181,15.9618,-14.734,178.352,2.30713,-145.063,432
1569942148,380.181,15.9618,-14.734,178.352,2.30713,-145.063,432
1569942148,380.181,15.9618,-14.734,178.352,2.30713,-145.042,432
1569942148,380.181,15.9618,-14.734,178.352,2.30713,-145.042,432
1569942148,380.181,15.9618,-14.734,178.352,2.30713,-145.042,432
1569942148,380.181,15.9618,-14.734,178.352,2.30713,-145.042,432
1569942148,380.181,15.9618,-14.734,178.352,2.30713,-145.042,432
1569942148,380.181,15.9618,-14.734,178.352,2.30713,-145.042,428
1569942148,380.181,15.8502,-14.734,178.352,2.30713,-145.042,428
1569942148,380.181,15.8502,-14.734,178.33,2.30713,-145.042,428
1569942148,380.181,15.8502,-14.734,178.33,2.30713,-145.042,428
1569942148,380.181,15.8502,-14.734,178.33,2.30713,-145.042,428
1569942148,380.181,15.8502,-14.734,178.33,2.30713,-145.042,428
1569942148,380.181,15.8502,-14.734,178.33,2.30713,-145.042,428
1569942148,380.181,15.8502,-14.734,178.33,2.30713,-145.042,428
1569942148,380.181,15.8502,-14.734,178.33,2.30713,-145.042,428
1569942148,380.07,15.8502,-14.734,178.33,2.30713,-145.042,428
1569942148,380.07,15.8502,-14.734,178.33,2.30713,-145.042,428
1569942148,380.07,15.8502,-14.734,178.33,2.30713,-145.042,432
1569942148,380.07,15.8502,-14.734,178.33,2.30713,-145.042,432
1569942148,380.07,15.8502,-14.734,178.33,2.30713,-145.042,432
1569942148,380.07,15.8502,-14.734,178.33,2.30713,-145.042,432
1569942148,380.07,15.8502,-14.734,178.33,2.30713,-145.042,436
1569942148,380.07,15.8502,-14.734,178.33,2.30713,-145.042,436
1569942148,380.07,15.8502,-14.6224,178.33,2.30713,-145.042,436
1569942148,380.07,15.8502,-14.6224,178.33,2.30713,-145.042,436
1569942148,380.07,15.8502,-14.6224,178.33,2.30713,-145.042,440
1569942148,380.07,15.8502,-14.6224,178.33,2.30713,-145.042,440
1569942148,380.07,15.8502,-14.6224,178.33,2.30713,-145.042,440
1569942148,380.07,15.8502,-14.6224,178.352,2.30713,-145.042,440
1569942148,380.07,15.8502,-14.6224,178.352,2.30713,-145.042,440
1569942148,380.07,15.8502,-14.6224,178.33,2.30713,-145.042,440
1569942148,380.07,15.8502,-14.6224,178.33,2.30713,-145.042,440
1569942148,380.07,15.8502,-14.6224,178.33,2.30713,-145.042,444
1569942148,380.07,15.8502,-14.6224,178.33,2.30713,-145.042,444
1569942148,380.07,15.8502,-14.6224,178.33,2.30713,-145.042,444
1569942148,380.07,15.8502,-14.6224,178.33,2.30713,-145.042,444
1569942148,380.07,15.8502,-14.734,178.33,2.30713,-145.042,444
1569942148,380.07,15.8502,-14.734,178.33,2.30713,-145.042,444
1569942148,380.07,15.8502,-14.734,178.33,2.30713,-145.042,444
1569942148,380.07,15.8502,-14.734,178.33,2.30713,-145.042,444
1569942148,380.07,15.8502,-14.734,178.352,2.30713,-145.042,444
1569942148,380.07,15.8502,-14.734,178.352,2.30713,-145.042,444
1569942148,380.07,15.9618,-14.734,178.352,2.30713,-145.042,444
1569942148,380.07,15.9618,-14.734,178.352,2.30713,-145.042,444
1569942149,380.07,15.9618,-14.734,178.352,2.30713,-145.042,444
1569942149,380.07,15.9618,-14.734,178.352,2.30713,-145.042,444
1569942149,380.07,15.9618,-14.734,178.352,2.30713,-145.042,444
1569942149,380.07,15.9618,-14.734,178.352,2.30713,-145.042,444
1569942149,380.07,15.9618,-14.734,178.352,2.30713,-145.042,444
1569942149,380.07,15.9618,-14.734,178.352,2.30713,-145.042,444
1569942149,380.07,15.9618,-14.734,178.352,2.30713,-145.042,444
1569942149,380.07,15.9618,-14.734,178.352,2.30713,-145.042,444
1569942149,380.07,15.9618,-14.734,178.352,2.30713,-145.042,444
1569942149,380.07,15.9618,-14.734,178.352,2.30713,-145.042,444
1569942149,380.07,15.9618,-14.734,178.352,2.30713,-145.042,444
1569942149,380.07,15.9618,-14.734,178.352,2.30713,-145.042,444
1569942149,380.07,15.9618,-14.734,178.352,2.30713,-145.042,444
1569942149,380.07,15.9618,-14.734,178.352,2.30713,-145.042,444
1569942149,380.07,15.9618,-14.734,178.352,2.30713,-145.042,444
1569942149,380.07,15.9618,-14.734,178.352,2.30713,-145.042,448
1569942149,380.07,15.9618,-14.734,178.352,2.30713,-145.042,448
1569942149,380.07,15.9618,-14.734,178.352,2.30713,-145.042,448
1569942149,380.07,15.8502,-14.734,178.352,2.30713,-145.042,448
1569942149,380.07,15.8502,-14.734,178.352,2.30713,-145.042,448
1569942149,380.07,15.8502,-14.734,178.33,2.30713,-145.042,452
1569942149,380.07,15.8502,-14.734,178.33,2.30713,-145.042,452
1569942149,380.07,15.8502,-14.734,178.33,2.30713,-145.042,452
1569942149,380.07,15.8502,-14.734,178.33,2.30713,-145.042,452
1569942149,380.07,15.8502,-14.734,178.33,2.30713,-145.042,452
1569942149,380.07,15.8502,-14.734,178.33,2.28516,-145.042,452
1569942149,380.07,15.8502,-14.734,178.33,2.28516,-145.042,452
1569942149,380.07,15.8502,-14.734,178.33,2.28516,-145.042,452
1569942149,380.07,15.8502,-14.734,178.33,2.28516,-145.042,452
1569942149,380.07,15.8502,-14.734,178.33,2.28516,-145.042,452
1569942149,380.07,15.8502,-14.734,178.33,2.28516,-145.042,452
1569942149,380.07,15.8502,-14.734,178.33,2.26318,-145.042,452
1569942149,380.07,15.8502,-14.734,178.352,2.26318,-145.042,452
1569942149,380.07,15.8502,-14.8456,178.352,2.26318,-145.042,452
1569942149,380.07,15.8502,-14.8456,178.352,2.26318,-145.042,452
1569942149,380.07,15.8502,-14.8456,178.352,2.26318,-145.042,452
1569942149,380.07,15.8502,-14.8456,178.352,2.26318,-145.042,452
1569942149,380.07,15.8502,-14.8456,178.352,2.26318,-145.042,452
1569942149,380.07,15.8502,-14.8456,178.352,2.26318,-145.042,452
1569942149,380.07,15.8502,-14.8456,178.33,2.26318,-145.042,452
1569942149,380.07,15.8502,-14.8456,178.33,2.26318,-145.042,452
1569942149,380.07,15.8502,-14.8456,178.33,2.26318,-145.042,452
1569942149,380.07,15.8502,-14.8456,178.33,2.26318,-145.042,452
1569942149,380.07,15.8502,-14.8456,178.33,2.26318,-145.042,452
1569942149,380.07,15.8502,-14.8456,178.33,2.26318,-145.042,452
1569942153,365.001,32.8166,-14.8456,178.33,2.50488,-145.635,408
1569942153,365.001,32.705,-14.8456,178.33,2.50488,-145.635,408
1569942153,365.001,32.705,-14.8456,178.33,2.50488,-145.635,408
1569942153,365.001,32.705,-14.8456,178.33,2.50488,-145.635,408
1569942153,365.001,32.705,-14.8456,178.33,2.50488,-145.635,408
1569942153,365.001,32.705,-14.8456,178.33,2.50488,-145.635,408
1569942153,365.001,32.705,-14.8456,178.33,2.50488,-145.635,408
1569942153,365.001,32.705,-14.8456,178.33,2.50488,-145.635,408
1569942153,365.001,32.705,-14.8456,178.33,2.50488,-145.635,408
1569942153,365.001,32.705,-14.8456,178.33,2.50488,-145.635,408
1569942153,365.001,32.705,-14.8456,178.33,2.50488,-145.635,408
1569942153,365.001,32.705,-14.8456,178.33,2.50488,-145.635,404
1569942153,365.001,32.705,-14.8456,178.33,2.50488,-145.635,404
1569942153,365.001,32.705,-14.8456,178.33,2.50488,-145.635,404
1569942153,365.001,32.705,-14.8456,178.33,2.50488,-145.657,404
1569942153,365.001,32.705,-14.8456,178.33,2.50488,-145.657,408
1569942153,365.001,32.705,-14.8456,178.308,2.50488,-145.657,408
1569942153,365.001,32.705,-14.8456,178.308,2.50488,-145.635,408
1569942153,365.001,32.705,-14.8456,178.33,2.50488,-145.635,408
1569942153,365.001,32.705,-14.8456,178.33,2.50488,-145.635,408
1569942153,365.001,32.705,-14.8456,178.33,2.50488,-145.635,408
1569942153,365.001,32.705,-14.8456,178.33,2.50488,-145.635,408
1569942153,365.001,32.705,-14.8456,178.33,2.50488,-145.635,408
1569942153,365.001,32.705,-14.8456,178.33,2.50488,-145.635,404
1569942153,365.001,32.705,-14.8456,178.33,2.50488,-145.635,404
1569942153,365.001,32.705,-14.8456,178.33,2.50488,-145.635,404
1569942153,365.001,32.705,-14.8456,178.33,2.50488,-145.635,404
1569942153,365.001,32.705,-14.8456,178.33,2.50488,-145.635,404
1569942153,365.001,32.705,-14.8456,178.33,2.50488,-145.635,404
1569942153,365.001,32.705,-14.8456,178.33,2.50488,-145.635,404
1569942153,365.001,32.705,-14.8456,178.33,2.50488,-145.635,404
1569942153,365.001,32.705,-14.8456,178.33,2.50488,-145.635,404
1569942153,365.001,32.705,-14.8456,178.352,2.50488,-145.635,404
1569942153,365.001,32.8166,-14.8456,178.352,2.50488,-145.635,400
1569942153,365.001,32.8166,-14.8456,178.352,2.50488,-145.635,400
1569942153,365.001,32.8166,-14.8456,178.352,2.50488,-145.635,400
1569942153,365.001,32.8166,-14.8456,178.352,2.50488,-145.635,400
1569942153,365.001,32.8166,-14.8456,178.352,2.50488,-145.635,400
1569942153,365.001,32.8166,-14.8456,178.352,2.50488,-145.613,400
1569942153,365.001,32.8166,-14.8456,178.352,2.48291,-145.613,400
1569942153,365.001,32.8166,-14.8456,178.352,2.48291,-145.613,400
1569942153,365.001,32.8166,-14.8456,178.374,2.48291,-145.635,400
1569942153,365.001,32.8166,-14.8456,178.374,2.48291,-145.635,400
1569942153,365.001,32.8166,-14.8456,178.374,2.48291,-145.635,400
1569942153,365.001,32.8166,-14.8456,178.374,2.48291,-145.635,400
1569942153,365.001,32.8166,-14.8456,178.374,2.48291,-145.635,400
1569942153,365.001,32.8166,-14.8456,178.374,2.48291,-145.635,400
1569942153,365.001,32.8166,-14.8456,178.374,2.48291,-145.635,404
1569942153,365.001,32.8166,-14.8456,178.374,2.48291,-145.635,404
1569942153,365.001,32.8166,-14.8456,178.374,2.48291,-145.635,404
1569942153,365.001,32.8166,-14.8456,178.374,2.48291,-145.635,404
1569942153,365.001,32.8166,-14.8456,178.374,2.48291,-145.635,404
1569942153,365.001,32.8166,-14.8456,178.374,2.48291,-145.635,404
1569942153,365.001,32.8166,-14.8456,178.374,2.48291,-145.635,404
1569942153,365.001,32.8166,-14.8456,178.374,2.48291,-145.635,404
1569942153,365.001,32.8166,-14.8456,178.374,2.48291,-145.635,404
1569942153,365.001,32.8166,-14.8456,178.352,2.48291,-145.635,404
1569942153,365.001,32.8166,-14.8456,178.352,2.48291,-145.635,404
1569942153,365.001,32.8166,-14.8456,178.352,2.48291,-145.635,404
1569942153,365.001,32.8166,-14.8456,178.352,2.48291,-145.635,404
1569942153,365.001,32.8166,-14.8456,178.352,2.48291,-145.635,404
1569942153,365.001,32.8166,-14.8456,178.352,2.48291,-145.635,404
1569942153,365.001,32.8166,-14.8456,178.352,2.48291,-145.635,404
1569942153,365.001,32.8166,-14.8456,178.352,2.48291,-145.657,404
1569942153,365.001,32.8166,-14.8456,178.352,2.48291,-145.657,404
1569942153,365.001,32.8166,-14.8456,178.352,2.48291,-145.657,404
1569942153,365.001,32.8166,-14.8456,178.352,2.48291,-145.657,404
1569942153,365.001,32.8166,-14.8456,178.352,2.48291,-145.657,404
1569942153,365.001,32.8166,-14.8456,178.352,2.48291,-145.657,404
1569942153,365.001,32.8166,-14.8456,178.352,2.48291,-145.657,404
1569942153,365.001,32.8166,-14.8456,178.352,2.48291,-145.657,404
1569942153,364.889,32.8166,-14.8456,178.352,2.48291,-145.635,404
1569942153,364.889,32.8166,-14.8456,178.352,2.48291,-145.635,408
1569942153,364.889,32.8166,-14.8456,178.352,2.48291,-145.635,408
1569942153,364.889,32.8166,-14.8456,178.352,2.48291,-145.635,408
1569942153,364.889,32.8166,-14.8456,178.352,2.48291,-145.635,408
1569942153,364.889,32.8166,-14.8456,178.352,2.50488,-145.635,408
1569942153,364.889,32.8166,-14.8456,178.352,2.50488,-145.635,408
1569942154,364.889,32.8166,-14.8456,178.352,2.50488,-145.635,408
1569942154,364.889,32.8166,-14.734,178.352,2.50488,-145.635,412
1569942154,365.001,32.8166,-14.734,178.374,2.50488,-145.635,412
1569942154,365.001,32.8166,-14.734,178.374,2.50488,-145.635,412
1569942154,365.001,32.8166,-14.734,178.374,2.50488,-145.635,412
1569942154,365.001,32.8166,-14.734,178.374,2.50488,-145.635,412
1569942154,365.001,32.8166,-14.734,178.374,2.50488,-145.635,412
1569942154,365.001,32.8166,-14.734,178.374,2.50488,-145.635,412
1569942154,365.001,32.8166,-14.8456,178.352,2.50488,-145.635,412
1569942154,365.001,32.8166,-14.8456,178.352,2.50488,-145.635,412
1569942154,365.001,32.8166,-14.8456,178.352,2.50488,-145.635,412
1569942154,365.001,32.8166,-14.8456,178.352,2.50488,-145.635,412
1569942154,365.001,32.8166,-14.8456,178.352,2.48291,-145.635,412
1569942154,365.001,32.8166,-14.8456,178.352,2.48291,-145.635,412
1569942154,365.001,32.705,-14.8456,178.33,2.48291,-145.635,412
1569942154,365.001,32.705,-14.8456,178.33,2.48291,-145.613,416
1569942154,365.001,32.705,-14.8456,178.33,2.48291,-145.613,416
1569942154,365.001,32.705,-14.8456,178.33,2.48291,-145.613,416
1569942154,365.001,32.705,-14.8456,178.33,2.48291,-145.613,416
1569942154,365.001,32.705,-14.8456,178.33,2.48291,-145.613,416
1569942154,365.001,32.705,-14.8456,178.33,2.48291,-145.613,416
1569942154,365.001,32.705,-14.8456,178.33,2.50488,-145.613,416
1569942154,365.001,32.705,-14.8456,178.33,2.50488,-145.613,416
1569942154,365.001,32.705,-14.734,178.33,2.50488,-145.613,416
1569942154,365.001,32.705,-14.734,178.33,2.50488,-145.613,420
1569942154,365.001,32.705,-14.734,178.33,2.50488,-145.613,420
1569942154,365.001,32.705,-14.734,178.33,2.50488,-145.613,420
1569942154,365.001,32.705,-14.734,178.352,2.50488,-145.613,420
1569942154,365.001,32.8166,-14.734,178.352,2.50488,-145.613,416
1569942154,365.001,32.8166,-14.734,178.352,2.50488,-145.613,416
1569942154,365.001,32.8166,-14.8456,178.352,2.50488,-145.613,416
1569942154,365.001,32.8166,-14.8456,178.352,2.50488,-145.613,416
1569942154,365.001,32.8166,-14.8456,178.352,2.50488,-145.613,416
1569942154,365.001,32.8166,-14.8456,178.352,2.48291,-145.613,412
1569942154,365.001,32.8166,-14.8456,178.352,2.48291,-145.613,412
1569942154,365.001,32.8166,-14.8456,178.352,2.48291,-145.613,412
1569942154,365.001,32.8166,-14.8456,178.352,2.48291,-145.613,412
1569942154,365.001,32.8166,-14.8456,178.352,2.48291,-145.613,408
1569942154,365.001,32.8166,-14.8456,178.352,2.48291,-145.613,408
1569942154,365.001,32.8166,-14.8456,178.352,2.48291,-145.613,408
1569942154,365.001,32.8166,-14.8456,178.352,2.48291,-145.613,408
1569942154,365.001,32.8166,-14.8456,178.352,2.48291,-145.613,408
1569942154,365.001,32.8166,-14.8456,178.352,2.48291,-145.613,408
1569942154,365.001,32.8166,-14.8456,178.352,2.48291,-145.613,408
1569942154,365.001,32.8166,-14.8456,178.352,2.48291,-145.613,408
1569942154,365.001,32.8166,-14.8456,178.352,2.50488,-145.613,408
1569942154,365.001,32.8166,-14.8456,178.352,2.50488,-145.613,408
1569942154,365.001,32.8166,-14.8456,178.374,2.50488,-145.613,408
1569942154,365.001,32.8166,-14.8456,178.374,2.50488,-145.613,408
1569942154,365.001,32.8166,-14.8456,178.374,2.50488,-145.613,408
1569942154,365.001,32.8166,-14.8456,178.374,2.50488,-145.635,408
1569942154,365.001,32.8166,-14.8456,178.374,2.50488,-145.635,408
1569942154,365.001,32.8166,-14.8456,178.374,2.50488,-145.635,408
1569942154,365.001,32.8166,-14.8456,178.374,2.50488,-145.635,408
1569942154,365.001,32.8166,-14.8456,178.352,2.50488,-145.635,408
1569942154,365.001,32.8166,-14.8456,178.352,2.50488,-145.635,408
1569942154,365.001,32.8166,-14.8456,178.352,2.50488,-145.635,408
1569942154,365.001,32.8166,-14.8456,178.352,2.50488,-145.635,412
1569942154,365.001,32.8166,-14.8456,178.352,2.50488,-145.635,408
1569942154,365.001,32.8166,-14.8456,178.352,2.50488,-145.635,408
1569942154,365.001,32.8166,-14.8456,178.352,2.50488,-145.635,408
1569942154,365.001,32.8166,-14.8456,178.352,2.48291,-145.635,408
1569942154,365.001,32.8166,-14.8456,178.352,2.48291,-145.635,408
1569942154,365.001,32.8166,-14.8456,178.352,2.48291,-145.635,408
1569942154,365.001,32.8166,-14.8456,178.374,2.48291,-145.635,408
1569942154,365.001,32.8166,-14.8456,178.374,2.48291,-145.635,408
1569942154,365.001,32.9282,-14.8456,178.374,2.48291,-145.635,404
1569942154,365.001,32.9282,-14.8456,178.374,2.48291,-145.657,404
1569942154,365.001,32.9282,-14.8456,178.374,2.48291,-145.657,404
1569942154,365.001,32.9282,-14.8456,178.374,2.48291,-145.657,404
1569942154,365.001,32.9282,-14.8456,178.374,2.48291,-145.657,404
1569942154,365.001,32.9282,-14.8456,178.374,2.48291,-145.657,404
1569942154,365.001,32.9282,-14.8456,178.396,2.48291,-145.657,404
1569942154,365.001,32.9282,-14.8456,178.396,2.48291,-145.657,404
1569942154,365.113,32.9282,-14.8456,178.396,2.48291,-145.657,400
1569942154,365.113,32.9282,-14.8456,178.396,2.48291,-145.657,400
1569942154,365.113,32.9282,-14.8456,178.396,2.48291,-145.657,400
1569942154,365.113,32.9282,-14.8456,178.396,2.48291,-145.657,400
1569942154,365.113,32.9282,-14.8456,178.396,2.48291,-145.657,400
1569942154,365.113,32.9282,-14.8456,178.396,2.48291,-145.657,400
1569942154,365.001,32.9282,-14.8456,178.396,2.48291,-145.657,400
1569942154,365.001,32.9282,-14.8456,178.396,2.48291,-145.657,400
1569942154,365.001,32.9282,-14.8456,178.396,2.48291,-145.657,400
1569942154,365.001,32.9282,-14.8456,178.396,2.48291,-145.657,400
1569942154,365.001,32.9282,-14.8456,178.396,2.50488,-145.657,400
1569942154,365.001,32.9282,-14.8456,178.396,2.50488,-145.657,400
1569942154,365.001,32.9282,-14.8456,178.396,2.50488,-145.657,400
1569942154,365.001,32.9282,-14.8456,178.396,2.50488,-145.657,400
1569942154,365.001,32.9282,-14.8456,178.396,2.50488,-145.657,400
1569942154,365.001,32.9282,-14.8456,178.396,2.48291,-145.657,400
1569942154,365.001,32.9282,-14.8456,178.396,2.48291,-145.657,400
1569942154,365.001,32.9282,-14.8456,178.396,2.48291,-145.657,400
1569942154,365.001,32.9282,-14.8456,178.396,2.48291,-145.657,400
1569942154,365.001,32.9282,-14.8456,178.396,2.48291,-145.657,400
1569942154,365.001,32.9282,-14.8456,178.396,2.48291,-145.635,400
1569942154,365.001,32.9282,-14.8456,178.396,2.48291,-145.635,400
1569942154,365.001,32.9282,-14.8456,178.396,2.48291,-145.635,400
1569942154,365.001,32.9282,-14.8456,178.374,2.48291,-145.635,400
1569942154,365.001,32.9282,-14.8456,178.374,2.48291,-145.635,400
1569942154,365.001,32.9282,-14.8456,178.374,2.48291,-145.635,400
1569942155,365.001,32.9282,-14.8456,178.374,2.48291,-145.635,404
1569942155,365.001,32.9282,-14.8456,178.374,2.48291,-145.635,404
1569942155,365.001,32.9282,-14.8456,178.374,2.48291,-145.635,404
1569942155,365.001,32.9282,-14.8456,178.374,2.48291,-145.635,404
1569942155,365.001,32.9282,-14.8456,178.374,2.48291,-145.635,404
1569942155,365.001,32.9282,-14.8456,178.374,2.48291,-145.635,408
1569942155,365.001,32.9282,-14.8456,178.374,2.48291,-145.635,408
1569942155,365.001,32.9282,-14.8456,178.374,2.48291,-145.635,408
1569942155,365.001,32.9282,-14.8456,178.374,2.50488,-145.635,408
1569942155,365.001,32.9282,-14.8456,178.374,2.50488,-145.635,408
1569942155,365.001,32.9282,-14.8456,178.374,2.50488,-145.635,408
1569942155,365.001,32.9282,-14.8456,178.374,2.50488,-145.635,408
1569942155,365.001,32.9282,-14.8456,178.374,2.50488,-145.657,412
1569942155,365.001,32.9282,-14.8456,178.374,2.50488,-145.657,412
1569942155,365.001,32.9282,-14.8456,178.374,2.50488,-145.635,412
1569942155,365.001,32.9282,-14.8456,178.374,2.50488,-145.635,412
1569942155,365.001,32.9282,-14.8456,178.374,2.50488,-145.635,412
1569942155,365.001,32.9282,-14.8456,178.374,2.48291,-145.635,412
1569942155,365.001,32.9282,-14.8456,178.374,2.48291,-145.635,412
1569942155,364.889,32.9282,-14.8456,178.374,2.48291,-145.635,412
1569942155,364.889,32.9282,-14.8456,178.374,2.48291,-145.635,416
1569942155,364.889,32.9282,-14.8456,178.374,2.48291,-145.635,416
1569942155,364.889,32.9282,-14.8456,178.374,2.48291,-145.635,416
1569942155,365.001,32.9282,-14.8456,178.374,2.48291,-145.635,416
1569942155,365.001,32.8166,-14.8456,178.374,2.48291,-145.635,416
1569942155,365.001,32.8166,-14.8456,178.374,2.48291,-145.635,416
1569942155,365.001,32.8166,-14.8456,178.374,2.48291,-145.635,416
1569942155,365.001,32.8166,-14.8456,178.374,2.48291,-145.635,416
1569942155,365.001,32.8166,-14.8456,178.374,2.48291,-145.635,416
1569942155,365.001,32.8166,-14.8456,178.374,2.48291,-145.635,416
1569942155,365.001,32.8166,-14.8456,178.374,2.48291,-145.635,416
1569942155,365.001,32.8166,-14.8456,178.374,2.48291,-145.635,416
1569942155,365.001,32.9282,-14.8456,178.374,2.48291,-145.635,416
1569942155,365.001,32.9282,-14.8456,178.374,2.48291,-145.635,416
1569942155,365.001,32.9282,-14.8456,178.374,2.48291,-145.635,416
1569942155,365.001,32.9282,-14.8456,178.374,2.48291,-145.635,416
1569942155,365.001,32.9282,-14.8456,178.374,2.48291,-145.635,416
1569942155,365.001,32.9282,-14.8456,178.374,2.48291,-145.635,416
1569942155,365.001,32.9282,-14.8456,178.374,2.48291,-145.635,416
1569942155,365.001,32.9282,-14.8456,178.374,2.48291,-145.635,416
1569942155,365.001,32.9282,-14.8456,178.374,2.48291,-145.635,416
1569942155,365.001,32.9282,-14.8456,178.374,2.48291,-145.635,416
1569942155,365.001,32.9282,-14.8456,178.374,2.48291,-145.635,416
1569942155,365.001,32.9282,-14.8456,178.374,2.48291,-145.635,416
1569942155,365.001,32.9282,-14.8456,178.374,2.48291,-145.635,416
1569942155,365.001,32.9282,-14.8456,178.396,2.48291,-145.635,416
1569942155,365.001,32.9282,-14.8456,178.396,2.48291,-145.635,416
1569942155,364.889,32.9282,-14.8456,178.396,2.48291,-145.657,420
1569942155,364.889,32.9282,-14.8456,178.396,2.48291,-145.657,420
1569942155,364.889,32.9282,-14.8456,178.396,2.48291,-145.657,420
1569942155,364.889,32.9282,-14.8456,178.396,2.48291,-145.657,420
1569942155,364.889,32.9282,-14.8456,178.396,2.48291,-145.657,424
1569942155,364.889,32.9282,-14.8456,178.396,2.48291,-145.657,424
1569942155,364.889,32.9282,-14.8456,178.396,2.48291,-145.657,424
1569942155,364.889,32.9282,-14.8456,178.374,2.48291,-145.657,424
1569942155,364.889,32.9282,-14.8456,178.374,2.48291,-145.657,424
1569942155,364.889,32.9282,-14.8456,178.374,2.48291,-145.657,428
1569942155,364.889,32.9282,-14.8456,178.374,2.48291,-145.657,428
1569942155,364.889,32.9282,-14.8456,178.374,2.48291,-145.657,428
1569942155,364.889,32.8166,-14.8456,178.374,2.50488,-145.657,428
1569942155,364.889,32.8166,-14.8456,178.374,2.50488,-145.657,428
1569942155,364.889,32.8166,-14.8456,178.374,2.50488,-145.657,428
1569942155,364.889,32.8166,-14.8456,178.374,2.50488,-145.635,428
1569942155,364.889,32.8166,-14.8456,178.374,2.50488,-145.635,428
1569942155,364.889,32.8166,-14.8456,178.374,2.50488,-145.635,428
1569942155,364.889,32.8166,-14.734,178.374,2.50488,-145.635,428
1569942155,364.889,32.8166,-14.734,178.374,2.50488,-145.635,428
1569942155,364.889,32.8166,-14.734,178.374,2.50488,-145.635,428
1569942155,364.889,32.8166,-14.734,178.374,2.50488,-145.635,428
1569942155,364.889,32.8166,-14.734,178.374,2.50488,-145.635,428
1569942155,364.889,32.8166,-14.734,178.374,2.50488,-145.635,428
1569942155,364.889,32.8166,-14.734,178.374,2.50488,-145.635,424
1569942155,364.889,32.8166,-14.734,178.374,2.50488,-145.635,424
1569942155,364.889,32.8166,-14.734,178.374,2.50488,-145.635,424
1569942155,364.889,32.8166,-14.734,178.374,2.50488,-145.635,424
1569942155,364.889,32.8166,-14.734,178.374,2.50488,-145.635,424
1569942155,364.889,32.8166,-14.734,178.374,2.50488,-145.635,424
1569942155,364.889,32.8166,-14.734,178.374,2.50488,-145.635,420
1569942155,364.889,32.8166,-14.734,178.374,2.50488,-145.635,420
1569942155,364.889,32.8166,-14.734,178.374,2.50488,-145.635,420
1569942155,364.889,32.8166,-14.8456,178.352,2.50488,-145.635,416
1569942155,365.001,32.8166,-14.8456,178.352,2.50488,-145.635,416
1569942155,365.001,32.8166,-14.8456,178.352,2.50488,-145.635,416
1569942155,365.001,32.8166,-14.8456,178.352,2.50488,-145.635,416
1569942155,365.001,32.8166,-14.8456,178.352,2.50488,-145.635,416
1569942155,365.001,32.8166,-14.8456,178.352,2.50488,-145.635,416
1569942155,365.001,32.8166,-14.8456,178.352,2.50488,-145.635,416
1569942155,365.001,32.8166,-14.8456,178.352,2.50488,-145.635,416
1569942155,365.001,32.8166,-14.8456,178.352,2.50488,-145.635,416
1569942155,365.001,32.8166,-14.734,178.352,2.50488,-145.635,416
1569942155,365.001,32.8166,-14.734,178.352,2.50488,-145.635,416
1569942155,365.001,32.8166,-14.734,178.352,2.50488,-145.635,416
1569942155,365.001,32.8166,-14.734,178.352,2.50488,-145.635,416
1569942155,365.001,32.8166,-14.734,178.352,2.50488,-145.635,416
1569942155,365.001,32.8166,-14.734,178.352,2.50488,-145.635,416
1569942155,365.001,32.8166,-14.734,178.352,2.50488,-145.635,416
1569942155,365.001,32.8166,-14.734,178.352,2.50488,-145.635,416
1569942155,365.001,32.8166,-14.734,178.352,2.50488,-145.635,420
1569942155,365.001,32.8166,-14.734,178.352,2.50488,-145.635,420
1569942155,365.001,32.8166,-14.734,178.352,2.50488,-145.635,420
1569942156,365.001,32.8166,-14.734,178.352,2.50488,-145.635,420
1569942156,365.001,32.8166,-14.734,178.352,2.52686,-145.635,420
1569942156,365.001,32.8166,-14.734,178.352,2.52686,-145.635,424
1569942156,365.001,32.8166,-14.734,178.352,2.52686,-145.635,424
1569942156,365.001,32.8166,-14.734,178.352,2.52686,-145.635,424
1569942156,365.001,32.8166,-14.734,178.352,2.52686,-145.635,424
1569942156,365.001,32.8166,-14.734,178.374,2.52686,-145.635,424
1569942156,365.001,32.8166,-14.734,178.374,2.52686,-145.635,424
1569942156,365.001,32.8166,-14.734,178.374,2.52686,-145.657,424
1569942156,365.001,32.8166,-14.734,178.374,2.52686,-145.657,424
1569942156,365.001,32.8166,-14.734,178.374,2.52686,-145.657,424
1569942156,365.001,32.8166,-14.734,178.374,2.52686,-145.657,424
1569942156,365.001,32.8166,-14.734,178.374,2.52686,-145.657,424
1569942156,365.001,32.8166,-14.734,178.374,2.50488,-145.657,424
1569942156,365.001,32.8166,-14.734,178.374,2.50488,-145.635,424
1569942156,365.001,32.8166,-14.734,178.374,2.50488,-145.635,424
1569942156,365.001,32.8166,-14.734,178.374,2.50488,-145.635,424
1569942156,365.001,32.8166,-14.8456,178.374,2.50488,-145.635,424
1569942156,365.001,32.8166,-14.8456,178.374,2.50488,-145.635,424
1569942156,365.001,32.8166,-14.8456,178.374,2.50488,-145.635,420
1569942156,365.001,32.8166,-14.8456,178.374,2.48291,-145.635,420
1569942156,365.001,32.8166,-14.8456,178.374,2.48291,-145.635,420
1569942156,365.001,32.8166,-14.8456,178.374,2.48291,-145.635,420
1569942156,365.001,32.8166,-14.8456,178.374,2.48291,-145.635,420
1569942156,365.001,32.8166,-14.8456,178.374,2.48291,-145.635,420
1569942156,365.001,32.8166,-14.8456,178.374,2.48291,-145.635,420
1569942156,365.001,32.8166,-14.8456,178.374,2.48291,-145.635,420
1569942156,365.001,32.8166,-14.734,178.374,2.50488,-145.635,420
1569942156,365.001,32.8166,-14.734,178.374,2.50488,-145.635,420
1569942156,365.001,32.8166,-14.734,178.374,2.50488,-145.635,420
1569942156,365.001,32.8166,-14.734,178.374,2.50488,-145.635,420
1569942156,365.001,32.8166,-14.734,178.374,2.50488,-145.635,420
1569942156,365.001,32.8166,-14.734,178.374,2.50488,-145.635,420
1569942156,365.001,32.8166,-14.734,178.374,2.50488,-145.635,420
1569942156,365.001,32.8166,-14.734,178.374,2.50488,-145.635,420
1569942156,365.001,32.8166,-14.734,178.374,2.50488,-145.635,420
1569942156,365.001,32.8166,-14.734,178.374,2.50488,-145.635,420
1569942156,365.001,32.8166,-14.734,178.374,2.50488,-145.635,420
1569942156,365.001,32.8166,-14.734,178.374,2.50488,-145.635,420
1569942156,365.001,32.8166,-14.734,178.374,2.50488,-145.635,420
1569942156,365.001,32.8166,-14.734,178.374,2.50488,-145.635,420
1569942156,365.001,32.8166,-14.8456,178.374,2.50488,-145.635,420
1569942156,365.001,32.8166,-14.8456,178.374,2.50488,-145.635,420
1569942156,365.001,32.8166,-14.8456,178.374,2.50488,-145.635,420
1569942156,365.001,32.8166,-14.734,178.374,2.50488,-145.635,420
1569942156,365.001,32.8166,-14.734,178.374,2.50488,-145.635,420
1569942156,365.001,32.9282,-14.734,178.374,2.50488,-145.635,416
1569942156,365.001,32.9282,-14.734,178.374,2.50488,-145.635,416
1569942156,365.001,32.9282,-14.734,178.374,2.50488,-145.635,416
1569942156,365.001,32.9282,-14.8456,178.396,2.50488,-145.635,416
1569942156,365.001,32.9282,-14.8456,178.396,2.50488,-145.635,416
1569942156,365.001,32.9282,-14.8456,178.396,2.50488,-145.635,416
1569942156,365.001,32.9282,-14.8456,178.396,2.50488,-145.635,416
1569942156,365.001,32.9282,-14.8456,178.396,2.50488,-145.635,416
1569942156,365.001,32.9282,-14.8456,178.396,2.48291,-145.635,416
1569942156,365.001,32.9282,-14.8456,178.396,2.48291,-145.635,416
1569942156,365.001,32.9282,-14.8456,178.396,2.48291,-145.635,416
1569942156,365.001,32.9282,-14.8456,178.396,2.48291,-145.635,416
1569942156,365.001,32.9282,-14.8456,178.396,2.48291,-145.635,412
1569942156,365.001,32.9282,-14.8456,178.396,2.48291,-145.635,412
1569942156,365.001,32.9282,-14.8456,178.396,2.48291,-145.635,412
1569942156,365.001,32.9282,-14.8456,178.396,2.48291,-145.635,412
1569942156,365.001,32.9282,-14.8456,178.374,2.48291,-145.635,412
1569942156,365.001,32.9282,-14.8456,178.374,2.48291,-145.635,412
1569942156,365.001,32.9282,-14.8456,178.374,2.50488,-145.635,412
1569942156,365.001,32.9282,-14.8456,178.374,2.50488,-145.657,412
1569942156,365.001,32.9282,-14.8456,178.374,2.50488,-145.657,412
1569942156,365.001,32.9282,-14.8456,178.374,2.50488,-145.657,412
1569942156,365.001,32.9282,-14.8456,178.374,2.50488,-145.657,412
1569942156,365.001,32.9282,-14.8456,178.374,2.50488,-145.657,408
1569942156,365.001,32.9282,-14.8456,178.374,2.50488,-145.657,408
1569942156,365.001,32.9282,-14.8456,178.374,2.50488,-145.657,408
1569942156,365.001,32.9282,-14.8456,178.374,2.50488,-145.657,408
1569942156,365.001,32.9282,-14.8456,178.396,2.50488,-145.657,408
1569942156,365.001,32.9282,-14.8456,178.396,2.50488,-145.657,408
1569942156,365.001,32.9282,-14.8456,178.396,2.50488,-145.657,408
1569942156,365.001,32.9282,-14.8456,178.396,2.50488,-145.657,408
1569942156,365.001,32.9282,-14.8456,178.396,2.50488,-145.657,408
1569942156,365.001,32.9282,-14.8456,178.374,2.50488,-145.657,408
1569942156,365.001,32.9282,-14.734,178.374,2.50488,-145.657,408
1569942156,365.001,32.9282,-14.734,178.374,2.50488,-145.657,408
1569942156,365.001,32.9282,-14.734,178.374,2.50488,-145.657,408
1569942156,365.001,32.9282,-14.734,178.374,2.50488,-145.657,408
1569942156,365.001,32.9282,-14.734,178.374,2.50488,-145.657,408
1569942156,365.001,32.9282,-14.734,178.374,2.52686,-145.657,408
1569942156,365.001,32.9282,-14.734,178.374,2.52686,-145.657,412
1569942156,365.001,32.9282,-14.734,178.374,2.50488,-145.657,412
1569942156,365.001,32.9282,-14.734,178.374,2.50488,-145.657,412
1569942156,365.001,32.9282,-14.734,178.374,2.50488,-145.657,412
1569942156,365.001,32.9282,-14.734,178.374,2.50488,-145.657,412
1569942156,365.001,32.9282,-14.734,178.374,2.50488,-145.657,412
1569942156,365.001,32.9282,-14.734,178.374,2.50488,-145.657,412
1569942156,365.001,32.9282,-14.734,178.374,2.50488,-145.657,412
1569942156,365.001,32.9282,-14.734,178.374,2.50488,-145.657,416
1569942156,365.001,32.9282,-14.734,178.374,2.50488,-145.635,416
1569942156,365.001,32.9282,-14.734,178.374,2.50488,-145.635,416
1569942156,365.001,32.9282,-14.734,178.374,2.50488,-145.635,416
1569942156,364.889,32.9282,-14.734,178.396,2.50488,-145.635,416
1569942156,365.001,32.9282,-14.734,178.396,2.50488,-145.635,416
1569942156,365.001,32.9282,-14.734,178.396,2.50488,-145.635,416
1569942157,365.001,32.9282,-14.734,178.396,2.50488,-145.635,416
1569942157,364.889,32.9282,-14.8456,178.396,2.50488,-145.635,416
1569942157,364.889,32.9282,-14.8456,178.396,2.50488,-145.635,416
1569942157,364.889,32.9282,-14.8456,178.396,2.50488,-145.635,416
1569942157,364.889,32.9282,-14.8456,178.396,2.50488,-145.635,416
1569942157,364.889,32.9282,-14.8456,178.396,2.50488,-145.635,412
1569942157,364.889,32.9282,-14.8456,178.396,2.50488,-145.635,412
1569942157,364.889,32.9282,-14.8456,178.374,2.50488,-145.635,412
1569942157,364.889,32.9282,-14.8456,178.374,2.50488,-145.635,412
1569942157,364.889,32.9282,-14.8456,178.374,2.50488,-145.635,412
1569942157,364.889,32.9282,-14.8456,178.374,2.50488,-145.635,412
1569942157,364.889,32.9282,-14.8456,178.374,2.50488,-145.635,412
1569942157,364.889,32.9282,-14.8456,178.374,2.50488,-145.635,412
1569942157,364.889,32.9282,-14.8456,178.374,2.50488,-145.635,412
1569942157,364.889,32.9282,-14.8456,178.374,2.50488,-145.635,412
1569942157,364.889,32.9282,-14.8456,178.374,2.50488,-145.635,416
1569942157,364.889,32.9282,-14.8456,178.374,2.50488,-145.635,416
1569942157,364.889,32.9282,-14.8456,178.396,2.50488,-145.635,416
1569942157,364.889,32.9282,-14.8456,178.396,2.50488,-145.635,416
1569942157,364.889,32.9282,-14.8456,178.396,2.50488,-145.635,416
1569942157,364.889,32.9282,-14.8456,178.396,2.50488,-145.635,416
1569942157,364.889,32.9282,-14.8456,178.396,2.50488,-145.635,416
1569942157,364.889,32.9282,-14.8456,178.396,2.50488,-145.613,416
1569942157,364.889,32.9282,-14.8456,178.374,2.50488,-145.613,416
1569942157,364.889,32.9282,-14.8456,178.374,2.50488,-145.613,416
1569942157,364.889,32.9282,-14.8456,178.374,2.50488,-145.613,416
1569942157,364.889,32.8166,-14.8456,178.374,2.50488,-145.613,416
1569942157,364.889,32.8166,-14.8456,178.374,2.50488,-145.613,416
1569942157,364.889,32.8166,-14.8456,178.374,2.50488,-145.613,416
1569942157,364.889,32.8166,-14.8456,178.374,2.48291,-145.613,416
1569942157,364.889,32.8166,-14.8456,178.374,2.48291,-145.613,416
1569942157,364.889,32.8166,-14.8456,178.374,2.48291,-145.613,416
1569942157,364.889,32.8166,-14.8456,178.374,2.48291,-145.613,416
1569942157,364.889,32.8166,-14.8456,178.374,2.48291,-145.613,412
1569942157,365.001,32.8166,-14.8456,178.374,2.48291,-145.613,412
1569942157,365.001,32.8166,-14.8456,178.374,2.50488,-145.613,412
1569942157,365.001,32.8166,-14.8456,178.374,2.50488,-145.613,412
1569942157,365.001,32.8166,-14.8456,178.374,2.50488,-145.613,408
1569942157,364.889,32.8166,-14.8456,178.374,2.50488,-145.613,408
1569942157,364.889,32.8166,-14.8456,178.374,2.50488,-145.613,408
1569942157,364.889,32.8166,-14.8456,178.374,2.50488,-145.613,408
1569942157,364.889,32.8166,-14.8456,178.374,2.50488,-145.613,408
1569942157,364.889,32.8166,-14.8456,178.352,2.50488,-145.635,408
1569942157,364.889,32.8166,-14.8456,178.352,2.50488,-145.635,408
1569942157,364.889,32.8166,-14.8456,178.352,2.50488,-145.635,408
1569942157,364.889,32.8166,-14.8456,178.352,2.50488,-145.635,404
1569942157,364.889,32.8166,-14.8456,178.352,2.50488,-145.635,404
1569942157,364.889,32.8166,-14.8456,178.352,2.48291,-145.635,404
1569942157,364.889,32.8166,-14.8456,178.352,2.48291,-145.635,404
1569942157,365.001,32.8166,-14.8456,178.352,2.50488,-145.635,404
1569942157,365.001,32.8166,-14.8456,178.352,2.50488,-145.635,404
1569942157,365.001,32.8166,-14.8456,178.352,2.50488,-145.635,404
1569942157,365.001,32.8166,-14.8456,178.352,2.50488,-145.635,404
1569942157,365.001,32.8166,-14.8456,178.352,2.50488,-145.635,400
1569942157,365.001,32.8166,-14.8456,178.352,2.50488,-145.635,400
1569942157,365.001,32.8166,-14.8456,178.352,2.50488,-145.635,400
1569942157,365.001,32.8166,-14.8456,178.352,2.50488,-145.635,400
1569942157,365.001,32.8166,-14.8456,178.352,2.50488,-145.635,400
1569942157,365.001,32.8166,-14.8456,178.352,2.48291,-145.635,400
1569942157,365.001,32.8166,-14.8456,178.352,2.48291,-145.635,400
1569942157,365.001,32.8166,-14.8456,178.352,2.48291,-145.635,400
1569942157,365.001,32.8166,-14.8456,178.352,2.48291,-145.635,400
1569942157,365.001,32.8166,-14.8456,178.352,2.48291,-145.635,400
1569942157,365.001,32.8166,-14.8456,178.374,2.48291,-145.635,400
1569942157,365.001,32.8166,-14.8456,178.374,2.48291,-145.635,400
1569942157,365.001,32.8166,-14.8456,178.374,2.48291,-145.635,400
1569942157,365.001,32.8166,-14.8456,178.374,2.48291,-145.635,400
1569942157,365.001,32.8166,-14.8456,178.374,2.48291,-145.635,400
1569942157,365.001,32.8166,-14.8456,178.374,2.50488,-145.635,400
1569942157,365.001,32.9282,-14.734,178.374,2.50488,-145.635,400
1569942157,365.001,32.9282,-14.734,178.374,2.50488,-145.635,400
1569942157,365.001,32.9282,-14.734,178.374,2.50488,-145.635,400
1569942157,365.001,32.9282,-14.734,178.374,2.50488,-145.635,400
1569942157,365.001,32.9282,-14.734,178.374,2.50488,-145.635,400
1569942157,365.001,32.9282,-14.734,178.374,2.50488,-145.635,400
1569942157,365.001,32.9282,-14.734,178.374,2.50488,-145.635,400
1569942157,365.001,32.9282,-14.734,178.374,2.50488,-145.635,400
1569942157,365.001,32.9282,-14.734,178.396,2.50488,-145.635,400
1569942157,365.001,32.9282,-14.734,178.396,2.50488,-145.635,400
1569942157,365.001,32.9282,-14.734,178.396,2.50488,-145.635,400
1569942157,365.001,32.9282,-14.734,178.396,2.50488,-145.635,400
1569942157,365.001,32.9282,-14.734,178.396,2.50488,-145.635,400
1569942157,365.001,32.9282,-14.734,178.396,2.50488,-145.635,400
1569942157,365.001,32.9282,-14.734,178.396,2.50488,-145.635,400
1569942157,365.001,32.9282,-14.734,178.396,2.50488,-145.635,400
1569942157,365.001,32.9282,-14.734,178.396,2.50488,-145.635,400
1569942157,365.001,32.9282,-14.734,178.396,2.50488,-145.635,400
1569942157,365.001,32.9282,-14.734,178.396,2.50488,-145.635,400
1569942157,365.001,32.9282,-14.734,178.396,2.50488,-145.635,400
1569942157,365.001,32.9282,-14.734,178.396,2.50488,-145.635,396
1569942157,365.001,32.9282,-14.734,178.396,2.50488,-145.635,396
1569942157,365.001,32.9282,-14.734,178.396,2.50488,-145.635,396
1569942157,365.001,32.9282,-14.734,178.396,2.50488,-145.635,396
1569942157,365.001,32.9282,-14.734,178.396,2.50488,-145.635,396
1569942157,365.001,32.9282,-14.734,178.396,2.50488,-145.635,396
1569942157,365.001,32.9282,-14.734,178.396,2.50488,-145.635,396
1569942157,365.001,32.9282,-14.734,178.396,2.50488,-145.635,396
1569942157,365.001,32.9282,-14.734,178.396,2.50488,-145.635,396
1569942157,365.001,32.9282,-14.734,178.396,2.50488,-145.635,396
1569942157,365.001,32.9282,-14.734,178.396,2.50488,-145.635,396
1569942158,365.001,32.9282,-14.8456,178.396,2.50488,-145.635,400
1569942158,365.001,32.9282,-14.8456,178.396,2.50488,-145.635,400
1569942158,365.001,32.9282,-14.8456,178.396,2.50488,-145.635,400
1569942158,365.001,32.9282,-14.8456,178.396,2.50488,-145.635,400
1569942158,365.001,32.9282,-14.8456,178.396,2.50488,-145.635,400
1569942158,365.001,32.9282,-14.8456,178.396,2.50488,-145.635,400
1569942158,365.001,32.9282,-14.8456,178.396,2.50488,-145.635,400
1569942158,365.001,32.9282,-14.8456,178.396,2.50488,-145.635,400
1569942158,365.001,32.9282,-14.8456,178.396,2.48291,-145.635,400
1569942158,365.001,32.9282,-14.8456,178.396,2.48291,-145.635,400
1569942158,365.001,32.9282,-14.8456,178.396,2.48291,-145.635,404
1569942158,365.001,32.9282,-14.8456,178.396,2.48291,-145.635,404
1569942158,365.001,32.9282,-14.8456,178.396,2.48291,-145.635,404
1569942158,365.001,32.9282,-14.8456,178.396,2.48291,-145.635,404
1569942158,365.001,32.9282,-14.8456,178.396,2.48291,-145.613,404
1569942158,365.001,32.9282,-14.8456,178.396,2.48291,-145.613,404
1569942158,365.001,32.9282,-14.8456,178.396,2.48291,-145.613,404
1569942158,365.001,32.9282,-14.8456,178.396,2.48291,-145.613,404
1569942158,365.001,32.9282,-14.8456,178.396,2.48291,-145.613,404
1569942158,365.001,32.9282,-14.8456,178.396,2.48291,-145.613,404
1569942158,365.001,32.9282,-14.8456,178.396,2.48291,-145.613,404
1569942158,365.001,32.9282,-14.8456,178.396,2.48291,-145.613,404
1569942161,341.784,57.9313,-15.4037,178.418,2.04346,-145.876,364
1569942161,341.784,57.9313,-15.4037,178.418,2.04346,-145.876,364
1569942161,341.784,57.9313,-15.4037,178.418,2.04346,-145.876,364
1569942161,341.784,57.9313,-15.4037,178.418,2.02148,-145.876,364
1569942161,341.784,57.9313,-15.4037,178.418,2.02148,-145.876,364
1569942161,341.784,57.9313,-15.4037,178.418,2.02148,-145.876,364
1569942161,341.784,57.9313,-15.4037,178.418,2.02148,-145.876,364
1569942161,341.784,57.9313,-15.4037,178.418,2.02148,-145.876,364
1569942161,341.784,57.9313,-15.4037,178.418,2.02148,-145.898,364
1569942161,341.784,57.9313,-15.4037,178.418,2.02148,-145.898,364
1569942161,341.784,57.9313,-15.4037,178.418,2.02148,-145.898,364
1569942161,341.784,57.9313,-15.4037,178.418,2.02148,-145.898,364
1569942161,341.784,57.9313,-15.4037,178.418,2.02148,-145.898,364
1569942161,341.784,57.9313,-15.4037,178.418,2.02148,-145.898,360
1569942161,341.784,57.9313,-15.4037,178.418,2.02148,-145.898,360
1569942161,341.784,57.9313,-15.4037,178.418,2.02148,-145.898,360
1569942161,341.784,57.9313,-15.4037,178.418,2.02148,-145.898,360
1569942161,341.784,57.9313,-15.4037,178.418,2.04346,-145.898,360
1569942161,341.784,57.9313,-15.4037,178.418,2.04346,-145.898,360
1569942161,341.784,57.9313,-15.4037,178.418,2.04346,-145.898,360
1569942161,341.784,57.9313,-15.4037,178.418,2.04346,-145.898,360
1569942161,341.784,57.9313,-15.4037,178.418,2.04346,-145.898,360
1569942161,341.784,57.9313,-15.4037,178.418,2.04346,-145.898,356
1569942161,341.784,57.9313,-15.4037,178.418,2.04346,-145.898,356
1569942161,341.784,57.9313,-15.4037,178.44,2.04346,-145.898,356
1569942161,341.784,57.9313,-15.4037,178.44,2.04346,-145.898,356
1569942161,341.784,57.9313,-15.4037,178.44,2.04346,-145.898,356
1569942161,341.784,57.9313,-15.4037,178.44,2.04346,-145.898,356
1569942161,341.784,57.9313,-15.4037,178.44,2.04346,-145.898,356
1569942161,341.784,57.9313,-15.4037,178.44,2.04346,-145.898,356
1569942161,341.784,58.043,-15.4037,178.44,2.04346,-145.898,356
1569942161,341.784,58.043,-15.4037,178.44,2.04346,-145.898,360
1569942161,341.784,58.043,-15.4037,178.44,2.04346,-145.898,360
1569942161,341.784,58.043,-15.4037,178.44,2.04346,-145.898,360
1569942161,341.784,58.043,-15.4037,178.44,2.04346,-145.898,360
1569942161,341.784,58.043,-15.4037,178.44,2.04346,-145.898,360
1569942161,341.784,58.043,-15.4037,178.44,2.04346,-145.898,360
1569942161,341.784,58.043,-15.4037,178.44,2.04346,-145.876,360
1569942161,341.784,58.043,-15.4037,178.44,2.04346,-145.876,360
1569942161,341.784,58.043,-15.4037,178.44,2.04346,-145.876,360
1569942161,341.784,58.043,-15.4037,178.44,2.04346,-145.876,360
1569942161,341.784,57.9313,-15.4037,178.44,2.04346,-145.876,360
1569942161,341.784,57.9313,-15.4037,178.44,2.04346,-145.876,360
1569942161,341.784,57.9313,-15.4037,178.44,2.04346,-145.876,360
1569942161,341.784,57.9313,-15.4037,178.44,2.04346,-145.876,360
1569942161,341.784,58.043,-15.4037,178.44,2.04346,-145.876,360
1569942161,341.784,58.043,-15.4037,178.44,2.04346,-145.876,360
1569942161,341.784,58.043,-15.4037,178.44,2.04346,-145.876,360
1569942161,341.784,58.043,-15.4037,178.462,2.04346,-145.876,356
1569942161,341.784,58.043,-15.4037,178.462,2.04346,-145.876,356
1569942161,341.784,58.043,-15.4037,178.462,2.04346,-145.876,356
1569942161,341.784,58.043,-15.4037,178.462,2.04346,-145.876,356
1569942161,341.784,58.043,-15.4037,178.462,2.04346,-145.876,356
1569942161,341.784,58.043,-15.4037,178.462,2.04346,-145.876,360
1569942161,341.784,58.043,-15.4037,178.462,2.04346,-145.876,360
1569942161,341.784,58.043,-15.4037,178.462,2.04346,-145.876,360
1569942161,341.784,57.9313,-15.4037,178.462,2.04346,-145.876,360
1569942161,341.784,57.9313,-15.4037,178.462,2.04346,-145.876,360
1569942161,341.784,57.9313,-15.4037,178.462,2.02148,-145.876,360
1569942161,341.784,57.9313,-15.4037,178.44,2.02148,-145.876,360
1569942161,341.784,57.9313,-15.4037,178.44,2.02148,-145.876,360
1569942161,341.784,57.9313,-15.4037,178.44,2.02148,-145.876,360
1569942161,341.784,57.9313,-15.4037,178.44,2.02148,-145.876,360
1569942161,341.784,57.9313,-15.4037,178.44,2.02148,-145.876,360
1569942161,341.784,57.9313,-15.4037,178.44,2.02148,-145.876,360
1569942161,341.784,57.9313,-15.4037,178.44,2.02148,-145.876,360
1569942161,341.784,57.9313,-15.4037,178.44,2.02148,-145.876,360
1569942161,341.784,57.9313,-15.4037,178.44,2.02148,-145.876,360
1569942161,341.784,57.9313,-15.4037,178.44,2.02148,-145.876,356
1569942161,341.895,57.9313,-15.4037,178.44,2.02148,-145.876,356
1569942161,341.895,57.9313,-15.4037,178.44,2.02148,-145.876,356
1569942161,341.895,57.9313,-15.4037,178.44,2.02148,-145.876,356
1569942161,341.895,57.9313,-15.4037,178.44,2.02148,-145.876,356
1569942162,341.784,57.9313,-15.4037,178.44,2.02148,-145.876,356
1569942162,341.784,57.9313,-15.4037,178.44,2.02148,-145.876,356
1569942162,341.784,57.9313,-15.4037,178.44,2.02148,-145.876,356
1569942162,341.784,57.9313,-15.4037,178.44,2.02148,-145.876,356
1569942162,341.784,57.9313,-15.4037,178.44,2.02148,-145.876,356
1569942162,341.784,57.9313,-15.4037,178.44,2.02148,-145.876,360
1569942162,341.784,57.9313,-15.4037,178.462,2.02148,-145.876,360
1569942162,341.784,57.9313,-15.4037,178.462,2.02148,-145.876,360
1569942162,341.784,58.043,-15.4037,178.462,2.02148,-145.876,360
1569942162,341.784,58.043,-15.4037,178.462,2.02148,-145.876,360
1569942162,341.784,58.043,-15.4037,178.462,2.02148,-145.876,364
1569942162,341.784,58.043,-15.4037,178.462,2.02148,-145.876,364
1569942162,341.784,58.043,-15.4037,178.462,2.02148,-145.854,364
1569942162,341.784,58.043,-15.4037,178.462,2.02148,-145.854,364
1569942162,341.784,58.043,-15.4037,178.462,2.02148,-145.854,368
1569942162,341.784,58.043,-15.4037,178.462,2.02148,-145.854,368
1569942162,341.784,58.043,-15.4037,178.462,2.02148,-145.854,368
1569942162,341.784,58.043,-15.4037,178.462,2.02148,-145.854,372
1569942162,341.784,58.043,-15.4037,178.462,2.04346,-145.876,372
1569942162,341.784,58.043,-15.4037,178.462,2.04346,-145.876,372
1569942162,341.784,58.043,-15.4037,178.462,2.04346,-145.876,376
1569942162,341.784,58.043,-15.4037,178.462,2.04346,-145.876,376
1569942162,341.784,58.043,-15.4037,178.462,2.04346,-145.876,376
1569942162,341.784,58.043,-15.4037,178.462,2.04346,-145.876,376
1569942162,341.784,58.043,-15.4037,178.462,2.04346,-145.876,376
1569942162,341.784,58.043,-15.4037,178.462,2.04346,-145.876,376
1569942162,341.784,58.043,-15.4037,178.462,2.04346,-145.876,376
1569942162,341.784,58.043,-15.4037,178.462,2.04346,-145.876,376
1569942162,341.784,58.043,-15.4037,178.462,2.04346,-145.876,376
1569942162,341.784,58.043,-15.4037,178.462,2.04346,-145.876,376
1569942162,341.784,58.043,-15.4037,178.462,2.02148,-145.876,376
1569942162,341.895,58.043,-15.4037,178.462,2.02148,-145.876,376
1569942162,341.895,58.043,-15.4037,178.462,2.02148,-145.876,376
1569942162,341.895,58.043,-15.4037,178.462,2.02148,-145.876,376
1569942162,341.895,58.043,-15.4037,178.462,2.04346,-145.876,376
1569942162,341.895,57.9313,-15.4037,178.462,2.04346,-145.876,376
1569942162,341.895,57.9313,-15.4037,178.462,2.04346,-145.876,376
1569942162,341.895,57.9313,-15.4037,178.462,2.04346,-145.876,376
1569942162,341.895,57.9313,-15.4037,178.462,2.04346,-145.876,376
1569942162,341.895,57.9313,-15.4037,178.462,2.02148,-145.876,376
1569942162,341.895,57.9313,-15.4037,178.462,2.02148,-145.876,376
1569942162,341.895,57.9313,-15.4037,178.462,2.02148,-145.876,376
1569942162,341.895,57.9313,-15.4037,178.462,2.02148,-145.876,376
1569942162,341.895,57.9313,-15.4037,178.44,2.02148,-145.876,376
1569942162,341.895,57.9313,-15.4037,178.44,2.02148,-145.876,376
1569942162,341.895,57.9313,-15.4037,178.44,2.02148,-145.876,376
1569942162,341.895,57.9313,-15.4037,178.44,2.02148,-145.876,376
1569942162,341.895,57.9313,-15.4037,178.44,2.02148,-145.876,376
1569942162,341.895,57.9313,-15.4037,178.44,2.02148,-145.876,372
1569942162,341.895,58.043,-15.4037,178.44,2.02148,-145.876,372
1569942162,341.895,58.043,-15.4037,178.44,2.02148,-145.876,372
1569942162,341.895,58.043,-15.4037,178.44,2.02148,-145.876,372
1569942162,341.895,58.043,-15.4037,178.44,2.02148,-145.876,372
1569942162,341.895,58.043,-15.4037,178.462,2.02148,-145.876,368
1569942162,341.895,58.043,-15.4037,178.462,2.02148,-145.876,368
1569942162,341.895,58.043,-15.4037,178.462,2.02148,-145.876,368
1569942162,341.895,58.043,-15.4037,178.462,2.02148,-145.876,368
1569942162,341.895,58.043,-15.4037,178.462,2.02148,-145.876,368
1569942162,341.895,58.043,-15.4037,178.462,2.02148,-145.876,368
1569942162,341.784,58.043,-15.4037,178.462,2.02148,-145.876,368
1569942162,341.784,58.043,-15.4037,178.462,2.02148,-145.876,368
1569942162,341.784,58.043,-15.4037,178.462,2.02148,-145.876,368
1569942162,341.784,58.043,-15.4037,178.462,1.99951,-145.876,368
1569942162,341.784,58.043,-15.4037,178.462,1.99951,-145.876,368
1569942162,341.784,58.043,-15.4037,178.462,1.99951,-145.876,368
1569942162,341.784,58.043,-15.4037,178.462,1.99951,-145.876,368
1569942162,341.784,58.043,-15.4037,178.462,1.99951,-145.876,372
1569942162,341.784,58.043,-15.4037,178.462,1.99951,-145.876,372
1569942162,341.784,58.043,-15.4037,178.462,1.99951,-145.876,372
1569942162,341.784,58.043,-15.5153,178.462,1.99951,-145.876,372
1569942162,341.784,58.043,-15.5153,178.462,1.99951,-145.876,372
1569942162,341.784,58.043,-15.5153,178.462,1.99951,-145.876,376
1569942162,341.784,58.043,-15.4037,178.462,1.99951,-145.876,376
1569942162,341.784,58.043,-15.4037,178.462,1.99951,-145.876,376
1569942162,341.784,58.043,-15.4037,178.462,1.99951,-145.876,376
1569942162,341.784,58.043,-15.4037,178.462,1.99951,-145.876,376
1569942162,341.784,58.043,-15.4037,178.462,1.99951,-145.876,380
1569942162,341.784,58.043,-15.4037,178.462,1.99951,-145.876,380
1569942162,341.784,58.043,-15.4037,178.462,1.99951,-145.876,380
1569942162,341.784,57.9313,-15.4037,178.462,1.99951,-145.876,380
1569942162,341.784,57.9313,-15.4037,178.44,1.99951,-145.876,380
1569942162,341.784,57.9313,-15.4037,178.44,1.99951,-145.876,380
1569942162,341.784,57.9313,-15.4037,178.44,1.99951,-145.876,380
1569942162,341.784,57.9313,-15.4037,178.44,1.99951,-145.876,380
1569942162,341.784,57.9313,-15.4037,178.44,1.99951,-145.876,380
1569942162,341.784,57.9313,-15.4037,178.44,1.99951,-145.876,380
1569942162,341.784,57.9313,-15.4037,178.44,1.99951,-145.876,380
1569942162,341.784,57.9313,-15.4037,178.44,1.99951,-145.876,380
1569942162,341.784,57.9313,-15.4037,178.44,1.99951,-145.876,380
1569942162,341.784,57.9313,-15.4037,178.44,1.99951,-145.876,380
1569942162,341.784,57.9313,-15.4037,178.44,1.99951,-145.876,380
1569942162,341.784,57.9313,-15.4037,178.44,1.99951,-145.876,380
1569942162,341.784,57.9313,-15.4037,178.44,1.99951,-145.876,380
1569942162,341.784,57.9313,-15.4037,178.44,1.99951,-145.876,376
1569942162,341.784,57.9313,-15.4037,178.44,1.99951,-145.876,376
1569942162,341.784,57.9313,-15.4037,178.44,1.99951,-145.876,376
1569942162,341.784,57.9313,-15.4037,178.44,1.99951,-145.876,376
1569942162,341.784,57.9313,-15.4037,178.44,1.99951,-145.876,376
1569942162,341.784,57.9313,-15.4037,178.44,1.99951,-145.876,376
1569942162,341.784,57.9313,-15.4037,178.44,2.02148,-145.876,372
1569942163,341.784,57.9313,-15.4037,178.44,2.02148,-145.876,372
1569942163,341.784,57.9313,-15.4037,178.44,2.02148,-145.876,372
1569942163,341.784,57.9313,-15.4037,178.44,2.02148,-145.876,372
1569942163,341.784,57.9313,-15.4037,178.44,2.02148,-145.876,372
1569942163,341.784,57.9313,-15.4037,178.44,2.02148,-145.876,372
1569942163,341.784,57.9313,-15.4037,178.44,2.02148,-145.876,368
1569942163,341.784,57.9313,-15.4037,178.44,2.02148,-145.898,368
1569942163,341.784,57.9313,-15.4037,178.44,2.02148,-145.898,368
1569942163,341.784,57.9313,-15.4037,178.44,2.02148,-145.898,368
1569942163,341.784,57.9313,-15.4037,178.44,2.02148,-145.898,368
1569942163,341.784,57.9313,-15.4037,178.44,2.02148,-145.898,368
1569942163,341.784,57.9313,-15.4037,178.44,2.02148,-145.898,368
1569942163,341.784,57.9313,-15.4037,178.44,2.04346,-145.898,368
1569942163,341.784,57.9313,-15.4037,178.44,2.04346,-145.898,368
1569942163,341.784,57.9313,-15.4037,178.44,2.04346,-145.898,368
1569942163,341.784,57.9313,-15.4037,178.44,2.04346,-145.898,368
1569942163,341.784,57.9313,-15.4037,178.44,2.04346,-145.898,368
1569942163,341.784,57.9313,-15.4037,178.44,2.04346,-145.898,368
1569942163,341.784,57.9313,-15.4037,178.44,2.04346,-145.898,368
1569942163,341.784,57.9313,-15.4037,178.462,2.04346,-145.898,368
1569942163,341.784,57.9313,-15.4037,178.462,2.04346,-145.898,368
1569942163,341.784,57.9313,-15.4037,178.462,2.04346,-145.898,368
1569942163,341.784,58.043,-15.4037,178.462,2.02148,-145.898,368
1569942163,341.784,58.043,-15.4037,178.462,2.02148,-145.898,368
1569942163,341.784,58.043,-15.4037,178.462,2.02148,-145.898,368
1569942163,341.784,58.043,-15.4037,178.462,2.02148,-145.898,364
1569942163,341.784,58.043,-15.4037,178.462,2.02148,-145.898,364
1569942163,341.784,58.043,-15.4037,178.462,2.02148,-145.898,364
1569942163,341.784,58.043,-15.4037,178.462,2.02148,-145.898,364
1569942163,341.784,58.043,-15.4037,178.462,2.02148,-145.898,364
1569942163,341.784,58.043,-15.4037,178.462,2.02148,-145.898,364
1569942163,341.784,58.043,-15.4037,178.462,2.02148,-145.898,364
1569942163,341.784,58.043,-15.4037,178.462,2.02148,-145.898,364
1569942163,341.784,58.043,-15.4037,178.462,2.02148,-145.898,364
1569942163,341.784,58.043,-15.4037,178.462,2.02148,-145.898,364
1569942163,341.784,58.043,-15.4037,178.462,2.02148,-145.898,364
1569942163,341.784,58.043,-15.4037,178.484,2.02148,-145.898,364
1569942163,341.784,58.043,-15.4037,178.484,2.02148,-145.898,364
1569942163,341.784,58.043,-15.4037,178.484,2.02148,-145.898,364
1569942163,341.784,58.043,-15.4037,178.484,2.02148,-145.898,364
1569942163,341.784,58.043,-15.4037,178.484,2.02148,-145.898,364
1569942163,341.784,58.043,-15.4037,178.484,2.02148,-145.898,360
1569942163,341.784,58.043,-15.4037,178.484,2.02148,-145.898,360
1569942163,341.784,58.043,-15.4037,178.462,2.02148,-145.898,360
1569942163,341.784,58.043,-15.4037,178.462,2.02148,-145.898,360
1569942163,341.784,58.043,-15.4037,178.462,2.02148,-145.898,360
1569942163,341.784,58.043,-15.4037,178.462,2.02148,-145.898,360
1569942163,341.784,58.043,-15.4037,178.462,2.02148,-145.898,360
1569942163,341.784,58.043,-15.4037,178.462,2.02148,-145.898,360
1569942163,341.784,58.043,-15.4037,178.462,2.02148,-145.898,360
1569942163,341.784,58.043,-15.4037,178.462,2.02148,-145.898,360
1569942163,341.784,58.043,-15.4037,178.462,2.02148,-145.898,360
1569942163,341.784,58.043,-15.4037,178.462,2.02148,-145.898,364
1569942163,341.784,58.043,-15.4037,178.462,2.02148,-145.898,364
1569942163,341.784,58.043,-15.4037,178.462,2.02148,-145.898,364
1569942163,341.784,58.043,-15.4037,178.462,2.02148,-145.898,364
1569942163,341.784,58.043,-15.4037,178.462,2.02148,-145.898,364
1569942163,341.784,58.043,-15.4037,178.462,2.02148,-145.898,364
1569942163,341.784,58.043,-15.4037,178.462,2.02148,-145.898,364
1569942163,341.784,58.043,-15.4037,178.462,2.02148,-145.898,364
1569942163,341.784,58.043,-15.4037,178.462,2.02148,-145.898,364
1569942163,341.784,58.043,-15.4037,178.462,2.02148,-145.898,368
1569942163,341.784,58.043,-15.4037,178.484,2.02148,-145.898,368
1569942163,341.784,58.043,-15.4037,178.484,2.02148,-145.898,368
1569942163,341.784,58.043,-15.4037,178.484,2.02148,-145.898,368
1569942163,341.784,58.043,-15.4037,178.484,2.02148,-145.898,368
1569942163,341.784,58.043,-15.4037,178.484,2.02148,-145.898,368
1569942163,341.784,58.043,-15.4037,178.484,2.02148,-145.898,368
1569942163,341.784,58.043,-15.4037,178.484,2.02148,-145.898,368
1569942163,341.784,58.043,-15.4037,178.484,2.02148,-145.898,368
1569942163,341.784,58.043,-15.4037,178.484,2.02148,-145.898,368
1569942163,341.784,58.043,-15.4037,178.484,2.02148,-145.898,368
1569942163,341.784,58.043,-15.4037,178.484,2.02148,-145.898,368
1569942163,341.784,58.043,-15.4037,178.484,2.02148,-145.898,368
1569942163,341.784,58.043,-15.4037,178.484,2.02148,-145.898,368
1569942163,341.784,58.043,-15.4037,178.484,2.02148,-145.898,368
1569942163,341.784,58.043,-15.4037,178.484,2.02148,-145.898,368
1569942163,341.784,58.043,-15.4037,178.484,2.02148,-145.898,368
1569942163,341.784,58.043,-15.4037,178.484,2.02148,-145.898,368
1569942163,341.784,58.043,-15.4037,178.484,2.02148,-145.898,368
1569942163,341.784,58.043,-15.4037,178.484,2.02148,-145.898,368
1569942163,341.784,58.043,-15.4037,178.462,2.02148,-145.898,368
1569942163,341.784,58.043,-15.4037,178.462,1.99951,-145.898,368
1569942163,341.784,58.043,-15.4037,178.462,1.99951,-145.898,368
1569942163,341.784,58.043,-15.4037,178.462,1.99951,-145.898,368
1569942163,341.784,58.043,-15.4037,178.462,2.02148,-145.898,372
1569942163,341.784,58.043,-15.4037,178.462,2.02148,-145.898,372
1569942163,341.784,58.043,-15.4037,178.462,2.02148,-145.898,372
1569942163,341.784,58.043,-15.4037,178.462,1.99951,-145.898,372
1569942163,341.784,58.043,-15.4037,178.462,1.99951,-145.898,372
1569942163,341.784,58.043,-15.4037,178.462,1.99951,-145.898,372
1569942163,341.784,58.043,-15.4037,178.462,1.99951,-145.898,372
1569942163,341.784,58.043,-15.4037,178.462,1.99951,-145.898,376
1569942163,341.784,58.043,-15.4037,178.462,1.99951,-145.898,376
1569942163,341.784,58.043,-15.4037,178.44,1.99951,-145.898,376
1569942163,341.784,58.043,-15.4037,178.44,1.99951,-145.898,376
1569942163,341.784,57.9313,-15.4037,178.44,1.99951,-145.898,376
1569942163,341.784,57.9313,-15.4037,178.44,1.99951,-145.898,380
1569942163,341.784,57.9313,-15.4037,178.44,1.99951,-145.898,380
1569942163,341.784,57.9313,-15.4037,178.44,1.99951,-145.898,380
1569942164,341.784,57.9313,-15.4037,178.44,1.99951,-145.898,380
1569942164,341.784,57.9313,-15.4037,178.44,2.02148,-145.898,380
1569942164,341.784,57.9313,-15.4037,178.44,2.02148,-145.898,380
1569942164,341.784,57.9313,-15.4037,178.44,2.02148,-145.898,380
1569942164,341.784,57.9313,-15.4037,178.44,2.02148,-145.898,380
1569942164,341.784,57.9313,-15.4037,178.44,2.02148,-145.898,380
1569942164,341.784,57.9313,-15.4037,178.44,2.02148,-145.898,376
1569942164,341.784,57.9313,-15.4037,178.44,2.02148,-145.898,376
1569942164,341.784,57.9313,-15.4037,178.44,2.02148,-145.898,376
1569942164,341.784,57.9313,-15.4037,178.44,2.02148,-145.898,376
1569942164,341.784,57.9313,-15.4037,178.44,2.02148,-145.898,376
1569942164,341.784,57.9313,-15.4037,178.44,2.02148,-145.898,376
1569942164,341.784,57.9313,-15.4037,178.44,2.02148,-145.898,372
1569942164,341.784,57.9313,-15.4037,178.44,2.02148,-145.898,372
1569942164,341.784,57.9313,-15.4037,178.44,2.02148,-145.898,372
1569942164,341.784,57.9313,-15.4037,178.44,2.02148,-145.898,372
1569942164,341.784,57.9313,-15.4037,178.44,2.02148,-145.876,372
1569942164,341.784,57.9313,-15.4037,178.44,2.02148,-145.876,368
1569942164,341.784,57.9313,-15.4037,178.462,2.02148,-145.876,368
1569942164,341.784,57.9313,-15.4037,178.462,2.02148,-145.876,368
1569942164,341.784,57.9313,-15.4037,178.462,2.04346,-145.876,368
1569942164,341.784,57.9313,-15.4037,178.462,2.04346,-145.876,368
1569942164,341.784,57.9313,-15.4037,178.462,2.04346,-145.876,368
1569942164,341.784,57.9313,-15.4037,178.462,2.04346,-145.876,364
1569942164,341.784,57.9313,-15.4037,178.462,2.04346,-145.876,364
1569942164,341.784,57.9313,-15.4037,178.462,2.04346,-145.876,364
1569942164,341.784,57.9313,-15.4037,178.462,2.04346,-145.876,364
1569942164,341.895,57.9313,-15.2921,178.462,2.04346,-145.876,364
1569942164,341.895,57.9313,-15.2921,178.462,2.04346,-145.876,364
1569942164,341.895,57.9313,-15.2921,178.462,2.04346,-145.876,364
1569942164,341.895,57.9313,-15.2921,178.462,2.04346,-145.876,364
1569942164,341.895,57.9313,-15.2921,178.462,2.04346,-145.876,360
1569942164,341.895,57.9313,-15.2921,178.462,2.04346,-145.876,360
1569942164,341.895,57.9313,-15.2921,178.462,2.04346,-145.876,360
1569942164,341.895,58.043,-15.2921,178.462,2.04346,-145.876,360
1569942164,341.895,58.043,-15.4037,178.462,2.04346,-145.876,360
1569942164,341.895,57.9313,-15.4037,178.462,2.04346,-145.876,360
1569942164,341.895,57.9313,-15.4037,178.462,2.04346,-145.876,360
1569942164,341.895,57.9313,-15.4037,178.462,2.04346,-145.876,360
1569942164,341.895,57.9313,-15.4037,178.462,2.04346,-145.876,360
1569942164,341.895,57.9313,-15.4037,178.462,2.04346,-145.876,360
1569942164,341.895,57.9313,-15.4037,178.462,2.04346,-145.876,360
1569942164,341.895,57.9313,-15.4037,178.462,2.04346,-145.876,360
1569942164,341.895,57.9313,-15.4037,178.462,2.04346,-145.876,356
1569942164,341.895,58.043,-15.4037,178.462,2.04346,-145.876,360
1569942164,341.784,58.043,-15.4037,178.462,2.04346,-145.876,360
1569942164,341.784,58.043,-15.4037,178.462,2.04346,-145.876,360
1569942164,341.784,58.043,-15.4037,178.462,2.04346,-145.876,360
1569942164,341.784,58.043,-15.4037,178.462,2.04346,-145.876,360
1569942164,341.784,58.043,-15.4037,178.462,2.04346,-145.876,360
1569942164,341.784,58.043,-15.4037,178.462,2.04346,-145.876,360
1569942164,341.784,58.043,-15.4037,178.462,2.04346,-145.876,360
1569942164,341.784,58.043,-15.4037,178.462,2.04346,-145.876,360
1569942164,341.784,58.043,-15.4037,178.462,2.04346,-145.876,364
1569942164,341.784,58.043,-15.4037,178.462,2.04346,-145.876,364
1569942164,341.784,58.043,-15.4037,178.462,2.04346,-145.876,364
1569942164,341.784,58.043,-15.4037,178.462,2.04346,-145.876,364
1569942164,341.784,58.043,-15.4037,178.462,2.04346,-145.876,364
1569942164,341.784,58.043,-15.4037,178.462,2.04346,-145.876,364
1569942164,341.784,58.043,-15.4037,178.462,2.04346,-145.876,368
1569942164,341.784,58.043,-15.4037,178.462,2.04346,-145.876,368
1569942164,341.784,58.043,-15.2921,178.462,2.04346,-145.876,368
1569942164,341.784,58.043,-15.2921,178.462,2.04346,-145.876,372
1569942164,341.784,58.043,-15.2921,178.462,2.04346,-145.876,372
1569942164,341.784,58.043,-15.2921,178.462,2.04346,-145.876,372
1569942164,341.784,58.043,-15.2921,178.462,2.04346,-145.876,372
1569942164,341.784,58.043,-15.2921,178.462,2.04346,-145.876,372
1569942164,341.784,58.043,-15.2921,178.462,2.06543,-145.876,376
1569942164,341.784,58.043,-15.2921,178.462,2.06543,-145.876,376
1569942164,341.784,58.043,-15.2921,178.462,2.06543,-145.876,376
1569942164,341.784,58.043,-15.2921,178.462,2.06543,-145.876,376
1569942164,341.784,58.043,-15.2921,178.462,2.06543,-145.876,376
1569942164,341.784,58.043,-15.2921,178.462,2.06543,-145.876,376
1569942164,341.784,58.043,-15.2921,178.462,2.06543,-145.876,376
1569942164,341.784,58.043,-15.2921,178.462,2.06543,-145.876,376
1569942164,341.784,58.043,-15.2921,178.462,2.06543,-145.876,380
1569942164,341.784,58.043,-15.2921,178.462,2.06543,-145.876,380
1569942164,341.784,58.043,-15.2921,178.462,2.06543,-145.876,380
1569942164,341.784,58.043,-15.2921,178.462,2.06543,-145.876,380
1569942164,341.784,58.043,-15.2921,178.462,2.06543,-145.876,380
1569942164,341.784,58.043,-15.2921,178.462,2.06543,-145.876,384
1569942164,341.784,58.043,-15.2921,178.462,2.06543,-145.876,384
1569942164,341.784,58.043,-15.2921,178.462,2.06543,-145.876,384
1569942164,341.784,58.043,-15.2921,178.462,2.04346,-145.876,384
1569942164,341.784,58.043,-15.2921,178.462,2.04346,-145.876,384
1569942164,341.784,58.043,-15.2921,178.462,2.04346,-145.876,384
1569942164,341.784,58.043,-15.2921,178.462,2.04346,-145.876,384
1569942164,341.784,58.043,-15.2921,178.462,2.04346,-145.876,384
1569942164,341.784,58.043,-15.2921,178.462,2.04346,-145.876,384
1569942164,341.784,58.043,-15.4037,178.462,2.04346,-145.876,384
1569942164,341.784,58.043,-15.4037,178.462,2.04346,-145.876,384
1569942164,341.784,58.043,-15.4037,178.462,2.04346,-145.876,384
1569942164,341.784,58.043,-15.4037,178.462,2.04346,-145.876,384
1569942164,341.784,58.043,-15.4037,178.462,2.04346,-145.876,384
1569942164,341.784,58.043,-15.4037,178.462,2.02148,-145.876,384
1569942164,341.784,58.043,-15.4037,178.462,2.02148,-145.876,384
1569942164,341.784,58.043,-15.4037,178.462,2.02148,-145.876,384
1569942164,341.784,58.043,-15.4037,178.462,2.02148,-145.876,384
1569942164,341.784,58.043,-15.4037,178.462,2.02148,-145.876,380
1569942164,341.784,58.043,-15.4037,178.462,2.02148,-145.876,380
1569942165,341.784,58.043,-15.4037,178.462,2.02148,-145.876,380
1569942165,341.784,58.043,-15.4037,178.462,2.02148,-145.876,380
1569942165,341.784,58.043,-15.4037,178.462,2.02148,-145.876,380
1569942165,341.784,58.043,-15.4037,178.462,2.02148,-145.898,380
1569942165,341.784,58.043,-15.4037,178.484,2.02148,-145.898,380
1569942165,341.784,58.043,-15.4037,178.484,2.02148,-145.898,380
1569942165,341.784,58.043,-15.4037,178.484,2.02148,-145.898,380
1569942165,341.784,58.043,-15.4037,178.484,2.02148,-145.898,380
1569942165,341.784,58.043,-15.4037,178.484,2.02148,-145.898,380
1569942165,341.784,58.043,-15.4037,178.462,2.02148,-145.898,380
1569942165,341.784,58.043,-15.4037,178.462,2.02148,-145.898,380
1569942165,341.784,58.043,-15.4037,178.462,2.02148,-145.898,380
1569942165,341.784,58.043,-15.4037,178.462,2.02148,-145.898,380
1569942165,341.784,58.043,-15.4037,178.462,2.02148,-145.898,380
1569942165,341.784,58.043,-15.4037,178.462,2.02148,-145.898,380
1569942165,341.672,58.043,-15.4037,178.462,2.02148,-145.898,380
1569942165,341.672,58.043,-15.4037,178.462,2.02148,-145.898,380
1569942165,341.672,58.043,-15.4037,178.462,2.02148,-145.898,380
1569942165,341.784,58.043,-15.4037,178.462,2.02148,-145.898,380
1569942165,341.784,58.043,-15.4037,178.462,2.02148,-145.898,380
1569942165,341.784,58.043,-15.4037,178.462,2.02148,-145.898,380
1569942165,341.784,58.043,-15.4037,178.462,2.02148,-145.898,380
1569942165,341.784,58.043,-15.4037,178.462,2.02148,-145.898,380
1569942165,341.784,58.043,-15.4037,178.462,2.02148,-145.898,376
1569942165,341.784,58.043,-15.4037,178.462,2.02148,-145.898,376
1569942165,341.784,58.043,-15.4037,178.484,2.02148,-145.898,376
1569942165,341.784,58.043,-15.4037,178.484,2.02148,-145.898,376
1569942165,341.784,58.043,-15.4037,178.462,2.02148,-145.898,376
1569942165,341.784,58.043,-15.4037,178.462,2.02148,-145.898,376
1569942165,341.784,58.043,-15.4037,178.462,2.02148,-145.898,376
1569942165,341.784,58.043,-15.4037,178.462,2.02148,-145.898,376
1569942165,341.784,58.043,-15.4037,178.462,2.02148,-145.898,376
1569942165,341.784,58.043,-15.4037,178.462,2.02148,-145.898,376
1569942165,341.784,58.043,-15.4037,178.462,2.02148,-145.898,376
1569942165,341.784,58.043,-15.4037,178.462,2.02148,-145.898,376
1569942165,341.784,58.043,-15.4037,178.462,2.02148,-145.898,372
1569942165,341.784,58.043,-15.4037,178.462,2.02148,-145.898,372
1569942165,341.784,58.043,-15.4037,178.462,2.02148,-145.898,372
1569942165,341.784,58.043,-15.4037,178.462,2.02148,-145.898,372
1569942165,341.784,58.043,-15.4037,178.462,2.02148,-145.898,372
1569942165,341.784,58.043,-15.4037,178.462,1.99951,-145.898,372
1569942165,341.784,58.043,-15.4037,178.462,1.99951,-145.898,372
1569942165,341.784,58.043,-15.4037,178.462,1.99951,-145.898,372
1569942165,341.784,58.043,-15.4037,178.462,1.99951,-145.898,372
1569942165,341.784,58.043,-15.4037,178.462,1.99951,-145.898,376
1569942165,341.784,58.043,-15.4037,178.484,1.99951,-145.898,376
1569942165,341.784,58.043,-15.4037,178.484,1.99951,-145.898,376
1569942165,341.784,58.043,-15.4037,178.462,1.99951,-145.898,376
1569942165,341.784,58.043,-15.4037,178.462,1.99951,-145.898,376
1569942165,341.895,58.043,-15.4037,178.462,1.99951,-145.898,376
1569942165,341.895,58.043,-15.4037,178.462,1.99951,-145.898,376
1569942165,341.895,58.043,-15.4037,178.462,1.99951,-145.898,372
1569942165,341.895,58.043,-15.4037,178.462,1.99951,-145.898,372
1569942165,341.895,58.043,-15.4037,178.462,1.99951,-145.898,372
1569942165,341.895,58.043,-15.4037,178.462,1.99951,-145.898,372
1569942165,341.895,58.043,-15.4037,178.462,1.99951,-145.898,372
1569942165,341.895,58.043,-15.4037,178.462,1.99951,-145.898,372
1569942165,341.895,58.043,-15.4037,178.462,1.99951,-145.898,368
1569942165,341.895,58.043,-15.4037,178.462,1.99951,-145.898,368
1569942165,341.895,58.043,-15.4037,178.462,1.99951,-145.898,368
1569942165,341.895,58.043,-15.4037,178.462,1.99951,-145.898,368
1569942165,341.895,58.043,-15.4037,178.44,2.02148,-145.898,368
1569942165,341.895,57.9313,-15.4037,178.44,2.02148,-145.898,368
1569942165,341.895,57.9313,-15.4037,178.44,2.02148,-145.898,364
1569942165,341.895,57.9313,-15.4037,178.44,2.02148,-145.898,364
1569942165,341.895,57.9313,-15.4037,178.44,2.02148,-145.898,364
1569942165,341.895,57.9313,-15.4037,178.44,2.02148,-145.898,364
1569942165,341.895,57.9313,-15.4037,178.44,2.02148,-145.898,364
1569942165,341.895,57.9313,-15.4037,178.44,2.02148,-145.898,364
1569942165,341.895,57.9313,-15.4037,178.44,2.02148,-145.898,364
1569942165,341.895,57.9313,-15.4037,178.44,2.02148,-145.898,364
1569942165,341.895,57.9313,-15.4037,178.44,2.02148,-145.898,364
1569942165,341.895,57.9313,-15.4037,178.418,2.02148,-145.898,364
1569942165,341.895,57.9313,-15.4037,178.418,2.02148,-145.898,364
1569942165,341.895,57.9313,-15.4037,178.418,2.02148,-145.898,364
1569942165,341.895,57.9313,-15.4037,178.418,2.02148,-145.898,364
1569942165,341.895,57.9313,-15.4037,178.418,2.02148,-145.898,364
1569942165,341.784,57.9313,-15.4037,178.418,1.99951,-145.898,364
1569942165,341.784,57.9313,-15.4037,178.418,1.99951,-145.898,368
1569942165,341.784,57.9313,-15.4037,178.418,1.99951,-145.898,368
1569942165,341.784,57.9313,-15.4037,178.418,1.99951,-145.898,368
1569942165,341.784,57.9313,-15.4037,178.418,1.99951,-145.898,368
1569942165,341.784,57.9313,-15.4037,178.418,1.99951,-145.898,368
1569942165,341.784,57.9313,-15.4037,178.418,1.99951,-145.898,368
1569942165,341.784,57.9313,-15.4037,178.418,2.02148,-145.898,368
1569942165,341.784,57.9313,-15.4037,178.418,2.02148,-145.898,368
1569942165,341.784,57.9313,-15.4037,178.418,2.02148,-145.898,368
1569942165,341.895,57.9313,-15.4037,178.418,2.02148,-145.898,372
1569942165,341.784,57.9313,-15.4037,178.418,2.02148,-145.898,372
1569942165,341.784,57.9313,-15.4037,178.418,2.02148,-145.898,372
1569942165,341.784,57.9313,-15.4037,178.418,2.02148,-145.898,372
1569942165,341.784,57.9313,-15.4037,178.418,2.02148,-145.898,376
1569942165,341.784,57.9313,-15.4037,178.418,2.02148,-145.898,376
1569942165,341.784,57.9313,-15.4037,178.418,2.02148,-145.898,376
1569942165,341.784,57.9313,-15.4037,178.44,2.02148,-145.898,376
1569942165,341.784,57.9313,-15.4037,178.44,2.02148,-145.898,380
1569942165,341.784,57.9313,-15.4037,178.44,2.02148,-145.898,380
1569942165,341.784,57.9313,-15.4037,178.44,2.02148,-145.898,380
1569942165,341.784,57.9313,-15.4037,178.44,2.02148,-145.898,380
1569942166,341.784,57.9313,-15.4037,178.44,2.02148,-145.898,380
1569942166,341.784,57.9313,-15.4037,178.44,2.02148,-145.898,380
1569942166,341.784,57.9313,-15.4037,178.44,2.02148,-145.898,380
1569942166,341.784,57.9313,-15.4037,178.44,2.02148,-145.898,380
1569942166,341.784,57.9313,-15.4037,178.44,2.02148,-145.898,376
1569942166,341.784,57.9313,-15.4037,178.44,2.02148,-145.898,376
1569942166,341.784,57.9313,-15.4037,178.44,2.02148,-145.898,376
1569942166,341.784,57.9313,-15.4037,178.44,2.02148,-145.898,376
1569942166,341.784,57.9313,-15.4037,178.44,2.02148,-145.898,376
1569942166,341.784,57.9313,-15.4037,178.44,2.02148,-145.898,376
1569942166,341.784,57.9313,-15.4037,178.44,2.02148,-145.898,376
1569942166,341.784,57.9313,-15.4037,178.44,2.02148,-145.898,376
1569942166,341.784,57.9313,-15.4037,178.44,1.99951,-145.898,376
1569942166,341.784,57.9313,-15.4037,178.44,1.99951,-145.898,376
1569942166,341.784,57.9313,-15.4037,178.44,1.99951,-145.898,376
1569942166,341.784,57.9313,-15.4037,178.44,1.99951,-145.92,376
1569942166,341.784,57.9313,-15.4037,178.44,1.99951,-145.92,376
1569942166,341.784,57.9313,-15.4037,178.44,1.99951,-145.92,376
1569942166,341.784,57.9313,-15.4037,178.44,1.99951,-145.898,372
1569942166,341.784,58.043,-15.4037,178.44,1.99951,-145.898,372
1569942166,341.784,58.043,-15.4037,178.44,1.99951,-145.898,372
1569942166,341.784,58.043,-15.4037,178.44,1.99951,-145.898,372
1569942166,341.784,58.043,-15.4037,178.44,1.99951,-145.898,372
1569942166,341.784,57.9313,-15.4037,178.44,1.99951,-145.898,372
1569942166,341.784,57.9313,-15.4037,178.44,1.99951,-145.898,372
1569942166,341.784,57.9313,-15.4037,178.44,1.99951,-145.898,372
1569942166,341.784,57.9313,-15.4037,178.44,1.99951,-145.898,372
1569942166,341.784,57.9313,-15.4037,178.44,1.99951,-145.898,372
1569942169,303.275,99.1195,-16.0734,178.528,1.49414,-145.063,300
1569942169,303.275,99.1195,-16.0734,178.528,1.49414,-145.063,300
1569942169,303.275,99.1195,-16.0734,178.528,1.49414,-145.063,300
1569942169,303.275,99.1195,-16.0734,178.528,1.49414,-145.063,300
1569942169,303.275,99.1195,-16.0734,178.528,1.49414,-145.063,300
1569942169,303.275,99.1195,-16.0734,178.528,1.49414,-145.063,300
1569942169,303.275,99.1195,-16.0734,178.528,1.51611,-145.063,300
1569942169,303.275,99.1195,-16.0734,178.528,1.51611,-145.063,300
1569942169,303.275,99.1195,-16.0734,178.528,1.51611,-145.063,300
1569942169,303.275,99.1195,-16.0734,178.528,1.51611,-145.063,304
1569942169,303.275,99.1195,-16.0734,178.528,1.49414,-145.063,304
1569942169,303.275,99.1195,-16.0734,178.528,1.49414,-145.063,304
1569942169,303.275,99.1195,-16.0734,178.528,1.49414,-145.063,304
1569942169,303.275,99.1195,-16.0734,178.528,1.49414,-145.063,304
1569942169,303.275,99.1195,-16.0734,178.528,1.49414,-145.063,304
1569942169,303.275,99.1195,-16.0734,178.528,1.49414,-145.063,304
1569942169,303.275,99.1195,-16.0734,178.528,1.49414,-145.063,304
1569942169,303.275,99.1195,-16.0734,178.528,1.49414,-145.063,304
1569942169,303.275,99.1195,-16.0734,178.528,1.49414,-145.063,304
1569942169,303.275,99.1195,-16.0734,178.528,1.49414,-145.063,304
1569942169,303.275,99.1195,-16.0734,178.528,1.49414,-145.063,304
1569942169,303.275,99.1195,-16.0734,178.528,1.49414,-145.063,304
1569942169,303.275,99.1195,-16.0734,178.528,1.49414,-145.063,304
1569942169,303.275,99.1195,-16.0734,178.528,1.49414,-145.063,304
1569942169,303.275,99.1195,-16.0734,178.528,1.49414,-145.063,304
1569942169,303.275,99.1195,-16.0734,178.528,1.49414,-145.063,304
1569942169,303.275,99.1195,-16.0734,178.528,1.49414,-145.063,304
1569942169,303.275,99.1195,-16.0734,178.528,1.49414,-145.063,304
1569942169,303.275,99.1195,-16.0734,178.528,1.49414,-145.063,304
1569942169,303.275,99.1195,-16.0734,178.528,1.49414,-145.063,304
1569942169,303.275,99.1195,-16.0734,178.528,1.49414,-145.063,304
1569942169,303.275,99.1195,-16.0734,178.528,1.49414,-145.063,304
1569942169,303.275,99.1195,-16.0734,178.528,1.49414,-145.063,304
1569942169,303.275,99.1195,-16.0734,178.528,1.51611,-145.063,304
1569942169,303.275,99.1195,-16.0734,178.528,1.51611,-145.063,304
1569942169,303.275,99.1195,-16.0734,178.528,1.51611,-145.063,304
1569942169,303.275,99.1195,-16.0734,178.528,1.51611,-145.063,304
1569942169,303.275,99.1195,-16.0734,178.528,1.51611,-145.063,304
1569942169,303.275,99.1195,-16.0734,178.528,1.51611,-145.063,308
1569942169,303.275,99.1195,-16.0734,178.528,1.51611,-145.063,308
1569942169,303.275,99.1195,-16.0734,178.528,1.51611,-145.063,308
1569942169,303.275,99.1195,-16.0734,178.528,1.51611,-145.063,308
1569942169,303.275,99.1195,-16.0734,178.528,1.51611,-145.063,308
1569942169,303.275,99.1195,-16.0734,178.528,1.51611,-145.063,308
1569942169,303.275,99.1195,-16.0734,178.528,1.51611,-145.063,308
1569942169,303.275,99.1195,-16.0734,178.528,1.51611,-145.063,308
1569942169,303.275,99.1195,-16.0734,178.528,1.51611,-145.063,312
1569942169,303.275,99.1195,-16.0734,178.528,1.51611,-145.063,312
1569942169,303.275,99.1195,-16.0734,178.528,1.51611,-145.063,312
1569942169,303.275,99.1195,-16.0734,178.528,1.51611,-145.063,312
1569942169,303.275,99.1195,-16.0734,178.528,1.51611,-145.063,312
1569942169,303.275,99.1195,-16.0734,178.528,1.51611,-145.063,312
1569942169,303.275,99.1195,-16.0734,178.528,1.51611,-145.063,312
1569942169,303.275,99.1195,-16.0734,178.528,1.51611,-145.063,312
1569942169,303.275,99.1195,-16.0734,178.528,1.51611,-145.042,312
1569942169,303.275,99.1195,-16.0734,178.55,1.49414,-145.042,312
1569942169,303.275,99.1195,-16.0734,178.55,1.49414,-145.042,312
1569942170,303.275,99.1195,-16.0734,178.55,1.49414,-145.042,312
1569942170,303.275,99.1195,-16.0734,178.55,1.49414,-145.042,312
1569942170,303.275,99.1195,-16.0734,178.55,1.49414,-145.042,312
1569942170,303.275,99.1195,-16.0734,178.55,1.49414,-145.042,312
1569942170,303.275,99.1195,-16.0734,178.55,1.49414,-145.042,312
1569942170,303.275,99.1195,-16.0734,178.55,1.49414,-145.042,312
1569942170,303.275,99.1195,-16.0734,178.55,1.49414,-145.042,312
1569942170,303.275,99.1195,-16.0734,178.55,1.49414,-145.063,312
1569942170,303.275,99.1195,-16.0734,178.55,1.49414,-145.063,312
1569942170,303.275,99.1195,-16.0734,178.55,1.49414,-145.063,312
1569942170,303.275,99.1195,-16.0734,178.55,1.49414,-145.063,312
1569942170,303.275,99.1195,-16.0734,178.55,1.49414,-145.063,312
1569942170,303.275,99.1195,-16.0734,178.55,1.49414,-145.063,312
1569942170,303.275,99.1195,-16.0734,178.55,1.49414,-145.063,312
1569942170,303.275,99.1195,-16.0734,178.55,1.49414,-145.063,312
1569942170,303.275,99.1195,-16.0734,178.55,1.49414,-145.063,312
1569942170,303.275,99.1195,-16.0734,178.55,1.49414,-145.063,312
1569942170,303.275,99.1195,-16.0734,178.55,1.49414,-145.063,312
1569942170,303.275,99.1195,-16.0734,178.55,1.49414,-145.063,312
1569942170,303.275,99.1195,-16.0734,178.55,1.51611,-145.063,308
1569942170,303.275,99.1195,-16.0734,178.55,1.51611,-145.063,308
1569942170,303.275,99.1195,-16.0734,178.55,1.51611,-145.063,308
1569942170,303.275,99.1195,-16.0734,178.55,1.51611,-145.063,308
1569942170,303.275,99.1195,-16.0734,178.55,1.51611,-145.063,308
1569942170,303.275,99.1195,-16.0734,178.55,1.51611,-145.063,308
1569942170,303.275,99.1195,-16.0734,178.55,1.51611,-145.063,308
1569942170,303.275,99.1195,-16.0734,178.55,1.51611,-145.063,308
1569942170,303.275,99.1195,-16.0734,178.55,1.51611,-145.063,308
1569942170,303.275,99.1195,-16.0734,178.55,1.51611,-145.063,308
1569942170,303.275,99.1195,-16.0734,178.55,1.51611,-145.063,308
1569942170,303.275,99.1195,-16.0734,178.55,1.51611,-145.063,304
1569942170,303.275,99.1195,-16.0734,178.55,1.51611,-145.063,304
1569942170,303.275,99.1195,-16.0734,178.55,1.51611,-145.063,304
1569942170,303.275,99.1195,-16.0734,178.55,1.51611,-145.063,304
1569942170,303.275,99.1195,-16.0734,178.55,1.51611,-145.063,304
1569942170,303.275,99.1195,-16.0734,178.55,1.51611,-145.063,304
1569942170,303.275,99.1195,-16.0734,178.55,1.51611,-145.063,304
1569942170,303.275,99.1195,-16.0734,178.55,1.49414,-145.063,304
1569942170,303.275,99.1195,-16.0734,178.55,1.49414,-145.063,304
1569942170,303.275,99.1195,-16.0734,178.528,1.49414,-145.063,304
1569942170,303.275,99.1195,-16.0734,178.528,1.49414,-145.063,304
1569942170,303.275,99.1195,-16.0734,178.528,1.49414,-145.063,304
1569942170,303.275,99.1195,-16.0734,178.528,1.49414,-145.063,304
1569942170,303.275,99.1195,-16.0734,178.528,1.49414,-145.063,304
1569942170,303.275,99.1195,-16.0734,178.528,1.49414,-145.042,304
1569942170,303.275,99.1195,-16.0734,178.528,1.49414,-145.042,304
1569942170,303.275,99.1195,-16.0734,178.528,1.49414,-145.042,304
1569942170,303.275,99.1195,-16.0734,178.528,1.49414,-145.042,304
1569942170,303.275,99.1195,-16.0734,178.528,1.49414,-145.042,304
1569942170,303.275,99.1195,-16.0734,178.528,1.49414,-145.063,304
1569942170,303.275,99.1195,-16.0734,178.528,1.49414,-145.063,304
1569942170,303.275,99.1195,-16.0734,178.528,1.51611,-145.063,304
1569942170,303.275,99.1195,-16.0734,178.528,1.51611,-145.063,304
1569942170,303.275,99.1195,-16.0734,178.528,1.51611,-145.063,304
1569942170,303.275,99.1195,-16.0734,178.528,1.51611,-145.063,304
1569942170,303.275,99.1195,-16.0734,178.528,1.51611,-145.063,300
1569942170,303.275,99.1195,-16.0734,178.528,1.51611,-145.063,300
1569942170,303.275,99.1195,-16.0734,178.528,1.51611,-145.063,300
1569942170,303.275,99.1195,-16.0734,178.528,1.51611,-145.063,300
1569942170,303.275,99.1195,-16.0734,178.528,1.51611,-145.063,300
1569942170,303.275,99.1195,-16.0734,178.528,1.51611,-145.042,300
1569942170,303.275,99.1195,-16.0734,178.528,1.51611,-145.042,304
1569942170,303.275,99.1195,-16.0734,178.528,1.51611,-145.042,304
1569942170,303.275,99.1195,-16.0734,178.528,1.51611,-145.042,304
1569942170,303.275,99.1195,-16.0734,178.528,1.51611,-145.063,304
1569942170,303.275,99.1195,-15.9618,178.528,1.51611,-145.063,304
1569942170,303.275,99.1195,-15.9618,178.528,1.51611,-145.063,304
1569942170,303.275,99.1195,-15.9618,178.528,1.51611,-145.063,308
1569942170,303.275,99.1195,-15.9618,178.528,1.51611,-145.063,308
1569942170,303.275,99.1195,-15.9618,178.528,1.51611,-145.063,308
1569942170,303.275,99.1195,-15.9618,178.528,1.51611,-145.063,308
1569942170,303.275,99.1195,-15.9618,178.528,1.51611,-145.063,312
1569942170,303.275,99.1195,-15.9618,178.528,1.51611,-145.063,312
1569942170,303.275,99.1195,-15.9618,178.528,1.51611,-145.063,312
1569942170,303.275,99.1195,-15.9618,178.528,1.51611,-145.063,312
1569942170,303.275,99.1195,-15.9618,178.528,1.51611,-145.063,312
1569942170,303.275,99.1195,-15.9618,178.528,1.51611,-145.063,312
1569942170,303.275,99.1195,-15.9618,178.528,1.51611,-145.063,312
1569942170,303.275,99.1195,-15.9618,178.528,1.51611,-145.063,312
1569942170,303.275,99.1195,-15.9618,178.528,1.51611,-145.063,312
1569942170,303.275,99.1195,-15.9618,178.528,1.51611,-145.063,312
1569942170,303.275,99.1195,-15.9618,178.55,1.51611,-145.063,316
1569942170,303.275,99.1195,-15.9618,178.55,1.51611,-145.063,312
1569942170,303.275,99.1195,-15.9618,178.55,1.51611,-145.063,312
1569942170,303.275,99.1195,-16.0734,178.55,1.51611,-145.063,312
1569942170,303.275,99.1195,-16.0734,178.528,1.51611,-145.063,312
1569942170,303.275,99.1195,-16.0734,178.528,1.51611,-145.063,312
1569942170,303.275,99.1195,-16.0734,178.528,1.51611,-145.063,312
1569942170,303.275,99.1195,-16.0734,178.528,1.51611,-145.063,312
1569942170,303.275,99.1195,-15.9618,178.528,1.51611,-145.063,312
1569942170,303.275,99.1195,-15.9618,178.528,1.51611,-145.063,312
1569942170,303.275,99.1195,-15.9618,178.528,1.51611,-145.063,312
1569942170,303.275,99.1195,-15.9618,178.528,1.51611,-145.063,312
1569942170,303.275,99.1195,-15.9618,178.528,1.51611,-145.063,312
1569942170,303.275,99.1195,-15.9618,178.528,1.51611,-145.063,312
1569942170,303.275,99.1195,-15.9618,178.528,1.51611,-145.063,312
1569942170,303.275,99.1195,-15.9618,178.528,1.51611,-145.063,308
1569942170,303.275,99.1195,-15.9618,178.528,1.51611,-145.063,308
1569942170,303.275,99.1195,-15.9618,178.528,1.51611,-145.063,308
1569942170,303.275,99.1195,-15.9618,178.528,1.51611,-145.063,308
1569942171,303.275,99.1195,-15.9618,178.528,1.51611,-145.063,308
1569942171,303.275,99.1195,-15.9618,178.528,1.51611,-145.063,304
1569942171,303.275,99.1195,-15.9618,178.528,1.51611,-145.063,304
1569942171,303.275,99.1195,-15.9618,178.528,1.51611,-145.063,304
1569942171,303.275,99.1195,-15.9618,178.528,1.51611,-145.063,304
1569942171,303.275,99.1195,-15.9618,178.528,1.51611,-145.063,304
1569942171,303.275,99.1195,-15.9618,178.528,1.51611,-145.063,304
1569942171,303.275,99.1195,-15.9618,178.528,1.51611,-145.063,300
1569942171,303.275,99.1195,-15.9618,178.528,1.51611,-145.063,300
1569942171,303.275,99.1195,-15.9618,178.528,1.53809,-145.063,300
1569942171,303.275,99.1195,-15.9618,178.528,1.53809,-145.063,300
1569942171,303.275,99.1195,-15.9618,178.528,1.53809,-145.063,300
1569942171,303.275,99.1195,-15.9618,178.528,1.53809,-145.063,300
1569942171,303.275,99.1195,-15.9618,178.528,1.53809,-145.063,300
1569942171,303.275,99.1195,-15.9618,178.528,1.53809,-145.063,300
1569942171,303.275,99.1195,-15.9618,178.528,1.53809,-145.063,300
1569942171,303.275,99.1195,-15.9618,178.528,1.53809,-145.063,296
1569942171,303.275,99.1195,-15.9618,178.528,1.51611,-145.063,296
1569942171,303.275,99.1195,-15.9618,178.55,1.51611,-145.063,296
1569942171,303.275,99.1195,-15.9618,178.55,1.51611,-145.063,296
1569942171,303.275,99.1195,-15.9618,178.55,1.51611,-145.063,296
1569942171,303.275,99.1195,-16.0734,178.55,1.51611,-145.063,296
1569942171,303.275,99.1195,-16.0734,178.55,1.51611,-145.063,296
1569942171,303.275,99.1195,-16.0734,178.55,1.51611,-145.063,296
1569942171,303.275,99.1195,-16.0734,178.55,1.51611,-145.063,296
1569942171,303.275,99.1195,-16.0734,178.55,1.51611,-145.063,296
1569942171,303.275,99.1195,-16.0734,178.55,1.51611,-145.063,296
1569942171,303.275,99.1195,-16.0734,178.55,1.51611,-145.063,296
1569942171,303.275,99.1195,-16.0734,178.55,1.51611,-145.063,296
1569942171,303.275,99.1195,-16.0734,178.55,1.51611,-145.063,296
1569942171,303.275,99.1195,-16.0734,178.55,1.51611,-145.063,296
1569942171,303.275,99.1195,-16.0734,178.55,1.51611,-145.063,296
1569942171,303.275,99.1195,-16.0734,178.55,1.51611,-145.063,296
1569942171,303.275,99.1195,-16.0734,178.55,1.51611,-145.063,296
1569942171,303.275,99.1195,-16.0734,178.55,1.51611,-145.063,296
1569942171,303.275,99.1195,-16.0734,178.55,1.51611,-145.063,296
1569942171,303.275,99.1195,-16.0734,178.55,1.51611,-145.063,300
1569942171,303.275,99.1195,-16.0734,178.55,1.51611,-145.063,300
1569942171,303.275,99.1195,-15.9618,178.55,1.51611,-145.063,300
1569942171,303.275,99.1195,-15.9618,178.528,1.51611,-145.063,300
1569942171,303.275,99.1195,-15.9618,178.528,1.51611,-145.063,300
1569942171,303.275,99.1195,-15.9618,178.528,1.51611,-145.063,300
1569942171,303.275,99.1195,-16.0734,178.528,1.51611,-145.063,300
1569942171,303.275,99.1195,-16.0734,178.528,1.51611,-145.063,300
1569942171,303.275,99.1195,-16.0734,178.528,1.51611,-145.063,300
1569942171,303.275,99.1195,-16.0734,178.528,1.51611,-145.063,300
1569942171,303.275,99.1195,-16.0734,178.528,1.51611,-145.063,300
1569942171,303.275,99.1195,-16.0734,178.528,1.51611,-145.063,300
1569942171,303.275,99.1195,-16.0734,178.528,1.51611,-145.063,300
1569942171,303.275,99.1195,-16.0734,178.528,1.51611,-145.063,300
1569942171,303.275,99.1195,-16.0734,178.528,1.49414,-145.063,300
1569942171,303.275,99.1195,-16.0734,178.528,1.49414,-145.063,300
1569942171,303.275,99.1195,-16.0734,178.528,1.49414,-145.063,300
1569942171,303.275,99.1195,-16.0734,178.528,1.49414,-145.063,300
1569942171,303.275,99.1195,-16.0734,178.528,1.51611,-145.063,300
1569942171,303.275,99.1195,-16.0734,178.528,1.51611,-145.063,300
1569942171,303.275,99.1195,-16.0734,178.528,1.51611,-145.063,296
1569942171,303.275,99.1195,-16.0734,178.528,1.51611,-145.063,296
1569942171,303.275,99.1195,-16.0734,178.528,1.51611,-145.063,296
1569942171,303.386,99.1195,-16.0734,178.528,1.51611,-145.063,296
1569942171,303.386,99.1195,-16.0734,178.528,1.51611,-145.063,296
1569942171,303.275,99.1195,-16.0734,178.55,1.51611,-145.063,296
1569942171,303.275,99.1195,-16.0734,178.55,1.51611,-145.063,296
1569942171,303.275,99.1195,-15.9618,178.55,1.51611,-145.063,296
1569942171,303.275,99.1195,-15.9618,178.55,1.51611,-145.063,296
1569942171,303.275,99.1195,-16.0734,178.55,1.51611,-145.063,296
1569942171,303.275,99.1195,-16.0734,178.55,1.51611,-145.063,300
1569942171,303.275,99.1195,-16.0734,178.55,1.51611,-145.063,300
1569942171,303.275,99.1195,-16.0734,178.55,1.51611,-145.063,300
1569942171,303.275,99.1195,-16.0734,178.55,1.51611,-145.063,300
1569942171,303.275,99.1195,-16.0734,178.55,1.51611,-145.063,300
1569942171,303.275,99.1195,-15.9618,178.55,1.51611,-145.063,300
1569942171,303.275,99.1195,-15.9618,178.55,1.51611,-145.063,300
1569942171,303.275,99.1195,-16.0734,178.55,1.51611,-145.063,300
1569942171,303.275,99.1195,-16.0734,178.55,1.51611,-145.063,300
1569942171,303.275,99.1195,-16.0734,178.55,1.51611,-145.063,300
1569942171,303.275,99.1195,-16.0734,178.55,1.51611,-145.063,300
1569942171,303.275,99.1195,-16.0734,178.55,1.51611,-145.063,300
1569942171,303.275,99.1195,-16.0734,178.55,1.51611,-145.063,300
1569942171,303.275,99.1195,-16.0734,178.55,1.51611,-145.063,300
1569942171,303.275,99.1195,-16.0734,178.55,1.51611,-145.063,304
1569942171,303.275,99.1195,-16.0734,178.55,1.51611,-145.063,304
1569942171,303.275,99.1195,-16.0734,178.55,1.51611,-145.063,304
1569942171,303.275,99.1195,-16.0734,178.55,1.51611,-145.063,304
1569942171,303.275,99.1195,-16.0734,178.55,1.51611,-145.063,304
1569942171,303.275,99.1195,-16.0734,178.55,1.51611,-145.063,304
1569942171,303.275,99.1195,-16.0734,178.55,1.51611,-145.063,304
1569942171,303.275,99.1195,-16.0734,178.55,1.51611,-145.063,304
1569942171,303.275,99.1195,-16.0734,178.55,1.51611,-145.063,304
1569942171,303.275,99.1195,-16.0734,178.55,1.51611,-145.063,304
1569942171,303.275,99.1195,-15.9618,178.55,1.51611,-145.063,304
1569942171,303.275,99.1195,-15.9618,178.528,1.51611,-145.063,304
1569942171,303.275,99.1195,-15.9618,178.528,1.51611,-145.063,304
1569942171,303.275,99.1195,-15.9618,178.528,1.53809,-145.063,304
1569942171,303.275,99.1195,-15.9618,178.528,1.53809,-145.063,304
1569942171,303.275,99.1195,-15.9618,178.528,1.53809,-145.063,304
1569942171,303.275,99.1195,-15.9618,178.528,1.53809,-145.063,304
1569942171,303.275,99.1195,-15.9618,178.528,1.53809,-145.063,304
1569942171,303.275,99.1195,-15.9618,178.528,1.53809,-145.063,304
1569942171,303.275,99.1195,-15.9618,178.528,1.51611,-145.063,304
1569942171,303.275,99.1195,-15.9618,178.528,1.51611,-145.063,304
1569942172,303.275,99.1195,-15.9618,178.528,1.51611,-145.063,304
1569942172,303.275,99.1195,-15.9618,178.528,1.51611,-145.063,304
1569942172,303.275,99.1195,-15.9618,178.528,1.51611,-145.063,304
1569942172,303.275,99.1195,-15.9618,178.528,1.51611,-145.063,304
1569942172,303.275,99.1195,-15.9618,178.528,1.51611,-145.063,304
1569942172,303.275,99.1195,-15.9618,178.528,1.51611,-145.063,304
1569942172,303.275,99.1195,-15.9618,178.528,1.51611,-145.063,304
1569942172,303.275,99.1195,-15.9618,178.528,1.51611,-145.063,304
1569942172,303.275,99.1195,-15.9618,178.528,1.51611,-145.063,304
1569942172,303.275,99.1195,-15.9618,178.528,1.51611,-145.063,304
1569942172,303.275,99.1195,-15.9618,178.528,1.51611,-145.063,304
1569942172,303.275,99.1195,-15.9618,178.528,1.51611,-145.063,304
1569942172,303.275,99.1195,-15.9618,178.528,1.51611,-145.063,304
1569942172,303.275,99.1195,-15.9618,178.528,1.51611,-145.063,304
1569942172,303.275,99.1195,-15.9618,178.528,1.51611,-145.063,304
1569942172,303.275,99.1195,-15.9618,178.528,1.51611,-145.063,304
1569942172,303.275,99.1195,-15.9618,178.528,1.51611,-145.063,304
1569942172,303.275,99.1195,-15.9618,178.528,1.51611,-145.063,304
1569942172,303.275,99.1195,-15.9618,178.528,1.51611,-145.063,304
1569942172,303.275,99.1195,-15.9618,178.528,1.51611,-145.063,304
1569942172,303.275,99.1195,-15.9618,178.55,1.51611,-145.063,304
1569942172,303.275,99.1195,-15.9618,178.55,1.51611,-145.063,304
1569942172,303.275,99.1195,-15.9618,178.55,1.51611,-145.063,304
1569942172,303.275,99.1195,-16.0734,178.55,1.51611,-145.063,304
1569942172,303.275,99.1195,-16.0734,178.55,1.51611,-145.063,304
1569942172,303.275,99.1195,-16.0734,178.55,1.51611,-145.063,304
1569942172,303.275,99.1195,-16.0734,178.55,1.51611,-145.063,304
1569942172,303.275,99.1195,-16.0734,178.55,1.51611,-145.063,304
1569942172,303.275,99.1195,-16.0734,178.55,1.51611,-145.063,304
1569942172,303.275,99.1195,-16.0734,178.55,1.51611,-145.063,304
1569942172,303.275,99.1195,-16.0734,178.55,1.51611,-145.063,304
1569942172,303.275,99.1195,-16.0734,178.55,1.51611,-145.063,304
1569942172,303.275,99.1195,-16.0734,178.55,1.51611,-145.063,304
1569942172,303.275,99.1195,-16.0734,178.55,1.51611,-145.063,304
1569942172,303.275,99.1195,-16.0734,178.55,1.51611,-145.063,304
1569942172,303.275,99.1195,-16.0734,178.55,1.51611,-145.063,304
1569942172,303.275,99.1195,-16.0734,178.55,1.51611,-145.063,304
1569942172,303.275,99.1195,-15.9618,178.55,1.51611,-145.063,304
1569942172,303.275,99.1195,-15.9618,178.55,1.51611,-145.063,304
1569942172,303.275,99.1195,-15.9618,178.55,1.53809,-145.063,304
1569942172,303.275,99.1195,-15.9618,178.55,1.53809,-145.063,304
1569942172,303.275,99.1195,-15.9618,178.55,1.53809,-145.063,304
1569942172,303.275,99.1195,-15.9618,178.55,1.53809,-145.063,304
1569942172,303.275,99.1195,-15.9618,178.55,1.53809,-145.063,304
1569942172,303.275,99.1195,-15.9618,178.55,1.53809,-145.063,304
1569942172,303.275,99.1195,-15.9618,178.55,1.53809,-145.063,304
1569942172,303.275,99.1195,-15.9618,178.55,1.53809,-145.063,300
1569942172,303.275,99.1195,-15.9618,178.55,1.53809,-145.063,300
1569942172,303.275,99.1195,-15.9618,178.55,1.53809,-145.063,300
1569942172,303.275,99.1195,-15.9618,178.55,1.53809,-145.063,300
1569942172,303.275,99.1195,-15.9618,178.55,1.53809,-145.063,300
1569942172,303.275,99.1195,-15.9618,178.55,1.53809,-145.063,300
1569942172,303.275,99.1195,-15.9618,178.55,1.53809,-145.063,300
1569942172,303.275,99.1195,-15.9618,178.55,1.53809,-145.063,300
1569942172,303.275,99.1195,-15.9618,178.55,1.53809,-145.063,300
1569942172,303.275,99.1195,-15.9618,178.55,1.53809,-145.063,300
1569942172,303.275,99.1195,-15.9618,178.55,1.53809,-145.063,300
1569942172,303.275,99.1195,-15.9618,178.55,1.53809,-145.063,300
1569942172,303.275,99.1195,-15.9618,178.55,1.53809,-145.063,300
1569942172,303.275,99.1195,-15.9618,178.55,1.53809,-145.063,300
1569942172,303.275,99.1195,-15.9618,178.55,1.53809,-145.063,300
1569942172,303.275,99.1195,-15.9618,178.55,1.53809,-145.063,300
1569942172,303.275,99.1195,-15.9618,178.55,1.53809,-145.063,300
1569942172,303.275,99.1195,-15.9618,178.55,1.53809,-145.063,296
1569942172,303.275,99.1195,-15.9618,178.55,1.53809,-145.063,296
1569942172,303.275,99.1195,-15.9618,178.55,1.53809,-145.063,296
1569942172,303.275,99.1195,-15.9618,178.55,1.53809,-145.063,296
1569942172,303.275,99.1195,-15.9618,178.55,1.53809,-145.063,296
1569942172,303.275,99.1195,-15.9618,178.55,1.53809,-145.063,296
1569942172,303.275,99.1195,-15.9618,178.55,1.53809,-145.063,296
1569942172,303.275,99.1195,-15.9618,178.55,1.53809,-145.063,296
1569942172,303.275,99.1195,-15.9618,178.528,1.53809,-145.063,296
1569942172,303.275,99.1195,-15.9618,178.528,1.53809,-145.063,296
1569942172,303.275,99.1195,-15.9618,178.528,1.53809,-145.063,296
1569942172,303.275,99.1195,-15.9618,178.528,1.53809,-145.063,296
1569942172,303.275,99.1195,-15.9618,178.528,1.53809,-145.063,296
1569942172,303.275,99.1195,-15.9618,178.528,1.53809,-145.063,296
1569942172,303.275,99.1195,-15.9618,178.528,1.53809,-145.063,296
1569942172,303.275,99.1195,-15.9618,178.528,1.53809,-145.063,296
1569942172,303.275,99.1195,-15.9618,178.528,1.53809,-145.063,296
1569942172,303.275,99.1195,-15.9618,178.528,1.53809,-145.063,296
1569942172,303.275,99.1195,-15.9618,178.528,1.53809,-145.063,296
1569942172,303.275,99.1195,-15.9618,178.528,1.53809,-145.063,300
1569942172,303.275,99.1195,-15.9618,178.528,1.53809,-145.063,300
