time,x,y,z,ax,ay,az,q
1569921941,267.109,-131.936,43.7555,0.153809,-7.93213,83.7817,2192
1569921941,267.109,-131.936,43.7555,0.153809,-7.93213,83.7817,2192
1569921941,267.109,-131.936,43.7555,0.153809,-7.93213,83.7817,2192
1569921941,267.109,-131.936,43.7555,0.153809,-7.93213,83.7817,2192
1569921941,267.109,-131.936,43.7555,0.153809,-7.93213,83.7817,2192
1569921941,267.109,-131.936,43.7555,0.153809,-7.93213,83.7817,2192
1569921941,267.109,-131.936,43.7555,0.153809,-7.93213,83.7817,2192
1569921941,267.109,-131.936,43.7555,0.153809,-7.93213,83.7817,2192
1569921941,267.109,-131.936,43.7555,0.153809,-7.93213,83.7817,2192
1569921941,267.109,-131.936,43.7555,0.153809,-7.93213,83.7817,2192
1569921941,267.109,-131.936,43.7555,0.153809,-7.93213,83.7817,2192
1569921941,267.109,-131.936,43.7555,0.153809,-7.93213,83.7817,2192
1569921941,267.109,-131.936,43.7555,0.153809,-7.93213,83.7817,2192
1569921941,267.109,-131.936,43.7555,0.153809,-7.93213,83.7817,2192
1569921941,267.109,-131.936,43.7555,0.153809,-7.93213,83.7817,2192
1569921941,267.109,-131.936,43.7555,0.153809,-7.93213,83.7817,2192
1569921941,267.109,-131.936,43.7555,0.153809,-7.93213,83.7817,2192
1569921941,267.109,-131.936,43.7555,0.153809,-7.93213,83.7817,2192
1569921941,267.109,-131.936,43.7555,0.153809,-7.93213,83.7817,2192
1569921941,267.109,-131.936,43.7555,0.153809,-7.93213,83.7817,2192
1569921941,267.109,-131.936,43.7555,0.153809,-7.93213,83.7817,2192
1569921941,267.109,-131.936,43.7555,0.153809,-7.93213,83.7817,2192
1569921941,267.109,-131.936,43.7555,0.153809,-7.93213,83.7817,2192
1569921941,267.109,-131.936,43.7555,0.153809,-7.93213,83.7817,2192
1569921941,267.109,-131.936,43.7555,0.153809,-7.93213,83.7817,2192
1569921941,267.109,-131.936,43.7555,0.153809,-7.93213,83.7817,2192
1569921941,267.109,-131.936,43.7555,0.153809,-7.93213,83.7817,2192
1569921941,267.109,-131.936,43.7555,0.153809,-7.93213,83.7817,2192
1569921941,267.109,-131.936,43.7555,0.153809,-7.93213,83.7817,2192
1569921941,267.109,-131.936,43.7555,0.153809,-7.93213,83.7817,2192
1569921941,267.109,-131.936,43.7555,0.153809,-7.93213,83.7817,2192
1569921941,267.109,-131.936,43.7555,0.153809,-7.93213,83.7817,2192
1569921941,267.109,-131.936,43.7555,0.153809,-7.93213,83.7817,2192
1569921941,267.109,-131.936,43.7555,0.153809,-7.93213,83.7817,2192
1569921941,267.109,-131.936,43.7555,0.153809,-7.93213,83.7817,2192
1569921941,267.109,-131.936,43.7555,0.153809,-7.93213,83.7817,2192
1569921941,267.109,-131.936,43.7555,0.153809,-7.93213,83.7817,2192
1569921941,267.109,-131.936,43.7555,0.153809,-7.93213,83.7817,2192
1569921942,267.109,-131.936,43.7555,0.153809,-7.93213,83.7817,2192
1569921942,267.109,-131.936,43.7555,0.153809,-7.93213,83.7817,2188
1569921942,267.109,-131.936,43.7555,0.153809,-7.93213,83.7817,2188
1569921942,267.109,-131.936,43.7555,0.153809,-7.93213,83.7817,2188
1569921942,267.109,-131.936,43.7555,0.153809,-7.93213,83.7817,2188
1569921942,267.109,-131.936,43.7555,0.153809,-7.93213,83.7817,2188
1569921942,267.109,-131.936,43.7555,0.153809,-7.93213,83.7817,2188
1569921942,267.109,-131.936,43.7555,0.153809,-7.93213,83.7817,2188
1569921942,267.109,-131.936,43.7555,0.153809,-7.93213,83.7817,2188
1569921942,267.109,-131.936,43.7555,0.153809,-7.93213,83.7817,2188
1569921942,267.109,-131.936,43.7555,0.153809,-7.93213,83.7817,2188
1569921942,267.109,-131.936,43.7555,0.153809,-7.93213,83.7817,2188
1569921942,267.109,-131.936,43.7555,0.153809,-7.93213,83.7817,2188
1569921942,267.109,-131.936,43.7555,0.153809,-7.93213,83.7817,2188
1569921942,267.109,-131.936,43.7555,0.153809,-7.93213,83.7817,2188
1569921942,267.109,-131.936,43.7555,0.153809,-7.93213,83.7817,2188
1569921942,267.109,-131.936,43.7555,0.153809,-7.93213,83.7817,2192
1569921942,267.109,-131.936,43.7555,0.153809,-7.93213,83.7817,2192
1569921942,267.109,-131.936,43.7555,0.153809,-7.93213,83.7817,2192
1569921942,267.109,-131.936,43.7555,0.153809,-7.93213,83.7817,2192
1569921942,267.109,-131.936,43.7555,0.153809,-7.93213,83.7817,2192
1569921942,267.109,-131.936,43.7555,0.153809,-7.93213,83.7817,2192
1569921942,267.109,-131.936,43.7555,0.153809,-7.93213,83.7817,2192
1569921942,267.109,-131.936,43.7555,0.153809,-7.93213,83.7817,2192
1569921942,267.109,-131.936,43.7555,0.153809,-7.93213,83.7817,2192
1569921942,267.109,-131.936,43.7555,0.153809,-7.93213,83.7817,2192
1569921942,267.109,-131.936,43.7555,0.153809,-7.93213,83.7817,2192
1569921942,267.109,-131.936,43.7555,0.153809,-7.93213,83.7817,2192
1569921942,267.109,-131.936,43.7555,0.153809,-7.93213,83.7817,2192
1569921942,267.109,-131.936,43.7555,0.153809,-7.93213,83.7817,2192
1569921942,267.109,-131.936,43.7555,0.153809,-7.93213,83.7817,2192
1569921942,267.109,-131.936,43.7555,0.153809,-7.93213,83.7817,2192
1569921942,267.109,-131.936,43.7555,0.153809,-7.93213,83.7817,2192
1569921942,267.109,-131.936,43.7555,0.153809,-7.93213,83.7817,2192
1569921942,267.109,-131.936,43.7555,0.153809,-7.93213,83.7817,2192
1569921942,267.109,-131.936,43.7555,0.153809,-7.93213,83.7817,2192
1569921942,267.109,-131.936,43.7555,0.153809,-7.93213,83.7817,2192
1569921942,267.109,-131.936,43.7555,0.153809,-7.93213,83.7817,2192
1569921942,267.109,-131.936,43.7555,0.153809,-7.93213,83.7817,2192
1569921942,267.109,-131.936,43.7555,0.153809,-7.93213,83.7817,2192
1569921942,267.109,-131.936,43.7555,0.153809,-7.93213,83.7817,2192
1569921942,267.109,-131.936,43.7555,0.153809,-7.93213,83.7817,2192
1569921942,267.109,-131.936,43.7555,0.153809,-7.93213,83.7817,2192
1569921942,267.109,-131.936,43.7555,0.153809,-7.93213,83.7817,2192
1569921942,267.109,-131.936,43.7555,0.153809,-7.93213,83.7817,2192
1569921942,267.109,-131.936,43.7555,0.153809,-7.93213,83.7817,2192
1569921942,267.109,-131.936,43.7555,0.153809,-7.93213,83.7817,2192
1569921942,267.109,-131.936,43.7555,0.153809,-7.93213,83.7817,2192
1569921942,267.109,-131.936,43.7555,0.153809,-7.93213,83.7817,2192
1569921942,267.109,-131.936,43.7555,0.153809,-7.93213,83.7817,2192
1569921942,267.109,-131.936,43.7555,0.153809,-7.93213,83.7817,2192
1569921942,267.109,-131.936,43.7555,0.153809,-7.93213,83.7817,2192
1569921942,267.109,-131.936,43.7555,0.153809,-7.93213,83.7817,2192
1569921942,267.109,-131.936,43.7555,0.153809,-7.93213,83.7817,2192
1569921942,267.109,-131.936,43.7555,0.153809,-7.93213,83.7817,2192
1569921942,267.109,-131.936,43.7555,0.153809,-7.93213,83.7817,2192
1569921942,267.109,-131.936,43.7555,0.153809,-7.93213,83.7817,2192
1569921942,267.109,-131.936,43.7555,0.153809,-7.93213,83.7817,2192
1569921942,267.109,-131.936,43.7555,0.153809,-7.93213,83.7817,2192
1569921942,267.109,-131.936,43.7555,0.153809,-7.93213,83.7817,2188
1569921942,267.109,-131.936,43.7555,0.153809,-7.93213,83.7817,2188
1569921942,267.109,-131.936,43.7555,0.153809,-7.93213,83.7817,2188
1569921942,267.109,-131.936,43.7555,0.153809,-7.93213,83.7817,2192
1569921942,267.109,-131.936,43.7555,0.153809,-7.93213,83.7817,2192
1569921942,267.109,-131.936,43.7555,0.153809,-7.93213,83.7817,2192
1569921942,267.109,-131.936,43.7555,0.153809,-7.93213,83.7817,2192
1569921942,267.109,-131.936,43.7555,0.153809,-7.93213,83.7817,2192
1569921942,267.109,-131.936,43.7555,0.153809,-7.93213,83.7817,2192
1569921942,267.109,-131.936,43.7555,0.153809,-7.93213,83.7817,2192
1569921942,267.109,-131.936,43.7555,0.153809,-7.93213,83.7817,2192
1569921942,267.109,-131.936,43.7555,0.153809,-7.93213,83.7817,2192
1569921942,267.109,-131.936,43.7555,0.153809,-7.91016,83.7817,2192
1569921942,267.109,-131.936,43.7555,0.153809,-7.91016,83.7817,2192
1569921942,267.109,-131.936,43.7555,0.153809,-7.91016,83.7817,2192
1569921942,267.109,-131.936,43.7555,0.153809,-7.91016,83.7817,2192
1569921942,267.109,-131.936,43.7555,0.153809,-7.91016,83.7817,2192
1569921942,267.109,-131.936,43.7555,0.153809,-7.91016,83.7817,2192
1569921942,267.109,-131.936,43.7555,0.153809,-7.91016,83.7817,2192
1569921942,267.109,-131.936,43.7555,0.153809,-7.91016,83.7817,2192
1569921942,267.109,-131.936,43.7555,0.153809,-7.91016,83.7817,2192
1569921942,267.109,-131.936,43.7555,0.153809,-7.91016,83.7817,2192
1569921942,267.109,-131.936,43.7555,0.153809,-7.91016,83.7817,2192
1569921942,267.109,-131.936,43.7555,0.153809,-7.91016,83.7817,2192
1569921942,267.109,-131.936,43.7555,0.153809,-7.91016,83.7817,2192
1569921942,267.109,-131.936,43.7555,0.153809,-7.91016,83.7817,2192
1569921942,267.109,-131.936,43.7555,0.153809,-7.91016,83.7817,2192
1569921942,267.109,-131.936,43.7555,0.153809,-7.91016,83.7817,2192
1569921942,267.109,-131.936,43.7555,0.153809,-7.91016,83.7817,2192
1569921942,267.109,-131.936,43.7555,0.153809,-7.91016,83.7817,2192
1569921942,267.109,-131.936,43.7555,0.153809,-7.91016,83.7817,2192
1569921942,267.109,-131.936,43.7555,0.153809,-7.91016,83.7817,2192
1569921942,267.109,-131.936,43.7555,0.153809,-7.91016,83.7817,2192
1569921942,267.109,-131.936,43.7555,0.153809,-7.93213,83.7817,2192
1569921942,267.109,-131.936,43.7555,0.153809,-7.91016,83.7817,2192
1569921942,267.109,-131.936,43.7555,0.153809,-7.91016,83.7817,2192
1569921942,267.109,-131.936,43.7555,0.153809,-7.91016,83.7817,2192
1569921942,267.109,-131.936,43.7555,0.153809,-7.91016,83.7817,2192
1569921942,267.109,-131.936,43.7555,0.153809,-7.91016,83.7817,2192
1569921942,267.109,-131.936,43.7555,0.153809,-7.91016,83.7817,2192
1569921942,267.109,-131.936,43.7555,0.153809,-7.91016,83.7817,2192
1569921943,267.109,-131.936,43.7555,0.153809,-7.91016,83.7817,2192
1569921943,267.109,-131.936,43.7555,0.153809,-7.91016,83.7817,2192
1569921943,267.109,-131.936,43.7555,0.153809,-7.91016,83.7817,2192
1569921943,267.109,-131.936,43.7555,0.153809,-7.91016,83.7817,2192
1569921943,267.109,-131.936,43.7555,0.153809,-7.91016,83.7817,2192
1569921943,267.109,-131.936,43.7555,0.153809,-7.91016,83.7817,2192
1569921943,267.109,-131.936,43.7555,0.153809,-7.91016,83.7817,2192
1569921943,267.109,-131.936,43.7555,0.153809,-7.91016,83.7817,2192
1569921943,267.109,-131.936,43.7555,0.153809,-7.93213,83.7817,2192
1569921943,267.109,-131.936,43.7555,0.153809,-7.93213,83.7817,2192
1569921943,267.109,-131.936,43.7555,0.153809,-7.93213,83.7817,2192
1569921943,267.109,-131.936,43.7555,0.153809,-7.93213,83.7817,2192
1569921943,267.109,-131.936,43.7555,0.153809,-7.93213,83.7817,2192
1569921943,267.109,-131.936,43.7555,0.153809,-7.93213,83.7817,2192
1569921943,267.109,-131.936,43.7555,0.153809,-7.93213,83.7817,2192
1569921943,267.109,-131.936,43.7555,0.153809,-7.91016,83.7817,2192
1569921943,267.109,-131.936,43.7555,0.153809,-7.91016,83.7817,2192
1569921943,267.109,-131.936,43.7555,0.153809,-7.91016,83.7817,2192
1569921943,267.109,-131.936,43.7555,0.153809,-7.91016,83.7817,2192
1569921943,267.109,-131.936,43.7555,0.153809,-7.91016,83.7817,2192
1569921943,267.109,-131.936,43.7555,0.153809,-7.91016,83.7817,2192
1569921943,267.109,-131.936,43.7555,0.153809,-7.91016,83.7817,2192
1569921943,267.109,-131.936,43.7555,0.153809,-7.91016,83.7817,2192
1569921943,267.109,-131.936,43.7555,0.153809,-7.91016,83.7817,2192
1569921943,267.109,-131.936,43.7555,0.153809,-7.91016,83.7817,2192
1569921943,267.109,-131.936,43.7555,0.153809,-7.91016,83.7817,2192
1569921943,267.109,-131.936,43.7555,0.153809,-7.91016,83.7817,2192
1569921943,267.109,-131.936,43.7555,0.153809,-7.91016,83.7817,2192
1569921943,267.109,-131.936,43.7555,0.153809,-7.91016,83.7817,2192
1569921943,267.109,-131.936,43.7555,0.153809,-7.91016,83.7817,2192
1569921943,267.109,-131.936,43.7555,0.153809,-7.91016,83.7817,2192
1569921943,267.109,-131.936,43.7555,0.153809,-7.91016,83.7817,2192
1569921943,267.109,-131.936,43.7555,0.153809,-7.91016,83.7817,2192
1569921943,267.109,-131.936,43.7555,0.153809,-7.91016,83.7817,2192
1569921943,267.109,-131.936,43.7555,0.153809,-7.91016,83.7817,2192
1569921943,267.109,-131.936,43.7555,0.153809,-7.91016,83.7817,2192
1569921943,267.109,-131.936,43.7555,0.153809,-7.91016,83.7817,2192
1569921943,267.109,-131.936,43.7555,0.153809,-7.91016,83.7817,2192
1569921943,267.109,-131.936,43.7555,0.153809,-7.91016,83.7817,2192
1569921943,267.109,-131.936,43.7555,0.153809,-7.91016,83.7817,2192
1569921943,267.109,-131.936,43.7555,0.153809,-7.91016,83.7817,2192
1569921943,267.109,-131.936,43.7555,0.153809,-7.91016,83.7817,2192
1569921943,267.109,-131.936,43.7555,0.153809,-7.91016,83.7817,2192
1569921943,267.109,-131.936,43.7555,0.153809,-7.91016,83.7817,2192
1569921943,267.109,-131.936,43.7555,0.153809,-7.91016,83.7817,2192
1569921943,267.109,-131.936,43.7555,0.153809,-7.91016,83.7817,2192
1569921943,267.109,-131.936,43.7555,0.153809,-7.91016,83.7817,2192
1569921943,267.109,-131.936,43.7555,0.153809,-7.91016,83.7817,2192
1569921943,267.109,-131.936,43.7555,0.153809,-7.91016,83.7817,2192
1569921943,267.109,-131.936,43.7555,0.153809,-7.91016,83.7817,2192
1569921943,267.109,-131.936,43.7555,0.153809,-7.91016,83.7817,2192
1569921943,267.109,-131.936,43.7555,0.153809,-7.91016,83.7817,2192
1569921943,267.109,-131.936,43.7555,0.153809,-7.91016,83.7817,2192
1569921943,267.109,-131.936,43.7555,0.153809,-7.91016,83.7817,2192
1569921943,267.109,-131.936,43.7555,0.153809,-7.91016,83.7817,2192
1569921943,267.109,-131.936,43.7555,0.153809,-7.93213,83.7817,2192
1569921943,267.109,-131.936,43.7555,0.153809,-7.93213,83.7817,2192
1569921943,267.109,-131.936,43.7555,0.153809,-7.93213,83.7817,2192
1569921943,267.109,-131.936,43.7555,0.153809,-7.93213,83.7817,2192
1569921943,267.109,-131.936,43.7555,0.153809,-7.93213,83.7817,2192
1569921943,267.109,-131.936,43.7555,0.153809,-7.93213,83.7817,2192
1569921943,267.109,-131.936,43.7555,0.153809,-7.93213,83.7817,2192
1569921943,267.109,-131.936,43.7555,0.153809,-7.93213,83.7817,2192
1569921943,267.109,-131.936,43.7555,0.153809,-7.93213,83.7817,2192
1569921943,267.109,-131.936,43.7555,0.153809,-7.93213,83.7817,2192
1569921943,267.109,-131.936,43.7555,0.153809,-7.93213,83.7817,2192
1569921943,267.109,-131.936,43.7555,0.153809,-7.93213,83.7817,2192
1569921943,267.109,-131.936,43.7555,0.153809,-7.93213,83.7817,2192
1569921943,267.109,-131.936,43.7555,0.153809,-7.93213,83.7817,2192
1569921943,267.109,-131.936,43.7555,0.153809,-7.93213,83.7817,2192
1569921943,267.109,-131.936,43.7555,0.153809,-7.93213,83.7817,2192
1569921943,267.109,-131.936,43.7555,0.153809,-7.93213,83.7817,2192
1569921943,267.109,-131.936,43.7555,0.153809,-7.93213,83.7817,2192
1569921943,267.109,-131.936,43.7555,0.153809,-7.93213,83.7817,2192
1569921943,267.109,-131.936,43.7555,0.153809,-7.93213,83.7817,2192
1569921943,267.109,-131.936,43.7555,0.153809,-7.91016,83.7817,2192
1569921943,267.109,-131.936,43.7555,0.153809,-7.91016,83.7817,2192
1569921943,267.109,-131.936,43.7555,0.153809,-7.91016,83.7817,2192
1569921943,267.109,-131.936,43.7555,0.153809,-7.91016,83.7817,2192
1569921943,267.109,-131.936,43.7555,0.153809,-7.91016,83.7817,2192
1569921943,267.109,-131.936,43.7555,0.153809,-7.91016,83.7817,2192
1569921943,267.109,-131.936,43.7555,0.153809,-7.91016,83.7817,2192
1569921943,267.109,-131.936,43.7555,0.153809,-7.91016,83.7817,2192
1569921943,267.109,-131.936,43.7555,0.153809,-7.91016,83.7817,2192
1569921943,267.109,-131.936,43.7555,0.153809,-7.91016,83.7817,2192
1569921943,267.109,-131.936,43.7555,0.153809,-7.91016,83.7817,2192
1569921943,267.109,-131.936,43.7555,0.153809,-7.91016,83.7817,2192
1569921943,267.109,-131.936,43.7555,0.153809,-7.91016,83.7817,2192
1569921943,267.109,-131.936,43.7555,0.153809,-7.91016,83.7817,2192
1569921943,267.109,-131.936,43.7555,0.153809,-7.91016,83.7817,2192
1569921943,267.109,-131.936,43.7555,0.153809,-7.93213,83.7817,2192
1569921943,267.109,-131.936,43.7555,0.153809,-7.93213,83.7817,2192
1569921943,267.109,-131.936,43.7555,0.153809,-7.93213,83.7817,2192
1569921943,267.109,-131.936,43.7555,0.153809,-7.93213,83.7817,2192
1569921943,267.109,-131.936,43.7555,0.153809,-7.93213,83.7817,2192
1569921943,267.109,-131.936,43.7555,0.153809,-7.93213,83.7817,2192
1569921943,267.109,-131.936,43.7555,0.153809,-7.93213,83.7817,2192
1569921943,267.109,-131.936,43.7555,0.153809,-7.93213,83.7817,2192
1569921943,267.109,-131.936,43.7555,0.153809,-7.93213,83.7817,2192
1569921943,267.109,-131.936,43.7555,0.153809,-7.93213,83.7817,2192
1569921944,267.109,-131.936,43.7555,0.153809,-7.93213,83.7817,2192
1569921944,267.109,-131.936,43.7555,0.153809,-7.93213,83.7817,2192
1569921944,267.109,-131.936,43.7555,0.153809,-7.93213,83.7817,2192
1569921944,267.109,-131.936,43.7555,0.153809,-7.93213,83.7817,2192
1569921944,267.109,-131.936,43.7555,0.153809,-7.93213,83.7817,2192
1569921944,267.109,-131.936,43.7555,0.153809,-7.93213,83.7817,2192
1569921944,267.109,-131.936,43.7555,0.153809,-7.93213,83.7817,2192
1569921944,267.109,-131.936,43.7555,0.153809,-7.93213,83.7817,2192
1569921944,267.109,-131.936,43.7555,0.153809,-7.93213,83.7817,2192
1569921944,267.109,-131.936,43.7555,0.153809,-7.93213,83.7817,2192
1569921944,267.109,-131.936,43.7555,0.153809,-7.93213,83.7817,2192
1569921944,267.109,-131.936,43.7555,0.153809,-7.93213,83.7817,2192
1569921944,267.109,-131.936,43.7555,0.153809,-7.93213,83.7817,2192
1569921944,267.109,-131.936,43.7555,0.153809,-7.93213,83.7817,2192
1569921944,267.109,-131.936,43.7555,0.153809,-7.93213,83.7817,2192
1569921944,267.109,-131.936,43.7555,0.153809,-7.93213,83.7817,2192
1569921944,267.109,-131.936,43.7555,0.153809,-7.93213,83.7817,2192
1569921944,267.109,-131.936,43.7555,0.153809,-7.93213,83.7817,2192
1569921944,267.109,-131.936,43.7555,0.153809,-7.93213,83.7817,2192
1569921944,267.109,-131.936,43.7555,0.153809,-7.93213,83.7817,2192
1569921944,267.109,-131.936,43.7555,0.153809,-7.93213,83.7817,2192
1569921944,267.109,-131.936,43.7555,0.153809,-7.93213,83.7817,2192
1569921944,267.109,-131.936,43.7555,0.153809,-7.93213,83.7817,2192
1569921944,267.109,-131.936,43.7555,0.153809,-7.93213,83.7817,2192
1569921944,267.109,-131.936,43.7555,0.153809,-7.93213,83.7817,2192
1569921944,267.109,-131.936,43.7555,0.153809,-7.93213,83.7817,2192
1569921944,267.109,-131.936,43.7555,0.153809,-7.93213,83.7817,2192
1569921944,267.109,-131.936,43.7555,0.153809,-7.93213,83.7817,2188
1569921944,267.109,-131.936,43.7555,0.153809,-7.93213,83.7817,2188
1569921944,267.109,-131.936,43.7555,0.153809,-7.93213,83.7817,2188
1569921944,267.109,-131.936,43.7555,0.153809,-7.93213,83.7817,2188
1569921944,267.109,-131.936,43.7555,0.153809,-7.93213,83.7817,2188
1569921944,267.109,-131.936,43.7555,0.153809,-7.93213,83.7817,2188
1569921944,267.109,-131.936,43.7555,0.153809,-7.93213,83.7817,2188
1569921944,267.109,-131.936,43.7555,0.153809,-7.93213,83.7817,2188
1569921944,267.109,-131.936,43.7555,0.153809,-7.93213,83.7817,2188
1569921944,267.109,-131.936,43.7555,0.153809,-7.93213,83.7817,2188
1569921944,267.109,-131.936,43.7555,0.153809,-7.93213,83.7817,2188
1569921944,267.109,-131.936,43.7555,0.153809,-7.93213,83.7817,2188
1569921944,267.109,-131.936,43.7555,0.153809,-7.93213,83.7817,2188
1569921944,267.109,-131.936,43.7555,0.153809,-7.93213,83.7817,2188
1569921944,267.109,-131.936,43.7555,0.153809,-7.93213,83.7817,2188
1569921944,267.109,-131.936,43.7555,0.153809,-7.93213,83.7817,2188
1569921944,267.109,-131.936,43.7555,0.153809,-7.93213,83.7817,2188
1569921944,267.109,-131.936,43.7555,0.153809,-7.93213,83.7817,2188
1569921944,267.109,-131.936,43.7555,0.153809,-7.93213,83.7817,2188
1569921944,267.109,-131.936,43.7555,0.153809,-7.93213,83.7817,2188
1569921944,267.109,-131.936,43.7555,0.153809,-7.93213,83.7817,2188
1569921944,267.109,-131.936,43.7555,0.153809,-7.93213,83.7817,2188
1569921944,267.109,-131.936,43.7555,0.153809,-7.93213,83.7817,2188
1569921944,267.109,-131.936,43.7555,0.153809,-7.93213,83.7817,2188
1569921944,267.109,-131.936,43.7555,0.153809,-7.93213,83.7817,2192
1569921944,267.109,-131.936,43.7555,0.153809,-7.93213,83.7817,2192
1569921944,267.109,-131.936,43.7555,0.153809,-7.93213,83.7817,2192
1569921944,267.109,-131.936,43.7555,0.153809,-7.93213,83.7817,2192
1569921944,267.109,-131.936,43.7555,0.153809,-7.93213,83.7817,2192
1569921944,267.109,-131.936,43.7555,0.153809,-7.93213,83.7817,2192
1569921944,267.109,-131.936,43.7555,0.153809,-7.93213,83.7817,2192
1569921944,267.109,-131.936,43.7555,0.153809,-7.93213,83.7817,2192
1569921944,267.109,-131.936,43.7555,0.153809,-7.93213,83.7817,2192
1569921944,267.109,-131.936,43.7555,0.153809,-7.93213,83.7817,2192
1569921944,267.109,-131.936,43.7555,0.153809,-7.93213,83.7817,2192
1569921944,267.109,-131.936,43.7555,0.153809,-7.93213,83.7817,2192
1569921944,267.109,-131.936,43.7555,0.153809,-7.93213,83.7817,2192
1569921944,267.109,-131.936,43.7555,0.153809,-7.93213,83.7817,2192
1569921944,267.109,-131.936,43.7555,0.153809,-7.93213,83.7817,2192
1569921944,267.109,-131.936,43.7555,0.153809,-7.93213,83.7817,2192
1569921944,267.109,-131.936,43.7555,0.153809,-7.93213,83.7817,2192
1569921944,267.109,-131.936,43.7555,0.153809,-7.93213,83.7817,2192
1569921944,267.109,-131.936,43.7555,0.153809,-7.93213,83.7817,2192
1569921944,267.109,-131.936,43.7555,0.153809,-7.93213,83.7817,2192
1569921944,267.109,-131.936,43.7555,0.153809,-7.93213,83.7817,2192
1569921944,267.109,-131.936,43.7555,0.153809,-7.93213,83.7817,2192
1569921944,267.109,-131.936,43.7555,0.153809,-7.93213,83.7817,2192
1569921944,267.109,-131.936,43.7555,0.153809,-7.93213,83.7817,2192
1569921944,267.109,-131.936,43.7555,0.153809,-7.93213,83.7817,2192
1569921944,267.109,-131.936,43.7555,0.153809,-7.93213,83.7817,2192
1569921944,267.109,-131.936,43.7555,0.153809,-7.93213,83.7817,2192
1569921944,267.109,-131.936,43.7555,0.153809,-7.93213,83.7817,2192
1569921944,267.109,-131.936,43.7555,0.153809,-7.93213,83.7817,2192
1569921944,267.109,-131.936,43.7555,0.153809,-7.93213,83.7817,2192
1569921944,267.109,-131.936,43.7555,0.153809,-7.93213,83.7817,2192
1569921944,267.109,-131.936,43.7555,0.153809,-7.93213,83.7817,2192
1569921944,267.109,-131.936,43.7555,0.153809,-7.93213,83.7817,2192
1569921944,267.109,-131.936,43.7555,0.153809,-7.93213,83.7817,2192
1569921944,267.109,-131.936,43.7555,0.153809,-7.93213,83.7817,2192
1569921944,267.109,-131.936,43.7555,0.153809,-7.93213,83.7817,2192
1569921944,267.109,-131.936,43.7555,0.153809,-7.93213,83.7817,2192
1569921944,267.109,-131.936,43.7555,0.153809,-7.93213,83.7817,2192
1569921944,267.109,-131.936,43.7555,0.153809,-7.93213,83.7817,2192
1569921944,267.109,-131.936,43.7555,0.153809,-7.93213,83.7817,2192
1569921944,267.109,-131.936,43.7555,0.153809,-7.93213,83.7817,2192
1569921944,267.109,-131.936,43.7555,0.153809,-7.93213,83.7817,2192
1569921944,267.109,-131.936,43.7555,0.153809,-7.93213,83.7817,2192
1569921944,267.109,-131.936,43.7555,0.153809,-7.93213,83.7817,2192
1569921944,267.109,-131.936,43.7555,0.153809,-7.93213,83.7817,2192
1569921944,267.109,-131.936,43.7555,0.153809,-7.93213,83.7817,2192
1569921944,267.109,-131.936,43.7555,0.153809,-7.93213,83.7817,2192
1569921944,267.109,-131.936,43.7555,0.153809,-7.93213,83.7817,2192
1569921944,267.109,-131.936,43.7555,0.153809,-7.93213,83.7817,2192
1569921945,267.109,-131.936,43.7555,0.153809,-7.93213,83.7817,2192
1569921945,267.109,-131.936,43.7555,0.153809,-7.93213,83.7817,2192
1569921945,267.109,-131.936,43.7555,0.153809,-7.93213,83.7817,2192
1569921945,267.109,-131.936,43.7555,0.153809,-7.93213,83.7817,2192
1569921945,267.109,-131.936,43.7555,0.153809,-7.93213,83.7817,2192
1569921945,267.109,-131.936,43.7555,0.153809,-7.93213,83.7817,2192
1569921945,267.109,-131.936,43.7555,0.153809,-7.93213,83.7817,2192
1569921945,267.109,-131.936,43.7555,0.153809,-7.93213,83.7817,2192
1569921945,267.109,-131.936,43.7555,0.153809,-7.93213,83.7817,2192
1569921945,267.109,-131.936,43.7555,0.153809,-7.93213,83.7817,2192
1569921945,267.109,-131.936,43.7555,0.153809,-7.93213,83.7817,2192
1569921945,267.109,-131.936,43.7555,0.153809,-7.93213,83.7817,2192
1569921945,267.109,-131.936,43.7555,0.153809,-7.93213,83.7817,2192
1569921945,267.109,-131.936,43.7555,0.153809,-7.93213,83.7817,2192
1569921945,267.109,-131.936,43.7555,0.153809,-7.93213,83.7817,2192
1569921945,267.109,-131.936,43.7555,0.153809,-7.93213,83.7817,2192
1569921945,267.109,-131.936,43.7555,0.153809,-7.93213,83.7817,2192
1569921945,267.109,-131.936,43.7555,0.153809,-7.93213,83.7817,2192
1569921945,267.109,-131.936,43.7555,0.153809,-7.93213,83.7817,2192
1569921945,267.109,-131.936,43.7555,0.153809,-7.93213,83.7817,2192
1569921945,267.109,-131.936,43.7555,0.153809,-7.93213,83.7817,2192
1569921945,267.109,-131.936,43.7555,0.153809,-7.93213,83.7817,2192
1569921945,267.109,-131.936,43.7555,0.153809,-7.93213,83.7817,2192
1569921945,267.109,-131.936,43.7555,0.153809,-7.93213,83.7817,2192
1569921945,267.109,-131.936,43.7555,0.153809,-7.93213,83.7817,2192
1569921945,267.109,-131.936,43.7555,0.153809,-7.93213,83.7817,2192
1569921945,267.109,-131.936,43.7555,0.153809,-7.93213,83.7817,2192
1569921945,267.109,-131.936,43.7555,0.153809,-7.93213,83.7817,2192
1569921945,267.109,-131.936,43.7555,0.153809,-7.93213,83.7817,2192
1569921945,267.109,-131.936,43.7555,0.153809,-7.93213,83.7817,2192
1569921945,267.109,-131.936,43.7555,0.153809,-7.93213,83.7817,2192
1569921945,267.109,-131.936,43.7555,0.153809,-7.93213,83.7817,2192
1569921945,267.109,-131.936,43.7555,0.153809,-7.93213,83.7817,2192
1569921945,267.109,-131.936,43.7555,0.153809,-7.93213,83.7817,2192
1569921945,267.109,-131.936,43.7555,0.153809,-7.93213,83.7817,2192
1569921945,267.109,-131.936,43.7555,0.153809,-7.93213,83.7817,2192
1569921945,267.109,-131.936,43.7555,0.153809,-7.93213,83.7817,2192
1569921945,267.109,-131.936,43.7555,0.153809,-7.93213,83.7817,2192
1569921945,267.109,-131.936,43.7555,0.153809,-7.93213,83.7817,2192
1569921945,267.109,-131.936,43.7555,0.153809,-7.93213,83.7817,2192
1569921945,267.109,-131.936,43.7555,0.153809,-7.93213,83.7817,2192
1569921945,267.109,-131.936,43.7555,0.153809,-7.93213,83.7817,2192
1569921945,267.109,-131.936,43.7555,0.153809,-7.93213,83.7817,2192
1569921945,267.109,-131.936,43.7555,0.153809,-7.93213,83.7817,2192
1569921945,267.109,-131.936,43.7555,0.153809,-7.93213,83.7817,2192
1569921945,267.109,-131.936,43.7555,0.153809,-7.93213,83.7817,2192
1569921945,267.109,-131.936,43.7555,0.153809,-7.93213,83.7817,2192
1569921945,267.109,-131.936,43.7555,0.153809,-7.93213,83.7817,2192
1569921945,267.109,-131.936,43.7555,0.153809,-7.93213,83.7817,2192
1569921945,267.109,-131.936,43.7555,0.153809,-7.93213,83.7817,2192
1569921945,267.109,-131.936,43.7555,0.153809,-7.93213,83.7817,2192
1569921945,267.109,-131.936,43.7555,0.153809,-7.93213,83.7817,2192
1569921945,267.109,-131.936,43.7555,0.153809,-7.93213,83.7817,2192
1569921945,267.109,-131.936,43.7555,0.153809,-7.93213,83.7817,2192
1569921945,267.109,-131.936,43.7555,0.153809,-7.93213,83.7817,2192
1569921945,267.109,-131.936,43.7555,0.153809,-7.93213,83.7817,2192
1569921945,267.109,-131.936,43.7555,0.153809,-7.93213,83.7817,2192
1569921945,267.109,-131.936,43.7555,0.153809,-7.93213,83.7817,2192
1569921945,267.109,-131.936,43.7555,0.153809,-7.93213,83.7817,2192
1569921945,267.109,-131.936,43.7555,0.153809,-7.93213,83.7817,2192
1569921945,267.109,-131.936,43.7555,0.153809,-7.93213,83.7817,2192
1569921945,267.109,-131.936,43.7555,0.153809,-7.93213,83.7817,2192
1569921945,267.109,-131.936,43.7555,0.153809,-7.91016,83.7817,2192
1569921945,267.109,-131.936,43.7555,0.153809,-7.91016,83.7817,2192
1569921945,267.109,-131.936,43.7555,0.153809,-7.93213,83.7817,2192
1569921945,267.109,-131.936,43.7555,0.153809,-7.93213,83.7817,2192
1569921945,267.109,-131.936,43.7555,0.153809,-7.93213,83.7817,2192
1569921945,267.109,-131.936,43.7555,0.153809,-7.93213,83.7817,2192
1569921945,267.109,-131.936,43.7555,0.153809,-7.93213,83.7817,2192
1569921945,267.109,-131.936,43.7555,0.153809,-7.93213,83.7817,2192
1569921945,267.109,-131.936,43.7555,0.153809,-7.93213,83.7817,2192
1569921945,267.109,-131.936,43.7555,0.153809,-7.93213,83.7817,2192
1569921945,267.109,-131.936,43.7555,0.153809,-7.93213,83.7817,2192
1569921945,267.109,-131.936,43.7555,0.153809,-7.93213,83.7817,2192
1569921945,267.109,-131.936,43.7555,0.153809,-7.93213,83.7817,2192
1569921945,267.109,-131.936,43.7555,0.153809,-7.93213,83.7817,2192
1569921945,267.109,-131.936,43.7555,0.153809,-7.93213,83.7817,2192
1569921945,267.109,-131.936,43.7555,0.153809,-7.93213,83.7817,2192
1569921945,267.109,-131.936,43.7555,0.153809,-7.93213,83.7817,2192
1569921945,267.109,-131.936,43.7555,0.153809,-7.93213,83.7817,2192
1569921945,267.109,-131.936,43.7555,0.153809,-7.93213,83.7817,2192
1569921945,267.109,-131.936,43.7555,0.153809,-7.93213,83.7817,2192
1569921945,267.109,-131.936,43.7555,0.153809,-7.93213,83.7817,2192
1569921945,267.109,-131.936,43.7555,0.153809,-7.93213,83.7817,2192
1569921945,267.109,-131.936,43.7555,0.153809,-7.93213,83.7817,2192
1569921945,267.109,-131.936,43.7555,0.153809,-7.93213,83.7817,2192
1569921945,267.109,-131.936,43.7555,0.153809,-7.93213,83.7817,2192
1569921945,267.109,-131.936,43.7555,0.153809,-7.93213,83.7817,2192
1569921945,267.109,-131.936,43.7555,0.153809,-7.93213,83.7817,2192
1569921945,267.109,-131.936,43.7555,0.153809,-7.93213,83.7817,2192
1569921945,267.109,-131.936,43.7555,0.153809,-7.93213,83.7817,2192
1569921945,267.109,-131.936,43.7555,0.153809,-7.93213,83.7817,2192
1569921945,267.109,-131.936,43.7555,0.153809,-7.93213,83.7817,2192
1569921945,267.109,-131.936,43.7555,0.153809,-7.93213,83.7817,2192
1569921945,267.109,-131.936,43.7555,0.153809,-7.93213,83.7817,2192
1569921945,267.109,-131.936,43.7555,0.153809,-7.93213,83.7817,2192
1569921945,267.109,-131.936,43.7555,0.153809,-7.93213,83.7817,2192
1569921945,267.109,-131.936,43.7555,0.153809,-7.93213,83.7817,2192
1569921945,267.109,-131.936,43.7555,0.153809,-7.93213,83.7817,2192
1569921945,267.109,-131.936,43.7555,0.153809,-7.93213,83.7817,2192
1569921946,267.109,-131.936,43.7555,0.153809,-7.93213,83.7817,2192
1569921946,267.109,-131.936,43.7555,0.153809,-7.93213,83.7817,2192
1569921946,267.109,-131.936,43.7555,0.153809,-7.93213,83.7817,2192
1569921946,267.109,-131.936,43.7555,0.153809,-7.93213,83.7817,2192
1569921946,267.109,-131.936,43.7555,0.153809,-7.93213,83.7817,2192
1569921946,267.109,-131.936,43.7555,0.153809,-7.93213,83.7817,2192
1569921946,267.109,-131.936,43.7555,0.153809,-7.93213,83.7817,2192
1569921946,267.109,-131.936,43.7555,0.153809,-7.93213,83.7817,2192
1569921946,267.109,-131.936,43.7555,0.153809,-7.93213,83.7817,2192
1569921946,267.109,-131.936,43.7555,0.153809,-7.93213,83.7817,2192
1569921946,267.109,-131.936,43.7555,0.153809,-7.93213,83.7817,2192
1569921946,267.109,-131.936,43.7555,0.153809,-7.93213,83.7817,2192
1569921946,267.109,-131.936,43.7555,0.153809,-7.93213,83.7817,2192
1569921946,267.109,-131.936,43.7555,0.153809,-7.93213,83.7817,2192
1569921946,267.109,-131.936,43.7555,0.153809,-7.93213,83.7817,2192
1569921946,267.109,-131.936,43.7555,0.153809,-7.93213,83.7817,2192
1569921946,267.109,-131.936,43.7555,0.153809,-7.93213,83.7817,2192
1569921946,267.109,-131.936,43.7555,0.153809,-7.93213,83.7817,2192
1569921946,267.109,-131.936,43.7555,0.153809,-7.93213,83.7817,2192
1569921946,267.109,-131.936,43.7555,0.153809,-7.93213,83.7817,2192
1569921946,267.109,-131.936,43.7555,0.153809,-7.93213,83.7817,2192
1569921946,267.109,-131.936,43.7555,0.153809,-7.93213,83.7817,2192
1569921946,267.109,-131.936,43.7555,0.153809,-7.93213,83.7817,2192
1569921946,267.109,-131.936,43.7555,0.153809,-7.93213,83.7817,2192
1569921946,267.109,-131.936,43.7555,0.153809,-7.93213,83.7817,2192
1569921946,267.109,-131.936,43.7555,0.153809,-7.93213,83.7817,2192
1569921946,267.109,-131.936,43.7555,0.153809,-7.93213,83.7817,2192
1569921946,267.109,-131.936,43.7555,0.153809,-7.93213,83.7817,2192
1569921946,267.109,-131.936,43.7555,0.153809,-7.93213,83.7817,2192
1569921946,267.109,-131.936,43.7555,0.153809,-7.93213,83.7817,2192
1569921946,267.109,-131.936,43.7555,0.153809,-7.93213,83.7817,2192
1569921946,267.109,-131.936,43.7555,0.153809,-7.93213,83.7817,2192
1569921946,267.109,-131.936,43.7555,0.153809,-7.93213,83.7817,2192
1569921946,267.109,-131.936,43.7555,0.153809,-7.93213,83.7817,2192
1569921946,267.109,-131.936,43.7555,0.153809,-7.93213,83.7817,2192
1569921946,267.109,-131.936,43.7555,0.153809,-7.93213,83.7817,2192
1569921946,267.109,-131.936,43.7555,0.153809,-7.93213,83.7817,2192
1569921946,267.109,-131.936,43.7555,0.153809,-7.93213,83.7817,2192
1569921946,267.109,-131.936,43.7555,0.153809,-7.93213,83.7817,2192
1569921946,267.109,-131.936,43.7555,0.153809,-7.93213,83.7817,2192
1569921946,267.109,-131.936,43.7555,0.153809,-7.93213,83.7817,2192
1569921946,267.109,-131.936,43.7555,0.153809,-7.93213,83.7817,2192
1569921946,267.109,-131.936,43.7555,0.153809,-7.93213,83.7817,2192
1569921946,267.109,-131.936,43.7555,0.153809,-7.93213,83.7817,2192
1569921946,267.109,-131.936,43.7555,0.153809,-7.93213,83.7817,2192
1569921946,267.109,-131.936,43.7555,0.153809,-7.93213,83.7817,2192
1569921946,267.109,-131.936,43.7555,0.153809,-7.93213,83.7817,2192
1569921946,267.109,-131.936,43.7555,0.153809,-7.93213,83.7817,2192
1569921946,267.109,-131.936,43.7555,0.153809,-7.93213,83.7817,2192
1569921946,267.109,-131.936,43.7555,0.153809,-7.93213,83.7817,2192
1569921946,267.109,-131.936,43.7555,0.153809,-7.93213,83.7817,2192
1569921946,267.109,-131.936,43.7555,0.153809,-7.93213,83.7817,2192
1569921946,267.109,-131.936,43.7555,0.153809,-7.93213,83.7817,2192
1569921946,267.109,-131.936,43.7555,0.153809,-7.93213,83.7817,2192
1569921946,267.109,-131.936,43.7555,0.153809,-7.93213,83.7817,2192
1569921946,267.109,-131.936,43.7555,0.153809,-7.93213,83.7817,2192
1569921946,267.109,-131.936,43.7555,0.153809,-7.93213,83.7817,2192
1569921946,267.109,-131.936,43.7555,0.153809,-7.93213,83.7817,2192
1569921946,267.109,-131.936,43.7555,0.153809,-7.93213,83.7817,2192
1569921946,267.109,-131.936,43.7555,0.153809,-7.93213,83.7817,2192
1569921946,267.109,-131.936,43.7555,0.153809,-7.93213,83.7817,2192
1569921946,267.109,-131.936,43.7555,0.153809,-7.93213,83.7817,2192
1569921951,267.109,-131.936,43.7555,0.153809,-7.93213,83.7817,2192
1569921951,267.109,-131.936,43.7555,0.153809,-7.93213,83.7817,2192
1569921951,267.109,-131.936,43.7555,0.153809,-7.93213,83.7817,2192
1569921951,267.109,-131.936,43.7555,0.153809,-7.93213,83.7817,2192
1569921951,267.109,-131.936,43.7555,0.153809,-7.93213,83.7817,2192
1569921951,267.109,-131.936,43.7555,0.153809,-7.93213,83.7817,2192
1569921951,267.109,-131.936,43.7555,0.153809,-7.93213,83.7817,2192
1569921951,267.109,-131.936,43.7555,0.153809,-7.93213,83.7817,2192
1569921951,267.109,-131.936,43.7555,0.153809,-7.93213,83.7817,2192
1569921951,267.109,-131.936,43.7555,0.153809,-7.93213,83.7817,2192
1569921951,267.109,-131.936,43.7555,0.153809,-7.93213,83.7817,2192
1569921951,267.109,-131.936,43.7555,0.153809,-7.93213,83.7817,2192
1569921951,267.109,-131.936,43.7555,0.153809,-7.93213,83.7817,2192
1569921951,267.109,-131.936,43.7555,0.153809,-7.93213,83.7817,2192
1569921951,267.109,-131.936,43.7555,0.153809,-7.93213,83.7817,2192
1569921951,267.109,-131.936,43.7555,0.153809,-7.93213,83.7817,2192
1569921951,267.109,-131.936,43.7555,0.153809,-7.93213,83.7817,2192
1569921951,267.109,-131.936,43.7555,0.153809,-7.93213,83.7817,2192
1569921951,267.109,-131.936,43.7555,0.153809,-7.93213,83.7817,2192
1569921951,267.109,-131.936,43.7555,0.153809,-7.93213,83.7817,2192
1569921951,267.109,-131.936,43.7555,0.153809,-7.93213,83.7817,2192
1569921951,267.109,-131.936,43.7555,0.153809,-7.93213,83.7817,2192
1569921951,267.109,-131.936,43.7555,0.153809,-7.93213,83.7817,2192
1569921951,267.109,-131.936,43.7555,0.153809,-7.93213,83.7817,2192
1569921951,267.109,-131.936,43.7555,0.153809,-7.93213,83.7817,2192
1569921951,267.109,-131.936,43.7555,0.153809,-7.93213,83.7817,2192
1569921951,267.109,-131.936,43.7555,0.153809,-7.93213,83.7817,2192
1569921951,267.109,-131.936,43.7555,0.153809,-7.93213,83.7817,2192
1569921951,267.109,-131.936,43.7555,0.153809,-7.93213,83.7817,2192
1569921951,267.109,-131.936,43.7555,0.153809,-7.93213,83.7817,2192
1569921951,267.109,-131.936,43.7555,0.153809,-7.93213,83.7817,2192
1569921951,267.109,-131.936,43.7555,0.153809,-7.93213,83.7817,2192
1569921951,267.109,-131.936,43.7555,0.153809,-7.93213,83.7817,2192
1569921951,267.109,-131.936,43.7555,0.153809,-7.93213,83.7817,2192
1569921951,267.109,-131.936,43.7555,0.153809,-7.93213,83.7817,2192
1569921951,267.109,-131.936,43.7555,0.153809,-7.93213,83.7817,2192
1569921951,267.109,-131.936,43.7555,0.153809,-7.93213,83.7817,2192
1569921951,267.109,-131.936,43.7555,0.153809,-7.93213,83.7817,2192
1569921951,267.109,-131.936,43.7555,0.153809,-7.93213,83.7817,2192
1569921951,267.109,-131.936,43.7555,0.153809,-7.93213,83.7817,2192
1569921951,267.109,-131.936,43.7555,0.153809,-7.93213,83.7817,2192
1569921951,267.109,-131.936,43.7555,0.153809,-7.93213,83.7817,2192
1569921951,267.109,-131.936,43.7555,0.153809,-7.93213,83.7817,2192
1569921951,267.109,-131.936,43.7555,0.153809,-7.93213,83.7817,2192
1569921951,267.109,-131.936,43.7555,0.153809,-7.93213,83.7817,2192
1569921951,267.109,-131.936,43.7555,0.153809,-7.93213,83.7817,2192
1569921951,267.109,-131.936,43.7555,0.153809,-7.93213,83.7817,2192
1569921951,267.109,-131.936,43.7555,0.153809,-7.93213,83.7817,2192
1569921951,267.109,-131.936,43.7555,0.153809,-7.93213,83.7817,2192
1569921951,267.109,-131.936,43.7555,0.153809,-7.93213,83.7817,2192
1569921951,267.109,-131.936,43.7555,0.153809,-7.93213,83.7817,2192
1569921951,267.109,-131.936,43.7555,0.153809,-7.93213,83.7817,2192
1569921951,267.109,-131.936,43.7555,0.153809,-7.93213,83.7817,2192
1569921951,267.109,-131.936,43.7555,0.153809,-7.93213,83.7817,2192
1569921951,267.109,-131.936,43.7555,0.153809,-7.91016,83.7817,2192
1569921951,267.109,-131.936,43.7555,0.153809,-7.91016,83.7817,2192
1569921951,267.109,-131.936,43.7555,0.153809,-7.91016,83.7817,2192
1569921951,267.109,-131.936,43.7555,0.153809,-7.91016,83.7817,2192
1569921951,267.109,-131.936,43.7555,0.153809,-7.93213,83.7817,2192
1569921951,267.109,-131.936,43.7555,0.153809,-7.93213,83.7817,2192
1569921951,267.109,-131.936,43.7555,0.153809,-7.91016,83.7817,2192
1569921951,267.109,-131.936,43.7555,0.153809,-7.93213,83.7817,2192
1569921951,267.109,-131.936,43.7555,0.153809,-7.93213,83.7817,2192
1569921951,267.109,-131.936,43.7555,0.153809,-7.93213,83.7817,2192
1569921951,267.109,-131.936,43.7555,0.153809,-7.93213,83.7817,2192
1569921951,267.109,-131.936,43.7555,0.153809,-7.93213,83.7817,2192
1569921951,267.109,-131.936,43.7555,0.153809,-7.93213,83.7817,2192
1569921951,267.109,-131.936,43.7555,0.153809,-7.93213,83.7817,2192
1569921951,267.109,-131.936,43.7555,0.153809,-7.93213,83.7817,2192
1569921951,267.109,-131.936,43.7555,0.153809,-7.93213,83.7817,2192
1569921952,267.109,-131.936,43.7555,0.153809,-7.93213,83.7817,2192
1569921952,267.109,-131.936,43.7555,0.153809,-7.93213,83.7817,2192
1569921952,267.109,-131.936,43.7555,0.153809,-7.93213,83.7817,2192
1569921952,267.109,-131.936,43.7555,0.153809,-7.93213,83.7817,2192
1569921952,267.109,-131.936,43.7555,0.153809,-7.93213,83.7817,2192
1569921952,267.109,-131.936,43.7555,0.153809,-7.93213,83.7817,2192
1569921952,267.109,-131.936,43.7555,0.153809,-7.93213,83.7817,2192
1569921952,267.109,-131.936,43.7555,0.153809,-7.93213,83.7817,2192
1569921952,267.109,-131.936,43.7555,0.153809,-7.93213,83.7817,2192
1569921952,267.109,-131.936,43.7555,0.153809,-7.93213,83.7817,2192
1569921952,267.109,-131.936,43.7555,0.153809,-7.93213,83.7817,2192
1569921952,267.109,-131.936,43.7555,0.153809,-7.93213,83.7817,2192
1569921952,267.109,-131.936,43.7555,0.153809,-7.93213,83.7817,2192
1569921952,267.109,-131.936,43.7555,0.153809,-7.93213,83.7817,2192
1569921952,267.109,-131.936,43.7555,0.153809,-7.91016,83.7817,2192
1569921952,267.109,-131.936,43.7555,0.153809,-7.91016,83.7817,2192
1569921952,267.109,-131.936,43.7555,0.153809,-7.91016,83.7817,2192
1569921952,267.109,-131.936,43.7555,0.153809,-7.91016,83.7817,2192
1569921952,267.109,-131.936,43.7555,0.153809,-7.91016,83.7817,2192
1569921952,267.109,-131.936,43.7555,0.153809,-7.91016,83.7817,2192
1569921952,267.109,-131.936,43.7555,0.153809,-7.91016,83.7817,2192
1569921952,267.109,-131.936,43.7555,0.153809,-7.91016,83.7817,2192
1569921952,267.109,-131.936,43.7555,0.153809,-7.91016,83.7817,2192
1569921952,267.109,-131.936,43.7555,0.153809,-7.91016,83.7817,2192
1569921952,267.109,-131.936,43.7555,0.153809,-7.91016,83.7817,2192
1569921952,267.109,-131.936,43.7555,0.153809,-7.91016,83.7817,2192
1569921952,267.109,-131.936,43.7555,0.153809,-7.91016,83.7817,2192
1569921952,267.109,-131.936,43.7555,0.153809,-7.91016,83.7817,2192
1569921952,267.109,-131.936,43.7555,0.153809,-7.93213,83.7817,2192
1569921952,267.109,-131.936,43.7555,0.153809,-7.93213,83.7817,2192
1569921952,267.109,-131.936,43.7555,0.153809,-7.93213,83.7817,2192
1569921952,267.109,-131.936,43.7555,0.153809,-7.93213,83.7817,2192
1569921952,267.109,-131.936,43.7555,0.153809,-7.93213,83.7817,2192
1569921952,267.109,-131.936,43.7555,0.153809,-7.93213,83.7817,2192
1569921952,267.109,-131.936,43.7555,0.153809,-7.93213,83.7817,2192
1569921952,267.109,-131.936,43.7555,0.153809,-7.93213,83.7817,2192
1569921952,267.109,-131.936,43.7555,0.153809,-7.93213,83.7817,2192
1569921952,267.109,-131.936,43.7555,0.153809,-7.93213,83.7817,2192
1569921952,267.109,-131.936,43.7555,0.153809,-7.93213,83.7817,2192
1569921952,267.109,-131.936,43.7555,0.153809,-7.93213,83.7817,2192
1569921952,267.109,-131.936,43.7555,0.153809,-7.93213,83.7817,2192
1569921952,267.109,-131.936,43.7555,0.153809,-7.93213,83.7817,2192
1569921952,267.109,-131.936,43.7555,0.153809,-7.93213,83.7817,2192
1569921952,267.109,-131.936,43.7555,0.153809,-7.93213,83.7817,2192
1569921952,267.109,-131.936,43.7555,0.153809,-7.93213,83.7817,2192
1569921952,267.109,-131.936,43.7555,0.153809,-7.93213,83.7817,2192
1569921952,267.109,-131.936,43.7555,0.153809,-7.93213,83.7817,2192
1569921952,267.109,-131.936,43.7555,0.153809,-7.91016,83.7817,2192
1569921952,267.109,-131.936,43.7555,0.153809,-7.91016,83.7817,2192
1569921952,267.109,-131.936,43.7555,0.153809,-7.91016,83.7817,2192
1569921952,267.109,-131.936,43.7555,0.153809,-7.91016,83.7817,2192
1569921952,267.109,-131.936,43.7555,0.153809,-7.91016,83.7817,2192
1569921952,267.109,-131.936,43.7555,0.153809,-7.91016,83.7817,2192
1569921952,267.109,-131.936,43.7555,0.153809,-7.93213,83.7817,2192
1569921952,267.109,-131.936,43.7555,0.153809,-7.91016,83.7817,2192
1569921952,267.109,-131.936,43.7555,0.153809,-7.91016,83.7817,2192
1569921952,267.109,-131.936,43.7555,0.153809,-7.91016,83.7817,2192
1569921952,267.109,-131.936,43.7555,0.153809,-7.91016,83.7817,2192
1569921952,267.109,-131.936,43.7555,0.153809,-7.91016,83.7817,2192
1569921952,267.109,-131.936,43.7555,0.153809,-7.91016,83.7817,2192
1569921952,267.109,-131.936,43.7555,0.153809,-7.91016,83.7817,2192
1569921952,267.109,-131.936,43.7555,0.153809,-7.91016,83.7817,2192
1569921952,267.109,-131.936,43.7555,0.153809,-7.91016,83.7817,2192
1569921952,267.109,-131.936,43.7555,0.153809,-7.91016,83.7817,2192
1569921952,267.109,-131.936,43.7555,0.153809,-7.91016,83.7817,2192
1569921952,267.109,-131.936,43.7555,0.153809,-7.91016,83.7817,2192
1569921952,267.109,-131.936,43.7555,0.153809,-7.91016,83.7817,2192
1569921952,267.109,-131.936,43.7555,0.153809,-7.91016,83.7817,2192
1569921952,267.109,-131.936,43.7555,0.153809,-7.91016,83.7817,2192
1569921952,267.109,-131.936,43.7555,0.153809,-7.91016,83.7817,2192
1569921952,267.109,-131.936,43.7555,0.153809,-7.91016,83.7817,2192
1569921952,267.109,-131.936,43.7555,0.153809,-7.91016,83.7817,2192
1569921952,267.109,-131.936,43.7555,0.153809,-7.91016,83.7817,2192
1569921952,267.109,-131.936,43.7555,0.153809,-7.91016,83.7817,2192
1569921952,267.109,-131.936,43.7555,0.153809,-7.91016,83.7817,2192
1569921952,267.109,-131.936,43.7555,0.153809,-7.91016,83.7817,2192
1569921952,267.109,-131.936,43.7555,0.153809,-7.91016,83.7817,2192
1569921952,267.109,-131.936,43.7555,0.153809,-7.91016,83.7817,2192
1569921952,267.109,-131.936,43.7555,0.153809,-7.91016,83.7817,2192
1569921952,267.109,-131.936,43.7555,0.153809,-7.91016,83.7817,2192
1569921952,267.109,-131.936,43.7555,0.153809,-7.91016,83.7817,2192
1569921952,267.109,-131.936,43.7555,0.153809,-7.91016,83.7817,2192
1569921952,267.109,-131.936,43.7555,0.153809,-7.91016,83.7817,2192
1569921952,267.109,-131.936,43.7555,0.153809,-7.91016,83.7817,2192
1569921952,267.109,-131.936,43.7555,0.153809,-7.91016,83.7817,2192
1569921952,267.109,-131.936,43.7555,0.153809,-7.91016,83.7817,2192
1569921952,267.109,-131.936,43.7555,0.153809,-7.91016,83.7817,2192
1569921952,267.109,-131.936,43.7555,0.153809,-7.91016,83.7817,2192
1569921952,267.109,-131.936,43.7555,0.153809,-7.91016,83.7817,2192
1569921952,267.109,-131.936,43.7555,0.153809,-7.91016,83.7817,2192
1569921952,267.109,-131.936,43.7555,0.153809,-7.91016,83.7817,2192
1569921952,267.109,-131.936,43.7555,0.153809,-7.91016,83.7817,2192
1569921952,267.109,-131.936,43.7555,0.153809,-7.91016,83.7817,2192
1569921952,267.109,-131.936,43.7555,0.153809,-7.91016,83.7817,2192
1569921952,267.109,-131.936,43.7555,0.153809,-7.93213,83.7817,2192
1569921952,267.109,-131.936,43.7555,0.153809,-7.93213,83.7817,2192
1569921952,267.109,-131.936,43.7555,0.153809,-7.93213,83.7817,2192
1569921952,267.109,-131.936,43.7555,0.153809,-7.93213,83.7817,2192
1569921952,267.109,-131.936,43.7555,0.153809,-7.93213,83.7817,2192
1569921952,267.109,-131.936,43.7555,0.153809,-7.93213,83.7817,2192
1569921953,267.109,-131.936,43.7555,0.153809,-7.93213,83.7817,2192
1569921953,267.109,-131.936,43.7555,0.153809,-7.93213,83.7817,2192
1569921953,267.109,-131.936,43.7555,0.153809,-7.93213,83.7817,2192
1569921953,267.109,-131.936,43.7555,0.153809,-7.93213,83.7817,2192
1569921953,267.109,-131.936,43.7555,0.153809,-7.93213,83.7817,2192
1569921953,267.109,-131.936,43.7555,0.153809,-7.93213,83.7817,2192
1569921953,267.109,-131.936,43.7555,0.153809,-7.93213,83.7817,2192
1569921953,267.109,-131.936,43.7555,0.153809,-7.93213,83.7817,2192
1569921953,267.109,-131.936,43.7555,0.153809,-7.93213,83.7817,2192
1569921953,267.109,-131.936,43.7555,0.153809,-7.91016,83.7817,2192
1569921953,267.109,-131.936,43.7555,0.153809,-7.91016,83.7817,2192
1569921953,267.109,-131.936,43.7555,0.153809,-7.93213,83.7817,2192
1569921953,267.109,-131.936,43.7555,0.153809,-7.91016,83.7817,2192
1569921953,267.109,-131.936,43.7555,0.153809,-7.91016,83.7817,2192
1569921953,267.109,-131.936,43.7555,0.153809,-7.93213,83.7817,2192
1569921953,267.109,-131.936,43.7555,0.153809,-7.93213,83.7817,2192
1569921953,267.109,-131.936,43.7555,0.153809,-7.93213,83.7817,2192
1569921953,267.109,-131.936,43.7555,0.153809,-7.93213,83.7817,2192
1569921953,267.109,-131.936,43.7555,0.153809,-7.93213,83.7817,2192
1569921953,267.109,-131.936,43.7555,0.153809,-7.93213,83.7817,2192
1569921953,267.109,-131.936,43.7555,0.153809,-7.93213,83.7817,2192
1569921953,267.109,-131.936,43.7555,0.153809,-7.93213,83.7817,2192
1569921953,267.109,-131.936,43.7555,0.153809,-7.93213,83.7817,2192
1569921953,267.109,-131.936,43.7555,0.153809,-7.93213,83.7817,2192
1569921953,267.109,-131.936,43.7555,0.153809,-7.93213,83.7817,2192
1569921953,267.109,-131.936,43.7555,0.153809,-7.93213,83.7817,2192
1569921953,267.109,-131.936,43.7555,0.153809,-7.93213,83.7817,2192
1569921953,267.109,-131.936,43.7555,0.153809,-7.93213,83.7817,2192
1569921953,267.109,-131.936,43.7555,0.153809,-7.93213,83.7817,2192
1569921953,267.109,-131.936,43.7555,0.153809,-7.93213,83.7817,2192
1569921953,267.109,-131.936,43.7555,0.153809,-7.93213,83.7817,2192
1569921953,267.109,-131.936,43.7555,0.153809,-7.93213,83.7817,2192
1569921953,267.109,-131.936,43.7555,0.153809,-7.93213,83.7817,2192
1569921953,267.109,-131.936,43.7555,0.153809,-7.93213,83.7817,2192
1569921953,267.109,-131.936,43.7555,0.153809,-7.93213,83.7817,2192
1569921953,267.109,-131.936,43.7555,0.153809,-7.93213,83.7817,2192
1569921953,267.109,-131.936,43.7555,0.153809,-7.93213,83.7817,2192
1569921953,267.109,-131.936,43.7555,0.153809,-7.93213,83.7817,2192
1569921953,267.109,-131.936,43.7555,0.153809,-7.93213,83.7817,2192
1569921953,267.109,-131.936,43.7555,0.153809,-7.93213,83.7817,2192
1569921953,267.109,-131.936,43.7555,0.153809,-7.93213,83.7817,2192
1569921953,267.109,-131.936,43.7555,0.153809,-7.93213,83.7817,2192
1569921953,267.109,-131.936,43.7555,0.153809,-7.93213,83.7817,2192
1569921953,267.109,-131.936,43.7555,0.153809,-7.93213,83.7817,2192
1569921953,267.109,-131.936,43.7555,0.153809,-7.93213,83.7817,2192
1569921953,267.109,-131.936,43.7555,0.153809,-7.93213,83.7817,2192
1569921953,267.109,-131.936,43.7555,0.153809,-7.93213,83.7817,2192
1569921953,267.109,-131.936,43.7555,0.153809,-7.93213,83.7817,2192
1569921953,267.109,-131.936,43.7555,0.153809,-7.93213,83.7817,2192
1569921953,267.109,-131.936,43.7555,0.153809,-7.93213,83.7817,2192
1569921953,267.109,-131.936,43.7555,0.153809,-7.93213,83.7817,2192
1569921953,267.109,-131.936,43.7555,0.153809,-7.93213,83.7817,2192
1569921953,267.109,-131.936,43.7555,0.153809,-7.93213,83.7817,2192
1569921953,267.109,-131.936,43.7555,0.153809,-7.93213,83.7817,2192
1569921953,267.109,-131.936,43.7555,0.153809,-7.93213,83.7817,2192
1569921953,267.109,-131.936,43.7555,0.153809,-7.93213,83.7817,2192
1569921953,267.109,-131.936,43.7555,0.153809,-7.93213,83.7817,2192
1569921953,267.109,-131.936,43.7555,0.153809,-7.93213,83.7817,2192
1569921953,267.109,-131.936,43.7555,0.153809,-7.93213,83.7817,2192
1569921953,267.109,-131.936,43.7555,0.153809,-7.93213,83.7817,2192
1569921953,267.109,-131.936,43.7555,0.153809,-7.93213,83.7817,2192
1569921953,267.109,-131.936,43.7555,0.153809,-7.93213,83.7817,2192
1569921953,267.109,-131.936,43.7555,0.153809,-7.93213,83.7817,2192
1569921953,267.109,-131.936,43.7555,0.153809,-7.93213,83.7817,2192
1569921953,267.109,-131.936,43.7555,0.153809,-7.93213,83.7817,2192
1569921953,267.109,-131.936,43.7555,0.153809,-7.93213,83.7817,2192
1569921953,267.109,-131.936,43.7555,0.153809,-7.93213,83.7817,2192
1569921953,267.109,-131.936,43.7555,0.153809,-7.93213,83.7817,2192
1569921953,267.109,-131.936,43.7555,0.153809,-7.93213,83.7817,2192
1569921953,267.109,-131.936,43.7555,0.153809,-7.93213,83.7817,2192
1569921953,267.109,-131.936,43.7555,0.153809,-7.93213,83.7817,2192
1569921953,267.109,-131.936,43.7555,0.153809,-7.93213,83.7817,2192
1569921953,267.109,-131.936,43.7555,0.153809,-7.93213,83.7817,2192
1569921953,267.109,-131.936,43.7555,0.153809,-7.93213,83.7817,2192
1569921953,267.109,-131.936,43.7555,0.153809,-7.93213,83.7817,2192
1569921953,267.109,-131.936,43.7555,0.153809,-7.93213,83.7817,2192
1569921953,267.109,-131.936,43.7555,0.153809,-7.93213,83.7817,2192
1569921953,267.109,-131.936,43.7555,0.153809,-7.93213,83.7817,2192
1569921953,267.109,-131.936,43.7555,0.153809,-7.93213,83.7817,2192
1569921953,267.109,-131.936,43.7555,0.153809,-7.93213,83.7817,2192
1569921953,267.109,-131.936,43.7555,0.153809,-7.93213,83.7817,2192
1569921953,267.109,-131.936,43.7555,0.153809,-7.93213,83.7817,2192
1569921953,267.109,-131.936,43.7555,0.153809,-7.93213,83.7817,2192
1569921953,267.109,-131.936,43.7555,0.153809,-7.93213,83.7817,2192
1569921953,267.109,-131.936,43.7555,0.153809,-7.93213,83.7817,2192
1569921953,267.109,-131.936,43.7555,0.153809,-7.93213,83.7817,2192
1569921953,267.109,-131.936,43.7555,0.153809,-7.93213,83.7817,2192
1569921953,267.109,-131.936,43.7555,0.153809,-7.93213,83.7817,2192
1569921953,267.109,-131.936,43.7555,0.153809,-7.93213,83.7817,2192
1569921953,267.109,-131.936,43.7555,0.153809,-7.93213,83.7817,2192
1569921953,267.109,-131.936,43.7555,0.153809,-7.93213,83.7817,2192
1569921953,267.109,-131.936,43.7555,0.153809,-7.93213,83.7817,2192
1569921953,267.109,-131.936,43.7555,0.153809,-7.93213,83.7817,2192
1569921953,267.109,-131.936,43.7555,0.153809,-7.93213,83.7817,2192
1569921953,267.109,-131.936,43.7555,0.153809,-7.93213,83.7817,2192
1569921953,267.109,-131.936,43.7555,0.153809,-7.93213,83.7817,2192
1569921953,267.109,-131.936,43.7555,0.153809,-7.93213,83.7817,2192
1569921953,267.109,-131.936,43.7555,0.153809,-7.93213,83.7817,2192
1569921953,267.109,-131.936,43.7555,0.153809,-7.93213,83.7817,2192
1569921953,267.109,-131.936,43.7555,0.153809,-7.93213,83.7817,2192
1569921954,267.109,-131.936,43.7555,0.153809,-7.93213,83.7817,2192
1569921954,267.109,-131.936,43.7555,0.153809,-7.93213,83.7817,2192
1569921954,267.109,-131.936,43.7555,0.153809,-7.93213,83.7817,2192
1569921954,267.109,-131.936,43.7555,0.153809,-7.93213,83.7817,2192
1569921954,267.109,-131.936,43.7555,0.153809,-7.93213,83.7817,2192
1569921954,267.109,-131.936,43.7555,0.153809,-7.93213,83.7817,2192
1569921954,267.109,-131.936,43.7555,0.153809,-7.93213,83.7817,2192
1569921954,267.109,-131.936,43.7555,0.153809,-7.93213,83.7817,2192
1569921954,267.109,-131.936,43.7555,0.153809,-7.93213,83.7817,2192
1569921954,267.109,-131.936,43.7555,0.153809,-7.93213,83.7817,2192
1569921954,267.109,-131.936,43.7555,0.153809,-7.93213,83.7817,2192
1569921954,267.109,-131.936,43.7555,0.153809,-7.93213,83.7817,2192
1569921954,267.109,-131.936,43.7555,0.153809,-7.93213,83.7817,2192
1569921954,267.109,-131.936,43.7555,0.153809,-7.93213,83.7817,2192
1569921954,267.109,-131.936,43.7555,0.153809,-7.93213,83.7817,2192
1569921954,267.109,-131.936,43.7555,0.153809,-7.93213,83.7817,2192
1569921954,267.109,-131.936,43.7555,0.153809,-7.93213,83.7817,2192
1569921954,267.109,-131.936,43.7555,0.153809,-7.93213,83.7817,2192
1569921954,267.109,-131.936,43.7555,0.153809,-7.93213,83.7817,2192
1569921954,267.109,-131.936,43.7555,0.153809,-7.93213,83.7817,2192
1569921954,267.109,-131.936,43.7555,0.153809,-7.93213,83.7817,2192
1569921954,267.109,-131.936,43.7555,0.153809,-7.93213,83.7817,2192
1569921954,267.109,-131.936,43.7555,0.153809,-7.93213,83.7817,2192
1569921954,267.109,-131.936,43.7555,0.153809,-7.93213,83.7817,2192
1569921954,267.109,-131.936,43.7555,0.153809,-7.93213,83.7817,2192
1569921954,267.109,-131.936,43.7555,0.153809,-7.93213,83.7817,2192
1569921954,267.109,-131.936,43.7555,0.153809,-7.93213,83.7817,2192
1569921954,267.109,-131.936,43.7555,0.153809,-7.93213,83.7817,2192
1569921954,267.109,-131.936,43.7555,0.153809,-7.93213,83.7817,2192
1569921954,267.109,-131.936,43.7555,0.153809,-7.93213,83.7817,2192
1569921954,267.109,-131.936,43.7555,0.153809,-7.93213,83.7817,2192
1569921954,267.109,-131.936,43.7555,0.153809,-7.93213,83.7817,2192
1569921954,267.109,-131.936,43.7555,0.153809,-7.93213,83.7817,2192
1569921954,267.109,-131.936,43.7555,0.153809,-7.93213,83.7817,2192
1569921954,267.109,-131.936,43.7555,0.153809,-7.93213,83.7817,2192
1569921954,267.109,-131.936,43.7555,0.153809,-7.93213,83.7817,2192
1569921954,267.109,-131.936,43.7555,0.153809,-7.93213,83.7817,2192
1569921954,267.109,-131.936,43.7555,0.153809,-7.93213,83.7817,2192
1569921954,267.109,-131.936,43.7555,0.153809,-7.93213,83.7817,2192
1569921954,267.109,-131.936,43.7555,0.153809,-7.93213,83.7817,2192
1569921954,267.109,-131.936,43.7555,0.153809,-7.93213,83.7817,2192
1569921954,267.109,-131.936,43.7555,0.153809,-7.93213,83.7817,2192
1569921954,267.109,-131.936,43.7555,0.153809,-7.93213,83.7817,2192
1569921954,267.109,-131.936,43.7555,0.153809,-7.93213,83.7817,2192
1569921954,267.109,-131.936,43.7555,0.153809,-7.93213,83.7817,2192
1569921954,267.109,-131.936,43.7555,0.153809,-7.93213,83.7817,2192
1569921954,267.109,-131.936,43.7555,0.153809,-7.93213,83.7817,2192
1569921954,267.109,-131.936,43.7555,0.153809,-7.93213,83.7817,2188
1569921954,267.109,-131.936,43.7555,0.153809,-7.93213,83.7817,2188
1569921954,267.109,-131.936,43.7555,0.153809,-7.93213,83.7817,2188
1569921954,267.109,-131.936,43.7555,0.153809,-7.93213,83.7817,2188
1569921954,267.109,-131.936,43.7555,0.153809,-7.93213,83.7817,2188
1569921954,267.109,-131.936,43.7555,0.153809,-7.93213,83.7817,2188
1569921954,267.109,-131.936,43.7555,0.153809,-7.93213,83.7817,2188
1569921954,267.109,-131.936,43.7555,0.153809,-7.93213,83.7817,2188
1569921954,267.109,-131.936,43.7555,0.153809,-7.93213,83.7817,2188
1569921954,267.109,-131.936,43.7555,0.153809,-7.93213,83.7817,2188
1569921954,267.109,-131.936,43.7555,0.153809,-7.93213,83.7817,2188
1569921954,267.109,-131.936,43.7555,0.153809,-7.93213,83.7817,2188
1569921954,267.109,-131.936,43.7555,0.153809,-7.93213,83.7817,2188
1569921954,267.109,-131.936,43.7555,0.153809,-7.93213,83.7817,2188
1569921954,267.109,-131.936,43.7555,0.153809,-7.93213,83.7817,2188
1569921954,267.109,-131.936,43.7555,0.153809,-7.93213,83.7817,2188
1569921954,267.109,-131.936,43.7555,0.153809,-7.93213,83.7817,2188
1569921954,267.109,-131.936,43.7555,0.153809,-7.93213,83.7817,2188
1569921954,267.109,-131.936,43.7555,0.153809,-7.93213,83.7817,2188
1569921954,267.109,-131.936,43.7555,0.153809,-7.93213,83.7817,2188
1569921954,267.109,-131.936,43.7555,0.153809,-7.93213,83.7817,2188
1569921954,267.109,-131.936,43.7555,0.153809,-7.93213,83.7817,2188
1569921954,267.109,-131.936,43.7555,0.153809,-7.93213,83.7817,2188
1569921954,267.109,-131.936,43.7555,0.153809,-7.93213,83.7817,2188
1569921954,267.109,-131.936,43.7555,0.153809,-7.93213,83.7817,2188
1569921954,267.109,-131.936,43.7555,0.153809,-7.93213,83.7817,2192
1569921954,267.109,-131.936,43.7555,0.153809,-7.93213,83.7817,2192
1569921954,267.109,-131.936,43.7555,0.153809,-7.93213,83.7817,2192
1569921954,267.109,-131.936,43.7555,0.153809,-7.93213,83.7817,2192
1569921954,267.109,-131.936,43.7555,0.153809,-7.93213,83.7817,2192
1569921954,267.109,-131.936,43.7555,0.153809,-7.93213,83.7817,2192
1569921954,267.109,-131.936,43.7555,0.153809,-7.93213,83.7817,2192
1569921954,267.109,-131.936,43.7555,0.153809,-7.93213,83.7817,2192
1569921954,267.109,-131.936,43.7555,0.153809,-7.93213,83.7817,2192
1569921954,267.109,-131.936,43.7555,0.153809,-7.93213,83.7817,2192
1569921954,267.109,-131.936,43.7555,0.153809,-7.93213,83.7817,2192
1569921954,267.109,-131.936,43.7555,0.153809,-7.93213,83.7817,2192
1569921954,267.109,-131.936,43.7555,0.153809,-7.93213,83.7817,2192
1569921954,267.109,-131.936,43.7555,0.153809,-7.93213,83.7817,2192
1569921954,267.109,-131.936,43.7555,0.153809,-7.93213,83.7817,2192
1569921954,267.109,-131.936,43.7555,0.153809,-7.93213,83.7817,2192
1569921954,267.109,-131.936,43.7555,0.153809,-7.93213,83.7817,2192
1569921954,267.109,-131.936,43.7555,0.153809,-7.93213,83.7817,2192
1569921954,267.109,-131.936,43.7555,0.153809,-7.93213,83.7817,2192
1569921954,267.109,-131.936,43.7555,0.153809,-7.93213,83.7817,2192
1569921954,267.109,-131.936,43.7555,0.153809,-7.93213,83.7817,2192
1569921954,267.109,-131.936,43.7555,0.153809,-7.93213,83.7817,2192
1569921954,267.109,-131.936,43.7555,0.153809,-7.93213,83.7817,2192
1569921954,267.109,-131.936,43.7555,0.153809,-7.93213,83.7817,2192
1569921954,267.109,-131.936,43.7555,0.153809,-7.93213,83.7817,2192
1569921954,267.109,-131.936,43.7555,0.153809,-7.93213,83.7817,2192
1569921954,267.109,-131.936,43.7555,0.153809,-7.93213,83.7817,2192
1569921954,267.109,-131.936,43.7555,0.153809,-7.93213,83.7817,2192
1569921955,267.109,-131.936,43.7555,0.153809,-7.93213,83.7817,2192
1569921955,267.109,-131.936,43.7555,0.153809,-7.93213,83.7817,2192
1569921955,267.109,-131.936,43.7555,0.153809,-7.93213,83.7817,2192
1569921955,267.109,-131.936,43.7555,0.153809,-7.93213,83.7817,2192
1569921955,267.109,-131.936,43.7555,0.153809,-7.93213,83.7817,2192
1569921955,267.109,-131.936,43.7555,0.153809,-7.93213,83.7817,2192
1569921955,267.109,-131.936,43.7555,0.153809,-7.93213,83.7817,2192
1569921955,267.109,-131.936,43.7555,0.153809,-7.93213,83.7817,2192
1569921955,267.109,-131.936,43.7555,0.153809,-7.93213,83.7817,2192
1569921955,267.109,-131.936,43.7555,0.153809,-7.93213,83.7817,2192
1569921955,267.109,-131.936,43.7555,0.153809,-7.93213,83.7817,2192
1569921955,267.109,-131.936,43.7555,0.153809,-7.93213,83.7817,2192
1569921955,267.109,-131.936,43.7555,0.153809,-7.93213,83.7817,2192
1569921955,267.109,-131.936,43.7555,0.153809,-7.93213,83.7817,2192
1569921955,267.109,-131.936,43.7555,0.153809,-7.93213,83.7817,2192
1569921955,267.109,-131.936,43.7555,0.153809,-7.93213,83.7817,2192
1569921955,267.109,-131.936,43.7555,0.153809,-7.93213,83.7817,2192
1569921955,267.109,-131.936,43.7555,0.153809,-7.93213,83.7817,2192
1569921955,267.109,-131.936,43.7555,0.153809,-7.93213,83.7817,2192
1569921955,267.109,-131.936,43.7555,0.153809,-7.93213,83.7817,2192
1569921955,267.109,-131.936,43.7555,0.153809,-7.93213,83.7817,2192
1569921955,267.109,-131.936,43.7555,0.153809,-7.93213,83.7817,2192
1569921955,267.109,-131.936,43.7555,0.153809,-7.93213,83.7817,2192
1569921955,267.109,-131.936,43.7555,0.153809,-7.93213,83.7817,2192
1569921955,267.109,-131.936,43.7555,0.153809,-7.93213,83.7817,2192
1569921955,267.109,-131.936,43.7555,0.153809,-7.93213,83.7817,2192
1569921955,267.109,-131.936,43.7555,0.153809,-7.93213,83.7817,2192
1569921955,267.109,-131.936,43.7555,0.153809,-7.93213,83.7817,2192
1569921955,267.109,-131.936,43.7555,0.153809,-7.93213,83.7817,2192
1569921955,267.109,-131.936,43.7555,0.153809,-7.93213,83.7817,2192
1569921955,267.109,-131.936,43.7555,0.153809,-7.93213,83.7817,2192
1569921955,267.109,-131.936,43.7555,0.153809,-7.93213,83.7817,2192
1569921955,267.109,-131.936,43.7555,0.153809,-7.93213,83.7817,2192
1569921955,267.109,-131.936,43.7555,0.153809,-7.93213,83.7817,2192
1569921955,267.109,-131.936,43.7555,0.153809,-7.93213,83.7817,2192
1569921955,267.109,-131.936,43.7555,0.153809,-7.93213,83.7817,2192
1569921955,267.109,-131.936,43.7555,0.153809,-7.93213,83.7817,2192
1569921955,267.109,-131.936,43.7555,0.153809,-7.93213,83.7817,2192
1569921955,267.109,-131.936,43.7555,0.153809,-7.93213,83.7817,2192
1569921955,267.109,-131.936,43.7555,0.153809,-7.93213,83.7817,2192
1569921955,267.109,-131.936,43.7555,0.153809,-7.93213,83.7817,2192
1569921955,267.109,-131.936,43.7555,0.153809,-7.93213,83.7817,2192
1569921955,267.109,-131.936,43.7555,0.153809,-7.93213,83.7817,2192
1569921955,267.109,-131.936,43.7555,0.153809,-7.93213,83.7817,2192
1569921955,267.109,-131.936,43.7555,0.153809,-7.93213,83.7817,2192
1569921955,267.109,-131.936,43.7555,0.153809,-7.93213,83.7817,2192
1569921955,267.109,-131.936,43.7555,0.153809,-7.93213,83.7817,2192
1569921955,267.109,-131.936,43.7555,0.153809,-7.93213,83.7817,2192
1569921955,267.109,-131.936,43.7555,0.153809,-7.93213,83.7817,2192
1569921955,267.109,-131.936,43.7555,0.153809,-7.93213,83.7817,2192
1569921955,267.109,-131.936,43.7555,0.153809,-7.93213,83.7817,2192
1569921955,267.109,-131.936,43.7555,0.153809,-7.93213,83.7817,2192
1569921955,267.109,-131.936,43.7555,0.153809,-7.93213,83.7817,2192
1569921955,267.109,-131.936,43.7555,0.153809,-7.93213,83.7817,2192
1569921955,267.109,-131.936,43.7555,0.153809,-7.93213,83.7817,2192
1569921955,267.109,-131.936,43.7555,0.153809,-7.93213,83.7817,2192
1569921955,267.109,-131.936,43.7555,0.153809,-7.93213,83.7817,2192
1569921955,267.109,-131.936,43.7555,0.153809,-7.93213,83.7817,2192
1569921955,267.109,-131.936,43.7555,0.153809,-7.93213,83.7817,2192
1569921955,267.109,-131.936,43.7555,0.153809,-7.93213,83.7817,2192
1569921955,267.109,-131.936,43.7555,0.153809,-7.93213,83.7817,2192
1569921955,267.109,-131.936,43.7555,0.153809,-7.93213,83.7817,2192
1569921955,267.109,-131.936,43.7555,0.153809,-7.93213,83.7817,2192
1569921955,267.109,-131.936,43.7555,0.153809,-7.93213,83.7817,2192
1569921955,267.109,-131.936,43.7555,0.153809,-7.93213,83.7817,2192
1569921955,267.109,-131.936,43.7555,0.153809,-7.93213,83.7817,2192
1569921955,267.109,-131.936,43.7555,0.153809,-7.93213,83.7817,2192
1569921955,267.109,-131.936,43.7555,0.153809,-7.93213,83.7817,2192
1569921955,267.109,-131.936,43.7555,0.153809,-7.93213,83.7817,2192
1569921955,267.109,-131.936,43.7555,0.153809,-7.93213,83.7817,2192
1569921955,267.109,-131.936,43.7555,0.153809,-7.93213,83.7817,2192
1569921955,267.109,-131.936,43.7555,0.153809,-7.93213,83.7817,2192
1569921955,267.109,-131.936,43.7555,0.153809,-7.93213,83.7817,2192
1569921955,267.109,-131.936,43.7555,0.153809,-7.93213,83.7817,2192
1569921955,267.109,-131.936,43.7555,0.153809,-7.93213,83.7817,2192
1569921955,267.109,-131.936,43.7555,0.153809,-7.93213,83.7817,2192
1569921955,267.109,-131.936,43.7555,0.153809,-7.93213,83.7817,2192
1569921955,267.109,-131.936,43.7555,0.153809,-7.93213,83.7817,2192
1569921955,267.109,-131.936,43.7555,0.153809,-7.93213,83.7817,2192
1569921955,267.109,-131.936,43.7555,0.153809,-7.93213,83.7817,2192
1569921955,267.109,-131.936,43.7555,0.153809,-7.93213,83.7817,2192
1569921955,267.109,-131.936,43.7555,0.153809,-7.93213,83.7817,2192
1569921955,267.109,-131.936,43.7555,0.153809,-7.93213,83.7817,2192
1569921955,267.109,-131.936,43.7555,0.153809,-7.93213,83.7817,2192
1569921955,267.109,-131.936,43.7555,0.153809,-7.93213,83.7817,2192
1569921955,267.109,-131.936,43.7555,0.153809,-7.93213,83.7817,2192
1569921955,267.109,-131.936,43.7555,0.153809,-7.93213,83.7817,2192
1569921955,267.109,-131.936,43.7555,0.153809,-7.93213,83.7817,2192
1569921955,267.109,-131.936,43.7555,0.153809,-7.93213,83.7817,2192
1569921955,267.109,-131.936,43.7555,0.153809,-7.93213,83.7817,2192
1569921955,267.109,-131.936,43.7555,0.153809,-7.93213,83.7817,2192
1569921955,267.109,-131.936,43.7555,0.153809,-7.93213,83.7817,2192
1569921955,267.109,-131.936,43.7555,0.153809,-7.93213,83.7817,2192
1569921955,267.109,-131.936,43.7555,0.153809,-7.93213,83.7817,2192
1569921955,267.109,-131.936,43.7555,0.153809,-7.93213,83.7817,2192
1569921955,267.109,-131.936,43.7555,0.153809,-7.93213,83.7817,2192
1569921955,267.109,-131.936,43.7555,0.153809,-7.93213,83.7817,2192
1569921955,267.109,-131.936,43.7555,0.153809,-7.93213,83.7817,2192
1569921955,267.109,-131.936,43.7555,0.153809,-7.93213,83.7817,2192
1569921955,267.109,-131.936,43.7555,0.153809,-7.93213,83.7817,2192
1569921956,267.109,-131.936,43.7555,0.153809,-7.93213,83.7817,2192
1569921956,267.109,-131.936,43.7555,0.153809,-7.93213,83.7817,2192
1569921956,267.109,-131.936,43.7555,0.153809,-7.93213,83.7817,2192
1569921956,267.109,-131.936,43.7555,0.153809,-7.93213,83.7817,2192
1569921956,267.109,-131.936,43.7555,0.153809,-7.93213,83.7817,2192
1569921956,267.109,-131.936,43.7555,0.153809,-7.93213,83.7817,2192
1569921956,267.109,-131.936,43.7555,0.153809,-7.93213,83.7817,2192
1569921956,267.109,-131.936,43.7555,0.153809,-7.93213,83.7817,2192
1569921956,267.109,-131.936,43.7555,0.153809,-7.93213,83.7817,2192
1569921956,267.109,-131.936,43.7555,0.153809,-7.93213,83.7817,2192
1569921956,267.109,-131.936,43.7555,0.153809,-7.93213,83.7817,2192
1569921956,267.109,-131.936,43.7555,0.153809,-7.93213,83.7817,2192
1569921956,267.109,-131.936,43.7555,0.153809,-7.93213,83.7817,2192
1569921956,267.109,-131.936,43.7555,0.153809,-7.93213,83.7817,2192
1569921956,267.109,-131.936,43.7555,0.153809,-7.93213,83.7817,2192
1569921956,267.109,-131.936,43.7555,0.153809,-7.93213,83.7817,2192
1569921956,267.109,-131.936,43.7555,0.153809,-7.93213,83.7817,2192
1569921956,267.109,-131.936,43.7555,0.153809,-7.93213,83.7817,2192
1569921956,267.109,-131.936,43.7555,0.153809,-7.93213,83.7817,2192
1569921956,267.109,-131.936,43.7555,0.153809,-7.93213,83.7817,2192
1569921956,267.109,-131.936,43.7555,0.153809,-7.93213,83.7817,2192
1569921956,267.109,-131.936,43.7555,0.153809,-7.93213,83.7817,2192
1569921956,267.109,-131.936,43.7555,0.153809,-7.93213,83.7817,2192
1569921956,267.109,-131.936,43.7555,0.153809,-7.93213,83.7817,2192
1569921956,267.109,-131.936,43.7555,0.153809,-7.93213,83.7817,2192
1569921956,267.109,-131.936,43.7555,0.153809,-7.93213,83.7817,2192
1569921956,267.109,-131.936,43.7555,0.153809,-7.93213,83.7817,2192
1569921956,267.109,-131.936,43.7555,0.153809,-7.93213,83.7817,2192
1569921956,267.109,-131.936,43.7555,0.153809,-7.93213,83.7817,2192
1569921956,267.109,-131.936,43.7555,0.153809,-7.93213,83.7817,2192
1569921960,267.109,-131.936,43.7555,0.153809,-7.93213,83.7817,2192
1569921960,267.109,-131.936,43.7555,0.153809,-7.93213,83.7817,2192
1569921960,267.109,-131.936,43.7555,0.153809,-7.93213,83.7817,2192
1569921960,267.109,-131.936,43.7555,0.153809,-7.93213,83.7817,2192
1569921960,267.109,-131.936,43.7555,0.153809,-7.93213,83.7817,2192
1569921960,267.109,-131.936,43.7555,0.153809,-7.93213,83.7817,2192
1569921960,267.109,-131.936,43.7555,0.153809,-7.93213,83.7817,2192
1569921960,267.109,-131.936,43.7555,0.153809,-7.93213,83.7817,2192
1569921960,267.109,-131.936,43.7555,0.153809,-7.93213,83.7817,2192
1569921960,267.109,-131.936,43.7555,0.153809,-7.93213,83.7817,2192
1569921960,267.109,-131.936,43.7555,0.153809,-7.93213,83.7817,2192
1569921960,267.109,-131.936,43.7555,0.153809,-7.93213,83.7817,2192
1569921960,267.109,-131.936,43.7555,0.153809,-7.93213,83.7817,2192
1569921960,267.109,-131.936,43.7555,0.153809,-7.93213,83.7817,2192
1569921960,267.109,-131.936,43.7555,0.153809,-7.93213,83.7817,2192
1569921960,267.109,-131.936,43.7555,0.153809,-7.93213,83.7817,2192
1569921960,267.109,-131.936,43.7555,0.153809,-7.93213,83.7817,2192
1569921960,267.109,-131.936,43.7555,0.153809,-7.93213,83.7817,2192
1569921960,267.109,-131.936,43.7555,0.153809,-7.93213,83.7817,2192
1569921960,267.109,-131.936,43.7555,0.153809,-7.93213,83.7817,2192
1569921960,267.109,-131.936,43.7555,0.153809,-7.93213,83.7817,2192
1569921960,267.109,-131.936,43.7555,0.153809,-7.93213,83.7817,2192
1569921960,267.109,-131.936,43.7555,0.153809,-7.93213,83.7817,2192
1569921960,267.109,-131.936,43.7555,0.153809,-7.93213,83.7817,2192
1569921960,267.109,-131.936,43.7555,0.153809,-7.93213,83.7817,2192
1569921960,267.109,-131.936,43.7555,0.153809,-7.93213,83.7817,2192
1569921960,267.109,-131.936,43.7555,0.153809,-7.93213,83.7817,2192
1569921960,267.109,-131.936,43.7555,0.153809,-7.93213,83.7817,2192
1569921960,267.109,-131.936,43.7555,0.153809,-7.93213,83.7817,2192
1569921960,267.109,-131.936,43.7555,0.153809,-7.93213,83.7817,2192
1569921960,267.109,-131.936,43.7555,0.153809,-7.93213,83.7817,2192
1569921960,267.109,-131.936,43.7555,0.153809,-7.93213,83.7817,2192
1569921960,267.109,-131.936,43.7555,0.153809,-7.93213,83.7817,2192
1569921960,267.109,-131.936,43.7555,0.153809,-7.93213,83.7817,2192
1569921960,267.109,-131.936,43.7555,0.153809,-7.93213,83.7817,2192
1569921960,267.109,-131.936,43.7555,0.153809,-7.93213,83.7817,2192
1569921960,267.109,-131.936,43.7555,0.153809,-7.93213,83.7817,2192
1569921960,267.109,-131.936,43.7555,0.153809,-7.93213,83.7817,2192
1569921960,267.109,-131.936,43.7555,0.153809,-7.93213,83.7817,2192
1569921960,267.109,-131.936,43.7555,0.153809,-7.93213,83.7817,2192
1569921960,267.109,-131.936,43.7555,0.153809,-7.93213,83.7817,2192
1569921960,267.109,-131.936,43.7555,0.153809,-7.93213,83.7817,2192
1569921960,267.109,-131.936,43.7555,0.153809,-7.93213,83.7817,2192
1569921960,267.109,-131.936,43.7555,0.153809,-7.93213,83.7817,2192
1569921960,267.109,-131.936,43.7555,0.153809,-7.93213,83.7817,2192
1569921960,267.109,-131.936,43.7555,0.153809,-7.93213,83.7817,2192
1569921960,267.109,-131.936,43.7555,0.153809,-7.93213,83.7817,2192
1569921960,267.109,-131.936,43.7555,0.153809,-7.93213,83.7817,2192
1569921960,267.109,-131.936,43.7555,0.153809,-7.93213,83.7817,2192
1569921960,267.109,-131.936,43.7555,0.153809,-7.93213,83.7817,2192
1569921960,267.109,-131.936,43.7555,0.153809,-7.93213,83.7817,2192
1569921960,267.109,-131.936,43.7555,0.153809,-7.93213,83.7817,2192
1569921960,267.109,-131.936,43.7555,0.153809,-7.93213,83.7817,2192
1569921960,267.109,-131.936,43.7555,0.153809,-7.93213,83.7817,2192
1569921960,267.109,-131.936,43.7555,0.153809,-7.93213,83.7817,2192
1569921960,267.109,-131.936,43.7555,0.153809,-7.93213,83.7817,2192
1569921960,267.109,-131.936,43.7555,0.153809,-7.93213,83.7817,2192
1569921960,267.109,-131.936,43.7555,0.153809,-7.93213,83.7817,2192
1569921960,267.109,-131.936,43.7555,0.153809,-7.93213,83.7817,2192
1569921960,267.109,-131.936,43.7555,0.153809,-7.93213,83.7817,2192
1569921960,267.109,-131.936,43.7555,0.153809,-7.93213,83.7817,2192
1569921961,267.109,-131.936,43.7555,0.153809,-7.93213,83.7817,2192
1569921961,267.109,-131.936,43.7555,0.153809,-7.93213,83.7817,2192
1569921961,267.109,-131.936,43.7555,0.153809,-7.93213,83.7817,2192
1569921961,267.109,-131.936,43.7555,0.153809,-7.93213,83.7817,2192
1569921961,267.109,-131.936,43.7555,0.153809,-7.93213,83.7817,2192
1569921961,267.109,-131.936,43.7555,0.153809,-7.93213,83.7817,2192
1569921961,267.109,-131.936,43.7555,0.153809,-7.93213,83.7817,2192
1569921961,267.109,-131.936,43.7555,0.153809,-7.93213,83.7817,2192
1569921961,267.109,-131.936,43.7555,0.153809,-7.93213,83.7817,2192
1569921961,267.109,-131.936,43.7555,0.153809,-7.93213,83.7817,2192
1569921961,267.109,-131.936,43.7555,0.153809,-7.93213,83.7817,2192
1569921961,267.109,-131.936,43.7555,0.153809,-7.93213,83.7817,2192
1569921961,267.109,-131.936,43.7555,0.153809,-7.93213,83.7817,2192
1569921961,267.109,-131.936,43.7555,0.153809,-7.93213,83.7817,2192
1569921961,267.109,-131.936,43.7555,0.153809,-7.93213,83.7817,2192
1569921961,267.109,-131.936,43.7555,0.153809,-7.93213,83.7817,2192
1569921961,267.109,-131.936,43.7555,0.153809,-7.93213,83.7817,2192
1569921961,267.109,-131.936,43.7555,0.153809,-7.93213,83.7817,2192
1569921961,267.109,-131.936,43.7555,0.153809,-7.93213,83.7817,2192
1569921961,267.109,-131.936,43.7555,0.153809,-7.93213,83.7817,2192
1569921961,267.109,-131.936,43.7555,0.153809,-7.93213,83.7817,2192
1569921961,267.109,-131.936,43.7555,0.153809,-7.93213,83.7817,2192
1569921961,267.109,-131.936,43.7555,0.153809,-7.93213,83.7817,2192
1569921961,267.109,-131.936,43.7555,0.153809,-7.93213,83.7817,2192
1569921961,267.109,-131.936,43.7555,0.153809,-7.93213,83.7817,2192
1569921961,267.109,-131.936,43.7555,0.153809,-7.93213,83.7817,2192
1569921961,267.109,-131.936,43.7555,0.153809,-7.93213,83.7817,2192
1569921961,267.109,-131.936,43.7555,0.153809,-7.93213,83.7817,2192
1569921961,267.109,-131.936,43.7555,0.153809,-7.93213,83.7817,2192
1569921961,267.109,-131.936,43.7555,0.153809,-7.93213,83.7817,2192
1569921961,267.109,-131.936,43.7555,0.153809,-7.93213,83.7817,2192
1569921961,267.109,-131.936,43.7555,0.153809,-7.93213,83.7817,2192
1569921961,267.109,-131.936,43.7555,0.153809,-7.93213,83.7817,2192
1569921961,267.109,-131.936,43.7555,0.153809,-7.93213,83.7817,2192
1569921961,267.109,-131.936,43.7555,0.153809,-7.93213,83.7817,2192
1569921961,267.109,-131.936,43.7555,0.153809,-7.93213,83.7817,2192
1569921961,267.109,-131.936,43.7555,0.153809,-7.93213,83.7817,2192
1569921961,267.109,-131.936,43.7555,0.153809,-7.93213,83.7817,2192
1569921961,267.109,-131.936,43.7555,0.153809,-7.93213,83.7817,2192
1569921961,267.109,-131.936,43.7555,0.153809,-7.93213,83.7817,2192
1569921961,267.109,-131.936,43.7555,0.153809,-7.93213,83.7817,2192
1569921961,267.109,-131.936,43.7555,0.153809,-7.93213,83.7817,2192
1569921961,267.109,-131.936,43.7555,0.153809,-7.93213,83.7817,2192
1569921961,267.109,-131.936,43.7555,0.153809,-7.93213,83.7817,2192
1569921961,267.109,-131.936,43.7555,0.153809,-7.93213,83.7817,2192
1569921961,267.109,-131.936,43.7555,0.153809,-7.93213,83.7817,2192
1569921961,267.109,-131.936,43.7555,0.153809,-7.93213,83.7817,2192
1569921961,267.109,-131.936,43.7555,0.153809,-7.93213,83.7817,2192
1569921961,267.109,-131.936,43.7555,0.153809,-7.93213,83.7817,2192
1569921961,267.109,-131.936,43.7555,0.153809,-7.93213,83.7817,2192
1569921961,267.109,-131.936,43.7555,0.153809,-7.93213,83.7817,2192
1569921961,267.109,-131.936,43.7555,0.153809,-7.93213,83.7817,2192
1569921961,267.109,-131.936,43.7555,0.153809,-7.93213,83.7817,2192
1569921961,267.109,-131.936,43.7555,0.153809,-7.93213,83.7817,2192
1569921961,267.109,-131.936,43.7555,0.153809,-7.93213,83.7817,2192
1569921961,267.109,-131.936,43.7555,0.153809,-7.93213,83.7817,2192
1569921961,267.109,-131.936,43.7555,0.153809,-7.93213,83.7817,2192
1569921961,267.109,-131.936,43.7555,0.153809,-7.93213,83.7817,2192
1569921961,267.109,-131.936,43.7555,0.153809,-7.93213,83.7817,2192
1569921961,267.109,-131.936,43.7555,0.153809,-7.93213,83.7817,2192
1569921961,267.109,-131.936,43.7555,0.153809,-7.93213,83.7817,2192
1569921961,267.109,-131.936,43.7555,0.153809,-7.93213,83.7817,2192
1569921961,267.109,-131.936,43.7555,0.153809,-7.93213,83.7817,2192
1569921961,267.109,-131.936,43.7555,0.153809,-7.93213,83.7817,2192
1569921961,267.109,-131.936,43.7555,0.153809,-7.93213,83.7817,2188
1569921961,267.109,-131.936,43.7555,0.153809,-7.93213,83.7817,2188
1569921961,267.109,-131.936,43.7555,0.153809,-7.93213,83.7817,2188
1569921961,267.109,-131.936,43.7555,0.153809,-7.93213,83.7817,2188
1569921961,267.109,-131.936,43.7555,0.153809,-7.93213,83.7817,2188
1569921961,267.109,-131.936,43.7555,0.153809,-7.93213,83.7817,2188
1569921961,267.109,-131.936,43.7555,0.153809,-7.93213,83.7817,2188
1569921961,267.109,-131.936,43.7555,0.153809,-7.93213,83.7817,2188
1569921961,267.109,-131.936,43.7555,0.153809,-7.93213,83.7817,2188
1569921961,267.109,-131.936,43.7555,0.153809,-7.93213,83.7817,2188
1569921961,267.109,-131.936,43.7555,0.153809,-7.93213,83.7817,2188
1569921961,267.109,-131.936,43.7555,0.153809,-7.93213,83.7817,2188
1569921961,267.109,-131.936,43.7555,0.153809,-7.93213,83.7817,2188
1569921961,267.109,-131.936,43.7555,0.153809,-7.93213,83.7817,2188
1569921961,267.109,-131.936,43.7555,0.153809,-7.93213,83.7817,2188
1569921961,267.109,-131.936,43.7555,0.153809,-7.93213,83.7817,2188
1569921961,267.109,-131.936,43.7555,0.153809,-7.93213,83.7817,2188
1569921961,267.109,-131.936,43.7555,0.153809,-7.93213,83.7817,2188
1569921961,267.109,-131.936,43.7555,0.153809,-7.93213,83.7817,2188
1569921961,267.109,-131.936,43.7555,0.153809,-7.93213,83.7817,2188
1569921961,267.109,-131.936,43.7555,0.153809,-7.93213,83.7817,2188
1569921961,267.109,-131.936,43.7555,0.153809,-7.93213,83.7817,2188
1569921961,267.109,-131.936,43.7555,0.153809,-7.93213,83.7817,2188
1569921961,267.109,-131.936,43.7555,0.153809,-7.93213,83.7817,2188
1569921961,267.109,-131.936,43.7555,0.153809,-7.93213,83.7817,2188
1569921961,267.109,-131.936,43.7555,0.153809,-7.93213,83.7817,2188
1569921961,267.109,-131.936,43.7555,0.153809,-7.93213,83.7817,2188
1569921961,267.109,-131.936,43.7555,0.153809,-7.93213,83.7817,2188
1569921961,267.109,-131.936,43.7555,0.153809,-7.93213,83.7817,2188
1569921961,267.109,-131.936,43.7555,0.153809,-7.93213,83.7817,2188
1569921961,267.109,-131.936,43.7555,0.153809,-7.93213,83.7817,2188
1569921961,267.109,-131.936,43.7555,0.153809,-7.93213,83.7817,2188
1569921961,267.109,-131.936,43.7555,0.153809,-7.93213,83.7817,2188
1569921961,267.109,-131.936,43.7555,0.153809,-7.93213,83.7817,2188
1569921961,267.109,-131.936,43.7555,0.153809,-7.93213,83.7817,2188
1569921962,267.109,-131.936,43.7555,0.153809,-7.93213,83.7817,2188
1569921962,267.109,-131.936,43.7555,0.153809,-7.93213,83.7817,2188
1569921962,267.109,-131.936,43.7555,0.153809,-7.93213,83.7817,2188
1569921962,267.109,-131.936,43.7555,0.153809,-7.93213,83.7817,2188
1569921962,267.109,-131.936,43.7555,0.153809,-7.93213,83.7817,2188
1569921962,267.109,-131.936,43.7555,0.153809,-7.93213,83.7817,2192
1569921962,267.109,-131.936,43.7555,0.153809,-7.93213,83.7817,2192
1569921962,267.109,-131.936,43.7555,0.153809,-7.93213,83.7817,2192
1569921962,267.109,-131.936,43.7555,0.153809,-7.93213,83.7817,2192
1569921962,267.109,-131.936,43.7555,0.153809,-7.93213,83.7817,2192
1569921962,267.109,-131.936,43.7555,0.153809,-7.93213,83.7817,2192
1569921962,267.109,-131.936,43.7555,0.153809,-7.93213,83.7817,2192
1569921962,267.109,-131.936,43.7555,0.153809,-7.93213,83.7817,2192
1569921962,267.109,-131.936,43.7555,0.153809,-7.93213,83.7817,2192
1569921962,267.109,-131.936,43.7555,0.153809,-7.93213,83.7817,2192
1569921962,267.109,-131.936,43.7555,0.153809,-7.93213,83.7817,2192
1569921962,267.109,-131.936,43.7555,0.153809,-7.93213,83.7817,2192
1569921962,267.109,-131.936,43.7555,0.153809,-7.93213,83.7817,2192
1569921962,267.109,-131.936,43.7555,0.153809,-7.93213,83.7817,2192
1569921962,267.109,-131.936,43.7555,0.153809,-7.93213,83.7817,2192
1569921962,267.109,-131.936,43.7555,0.153809,-7.93213,83.7817,2192
1569921962,267.109,-131.936,43.7555,0.153809,-7.93213,83.7817,2192
1569921962,267.109,-131.936,43.7555,0.153809,-7.93213,83.7817,2192
1569921962,267.109,-131.936,43.7555,0.153809,-7.93213,83.7817,2192
1569921962,267.109,-131.936,43.7555,0.153809,-7.93213,83.7817,2192
1569921962,267.109,-131.936,43.7555,0.153809,-7.93213,83.7817,2192
1569921962,267.109,-131.936,43.7555,0.153809,-7.93213,83.7817,2192
1569921962,267.109,-131.936,43.7555,0.153809,-7.93213,83.7817,2192
1569921962,267.109,-131.936,43.7555,0.153809,-7.93213,83.7817,2192
1569921962,267.109,-131.936,43.7555,0.153809,-7.93213,83.7817,2192
1569921962,267.109,-131.936,43.7555,0.153809,-7.93213,83.7817,2192
1569921962,267.109,-131.936,43.7555,0.153809,-7.93213,83.7817,2192
1569921962,267.109,-131.936,43.7555,0.153809,-7.93213,83.7817,2192
1569921962,267.109,-131.936,43.7555,0.153809,-7.93213,83.7817,2192
1569921962,267.109,-131.936,43.7555,0.153809,-7.93213,83.7817,2192
1569921962,267.109,-131.936,43.7555,0.153809,-7.93213,83.7817,2192
1569921962,267.109,-131.936,43.7555,0.153809,-7.93213,83.7817,2192
1569921962,267.109,-131.936,43.7555,0.153809,-7.93213,83.7817,2192
1569921962,267.109,-131.936,43.7555,0.153809,-7.93213,83.7817,2192
1569921962,267.109,-131.936,43.7555,0.153809,-7.93213,83.7817,2192
1569921962,267.109,-131.936,43.7555,0.153809,-7.93213,83.7817,2192
1569921962,267.109,-131.936,43.7555,0.153809,-7.93213,83.7817,2192
1569921962,267.109,-131.936,43.7555,0.153809,-7.93213,83.7817,2192
1569921962,267.109,-131.936,43.7555,0.153809,-7.93213,83.7817,2192
1569921962,267.109,-131.936,43.7555,0.153809,-7.93213,83.7817,2192
1569921962,267.109,-131.936,43.7555,0.153809,-7.93213,83.7817,2192
1569921962,267.109,-131.936,43.7555,0.153809,-7.93213,83.7817,2192
1569921962,267.109,-131.936,43.7555,0.153809,-7.93213,83.7817,2192
1569921962,267.109,-131.936,43.7555,0.153809,-7.93213,83.7817,2192
1569921962,267.109,-131.936,43.7555,0.153809,-7.93213,83.7817,2192
1569921962,267.109,-131.936,43.7555,0.153809,-7.93213,83.7817,2192
1569921962,267.109,-131.936,43.7555,0.153809,-7.93213,83.7817,2192
1569921962,267.109,-131.936,43.7555,0.153809,-7.93213,83.7817,2192
1569921962,267.109,-131.936,43.7555,0.153809,-7.93213,83.7817,2192
1569921962,267.109,-131.936,43.7555,0.153809,-7.93213,83.7817,2192
1569921962,267.109,-131.936,43.7555,0.153809,-7.93213,83.7817,2192
1569921962,267.109,-131.936,43.7555,0.153809,-7.93213,83.7817,2192
1569921962,267.109,-131.936,43.7555,0.153809,-7.93213,83.7817,2192
1569921962,267.109,-131.936,43.7555,0.153809,-7.93213,83.7817,2192
1569921962,267.109,-131.936,43.7555,0.153809,-7.93213,83.7817,2192
1569921962,267.109,-131.936,43.7555,0.153809,-7.93213,83.7817,2192
1569921962,267.109,-131.936,43.7555,0.153809,-7.93213,83.7817,2192
1569921962,267.109,-131.936,43.7555,0.153809,-7.93213,83.7817,2192
1569921962,267.109,-131.936,43.7555,0.153809,-7.93213,83.7817,2192
1569921962,267.109,-131.936,43.7555,0.153809,-7.93213,83.7817,2192
1569921962,267.109,-131.936,43.7555,0.153809,-7.93213,83.7817,2192
1569921962,267.109,-131.936,43.7555,0.153809,-7.93213,83.7817,2192
1569921962,267.109,-131.936,43.7555,0.153809,-7.93213,83.7817,2192
1569921962,267.109,-131.936,43.7555,0.153809,-7.93213,83.7817,2192
1569921962,267.109,-131.936,43.7555,0.153809,-7.93213,83.7817,2192
1569921962,267.109,-131.936,43.7555,0.153809,-7.93213,83.7817,2192
1569921962,267.109,-131.936,43.7555,0.153809,-7.93213,83.7817,2192
1569921962,267.109,-131.936,43.7555,0.153809,-7.93213,83.7817,2192
1569921962,267.109,-131.936,43.7555,0.153809,-7.93213,83.7817,2192
1569921962,267.109,-131.936,43.7555,0.153809,-7.93213,83.7817,2192
1569921962,267.109,-131.936,43.7555,0.153809,-7.93213,83.7817,2192
1569921962,267.109,-131.936,43.7555,0.153809,-7.93213,83.7817,2192
1569921962,267.109,-131.936,43.7555,0.153809,-7.93213,83.7817,2192
1569921962,267.109,-131.936,43.7555,0.153809,-7.93213,83.7817,2192
1569921962,267.109,-131.936,43.7555,0.153809,-7.93213,83.7817,2192
1569921962,267.109,-131.936,43.7555,0.153809,-7.93213,83.7817,2192
1569921962,267.109,-131.936,43.7555,0.153809,-7.93213,83.7817,2192
1569921962,267.109,-131.936,43.7555,0.153809,-7.93213,83.7817,2192
1569921962,267.109,-131.936,43.7555,0.153809,-7.93213,83.7817,2192
1569921962,267.109,-131.936,43.7555,0.153809,-7.93213,83.7817,2192
1569921962,267.109,-131.936,43.7555,0.153809,-7.93213,83.7817,2192
1569921962,267.109,-131.936,43.7555,0.153809,-7.93213,83.7817,2192
1569921962,267.109,-131.936,43.7555,0.153809,-7.93213,83.7817,2192
1569921962,267.109,-131.936,43.7555,0.153809,-7.93213,83.7817,2192
1569921962,267.109,-131.936,43.7555,0.153809,-7.93213,83.7817,2192
1569921962,267.109,-131.936,43.7555,0.153809,-7.93213,83.7817,2192
1569921962,267.109,-131.936,43.7555,0.153809,-7.93213,83.7817,2192
1569921962,267.109,-131.936,43.7555,0.153809,-7.93213,83.7817,2192
1569921962,267.109,-131.936,43.7555,0.153809,-7.93213,83.7817,2192
1569921962,267.109,-131.936,43.7555,0.153809,-7.93213,83.7817,2192
1569921962,267.109,-131.936,43.7555,0.153809,-7.93213,83.7817,2192
1569921962,267.109,-131.936,43.7555,0.153809,-7.93213,83.7817,2192
1569921962,267.109,-131.936,43.7555,0.153809,-7.93213,83.7817,2192
1569921962,267.109,-131.936,43.7555,0.153809,-7.93213,83.7817,2192
1569921962,267.109,-131.936,43.7555,0.153809,-7.93213,83.7817,2192
1569921963,267.109,-131.936,43.7555,0.153809,-7.93213,83.7817,2192
1569921963,267.109,-131.936,43.7555,0.153809,-7.93213,83.7817,2192
1569921963,267.109,-131.936,43.7555,0.153809,-7.93213,83.7817,2192
1569921963,267.109,-131.936,43.7555,0.153809,-7.93213,83.7817,2192
1569921963,267.109,-131.936,43.7555,0.153809,-7.93213,83.7817,2192
1569921963,267.109,-131.936,43.7555,0.153809,-7.93213,83.7817,2192
1569921963,267.109,-131.936,43.7555,0.153809,-7.93213,83.7817,2192
1569921963,267.109,-131.936,43.7555,0.153809,-7.93213,83.7817,2192
1569921963,267.109,-131.936,43.7555,0.153809,-7.93213,83.7817,2192
1569921963,267.109,-131.936,43.7555,0.153809,-7.93213,83.7817,2192
1569921963,267.109,-131.936,43.7555,0.153809,-7.93213,83.7817,2192
1569921963,267.109,-131.936,43.7555,0.153809,-7.93213,83.7817,2192
1569921963,267.109,-131.936,43.7555,0.153809,-7.93213,83.7817,2192
1569921963,267.109,-131.936,43.7555,0.153809,-7.93213,83.7817,2192
1569921963,267.109,-131.936,43.7555,0.153809,-7.93213,83.7817,2192
1569921963,267.109,-131.936,43.7555,0.153809,-7.93213,83.7817,2192
1569921963,267.109,-131.936,43.7555,0.153809,-7.93213,83.7817,2192
1569921963,267.109,-131.936,43.7555,0.153809,-7.93213,83.7817,2192
1569921963,267.109,-131.936,43.7555,0.153809,-7.93213,83.7817,2192
1569921963,267.109,-131.936,43.7555,0.153809,-7.93213,83.7817,2192
1569921963,267.109,-131.936,43.7555,0.153809,-7.93213,83.7817,2192
1569921963,267.109,-131.936,43.7555,0.153809,-7.93213,83.7817,2192
1569921963,267.109,-131.936,43.7555,0.153809,-7.93213,83.7817,2192
1569921963,267.109,-131.936,43.7555,0.153809,-7.93213,83.7817,2192
1569921963,267.109,-131.936,43.7555,0.153809,-7.93213,83.7817,2192
1569921963,267.109,-131.936,43.7555,0.153809,-7.93213,83.7817,2192
1569921963,267.109,-131.936,43.7555,0.153809,-7.93213,83.7817,2192
1569921963,267.109,-131.936,43.7555,0.153809,-7.93213,83.7817,2192
1569921963,267.109,-131.936,43.7555,0.153809,-7.93213,83.7817,2192
1569921963,267.109,-131.936,43.7555,0.153809,-7.93213,83.7817,2192
1569921963,267.109,-131.936,43.7555,0.153809,-7.93213,83.7817,2192
1569921963,267.109,-131.936,43.7555,0.153809,-7.93213,83.7817,2192
1569921963,267.109,-131.936,43.7555,0.153809,-7.93213,83.7817,2192
1569921963,267.109,-131.936,43.7555,0.153809,-7.93213,83.7817,2192
1569921963,267.109,-131.936,43.7555,0.153809,-7.93213,83.7817,2192
1569921963,267.109,-131.936,43.7555,0.153809,-7.93213,83.7817,2192
1569921963,267.109,-131.936,43.7555,0.153809,-7.93213,83.7817,2192
1569921963,267.109,-131.936,43.7555,0.153809,-7.93213,83.7817,2192
1569921963,267.109,-131.936,43.7555,0.153809,-7.93213,83.7817,2192
1569921963,267.109,-131.936,43.7555,0.153809,-7.93213,83.7817,2192
1569921963,267.109,-131.936,43.7555,0.153809,-7.93213,83.7817,2192
1569921963,267.109,-131.936,43.7555,0.153809,-7.93213,83.7817,2192
1569921963,267.109,-131.936,43.7555,0.153809,-7.93213,83.7817,2192
1569921963,267.109,-131.936,43.7555,0.153809,-7.93213,83.7817,2192
1569921963,267.109,-131.936,43.7555,0.153809,-7.93213,83.7817,2192
1569921963,267.109,-131.936,43.7555,0.153809,-7.93213,83.7817,2192
1569921963,267.109,-131.936,43.7555,0.153809,-7.93213,83.7817,2192
1569921963,267.109,-131.936,43.7555,0.153809,-7.93213,83.7817,2192
1569921963,267.109,-131.936,43.7555,0.153809,-7.93213,83.7817,2192
1569921963,267.109,-131.936,43.7555,0.153809,-7.93213,83.7817,2192
1569921963,267.109,-131.936,43.7555,0.153809,-7.93213,83.7817,2192
1569921963,267.109,-131.936,43.7555,0.153809,-7.93213,83.7817,2192
1569921963,267.109,-131.936,43.7555,0.153809,-7.93213,83.7817,2192
1569921963,267.109,-131.936,43.7555,0.153809,-7.93213,83.7817,2192
1569921963,267.109,-131.936,43.7555,0.153809,-7.93213,83.7817,2192
1569921963,267.109,-131.936,43.7555,0.153809,-7.93213,83.7817,2192
1569921963,267.109,-131.936,43.7555,0.153809,-7.93213,83.7817,2192
1569921963,267.109,-131.936,43.7555,0.153809,-7.93213,83.7817,2192
1569921963,267.109,-131.936,43.7555,0.153809,-7.93213,83.7817,2192
1569921963,267.109,-131.936,43.7555,0.153809,-7.93213,83.7817,2192
1569921963,267.109,-131.936,43.7555,0.153809,-7.93213,83.7817,2192
1569921963,267.109,-131.936,43.7555,0.153809,-7.93213,83.7817,2192
1569921963,267.109,-131.936,43.7555,0.153809,-7.93213,83.7817,2192
1569921963,267.109,-131.936,43.7555,0.153809,-7.93213,83.7817,2192
1569921963,267.109,-131.936,43.7555,0.153809,-7.93213,83.7817,2192
1569921963,267.109,-131.936,43.7555,0.153809,-7.93213,83.7817,2192
1569921963,267.109,-131.936,43.7555,0.153809,-7.93213,83.7817,2192
1569921963,267.109,-131.936,43.7555,0.153809,-7.93213,83.7817,2192
1569921963,267.109,-131.936,43.7555,0.153809,-7.93213,83.7817,2192
1569921963,267.109,-131.936,43.7555,0.153809,-7.93213,83.7817,2192
1569921963,267.109,-131.936,43.7555,0.153809,-7.93213,83.7817,2192
1569921963,267.109,-131.936,43.7555,0.153809,-7.93213,83.7817,2192
1569921963,267.109,-131.936,43.7555,0.153809,-7.93213,83.7817,2192
1569921963,267.109,-131.936,43.7555,0.153809,-7.93213,83.7817,2192
1569921963,267.109,-131.936,43.7555,0.153809,-7.93213,83.7817,2192
1569921963,267.109,-131.936,43.7555,0.153809,-7.93213,83.7817,2192
1569921963,267.109,-131.936,43.7555,0.153809,-7.93213,83.7817,2192
1569921963,267.109,-131.936,43.7555,0.153809,-7.93213,83.7817,2192
1569921963,267.109,-131.936,43.7555,0.153809,-7.93213,83.7817,2192
1569921963,267.109,-131.936,43.7555,0.153809,-7.93213,83.7817,2192
1569921963,267.109,-131.936,43.7555,0.153809,-7.93213,83.7817,2192
1569921963,267.109,-131.936,43.7555,0.153809,-7.93213,83.7817,2192
1569921963,267.109,-131.936,43.7555,0.153809,-7.93213,83.7817,2192
1569921963,267.109,-131.936,43.7555,0.153809,-7.93213,83.7817,2192
1569921963,267.109,-131.936,43.7555,0.153809,-7.93213,83.7817,2192
1569921963,267.109,-131.936,43.7555,0.153809,-7.93213,83.7817,2192
1569921963,267.109,-131.936,43.7555,0.153809,-7.93213,83.7817,2192
1569921963,267.109,-131.936,43.7555,0.153809,-7.93213,83.7817,2192
1569921963,267.109,-131.936,43.7555,0.153809,-7.93213,83.7817,2192
1569921963,267.109,-131.936,43.7555,0.153809,-7.93213,83.7817,2192
1569921963,267.109,-131.936,43.7555,0.153809,-7.93213,83.7817,2192
1569921963,267.109,-131.936,43.7555,0.153809,-7.93213,83.7817,2192
1569921963,267.109,-131.936,43.7555,0.153809,-7.93213,83.7817,2192
1569921963,267.109,-131.936,43.7555,0.153809,-7.93213,83.7817,2192
1569921963,267.109,-131.936,43.7555,0.153809,-7.93213,83.7817,2192
1569921963,267.109,-131.936,43.7555,0.153809,-7.93213,83.7817,2192
1569921963,267.109,-131.936,43.7555,0.153809,-7.93213,83.7817,2192
1569921963,267.109,-131.936,43.7555,0.153809,-7.93213,83.7817,2192
1569921963,267.109,-131.936,43.7555,0.153809,-7.93213,83.7817,2192
1569921963,267.109,-131.936,43.7555,0.153809,-7.93213,83.7817,2192
1569921964,267.109,-131.936,43.7555,0.153809,-7.93213,83.7817,2192
1569921964,267.109,-131.936,43.7555,0.153809,-7.93213,83.7817,2192
1569921964,267.109,-131.936,43.7555,0.153809,-7.93213,83.7817,2192
1569921964,267.109,-131.936,43.7555,0.153809,-7.93213,83.7817,2192
1569921964,267.109,-131.936,43.7555,0.153809,-7.93213,83.7817,2192
1569921964,267.109,-131.936,43.7555,0.153809,-7.93213,83.7817,2192
1569921964,267.109,-131.936,43.7555,0.153809,-7.93213,83.7817,2192
1569921964,267.109,-131.936,43.7555,0.153809,-7.93213,83.7817,2188
1569921964,267.109,-131.936,43.7555,0.153809,-7.93213,83.7817,2188
1569921964,267.109,-131.936,43.7555,0.153809,-7.93213,83.7817,2188
1569921964,267.109,-131.936,43.7555,0.153809,-7.93213,83.7817,2188
1569921964,267.109,-131.936,43.7555,0.153809,-7.93213,83.7817,2188
1569921964,267.109,-131.936,43.7555,0.153809,-7.93213,83.7817,2188
1569921964,267.109,-131.936,43.7555,0.153809,-7.93213,83.7817,2188
1569921964,267.109,-131.936,43.7555,0.153809,-7.93213,83.7817,2188
1569921964,267.109,-131.936,43.7555,0.153809,-7.93213,83.7817,2188
1569921964,267.109,-131.936,43.7555,0.153809,-7.93213,83.7817,2188
1569921964,267.109,-131.936,43.7555,0.153809,-7.93213,83.7817,2188
1569921964,267.109,-131.936,43.7555,0.153809,-7.93213,83.7817,2188
1569921964,267.109,-131.936,43.7555,0.153809,-7.93213,83.7817,2188
1569921964,267.109,-131.936,43.7555,0.153809,-7.93213,83.7817,2188
1569921964,267.109,-131.936,43.7555,0.153809,-7.93213,83.7817,2188
1569921964,267.109,-131.936,43.7555,0.153809,-7.93213,83.7817,2188
1569921964,267.109,-131.936,43.7555,0.153809,-7.93213,83.7817,2188
1569921964,267.109,-131.936,43.7555,0.153809,-7.93213,83.7817,2188
1569921964,267.109,-131.936,43.7555,0.153809,-7.93213,83.7817,2188
1569921964,267.109,-131.936,43.7555,0.153809,-7.93213,83.7817,2188
1569921964,267.109,-131.936,43.7555,0.153809,-7.93213,83.7817,2188
1569921964,267.109,-131.936,43.7555,0.153809,-7.93213,83.7817,2188
1569921964,267.109,-131.936,43.7555,0.153809,-7.93213,83.7817,2188
1569921964,267.109,-131.936,43.7555,0.153809,-7.93213,83.7817,2192
1569921964,267.109,-131.936,43.7555,0.153809,-7.93213,83.7817,2192
1569921964,267.109,-131.936,43.7555,0.153809,-7.93213,83.7817,2188
1569921964,267.109,-131.936,43.7555,0.153809,-7.93213,83.7817,2188
1569921964,267.109,-131.936,43.7555,0.153809,-7.93213,83.7817,2188
1569921964,267.109,-131.936,43.7555,0.153809,-7.93213,83.7817,2188
1569921964,267.109,-131.936,43.7555,0.153809,-7.93213,83.7817,2188
1569921964,267.109,-131.936,43.7555,0.153809,-7.93213,83.7817,2188
1569921964,267.109,-131.936,43.7555,0.153809,-7.93213,83.7817,2188
1569921964,267.109,-131.936,43.7555,0.153809,-7.93213,83.7817,2188
1569921964,267.109,-131.936,43.7555,0.153809,-7.93213,83.7817,2188
1569921964,267.109,-131.936,43.7555,0.153809,-7.93213,83.7817,2188
1569921964,267.109,-131.936,43.7555,0.153809,-7.93213,83.7817,2188
1569921964,267.109,-131.936,43.7555,0.153809,-7.93213,83.7817,2188
1569921964,267.109,-131.936,43.7555,0.153809,-7.93213,83.7817,2188
1569921964,267.109,-131.936,43.7555,0.153809,-7.93213,83.7817,2188
1569921964,267.109,-131.936,43.7555,0.153809,-7.93213,83.7817,2188
1569921964,267.109,-131.936,43.7555,0.153809,-7.93213,83.7817,2188
1569921964,267.109,-131.936,43.7555,0.153809,-7.93213,83.7817,2188
1569921964,267.109,-131.936,43.7555,0.153809,-7.93213,83.7817,2188
1569921964,267.109,-131.936,43.7555,0.153809,-7.93213,83.7817,2188
1569921964,267.109,-131.936,43.7555,0.153809,-7.93213,83.7817,2188
1569921964,267.109,-131.936,43.7555,0.153809,-7.93213,83.7817,2188
1569921964,267.109,-131.936,43.7555,0.153809,-7.93213,83.7817,2188
1569921964,267.109,-131.936,43.7555,0.153809,-7.93213,83.7817,2188
1569921964,267.109,-131.936,43.7555,0.153809,-7.93213,83.7817,2188
1569921964,267.109,-131.936,43.7555,0.153809,-7.93213,83.7817,2188
1569921964,267.109,-131.936,43.7555,0.153809,-7.93213,83.7817,2188
1569921964,267.109,-131.936,43.7555,0.153809,-7.93213,83.7817,2188
1569921964,267.109,-131.936,43.7555,0.153809,-7.93213,83.7817,2188
1569921964,267.109,-131.936,43.7555,0.153809,-7.93213,83.7817,2188
1569921964,267.109,-131.936,43.7555,0.153809,-7.93213,83.7817,2188
1569921964,267.109,-131.936,43.7555,0.153809,-7.93213,83.7817,2188
1569921964,267.109,-131.936,43.7555,0.153809,-7.93213,83.7817,2188
1569921964,267.109,-131.936,43.7555,0.153809,-7.93213,83.7817,2188
1569921964,267.109,-131.936,43.7555,0.153809,-7.93213,83.7817,2188
1569921964,267.109,-131.936,43.7555,0.153809,-7.93213,83.7817,2188
1569921964,267.109,-131.936,43.7555,0.153809,-7.93213,83.7817,2188
1569921964,267.109,-131.936,43.7555,0.153809,-7.93213,83.7817,2188
1569921964,267.109,-131.936,43.7555,0.153809,-7.93213,83.7817,2188
1569921964,267.109,-131.936,43.7555,0.153809,-7.93213,83.7817,2188
1569921964,267.109,-131.936,43.7555,0.153809,-7.93213,83.7817,2188
1569921964,267.109,-131.936,43.7555,0.153809,-7.93213,83.7817,2188
1569921964,267.109,-131.936,43.7555,0.153809,-7.93213,83.7817,2188
1569921964,267.109,-131.936,43.7555,0.153809,-7.93213,83.7817,2188
1569921964,267.109,-131.936,43.7555,0.153809,-7.93213,83.7817,2188
1569921964,267.109,-131.936,43.7555,0.153809,-7.93213,83.7817,2188
1569921964,267.109,-131.936,43.7555,0.153809,-7.93213,83.7817,2188
1569921964,267.109,-131.936,43.7555,0.153809,-7.93213,83.7817,2188
1569921964,267.109,-131.936,43.7555,0.153809,-7.93213,83.7817,2188
1569921964,267.109,-131.936,43.7555,0.153809,-7.93213,83.7817,2188
1569921964,267.109,-131.936,43.7555,0.153809,-7.93213,83.7817,2188
1569921964,267.109,-131.936,43.7555,0.153809,-7.93213,83.7817,2188
1569921964,267.109,-131.936,43.7555,0.153809,-7.93213,83.7817,2188
1569921964,267.109,-131.936,43.7555,0.153809,-7.93213,83.7817,2188
1569921964,267.109,-131.936,43.7555,0.153809,-7.93213,83.7817,2188
1569921964,267.109,-131.936,43.7555,0.153809,-7.93213,83.7817,2188
1569921964,267.109,-131.936,43.7555,0.153809,-7.93213,83.7817,2188
1569921964,267.109,-131.936,43.7555,0.153809,-7.93213,83.7817,2188
1569921964,267.109,-131.936,43.7555,0.153809,-7.93213,83.7817,2188
1569921964,267.109,-131.936,43.7555,0.153809,-7.93213,83.7817,2188
1569921964,267.109,-131.936,43.7555,0.153809,-7.93213,83.7817,2188
1569921964,267.109,-131.936,43.7555,0.153809,-7.93213,83.7817,2188
1569921964,267.109,-131.936,43.7555,0.153809,-7.93213,83.7817,2188
1569921964,267.109,-131.936,43.7555,0.153809,-7.93213,83.7817,2188
1569921964,267.109,-131.936,43.7555,0.153809,-7.93213,83.7817,2188
1569921964,267.109,-131.936,43.7555,0.153809,-7.93213,83.7817,2188
1569921964,267.109,-131.936,43.7555,0.153809,-7.93213,83.7817,2188
1569921964,267.109,-131.936,43.7555,0.153809,-7.93213,83.7817,2188
1569921964,267.109,-131.936,43.7555,0.153809,-7.93213,83.7817,2188
1569921965,267.109,-131.936,43.7555,0.153809,-7.93213,83.7817,2188
1569921965,267.109,-131.936,43.7555,0.153809,-7.93213,83.7817,2188
1569921965,267.109,-131.936,43.7555,0.153809,-7.93213,83.7817,2188
1569921965,267.109,-131.936,43.7555,0.153809,-7.93213,83.7817,2188
1569921965,267.109,-131.936,43.7555,0.153809,-7.93213,83.7817,2188
1569921965,267.109,-131.936,43.7555,0.153809,-7.93213,83.7817,2188
1569921965,267.109,-131.936,43.7555,0.153809,-7.93213,83.7817,2188
1569921965,267.109,-131.936,43.7555,0.153809,-7.93213,83.7817,2188
1569921965,267.109,-131.936,43.7555,0.153809,-7.93213,83.7817,2188
1569921965,267.109,-131.936,43.7555,0.153809,-7.93213,83.7817,2188
1569921965,267.109,-131.936,43.7555,0.153809,-7.93213,83.7817,2188
1569921965,267.109,-131.936,43.7555,0.153809,-7.93213,83.7817,2188
1569921965,267.109,-131.936,43.7555,0.153809,-7.93213,83.7817,2188
1569921965,267.109,-131.936,43.7555,0.153809,-7.93213,83.7817,2188
1569921965,267.109,-131.936,43.7555,0.153809,-7.93213,83.7817,2188
1569921965,267.109,-131.936,43.7555,0.153809,-7.93213,83.7817,2188
1569921965,267.109,-131.936,43.7555,0.153809,-7.93213,83.7817,2188
1569921965,267.109,-131.936,43.7555,0.153809,-7.93213,83.7817,2188
1569921965,267.109,-131.936,43.7555,0.153809,-7.93213,83.7817,2188
1569921965,267.109,-131.936,43.7555,0.153809,-7.93213,83.7817,2188
1569921965,267.109,-131.936,43.7555,0.153809,-7.93213,83.7817,2188
1569921965,267.109,-131.936,43.7555,0.153809,-7.93213,83.7817,2188
1569921965,267.109,-131.936,43.7555,0.153809,-7.93213,83.7817,2188
1569921965,267.109,-131.936,43.7555,0.153809,-7.93213,83.7817,2188
1569921965,267.109,-131.936,43.7555,0.153809,-7.93213,83.7817,2188
1569921965,267.109,-131.936,43.7555,0.153809,-7.93213,83.7817,2188
1569921965,267.109,-131.936,43.7555,0.153809,-7.93213,83.7817,2188
1569921965,267.109,-131.936,43.7555,0.153809,-7.93213,83.7817,2188
1569921965,267.109,-131.936,43.7555,0.153809,-7.93213,83.7817,2188
1569921965,267.109,-131.936,43.7555,0.153809,-7.93213,83.7817,2188
1569921965,267.109,-131.936,43.7555,0.153809,-7.93213,83.7817,2188
1569921965,267.109,-131.936,43.7555,0.153809,-7.93213,83.7817,2188
1569921965,267.109,-131.936,43.7555,0.153809,-7.93213,83.7817,2188
1569921965,267.109,-131.936,43.7555,0.153809,-7.93213,83.7817,2192
1569921965,267.109,-131.936,43.7555,0.153809,-7.93213,83.7817,2192
1569921965,267.109,-131.936,43.7555,0.153809,-7.93213,83.7817,2192
1569921965,267.109,-131.936,43.7555,0.153809,-7.93213,83.7817,2192
1569921965,267.109,-131.936,43.7555,0.153809,-7.93213,83.7817,2192
1569921965,267.109,-131.936,43.7555,0.153809,-7.93213,83.7817,2192
1569921965,267.109,-131.936,43.7555,0.153809,-7.93213,83.7817,2192
1569921969,267.109,-131.936,43.7555,0.153809,-7.93213,83.7817,2192
1569921969,267.109,-131.936,43.7555,0.153809,-7.93213,83.7817,2192
1569921969,267.109,-131.936,43.7555,0.153809,-7.93213,83.7817,2192
1569921969,267.109,-131.936,43.7555,0.153809,-7.93213,83.7817,2192
1569921969,267.109,-131.936,43.7555,0.153809,-7.93213,83.7817,2192
1569921969,267.109,-131.936,43.7555,0.153809,-7.93213,83.7817,2192
1569921969,267.109,-131.936,43.7555,0.153809,-7.93213,83.7817,2192
1569921969,267.109,-131.936,43.7555,0.153809,-7.93213,83.7817,2192
1569921969,267.109,-131.936,43.7555,0.153809,-7.93213,83.7817,2192
1569921969,267.109,-131.936,43.7555,0.153809,-7.93213,83.7817,2192
1569921969,267.109,-131.936,43.7555,0.153809,-7.93213,83.7817,2192
1569921969,267.109,-131.936,43.7555,0.153809,-7.93213,83.7817,2192
1569921969,267.109,-131.936,43.7555,0.153809,-7.93213,83.7817,2192
1569921969,267.109,-131.936,43.7555,0.153809,-7.93213,83.7817,2192
1569921969,267.109,-131.936,43.7555,0.153809,-7.93213,83.7817,2192
1569921969,267.109,-131.936,43.7555,0.153809,-7.93213,83.7817,2192
1569921969,267.109,-131.936,43.7555,0.153809,-7.93213,83.7817,2192
1569921969,267.109,-131.936,43.7555,0.153809,-7.93213,83.7817,2192
1569921969,267.109,-131.936,43.7555,0.153809,-7.93213,83.7817,2192
1569921969,267.109,-131.936,43.7555,0.153809,-7.93213,83.7817,2192
1569921969,267.109,-131.936,43.7555,0.153809,-7.93213,83.7817,2192
1569921969,267.109,-131.936,43.7555,0.153809,-7.93213,83.7817,2192
1569921969,267.109,-131.936,43.7555,0.153809,-7.93213,83.7817,2192
1569921969,267.109,-131.936,43.7555,0.153809,-7.93213,83.7817,2192
1569921969,267.109,-131.936,43.7555,0.153809,-7.93213,83.7817,2192
1569921969,267.109,-131.936,43.7555,0.153809,-7.93213,83.7817,2192
1569921969,267.109,-131.936,43.7555,0.153809,-7.93213,83.7817,2192
1569921969,267.109,-131.936,43.7555,0.153809,-7.93213,83.7817,2192
1569921969,267.109,-131.936,43.7555,0.153809,-7.93213,83.7817,2192
1569921969,267.109,-131.936,43.7555,0.153809,-7.93213,83.7817,2192
1569921969,267.109,-131.936,43.7555,0.153809,-7.93213,83.7817,2192
1569921969,267.109,-131.936,43.7555,0.153809,-7.93213,83.7817,2192
1569921969,267.109,-131.936,43.7555,0.153809,-7.93213,83.7817,2192
1569921969,267.109,-131.936,43.7555,0.153809,-7.93213,83.7817,2192
1569921969,267.109,-131.936,43.7555,0.153809,-7.93213,83.7817,2192
1569921969,267.109,-131.936,43.7555,0.153809,-7.93213,83.7817,2192
1569921969,267.109,-131.936,43.7555,0.153809,-7.93213,83.7817,2192
1569921969,267.109,-131.936,43.7555,0.153809,-7.93213,83.7817,2192
1569921969,267.109,-131.936,43.7555,0.153809,-7.93213,83.7817,2192
1569921969,267.109,-131.936,43.7555,0.153809,-7.93213,83.7817,2192
1569921969,267.109,-131.936,43.7555,0.153809,-7.93213,83.7817,2192
1569921969,267.109,-131.936,43.7555,0.153809,-7.93213,83.7817,2192
1569921969,267.109,-131.936,43.7555,0.153809,-7.93213,83.7817,2192
1569921969,267.109,-131.936,43.7555,0.153809,-7.93213,83.7817,2192
1569921969,267.109,-131.936,43.7555,0.153809,-7.93213,83.7817,2192
1569921969,267.109,-131.936,43.7555,0.153809,-7.93213,83.7817,2192
1569921969,267.109,-131.936,43.7555,0.153809,-7.93213,83.7817,2192
1569921969,267.109,-131.936,43.7555,0.153809,-7.93213,83.7817,2192
1569921969,267.109,-131.936,43.7555,0.153809,-7.93213,83.7817,2192
1569921969,267.109,-131.936,43.7555,0.153809,-7.93213,83.7817,2192
1569921969,267.109,-131.936,43.7555,0.153809,-7.93213,83.7817,2192
1569921970,267.109,-131.936,43.7555,0.153809,-7.93213,83.7817,2192
1569921970,267.109,-131.936,43.7555,0.153809,-7.93213,83.7817,2192
1569921970,267.109,-131.936,43.7555,0.153809,-7.93213,83.7817,2192
1569921970,267.109,-131.936,43.7555,0.153809,-7.93213,83.7817,2192
1569921970,267.109,-131.936,43.7555,0.153809,-7.93213,83.7817,2192
1569921970,267.109,-131.936,43.7555,0.153809,-7.93213,83.7817,2192
1569921970,267.109,-131.936,43.7555,0.153809,-7.93213,83.7817,2192
1569921970,267.109,-131.936,43.7555,0.153809,-7.93213,83.7817,2192
1569921970,267.109,-131.936,43.7555,0.153809,-7.93213,83.7817,2192
1569921970,267.109,-131.936,43.7555,0.153809,-7.93213,83.7817,2192
1569921970,267.109,-131.936,43.7555,0.153809,-7.93213,83.7817,2192
1569921970,267.109,-131.936,43.7555,0.153809,-7.93213,83.7817,2192
1569921970,267.109,-131.936,43.7555,0.153809,-7.93213,83.7817,2192
1569921970,267.109,-131.936,43.7555,0.153809,-7.93213,83.7817,2192
1569921970,267.109,-131.936,43.7555,0.153809,-7.93213,83.7817,2192
1569921970,267.109,-131.936,43.7555,0.153809,-7.93213,83.7817,2192
1569921970,267.109,-131.936,43.7555,0.153809,-7.93213,83.7817,2192
1569921970,267.109,-131.936,43.7555,0.153809,-7.93213,83.7817,2192
1569921970,267.109,-131.936,43.7555,0.153809,-7.93213,83.7817,2192
1569921970,267.109,-131.936,43.7555,0.153809,-7.93213,83.7817,2192
1569921970,267.109,-131.936,43.7555,0.153809,-7.93213,83.7817,2192
1569921970,267.109,-131.936,43.7555,0.153809,-7.93213,83.7817,2192
1569921970,267.109,-131.936,43.7555,0.153809,-7.93213,83.7817,2192
1569921970,267.109,-131.936,43.7555,0.153809,-7.93213,83.7817,2192
1569921970,267.109,-131.936,43.7555,0.153809,-7.93213,83.7817,2192
1569921970,267.109,-131.936,43.7555,0.153809,-7.93213,83.7817,2192
1569921970,267.109,-131.936,43.7555,0.153809,-7.93213,83.7817,2192
1569921970,267.109,-131.936,43.7555,0.153809,-7.93213,83.7817,2192
1569921970,267.109,-131.936,43.7555,0.153809,-7.93213,83.7817,2192
1569921970,267.109,-131.936,43.7555,0.153809,-7.93213,83.7817,2192
1569921970,267.109,-131.936,43.7555,0.153809,-7.93213,83.7817,2192
1569921970,267.109,-131.936,43.7555,0.153809,-7.93213,83.7817,2192
1569921970,267.109,-131.936,43.7555,0.153809,-7.93213,83.7817,2192
1569921970,267.109,-131.936,43.7555,0.153809,-7.93213,83.7817,2192
1569921970,267.109,-131.936,43.7555,0.153809,-7.93213,83.7817,2192
1569921970,267.109,-131.936,43.7555,0.153809,-7.93213,83.7817,2192
1569921970,267.109,-131.936,43.7555,0.153809,-7.93213,83.7817,2192
1569921970,267.109,-131.936,43.7555,0.153809,-7.93213,83.7817,2192
1569921970,267.109,-131.936,43.7555,0.153809,-7.93213,83.7817,2192
1569921970,267.109,-131.936,43.7555,0.153809,-7.93213,83.7817,2192
1569921970,267.109,-131.936,43.7555,0.153809,-7.93213,83.7817,2192
1569921970,267.109,-131.936,43.7555,0.153809,-7.93213,83.7817,2192
1569921970,267.109,-131.936,43.7555,0.153809,-7.93213,83.7817,2192
1569921970,267.109,-131.936,43.7555,0.153809,-7.93213,83.7817,2192
1569921970,267.109,-131.936,43.7555,0.153809,-7.93213,83.7817,2192
1569921970,267.109,-131.936,43.7555,0.153809,-7.93213,83.7817,2192
1569921970,267.109,-131.936,43.7555,0.153809,-7.93213,83.7817,2192
1569921970,267.109,-131.936,43.7555,0.153809,-7.93213,83.7817,2192
1569921970,267.109,-131.936,43.7555,0.153809,-7.93213,83.7817,2192
1569921970,267.109,-131.936,43.7555,0.153809,-7.93213,83.7817,2192
1569921970,267.109,-131.936,43.7555,0.153809,-7.93213,83.7817,2192
1569921970,267.109,-131.936,43.7555,0.153809,-7.93213,83.7817,2192
1569921970,267.109,-131.936,43.7555,0.153809,-7.93213,83.7817,2192
1569921970,267.109,-131.936,43.7555,0.153809,-7.93213,83.7817,2192
1569921970,267.109,-131.936,43.7555,0.153809,-7.93213,83.7817,2192
1569921970,267.109,-131.936,43.7555,0.153809,-7.93213,83.7817,2192
1569921970,267.109,-131.936,43.7555,0.153809,-7.93213,83.7817,2192
1569921970,267.109,-131.936,43.7555,0.153809,-7.93213,83.7817,2192
1569921970,267.109,-131.936,43.7555,0.153809,-7.93213,83.7817,2192
1569921970,267.109,-131.936,43.7555,0.153809,-7.93213,83.7817,2192
1569921970,267.109,-131.936,43.7555,0.153809,-7.93213,83.7817,2192
1569921970,267.109,-131.936,43.7555,0.153809,-7.93213,83.7817,2192
1569921970,267.109,-131.936,43.7555,0.153809,-7.93213,83.7817,2192
1569921970,267.109,-131.936,43.7555,0.153809,-7.93213,83.7817,2192
1569921970,267.109,-131.936,43.7555,0.153809,-7.93213,83.7817,2192
1569921970,267.109,-131.936,43.7555,0.153809,-7.93213,83.7817,2192
1569921970,267.109,-131.936,43.7555,0.153809,-7.93213,83.7817,2192
1569921970,267.109,-131.936,43.7555,0.153809,-7.93213,83.7817,2192
1569921970,267.109,-131.936,43.7555,0.153809,-7.93213,83.7817,2192
1569921970,267.109,-131.936,43.7555,0.153809,-7.93213,83.7817,2192
1569921970,267.109,-131.936,43.7555,0.153809,-7.93213,83.7817,2192
1569921970,267.109,-131.936,43.7555,0.153809,-7.93213,83.7817,2192
1569921970,267.109,-131.936,43.7555,0.153809,-7.93213,83.7817,2192
1569921970,267.109,-131.936,43.7555,0.153809,-7.93213,83.7817,2192
1569921970,267.109,-131.936,43.7555,0.153809,-7.93213,83.7817,2192
1569921970,267.109,-131.936,43.7555,0.153809,-7.93213,83.7817,2192
1569921970,267.109,-131.936,43.7555,0.153809,-7.93213,83.7817,2192
1569921970,267.109,-131.936,43.7555,0.153809,-7.93213,83.7817,2192
1569921970,267.109,-131.936,43.7555,0.153809,-7.93213,83.7817,2192
1569921970,267.109,-131.936,43.7555,0.153809,-7.93213,83.7817,2192
1569921970,267.109,-131.936,43.7555,0.153809,-7.93213,83.7817,2192
1569921970,267.109,-131.936,43.7555,0.153809,-7.93213,83.7817,2192
1569921970,267.109,-131.936,43.7555,0.153809,-7.93213,83.7817,2192
1569921970,267.109,-131.936,43.7555,0.153809,-7.93213,83.7817,2192
1569921970,267.109,-131.936,43.7555,0.153809,-7.93213,83.7817,2192
1569921970,267.109,-131.936,43.7555,0.153809,-7.93213,83.7817,2192
1569921970,267.109,-131.936,43.7555,0.153809,-7.93213,83.7817,2192
1569921970,267.109,-131.936,43.7555,0.153809,-7.93213,83.7817,2192
1569921970,267.109,-131.936,43.7555,0.153809,-7.93213,83.7817,2192
1569921970,267.109,-131.936,43.7555,0.153809,-7.93213,83.7817,2192
1569921970,267.109,-131.936,43.7555,0.153809,-7.93213,83.7817,2192
1569921970,267.109,-131.936,43.7555,0.153809,-7.93213,83.7817,2192
1569921970,267.109,-131.936,43.7555,0.153809,-7.93213,83.7817,2192
1569921970,267.109,-131.936,43.7555,0.153809,-7.93213,83.7817,2192
1569921970,267.109,-131.936,43.7555,0.153809,-7.93213,83.7817,2192
1569921970,267.109,-131.936,43.7555,0.153809,-7.93213,83.7817,2192
1569921970,267.109,-131.936,43.7555,0.153809,-7.93213,83.7817,2192
1569921970,267.109,-131.936,43.7555,0.153809,-7.93213,83.7817,2192
1569921970,267.109,-131.936,43.7555,0.153809,-7.93213,83.7817,2192
1569921970,267.109,-131.936,43.7555,0.153809,-7.93213,83.7817,2192
1569921971,267.109,-131.936,43.7555,0.153809,-7.93213,83.7817,2192
1569921971,267.109,-131.936,43.7555,0.153809,-7.93213,83.7817,2192
1569921971,267.109,-131.936,43.7555,0.153809,-7.93213,83.7817,2192
1569921971,267.109,-131.936,43.7555,0.153809,-7.93213,83.7817,2192
1569921971,267.109,-131.936,43.7555,0.153809,-7.93213,83.7817,2192
1569921971,267.109,-131.936,43.7555,0.153809,-7.93213,83.7817,2192
1569921971,267.109,-131.936,43.7555,0.153809,-7.93213,83.7817,2192
1569921971,267.109,-131.936,43.7555,0.153809,-7.93213,83.7817,2192
1569921971,267.109,-131.936,43.7555,0.153809,-7.93213,83.7817,2192
1569921971,267.109,-131.936,43.7555,0.153809,-7.93213,83.7817,2192
1569921971,267.109,-131.936,43.7555,0.153809,-7.93213,83.7817,2192
1569921971,267.109,-131.936,43.7555,0.153809,-7.93213,83.7817,2192
1569921971,267.109,-131.936,43.7555,0.153809,-7.93213,83.7817,2192
1569921971,267.109,-131.936,43.7555,0.153809,-7.93213,83.7817,2192
1569921971,267.109,-131.936,43.7555,0.153809,-7.93213,83.7817,2192
1569921971,267.109,-131.936,43.7555,0.153809,-7.93213,83.7817,2192
1569921971,267.109,-131.936,43.7555,0.153809,-7.93213,83.7817,2192
1569921971,267.109,-131.936,43.7555,0.153809,-7.93213,83.7817,2192
1569921971,267.109,-131.936,43.7555,0.153809,-7.93213,83.7817,2192
1569921971,267.109,-131.936,43.7555,0.153809,-7.93213,83.7817,2192
1569921971,267.109,-131.936,43.7555,0.153809,-7.93213,83.7817,2192
1569921971,267.109,-131.936,43.7555,0.153809,-7.93213,83.7817,2192
1569921971,267.109,-131.936,43.7555,0.153809,-7.93213,83.7817,2192
1569921971,267.109,-131.936,43.7555,0.153809,-7.93213,83.7817,2192
1569921971,267.109,-131.936,43.7555,0.153809,-7.93213,83.7817,2192
1569921971,267.109,-131.936,43.7555,0.153809,-7.93213,83.7817,2192
1569921971,267.109,-131.936,43.7555,0.153809,-7.93213,83.7817,2192
1569921971,267.109,-131.936,43.7555,0.153809,-7.93213,83.7817,2192
1569921971,267.109,-131.936,43.7555,0.153809,-7.93213,83.7817,2192
1569921971,267.109,-131.936,43.7555,0.153809,-7.93213,83.7817,2192
1569921971,267.109,-131.936,43.7555,0.153809,-7.93213,83.7817,2192
1569921971,267.109,-131.936,43.7555,0.153809,-7.93213,83.7817,2192
1569921971,267.109,-131.936,43.7555,0.153809,-7.93213,83.7817,2192
1569921971,267.109,-131.936,43.7555,0.153809,-7.93213,83.7817,2192
1569921971,267.109,-131.936,43.7555,0.153809,-7.93213,83.7817,2192
1569921971,267.109,-131.936,43.7555,0.153809,-7.93213,83.7817,2192
1569921971,267.109,-131.936,43.7555,0.153809,-7.93213,83.7817,2192
1569921971,267.109,-131.936,43.7555,0.153809,-7.93213,83.7817,2192
1569921971,267.109,-131.936,43.7555,0.153809,-7.93213,83.7817,2192
1569921971,267.109,-131.936,43.7555,0.153809,-7.93213,83.7817,2192
1569921971,267.109,-131.936,43.7555,0.153809,-7.93213,83.7817,2192
1569921971,267.109,-131.936,43.7555,0.153809,-7.93213,83.7817,2192
1569921971,267.109,-131.936,43.7555,0.153809,-7.93213,83.7817,2192
1569921971,267.109,-131.936,43.7555,0.153809,-7.93213,83.7817,2192
1569921971,267.109,-131.936,43.7555,0.153809,-7.93213,83.7817,2192
1569921971,267.109,-131.936,43.7555,0.153809,-7.93213,83.7817,2192
1569921971,267.109,-131.936,43.7555,0.153809,-7.93213,83.7817,2192
1569921971,267.109,-131.936,43.7555,0.153809,-7.93213,83.7817,2192
1569921971,267.109,-131.936,43.7555,0.153809,-7.93213,83.7817,2192
1569921971,267.109,-131.936,43.7555,0.153809,-7.93213,83.7817,2192
1569921971,267.109,-131.936,43.7555,0.153809,-7.93213,83.7817,2192
1569921971,267.109,-131.936,43.7555,0.153809,-7.93213,83.7817,2192
1569921971,267.109,-131.936,43.7555,0.153809,-7.93213,83.7817,2192
1569921971,267.109,-131.936,43.7555,0.153809,-7.93213,83.7817,2192
1569921971,267.109,-131.936,43.7555,0.153809,-7.93213,83.7817,2192
1569921971,267.109,-131.936,43.7555,0.153809,-7.93213,83.7817,2192
1569921971,267.109,-131.936,43.7555,0.153809,-7.93213,83.7817,2192
1569921971,267.109,-131.936,43.7555,0.153809,-7.93213,83.7817,2192
1569921971,267.109,-131.936,43.7555,0.153809,-7.93213,83.7817,2192
1569921971,267.109,-131.936,43.7555,0.153809,-7.93213,83.7817,2192
1569921971,267.109,-131.936,43.7555,0.153809,-7.93213,83.7817,2192
1569921971,267.109,-131.936,43.7555,0.153809,-7.93213,83.7817,2192
1569921971,267.109,-131.936,43.7555,0.153809,-7.93213,83.7817,2192
1569921971,267.109,-131.936,43.7555,0.153809,-7.93213,83.7817,2192
1569921971,267.109,-131.936,43.7555,0.153809,-7.93213,83.7817,2192
1569921971,267.109,-131.936,43.7555,0.153809,-7.93213,83.7817,2192
1569921971,267.109,-131.936,43.7555,0.153809,-7.93213,83.7817,2192
1569921971,267.109,-131.936,43.7555,0.153809,-7.93213,83.7817,2192
1569921971,267.109,-131.936,43.7555,0.153809,-7.93213,83.7817,2192
1569921971,267.109,-131.936,43.7555,0.153809,-7.93213,83.7817,2192
1569921971,267.109,-131.936,43.7555,0.153809,-7.93213,83.7817,2192
1569921971,267.109,-131.936,43.7555,0.153809,-7.93213,83.7817,2192
1569921971,267.109,-131.936,43.7555,0.153809,-7.93213,83.7817,2192
1569921971,267.109,-131.936,43.7555,0.153809,-7.93213,83.7817,2192
1569921971,267.109,-131.936,43.7555,0.153809,-7.93213,83.7817,2192
1569921971,267.109,-131.936,43.7555,0.153809,-7.93213,83.7817,2192
1569921971,267.109,-131.936,43.7555,0.153809,-7.93213,83.7817,2192
1569921971,267.109,-131.936,43.7555,0.153809,-7.93213,83.7817,2192
1569921971,267.109,-131.936,43.7555,0.153809,-7.93213,83.7817,2192
1569921971,267.109,-131.936,43.7555,0.153809,-7.93213,83.7817,2192
1569921971,267.109,-131.936,43.7555,0.153809,-7.93213,83.7817,2192
1569921971,267.109,-131.936,43.7555,0.153809,-7.93213,83.7817,2192
1569921971,267.109,-131.936,43.7555,0.153809,-7.93213,83.7817,2192
1569921971,267.109,-131.936,43.7555,0.153809,-7.93213,83.7817,2192
1569921971,267.109,-131.936,43.7555,0.153809,-7.93213,83.7817,2192
1569921971,267.109,-131.936,43.7555,0.153809,-7.93213,83.7817,2192
1569921971,267.109,-131.936,43.7555,0.153809,-7.93213,83.7817,2192
1569921971,267.109,-131.936,43.7555,0.153809,-7.93213,83.7817,2192
1569921971,267.109,-131.936,43.7555,0.153809,-7.93213,83.7817,2192
1569921971,267.109,-131.936,43.7555,0.153809,-7.93213,83.7817,2192
1569921971,267.109,-131.936,43.7555,0.153809,-7.93213,83.7817,2192
1569921971,267.109,-131.936,43.7555,0.153809,-7.93213,83.7817,2192
1569921971,267.109,-131.936,43.7555,0.153809,-7.93213,83.7817,2192
1569921971,267.109,-131.936,43.7555,0.153809,-7.93213,83.7817,2192
1569921971,267.109,-131.936,43.7555,0.153809,-7.93213,83.7817,2192
1569921971,267.109,-131.936,43.7555,0.153809,-7.93213,83.7817,2192
1569921971,267.109,-131.936,43.7555,0.153809,-7.93213,83.7817,2192
1569921971,267.109,-131.936,43.7555,0.153809,-7.93213,83.7817,2192
1569921971,267.109,-131.936,43.7555,0.153809,-7.93213,83.7817,2192
1569921971,267.109,-131.936,43.7555,0.153809,-7.93213,83.7817,2192
1569921972,267.109,-131.936,43.7555,0.153809,-7.93213,83.7817,2192
1569921972,267.109,-131.936,43.7555,0.153809,-7.93213,83.7817,2192
1569921972,267.109,-131.936,43.7555,0.153809,-7.93213,83.7817,2192
1569921972,267.109,-131.936,43.7555,0.153809,-7.93213,83.7817,2192
1569921972,267.109,-131.936,43.7555,0.153809,-7.93213,83.7817,2192
1569921972,267.109,-131.936,43.7555,0.153809,-7.93213,83.7817,2192
1569921972,267.109,-131.936,43.7555,0.153809,-7.93213,83.7817,2192
1569921972,267.109,-131.936,43.7555,0.153809,-7.93213,83.7817,2192
1569921972,267.109,-131.936,43.7555,0.153809,-7.93213,83.7817,2192
1569921972,267.109,-131.936,43.7555,0.153809,-7.93213,83.7817,2192
1569921972,267.109,-131.936,43.7555,0.153809,-7.93213,83.7817,2192
1569921972,267.109,-131.936,43.7555,0.153809,-7.93213,83.7817,2192
1569921972,267.109,-131.936,43.7555,0.153809,-7.93213,83.7817,2192
