time,x,y,z,ax,ay,az,q
1569676207,358.973,-175.58,-12.7248,-179.692,2.74658,-144.602,556
1569676207,358.973,-175.58,-12.7248,-179.692,2.74658,-144.602,556
1569676207,358.973,-175.58,-12.7248,-179.714,2.74658,-144.602,556
1569676207,358.973,-175.58,-12.7248,-179.714,2.74658,-144.602,556
1569676207,358.973,-175.58,-12.7248,-179.714,2.74658,-144.602,556
1569676207,358.973,-175.58,-12.7248,-179.714,2.72461,-144.602,552
1569676207,358.973,-175.58,-12.7248,-179.714,2.72461,-144.602,552
1569676207,358.973,-175.58,-12.7248,-179.714,2.72461,-144.602,552
1569676207,358.973,-175.58,-12.7248,-179.714,2.72461,-144.602,552
1569676207,358.973,-175.692,-12.7248,-179.714,2.72461,-144.602,552
1569676207,358.973,-175.692,-12.7248,-179.714,2.72461,-144.602,548
1569676207,358.973,-175.692,-12.7248,-179.714,2.72461,-144.602,548
1569676207,358.862,-175.692,-12.7248,-179.714,2.72461,-144.602,548
1569676207,358.862,-175.692,-12.7248,-179.714,2.72461,-144.602,548
1569676207,358.862,-175.58,-12.7248,-179.714,2.72461,-144.602,548
1569676207,358.862,-175.58,-12.7248,-179.714,2.72461,-144.624,544
1569676207,358.862,-175.58,-12.7248,-179.714,2.72461,-144.624,544
1569676207,358.862,-175.58,-12.7248,-179.714,2.72461,-144.624,544
1569676207,358.862,-175.58,-12.7248,-179.714,2.72461,-144.624,544
1569676207,358.862,-175.58,-12.7248,-179.714,2.74658,-144.624,544
1569676207,358.862,-175.58,-12.7248,-179.714,2.74658,-144.624,548
1569676207,358.862,-175.58,-12.7248,-179.714,2.74658,-144.624,548
1569676207,358.862,-175.58,-12.7248,-179.714,2.74658,-144.624,548
1569676207,358.862,-175.58,-12.8364,-179.714,2.74658,-144.624,548
1569676207,358.862,-175.58,-12.8364,-179.714,2.74658,-144.624,548
1569676207,358.862,-175.58,-12.8364,-179.714,2.74658,-144.624,552
1569676207,358.862,-175.58,-12.7248,-179.714,2.74658,-144.624,552
1569676207,358.862,-175.58,-12.7248,-179.714,2.74658,-144.624,552
1569676207,358.862,-175.58,-12.7248,-179.736,2.74658,-144.624,552
1569676207,358.862,-175.58,-12.7248,-179.714,2.74658,-144.624,552
1569676207,358.862,-175.58,-12.7248,-179.714,2.74658,-144.624,552
1569676207,358.862,-175.58,-12.7248,-179.714,2.74658,-144.624,548
1569676207,358.862,-175.58,-12.7248,-179.714,2.74658,-144.624,548
1569676207,358.862,-175.58,-12.7248,-179.714,2.76855,-144.624,548
1569676207,358.862,-175.58,-12.7248,-179.714,2.76855,-144.624,548
1569676207,358.862,-175.58,-12.7248,-179.714,2.76855,-144.624,548
1569676207,358.862,-175.58,-12.7248,-179.714,2.76855,-144.624,548
1569676207,358.862,-175.58,-12.7248,-179.714,2.76855,-144.624,548
1569676207,358.862,-175.58,-12.7248,-179.714,2.76855,-144.624,548
1569676207,358.862,-175.692,-12.7248,-179.736,2.76855,-144.624,548
1569676207,358.862,-175.692,-12.7248,-179.736,2.76855,-144.624,548
1569676207,358.862,-175.692,-12.7248,-179.736,2.76855,-144.624,548
1569676207,358.862,-175.692,-12.7248,-179.736,2.76855,-144.624,548
1569676207,358.862,-175.692,-12.7248,-179.736,2.79053,-144.624,552
1569676207,358.973,-175.692,-12.7248,-179.736,2.79053,-144.624,552
1569676207,358.973,-175.692,-12.6132,-179.736,2.79053,-144.624,552
1569676207,358.973,-175.692,-12.6132,-179.758,2.79053,-144.624,552
1569676207,358.973,-175.692,-12.6132,-179.736,2.79053,-144.624,552
1569676207,358.973,-175.692,-12.6132,-179.736,2.79053,-144.624,552
1569676207,358.973,-175.692,-12.6132,-179.736,2.79053,-144.624,552
1569676207,358.973,-175.803,-12.6132,-179.736,2.79053,-144.624,552
1569676207,358.973,-175.803,-12.6132,-179.736,2.79053,-144.624,552
1569676207,358.973,-175.803,-12.6132,-179.736,2.79053,-144.624,552
1569676207,358.973,-175.803,-12.6132,-179.736,2.79053,-144.624,552
1569676207,358.973,-175.803,-12.6132,-179.736,2.8125,-144.624,552
1569676207,358.973,-175.803,-12.6132,-179.736,2.8125,-144.624,552
1569676207,358.973,-175.803,-12.6132,-179.758,2.8125,-144.624,552
1569676207,358.973,-175.803,-12.6132,-179.758,2.79053,-144.624,552
1569676207,358.973,-175.803,-12.6132,-179.758,2.79053,-144.624,552
1569676207,358.973,-175.803,-12.6132,-179.736,2.79053,-144.624,552
1569676207,358.973,-175.803,-12.6132,-179.736,2.79053,-144.624,552
1569676207,358.973,-175.803,-12.6132,-179.736,2.79053,-144.624,552
1569676207,358.973,-175.803,-12.6132,-179.736,2.79053,-144.624,552
1569676207,359.085,-175.692,-12.6132,-179.736,2.79053,-144.624,552
1569676207,359.085,-175.692,-12.6132,-179.736,2.79053,-144.624,552
1569676207,359.085,-175.692,-12.6132,-179.736,2.79053,-144.624,552
1569676207,359.085,-175.692,-12.7248,-179.736,2.79053,-144.624,552
1569676207,359.085,-175.692,-12.7248,-179.736,2.76855,-144.624,552
1569676207,359.085,-175.803,-12.7248,-179.736,2.76855,-144.624,552
1569676207,359.085,-175.803,-12.7248,-179.758,2.76855,-144.646,552
1569676207,358.973,-175.803,-12.7248,-179.758,2.76855,-144.646,552
1569676207,358.973,-175.803,-12.7248,-179.758,2.74658,-144.646,552
1569676207,358.973,-175.803,-12.8364,-179.758,2.74658,-144.646,552
1569676207,358.973,-175.803,-12.8364,-179.758,2.74658,-144.646,552
1569676207,358.973,-175.803,-12.8364,-179.758,2.74658,-144.646,552
1569676207,358.973,-175.803,-12.8364,-179.758,2.74658,-144.646,552
1569676207,358.973,-175.803,-12.8364,-179.758,2.74658,-144.646,552
1569676207,358.973,-175.692,-12.8364,-179.736,2.74658,-144.646,548
1569676207,358.973,-175.692,-12.8364,-179.736,2.74658,-144.646,548
1569676207,358.973,-175.692,-12.8364,-179.736,2.74658,-144.646,548
1569676207,358.973,-175.692,-12.8364,-179.736,2.74658,-144.646,548
1569676207,358.973,-175.692,-12.8364,-179.736,2.74658,-144.646,548
1569676207,358.973,-175.692,-12.8364,-179.736,2.74658,-144.646,548
1569676207,359.085,-175.692,-12.8364,-179.736,2.74658,-144.646,548
1569676207,359.085,-175.692,-12.8364,-179.736,2.74658,-144.646,548
1569676207,359.085,-175.692,-12.8364,-179.736,2.74658,-144.646,548
1569676207,359.085,-175.692,-12.8364,-179.736,2.74658,-144.646,544
1569676207,359.085,-175.803,-12.8364,-179.736,2.74658,-144.646,544
1569676207,359.085,-175.803,-12.8364,-179.736,2.74658,-144.646,544
1569676208,359.085,-175.803,-12.8364,-179.736,2.74658,-144.646,540
1569676208,359.085,-175.803,-12.8364,-179.736,2.74658,-144.646,540
1569676208,359.085,-175.803,-12.8364,-179.758,2.74658,-144.646,540
1569676208,359.085,-175.803,-12.8364,-179.758,2.74658,-144.646,536
1569676208,359.085,-175.803,-12.8364,-179.758,2.74658,-144.646,536
1569676208,359.085,-175.803,-12.8364,-179.758,2.74658,-144.646,536
1569676208,359.085,-175.803,-12.8364,-179.758,2.74658,-144.646,532
1569676208,359.085,-175.803,-12.8364,-179.758,2.74658,-144.646,532
1569676208,359.085,-175.803,-12.8364,-179.758,2.74658,-144.646,532
1569676208,359.085,-175.803,-12.8364,-179.758,2.74658,-144.646,532
1569676208,359.085,-175.803,-12.8364,-179.758,2.74658,-144.646,532
1569676208,359.085,-175.803,-12.8364,-179.758,2.74658,-144.646,528
1569676208,359.085,-175.803,-12.8364,-179.758,2.74658,-144.646,528
1569676208,359.085,-175.803,-12.8364,-179.758,2.74658,-144.646,528
1569676208,359.085,-175.803,-12.8364,-179.758,2.74658,-144.646,528
1569676208,359.085,-175.803,-12.8364,-179.758,2.74658,-144.646,528
1569676208,359.085,-175.803,-12.7248,-179.758,2.74658,-144.646,528
1569676208,359.085,-175.803,-12.7248,-179.758,2.74658,-144.624,528
1569676208,359.085,-175.803,-12.7248,-179.758,2.74658,-144.624,528
1569676208,359.085,-175.803,-12.7248,-179.758,2.74658,-144.624,528
1569676208,359.085,-175.803,-12.7248,-179.758,2.76855,-144.624,528
1569676208,359.085,-175.803,-12.7248,-179.758,2.76855,-144.624,528
1569676208,359.085,-175.803,-12.7248,-179.758,2.76855,-144.624,528
1569676208,359.085,-175.915,-12.7248,-179.78,2.76855,-144.624,532
1569676208,359.085,-175.915,-12.7248,-179.78,2.76855,-144.624,532
1569676208,359.085,-175.915,-12.7248,-179.78,2.76855,-144.624,532
1569676208,359.085,-175.915,-12.7248,-179.78,2.76855,-144.624,532
1569676208,359.085,-175.915,-12.7248,-179.78,2.76855,-144.624,536
1569676208,359.085,-175.915,-12.7248,-179.78,2.76855,-144.624,536
1569676208,358.973,-175.915,-12.7248,-179.78,2.76855,-144.624,536
1569676208,358.973,-175.915,-12.7248,-179.78,2.76855,-144.624,540
1569676208,358.973,-175.915,-12.6132,-179.78,2.76855,-144.624,540
1569676208,359.085,-175.915,-12.6132,-179.78,2.79053,-144.624,540
1569676208,359.085,-175.915,-12.6132,-179.78,2.79053,-144.602,540
1569676208,359.085,-175.915,-12.6132,-179.78,2.79053,-144.602,544
1569676208,359.085,-175.915,-12.6132,-179.78,2.79053,-144.602,544
1569676208,359.085,-175.915,-12.6132,-179.78,2.79053,-144.602,544
1569676208,359.085,-175.915,-12.6132,-179.78,2.79053,-144.602,544
1569676208,359.085,-175.915,-12.6132,-179.78,2.79053,-144.624,544
1569676208,359.085,-175.915,-12.6132,-179.78,2.79053,-144.624,548
1569676208,359.085,-175.915,-12.6132,-179.78,2.76855,-144.624,548
1569676208,359.085,-175.915,-12.6132,-179.78,2.76855,-144.624,548
1569676208,358.973,-175.915,-12.7248,-179.78,2.76855,-144.624,548
1569676208,358.973,-175.915,-12.7248,-179.802,2.76855,-144.624,548
1569676208,358.973,-175.915,-12.7248,-179.802,2.76855,-144.624,548
1569676208,358.973,-175.915,-12.7248,-179.802,2.76855,-144.602,548
1569676208,358.973,-175.915,-12.7248,-179.802,2.76855,-144.602,548
1569676208,358.973,-175.915,-12.7248,-179.802,2.76855,-144.602,548
1569676208,358.973,-175.915,-12.7248,-179.802,2.76855,-144.602,548
1569676208,358.973,-175.915,-12.7248,-179.802,2.76855,-144.602,548
1569676208,358.973,-175.915,-12.7248,-179.78,2.76855,-144.602,544
1569676208,358.973,-175.915,-12.7248,-179.78,2.74658,-144.602,544
1569676208,358.973,-175.915,-12.7248,-179.78,2.74658,-144.602,544
1569676208,358.973,-175.915,-12.7248,-179.78,2.74658,-144.602,544
1569676208,358.973,-175.915,-12.7248,-179.78,2.74658,-144.602,540
1569676208,358.973,-175.915,-12.7248,-179.78,2.74658,-144.602,540
1569676208,358.973,-175.915,-12.7248,-179.78,2.74658,-144.602,540
1569676208,358.973,-175.803,-12.7248,-179.78,2.74658,-144.602,540
1569676208,358.973,-175.803,-12.7248,-179.78,2.74658,-144.602,540
1569676208,358.973,-175.803,-12.7248,-179.78,2.74658,-144.602,540
1569676208,358.973,-175.803,-12.7248,-179.78,2.76855,-144.602,536
1569676208,358.973,-175.803,-12.7248,-179.78,2.76855,-144.602,536
1569676208,358.973,-175.803,-12.7248,-179.78,2.76855,-144.602,536
1569676208,358.973,-175.803,-12.7248,-179.78,2.76855,-144.602,536
1569676208,358.973,-175.803,-12.7248,-179.758,2.76855,-144.602,536
1569676208,359.085,-175.803,-12.7248,-179.758,2.76855,-144.602,536
1569676208,359.085,-175.803,-12.7248,-179.758,2.76855,-144.602,532
1569676208,359.085,-175.803,-12.7248,-179.758,2.76855,-144.602,532
1569676208,359.085,-175.803,-12.7248,-179.758,2.76855,-144.602,532
1569676208,359.085,-175.803,-12.7248,-179.758,2.76855,-144.602,532
1569676208,359.085,-175.803,-12.7248,-179.758,2.76855,-144.602,528
1569676208,359.085,-175.803,-12.7248,-179.758,2.76855,-144.602,528
1569676208,359.085,-175.803,-12.7248,-179.758,2.74658,-144.602,528
1569676208,359.085,-175.803,-12.7248,-179.758,2.74658,-144.602,524
1569676208,359.085,-175.803,-12.7248,-179.758,2.74658,-144.602,524
1569676208,359.085,-175.803,-12.7248,-179.758,2.74658,-144.602,524
1569676208,359.085,-175.803,-12.7248,-179.736,2.74658,-144.602,524
1569676208,359.085,-175.803,-12.7248,-179.736,2.74658,-144.602,520
1569676208,359.085,-175.803,-12.7248,-179.736,2.74658,-144.602,520
1569676208,359.085,-175.803,-12.7248,-179.736,2.74658,-144.602,520
1569676208,359.085,-175.803,-12.7248,-179.736,2.74658,-144.602,520
1569676208,359.085,-175.803,-12.7248,-179.736,2.74658,-144.602,520
1569676208,359.085,-175.803,-12.7248,-179.736,2.74658,-144.602,516
1569676208,359.085,-175.803,-12.7248,-179.736,2.74658,-144.602,516
1569676208,359.085,-175.803,-12.7248,-179.736,2.74658,-144.602,516
1569676208,359.085,-175.803,-12.7248,-179.736,2.72461,-144.602,516
1569676208,359.085,-175.803,-12.7248,-179.736,2.72461,-144.602,516
1569676208,359.085,-175.803,-12.7248,-179.736,2.72461,-144.602,516
1569676208,359.085,-175.803,-12.7248,-179.736,2.72461,-144.602,516
1569676208,358.973,-175.803,-12.7248,-179.736,2.72461,-144.624,516
1569676208,358.973,-175.803,-12.7248,-179.758,2.72461,-144.624,516
1569676208,358.973,-175.803,-12.7248,-179.758,2.72461,-144.624,516
1569676208,358.973,-175.803,-12.7248,-179.758,2.72461,-144.624,516
1569676208,359.085,-175.803,-12.8364,-179.758,2.72461,-144.624,516
1569676208,359.085,-175.803,-12.8364,-179.758,2.72461,-144.624,516
1569676208,359.085,-175.803,-12.8364,-179.758,2.72461,-144.624,516
1569676208,359.085,-175.803,-12.8364,-179.758,2.72461,-144.624,516
1569676208,359.085,-175.803,-12.8364,-179.758,2.72461,-144.624,516
1569676208,359.085,-175.803,-12.8364,-179.758,2.72461,-144.624,516
1569676208,359.085,-175.803,-12.8364,-179.758,2.72461,-144.624,516
1569676209,359.085,-175.803,-12.8364,-179.758,2.72461,-144.624,516
1569676209,359.085,-175.803,-12.8364,-179.758,2.72461,-144.624,512
1569676209,359.085,-175.803,-12.8364,-179.758,2.72461,-144.624,512
1569676209,359.085,-175.803,-12.8364,-179.758,2.72461,-144.624,512
1569676209,359.085,-175.915,-12.8364,-179.758,2.72461,-144.624,512
1569676209,359.085,-175.915,-12.8364,-179.78,2.72461,-144.624,512
1569676209,359.085,-175.915,-12.8364,-179.78,2.72461,-144.624,512
1569676209,359.085,-175.915,-12.8364,-179.78,2.72461,-144.624,512
1569676209,358.973,-175.915,-12.8364,-179.78,2.72461,-144.624,512
1569676209,358.973,-175.915,-12.8364,-179.78,2.72461,-144.624,512
1569676209,358.973,-175.915,-12.8364,-179.78,2.72461,-144.624,516
1569676209,358.973,-175.915,-12.8364,-179.802,2.72461,-144.624,516
1569676209,358.973,-175.915,-12.8364,-179.802,2.72461,-144.624,516
1569676209,358.973,-175.915,-12.7248,-179.802,2.72461,-144.602,520
1569676209,358.973,-175.915,-12.7248,-179.802,2.72461,-144.602,520
1569676209,358.973,-175.915,-12.7248,-179.802,2.74658,-144.602,520
1569676209,358.973,-175.915,-12.7248,-179.802,2.74658,-144.602,524
1569676209,358.973,-175.915,-12.7248,-179.802,2.74658,-144.602,524
1569676209,358.973,-175.915,-12.7248,-179.802,2.74658,-144.602,524
1569676209,358.973,-175.915,-12.7248,-179.802,2.74658,-144.602,528
1569676209,358.973,-175.915,-12.6132,-179.78,2.76855,-144.602,528
1569676209,358.973,-175.915,-12.6132,-179.78,2.76855,-144.602,532
1569676209,358.973,-175.915,-12.6132,-179.78,2.76855,-144.602,532
1569676209,358.973,-175.915,-12.6132,-179.78,2.76855,-144.602,536
1569676209,358.973,-175.803,-12.6132,-179.78,2.76855,-144.602,536
1569676209,358.973,-175.803,-12.6132,-179.78,2.76855,-144.602,540
1569676209,358.973,-175.803,-12.6132,-179.78,2.76855,-144.602,540
1569676209,358.973,-175.803,-12.6132,-179.78,2.76855,-144.602,540
1569676209,358.973,-175.915,-12.6132,-179.78,2.76855,-144.602,540
1569676209,358.973,-175.915,-12.6132,-179.78,2.76855,-144.602,544
1569676209,358.973,-175.915,-12.6132,-179.802,2.76855,-144.602,544
1569676209,358.973,-175.915,-12.6132,-179.802,2.76855,-144.602,544
1569676209,358.973,-175.915,-12.6132,-179.802,2.76855,-144.602,544
1569676209,358.973,-175.915,-12.6132,-179.802,2.76855,-144.602,544
1569676209,358.973,-175.915,-12.6132,-179.802,2.76855,-144.602,544
1569676209,358.973,-175.915,-12.6132,-179.802,2.76855,-144.602,544
1569676209,358.973,-175.915,-12.6132,-179.802,2.76855,-144.602,540
1569676209,358.973,-175.915,-12.6132,-179.802,2.76855,-144.602,540
1569676209,358.973,-175.915,-12.6132,-179.802,2.76855,-144.602,540
1569676209,358.973,-175.915,-12.6132,-179.802,2.76855,-144.624,540
1569676209,358.973,-175.915,-12.6132,-179.78,2.76855,-144.624,544
1569676209,358.973,-175.915,-12.6132,-179.78,2.76855,-144.624,544
1569676209,358.973,-175.915,-12.6132,-179.78,2.79053,-144.624,544
1569676209,358.973,-175.915,-12.6132,-179.78,2.79053,-144.624,544
1569676209,358.973,-175.915,-12.6132,-179.78,2.79053,-144.624,544
1569676209,358.973,-175.915,-12.6132,-179.78,2.79053,-144.624,544
1569676209,358.973,-175.915,-12.6132,-179.802,2.76855,-144.624,544
1569676209,358.973,-175.915,-12.6132,-179.802,2.76855,-144.624,544
1569676209,358.973,-175.915,-12.6132,-179.802,2.76855,-144.624,544
1569676209,358.973,-175.915,-12.6132,-179.78,2.76855,-144.624,540
1569676209,358.973,-175.915,-12.6132,-179.78,2.76855,-144.624,540
1569676209,358.973,-175.915,-12.6132,-179.78,2.76855,-144.624,540
1569676209,358.973,-175.915,-12.6132,-179.78,2.76855,-144.624,540
1569676209,358.973,-175.915,-12.6132,-179.78,2.76855,-144.624,540
1569676209,358.973,-175.915,-12.6132,-179.78,2.76855,-144.624,540
1569676209,358.973,-175.803,-12.6132,-179.78,2.76855,-144.624,540
1569676209,358.973,-175.803,-12.7248,-179.78,2.76855,-144.624,540
1569676209,358.973,-175.803,-12.7248,-179.78,2.76855,-144.624,540
1569676209,358.973,-175.803,-12.7248,-179.78,2.76855,-144.624,540
1569676209,358.973,-175.803,-12.7248,-179.78,2.74658,-144.624,540
1569676209,358.973,-175.803,-12.7248,-179.78,2.74658,-144.624,540
1569676209,358.973,-175.803,-12.7248,-179.78,2.74658,-144.624,540
1569676209,358.973,-175.803,-12.7248,-179.78,2.76855,-144.624,540
1569676209,358.973,-175.803,-12.7248,-179.78,2.76855,-144.624,540
1569676209,358.973,-175.803,-12.7248,-179.78,2.76855,-144.624,544
1569676209,358.973,-175.803,-12.7248,-179.78,2.76855,-144.624,544
1569676209,358.973,-175.803,-12.7248,-179.78,2.76855,-144.624,544
1569676209,358.973,-175.803,-12.7248,-179.78,2.76855,-144.624,544
1569676209,358.973,-175.803,-12.7248,-179.758,2.76855,-144.624,548
1569676209,358.973,-175.803,-12.7248,-179.758,2.76855,-144.624,548
1569676209,358.973,-175.803,-12.7248,-179.758,2.76855,-144.624,548
1569676209,358.973,-175.803,-12.6132,-179.758,2.76855,-144.602,548
1569676209,358.973,-175.803,-12.6132,-179.758,2.76855,-144.602,548
1569676209,358.973,-175.803,-12.6132,-179.758,2.76855,-144.602,548
1569676209,358.973,-175.803,-12.6132,-179.758,2.76855,-144.602,548
1569676209,358.973,-175.803,-12.6132,-179.758,2.76855,-144.624,548
1569676209,358.973,-175.803,-12.6132,-179.758,2.76855,-144.624,548
1569676209,358.973,-175.803,-12.6132,-179.758,2.76855,-144.624,548
1569676209,358.973,-175.803,-12.6132,-179.78,2.76855,-144.624,548
1569676209,358.973,-175.803,-12.6132,-179.78,2.76855,-144.624,544
1569676209,358.973,-175.803,-12.6132,-179.78,2.76855,-144.624,544
1569676209,358.973,-175.803,-12.6132,-179.78,2.76855,-144.624,544
1569676209,358.973,-175.803,-12.7248,-179.78,2.76855,-144.624,544
1569676209,358.973,-175.803,-12.7248,-179.78,2.76855,-144.624,544
1569676209,358.973,-175.915,-12.7248,-179.78,2.76855,-144.624,544
1569676209,358.973,-175.915,-12.7248,-179.78,2.76855,-144.624,540
1569676209,358.973,-175.915,-12.7248,-179.78,2.76855,-144.624,540
1569676209,358.973,-175.915,-12.7248,-179.78,2.76855,-144.624,540
1569676209,358.973,-175.915,-12.7248,-179.78,2.76855,-144.624,540
1569676209,358.973,-175.915,-12.7248,-179.78,2.76855,-144.624,536
1569676209,358.973,-175.803,-12.7248,-179.78,2.76855,-144.624,536
1569676209,358.973,-175.803,-12.7248,-179.78,2.76855,-144.624,536
1569676209,358.973,-175.803,-12.7248,-179.78,2.76855,-144.624,536
1569676209,358.973,-175.803,-12.7248,-179.78,2.76855,-144.624,536
1569676209,358.973,-175.803,-12.7248,-179.78,2.76855,-144.624,536
1569676209,358.973,-175.803,-12.7248,-179.758,2.76855,-144.624,536
1569676209,358.973,-175.803,-12.7248,-179.758,2.76855,-144.624,536
1569676209,358.973,-175.803,-12.7248,-179.758,2.76855,-144.624,540
1569676209,358.973,-175.803,-12.7248,-179.758,2.76855,-144.624,540
1569676209,358.973,-175.803,-12.7248,-179.758,2.76855,-144.624,540
1569676210,358.973,-175.803,-12.7248,-179.758,2.76855,-144.624,540
1569676210,358.973,-175.803,-12.7248,-179.758,2.76855,-144.624,540
1569676210,358.973,-175.692,-12.7248,-179.736,2.76855,-144.624,540
1569676210,358.973,-175.692,-12.7248,-179.736,2.76855,-144.624,540
1569676210,358.973,-175.692,-12.7248,-179.736,2.76855,-144.624,544
1569676210,358.973,-175.692,-12.7248,-179.736,2.76855,-144.624,544
1569676210,358.973,-175.692,-12.7248,-179.736,2.74658,-144.646,544
1569676210,358.973,-175.692,-12.7248,-179.736,2.74658,-144.646,544
1569676210,358.973,-175.692,-12.7248,-179.736,2.74658,-144.646,544
1569676210,358.973,-175.692,-12.8364,-179.736,2.74658,-144.646,544
1569676210,358.973,-175.692,-12.8364,-179.736,2.74658,-144.646,544
1569676210,358.973,-175.692,-12.8364,-179.736,2.74658,-144.646,544
1569676210,358.973,-175.692,-12.8364,-179.736,2.74658,-144.646,544
1569676210,358.973,-175.692,-12.8364,-179.736,2.74658,-144.646,544
1569676210,358.973,-175.692,-12.8364,-179.736,2.74658,-144.646,544
1569676210,358.973,-175.692,-12.8364,-179.758,2.74658,-144.646,544
1569676210,358.973,-175.692,-12.8364,-179.758,2.72461,-144.646,544
1569676210,358.973,-175.803,-12.8364,-179.758,2.72461,-144.646,544
1569676210,358.973,-175.803,-12.8364,-179.758,2.72461,-144.646,544
1569676210,358.973,-175.803,-12.8364,-179.758,2.72461,-144.646,544
1569676210,358.973,-175.803,-12.8364,-179.758,2.72461,-144.646,544
1569676210,358.973,-175.803,-12.8364,-179.758,2.72461,-144.646,544
1569676210,358.973,-175.803,-12.8364,-179.758,2.72461,-144.646,544
1569676210,358.973,-175.803,-12.8364,-179.758,2.74658,-144.646,544
1569676210,358.973,-175.692,-12.8364,-179.736,2.74658,-144.646,548
1569676210,358.973,-175.692,-12.8364,-179.736,2.74658,-144.646,548
1569676210,358.973,-175.692,-12.8364,-179.736,2.74658,-144.624,548
1569676210,358.973,-175.692,-12.8364,-179.736,2.74658,-144.624,548
1569676210,359.085,-175.692,-12.8364,-179.714,2.74658,-144.624,548
1569676210,359.085,-175.692,-12.8364,-179.714,2.74658,-144.624,548
1569676210,359.085,-175.692,-12.8364,-179.714,2.74658,-144.624,548
1569676210,359.085,-175.692,-12.8364,-179.714,2.74658,-144.624,548
1569676210,359.085,-175.692,-12.8364,-179.714,2.74658,-144.624,548
1569676210,359.085,-175.58,-12.8364,-179.714,2.74658,-144.624,544
1569676210,359.085,-175.692,-12.8364,-179.714,2.74658,-144.624,544
1569676210,359.085,-175.692,-12.7248,-179.714,2.74658,-144.624,544
1569676210,359.085,-175.692,-12.7248,-179.714,2.74658,-144.624,544
1569676210,359.085,-175.692,-12.7248,-179.714,2.74658,-144.624,544
1569676210,359.085,-175.692,-12.7248,-179.714,2.74658,-144.624,544
1569676210,359.085,-175.692,-12.7248,-179.714,2.74658,-144.624,544
1569676210,359.085,-175.692,-12.7248,-179.714,2.74658,-144.624,544
1569676210,359.085,-175.692,-12.7248,-179.714,2.74658,-144.624,544
1569676210,359.085,-175.692,-12.7248,-179.714,2.74658,-144.624,544
1569676210,359.085,-175.692,-12.7248,-179.714,2.74658,-144.624,544
1569676210,359.085,-175.692,-12.7248,-179.714,2.74658,-144.624,544
1569676210,359.085,-175.692,-12.8364,-179.714,2.74658,-144.624,544
1569676210,359.085,-175.692,-12.8364,-179.714,2.74658,-144.624,544
1569676210,359.085,-175.692,-12.8364,-179.714,2.74658,-144.624,544
1569676210,359.085,-175.692,-12.8364,-179.714,2.74658,-144.624,544
1569676210,359.085,-175.692,-12.8364,-179.714,2.74658,-144.624,544
1569676210,359.085,-175.692,-12.8364,-179.714,2.74658,-144.624,548
1569676210,359.085,-175.692,-12.8364,-179.714,2.72461,-144.624,548
1569676210,359.085,-175.692,-12.8364,-179.714,2.72461,-144.624,548
1569676210,359.085,-175.692,-12.8364,-179.714,2.72461,-144.624,548
1569676210,359.085,-175.692,-12.8364,-179.714,2.72461,-144.624,548
1569676210,359.085,-175.692,-12.8364,-179.714,2.74658,-144.624,552
1569676210,359.085,-175.692,-12.8364,-179.714,2.74658,-144.624,552
1569676210,359.085,-175.692,-12.8364,-179.714,2.74658,-144.624,552
1569676210,359.085,-175.692,-12.7248,-179.714,2.74658,-144.624,552
1569676210,359.085,-175.692,-12.7248,-179.736,2.74658,-144.624,552
1569676210,359.085,-175.692,-12.7248,-179.736,2.74658,-144.624,552
1569676210,359.085,-175.692,-12.7248,-179.736,2.74658,-144.624,552
1569676210,359.085,-175.692,-12.7248,-179.736,2.74658,-144.624,552
1569676210,359.085,-175.692,-12.7248,-179.736,2.72461,-144.624,552
1569676210,359.085,-175.803,-12.7248,-179.736,2.72461,-144.624,552
1569676210,359.085,-175.803,-12.7248,-179.736,2.72461,-144.624,552
1569676210,359.085,-175.803,-12.8364,-179.736,2.72461,-144.624,552
1569676210,359.085,-175.803,-12.8364,-179.736,2.72461,-144.624,552
1569676210,359.085,-175.803,-12.8364,-179.736,2.72461,-144.624,552
1569676210,359.085,-175.803,-12.8364,-179.736,2.70264,-144.624,552
1569676210,359.085,-175.692,-12.8364,-179.736,2.70264,-144.624,552
1569676210,359.085,-175.692,-12.8364,-179.736,2.70264,-144.624,552
1569676210,359.085,-175.692,-12.8364,-179.736,2.70264,-144.624,552
1569676210,359.085,-175.692,-12.8364,-179.736,2.70264,-144.624,552
1569676210,359.085,-175.692,-12.8364,-179.736,2.70264,-144.624,552
1569676210,359.085,-175.692,-12.8364,-179.736,2.70264,-144.624,548
1569676210,358.973,-175.692,-12.8364,-179.736,2.70264,-144.624,548
1569676210,358.973,-175.692,-12.8364,-179.736,2.70264,-144.624,548
1569676210,358.973,-175.692,-12.8364,-179.736,2.72461,-144.602,552
1569676210,358.973,-175.692,-12.8364,-179.736,2.72461,-144.602,552
1569676210,358.973,-175.692,-12.8364,-179.736,2.72461,-144.602,552
1569676210,358.973,-175.692,-12.8364,-179.736,2.72461,-144.602,552
1569676210,358.973,-175.692,-12.7248,-179.736,2.72461,-144.602,552
1569676210,358.973,-175.692,-12.7248,-179.736,2.72461,-144.602,552
1569676210,358.973,-175.692,-12.7248,-179.736,2.72461,-144.602,552
1569676210,358.973,-175.692,-12.7248,-179.736,2.72461,-144.602,552
1569676210,358.973,-175.692,-12.7248,-179.736,2.72461,-144.602,552
1569676210,358.973,-175.692,-12.7248,-179.736,2.72461,-144.602,552
1569676210,358.973,-175.692,-12.7248,-179.714,2.74658,-144.602,552
1569676210,358.973,-175.692,-12.7248,-179.714,2.74658,-144.602,552
1569676210,358.973,-175.692,-12.7248,-179.736,2.74658,-144.602,552
1569676210,358.973,-175.692,-12.7248,-179.736,2.74658,-144.602,552
1569676210,358.973,-175.692,-12.7248,-179.736,2.74658,-144.602,552
1569676210,358.973,-175.692,-12.7248,-179.736,2.74658,-144.602,552
1569676210,358.973,-175.692,-12.7248,-179.736,2.74658,-144.602,552
1569676210,358.973,-175.692,-12.7248,-179.736,2.74658,-144.602,552
1569676210,358.973,-175.692,-12.7248,-179.736,2.74658,-144.602,552
1569676210,358.973,-175.692,-12.7248,-179.736,2.76855,-144.602,552
1569676210,358.973,-175.692,-12.7248,-179.736,2.76855,-144.602,552
1569676210,358.973,-175.692,-12.6132,-179.736,2.76855,-144.602,552
1569676211,358.973,-175.692,-12.6132,-179.736,2.76855,-144.602,552
1569676211,358.973,-175.692,-12.6132,-179.736,2.76855,-144.602,552
1569676211,358.973,-175.692,-12.6132,-179.736,2.76855,-144.602,552
1569676211,358.973,-175.692,-12.6132,-179.736,2.76855,-144.602,552
1569676211,358.973,-175.692,-12.6132,-179.736,2.76855,-144.602,556
1569676211,358.973,-175.692,-12.6132,-179.736,2.76855,-144.602,556
1569676211,358.973,-175.692,-12.6132,-179.736,2.76855,-144.602,556
1569676211,358.973,-175.692,-12.6132,-179.736,2.76855,-144.602,556
1569676211,358.973,-175.692,-12.7248,-179.736,2.76855,-144.602,556
1569676211,358.973,-175.692,-12.7248,-179.736,2.76855,-144.624,556
1569676211,358.973,-175.692,-12.7248,-179.736,2.76855,-144.624,556
1569676211,358.973,-175.692,-12.7248,-179.736,2.76855,-144.624,556
1569676211,358.973,-175.692,-12.7248,-179.758,2.76855,-144.624,556
1569676211,358.973,-175.692,-12.7248,-179.758,2.76855,-144.624,556
1569676211,358.973,-175.692,-12.6132,-179.758,2.76855,-144.624,556
1569676211,358.973,-175.692,-12.6132,-179.758,2.76855,-144.624,556
1569676211,358.973,-175.692,-12.6132,-179.758,2.76855,-144.624,556
1569676211,358.973,-175.692,-12.6132,-179.758,2.76855,-144.624,556
1569676211,358.973,-175.692,-12.6132,-179.758,2.79053,-144.624,556
1569676211,358.973,-175.803,-12.6132,-179.758,2.79053,-144.624,556
1569676211,358.973,-175.803,-12.6132,-179.758,2.79053,-144.624,552
1569676211,358.973,-175.803,-12.6132,-179.758,2.79053,-144.624,552
1569676211,358.973,-175.803,-12.6132,-179.78,2.79053,-144.624,552
1569676211,358.973,-175.803,-12.6132,-179.78,2.79053,-144.624,552
1569676211,358.973,-175.803,-12.6132,-179.78,2.79053,-144.624,548
1569676211,358.973,-175.803,-12.6132,-179.78,2.76855,-144.624,548
1569676211,358.973,-175.803,-12.6132,-179.78,2.76855,-144.624,548
1569676211,358.973,-175.803,-12.6132,-179.78,2.76855,-144.624,548
1569676211,358.973,-175.803,-12.6132,-179.758,2.76855,-144.624,544
1569676211,358.973,-175.803,-12.6132,-179.758,2.76855,-144.624,544
1569676211,358.973,-175.803,-12.6132,-179.758,2.76855,-144.624,544
1569676211,358.973,-175.803,-12.6132,-179.758,2.79053,-144.624,544
1569676211,358.973,-175.803,-12.6132,-179.758,2.79053,-144.624,544
1569676211,358.973,-175.692,-12.6132,-179.736,2.79053,-144.624,544
1569676211,358.973,-175.692,-12.6132,-179.736,2.79053,-144.624,548
1569676211,358.973,-175.692,-12.6132,-179.736,2.79053,-144.624,548
1569676211,358.973,-175.692,-12.6132,-179.736,2.79053,-144.624,548
1569676211,358.973,-175.692,-12.6132,-179.736,2.79053,-144.624,548
1569676211,359.085,-175.692,-12.6132,-179.736,2.79053,-144.624,548
1569676211,359.085,-175.692,-12.6132,-179.736,2.79053,-144.624,548
1569676211,359.085,-175.692,-12.6132,-179.736,2.79053,-144.624,548
1569676211,359.085,-175.692,-12.6132,-179.736,2.79053,-144.624,548
1569676211,359.085,-175.692,-12.6132,-179.736,2.79053,-144.602,548
1569676211,359.085,-175.692,-12.6132,-179.736,2.79053,-144.602,548
1569676211,359.085,-175.692,-12.6132,-179.736,2.79053,-144.602,548
1569676211,359.085,-175.692,-12.6132,-179.736,2.79053,-144.624,548
1569676211,359.085,-175.692,-12.6132,-179.736,2.79053,-144.624,548
1569676211,358.973,-175.692,-12.6132,-179.736,2.79053,-144.624,548
1569676211,358.973,-175.692,-12.6132,-179.758,2.79053,-144.624,548
1569676211,358.973,-175.692,-12.6132,-179.758,2.79053,-144.624,548
1569676211,358.973,-175.803,-12.6132,-179.758,2.76855,-144.624,548
1569676211,358.973,-175.803,-12.6132,-179.758,2.76855,-144.624,548
1569676211,358.973,-175.803,-12.6132,-179.758,2.76855,-144.624,548
1569676211,358.973,-175.803,-12.6132,-179.758,2.76855,-144.624,548
1569676211,358.973,-175.803,-12.6132,-179.758,2.76855,-144.624,548
1569676211,358.973,-175.803,-12.6132,-179.758,2.76855,-144.624,544
1569676211,358.973,-175.803,-12.6132,-179.758,2.76855,-144.624,544
1569676211,358.973,-175.803,-12.6132,-179.758,2.76855,-144.624,544
1569676211,358.973,-175.803,-12.6132,-179.758,2.76855,-144.624,544
1569676211,359.085,-175.803,-12.6132,-179.758,2.76855,-144.624,540
1569676211,359.085,-175.803,-12.6132,-179.758,2.76855,-144.624,540
1569676211,359.085,-175.803,-12.6132,-179.758,2.76855,-144.624,540
1569676211,359.085,-175.803,-12.6132,-179.758,2.76855,-144.602,540
1569676211,359.085,-175.803,-12.6132,-179.758,2.76855,-144.602,540
1569676211,358.973,-175.803,-12.6132,-179.758,2.76855,-144.602,540
1569676211,358.973,-175.803,-12.6132,-179.758,2.76855,-144.602,540
1569676211,358.973,-175.803,-12.6132,-179.758,2.76855,-144.602,540
1569676211,358.973,-175.803,-12.6132,-179.758,2.76855,-144.602,540
1569676211,358.973,-175.803,-12.6132,-179.758,2.76855,-144.602,540
1569676211,358.973,-175.803,-12.6132,-179.758,2.76855,-144.602,540
1569676211,358.973,-175.803,-12.6132,-179.758,2.76855,-144.602,540
1569676211,358.973,-175.803,-12.6132,-179.758,2.76855,-144.602,544
1569676211,358.973,-175.803,-12.6132,-179.758,2.76855,-144.602,544
1569676211,358.973,-175.803,-12.6132,-179.758,2.76855,-144.602,544
1569676211,358.973,-175.803,-12.6132,-179.78,2.76855,-144.624,548
1569676211,358.973,-175.803,-12.6132,-179.78,2.76855,-144.624,548
1569676211,358.973,-175.803,-12.7248,-179.78,2.76855,-144.624,548
1569676211,358.973,-175.803,-12.7248,-179.78,2.74658,-144.624,552
1569676211,358.973,-175.803,-12.7248,-179.78,2.74658,-144.624,552
1569676211,358.973,-175.803,-12.7248,-179.78,2.74658,-144.624,552
1569676211,358.973,-175.803,-12.7248,-179.78,2.74658,-144.624,556
1569676211,358.973,-175.803,-12.7248,-179.78,2.74658,-144.602,556
1569676211,358.973,-175.692,-12.7248,-179.78,2.74658,-144.602,556
1569676211,358.973,-175.692,-12.7248,-179.78,2.74658,-144.602,556
1569676211,358.973,-175.692,-12.7248,-179.78,2.76855,-144.602,556
1569676211,358.973,-175.692,-12.7248,-179.78,2.74658,-144.602,560
1569676211,358.973,-175.692,-12.7248,-179.78,2.74658,-144.602,560
1569676211,358.973,-175.692,-12.7248,-179.78,2.76855,-144.602,560
1569676211,358.973,-175.692,-12.7248,-179.78,2.76855,-144.602,560
1569676211,358.973,-175.692,-12.7248,-179.78,2.76855,-144.602,560
1569676211,358.973,-175.692,-12.7248,-179.78,2.76855,-144.602,560
1569676211,358.973,-175.692,-12.7248,-179.78,2.76855,-144.602,560
1569676211,358.973,-175.803,-12.7248,-179.78,2.74658,-144.602,560
1569676211,358.973,-175.803,-12.7248,-179.78,2.74658,-144.602,560
1569676211,358.973,-175.803,-12.7248,-179.78,2.74658,-144.602,564
1569676211,358.973,-175.803,-12.7248,-179.78,2.74658,-144.602,564
1569676211,358.973,-175.803,-12.7248,-179.78,2.74658,-144.602,564
1569676211,358.973,-175.803,-12.7248,-179.78,2.76855,-144.602,564
1569676211,358.973,-175.803,-12.7248,-179.78,2.76855,-144.602,564
1569676211,358.973,-175.803,-12.7248,-179.78,2.76855,-144.602,564
1569676212,358.973,-175.803,-12.7248,-179.78,2.76855,-144.602,564
1569676212,358.973,-175.803,-12.7248,-179.78,2.76855,-144.602,564
1569676212,358.973,-175.803,-12.6132,-179.802,2.76855,-144.602,564
1569676212,358.973,-175.803,-12.6132,-179.802,2.76855,-144.602,564
1569676212,358.973,-175.803,-12.6132,-179.802,2.76855,-144.602,564
1569676212,358.973,-175.803,-12.6132,-179.802,2.79053,-144.602,560
1569676212,358.973,-175.803,-12.6132,-179.802,2.79053,-144.602,560
1569676212,358.973,-175.803,-12.6132,-179.802,2.79053,-144.602,560
1569676212,358.973,-175.803,-12.6132,-179.802,2.79053,-144.602,560
1569676212,358.973,-175.803,-12.6132,-179.802,2.79053,-144.602,560
1569676212,358.973,-175.803,-12.6132,-179.802,2.79053,-144.602,560
1569676216,343.57,-159.73,-12.948,-179.824,2.96631,-144.888,528
1569676216,343.57,-159.73,-12.948,-179.824,2.96631,-144.888,532
1569676216,343.57,-159.73,-12.948,-179.824,2.96631,-144.888,532
1569676216,343.57,-159.73,-12.948,-179.824,2.96631,-144.888,532
1569676216,343.57,-159.73,-12.948,-179.824,2.96631,-144.888,536
1569676216,343.57,-159.73,-12.948,-179.824,2.96631,-144.888,536
1569676216,343.57,-159.73,-12.948,-179.824,2.96631,-144.888,536
1569676216,343.57,-159.73,-12.948,-179.824,2.96631,-144.888,540
1569676216,343.57,-159.73,-12.948,-179.824,2.96631,-144.866,540
1569676216,343.57,-159.73,-12.948,-179.824,2.96631,-144.866,544
1569676216,343.57,-159.618,-12.948,-179.824,2.96631,-144.866,544
1569676216,343.57,-159.618,-12.8364,-179.824,2.96631,-144.866,544
1569676216,343.57,-159.73,-12.8364,-179.824,2.96631,-144.866,544
1569676216,343.57,-159.73,-12.8364,-179.824,2.96631,-144.866,544
1569676216,343.57,-159.73,-12.8364,-179.824,2.96631,-144.866,548
1569676216,343.57,-159.73,-12.8364,-179.824,2.96631,-144.866,548
1569676216,343.57,-159.73,-12.8364,-179.824,2.96631,-144.866,548
1569676216,343.57,-159.73,-12.8364,-179.824,2.96631,-144.866,548
1569676216,343.57,-159.73,-12.8364,-179.824,2.96631,-144.866,548
1569676216,343.57,-159.73,-12.8364,-179.824,2.96631,-144.866,548
1569676216,343.57,-159.73,-12.8364,-179.824,2.96631,-144.866,548
1569676216,343.57,-159.73,-12.8364,-179.824,2.96631,-144.866,548
1569676216,343.57,-159.73,-12.8364,-179.824,2.96631,-144.866,548
1569676216,343.57,-159.73,-12.8364,-179.824,2.96631,-144.866,548
1569676216,343.57,-159.73,-12.8364,-179.824,2.96631,-144.866,548
1569676216,343.57,-159.73,-12.8364,-179.824,2.96631,-144.866,548
1569676216,343.57,-159.73,-12.8364,-179.824,2.96631,-144.866,548
1569676216,343.57,-159.73,-12.8364,-179.824,2.94434,-144.866,548
1569676216,343.57,-159.618,-12.8364,-179.824,2.94434,-144.866,548
1569676216,343.57,-159.618,-12.8364,-179.802,2.94434,-144.844,544
1569676216,343.57,-159.618,-12.8364,-179.802,2.94434,-144.844,544
1569676216,343.57,-159.618,-12.8364,-179.802,2.94434,-144.844,544
1569676216,343.57,-159.618,-12.8364,-179.802,2.94434,-144.844,544
1569676216,343.57,-159.618,-12.8364,-179.802,2.94434,-144.844,544
1569676216,343.57,-159.618,-12.948,-179.802,2.94434,-144.844,544
1569676216,343.57,-159.618,-12.948,-179.802,2.94434,-144.844,544
1569676216,343.57,-159.618,-12.948,-179.802,2.94434,-144.844,544
1569676216,343.57,-159.618,-12.948,-179.78,2.94434,-144.844,544
1569676216,343.57,-159.618,-12.948,-179.78,2.94434,-144.844,540
1569676216,343.57,-159.618,-12.948,-179.78,2.94434,-144.844,540
1569676216,343.57,-159.618,-12.948,-179.78,2.94434,-144.844,540
1569676216,343.57,-159.618,-12.948,-179.78,2.94434,-144.844,540
1569676216,343.57,-159.618,-12.948,-179.78,2.94434,-144.866,536
1569676216,343.57,-159.618,-12.948,-179.78,2.94434,-144.866,536
1569676216,343.681,-159.618,-12.948,-179.78,2.94434,-144.866,536
1569676216,343.681,-159.618,-12.948,-179.78,2.94434,-144.866,536
1569676216,343.681,-159.618,-12.948,-179.78,2.94434,-144.866,536
1569676216,343.681,-159.618,-12.948,-179.78,2.94434,-144.866,536
1569676216,343.681,-159.618,-12.948,-179.78,2.94434,-144.866,536
1569676216,343.681,-159.618,-12.948,-179.78,2.94434,-144.866,536
1569676216,343.681,-159.618,-12.948,-179.78,2.94434,-144.866,536
1569676216,343.681,-159.618,-12.948,-179.78,2.94434,-144.866,536
1569676216,343.681,-159.618,-12.948,-179.802,2.94434,-144.866,536
1569676216,343.681,-159.618,-12.948,-179.802,2.94434,-144.866,536
1569676216,343.681,-159.73,-12.948,-179.802,2.94434,-144.866,536
1569676216,343.681,-159.73,-12.948,-179.802,2.94434,-144.866,536
1569676216,343.681,-159.73,-12.948,-179.802,2.94434,-144.866,536
1569676216,343.681,-159.73,-12.948,-179.824,2.94434,-144.866,536
1569676216,343.681,-159.73,-12.948,-179.824,2.94434,-144.866,536
1569676216,343.681,-159.73,-12.948,-179.824,2.94434,-144.866,536
1569676216,343.681,-159.73,-12.948,-179.824,2.94434,-144.866,536
1569676216,343.681,-159.73,-12.948,-179.824,2.94434,-144.866,536
1569676216,343.681,-159.841,-12.948,-179.824,2.94434,-144.866,536
1569676216,343.681,-159.841,-12.948,-179.824,2.94434,-144.866,536
1569676216,343.681,-159.841,-12.948,-179.824,2.94434,-144.866,532
1569676216,343.681,-159.841,-12.948,-179.846,2.94434,-144.866,532
1569676216,343.681,-159.841,-12.948,-179.824,2.94434,-144.888,532
1569676216,343.681,-159.841,-12.948,-179.824,2.94434,-144.888,532
1569676216,343.681,-159.841,-12.948,-179.824,2.94434,-144.888,532
1569676216,343.681,-159.73,-13.0597,-179.824,2.94434,-144.888,532
1569676216,343.681,-159.73,-13.0597,-179.824,2.94434,-144.888,528
1569676216,343.681,-159.73,-13.0597,-179.824,2.94434,-144.888,528
1569676216,343.681,-159.73,-13.0597,-179.824,2.94434,-144.888,528
1569676217,343.681,-159.73,-13.0597,-179.824,2.94434,-144.888,528
1569676217,343.681,-159.73,-12.948,-179.824,2.94434,-144.888,528
1569676217,343.681,-159.73,-12.948,-179.824,2.94434,-144.888,528
1569676217,343.681,-159.73,-12.948,-179.824,2.94434,-144.888,528
1569676217,343.681,-159.73,-12.948,-179.824,2.94434,-144.888,528
1569676217,343.681,-159.73,-12.948,-179.824,2.94434,-144.888,528
1569676217,343.681,-159.73,-12.948,-179.824,2.94434,-144.888,528
1569676217,343.681,-159.73,-12.948,-179.824,2.94434,-144.888,528
1569676217,343.681,-159.73,-12.948,-179.824,2.94434,-144.888,528
1569676217,343.681,-159.73,-12.948,-179.824,2.94434,-144.888,528
1569676217,343.681,-159.73,-12.948,-179.824,2.94434,-144.888,528
1569676217,343.681,-159.73,-12.948,-179.824,2.94434,-144.888,528
1569676217,343.57,-159.73,-12.948,-179.824,2.94434,-144.888,528
1569676217,343.57,-159.73,-13.0597,-179.824,2.94434,-144.888,528
1569676217,343.57,-159.73,-13.0597,-179.824,2.92236,-144.888,528
1569676217,343.57,-159.73,-13.0597,-179.824,2.92236,-144.888,528
1569676217,343.57,-159.73,-13.0597,-179.824,2.92236,-144.91,528
1569676217,343.57,-159.73,-13.0597,-179.824,2.92236,-144.91,528
1569676217,343.57,-159.73,-13.0597,-179.824,2.92236,-144.91,528
1569676217,343.57,-159.73,-13.0597,-179.824,2.92236,-144.91,528
1569676217,343.57,-159.73,-13.0597,-179.824,2.92236,-144.91,528
1569676217,343.57,-159.73,-13.0597,-179.824,2.92236,-144.91,528
1569676217,343.57,-159.73,-13.0597,-179.846,2.92236,-144.91,528
1569676217,343.57,-159.73,-13.0597,-179.846,2.92236,-144.91,528
1569676217,343.57,-159.73,-13.0597,-179.846,2.92236,-144.91,528
1569676217,343.57,-159.73,-13.0597,-179.846,2.92236,-144.91,528
1569676217,343.57,-159.73,-13.0597,-179.846,2.92236,-144.888,528
1569676217,343.57,-159.73,-13.0597,-179.846,2.92236,-144.888,528
1569676217,343.57,-159.73,-13.0597,-179.846,2.92236,-144.888,528
1569676217,343.57,-159.73,-13.0597,-179.824,2.92236,-144.888,528
1569676217,343.57,-159.73,-13.0597,-179.824,2.92236,-144.888,528
1569676217,343.57,-159.73,-12.948,-179.824,2.94434,-144.888,528
1569676217,343.57,-159.73,-12.948,-179.824,2.94434,-144.888,528
1569676217,343.57,-159.73,-12.948,-179.824,2.94434,-144.888,528
1569676217,343.57,-159.73,-12.948,-179.824,2.94434,-144.888,528
1569676217,343.57,-159.73,-12.948,-179.824,2.94434,-144.888,528
1569676217,343.57,-159.73,-12.948,-179.846,2.94434,-144.888,528
1569676217,343.57,-159.73,-12.948,-179.846,2.96631,-144.888,528
1569676217,343.57,-159.73,-12.948,-179.846,2.96631,-144.888,528
1569676217,343.57,-159.73,-12.948,-179.846,2.96631,-144.888,528
1569676217,343.57,-159.73,-12.948,-179.846,2.96631,-144.888,528
1569676217,343.57,-159.73,-12.948,-179.846,2.96631,-144.888,528
1569676217,343.57,-159.73,-12.948,-179.846,2.96631,-144.888,528
1569676217,343.57,-159.73,-12.948,-179.846,2.96631,-144.888,528
1569676217,343.57,-159.73,-12.948,-179.846,2.96631,-144.888,528
1569676217,343.57,-159.73,-12.948,-179.846,2.96631,-144.888,528
1569676217,343.57,-159.73,-12.948,-179.846,2.96631,-144.888,528
1569676217,343.57,-159.73,-12.948,-179.846,2.96631,-144.888,528
1569676217,343.57,-159.73,-12.948,-179.846,2.96631,-144.888,528
1569676217,343.57,-159.73,-12.948,-179.824,2.96631,-144.888,528
1569676217,343.57,-159.73,-12.948,-179.824,2.96631,-144.888,528
1569676217,343.57,-159.73,-12.948,-179.824,2.96631,-144.888,528
1569676217,343.57,-159.73,-12.948,-179.824,2.94434,-144.888,528
1569676217,343.681,-159.73,-12.948,-179.824,2.94434,-144.888,528
1569676217,343.681,-159.73,-12.948,-179.824,2.94434,-144.888,528
1569676217,343.681,-159.73,-12.948,-179.824,2.94434,-144.888,528
1569676217,343.681,-159.73,-12.948,-179.824,2.94434,-144.888,528
1569676217,343.681,-159.73,-12.948,-179.824,2.94434,-144.888,528
1569676217,343.681,-159.73,-13.0597,-179.824,2.94434,-144.888,528
1569676217,343.681,-159.73,-13.0597,-179.824,2.94434,-144.888,528
1569676217,343.681,-159.73,-13.0597,-179.824,2.94434,-144.888,524
1569676217,343.681,-159.73,-13.0597,-179.824,2.94434,-144.888,524
1569676217,343.681,-159.73,-13.0597,-179.824,2.94434,-144.888,524
1569676217,343.681,-159.73,-13.0597,-179.824,2.92236,-144.888,524
1569676217,343.681,-159.73,-13.0597,-179.824,2.92236,-144.888,524
1569676217,343.681,-159.73,-13.0597,-179.824,2.92236,-144.888,524
1569676217,343.681,-159.73,-13.0597,-179.824,2.92236,-144.888,524
1569676217,343.681,-159.73,-13.0597,-179.824,2.92236,-144.888,524
1569676217,343.681,-159.73,-13.0597,-179.824,2.92236,-144.888,524
1569676217,343.681,-159.73,-13.0597,-179.824,2.92236,-144.888,524
1569676217,343.681,-159.73,-13.0597,-179.824,2.92236,-144.888,524
1569676217,343.681,-159.73,-13.0597,-179.824,2.92236,-144.888,524
1569676217,343.681,-159.73,-13.0597,-179.824,2.92236,-144.888,524
1569676217,343.681,-159.73,-13.0597,-179.824,2.92236,-144.866,524
1569676217,343.681,-159.73,-13.0597,-179.824,2.92236,-144.866,520
1569676217,343.681,-159.73,-12.948,-179.824,2.92236,-144.866,520
1569676217,343.681,-159.73,-12.948,-179.824,2.92236,-144.866,520
1569676217,343.681,-159.73,-12.948,-179.824,2.92236,-144.866,520
1569676217,343.681,-159.73,-12.948,-179.824,2.92236,-144.866,520
1569676217,343.681,-159.73,-12.948,-179.824,2.92236,-144.866,520
1569676217,343.681,-159.73,-12.948,-179.824,2.92236,-144.866,520
1569676217,343.681,-159.73,-12.948,-179.824,2.94434,-144.866,520
1569676217,343.681,-159.73,-12.948,-179.824,2.94434,-144.866,520
1569676217,343.681,-159.73,-12.948,-179.824,2.94434,-144.866,520
1569676217,343.681,-159.73,-12.948,-179.824,2.94434,-144.866,520
1569676217,343.681,-159.73,-12.948,-179.824,2.94434,-144.866,520
1569676217,343.681,-159.73,-12.948,-179.824,2.94434,-144.866,524
1569676217,343.681,-159.73,-12.948,-179.824,2.94434,-144.866,524
1569676217,343.681,-159.73,-12.948,-179.824,2.94434,-144.866,524
1569676217,343.681,-159.73,-12.948,-179.824,2.94434,-144.866,524
1569676217,343.681,-159.73,-12.948,-179.824,2.94434,-144.866,524
1569676217,343.681,-159.73,-12.948,-179.824,2.94434,-144.866,524
1569676217,343.681,-159.73,-12.948,-179.824,2.94434,-144.866,524
1569676217,343.681,-159.73,-12.948,-179.824,2.94434,-144.866,524
1569676217,343.681,-159.73,-12.948,-179.824,2.94434,-144.866,524
1569676217,343.681,-159.73,-12.948,-179.824,2.94434,-144.866,524
1569676217,343.681,-159.73,-12.948,-179.824,2.94434,-144.866,524
1569676217,343.681,-159.73,-12.948,-179.824,2.94434,-144.866,524
1569676217,343.681,-159.73,-12.948,-179.824,2.94434,-144.866,524
1569676217,343.681,-159.73,-12.948,-179.824,2.94434,-144.866,524
1569676218,343.681,-159.73,-12.948,-179.824,2.94434,-144.866,524
1569676218,343.681,-159.841,-12.948,-179.824,2.94434,-144.866,524
1569676218,343.681,-159.841,-12.948,-179.824,2.94434,-144.866,524
1569676218,343.681,-159.841,-12.948,-179.824,2.94434,-144.866,524
1569676218,343.681,-159.841,-12.948,-179.824,2.94434,-144.866,524
1569676218,343.681,-159.841,-12.948,-179.824,2.94434,-144.866,524
1569676218,343.681,-159.841,-12.948,-179.824,2.92236,-144.866,524
1569676218,343.681,-159.841,-12.948,-179.824,2.92236,-144.866,524
1569676218,343.681,-159.73,-12.948,-179.824,2.92236,-144.866,524
1569676218,343.681,-159.73,-13.0597,-179.824,2.92236,-144.866,524
1569676218,343.681,-159.73,-13.0597,-179.824,2.92236,-144.866,524
1569676218,343.681,-159.73,-13.0597,-179.824,2.92236,-144.866,524
1569676218,343.681,-159.73,-13.0597,-179.824,2.92236,-144.866,524
1569676218,343.681,-159.73,-13.0597,-179.824,2.92236,-144.866,524
1569676218,343.681,-159.73,-13.0597,-179.824,2.92236,-144.866,524
1569676218,343.681,-159.73,-13.0597,-179.824,2.92236,-144.866,524
1569676218,343.681,-159.73,-13.0597,-179.824,2.92236,-144.866,520
1569676218,343.681,-159.73,-13.0597,-179.824,2.92236,-144.866,520
1569676218,343.681,-159.73,-13.0597,-179.824,2.92236,-144.866,520
1569676218,343.681,-159.73,-13.0597,-179.824,2.92236,-144.866,520
1569676218,343.681,-159.73,-13.0597,-179.824,2.92236,-144.866,520
1569676218,343.681,-159.73,-13.0597,-179.824,2.92236,-144.888,520
1569676218,343.681,-159.73,-13.0597,-179.824,2.92236,-144.888,520
1569676218,343.681,-159.73,-13.0597,-179.824,2.92236,-144.888,516
1569676218,343.681,-159.73,-13.0597,-179.824,2.92236,-144.888,516
1569676218,343.681,-159.73,-13.0597,-179.824,2.92236,-144.888,516
1569676218,343.681,-159.73,-13.0597,-179.824,2.92236,-144.888,516
1569676218,343.57,-159.73,-13.0597,-179.824,2.92236,-144.888,512
1569676218,343.57,-159.73,-13.0597,-179.824,2.94434,-144.888,512
1569676218,343.57,-159.73,-13.0597,-179.824,2.94434,-144.888,512
1569676218,343.57,-159.73,-13.0597,-179.824,2.94434,-144.888,512
1569676218,343.57,-159.73,-12.948,-179.824,2.94434,-144.866,508
1569676218,343.57,-159.73,-12.948,-179.824,2.94434,-144.866,508
1569676218,343.57,-159.73,-12.948,-179.824,2.94434,-144.866,508
1569676218,343.57,-159.73,-12.948,-179.824,2.94434,-144.866,504
1569676218,343.57,-159.73,-12.948,-179.824,2.94434,-144.866,504
1569676218,343.57,-159.73,-12.948,-179.824,2.94434,-144.866,504
1569676218,343.681,-159.73,-12.948,-179.824,2.94434,-144.866,504
1569676218,343.681,-159.73,-12.948,-179.824,2.92236,-144.866,504
1569676218,343.681,-159.73,-12.948,-179.824,2.92236,-144.866,504
1569676218,343.681,-159.73,-13.0597,-179.824,2.92236,-144.866,504
1569676218,343.681,-159.73,-12.948,-179.824,2.92236,-144.866,504
1569676218,343.681,-159.73,-12.948,-179.824,2.92236,-144.866,504
1569676218,343.681,-159.73,-12.948,-179.824,2.92236,-144.866,504
1569676218,343.681,-159.73,-12.948,-179.824,2.92236,-144.866,504
1569676218,343.681,-159.73,-12.948,-179.824,2.92236,-144.866,504
1569676218,343.681,-159.73,-12.948,-179.824,2.94434,-144.866,504
1569676218,343.681,-159.73,-12.948,-179.824,2.94434,-144.866,504
1569676218,343.681,-159.73,-12.948,-179.824,2.94434,-144.866,504
1569676218,343.681,-159.73,-12.948,-179.824,2.94434,-144.866,504
1569676218,343.681,-159.73,-12.948,-179.802,2.94434,-144.866,504
1569676218,343.681,-159.73,-12.948,-179.802,2.94434,-144.866,508
1569676218,343.681,-159.73,-12.948,-179.802,2.94434,-144.866,508
1569676218,343.681,-159.618,-12.948,-179.802,2.94434,-144.866,508
1569676218,343.681,-159.618,-12.948,-179.802,2.94434,-144.866,508
1569676218,343.681,-159.618,-12.948,-179.802,2.94434,-144.866,508
1569676218,343.681,-159.618,-12.948,-179.802,2.94434,-144.866,512
1569676218,343.681,-159.618,-12.948,-179.802,2.94434,-144.866,512
1569676218,343.681,-159.618,-12.948,-179.802,2.94434,-144.866,512
1569676218,343.681,-159.618,-12.948,-179.802,2.94434,-144.866,512
1569676218,343.681,-159.618,-12.948,-179.802,2.94434,-144.866,512
1569676218,343.681,-159.73,-12.948,-179.802,2.94434,-144.866,516
1569676218,343.681,-159.73,-12.948,-179.802,2.96631,-144.866,516
1569676218,343.681,-159.73,-12.948,-179.802,2.96631,-144.866,516
1569676218,343.681,-159.73,-12.948,-179.802,2.96631,-144.866,516
1569676218,343.681,-159.73,-12.948,-179.802,2.96631,-144.866,516
1569676218,343.681,-159.73,-12.948,-179.802,2.96631,-144.866,516
1569676218,343.681,-159.73,-12.948,-179.802,2.96631,-144.866,516
1569676218,343.681,-159.618,-12.948,-179.802,2.96631,-144.866,516
1569676218,343.681,-159.618,-12.948,-179.802,2.96631,-144.866,516
1569676218,343.681,-159.618,-12.948,-179.802,2.96631,-144.866,516
1569676218,343.681,-159.618,-12.8364,-179.802,2.96631,-144.866,516
1569676218,343.681,-159.618,-12.8364,-179.802,2.98828,-144.866,516
1569676218,343.681,-159.618,-12.8364,-179.802,2.98828,-144.866,512
1569676218,343.681,-159.618,-12.8364,-179.802,2.98828,-144.866,512
1569676218,343.681,-159.618,-12.8364,-179.78,2.98828,-144.866,512
1569676218,343.681,-159.618,-12.8364,-179.78,2.98828,-144.866,512
1569676218,343.681,-159.618,-12.8364,-179.78,2.98828,-144.866,512
1569676218,343.681,-159.618,-12.8364,-179.78,2.98828,-144.866,516
1569676218,343.681,-159.618,-12.8364,-179.78,2.98828,-144.866,516
1569676218,343.681,-159.618,-12.8364,-179.78,2.98828,-144.866,516
1569676218,343.681,-159.618,-12.8364,-179.78,2.98828,-144.866,516
1569676218,343.681,-159.618,-12.8364,-179.78,2.98828,-144.866,516
1569676218,343.681,-159.618,-12.8364,-179.78,2.98828,-144.866,516
1569676218,343.681,-159.618,-12.8364,-179.78,2.98828,-144.866,516
1569676218,343.681,-159.618,-12.8364,-179.78,2.96631,-144.866,516
1569676218,343.681,-159.618,-12.8364,-179.78,2.96631,-144.866,516
1569676218,343.681,-159.618,-12.8364,-179.78,2.96631,-144.866,520
1569676218,343.681,-159.618,-12.8364,-179.78,2.96631,-144.866,520
1569676218,343.681,-159.618,-12.8364,-179.78,2.96631,-144.866,520
1569676218,343.681,-159.618,-12.8364,-179.78,2.96631,-144.866,520
1569676218,343.681,-159.618,-12.8364,-179.78,2.96631,-144.866,520
1569676218,343.681,-159.618,-12.8364,-179.78,2.96631,-144.866,516
1569676218,343.681,-159.618,-12.948,-179.78,2.96631,-144.866,516
1569676218,343.681,-159.618,-12.948,-179.78,2.96631,-144.866,516
1569676218,343.681,-159.618,-12.948,-179.78,2.96631,-144.866,516
1569676218,343.681,-159.618,-12.948,-179.78,2.96631,-144.866,516
1569676218,343.681,-159.618,-12.948,-179.802,2.96631,-144.866,516
1569676218,343.681,-159.618,-12.948,-179.802,2.96631,-144.866,512
1569676218,343.681,-159.618,-12.948,-179.802,2.96631,-144.866,512
1569676219,343.681,-159.73,-12.948,-179.802,2.96631,-144.866,512
1569676219,343.681,-159.73,-12.948,-179.802,2.96631,-144.866,512
1569676219,343.681,-159.73,-12.948,-179.802,2.96631,-144.866,512
1569676219,343.681,-159.73,-12.948,-179.802,2.96631,-144.866,512
1569676219,343.681,-159.73,-12.948,-179.802,2.96631,-144.866,512
1569676219,343.681,-159.73,-12.948,-179.802,2.96631,-144.866,512
1569676219,343.681,-159.618,-12.948,-179.802,2.96631,-144.866,512
1569676219,343.681,-159.618,-12.948,-179.802,2.96631,-144.866,512
1569676219,343.681,-159.618,-12.948,-179.802,2.96631,-144.888,516
1569676219,343.681,-159.618,-12.948,-179.802,2.96631,-144.888,516
1569676219,343.681,-159.618,-12.948,-179.802,2.96631,-144.888,516
1569676219,343.681,-159.618,-12.8364,-179.802,2.96631,-144.888,516
1569676219,343.681,-159.618,-12.8364,-179.78,2.96631,-144.888,516
1569676219,343.681,-159.618,-12.8364,-179.78,2.96631,-144.888,516
1569676219,343.681,-159.618,-12.8364,-179.78,2.96631,-144.888,516
1569676219,343.681,-159.618,-12.8364,-179.78,2.98828,-144.888,516
1569676219,343.681,-159.618,-12.8364,-179.78,2.98828,-144.888,516
1569676219,343.681,-159.618,-12.8364,-179.78,2.98828,-144.888,516
1569676219,343.681,-159.618,-12.8364,-179.78,2.96631,-144.888,516
1569676219,343.681,-159.618,-12.8364,-179.78,2.96631,-144.888,516
1569676219,343.681,-159.618,-12.8364,-179.78,2.96631,-144.888,516
1569676219,343.681,-159.618,-12.948,-179.78,2.96631,-144.888,516
1569676219,343.681,-159.618,-12.948,-179.78,2.96631,-144.888,516
1569676219,343.681,-159.507,-12.948,-179.78,2.96631,-144.888,520
1569676219,343.681,-159.507,-12.948,-179.78,2.96631,-144.888,520
1569676219,343.681,-159.507,-12.948,-179.78,2.96631,-144.888,520
1569676219,343.681,-159.507,-12.948,-179.78,2.96631,-144.888,520
1569676219,343.681,-159.507,-12.948,-179.78,2.96631,-144.888,520
1569676219,343.681,-159.618,-12.948,-179.78,2.94434,-144.888,520
1569676219,343.681,-159.618,-12.948,-179.78,2.94434,-144.888,520
1569676219,343.681,-159.618,-12.948,-179.78,2.94434,-144.888,520
1569676219,343.681,-159.618,-12.948,-179.78,2.94434,-144.866,520
1569676219,343.681,-159.618,-12.948,-179.78,2.94434,-144.866,520
1569676219,343.681,-159.618,-12.948,-179.78,2.94434,-144.866,520
1569676219,343.681,-159.618,-12.948,-179.78,2.94434,-144.866,520
1569676219,343.681,-159.618,-12.948,-179.78,2.94434,-144.866,520
1569676219,343.681,-159.618,-12.948,-179.78,2.92236,-144.866,520
1569676219,343.681,-159.618,-13.0597,-179.78,2.92236,-144.866,520
1569676219,343.681,-159.618,-13.0597,-179.78,2.92236,-144.866,520
1569676219,343.681,-159.618,-13.0597,-179.78,2.92236,-144.866,520
1569676219,343.681,-159.618,-13.0597,-179.78,2.92236,-144.866,520
1569676219,343.681,-159.618,-13.0597,-179.78,2.92236,-144.888,520
1569676219,343.681,-159.618,-13.0597,-179.78,2.92236,-144.888,520
1569676219,343.681,-159.618,-13.0597,-179.78,2.92236,-144.888,520
1569676219,343.681,-159.618,-13.0597,-179.78,2.92236,-144.888,520
1569676219,343.681,-159.618,-13.0597,-179.78,2.92236,-144.888,520
1569676219,343.681,-159.618,-13.0597,-179.78,2.92236,-144.888,520
1569676219,343.681,-159.618,-13.0597,-179.78,2.92236,-144.888,520
1569676219,343.681,-159.618,-13.0597,-179.78,2.92236,-144.888,524
1569676219,343.681,-159.618,-13.0597,-179.78,2.92236,-144.888,524
1569676219,343.681,-159.618,-12.948,-179.78,2.92236,-144.888,524
1569676219,343.681,-159.618,-12.948,-179.78,2.92236,-144.888,524
1569676219,343.681,-159.618,-12.948,-179.78,2.92236,-144.888,524
1569676219,343.681,-159.618,-12.948,-179.78,2.94434,-144.888,528
1569676219,343.681,-159.618,-12.948,-179.78,2.94434,-144.888,528
1569676219,343.681,-159.618,-12.948,-179.78,2.94434,-144.888,528
1569676219,343.681,-159.618,-12.948,-179.78,2.94434,-144.866,528
1569676219,343.681,-159.618,-12.948,-179.78,2.94434,-144.866,528
1569676219,343.681,-159.618,-12.948,-179.802,2.94434,-144.866,528
1569676219,343.681,-159.618,-12.948,-179.802,2.94434,-144.866,528
1569676219,343.681,-159.618,-12.948,-179.802,2.94434,-144.866,524
1569676219,343.681,-159.618,-12.948,-179.802,2.94434,-144.866,524
1569676219,343.681,-159.618,-12.948,-179.802,2.94434,-144.866,524
1569676219,343.681,-159.618,-12.948,-179.802,2.94434,-144.866,524
1569676219,343.681,-159.618,-12.948,-179.802,2.94434,-144.866,524
1569676219,343.681,-159.618,-12.948,-179.802,2.94434,-144.888,520
1569676219,343.681,-159.618,-12.948,-179.802,2.94434,-144.888,520
1569676219,343.681,-159.618,-12.948,-179.802,2.94434,-144.888,520
1569676219,343.681,-159.618,-12.948,-179.802,2.94434,-144.888,520
1569676219,343.681,-159.618,-12.948,-179.802,2.94434,-144.888,516
1569676219,343.681,-159.618,-12.948,-179.802,2.94434,-144.888,516
1569676219,343.681,-159.618,-12.948,-179.802,2.94434,-144.888,516
1569676219,343.681,-159.618,-12.948,-179.802,2.94434,-144.888,516
1569676219,343.681,-159.618,-13.0597,-179.802,2.94434,-144.888,516
1569676219,343.57,-159.618,-13.0597,-179.802,2.94434,-144.888,516
1569676219,343.57,-159.618,-12.948,-179.802,2.94434,-144.888,516
1569676219,343.57,-159.618,-12.948,-179.802,2.94434,-144.888,516
1569676219,343.57,-159.618,-13.0597,-179.802,2.94434,-144.888,516
1569676219,343.57,-159.618,-13.0597,-179.802,2.94434,-144.888,516
1569676219,343.57,-159.618,-13.0597,-179.802,2.94434,-144.888,516
1569676219,343.57,-159.618,-13.0597,-179.802,2.94434,-144.888,516
1569676219,343.57,-159.618,-13.0597,-179.802,2.94434,-144.888,516
1569676219,343.57,-159.618,-12.948,-179.802,2.94434,-144.888,516
1569676219,343.681,-159.618,-12.948,-179.802,2.94434,-144.888,516
1569676219,343.681,-159.618,-12.948,-179.802,2.96631,-144.888,516
1569676219,343.681,-159.618,-12.948,-179.802,2.96631,-144.888,516
1569676219,343.681,-159.618,-12.948,-179.802,2.96631,-144.888,516
1569676219,343.681,-159.73,-12.948,-179.802,2.96631,-144.888,516
1569676219,343.681,-159.73,-12.948,-179.802,2.96631,-144.888,516
1569676219,343.681,-159.73,-12.948,-179.802,2.96631,-144.888,516
1569676219,343.681,-159.73,-12.948,-179.802,2.96631,-144.888,516
1569676219,343.681,-159.73,-12.948,-179.802,2.96631,-144.888,516
1569676219,343.681,-159.73,-12.948,-179.802,2.96631,-144.888,516
1569676219,343.681,-159.73,-12.948,-179.802,2.96631,-144.888,516
1569676219,343.681,-159.73,-12.948,-179.802,2.96631,-144.866,516
1569676219,343.681,-159.73,-12.948,-179.802,2.96631,-144.866,512
1569676219,343.681,-159.73,-12.948,-179.802,2.96631,-144.866,512
1569676219,343.681,-159.73,-12.948,-179.802,2.96631,-144.866,512
1569676219,343.681,-159.73,-12.948,-179.802,2.98828,-144.866,512
1569676219,343.681,-159.73,-12.948,-179.802,2.96631,-144.866,512
1569676220,343.681,-159.73,-12.948,-179.802,2.96631,-144.866,512
1569676220,343.681,-159.73,-12.948,-179.802,2.96631,-144.866,512
1569676220,343.681,-159.73,-12.948,-179.802,2.96631,-144.866,512
1569676220,343.681,-159.73,-12.948,-179.802,2.96631,-144.866,512
1569676220,343.681,-159.618,-12.948,-179.802,2.96631,-144.866,512
1569676220,343.681,-159.618,-12.948,-179.78,2.96631,-144.866,512
1569676220,343.681,-159.618,-12.948,-179.78,2.96631,-144.866,512
1569676220,343.681,-159.618,-12.948,-179.78,2.96631,-144.866,512
1569676220,343.681,-159.618,-12.948,-179.78,2.96631,-144.866,512
1569676220,343.681,-159.618,-12.948,-179.78,2.96631,-144.888,512
1569676220,343.681,-159.618,-12.8364,-179.78,2.98828,-144.888,512
1569676220,343.681,-159.618,-12.8364,-179.758,2.98828,-144.888,516
1569676220,343.681,-159.618,-12.8364,-179.758,2.98828,-144.888,516
1569676220,343.681,-159.618,-12.8364,-179.758,2.98828,-144.888,516
1569676220,343.681,-159.618,-12.8364,-179.758,2.98828,-144.888,516
1569676220,343.681,-159.618,-12.8364,-179.78,2.98828,-144.888,516
1569676220,343.681,-159.618,-12.8364,-179.78,2.98828,-144.888,516
1569676220,343.681,-159.618,-12.8364,-179.78,2.98828,-144.888,516
1569676220,343.681,-159.618,-12.8364,-179.78,2.98828,-144.888,516
1569676220,343.681,-159.618,-12.8364,-179.78,2.98828,-144.888,516
1569676220,343.681,-159.618,-12.8364,-179.802,2.96631,-144.866,516
1569676220,343.681,-159.618,-12.8364,-179.802,2.96631,-144.866,516
1569676220,343.681,-159.618,-12.8364,-179.802,2.96631,-144.866,516
1569676220,343.681,-159.73,-12.948,-179.802,2.96631,-144.866,516
1569676220,343.681,-159.73,-12.948,-179.824,2.96631,-144.866,516
1569676220,343.681,-159.73,-12.948,-179.824,2.96631,-144.866,516
1569676220,343.681,-159.73,-12.948,-179.824,2.96631,-144.866,516
1569676220,343.681,-159.73,-12.948,-179.824,2.96631,-144.866,516
1569676220,343.681,-159.73,-12.948,-179.824,2.96631,-144.866,516
1569676220,343.681,-159.73,-12.948,-179.824,2.94434,-144.866,516
1569676220,343.681,-159.73,-12.948,-179.824,2.94434,-144.866,516
1569676220,343.681,-159.73,-12.948,-179.824,2.94434,-144.866,516
1569676220,343.681,-159.73,-12.948,-179.824,2.94434,-144.866,516
1569676220,343.681,-159.73,-12.948,-179.824,2.94434,-144.866,516
1569676220,343.57,-159.73,-12.948,-179.824,2.94434,-144.866,516
1569676220,343.57,-159.73,-12.948,-179.824,2.94434,-144.866,516
1569676220,343.57,-159.73,-12.948,-179.824,2.94434,-144.866,516
1569676220,343.57,-159.73,-12.948,-179.824,2.94434,-144.866,516
1569676220,343.57,-159.73,-12.948,-179.824,2.94434,-144.866,516
1569676220,343.57,-159.73,-12.948,-179.824,2.94434,-144.866,516
1569676220,343.57,-159.73,-12.948,-179.824,2.94434,-144.866,516
1569676220,343.57,-159.73,-12.948,-179.824,2.94434,-144.866,516
1569676220,343.57,-159.73,-12.948,-179.824,2.94434,-144.866,516
1569676220,343.57,-159.73,-12.948,-179.824,2.94434,-144.866,516
1569676220,343.681,-159.73,-12.948,-179.824,2.94434,-144.866,516
1569676220,343.681,-159.73,-12.948,-179.824,2.94434,-144.866,516
1569676220,343.681,-159.73,-12.948,-179.824,2.94434,-144.866,516
1569676220,343.681,-159.73,-12.948,-179.824,2.94434,-144.866,516
1569676220,343.681,-159.73,-12.948,-179.824,2.94434,-144.866,516
1569676220,343.681,-159.73,-12.948,-179.824,2.94434,-144.866,516
1569676220,343.681,-159.73,-12.948,-179.824,2.96631,-144.866,516
1569676220,343.681,-159.73,-12.948,-179.824,2.96631,-144.866,516
1569676220,343.681,-159.73,-12.948,-179.802,2.96631,-144.866,516
1569676220,343.681,-159.73,-12.8364,-179.802,2.96631,-144.866,516
1569676220,343.681,-159.73,-12.8364,-179.802,2.96631,-144.866,516
1569676220,343.681,-159.73,-12.8364,-179.802,2.96631,-144.866,516
1569676220,343.681,-159.73,-12.8364,-179.802,2.96631,-144.866,516
1569676220,343.681,-159.73,-12.8364,-179.802,2.96631,-144.866,516
1569676220,343.681,-159.618,-12.8364,-179.802,2.96631,-144.866,520
1569676220,343.681,-159.618,-12.948,-179.802,2.96631,-144.866,520
1569676220,343.681,-159.618,-12.948,-179.802,2.96631,-144.866,520
1569676220,343.681,-159.618,-12.948,-179.802,2.96631,-144.866,520
1569676220,343.681,-159.618,-12.948,-179.802,2.94434,-144.866,520
1569676220,343.681,-159.618,-12.948,-179.802,2.94434,-144.866,520
1569676220,343.681,-159.618,-12.948,-179.802,2.94434,-144.888,520
1569676220,343.681,-159.618,-12.948,-179.802,2.94434,-144.888,520
1569676220,343.681,-159.618,-12.948,-179.802,2.94434,-144.888,520
1569676220,343.681,-159.618,-12.948,-179.802,2.94434,-144.888,520
1569676220,343.681,-159.618,-12.948,-179.802,2.94434,-144.888,520
1569676220,343.681,-159.618,-12.948,-179.802,2.94434,-144.888,524
1569676220,343.681,-159.618,-12.948,-179.802,2.94434,-144.888,524
1569676220,343.681,-159.618,-12.948,-179.802,2.94434,-144.888,524
1569676220,343.57,-159.618,-12.948,-179.802,2.94434,-144.888,524
1569676220,343.57,-159.618,-12.948,-179.802,2.94434,-144.888,524
1569676220,343.57,-159.618,-12.948,-179.802,2.94434,-144.888,528
1569676220,343.57,-159.618,-12.948,-179.824,2.96631,-144.888,528
1569676220,343.57,-159.618,-12.948,-179.824,2.96631,-144.888,528
1569676220,343.57,-159.618,-12.948,-179.824,2.96631,-144.888,528
1569676220,343.57,-159.618,-12.948,-179.824,2.94434,-144.888,532
1569676220,343.57,-159.618,-12.948,-179.824,2.94434,-144.888,532
1569676220,343.57,-159.618,-12.948,-179.824,2.94434,-144.888,532
1569676220,343.57,-159.618,-12.948,-179.824,2.94434,-144.888,532
1569676220,343.57,-159.618,-12.948,-179.824,2.94434,-144.888,532
1569676220,343.57,-159.618,-12.948,-179.824,2.94434,-144.888,536
1569676220,343.57,-159.618,-12.948,-179.824,2.94434,-144.888,536
1569676220,343.57,-159.618,-12.948,-179.824,2.94434,-144.888,536
1569676220,343.57,-159.618,-12.948,-179.824,2.94434,-144.888,536
1569676220,343.57,-159.618,-12.948,-179.802,2.94434,-144.888,536
1569676220,343.57,-159.618,-12.948,-179.802,2.94434,-144.888,536
1569676220,343.57,-159.618,-12.948,-179.802,2.94434,-144.888,536
1569676220,343.57,-159.618,-12.948,-179.802,2.94434,-144.888,536
1569676220,343.57,-159.618,-12.948,-179.802,2.94434,-144.888,536
1569676220,343.57,-159.618,-12.948,-179.802,2.94434,-144.888,536
1569676220,343.57,-159.618,-12.948,-179.802,2.94434,-144.888,536
1569676220,343.57,-159.618,-12.948,-179.802,2.94434,-144.888,536
1569676220,343.57,-159.618,-12.948,-179.802,2.94434,-144.888,536
1569676220,343.57,-159.618,-12.948,-179.802,2.94434,-144.888,536
1569676220,343.57,-159.618,-12.948,-179.802,2.94434,-144.888,536
1569676220,343.57,-159.618,-12.948,-179.802,2.94434,-144.888,536
1569676220,343.57,-159.618,-12.948,-179.802,2.94434,-144.888,536
1569676221,343.681,-159.618,-12.948,-179.78,2.94434,-144.888,536
1569676221,343.681,-159.618,-12.948,-179.802,2.94434,-144.888,536
1569676221,343.681,-159.618,-12.948,-179.802,2.94434,-144.888,536
1569676221,343.681,-159.618,-12.948,-179.802,2.94434,-144.888,536
1569676221,343.681,-159.618,-12.948,-179.802,2.94434,-144.888,536
1569676221,343.681,-159.618,-12.948,-179.802,2.94434,-144.888,532
1569676221,343.681,-159.618,-12.948,-179.802,2.94434,-144.888,532
1569676221,343.681,-159.618,-13.0597,-179.802,2.94434,-144.888,532
1569676221,343.681,-159.73,-13.0597,-179.802,2.92236,-144.888,532
1569676221,343.681,-159.73,-13.0597,-179.802,2.92236,-144.888,532
1569676221,343.681,-159.73,-13.0597,-179.802,2.92236,-144.888,532
1569676221,343.681,-159.73,-13.0597,-179.802,2.92236,-144.888,532
1569676221,343.681,-159.73,-13.0597,-179.802,2.92236,-144.888,532
1569676221,343.681,-159.73,-13.0597,-179.802,2.92236,-144.888,532
1569676221,343.681,-159.73,-13.0597,-179.802,2.92236,-144.888,532
1569676221,343.681,-159.73,-13.0597,-179.802,2.92236,-144.888,528
1569676221,343.681,-159.73,-13.0597,-179.802,2.92236,-144.888,528
1569676221,343.681,-159.73,-13.0597,-179.802,2.92236,-144.888,528
1569676221,343.57,-159.73,-13.0597,-179.802,2.92236,-144.888,528
1569676221,343.57,-159.73,-13.0597,-179.824,2.92236,-144.888,532
1569676221,343.57,-159.73,-13.0597,-179.824,2.92236,-144.888,532
1569676221,343.57,-159.73,-13.0597,-179.824,2.92236,-144.888,532
1569676221,343.57,-159.73,-13.0597,-179.824,2.92236,-144.888,532
1569676221,343.57,-159.73,-13.0597,-179.824,2.92236,-144.888,532
1569676221,343.57,-159.73,-13.0597,-179.824,2.92236,-144.888,532
1569676221,343.57,-159.73,-13.0597,-179.824,2.92236,-144.888,532
1569676221,343.57,-159.73,-13.0597,-179.824,2.92236,-144.888,532
1569676225,320.353,-135.954,-13.7294,-179.956,2.76855,-144.756,488
1569676225,320.353,-135.954,-13.7294,-179.956,2.76855,-144.756,488
1569676225,320.353,-135.954,-13.7294,-179.956,2.76855,-144.756,488
1569676225,320.353,-135.954,-13.7294,-179.956,2.76855,-144.756,488
1569676225,320.353,-135.954,-13.7294,-179.956,2.76855,-144.756,488
1569676225,320.353,-135.954,-13.7294,-179.956,2.76855,-144.756,488
1569676225,320.353,-135.954,-13.7294,-179.934,2.76855,-144.756,488
1569676225,320.353,-135.954,-13.7294,-179.934,2.76855,-144.756,488
1569676225,320.353,-135.954,-13.7294,-179.934,2.76855,-144.756,488
1569676225,320.353,-135.954,-13.7294,-179.934,2.76855,-144.756,488
1569676225,320.353,-135.843,-13.7294,-179.934,2.76855,-144.756,488
1569676225,320.353,-135.843,-13.7294,-179.934,2.76855,-144.756,488
1569676225,320.353,-135.843,-13.7294,-179.934,2.76855,-144.756,488
1569676225,320.353,-135.843,-13.7294,-179.934,2.76855,-144.756,488
1569676225,320.353,-135.843,-13.7294,-179.934,2.76855,-144.756,488
1569676225,320.353,-135.843,-13.7294,-179.934,2.76855,-144.756,488
1569676225,320.353,-135.843,-13.7294,-179.934,2.76855,-144.756,488
1569676225,320.353,-135.843,-13.7294,-179.934,2.76855,-144.756,488
1569676225,320.353,-135.843,-13.7294,-179.934,2.76855,-144.756,492
1569676225,320.353,-135.954,-13.7294,-179.934,2.74658,-144.756,492
1569676226,320.353,-135.954,-13.7294,-179.934,2.74658,-144.756,492
1569676226,320.353,-135.954,-13.7294,-179.956,2.74658,-144.756,492
1569676226,320.353,-135.954,-13.7294,-179.956,2.74658,-144.756,492
1569676226,320.353,-135.954,-13.7294,-179.956,2.74658,-144.756,492
1569676226,320.353,-135.954,-13.7294,-179.956,2.74658,-144.756,492
1569676226,320.353,-135.843,-13.7294,-179.956,2.74658,-144.756,492
1569676226,320.353,-135.843,-13.7294,-179.934,2.74658,-144.756,496
1569676226,320.353,-135.843,-13.7294,-179.934,2.74658,-144.756,496
1569676226,320.353,-135.843,-13.7294,-179.934,2.74658,-144.756,496
1569676226,320.353,-135.843,-13.7294,-179.934,2.74658,-144.756,492
1569676226,320.353,-135.843,-13.7294,-179.934,2.74658,-144.756,492
1569676226,320.353,-135.843,-13.7294,-179.934,2.74658,-144.756,492
1569676226,320.353,-135.843,-13.7294,-179.934,2.74658,-144.756,492
1569676226,320.353,-135.843,-13.7294,-179.934,2.76855,-144.756,492
1569676226,320.353,-135.843,-13.7294,-179.934,2.76855,-144.756,492
1569676226,320.353,-135.843,-13.7294,-179.934,2.76855,-144.756,488
1569676226,320.353,-135.843,-13.7294,-179.934,2.76855,-144.756,488
1569676226,320.353,-135.843,-13.7294,-179.934,2.76855,-144.756,488
1569676226,320.353,-135.843,-13.7294,-179.934,2.76855,-144.756,488
1569676226,320.353,-135.843,-13.7294,-179.934,2.76855,-144.756,488
1569676226,320.353,-135.843,-13.7294,-179.934,2.76855,-144.756,488
1569676226,320.353,-135.843,-13.7294,-179.934,2.79053,-144.756,488
1569676226,320.353,-135.843,-13.7294,-179.912,2.79053,-144.756,488
1569676226,320.353,-135.843,-13.7294,-179.912,2.79053,-144.756,488
1569676226,320.353,-135.843,-13.7294,-179.912,2.79053,-144.756,488
1569676226,320.353,-135.843,-13.7294,-179.912,2.79053,-144.756,488
1569676226,320.353,-135.843,-13.6178,-179.912,2.79053,-144.756,488
1569676226,320.353,-135.843,-13.6178,-179.912,2.79053,-144.756,488
1569676226,320.353,-135.843,-13.6178,-179.912,2.79053,-144.756,488
1569676226,320.353,-135.843,-13.6178,-179.912,2.79053,-144.756,488
1569676226,320.353,-135.843,-13.6178,-179.912,2.79053,-144.756,484
1569676226,320.353,-135.843,-13.6178,-179.912,2.79053,-144.756,484
1569676226,320.353,-135.843,-13.6178,-179.912,2.79053,-144.756,484
1569676226,320.353,-135.843,-13.6178,-179.912,2.79053,-144.756,484
1569676226,320.353,-135.843,-13.6178,-179.912,2.79053,-144.756,484
1569676226,320.353,-135.843,-13.6178,-179.912,2.79053,-144.756,484
1569676226,320.353,-135.843,-13.6178,-179.912,2.79053,-144.756,484
1569676226,320.353,-135.843,-13.6178,-179.912,2.79053,-144.756,484
1569676226,320.353,-135.843,-13.6178,-179.912,2.8125,-144.756,484
1569676226,320.353,-135.843,-13.6178,-179.912,2.8125,-144.756,484
1569676226,320.353,-135.843,-13.6178,-179.912,2.8125,-144.756,484
1569676226,320.353,-135.843,-13.6178,-179.912,2.8125,-144.756,484
1569676226,320.353,-135.843,-13.6178,-179.912,2.8125,-144.756,480
1569676226,320.353,-135.843,-13.6178,-179.912,2.8125,-144.756,480
1569676226,320.353,-135.843,-13.6178,-179.934,2.8125,-144.756,480
1569676226,320.353,-135.843,-13.6178,-179.934,2.8125,-144.756,480
1569676226,320.353,-135.843,-13.6178,-179.934,2.8125,-144.756,480
1569676226,320.353,-135.843,-13.6178,-179.934,2.8125,-144.756,476
1569676226,320.353,-135.843,-13.6178,-179.934,2.8125,-144.756,476
1569676226,320.353,-135.843,-13.6178,-179.934,2.79053,-144.756,476
1569676226,320.353,-135.843,-13.6178,-179.934,2.79053,-144.756,476
1569676226,320.353,-135.843,-13.7294,-179.934,2.79053,-144.756,476
1569676226,320.353,-135.843,-13.7294,-179.912,2.79053,-144.756,472
1569676226,320.353,-135.843,-13.7294,-179.912,2.79053,-144.756,472
1569676226,320.353,-135.843,-13.7294,-179.912,2.79053,-144.756,472
1569676226,320.353,-135.843,-13.7294,-179.912,2.79053,-144.756,472
1569676226,320.353,-135.843,-13.7294,-179.912,2.79053,-144.756,472
1569676226,320.353,-135.843,-13.7294,-179.912,2.79053,-144.778,472
1569676226,320.353,-135.843,-13.7294,-179.912,2.79053,-144.778,472
1569676226,320.353,-135.843,-13.7294,-179.912,2.76855,-144.778,472
1569676226,320.353,-135.843,-13.7294,-179.912,2.76855,-144.778,472
1569676226,320.353,-135.843,-13.7294,-179.912,2.76855,-144.778,468
1569676226,320.353,-135.843,-13.7294,-179.912,2.76855,-144.778,468
1569676226,320.353,-135.843,-13.7294,-179.912,2.76855,-144.778,468
1569676226,320.353,-135.843,-13.7294,-179.912,2.76855,-144.778,468
1569676226,320.353,-135.843,-13.7294,-179.912,2.76855,-144.778,468
1569676226,320.353,-135.843,-13.7294,-179.912,2.76855,-144.778,468
1569676226,320.353,-135.843,-13.7294,-179.912,2.76855,-144.778,468
1569676226,320.353,-135.843,-13.7294,-179.912,2.76855,-144.778,468
1569676226,320.353,-135.731,-13.7294,-179.912,2.76855,-144.778,468
1569676226,320.353,-135.731,-13.7294,-179.912,2.76855,-144.778,468
1569676226,320.353,-135.731,-13.7294,-179.912,2.76855,-144.778,468
1569676226,320.353,-135.731,-13.7294,-179.912,2.76855,-144.756,468
1569676226,320.353,-135.731,-13.7294,-179.912,2.76855,-144.756,468
1569676226,320.353,-135.731,-13.7294,-179.912,2.76855,-144.756,468
1569676226,320.353,-135.731,-13.7294,-179.912,2.74658,-144.778,472
1569676226,320.353,-135.731,-13.7294,-179.912,2.74658,-144.778,472
1569676226,320.353,-135.731,-13.7294,-179.912,2.74658,-144.778,472
1569676226,320.353,-135.731,-13.7294,-179.912,2.74658,-144.778,472
1569676226,320.353,-135.731,-13.7294,-179.912,2.74658,-144.778,476
1569676226,320.353,-135.731,-13.7294,-179.912,2.74658,-144.778,476
1569676226,320.353,-135.731,-13.7294,-179.912,2.74658,-144.778,476
1569676226,320.353,-135.731,-13.7294,-179.912,2.74658,-144.778,480
1569676226,320.353,-135.843,-13.7294,-179.934,2.76855,-144.778,480
1569676226,320.353,-135.843,-13.7294,-179.934,2.76855,-144.778,480
1569676226,320.353,-135.843,-13.7294,-179.934,2.76855,-144.778,484
1569676226,320.353,-135.843,-13.7294,-179.934,2.76855,-144.756,484
1569676226,320.353,-135.843,-13.7294,-179.934,2.76855,-144.756,484
1569676226,320.353,-135.843,-13.7294,-179.934,2.76855,-144.756,484
1569676226,320.353,-135.843,-13.7294,-179.934,2.76855,-144.756,484
1569676226,320.353,-135.843,-13.7294,-179.934,2.76855,-144.756,484
1569676226,320.353,-135.843,-13.7294,-179.934,2.76855,-144.756,484
1569676226,320.353,-135.843,-13.7294,-179.934,2.76855,-144.756,488
1569676226,320.353,-135.843,-13.7294,-179.934,2.76855,-144.756,488
1569676226,320.353,-135.843,-13.7294,-179.934,2.76855,-144.756,488
1569676226,320.353,-135.843,-13.7294,-179.934,2.76855,-144.756,488
1569676226,320.353,-135.843,-13.7294,-179.934,2.76855,-144.756,488
1569676226,320.353,-135.843,-13.7294,-179.934,2.76855,-144.756,488
1569676226,320.353,-135.843,-13.7294,-179.912,2.76855,-144.756,488
1569676226,320.353,-135.843,-13.7294,-179.912,2.76855,-144.756,488
1569676227,320.353,-135.843,-13.7294,-179.912,2.79053,-144.756,488
1569676227,320.353,-135.843,-13.7294,-179.912,2.79053,-144.756,488
1569676227,320.353,-135.843,-13.7294,-179.912,2.79053,-144.756,488
1569676227,320.464,-135.843,-13.7294,-179.912,2.79053,-144.756,488
1569676227,320.464,-135.843,-13.7294,-179.912,2.79053,-144.756,488
1569676227,320.464,-135.843,-13.7294,-179.912,2.79053,-144.756,484
1569676227,320.464,-135.843,-13.7294,-179.912,2.79053,-144.756,484
1569676227,320.464,-135.731,-13.6178,-179.912,2.79053,-144.756,484
1569676227,320.353,-135.731,-13.6178,-179.912,2.79053,-144.756,484
1569676227,320.353,-135.731,-13.6178,-179.912,2.79053,-144.756,484
1569676227,320.353,-135.731,-13.6178,-179.912,2.79053,-144.756,484
1569676227,320.353,-135.731,-13.7294,-179.912,2.79053,-144.756,484
1569676227,320.353,-135.731,-13.7294,-179.912,2.79053,-144.756,484
1569676227,320.353,-135.843,-13.7294,-179.912,2.79053,-144.756,484
1569676227,320.353,-135.843,-13.7294,-179.912,2.76855,-144.756,484
1569676227,320.353,-135.843,-13.7294,-179.912,2.76855,-144.756,484
1569676227,320.353,-135.843,-13.7294,-179.912,2.76855,-144.756,484
1569676227,320.353,-135.843,-13.7294,-179.912,2.76855,-144.756,484
1569676227,320.353,-135.843,-13.7294,-179.912,2.76855,-144.756,484
1569676227,320.353,-135.843,-13.7294,-179.912,2.76855,-144.756,484
1569676227,320.353,-135.731,-13.7294,-179.912,2.76855,-144.756,484
1569676227,320.353,-135.731,-13.7294,-179.912,2.76855,-144.756,484
1569676227,320.353,-135.731,-13.7294,-179.912,2.76855,-144.756,484
1569676227,320.353,-135.731,-13.7294,-179.912,2.76855,-144.756,484
1569676227,320.353,-135.731,-13.7294,-179.912,2.76855,-144.756,488
1569676227,320.353,-135.731,-13.7294,-179.912,2.76855,-144.756,488
1569676227,320.353,-135.731,-13.7294,-179.912,2.76855,-144.756,488
1569676227,320.353,-135.731,-13.7294,-179.912,2.79053,-144.756,488
1569676227,320.353,-135.731,-13.7294,-179.912,2.79053,-144.756,488
1569676227,320.353,-135.731,-13.7294,-179.912,2.79053,-144.756,488
1569676227,320.353,-135.731,-13.7294,-179.89,2.79053,-144.756,488
1569676227,320.353,-135.731,-13.7294,-179.89,2.79053,-144.756,488
1569676227,320.353,-135.731,-13.7294,-179.89,2.79053,-144.756,488
1569676227,320.353,-135.731,-13.7294,-179.89,2.79053,-144.756,492
1569676227,320.353,-135.731,-13.7294,-179.89,2.79053,-144.756,492
1569676227,320.353,-135.731,-13.7294,-179.89,2.76855,-144.756,492
1569676227,320.353,-135.731,-13.7294,-179.89,2.76855,-144.756,492
1569676227,320.353,-135.731,-13.7294,-179.89,2.76855,-144.756,488
1569676227,320.353,-135.731,-13.7294,-179.89,2.76855,-144.756,488
1569676227,320.353,-135.731,-13.7294,-179.89,2.76855,-144.756,488
1569676227,320.353,-135.731,-13.7294,-179.89,2.76855,-144.756,488
1569676227,320.353,-135.731,-13.7294,-179.912,2.76855,-144.756,488
1569676227,320.353,-135.731,-13.7294,-179.912,2.76855,-144.756,488
1569676227,320.353,-135.731,-13.7294,-179.912,2.76855,-144.756,488
1569676227,320.353,-135.731,-13.7294,-179.912,2.76855,-144.756,488
1569676227,320.353,-135.731,-13.7294,-179.912,2.76855,-144.756,488
1569676227,320.353,-135.731,-13.7294,-179.912,2.76855,-144.778,488
1569676227,320.353,-135.731,-13.7294,-179.912,2.76855,-144.778,488
1569676227,320.353,-135.731,-13.7294,-179.912,2.76855,-144.778,488
1569676227,320.353,-135.731,-13.7294,-179.912,2.76855,-144.778,488
1569676227,320.353,-135.731,-13.7294,-179.912,2.76855,-144.778,488
1569676227,320.353,-135.731,-13.7294,-179.912,2.76855,-144.778,488
1569676227,320.353,-135.731,-13.7294,-179.912,2.79053,-144.778,492
1569676227,320.353,-135.731,-13.7294,-179.912,2.79053,-144.778,492
1569676227,320.353,-135.731,-13.6178,-179.912,2.79053,-144.778,492
1569676227,320.353,-135.731,-13.6178,-179.912,2.79053,-144.778,492
1569676227,320.464,-135.731,-13.6178,-179.912,2.79053,-144.778,492
1569676227,320.464,-135.731,-13.6178,-179.912,2.79053,-144.778,492
1569676227,320.464,-135.731,-13.6178,-179.912,2.79053,-144.778,492
1569676227,320.464,-135.731,-13.6178,-179.912,2.79053,-144.778,492
1569676227,320.464,-135.731,-13.6178,-179.912,2.79053,-144.778,492
1569676227,320.464,-135.843,-13.6178,-179.912,2.79053,-144.778,492
1569676227,320.464,-135.843,-13.6178,-179.912,2.79053,-144.778,492
1569676227,320.464,-135.843,-13.6178,-179.912,2.79053,-144.778,492
1569676227,320.464,-135.843,-13.7294,-179.912,2.79053,-144.778,492
1569676227,320.464,-135.843,-13.7294,-179.912,2.79053,-144.778,492
1569676227,320.464,-135.843,-13.7294,-179.912,2.79053,-144.778,492
1569676227,320.464,-135.843,-13.7294,-179.912,2.79053,-144.778,492
1569676227,320.464,-135.843,-13.7294,-179.912,2.79053,-144.778,492
1569676227,320.464,-135.843,-13.7294,-179.912,2.76855,-144.778,492
1569676227,320.464,-135.843,-13.7294,-179.912,2.76855,-144.778,492
1569676227,320.464,-135.843,-13.7294,-179.912,2.76855,-144.778,492
1569676227,320.464,-135.843,-13.7294,-179.912,2.76855,-144.778,492
1569676227,320.464,-135.843,-13.7294,-179.912,2.76855,-144.778,492
1569676227,320.464,-135.843,-13.7294,-179.912,2.76855,-144.778,492
1569676227,320.464,-135.843,-13.7294,-179.912,2.76855,-144.778,496
1569676227,320.464,-135.843,-13.7294,-179.912,2.76855,-144.778,496
1569676227,320.464,-135.843,-13.7294,-179.912,2.76855,-144.778,496
1569676227,320.464,-135.843,-13.7294,-179.912,2.76855,-144.778,496
1569676227,320.464,-135.843,-13.7294,-179.912,2.76855,-144.778,496
1569676227,320.464,-135.843,-13.7294,-179.912,2.79053,-144.778,496
1569676227,320.464,-135.843,-13.7294,-179.912,2.79053,-144.778,496
1569676227,320.464,-135.843,-13.7294,-179.912,2.79053,-144.778,496
1569676227,320.464,-135.843,-13.7294,-179.912,2.79053,-144.778,496
1569676227,320.464,-135.843,-13.7294,-179.912,2.79053,-144.778,496
1569676227,320.464,-135.843,-13.7294,-179.912,2.79053,-144.778,496
1569676227,320.464,-135.843,-13.7294,-179.912,2.79053,-144.778,496
1569676227,320.464,-135.843,-13.6178,-179.912,2.79053,-144.778,496
1569676227,320.464,-135.843,-13.6178,-179.912,2.79053,-144.778,496
1569676227,320.464,-135.843,-13.6178,-179.912,2.79053,-144.778,496
1569676227,320.464,-135.843,-13.6178,-179.912,2.79053,-144.778,496
1569676227,320.464,-135.843,-13.6178,-179.912,2.79053,-144.778,496
1569676227,320.464,-135.843,-13.7294,-179.912,2.79053,-144.778,496
1569676227,320.464,-135.843,-13.7294,-179.912,2.79053,-144.778,496
1569676227,320.464,-135.843,-13.7294,-179.912,2.79053,-144.778,496
1569676227,320.464,-135.843,-13.7294,-179.912,2.79053,-144.778,496
1569676227,320.353,-135.843,-13.7294,-179.912,2.79053,-144.778,496
1569676227,320.353,-135.843,-13.7294,-179.912,2.76855,-144.778,496
1569676227,320.353,-135.843,-13.7294,-179.912,2.76855,-144.756,496
1569676227,320.353,-135.843,-13.7294,-179.934,2.76855,-144.756,496
1569676228,320.353,-135.843,-13.7294,-179.934,2.76855,-144.756,496
1569676228,320.353,-135.843,-13.7294,-179.934,2.76855,-144.756,496
1569676228,320.353,-135.843,-13.7294,-179.934,2.76855,-144.756,492
1569676228,320.353,-135.843,-13.7294,-179.934,2.76855,-144.756,492
1569676228,320.353,-135.843,-13.7294,-179.934,2.76855,-144.756,492
1569676228,320.353,-135.843,-13.7294,-179.934,2.76855,-144.756,492
1569676228,320.353,-135.843,-13.7294,-179.934,2.76855,-144.756,492
1569676228,320.353,-135.843,-13.7294,-179.934,2.76855,-144.756,492
1569676228,320.353,-135.843,-13.7294,-179.934,2.76855,-144.756,492
1569676228,320.353,-135.843,-13.7294,-179.934,2.76855,-144.756,492
1569676228,320.353,-135.843,-13.7294,-179.912,2.76855,-144.756,492
1569676228,320.353,-135.843,-13.7294,-179.912,2.76855,-144.756,492
1569676228,320.353,-135.843,-13.7294,-179.912,2.76855,-144.756,492
1569676228,320.353,-135.843,-13.7294,-179.912,2.76855,-144.756,492
1569676228,320.353,-135.843,-13.7294,-179.912,2.76855,-144.756,492
1569676228,320.353,-135.843,-13.7294,-179.912,2.76855,-144.756,492
1569676228,320.353,-135.843,-13.7294,-179.912,2.76855,-144.756,492
1569676228,320.353,-135.843,-13.7294,-179.912,2.76855,-144.756,492
1569676228,320.353,-135.843,-13.7294,-179.934,2.76855,-144.756,492
1569676228,320.353,-135.843,-13.7294,-179.934,2.76855,-144.756,492
1569676228,320.353,-135.843,-13.7294,-179.934,2.76855,-144.756,492
1569676228,320.353,-135.843,-13.7294,-179.934,2.76855,-144.756,492
1569676228,320.353,-135.843,-13.7294,-179.934,2.76855,-144.756,492
1569676228,320.353,-135.843,-13.7294,-179.934,2.76855,-144.756,492
1569676228,320.353,-135.843,-13.7294,-179.934,2.76855,-144.756,492
1569676228,320.353,-135.843,-13.7294,-179.934,2.76855,-144.756,492
1569676228,320.353,-135.843,-13.7294,-179.934,2.76855,-144.756,492
1569676228,320.353,-135.843,-13.7294,-179.934,2.76855,-144.756,492
1569676228,320.353,-135.843,-13.7294,-179.934,2.76855,-144.756,492
1569676228,320.353,-135.843,-13.7294,-179.934,2.76855,-144.756,488
1569676228,320.353,-135.843,-13.7294,-179.934,2.76855,-144.756,488
1569676228,320.353,-135.843,-13.7294,-179.934,2.76855,-144.756,488
1569676228,320.353,-135.843,-13.7294,-179.934,2.76855,-144.756,488
1569676228,320.353,-135.843,-13.7294,-179.934,2.76855,-144.756,488
1569676228,320.353,-135.843,-13.7294,-179.934,2.76855,-144.756,488
1569676228,320.353,-135.843,-13.7294,-179.934,2.76855,-144.756,484
1569676228,320.353,-135.843,-13.7294,-179.934,2.76855,-144.756,484
1569676228,320.353,-135.843,-13.7294,-179.934,2.76855,-144.756,484
1569676228,320.353,-135.843,-13.7294,-179.934,2.76855,-144.756,484
1569676228,320.353,-135.843,-13.7294,-179.934,2.76855,-144.756,484
1569676228,320.353,-135.843,-13.7294,-179.934,2.76855,-144.756,484
1569676228,320.353,-135.843,-13.7294,-179.934,2.76855,-144.756,484
1569676228,320.353,-135.843,-13.7294,-179.934,2.76855,-144.756,484
1569676228,320.353,-135.843,-13.7294,-179.934,2.76855,-144.756,484
1569676228,320.353,-135.843,-13.7294,-179.934,2.76855,-144.756,484
1569676228,320.353,-135.843,-13.7294,-179.912,2.76855,-144.756,480
1569676228,320.353,-135.843,-13.7294,-179.912,2.76855,-144.756,480
1569676228,320.353,-135.843,-13.7294,-179.912,2.76855,-144.756,480
1569676228,320.353,-135.843,-13.7294,-179.912,2.76855,-144.756,480
1569676228,320.353,-135.843,-13.7294,-179.912,2.76855,-144.756,480
1569676228,320.353,-135.843,-13.7294,-179.912,2.79053,-144.756,480
1569676228,320.353,-135.843,-13.7294,-179.912,2.79053,-144.756,480
1569676228,320.353,-135.843,-13.7294,-179.912,2.79053,-144.756,480
1569676228,320.353,-135.843,-13.7294,-179.912,2.79053,-144.756,480
1569676228,320.353,-135.843,-13.7294,-179.912,2.79053,-144.756,480
1569676228,320.353,-135.843,-13.7294,-179.912,2.79053,-144.756,480
1569676228,320.353,-135.843,-13.7294,-179.912,2.79053,-144.756,480
1569676228,320.353,-135.843,-13.7294,-179.912,2.79053,-144.756,480
1569676228,320.353,-135.843,-13.7294,-179.912,2.79053,-144.756,480
1569676228,320.353,-135.843,-13.7294,-179.912,2.79053,-144.756,480
1569676228,320.353,-135.843,-13.7294,-179.912,2.79053,-144.756,480
1569676228,320.353,-135.843,-13.7294,-179.912,2.79053,-144.756,480
1569676228,320.353,-135.843,-13.7294,-179.912,2.79053,-144.756,480
1569676228,320.353,-135.843,-13.7294,-179.912,2.79053,-144.756,480
1569676228,320.353,-135.843,-13.7294,-179.912,2.79053,-144.756,480
1569676228,320.353,-135.843,-13.7294,-179.912,2.79053,-144.756,480
1569676228,320.353,-135.843,-13.7294,-179.912,2.79053,-144.756,480
1569676228,320.353,-135.843,-13.7294,-179.912,2.79053,-144.756,484
1569676228,320.353,-135.843,-13.7294,-179.912,2.79053,-144.756,484
1569676228,320.353,-135.843,-13.7294,-179.912,2.79053,-144.756,484
1569676228,320.353,-135.843,-13.7294,-179.912,2.79053,-144.756,484
1569676228,320.353,-135.843,-13.7294,-179.912,2.79053,-144.756,484
1569676228,320.353,-135.843,-13.7294,-179.912,2.79053,-144.756,484
1569676228,320.353,-135.843,-13.7294,-179.912,2.79053,-144.756,484
1569676228,320.353,-135.843,-13.7294,-179.912,2.79053,-144.756,484
1569676228,320.353,-135.843,-13.7294,-179.912,2.79053,-144.778,484
1569676228,320.353,-135.843,-13.7294,-179.912,2.79053,-144.778,484
1569676228,320.353,-135.843,-13.7294,-179.934,2.79053,-144.778,484
1569676228,320.353,-135.843,-13.7294,-179.934,2.79053,-144.778,484
1569676228,320.353,-135.843,-13.7294,-179.934,2.79053,-144.778,484
1569676228,320.353,-135.843,-13.7294,-179.934,2.79053,-144.778,484
1569676228,320.353,-135.843,-13.7294,-179.934,2.79053,-144.778,484
1569676228,320.464,-135.843,-13.7294,-179.934,2.76855,-144.778,480
1569676228,320.464,-135.843,-13.7294,-179.934,2.76855,-144.778,480
1569676228,320.464,-135.843,-13.7294,-179.934,2.76855,-144.778,480
1569676228,320.464,-135.843,-13.7294,-179.934,2.76855,-144.778,480
1569676228,320.464,-135.843,-13.7294,-179.934,2.76855,-144.778,480
1569676228,320.464,-135.843,-13.7294,-179.934,2.76855,-144.778,480
1569676228,320.464,-135.843,-13.7294,-179.934,2.76855,-144.778,476
1569676228,320.464,-135.843,-13.7294,-179.934,2.76855,-144.778,476
1569676228,320.464,-135.843,-13.7294,-179.934,2.76855,-144.778,476
1569676228,320.464,-135.843,-13.7294,-179.934,2.74658,-144.778,476
1569676228,320.464,-135.843,-13.7294,-179.934,2.74658,-144.778,476
1569676228,320.464,-135.843,-13.7294,-179.934,2.74658,-144.778,476
1569676228,320.464,-135.843,-13.841,-179.934,2.74658,-144.778,476
1569676228,320.464,-135.843,-13.841,-179.912,2.74658,-144.778,476
1569676228,320.464,-135.843,-13.841,-179.912,2.74658,-144.778,476
1569676228,320.464,-135.843,-13.841,-179.912,2.74658,-144.778,480
1569676228,320.464,-135.843,-13.841,-179.912,2.74658,-144.778,480
1569676228,320.464,-135.843,-13.841,-179.912,2.74658,-144.778,480
1569676229,320.464,-135.843,-13.841,-179.912,2.74658,-144.778,480
1569676229,320.464,-135.843,-13.841,-179.912,2.74658,-144.778,480
1569676229,320.464,-135.843,-13.841,-179.912,2.74658,-144.778,484
1569676229,320.464,-135.843,-13.841,-179.912,2.74658,-144.778,484
1569676229,320.464,-135.843,-13.841,-179.912,2.74658,-144.778,484
1569676229,320.464,-135.843,-13.841,-179.912,2.74658,-144.778,484
1569676229,320.464,-135.843,-13.841,-179.912,2.74658,-144.778,488
1569676229,320.464,-135.843,-13.841,-179.912,2.74658,-144.778,488
1569676229,320.464,-135.843,-13.841,-179.912,2.74658,-144.778,488
1569676229,320.464,-135.843,-13.841,-179.912,2.74658,-144.778,488
1569676229,320.464,-135.843,-13.841,-179.912,2.74658,-144.778,488
1569676229,320.464,-135.843,-13.841,-179.912,2.74658,-144.778,492
1569676229,320.464,-135.843,-13.841,-179.912,2.74658,-144.778,492
1569676229,320.464,-135.843,-13.841,-179.912,2.74658,-144.778,492
1569676229,320.464,-135.843,-13.841,-179.912,2.74658,-144.778,492
1569676229,320.464,-135.843,-13.841,-179.912,2.74658,-144.778,492
1569676229,320.464,-135.843,-13.841,-179.912,2.74658,-144.778,492
1569676229,320.464,-135.843,-13.841,-179.912,2.74658,-144.778,488
1569676229,320.464,-135.843,-13.841,-179.912,2.74658,-144.778,488
1569676229,320.464,-135.843,-13.841,-179.912,2.74658,-144.778,488
1569676229,320.464,-135.843,-13.841,-179.912,2.74658,-144.778,488
1569676229,320.464,-135.843,-13.841,-179.912,2.74658,-144.778,488
1569676229,320.464,-135.843,-13.841,-179.912,2.74658,-144.778,488
1569676229,320.464,-135.843,-13.841,-179.912,2.74658,-144.778,488
1569676229,320.464,-135.843,-13.841,-179.934,2.74658,-144.778,488
1569676229,320.464,-135.843,-13.841,-179.934,2.74658,-144.778,488
1569676229,320.464,-135.843,-13.841,-179.934,2.74658,-144.778,488
1569676229,320.464,-135.843,-13.841,-179.934,2.74658,-144.778,488
1569676229,320.464,-135.843,-13.841,-179.934,2.74658,-144.778,488
1569676229,320.464,-135.843,-13.841,-179.934,2.74658,-144.778,488
1569676229,320.464,-135.843,-13.841,-179.934,2.74658,-144.778,488
1569676229,320.464,-135.843,-13.841,-179.934,2.74658,-144.778,488
1569676229,320.464,-135.843,-13.841,-179.934,2.76855,-144.778,488
1569676229,320.464,-135.843,-13.7294,-179.934,2.76855,-144.778,488
1569676229,320.464,-135.843,-13.7294,-179.934,2.76855,-144.778,484
1569676229,320.464,-135.843,-13.7294,-179.934,2.76855,-144.778,484
1569676229,320.464,-135.843,-13.7294,-179.934,2.76855,-144.778,484
1569676229,320.464,-135.843,-13.7294,-179.934,2.76855,-144.778,484
1569676229,320.464,-135.843,-13.7294,-179.934,2.76855,-144.778,484
1569676229,320.464,-135.843,-13.7294,-179.934,2.76855,-144.778,484
1569676229,320.464,-135.843,-13.7294,-179.934,2.76855,-144.778,484
1569676229,320.464,-135.843,-13.7294,-179.934,2.76855,-144.778,484
1569676229,320.464,-135.843,-13.7294,-179.934,2.76855,-144.778,484
1569676229,320.464,-135.843,-13.7294,-179.934,2.76855,-144.778,484
1569676229,320.464,-135.843,-13.7294,-179.934,2.79053,-144.778,484
1569676229,320.464,-135.843,-13.7294,-179.912,2.79053,-144.778,484
1569676229,320.464,-135.843,-13.7294,-179.912,2.79053,-144.778,484
1569676229,320.464,-135.843,-13.7294,-179.912,2.79053,-144.756,484
1569676229,320.464,-135.843,-13.7294,-179.912,2.79053,-144.756,484
1569676229,320.464,-135.843,-13.7294,-179.912,2.79053,-144.756,484
1569676229,320.464,-135.843,-13.7294,-179.912,2.79053,-144.756,484
1569676229,320.464,-135.843,-13.7294,-179.912,2.79053,-144.756,484
1569676229,320.464,-135.843,-13.7294,-179.912,2.79053,-144.756,484
1569676229,320.464,-135.843,-13.7294,-179.912,2.79053,-144.756,484
1569676229,320.464,-135.843,-13.7294,-179.912,2.79053,-144.756,484
1569676229,320.464,-135.843,-13.7294,-179.912,2.79053,-144.756,484
1569676229,320.464,-135.843,-13.7294,-179.912,2.79053,-144.756,484
1569676229,320.464,-135.843,-13.7294,-179.912,2.79053,-144.756,488
1569676229,320.464,-135.843,-13.7294,-179.912,2.79053,-144.756,488
1569676229,320.464,-135.843,-13.7294,-179.912,2.79053,-144.756,488
1569676229,320.353,-135.843,-13.7294,-179.912,2.79053,-144.756,488
1569676229,320.353,-135.843,-13.7294,-179.912,2.79053,-144.756,488
1569676229,320.353,-135.843,-13.7294,-179.912,2.79053,-144.756,492
1569676229,320.353,-135.843,-13.7294,-179.912,2.79053,-144.756,492
1569676229,320.353,-135.843,-13.7294,-179.912,2.79053,-144.756,492
1569676229,320.353,-135.843,-13.7294,-179.934,2.79053,-144.756,496
1569676229,320.353,-135.843,-13.7294,-179.934,2.79053,-144.756,496
1569676229,320.353,-135.843,-13.6178,-179.934,2.79053,-144.756,496
1569676229,320.353,-135.843,-13.6178,-179.934,2.79053,-144.756,500
1569676229,320.353,-135.843,-13.6178,-179.934,2.79053,-144.756,500
1569676229,320.353,-135.843,-13.6178,-179.934,2.79053,-144.756,500
1569676229,320.353,-135.843,-13.7294,-179.934,2.79053,-144.756,500
1569676229,320.353,-135.843,-13.7294,-179.934,2.79053,-144.756,500
1569676229,320.353,-135.843,-13.7294,-179.934,2.79053,-144.756,500
1569676229,320.353,-135.843,-13.7294,-179.934,2.79053,-144.756,500
1569676229,320.353,-135.843,-13.7294,-179.934,2.79053,-144.756,500
1569676229,320.353,-135.843,-13.7294,-179.934,2.79053,-144.756,500
1569676229,320.353,-135.843,-13.7294,-179.934,2.79053,-144.756,500
1569676229,320.353,-135.843,-13.7294,-179.934,2.79053,-144.756,500
1569676229,320.353,-135.843,-13.7294,-179.934,2.79053,-144.756,500
1569676229,320.353,-135.843,-13.7294,-179.934,2.79053,-144.756,500
1569676229,320.353,-135.843,-13.7294,-179.934,2.79053,-144.756,500
1569676229,320.353,-135.843,-13.6178,-179.934,2.79053,-144.756,500
1569676229,320.353,-135.843,-13.6178,-179.934,2.79053,-144.756,500
1569676229,320.353,-135.843,-13.6178,-179.934,2.79053,-144.756,500
1569676229,320.353,-135.843,-13.6178,-179.934,2.79053,-144.756,500
1569676229,320.353,-135.843,-13.6178,-179.934,2.79053,-144.756,500
1569676229,320.353,-135.843,-13.6178,-179.934,2.79053,-144.756,500
1569676229,320.353,-135.843,-13.6178,-179.934,2.79053,-144.756,500
1569676229,320.353,-135.843,-13.6178,-179.934,2.79053,-144.756,500
1569676229,320.353,-135.954,-13.6178,-179.956,2.79053,-144.756,500
1569676229,320.353,-135.954,-13.6178,-179.956,2.79053,-144.756,500
1569676229,320.353,-135.954,-13.6178,-179.956,2.79053,-144.756,500
1569676229,320.353,-135.954,-13.6178,-179.956,2.79053,-144.756,500
1569676229,320.353,-135.954,-13.6178,-179.956,2.79053,-144.756,500
1569676229,320.353,-135.954,-13.6178,-179.956,2.79053,-144.756,500
1569676229,320.353,-135.954,-13.6178,-179.956,2.79053,-144.756,500
1569676229,320.353,-135.954,-13.6178,-179.956,2.79053,-144.756,500
1569676229,320.353,-135.954,-13.6178,-179.956,2.79053,-144.756,500
1569676229,320.353,-135.954,-13.6178,-179.956,2.79053,-144.756,500
1569676230,320.353,-135.954,-13.6178,-179.956,2.79053,-144.756,500
1569676230,320.353,-135.954,-13.6178,-179.956,2.79053,-144.756,496
1569676230,320.353,-135.954,-13.6178,-179.956,2.79053,-144.756,496
1569676230,320.353,-135.954,-13.6178,-179.956,2.79053,-144.756,496
1569676230,320.353,-135.954,-13.6178,-179.956,2.79053,-144.756,496
1569676230,320.353,-135.954,-13.6178,-179.956,2.79053,-144.756,492
1569676230,320.353,-135.954,-13.6178,-179.956,2.79053,-144.756,492
1569676230,320.464,-135.954,-13.6178,-179.956,2.79053,-144.756,492
1569676230,320.464,-135.954,-13.6178,-179.934,2.79053,-144.756,492
1569676230,320.464,-135.954,-13.6178,-179.934,2.79053,-144.756,488
1569676230,320.464,-135.954,-13.6178,-179.934,2.79053,-144.756,488
1569676230,320.464,-135.954,-13.6178,-179.934,2.79053,-144.756,488
1569676230,320.464,-135.954,-13.7294,-179.934,2.79053,-144.756,488
1569676230,320.464,-135.954,-13.7294,-179.934,2.79053,-144.756,488
1569676230,320.464,-135.954,-13.7294,-179.934,2.79053,-144.756,488
1569676230,320.464,-135.843,-13.7294,-179.934,2.79053,-144.756,488
1569676230,320.464,-135.843,-13.7294,-179.934,2.79053,-144.756,488
1569676230,320.353,-135.843,-13.7294,-179.934,2.79053,-144.756,488
1569676230,320.353,-135.843,-13.7294,-179.934,2.79053,-144.756,488
1569676230,320.353,-135.843,-13.7294,-179.934,2.79053,-144.756,488
1569676230,320.353,-135.843,-13.7294,-179.934,2.79053,-144.756,488
1569676230,320.353,-135.843,-13.7294,-179.934,2.79053,-144.778,488
1569676230,320.353,-135.843,-13.7294,-179.934,2.79053,-144.778,488
1569676230,320.353,-135.843,-13.7294,-179.934,2.79053,-144.778,488
1569676230,320.353,-135.843,-13.7294,-179.934,2.76855,-144.778,488
1569676230,320.353,-135.843,-13.7294,-179.934,2.76855,-144.778,488
1569676230,320.353,-135.843,-13.7294,-179.934,2.76855,-144.778,488
1569676230,320.353,-135.843,-13.7294,-179.934,2.76855,-144.778,488
1569676230,320.353,-135.843,-13.7294,-179.934,2.76855,-144.778,488
1569676230,320.353,-135.843,-13.7294,-179.912,2.76855,-144.778,488
1569676230,320.353,-135.843,-13.7294,-179.912,2.76855,-144.778,488
1569676230,320.353,-135.843,-13.7294,-179.912,2.76855,-144.778,488
1569676230,320.353,-135.843,-13.7294,-179.912,2.76855,-144.778,484
1569676230,320.353,-135.843,-13.7294,-179.912,2.76855,-144.778,484
1569676230,320.353,-135.843,-13.7294,-179.912,2.76855,-144.778,484
1569676230,320.353,-135.843,-13.7294,-179.912,2.76855,-144.778,484
1569676230,320.353,-135.843,-13.7294,-179.912,2.76855,-144.778,484
1569676230,320.353,-135.843,-13.7294,-179.912,2.76855,-144.778,484
1569676230,320.353,-135.843,-13.7294,-179.912,2.76855,-144.756,484
1569676230,320.353,-135.731,-13.7294,-179.912,2.76855,-144.756,484
1569676230,320.353,-135.731,-13.7294,-179.912,2.76855,-144.756,484
1569676230,320.353,-135.731,-13.7294,-179.912,2.76855,-144.756,484
1569676230,320.353,-135.731,-13.7294,-179.912,2.76855,-144.756,484
1569676230,320.464,-135.731,-13.7294,-179.912,2.76855,-144.756,484
1569676230,320.464,-135.731,-13.7294,-179.912,2.76855,-144.756,484
1569676230,320.464,-135.731,-13.7294,-179.912,2.76855,-144.756,484
1569676230,320.464,-135.731,-13.7294,-179.912,2.76855,-144.756,484
1569676230,320.464,-135.731,-13.7294,-179.912,2.76855,-144.756,484
1569676230,320.464,-135.731,-13.7294,-179.912,2.76855,-144.756,480
1569676230,320.464,-135.731,-13.7294,-179.912,2.76855,-144.756,480
1569676230,320.464,-135.843,-13.7294,-179.912,2.76855,-144.756,480
1569676230,320.464,-135.843,-13.7294,-179.912,2.76855,-144.756,480
1569676230,320.464,-135.843,-13.7294,-179.912,2.76855,-144.756,480
1569676230,320.464,-135.843,-13.7294,-179.912,2.76855,-144.756,480
1569676230,320.464,-135.843,-13.7294,-179.912,2.76855,-144.756,480
1569676230,320.353,-135.843,-13.7294,-179.934,2.76855,-144.756,480
1569676230,320.353,-135.843,-13.7294,-179.934,2.76855,-144.756,480
1569676230,320.353,-135.843,-13.7294,-179.934,2.76855,-144.756,480
1569676230,320.353,-135.843,-13.7294,-179.934,2.76855,-144.756,480
1569676230,320.353,-135.843,-13.7294,-179.934,2.76855,-144.756,480
1569676230,320.353,-135.843,-13.7294,-179.934,2.76855,-144.756,480
1569676230,320.353,-135.843,-13.7294,-179.934,2.79053,-144.756,480
1569676230,320.353,-135.843,-13.7294,-179.934,2.79053,-144.756,480
1569676230,320.353,-135.843,-13.7294,-179.934,2.79053,-144.756,480
1569676230,320.353,-135.954,-13.6178,-179.934,2.79053,-144.756,480
1569676230,320.353,-135.954,-13.6178,-179.934,2.79053,-144.756,476
1569676230,320.353,-135.954,-13.6178,-179.934,2.79053,-144.756,476
1569676230,320.353,-135.954,-13.6178,-179.934,2.79053,-144.756,476
1569676230,320.353,-135.954,-13.7294,-179.934,2.79053,-144.756,476
1569676230,320.353,-135.954,-13.7294,-179.934,2.79053,-144.756,476
1569676230,320.353,-135.954,-13.7294,-179.934,2.76855,-144.756,476
1569676230,320.353,-135.954,-13.7294,-179.934,2.76855,-144.756,476
1569676230,320.353,-135.954,-13.7294,-179.934,2.76855,-144.756,476
1569676230,320.353,-135.954,-13.7294,-179.934,2.76855,-144.756,476
1569676230,320.353,-135.954,-13.7294,-179.934,2.76855,-144.756,476
1569676230,320.353,-135.954,-13.7294,-179.934,2.76855,-144.756,476
1569676230,320.353,-135.954,-13.7294,-179.934,2.76855,-144.756,476
1569676230,320.353,-135.843,-13.7294,-179.934,2.76855,-144.756,476
1569676230,320.353,-135.843,-13.7294,-179.934,2.76855,-144.756,472
1569676230,320.353,-135.843,-13.7294,-179.934,2.76855,-144.756,472
1569676245,281.62,-95.6593,-15.2921,179.824,2.24121,-144.998,408
1569676245,281.62,-95.6593,-15.2921,179.824,2.24121,-144.998,408
1569676245,281.62,-95.6593,-15.2921,179.824,2.24121,-144.998,408
1569676245,281.62,-95.6593,-15.2921,179.824,2.24121,-144.998,408
1569676245,281.62,-95.6593,-15.2921,179.824,2.24121,-144.998,408
1569676245,281.62,-95.6593,-15.2921,179.824,2.24121,-144.998,408
1569676245,281.62,-95.6593,-15.2921,179.824,2.24121,-144.998,408
1569676245,281.62,-95.6593,-15.2921,179.824,2.24121,-144.998,408
1569676245,281.62,-95.6593,-15.2921,179.824,2.24121,-144.998,408
1569676245,281.62,-95.6593,-15.2921,179.824,2.24121,-144.998,408
1569676245,281.62,-95.6593,-15.2921,179.824,2.26318,-144.998,408
1569676245,281.62,-95.6593,-15.2921,179.824,2.26318,-144.998,408
1569676245,281.62,-95.6593,-15.2921,179.802,2.26318,-144.998,408
1569676245,281.62,-95.6593,-15.2921,179.802,2.26318,-144.998,408
1569676245,281.62,-95.6593,-15.2921,179.802,2.26318,-144.998,408
1569676245,281.62,-95.6593,-15.2921,179.802,2.24121,-144.998,408
1569676245,281.62,-95.6593,-15.2921,179.824,2.24121,-144.998,408
1569676245,281.62,-95.6593,-15.2921,179.824,2.26318,-144.998,408
1569676245,281.62,-95.6593,-15.2921,179.824,2.26318,-144.998,408
1569676245,281.62,-95.6593,-15.2921,179.824,2.26318,-144.998,408
1569676245,281.62,-95.6593,-15.2921,179.824,2.26318,-144.998,408
1569676245,281.62,-95.6593,-15.2921,179.824,2.26318,-144.998,408
1569676245,281.62,-95.6593,-15.2921,179.824,2.26318,-144.998,408
1569676245,281.62,-95.6593,-15.2921,179.824,2.26318,-144.998,408
1569676245,281.62,-95.6593,-15.2921,179.824,2.26318,-144.998,408
1569676245,281.732,-95.6593,-15.2921,179.824,2.26318,-144.998,408
1569676245,281.732,-95.6593,-15.2921,179.824,2.26318,-144.998,408
1569676245,281.732,-95.6593,-15.2921,179.824,2.26318,-144.998,408
1569676245,281.732,-95.6593,-15.2921,179.824,2.26318,-144.998,404
1569676245,281.732,-95.6593,-15.2921,179.824,2.26318,-144.998,404
1569676245,281.732,-95.6593,-15.2921,179.824,2.26318,-144.998,404
1569676245,281.732,-95.6593,-15.2921,179.824,2.26318,-144.998,404
1569676245,281.732,-95.6593,-15.2921,179.824,2.26318,-144.998,404
1569676245,281.732,-95.6593,-15.2921,179.824,2.26318,-144.998,404
1569676245,281.732,-95.6593,-15.2921,179.824,2.26318,-144.998,404
1569676245,281.732,-95.6593,-15.2921,179.824,2.26318,-144.998,404
1569676245,281.732,-95.6593,-15.2921,179.824,2.26318,-144.998,404
1569676245,281.62,-95.6593,-15.2921,179.824,2.26318,-144.998,404
1569676245,281.62,-95.6593,-15.2921,179.824,2.26318,-144.998,404
1569676245,281.62,-95.6593,-15.2921,179.824,2.26318,-144.998,404
1569676245,281.62,-95.6593,-15.2921,179.824,2.26318,-144.998,404
1569676245,281.62,-95.6593,-15.2921,179.824,2.26318,-144.998,404
1569676245,281.732,-95.6593,-15.2921,179.824,2.26318,-144.998,400
1569676245,281.732,-95.6593,-15.2921,179.824,2.26318,-144.998,400
1569676245,281.732,-95.6593,-15.2921,179.824,2.26318,-144.998,400
1569676245,281.732,-95.6593,-15.2921,179.824,2.26318,-144.998,400
1569676245,281.732,-95.6593,-15.2921,179.824,2.26318,-144.998,400
1569676245,281.732,-95.6593,-15.2921,179.824,2.26318,-144.998,400
1569676245,281.732,-95.5477,-15.2921,179.824,2.26318,-144.998,400
1569676245,281.732,-95.5477,-15.2921,179.824,2.26318,-144.998,400
1569676245,281.732,-95.5477,-15.2921,179.824,2.26318,-144.998,396
1569676245,281.732,-95.5477,-15.2921,179.824,2.24121,-144.998,396
1569676245,281.732,-95.5477,-15.2921,179.824,2.24121,-144.998,396
1569676245,281.732,-95.5477,-15.2921,179.824,2.24121,-144.998,396
1569676245,281.732,-95.5477,-15.2921,179.824,2.24121,-144.998,396
1569676245,281.732,-95.5477,-15.2921,179.824,2.24121,-144.998,396
1569676245,281.732,-95.5477,-15.2921,179.824,2.24121,-144.998,396
1569676245,281.732,-95.5477,-15.2921,179.824,2.24121,-144.998,396
1569676245,281.732,-95.5477,-15.2921,179.824,2.24121,-144.998,396
1569676245,281.732,-95.5477,-15.2921,179.824,2.24121,-144.998,396
1569676245,281.732,-95.5477,-15.2921,179.824,2.24121,-144.998,396
1569676245,281.732,-95.5477,-15.2921,179.824,2.24121,-144.998,396
1569676245,281.732,-95.5477,-15.2921,179.824,2.24121,-144.998,396
1569676245,281.732,-95.5477,-15.2921,179.824,2.24121,-144.998,396
1569676245,281.732,-95.5477,-15.2921,179.824,2.24121,-144.998,396
1569676245,281.732,-95.5477,-15.2921,179.824,2.24121,-144.998,396
1569676245,281.732,-95.5477,-15.2921,179.824,2.24121,-144.998,396
1569676245,281.62,-95.5477,-15.2921,179.824,2.24121,-144.998,396
1569676245,281.62,-95.5477,-15.2921,179.824,2.24121,-144.998,396
1569676245,281.62,-95.5477,-15.2921,179.824,2.24121,-144.998,396
1569676246,281.62,-95.5477,-15.2921,179.824,2.24121,-144.998,396
1569676246,281.62,-95.5477,-15.2921,179.824,2.24121,-144.998,396
1569676246,281.62,-95.5477,-15.2921,179.824,2.24121,-144.998,396
1569676246,281.62,-95.5477,-15.2921,179.824,2.24121,-144.998,396
1569676246,281.62,-95.5477,-15.2921,179.824,2.24121,-144.998,396
1569676246,281.62,-95.5477,-15.2921,179.824,2.24121,-144.998,396
1569676246,281.62,-95.5477,-15.2921,179.824,2.24121,-144.998,396
1569676246,281.62,-95.5477,-15.2921,179.824,2.24121,-144.998,396
1569676246,281.62,-95.5477,-15.2921,179.824,2.24121,-144.998,396
1569676246,281.62,-95.5477,-15.2921,179.824,2.24121,-144.998,396
1569676246,281.62,-95.6593,-15.2921,179.824,2.24121,-144.998,396
1569676246,281.62,-95.6593,-15.2921,179.824,2.24121,-144.998,396
1569676246,281.62,-95.6593,-15.2921,179.824,2.24121,-144.998,396
1569676246,281.62,-95.6593,-15.2921,179.824,2.24121,-144.998,396
1569676246,281.62,-95.6593,-15.2921,179.824,2.24121,-144.998,396
1569676246,281.62,-95.6593,-15.2921,179.824,2.24121,-144.998,400
1569676246,281.62,-95.6593,-15.2921,179.824,2.24121,-144.998,400
1569676246,281.62,-95.6593,-15.2921,179.824,2.24121,-144.998,400
1569676246,281.62,-95.6593,-15.2921,179.824,2.24121,-144.998,400
1569676246,281.62,-95.6593,-15.2921,179.824,2.26318,-144.998,400
1569676246,281.62,-95.6593,-15.2921,179.824,2.26318,-144.998,400
1569676246,281.62,-95.6593,-15.2921,179.824,2.26318,-144.998,400
1569676246,281.62,-95.6593,-15.2921,179.824,2.26318,-144.998,400
1569676246,281.62,-95.6593,-15.2921,179.824,2.26318,-144.998,400
1569676246,281.62,-95.6593,-15.2921,179.824,2.26318,-144.998,400
1569676246,281.62,-95.6593,-15.2921,179.802,2.26318,-144.998,404
1569676246,281.62,-95.6593,-15.2921,179.802,2.26318,-144.998,404
1569676246,281.62,-95.6593,-15.2921,179.802,2.26318,-144.998,404
1569676246,281.62,-95.6593,-15.2921,179.802,2.26318,-144.998,404
1569676246,281.62,-95.6593,-15.2921,179.802,2.26318,-144.998,404
1569676246,281.62,-95.6593,-15.2921,179.802,2.26318,-144.998,404
1569676246,281.62,-95.6593,-15.2921,179.802,2.26318,-144.998,404
1569676246,281.62,-95.6593,-15.1805,179.802,2.26318,-144.998,408
1569676246,281.62,-95.6593,-15.1805,179.802,2.26318,-144.998,408
1569676246,281.62,-95.6593,-15.1805,179.802,2.26318,-144.998,408
1569676246,281.62,-95.6593,-15.1805,179.802,2.26318,-144.998,408
1569676246,281.62,-95.6593,-15.1805,179.802,2.26318,-144.998,408
1569676246,281.62,-95.6593,-15.1805,179.802,2.26318,-144.998,408
1569676246,281.62,-95.6593,-15.1805,179.802,2.26318,-144.998,408
1569676246,281.62,-95.6593,-15.1805,179.802,2.26318,-144.998,408
1569676246,281.62,-95.6593,-15.1805,179.802,2.26318,-144.998,408
1569676246,281.62,-95.6593,-15.1805,179.802,2.26318,-144.998,412
1569676246,281.62,-95.6593,-15.1805,179.802,2.26318,-144.998,412
1569676246,281.62,-95.6593,-15.1805,179.802,2.26318,-144.998,412
1569676246,281.62,-95.6593,-15.1805,179.802,2.26318,-144.998,412
1569676246,281.62,-95.6593,-15.1805,179.802,2.26318,-144.998,412
1569676246,281.62,-95.6593,-15.1805,179.802,2.26318,-144.998,412
1569676246,281.62,-95.6593,-15.1805,179.802,2.26318,-144.998,412
1569676246,281.62,-95.6593,-15.1805,179.802,2.26318,-144.998,416
1569676246,281.62,-95.6593,-15.1805,179.802,2.26318,-144.998,416
1569676246,281.62,-95.6593,-15.1805,179.802,2.26318,-144.998,416
1569676246,281.62,-95.6593,-15.1805,179.802,2.26318,-144.998,416
1569676246,281.62,-95.6593,-15.1805,179.802,2.26318,-144.998,416
1569676246,281.62,-95.6593,-15.1805,179.802,2.26318,-144.998,416
1569676246,281.62,-95.6593,-15.1805,179.802,2.26318,-144.998,416
1569676246,281.62,-95.6593,-15.1805,179.802,2.26318,-144.998,416
1569676246,281.62,-95.6593,-15.1805,179.802,2.26318,-144.998,416
1569676246,281.62,-95.6593,-15.1805,179.802,2.26318,-144.998,416
1569676246,281.62,-95.6593,-15.2921,179.802,2.26318,-144.998,416
1569676246,281.62,-95.6593,-15.2921,179.802,2.26318,-144.998,416
1569676246,281.62,-95.6593,-15.2921,179.824,2.26318,-144.998,416
1569676246,281.62,-95.6593,-15.2921,179.824,2.26318,-144.998,416
1569676246,281.62,-95.6593,-15.2921,179.824,2.26318,-144.998,412
1569676246,281.62,-95.6593,-15.2921,179.824,2.26318,-144.998,412
1569676246,281.62,-95.6593,-15.2921,179.824,2.26318,-144.998,412
1569676246,281.62,-95.6593,-15.2921,179.824,2.26318,-144.998,412
1569676246,281.62,-95.6593,-15.2921,179.824,2.26318,-144.998,412
1569676246,281.62,-95.6593,-15.2921,179.824,2.26318,-144.998,412
1569676246,281.62,-95.6593,-15.2921,179.824,2.26318,-144.998,408
1569676246,281.62,-95.6593,-15.2921,179.824,2.26318,-144.998,408
1569676246,281.62,-95.6593,-15.2921,179.824,2.26318,-144.998,408
1569676246,281.62,-95.6593,-15.2921,179.824,2.26318,-144.998,408
1569676246,281.62,-95.6593,-15.2921,179.824,2.26318,-144.998,408
1569676246,281.62,-95.6593,-15.2921,179.824,2.26318,-144.998,404
1569676246,281.62,-95.6593,-15.2921,179.824,2.24121,-144.998,404
1569676246,281.62,-95.6593,-15.2921,179.824,2.24121,-144.998,404
1569676246,281.62,-95.6593,-15.2921,179.824,2.24121,-144.998,404
1569676246,281.62,-95.6593,-15.2921,179.824,2.24121,-144.998,404
1569676246,281.62,-95.6593,-15.2921,179.824,2.24121,-144.998,404
1569676246,281.62,-95.6593,-15.2921,179.824,2.24121,-144.998,404
1569676246,281.62,-95.6593,-15.2921,179.824,2.24121,-144.998,404
1569676246,281.62,-95.6593,-15.2921,179.824,2.24121,-144.998,404
1569676246,281.62,-95.6593,-15.2921,179.824,2.24121,-144.998,404
1569676246,281.62,-95.5477,-15.2921,179.824,2.24121,-144.998,404
1569676246,281.62,-95.5477,-15.2921,179.824,2.24121,-144.998,404
1569676246,281.62,-95.5477,-15.2921,179.824,2.24121,-144.998,404
1569676246,281.62,-95.5477,-15.2921,179.824,2.24121,-144.998,404
1569676246,281.62,-95.5477,-15.2921,179.824,2.24121,-144.998,404
1569676246,281.62,-95.5477,-15.2921,179.824,2.24121,-144.998,404
1569676246,281.62,-95.5477,-15.2921,179.824,2.24121,-144.998,404
1569676246,281.62,-95.5477,-15.2921,179.824,2.24121,-144.998,404
1569676246,281.62,-95.6593,-15.2921,179.824,2.24121,-144.998,404
1569676246,281.62,-95.6593,-15.2921,179.824,2.24121,-144.998,404
1569676246,281.62,-95.6593,-15.2921,179.824,2.24121,-144.998,404
1569676246,281.62,-95.6593,-15.2921,179.824,2.24121,-144.998,404
1569676246,281.62,-95.6593,-15.2921,179.824,2.24121,-144.998,404
1569676246,281.62,-95.6593,-15.2921,179.824,2.24121,-144.998,404
1569676246,281.62,-95.6593,-15.2921,179.824,2.24121,-144.998,400
1569676246,281.62,-95.6593,-15.2921,179.824,2.24121,-144.998,400
1569676246,281.62,-95.6593,-15.2921,179.824,2.24121,-144.998,400
1569676247,281.62,-95.6593,-15.2921,179.824,2.24121,-144.998,400
1569676247,281.62,-95.6593,-15.2921,179.824,2.24121,-144.998,400
1569676247,281.62,-95.6593,-15.2921,179.824,2.24121,-144.998,400
1569676247,281.62,-95.6593,-15.2921,179.824,2.24121,-144.998,400
1569676247,281.62,-95.6593,-15.2921,179.802,2.24121,-144.998,396
1569676247,281.62,-95.6593,-15.2921,179.802,2.24121,-144.998,396
1569676247,281.62,-95.6593,-15.2921,179.802,2.24121,-145.02,396
1569676247,281.62,-95.6593,-15.2921,179.802,2.24121,-145.02,396
1569676247,281.62,-95.6593,-15.2921,179.802,2.24121,-145.02,396
1569676247,281.62,-95.6593,-15.2921,179.802,2.24121,-145.02,396
1569676247,281.62,-95.6593,-15.2921,179.802,2.24121,-145.02,396
1569676247,281.62,-95.6593,-15.2921,179.802,2.24121,-145.02,396
1569676247,281.62,-95.6593,-15.2921,179.802,2.24121,-145.02,396
1569676247,281.62,-95.6593,-15.2921,179.802,2.24121,-145.02,396
1569676247,281.62,-95.6593,-15.2921,179.802,2.24121,-145.02,396
1569676247,281.62,-95.6593,-15.2921,179.802,2.24121,-145.02,396
1569676247,281.62,-95.6593,-15.2921,179.802,2.24121,-145.02,396
1569676247,281.62,-95.6593,-15.2921,179.802,2.24121,-145.02,396
1569676247,281.62,-95.6593,-15.2921,179.802,2.24121,-145.02,396
1569676247,281.62,-95.6593,-15.2921,179.802,2.24121,-145.02,396
1569676247,281.62,-95.6593,-15.2921,179.802,2.24121,-145.02,396
1569676247,281.62,-95.6593,-15.2921,179.802,2.24121,-145.02,396
1569676247,281.62,-95.6593,-15.2921,179.802,2.24121,-145.02,396
1569676247,281.62,-95.6593,-15.2921,179.802,2.24121,-145.02,396
1569676247,281.62,-95.6593,-15.2921,179.802,2.24121,-145.02,396
1569676247,281.62,-95.6593,-15.2921,179.802,2.24121,-145.02,396
1569676247,281.62,-95.6593,-15.2921,179.802,2.24121,-145.02,396
1569676247,281.62,-95.6593,-15.2921,179.802,2.24121,-145.02,396
1569676247,281.62,-95.6593,-15.2921,179.802,2.24121,-145.02,396
1569676247,281.62,-95.6593,-15.2921,179.802,2.24121,-145.02,400
1569676247,281.62,-95.6593,-15.2921,179.802,2.24121,-145.02,400
1569676247,281.62,-95.6593,-15.2921,179.802,2.24121,-145.02,400
1569676247,281.62,-95.6593,-15.2921,179.802,2.24121,-145.02,400
1569676247,281.62,-95.6593,-15.2921,179.802,2.24121,-145.02,400
1569676247,281.62,-95.6593,-15.2921,179.802,2.24121,-145.02,400
1569676247,281.62,-95.6593,-15.2921,179.802,2.24121,-145.02,400
1569676247,281.62,-95.6593,-15.2921,179.802,2.24121,-145.02,400
1569676247,281.62,-95.6593,-15.2921,179.802,2.24121,-145.02,400
1569676247,281.62,-95.6593,-15.2921,179.802,2.24121,-145.02,400
1569676247,281.62,-95.6593,-15.2921,179.802,2.24121,-145.02,400
1569676247,281.62,-95.6593,-15.2921,179.802,2.24121,-145.02,400
1569676247,281.62,-95.6593,-15.2921,179.802,2.24121,-145.02,400
1569676247,281.62,-95.6593,-15.2921,179.802,2.26318,-145.02,400
1569676247,281.62,-95.6593,-15.2921,179.802,2.26318,-145.02,400
1569676247,281.62,-95.6593,-15.2921,179.802,2.26318,-145.02,404
1569676247,281.62,-95.6593,-15.2921,179.802,2.26318,-145.02,404
1569676247,281.62,-95.6593,-15.2921,179.802,2.26318,-145.02,404
1569676247,281.62,-95.6593,-15.2921,179.802,2.26318,-145.02,404
1569676247,281.62,-95.6593,-15.2921,179.802,2.26318,-145.02,404
1569676247,281.62,-95.6593,-15.2921,179.802,2.26318,-145.02,404
1569676247,281.62,-95.6593,-15.2921,179.802,2.26318,-145.02,404
1569676247,281.62,-95.6593,-15.2921,179.824,2.26318,-145.02,404
1569676247,281.62,-95.6593,-15.2921,179.824,2.26318,-145.02,404
1569676247,281.62,-95.6593,-15.2921,179.824,2.26318,-145.02,404
1569676247,281.62,-95.6593,-15.2921,179.824,2.26318,-145.02,404
1569676247,281.62,-95.6593,-15.2921,179.824,2.26318,-145.02,404
1569676247,281.62,-95.6593,-15.2921,179.824,2.26318,-145.02,404
1569676247,281.62,-95.6593,-15.2921,179.824,2.26318,-145.02,404
1569676247,281.62,-95.6593,-15.2921,179.824,2.26318,-145.02,404
1569676247,281.62,-95.5477,-15.2921,179.824,2.24121,-144.998,400
1569676247,281.62,-95.5477,-15.2921,179.824,2.24121,-144.998,400
1569676247,281.62,-95.5477,-15.2921,179.824,2.24121,-144.998,400
1569676247,281.62,-95.6593,-15.2921,179.824,2.26318,-144.998,400
1569676247,281.62,-95.6593,-15.2921,179.824,2.26318,-144.998,400
1569676247,281.62,-95.6593,-15.2921,179.824,2.26318,-144.998,400
1569676247,281.62,-95.6593,-15.2921,179.824,2.26318,-144.998,400
1569676247,281.62,-95.6593,-15.2921,179.824,2.26318,-144.998,400
1569676247,281.62,-95.6593,-15.2921,179.824,2.24121,-144.998,404
1569676247,281.62,-95.5477,-15.2921,179.824,2.24121,-144.998,404
1569676247,281.62,-95.5477,-15.2921,179.824,2.24121,-144.998,404
1569676247,281.62,-95.5477,-15.2921,179.824,2.24121,-144.998,404
1569676247,281.62,-95.5477,-15.2921,179.824,2.24121,-144.998,404
1569676247,281.62,-95.5477,-15.2921,179.824,2.24121,-144.998,404
1569676247,281.62,-95.5477,-15.2921,179.824,2.24121,-144.998,404
1569676247,281.62,-95.5477,-15.2921,179.824,2.24121,-144.998,404
1569676247,281.62,-95.5477,-15.2921,179.824,2.24121,-144.998,404
1569676247,281.62,-95.5477,-15.2921,179.824,2.24121,-144.998,404
1569676247,281.62,-95.5477,-15.2921,179.824,2.26318,-144.998,404
1569676247,281.62,-95.6593,-15.2921,179.824,2.26318,-144.998,404
1569676247,281.62,-95.6593,-15.2921,179.824,2.26318,-144.998,404
1569676247,281.62,-95.6593,-15.2921,179.824,2.26318,-144.998,404
1569676247,281.62,-95.6593,-15.2921,179.824,2.26318,-144.998,404
1569676247,281.62,-95.6593,-15.2921,179.824,2.26318,-145.02,404
1569676247,281.62,-95.6593,-15.2921,179.824,2.26318,-145.02,404
1569676247,281.62,-95.6593,-15.2921,179.824,2.26318,-145.02,404
1569676247,281.62,-95.6593,-15.2921,179.802,2.26318,-145.02,404
1569676247,281.62,-95.6593,-15.2921,179.802,2.26318,-145.02,404
1569676247,281.62,-95.6593,-15.2921,179.802,2.26318,-145.02,404
1569676247,281.62,-95.6593,-15.2921,179.802,2.26318,-145.02,404
1569676247,281.62,-95.6593,-15.2921,179.802,2.26318,-145.02,404
1569676247,281.62,-95.6593,-15.2921,179.802,2.26318,-145.02,404
1569676247,281.62,-95.6593,-15.2921,179.802,2.26318,-145.02,404
1569676247,281.62,-95.6593,-15.2921,179.802,2.26318,-144.998,400
1569676247,281.62,-95.6593,-15.2921,179.802,2.26318,-144.998,400
1569676247,281.62,-95.6593,-15.2921,179.802,2.26318,-144.998,400
1569676247,281.62,-95.6593,-15.2921,179.802,2.26318,-144.998,400
1569676247,281.62,-95.6593,-15.2921,179.802,2.26318,-144.998,400
1569676247,281.62,-95.6593,-15.2921,179.802,2.24121,-144.998,400
1569676247,281.62,-95.6593,-15.2921,179.802,2.24121,-144.998,400
1569676247,281.62,-95.6593,-15.2921,179.802,2.24121,-144.998,400
1569676248,281.62,-95.6593,-15.2921,179.802,2.24121,-144.998,396
1569676248,281.62,-95.6593,-15.2921,179.824,2.24121,-144.998,396
1569676248,281.62,-95.6593,-15.2921,179.824,2.24121,-144.998,396
1569676248,281.62,-95.6593,-15.2921,179.824,2.24121,-144.998,396
1569676248,281.62,-95.6593,-15.2921,179.824,2.24121,-144.998,396
1569676248,281.62,-95.6593,-15.2921,179.824,2.24121,-144.998,396
1569676248,281.62,-95.6593,-15.2921,179.824,2.24121,-144.998,396
1569676248,281.732,-95.6593,-15.2921,179.824,2.24121,-144.998,396
1569676248,281.732,-95.6593,-15.2921,179.824,2.24121,-144.998,396
1569676248,281.732,-95.6593,-15.2921,179.824,2.24121,-144.998,396
1569676248,281.732,-95.6593,-15.2921,179.824,2.24121,-144.998,392
1569676248,281.732,-95.6593,-15.2921,179.824,2.24121,-144.998,392
1569676248,281.732,-95.6593,-15.2921,179.824,2.24121,-144.998,392
1569676248,281.732,-95.6593,-15.2921,179.824,2.24121,-144.998,392
1569676248,281.732,-95.6593,-15.2921,179.824,2.24121,-144.998,392
1569676248,281.732,-95.6593,-15.2921,179.824,2.24121,-144.998,392
1569676248,281.732,-95.6593,-15.2921,179.824,2.24121,-144.998,392
1569676248,281.62,-95.6593,-15.2921,179.824,2.24121,-144.998,392
