time,x,y,z,ax,ay,az,q
1568040015,272.579,78.6929,-17.1896,-2.02148,1.4502,-156.995,224
1568040015,272.579,78.6929,-17.1896,-2.02148,1.4502,-156.995,224
1568040015,272.579,78.6929,-17.1896,-2.02148,1.4502,-156.995,224
1568040015,272.579,78.6929,-17.1896,-2.02148,1.4502,-156.995,224
1568040015,272.579,78.6929,-17.1896,-2.02148,1.4502,-156.995,224
1568040015,272.579,78.6929,-17.1896,-2.02148,1.4502,-156.995,224
1568040015,272.579,78.6929,-17.1896,-2.02148,1.4502,-156.995,224
1568040015,272.579,78.6929,-17.1896,-2.02148,1.4502,-156.995,224
1568040015,272.579,78.6929,-17.1896,-2.02148,1.4502,-156.995,224
1568040015,272.579,78.6929,-17.1896,-2.02148,1.4502,-156.995,224
1568040015,272.579,78.6929,-17.1896,-1.99951,1.4502,-156.995,224
1568040015,272.579,78.6929,-17.1896,-1.99951,1.47217,-156.995,228
1568040015,272.579,78.6929,-17.1896,-1.99951,1.47217,-156.995,228
1568040015,272.579,78.6929,-17.1896,-1.99951,1.47217,-156.995,228
1568040015,272.579,78.6929,-17.1896,-1.99951,1.47217,-156.995,228
1568040015,272.579,78.6929,-17.1896,-1.99951,1.4502,-156.995,228
1568040015,272.579,78.6929,-17.1896,-1.99951,1.4502,-156.995,228
1568040015,272.579,78.6929,-17.1896,-1.99951,1.4502,-156.995,228
1568040015,272.579,78.6929,-17.1896,-1.99951,1.4502,-156.995,228
1568040015,272.579,78.6929,-17.1896,-1.99951,1.4502,-156.995,228
1568040015,272.579,78.6929,-17.1896,-1.99951,1.4502,-156.995,228
1568040015,272.579,78.6929,-17.1896,-1.99951,1.4502,-156.995,228
1568040015,272.579,78.6929,-17.1896,-1.99951,1.4502,-156.995,228
1568040015,272.579,78.6929,-17.1896,-1.99951,1.4502,-156.995,228
1568040015,272.579,78.6929,-17.1896,-1.99951,1.4502,-156.995,228
1568040015,272.579,78.6929,-17.1896,-1.99951,1.4502,-156.995,228
1568040015,272.579,78.6929,-17.1896,-1.99951,1.4502,-156.995,228
1568040015,272.579,78.6929,-17.1896,-1.99951,1.4502,-156.995,228
1568040015,272.579,78.6929,-17.1896,-2.02148,1.4502,-156.995,224
1568040015,272.579,78.6929,-17.1896,-2.02148,1.4502,-156.995,224
1568040015,272.579,78.6929,-17.1896,-2.02148,1.4502,-156.995,224
1568040015,272.579,78.6929,-17.1896,-2.02148,1.4502,-156.995,224
1568040015,272.579,78.6929,-17.1896,-2.02148,1.4502,-156.995,224
1568040015,272.579,78.6929,-17.1896,-2.02148,1.42822,-156.995,224
1568040015,272.579,78.6929,-17.1896,-2.02148,1.42822,-156.995,224
1568040015,272.579,78.6929,-17.1896,-2.02148,1.42822,-156.995,224
1568040015,272.579,78.6929,-17.1896,-2.02148,1.42822,-156.995,224
1568040015,272.579,78.6929,-17.1896,-2.02148,1.42822,-156.995,224
1568040015,272.579,78.6929,-17.1896,-2.02148,1.42822,-156.995,224
1568040015,272.579,78.6929,-17.1896,-2.02148,1.42822,-156.995,224
1568040015,272.579,78.6929,-17.1896,-2.02148,1.42822,-156.995,224
1568040015,272.579,78.6929,-17.1896,-2.02148,1.42822,-156.995,224
1568040015,272.579,78.6929,-17.1896,-2.02148,1.42822,-156.995,220
1568040015,272.579,78.6929,-17.1896,-2.02148,1.42822,-156.995,220
1568040015,272.579,78.6929,-17.1896,-2.02148,1.42822,-156.995,220
1568040015,272.579,78.6929,-17.1896,-2.02148,1.42822,-156.995,220
1568040015,272.579,78.6929,-17.1896,-2.02148,1.42822,-156.995,220
1568040015,272.579,78.6929,-17.1896,-2.02148,1.42822,-156.995,220
1568040015,272.579,78.6929,-17.1896,-2.02148,1.42822,-156.995,220
1568040015,272.579,78.6929,-17.1896,-2.02148,1.42822,-156.995,220
1568040015,272.579,78.6929,-17.1896,-2.02148,1.42822,-156.995,220
1568040015,272.579,78.6929,-17.1896,-2.02148,1.4502,-156.995,220
1568040015,272.579,78.6929,-17.1896,-2.02148,1.4502,-156.995,220
1568040015,272.579,78.6929,-17.1896,-2.02148,1.4502,-156.995,220
1568040015,272.579,78.6929,-17.1896,-2.02148,1.42822,-156.995,220
1568040015,272.579,78.6929,-17.1896,-2.02148,1.42822,-156.995,220
1568040015,272.579,78.6929,-17.1896,-2.02148,1.42822,-156.995,220
1568040015,272.579,78.6929,-17.1896,-2.02148,1.42822,-156.995,220
1568040015,272.579,78.6929,-17.1896,-2.02148,1.42822,-156.995,220
1568040015,272.579,78.6929,-17.1896,-2.02148,1.42822,-156.995,220
1568040015,272.579,78.6929,-17.1896,-2.02148,1.42822,-156.995,220
1568040015,272.579,78.6929,-17.1896,-2.02148,1.42822,-156.995,220
1568040015,272.579,78.6929,-17.1896,-2.02148,1.42822,-156.995,220
1568040015,272.579,78.6929,-17.1896,-2.02148,1.42822,-156.995,220
1568040015,272.579,78.6929,-17.1896,-2.02148,1.42822,-156.995,220
1568040015,272.579,78.6929,-17.1896,-2.02148,1.42822,-156.995,220
1568040015,272.579,78.6929,-17.1896,-2.02148,1.42822,-156.995,220
1568040015,272.579,78.6929,-17.1896,-2.02148,1.42822,-156.995,220
1568040015,272.579,78.6929,-17.1896,-2.02148,1.4502,-156.995,220
1568040015,272.579,78.6929,-17.1896,-2.02148,1.4502,-156.995,220
1568040015,272.579,78.6929,-17.1896,-2.02148,1.4502,-156.995,220
1568040015,272.579,78.6929,-17.1896,-2.02148,1.4502,-156.995,220
1568040015,272.579,78.6929,-17.1896,-2.02148,1.4502,-156.995,220
1568040015,272.579,78.6929,-17.1896,-2.02148,1.4502,-156.995,220
1568040015,272.579,78.6929,-17.1896,-2.02148,1.4502,-156.995,220
1568040015,272.579,78.6929,-17.1896,-2.02148,1.4502,-156.995,220
1568040015,272.579,78.6929,-17.1896,-2.02148,1.4502,-156.995,220
1568040015,272.579,78.6929,-17.1896,-2.02148,1.4502,-156.995,220
1568040015,272.579,78.6929,-17.1896,-2.02148,1.4502,-156.995,220
1568040015,272.579,78.6929,-17.1896,-2.02148,1.4502,-156.995,220
1568040015,272.579,78.6929,-17.1896,-2.02148,1.4502,-156.973,220
1568040016,272.579,78.6929,-17.1896,-2.02148,1.4502,-156.973,220
1568040016,272.579,78.6929,-17.1896,-2.02148,1.42822,-156.973,220
1568040016,272.579,78.6929,-17.1896,-2.02148,1.42822,-156.973,220
1568040016,272.579,78.6929,-17.1896,-2.02148,1.42822,-156.973,220
1568040016,272.579,78.6929,-17.1896,-2.02148,1.42822,-156.973,220
1568040016,272.579,78.6929,-17.1896,-2.02148,1.42822,-156.973,220
1568040016,272.579,78.6929,-17.1896,-2.02148,1.42822,-156.973,220
1568040016,272.579,78.6929,-17.1896,-2.02148,1.42822,-156.973,220
1568040016,272.579,78.6929,-17.1896,-2.02148,1.42822,-156.973,220
1568040016,272.579,78.6929,-17.1896,-2.02148,1.42822,-156.995,216
1568040016,272.579,78.6929,-17.1896,-2.02148,1.42822,-156.995,216
1568040016,272.579,78.6929,-17.1896,-2.02148,1.42822,-156.995,216
1568040016,272.579,78.6929,-17.1896,-2.02148,1.42822,-156.995,216
1568040016,272.579,78.6929,-17.1896,-2.02148,1.42822,-156.995,216
1568040016,272.579,78.6929,-17.1896,-2.02148,1.42822,-156.995,216
1568040016,272.579,78.6929,-17.1896,-2.02148,1.42822,-156.995,216
1568040016,272.579,78.6929,-17.1896,-2.02148,1.42822,-156.995,216
1568040016,272.579,78.6929,-17.1896,-2.02148,1.42822,-156.995,216
1568040016,272.579,78.6929,-17.1896,-2.02148,1.42822,-156.995,216
1568040016,272.579,78.6929,-17.1896,-2.02148,1.42822,-156.995,216
1568040016,272.579,78.6929,-17.1896,-2.02148,1.42822,-156.995,216
1568040016,272.579,78.6929,-17.1896,-2.02148,1.42822,-156.995,216
1568040016,272.579,78.6929,-17.1896,-2.02148,1.42822,-156.995,216
1568040016,272.579,78.6929,-17.1896,-2.02148,1.42822,-156.995,216
1568040016,272.579,78.6929,-17.1896,-2.02148,1.42822,-156.995,216
1568040016,272.579,78.6929,-17.1896,-2.02148,1.42822,-156.995,216
1568040016,272.579,78.6929,-17.1896,-2.02148,1.4502,-156.995,216
1568040016,272.579,78.6929,-17.1896,-2.02148,1.4502,-156.995,216
1568040016,272.579,78.6929,-17.1896,-2.02148,1.4502,-156.995,216
1568040016,272.579,78.6929,-17.1896,-2.02148,1.4502,-156.995,216
1568040016,272.579,78.6929,-17.1896,-2.02148,1.4502,-156.995,216
1568040016,272.579,78.6929,-17.1896,-2.02148,1.4502,-156.995,216
1568040016,272.579,78.6929,-17.1896,-2.02148,1.4502,-156.995,216
1568040016,272.579,78.6929,-17.1896,-2.02148,1.4502,-156.995,216
1568040016,272.579,78.6929,-17.1896,-2.02148,1.4502,-156.995,216
1568040016,272.579,78.6929,-17.1896,-2.02148,1.4502,-156.995,216
1568040016,272.579,78.6929,-17.1896,-2.02148,1.4502,-156.995,216
1568040016,272.579,78.6929,-17.1896,-2.02148,1.4502,-156.995,216
1568040016,272.579,78.6929,-17.1896,-2.02148,1.4502,-156.995,216
1568040016,272.579,78.6929,-17.1896,-2.02148,1.4502,-156.995,216
1568040016,272.579,78.6929,-17.1896,-2.02148,1.4502,-156.995,216
1568040016,272.579,78.6929,-17.1896,-2.02148,1.4502,-156.995,216
1568040016,272.579,78.6929,-17.1896,-2.02148,1.4502,-156.995,212
1568040016,272.579,78.6929,-17.1896,-2.02148,1.4502,-156.995,212
1568040016,272.579,78.6929,-17.1896,-2.02148,1.4502,-156.995,212
1568040016,272.579,78.6929,-17.1896,-2.02148,1.4502,-156.995,212
1568040016,272.579,78.6929,-17.1896,-1.99951,1.4502,-156.995,212
1568040016,272.579,78.6929,-17.1896,-1.99951,1.4502,-156.995,212
1568040016,272.579,78.6929,-17.1896,-1.99951,1.4502,-156.995,212
1568040016,272.579,78.6929,-17.1896,-1.99951,1.4502,-156.995,212
1568040016,272.579,78.6929,-17.1896,-1.99951,1.4502,-156.995,212
1568040016,272.579,78.6929,-17.1896,-1.99951,1.4502,-156.995,212
1568040016,272.579,78.6929,-17.1896,-1.99951,1.4502,-156.995,212
1568040016,272.579,78.6929,-17.1896,-1.99951,1.4502,-156.995,212
1568040016,272.579,78.6929,-17.1896,-1.99951,1.4502,-156.995,212
1568040016,272.579,78.6929,-17.1896,-1.99951,1.4502,-156.995,212
1568040016,272.579,78.6929,-17.1896,-1.99951,1.4502,-156.995,212
1568040016,272.579,78.6929,-17.1896,-1.99951,1.4502,-156.995,212
1568040016,272.579,78.6929,-17.1896,-1.99951,1.4502,-156.995,212
1568040016,272.579,78.6929,-17.1896,-1.99951,1.4502,-156.995,212
1568040016,272.579,78.6929,-17.1896,-1.99951,1.4502,-156.995,212
1568040016,272.579,78.6929,-17.1896,-1.99951,1.42822,-156.995,212
1568040016,272.579,78.6929,-17.1896,-1.99951,1.42822,-156.995,212
1568040016,272.579,78.6929,-17.1896,-1.99951,1.42822,-156.995,212
1568040016,272.579,78.6929,-17.1896,-1.99951,1.42822,-156.995,212
1568040016,272.579,78.6929,-17.1896,-1.99951,1.42822,-156.995,212
1568040016,272.579,78.6929,-17.1896,-1.99951,1.42822,-156.995,212
1568040016,272.579,78.6929,-17.1896,-1.99951,1.42822,-156.995,212
1568040016,272.579,78.6929,-17.1896,-1.99951,1.42822,-156.995,212
1568040016,272.579,78.6929,-17.1896,-1.99951,1.42822,-156.995,212
1568040016,272.579,78.6929,-17.1896,-1.99951,1.42822,-156.995,212
1568040016,272.579,78.6929,-17.1896,-2.02148,1.42822,-156.995,212
1568040016,272.579,78.6929,-17.1896,-2.02148,1.42822,-156.995,212
1568040016,272.579,78.6929,-17.1896,-2.02148,1.4502,-156.995,212
1568040016,272.579,78.6929,-17.1896,-2.02148,1.4502,-156.995,212
1568040016,272.579,78.6929,-17.1896,-2.02148,1.4502,-156.995,212
1568040016,272.579,78.6929,-17.1896,-1.99951,1.4502,-156.995,212
1568040016,272.579,78.6929,-17.1896,-1.99951,1.4502,-156.995,212
1568040016,272.579,78.6929,-17.1896,-1.99951,1.4502,-156.995,212
1568040016,272.579,78.8045,-17.1896,-1.99951,1.4502,-156.995,212
1568040016,272.579,78.8045,-17.1896,-1.99951,1.4502,-156.995,212
1568040016,272.579,78.8045,-17.1896,-1.99951,1.42822,-156.995,212
1568040016,272.579,78.8045,-17.1896,-1.99951,1.42822,-156.995,212
1568040016,272.579,78.8045,-17.1896,-1.99951,1.42822,-156.995,212
1568040016,272.579,78.8045,-17.1896,-1.99951,1.42822,-156.995,212
1568040016,272.579,78.8045,-17.1896,-1.99951,1.42822,-156.995,212
1568040016,272.579,78.8045,-17.1896,-1.99951,1.42822,-156.995,212
1568040016,272.579,78.8045,-17.1896,-1.99951,1.42822,-156.995,212
1568040016,272.579,78.8045,-17.1896,-1.99951,1.42822,-156.995,212
1568040016,272.579,78.8045,-17.1896,-1.99951,1.42822,-156.995,212
1568040016,272.579,78.8045,-17.1896,-1.99951,1.42822,-156.995,212
1568040016,272.579,78.6929,-17.1896,-1.99951,1.42822,-156.995,212
1568040016,272.579,78.6929,-17.1896,-1.99951,1.42822,-156.995,212
1568040016,272.579,78.6929,-17.1896,-1.99951,1.42822,-156.995,212
1568040016,272.579,78.6929,-17.1896,-1.99951,1.42822,-156.995,212
1568040016,272.579,78.6929,-17.1896,-1.99951,1.42822,-156.995,212
1568040016,272.579,78.6929,-17.1896,-1.99951,1.42822,-156.995,216
1568040016,272.579,78.6929,-17.1896,-1.99951,1.42822,-156.995,216
1568040016,272.579,78.6929,-17.1896,-1.99951,1.42822,-156.995,216
1568040016,272.579,78.6929,-17.1896,-1.99951,1.42822,-156.995,216
1568040017,272.579,78.6929,-17.1896,-1.99951,1.42822,-156.995,216
1568040017,272.579,78.6929,-17.1896,-1.99951,1.42822,-156.995,216
1568040017,272.579,78.6929,-17.1896,-1.99951,1.42822,-156.995,216
1568040017,272.579,78.6929,-17.1896,-2.02148,1.42822,-156.995,216
1568040017,272.579,78.6929,-17.1896,-2.02148,1.42822,-156.995,216
1568040017,272.579,78.6929,-17.1896,-2.02148,1.42822,-156.995,216
1568040017,272.579,78.6929,-17.1896,-2.02148,1.42822,-156.995,216
1568040017,272.579,78.6929,-17.1896,-2.02148,1.42822,-156.995,216
1568040017,272.579,78.6929,-17.1896,-2.02148,1.42822,-156.995,216
1568040017,272.579,78.6929,-17.1896,-2.02148,1.42822,-156.995,216
1568040017,272.579,78.6929,-17.1896,-2.02148,1.42822,-156.995,216
1568040017,272.579,78.6929,-17.1896,-2.02148,1.42822,-156.995,216
1568040017,272.579,78.6929,-17.1896,-2.02148,1.42822,-156.995,212
1568040017,272.579,78.6929,-17.1896,-2.02148,1.42822,-156.995,212
1568040017,272.579,78.6929,-17.1896,-2.02148,1.42822,-156.995,212
1568040017,272.579,78.6929,-17.1896,-2.02148,1.42822,-156.995,212
1568040017,272.579,78.6929,-17.1896,-2.02148,1.42822,-156.995,212
1568040017,272.579,78.6929,-17.1896,-2.02148,1.42822,-156.995,212
1568040017,272.579,78.6929,-17.1896,-2.02148,1.42822,-156.995,212
1568040017,272.579,78.6929,-17.1896,-2.02148,1.42822,-156.995,212
1568040017,272.579,78.6929,-17.1896,-2.04346,1.42822,-156.995,212
1568040017,272.579,78.6929,-17.1896,-2.04346,1.42822,-156.995,212
1568040017,272.579,78.6929,-17.1896,-2.04346,1.42822,-156.995,212
1568040017,272.579,78.6929,-17.1896,-2.04346,1.42822,-156.995,212
1568040017,272.579,78.6929,-17.1896,-2.04346,1.42822,-156.995,212
1568040017,272.579,78.6929,-17.1896,-2.02148,1.42822,-156.995,212
1568040017,272.579,78.6929,-17.1896,-2.02148,1.42822,-156.995,212
1568040017,272.579,78.6929,-17.1896,-2.02148,1.42822,-156.995,212
1568040017,272.579,78.6929,-17.1896,-2.02148,1.42822,-156.995,212
1568040017,272.579,78.6929,-17.1896,-2.02148,1.42822,-156.995,212
1568040017,272.579,78.6929,-17.1896,-2.02148,1.42822,-156.995,212
1568040017,272.579,78.6929,-17.1896,-2.02148,1.42822,-156.995,212
1568040017,272.579,78.6929,-17.1896,-2.02148,1.42822,-156.995,212
1568040017,272.579,78.6929,-17.1896,-2.02148,1.42822,-156.995,212
1568040017,272.579,78.6929,-17.1896,-2.02148,1.42822,-156.995,212
1568040017,272.579,78.6929,-17.1896,-2.02148,1.4502,-156.995,212
1568040017,272.579,78.6929,-17.1896,-2.02148,1.4502,-156.995,212
1568040017,272.579,78.6929,-17.1896,-2.02148,1.4502,-156.995,212
1568040017,272.579,78.6929,-17.1896,-2.02148,1.4502,-156.995,212
1568040017,272.579,78.6929,-17.1896,-2.02148,1.4502,-156.995,212
1568040017,272.579,78.6929,-17.1896,-2.02148,1.4502,-156.995,212
1568040017,272.579,78.6929,-17.1896,-2.02148,1.4502,-156.995,216
1568040017,272.579,78.6929,-17.1896,-2.02148,1.4502,-156.995,216
1568040017,272.579,78.6929,-17.1896,-2.02148,1.4502,-156.995,216
1568040017,272.579,78.6929,-17.1896,-2.02148,1.4502,-156.995,216
1568040017,272.579,78.6929,-17.1896,-2.02148,1.4502,-156.995,216
1568040017,272.579,78.6929,-17.1896,-2.02148,1.4502,-156.995,216
1568040017,272.579,78.6929,-17.1896,-2.02148,1.4502,-156.995,216
1568040017,272.579,78.6929,-17.1896,-2.02148,1.4502,-156.995,216
1568040017,272.579,78.6929,-17.1896,-2.02148,1.4502,-156.995,216
1568040017,272.579,78.6929,-17.1896,-2.02148,1.42822,-156.995,216
1568040017,272.579,78.6929,-17.1896,-2.02148,1.42822,-156.995,216
1568040017,272.579,78.6929,-17.1896,-2.02148,1.42822,-156.995,216
1568040017,272.579,78.6929,-17.1896,-2.02148,1.42822,-156.995,216
1568040017,272.579,78.6929,-17.1896,-2.02148,1.42822,-156.995,216
1568040017,272.579,78.6929,-17.1896,-2.02148,1.42822,-156.995,216
1568040017,272.579,78.6929,-17.1896,-2.02148,1.42822,-156.995,216
1568040017,272.579,78.6929,-17.1896,-2.02148,1.42822,-156.995,216
1568040017,272.579,78.6929,-17.1896,-2.02148,1.42822,-156.995,216
1568040017,272.579,78.6929,-17.1896,-2.02148,1.42822,-156.995,216
1568040017,272.579,78.6929,-17.1896,-2.02148,1.42822,-156.995,216
1568040017,272.579,78.6929,-17.1896,-2.02148,1.42822,-156.995,216
1568040017,272.579,78.6929,-17.1896,-2.02148,1.42822,-156.995,216
1568040017,272.579,78.6929,-17.1896,-2.02148,1.42822,-156.995,216
1568040017,272.579,78.6929,-17.1896,-2.02148,1.42822,-156.995,216
1568040017,272.579,78.6929,-17.1896,-2.02148,1.42822,-156.995,216
1568040017,272.579,78.6929,-17.1896,-2.02148,1.42822,-156.995,216
1568040017,272.579,78.6929,-17.1896,-2.02148,1.42822,-156.995,216
1568040017,272.579,78.6929,-17.1896,-2.02148,1.42822,-156.995,216
1568040017,272.579,78.6929,-17.1896,-2.04346,1.42822,-156.995,212
1568040017,272.579,78.6929,-17.1896,-2.04346,1.42822,-156.995,212
1568040017,272.579,78.6929,-17.1896,-2.04346,1.42822,-156.995,212
1568040017,272.579,78.6929,-17.1896,-2.04346,1.42822,-156.995,216
1568040017,272.579,78.6929,-17.1896,-2.04346,1.42822,-156.995,216
1568040017,272.579,78.6929,-17.1896,-2.04346,1.42822,-156.995,216
1568040017,272.579,78.6929,-17.1896,-2.04346,1.42822,-156.995,216
1568040017,272.579,78.6929,-17.1896,-2.04346,1.4502,-156.995,216
1568040017,272.579,78.6929,-17.1896,-2.04346,1.4502,-156.995,216
1568040017,272.579,78.6929,-17.1896,-2.04346,1.4502,-156.995,216
1568040017,272.579,78.6929,-17.1896,-2.04346,1.4502,-156.995,216
1568040017,272.579,78.6929,-17.1896,-2.04346,1.4502,-156.995,216
1568040017,272.579,78.6929,-17.1896,-2.04346,1.4502,-156.995,216
1568040017,272.579,78.6929,-17.1896,-2.04346,1.4502,-156.995,216
1568040017,272.579,78.6929,-17.1896,-2.04346,1.4502,-156.995,216
1568040017,272.579,78.6929,-17.1896,-2.04346,1.4502,-156.995,216
1568040017,272.579,78.6929,-17.1896,-2.04346,1.4502,-156.995,216
1568040017,272.579,78.6929,-17.1896,-2.04346,1.4502,-156.995,216
1568040017,272.579,78.6929,-17.1896,-2.04346,1.4502,-156.995,216
1568040017,272.579,78.6929,-17.1896,-2.04346,1.4502,-156.995,216
1568040017,272.579,78.6929,-17.1896,-2.04346,1.4502,-156.995,216
1568040017,272.579,78.6929,-17.1896,-2.04346,1.4502,-156.995,216
1568040017,272.579,78.6929,-17.1896,-2.04346,1.4502,-156.995,216
1568040017,272.579,78.6929,-17.1896,-2.04346,1.4502,-156.995,216
1568040017,272.579,78.6929,-17.1896,-2.04346,1.4502,-156.995,216
1568040017,272.579,78.6929,-17.1896,-2.04346,1.4502,-156.995,216
1568040017,272.579,78.6929,-17.1896,-2.04346,1.4502,-156.995,216
1568040017,272.579,78.6929,-17.1896,-2.04346,1.4502,-156.995,216
1568040017,272.579,78.6929,-17.1896,-2.04346,1.4502,-156.995,216
1568040017,272.579,78.6929,-17.1896,-2.04346,1.4502,-156.995,216
1568040017,272.579,78.6929,-17.1896,-2.04346,1.4502,-156.995,216
1568040018,272.579,78.6929,-17.1896,-2.04346,1.4502,-156.995,216
1568040018,272.579,78.6929,-17.1896,-2.04346,1.4502,-156.995,216
1568040018,272.579,78.6929,-17.1896,-2.04346,1.4502,-156.995,216
1568040018,272.579,78.6929,-17.1896,-2.04346,1.4502,-156.995,216
1568040018,272.579,78.6929,-17.1896,-2.04346,1.4502,-156.995,216
1568040018,272.579,78.6929,-17.1896,-2.04346,1.4502,-156.995,216
1568040018,272.579,78.6929,-17.1896,-2.04346,1.4502,-156.995,216
1568040018,272.579,78.6929,-17.1896,-2.04346,1.42822,-156.995,216
1568040018,272.579,78.6929,-17.1896,-2.02148,1.42822,-156.995,216
1568040018,272.579,78.6929,-17.1896,-2.02148,1.42822,-156.995,216
1568040018,272.579,78.6929,-17.1896,-2.02148,1.42822,-156.995,216
1568040018,272.579,78.6929,-17.1896,-2.02148,1.42822,-156.995,216
1568040018,272.579,78.6929,-17.1896,-2.02148,1.42822,-156.995,216
1568040018,272.579,78.6929,-17.1896,-2.02148,1.42822,-156.995,216
1568040018,272.579,78.6929,-17.1896,-2.02148,1.42822,-156.995,212
1568040018,272.579,78.6929,-17.1896,-2.02148,1.42822,-156.995,212
1568040018,272.579,78.6929,-17.1896,-2.02148,1.42822,-156.995,212
1568040018,272.579,78.6929,-17.1896,-2.02148,1.42822,-156.995,212
1568040018,272.579,78.6929,-17.1896,-2.02148,1.42822,-156.995,212
1568040018,272.579,78.6929,-17.1896,-2.02148,1.42822,-156.995,212
1568040018,272.579,78.6929,-17.1896,-2.02148,1.42822,-156.995,212
1568040018,272.579,78.6929,-17.1896,-2.02148,1.42822,-156.995,212
1568040018,272.579,78.6929,-17.1896,-2.02148,1.42822,-156.995,212
1568040018,272.579,78.6929,-17.1896,-2.02148,1.42822,-156.995,212
1568040018,272.579,78.6929,-17.1896,-2.02148,1.42822,-156.995,212
1568040018,272.579,78.6929,-17.1896,-2.02148,1.42822,-156.995,212
1568040018,272.579,78.6929,-17.1896,-2.02148,1.42822,-156.995,212
1568040018,272.579,78.6929,-17.1896,-2.02148,1.42822,-156.995,212
1568040018,272.579,78.6929,-17.1896,-2.02148,1.42822,-156.995,212
1568040018,272.579,78.6929,-17.1896,-2.02148,1.42822,-156.995,212
1568040018,272.579,78.6929,-17.1896,-2.02148,1.42822,-156.995,212
1568040018,272.579,78.6929,-17.1896,-2.02148,1.42822,-156.995,212
1568040018,272.579,78.6929,-17.1896,-2.04346,1.42822,-156.995,212
1568040018,272.579,78.6929,-17.1896,-2.04346,1.42822,-156.995,212
1568040018,272.579,78.6929,-17.1896,-2.04346,1.42822,-156.995,212
1568040018,272.579,78.6929,-17.1896,-2.04346,1.42822,-156.995,212
1568040018,272.579,78.6929,-17.1896,-2.02148,1.42822,-156.995,212
1568040018,272.579,78.6929,-17.1896,-2.02148,1.42822,-156.995,212
1568040018,272.579,78.6929,-17.1896,-2.04346,1.42822,-156.995,212
1568040018,272.579,78.6929,-17.1896,-2.04346,1.42822,-156.995,212
1568040018,272.579,78.6929,-17.1896,-2.04346,1.42822,-156.995,212
1568040018,272.579,78.6929,-17.1896,-2.04346,1.42822,-156.995,212
1568040018,272.579,78.6929,-17.1896,-2.04346,1.4502,-156.995,212
1568040018,272.579,78.6929,-17.1896,-2.04346,1.4502,-156.995,212
1568040018,272.579,78.6929,-17.1896,-2.04346,1.4502,-156.995,212
1568040018,272.579,78.6929,-17.1896,-2.04346,1.4502,-156.995,212
1568040018,272.579,78.6929,-17.1896,-2.04346,1.4502,-156.995,212
1568040018,272.579,78.6929,-17.1896,-2.04346,1.4502,-156.995,212
1568040018,272.579,78.6929,-17.1896,-2.04346,1.4502,-156.995,212
1568040018,272.579,78.6929,-17.1896,-2.04346,1.4502,-156.995,212
1568040018,272.579,78.6929,-17.1896,-2.04346,1.4502,-156.995,212
1568040018,272.579,78.6929,-17.1896,-2.04346,1.4502,-156.995,212
1568040018,272.579,78.6929,-17.1896,-2.04346,1.4502,-156.995,212
1568040018,272.579,78.6929,-17.1896,-2.02148,1.42822,-156.995,212
1568040018,272.579,78.6929,-17.1896,-2.02148,1.42822,-156.995,212
1568040018,272.579,78.6929,-17.1896,-2.02148,1.42822,-156.995,212
1568040018,272.579,78.6929,-17.1896,-2.02148,1.42822,-156.995,212
1568040018,272.579,78.6929,-17.1896,-2.02148,1.42822,-156.995,212
1568040018,272.579,78.6929,-17.1896,-2.02148,1.42822,-156.995,212
1568040018,272.579,78.6929,-17.1896,-2.02148,1.42822,-156.995,212
1568040018,272.579,78.6929,-17.1896,-2.02148,1.42822,-156.995,212
1568040018,272.579,78.6929,-17.1896,-2.02148,1.42822,-156.995,212
1568040018,272.579,78.6929,-17.1896,-2.02148,1.42822,-156.995,212
1568040018,272.579,78.6929,-17.1896,-2.02148,1.42822,-156.995,212
1568040018,272.579,78.6929,-17.1896,-2.02148,1.42822,-156.995,212
1568040018,272.579,78.6929,-17.1896,-2.02148,1.42822,-156.995,212
1568040018,272.579,78.6929,-17.1896,-2.02148,1.42822,-156.995,212
1568040018,272.579,78.6929,-17.1896,-2.02148,1.42822,-156.995,212
1568040018,272.579,78.6929,-17.1896,-2.02148,1.42822,-156.995,212
1568040018,272.579,78.6929,-17.1896,-2.02148,1.42822,-156.995,212
1568040018,272.579,78.6929,-17.1896,-2.02148,1.42822,-156.995,212
1568040018,272.579,78.6929,-17.1896,-2.02148,1.42822,-156.995,212
1568040018,272.579,78.6929,-17.1896,-2.02148,1.42822,-156.995,212
1568040018,272.579,78.6929,-17.1896,-2.02148,1.42822,-156.995,212
1568040018,272.579,78.6929,-17.1896,-2.02148,1.42822,-156.995,212
1568040018,272.579,78.6929,-17.1896,-2.02148,1.42822,-156.995,212
1568040018,272.579,78.6929,-17.1896,-2.02148,1.42822,-156.995,212
1568040018,272.579,78.6929,-17.1896,-2.02148,1.42822,-156.995,212
1568040018,272.579,78.6929,-17.1896,-2.02148,1.42822,-156.995,212
1568040018,272.579,78.6929,-17.1896,-2.02148,1.42822,-156.995,212
1568040018,272.579,78.6929,-17.1896,-2.02148,1.42822,-156.995,212
1568040018,272.579,78.6929,-17.1896,-2.02148,1.42822,-156.995,212
1568040018,272.579,78.6929,-17.1896,-2.02148,1.42822,-156.995,212
1568040018,272.579,78.6929,-17.1896,-2.02148,1.42822,-156.995,212
1568040018,272.579,78.6929,-17.1896,-2.02148,1.42822,-156.995,216
1568040018,272.579,78.6929,-17.1896,-2.02148,1.42822,-156.995,216
1568040018,272.579,78.6929,-17.1896,-2.02148,1.42822,-156.995,216
1568040018,272.579,78.6929,-17.1896,-2.02148,1.42822,-156.995,216
1568040018,272.579,78.6929,-17.1896,-2.02148,1.42822,-156.995,216
1568040018,272.579,78.6929,-17.1896,-2.02148,1.42822,-156.995,216
1568040018,272.579,78.6929,-17.1896,-2.02148,1.42822,-156.995,216
1568040018,272.579,78.6929,-17.1896,-2.02148,1.42822,-156.995,216
1568040018,272.579,78.6929,-17.1896,-2.02148,1.42822,-156.995,216
1568040018,272.579,78.6929,-17.1896,-2.02148,1.42822,-156.995,216
1568040018,272.579,78.6929,-17.1896,-2.02148,1.42822,-156.995,216
1568040018,272.579,78.6929,-17.1896,-2.02148,1.42822,-156.995,216
1568040018,272.579,78.6929,-17.1896,-2.02148,1.42822,-156.995,216
1568040018,272.579,78.6929,-17.1896,-2.02148,1.42822,-156.995,216
1568040018,272.579,78.6929,-17.1896,-2.02148,1.42822,-156.995,212
1568040018,272.579,78.6929,-17.1896,-2.02148,1.42822,-156.995,212
1568040019,272.579,78.6929,-17.1896,-2.02148,1.42822,-156.995,212
1568040019,272.579,78.6929,-17.1896,-2.02148,1.42822,-156.995,212
1568040019,272.579,78.6929,-17.1896,-2.02148,1.42822,-156.995,212
1568040019,272.579,78.6929,-17.1896,-2.02148,1.42822,-156.995,212
1568040019,272.579,78.6929,-17.1896,-2.02148,1.42822,-156.995,212
1568040019,272.579,78.6929,-17.1896,-2.02148,1.42822,-156.995,212
1568040019,272.579,78.6929,-17.1896,-2.02148,1.42822,-156.995,212
1568040019,272.579,78.6929,-17.1896,-2.02148,1.42822,-156.995,212
1568040019,272.579,78.6929,-17.1896,-2.02148,1.42822,-156.995,212
1568040019,272.579,78.6929,-17.1896,-2.02148,1.42822,-156.995,212
1568040019,272.579,78.6929,-17.1896,-2.02148,1.42822,-156.995,212
1568040019,272.579,78.6929,-17.1896,-2.02148,1.42822,-156.995,212
1568040019,272.579,78.6929,-17.1896,-2.02148,1.42822,-156.995,212
1568040019,272.579,78.6929,-17.1896,-2.02148,1.42822,-156.995,212
1568040019,272.579,78.6929,-17.1896,-2.02148,1.42822,-156.995,212
1568040019,272.579,78.6929,-17.1896,-2.02148,1.42822,-156.995,212
1568040019,272.579,78.6929,-17.1896,-2.02148,1.42822,-156.995,212
1568040019,272.579,78.6929,-17.1896,-2.02148,1.42822,-156.995,212
1568040019,272.579,78.6929,-17.1896,-2.02148,1.42822,-156.995,212
1568040019,272.579,78.6929,-17.1896,-2.02148,1.42822,-156.995,212
1568040019,272.579,78.6929,-17.1896,-2.02148,1.42822,-156.995,212
1568040019,272.579,78.6929,-17.1896,-2.02148,1.42822,-156.995,212
1568040019,272.579,78.6929,-17.1896,-2.02148,1.42822,-156.995,212
1568040019,272.579,78.6929,-17.1896,-2.02148,1.42822,-156.995,212
1568040019,272.579,78.6929,-17.1896,-2.02148,1.42822,-156.995,212
1568040019,272.579,78.6929,-17.1896,-2.02148,1.42822,-156.995,212
1568040019,272.579,78.6929,-17.1896,-2.02148,1.42822,-156.995,212
1568040019,272.579,78.6929,-17.1896,-2.02148,1.42822,-156.995,212
1568040019,272.579,78.6929,-17.1896,-2.02148,1.42822,-156.995,212
1568040019,272.579,78.6929,-17.1896,-2.02148,1.42822,-156.995,212
1568040019,272.579,78.6929,-17.1896,-2.02148,1.42822,-156.995,212
1568040019,272.579,78.6929,-17.1896,-2.02148,1.42822,-156.995,212
1568040019,272.579,78.6929,-17.1896,-2.02148,1.42822,-156.995,212
1568040019,272.579,78.6929,-17.1896,-2.02148,1.42822,-156.995,212
1568040019,272.579,78.6929,-17.1896,-2.02148,1.42822,-156.995,212
1568040019,272.579,78.6929,-17.1896,-2.02148,1.42822,-156.995,208
1568040019,272.579,78.6929,-17.1896,-2.02148,1.42822,-156.995,208
1568040019,272.579,78.6929,-17.1896,-2.02148,1.42822,-156.995,208
1568040019,272.579,78.6929,-17.1896,-2.02148,1.42822,-156.995,208
1568040019,272.579,78.6929,-17.1896,-2.02148,1.42822,-156.995,208
1568040019,272.579,78.6929,-17.1896,-2.02148,1.42822,-156.995,208
1568040019,272.579,78.6929,-17.1896,-2.02148,1.42822,-156.995,208
1568040019,272.579,78.6929,-17.1896,-2.02148,1.42822,-156.995,208
1568040019,272.579,78.6929,-17.1896,-2.02148,1.42822,-156.995,208
1568040019,272.579,78.6929,-17.1896,-2.02148,1.42822,-156.995,208
1568040019,272.579,78.6929,-17.1896,-2.02148,1.42822,-156.995,208
1568040019,272.579,78.6929,-17.1896,-2.02148,1.42822,-156.995,208
1568040019,272.579,78.6929,-17.1896,-2.02148,1.42822,-156.995,208
1568040019,272.579,78.6929,-17.1896,-2.02148,1.42822,-156.995,208
1568040019,272.579,78.6929,-17.1896,-2.02148,1.42822,-156.995,208
1568040019,272.579,78.6929,-17.1896,-2.02148,1.42822,-156.995,208
1568040019,272.579,78.6929,-17.1896,-2.02148,1.42822,-156.995,208
1568040019,272.579,78.6929,-17.1896,-2.02148,1.42822,-156.995,208
1568040019,272.579,78.6929,-17.1896,-2.02148,1.42822,-156.995,208
1568040019,272.579,78.6929,-17.1896,-2.02148,1.42822,-156.995,208
1568040019,272.579,78.6929,-17.1896,-2.02148,1.42822,-156.995,208
1568040019,272.579,78.6929,-17.1896,-2.02148,1.42822,-156.995,208
1568040019,272.579,78.6929,-17.1896,-2.02148,1.42822,-156.995,208
1568040019,272.579,78.6929,-17.1896,-2.02148,1.42822,-156.995,208
1568040019,272.579,78.6929,-17.1896,-2.02148,1.42822,-156.995,208
1568040019,272.579,78.6929,-17.1896,-2.02148,1.42822,-156.995,208
1568040019,272.579,78.6929,-17.1896,-2.02148,1.42822,-156.995,212
1568040019,272.579,78.6929,-17.1896,-2.02148,1.42822,-156.995,212
1568040019,272.579,78.6929,-17.1896,-2.02148,1.42822,-156.995,212
1568040019,272.579,78.6929,-17.1896,-2.02148,1.42822,-156.995,212
1568040019,272.579,78.6929,-17.1896,-2.02148,1.42822,-156.995,212
1568040019,272.579,78.6929,-17.1896,-2.02148,1.42822,-156.995,212
1568040019,272.579,78.6929,-17.1896,-2.02148,1.42822,-156.995,212
1568040019,272.579,78.6929,-17.1896,-2.02148,1.42822,-156.995,212
1568040019,272.579,78.6929,-17.1896,-2.02148,1.42822,-156.995,212
1568040019,272.579,78.6929,-17.1896,-2.02148,1.42822,-156.995,216
1568040019,272.579,78.6929,-17.1896,-2.02148,1.42822,-156.995,216
1568040019,272.579,78.6929,-17.1896,-2.02148,1.42822,-156.995,216
1568040019,272.579,78.6929,-17.1896,-2.02148,1.42822,-156.995,216
1568040019,272.579,78.6929,-17.1896,-2.02148,1.42822,-156.995,216
1568040019,272.579,78.6929,-17.1896,-2.02148,1.42822,-156.995,216
1568040019,272.579,78.6929,-17.1896,-2.02148,1.42822,-156.995,216
1568040019,272.579,78.6929,-17.1896,-2.02148,1.42822,-156.995,216
1568040019,272.579,78.6929,-17.1896,-2.02148,1.42822,-156.995,216
1568040019,272.579,78.6929,-17.1896,-2.02148,1.42822,-156.995,216
1568040019,272.579,78.6929,-17.1896,-2.02148,1.42822,-156.995,216
1568040019,272.579,78.6929,-17.1896,-2.02148,1.42822,-156.995,216
1568040019,272.579,78.6929,-17.1896,-2.02148,1.42822,-156.995,220
1568040019,272.579,78.6929,-17.1896,-2.02148,1.42822,-156.995,220
1568040019,272.579,78.6929,-17.1896,-2.02148,1.42822,-156.995,220
1568040019,272.579,78.6929,-17.1896,-2.02148,1.42822,-156.995,220
1568040019,272.579,78.6929,-17.1896,-2.02148,1.42822,-156.995,220
1568040019,272.579,78.6929,-17.1896,-2.02148,1.42822,-156.995,220
1568040019,272.579,78.6929,-17.1896,-2.02148,1.42822,-156.995,220
1568040019,272.579,78.6929,-17.1896,-2.02148,1.42822,-156.995,220
1568040019,272.579,78.6929,-17.1896,-2.02148,1.42822,-156.995,220
1568040019,272.579,78.6929,-17.1896,-2.02148,1.42822,-156.995,220
1568040019,272.579,78.6929,-17.1896,-2.02148,1.42822,-156.995,220
1568040019,272.579,78.6929,-17.1896,-2.02148,1.42822,-156.995,216
1568040019,272.579,78.6929,-17.1896,-2.02148,1.42822,-156.995,216
1568040019,272.579,78.6929,-17.1896,-2.02148,1.42822,-156.995,216
1568040019,272.579,78.6929,-17.1896,-2.02148,1.42822,-156.995,216
1568040019,272.579,78.6929,-17.1896,-2.02148,1.42822,-156.995,216
1568040019,272.579,78.6929,-17.1896,-2.02148,1.42822,-156.995,216
1568040019,272.579,78.6929,-17.1896,-2.02148,1.42822,-156.995,216
1568040020,272.579,78.6929,-17.1896,-2.02148,1.42822,-156.995,216
1568040020,272.579,78.6929,-17.1896,-2.02148,1.42822,-156.995,216
1568040020,272.579,78.6929,-17.1896,-2.02148,1.42822,-156.995,216
1568040020,272.579,78.6929,-17.1896,-2.02148,1.42822,-156.995,216
1568040020,272.579,78.6929,-17.1896,-2.02148,1.42822,-156.995,216
1568040020,272.579,78.6929,-17.1896,-1.99951,1.42822,-156.995,216
1568040020,272.579,78.6929,-17.1896,-1.99951,1.42822,-156.995,216
1568040020,272.579,78.6929,-17.1896,-1.99951,1.42822,-156.995,216
1568040020,272.579,78.6929,-17.1896,-1.99951,1.42822,-156.995,216
1568040020,272.579,78.6929,-17.1896,-1.99951,1.42822,-156.995,216
1568040020,272.579,78.6929,-17.1896,-1.99951,1.42822,-156.995,216
1568040020,272.579,78.6929,-17.1896,-1.99951,1.42822,-156.995,216
1568040020,272.579,78.6929,-17.1896,-1.99951,1.42822,-156.995,216
1568040020,272.579,78.6929,-17.1896,-1.99951,1.42822,-156.995,216
1568040020,272.579,78.6929,-17.1896,-1.99951,1.42822,-156.995,216
1568040020,272.579,78.6929,-17.1896,-1.99951,1.42822,-156.995,216
1568040020,272.579,78.6929,-17.1896,-2.02148,1.42822,-156.995,216
1568040020,272.579,78.6929,-17.1896,-2.02148,1.42822,-156.995,216
1568040020,272.579,78.6929,-17.1896,-2.02148,1.42822,-156.995,216
1568040027,257.175,94.9895,-17.3013,-2.0874,1.23047,-156.775,208
1568040027,257.175,94.9895,-17.3013,-2.0874,1.23047,-156.775,208
1568040027,257.175,94.9895,-17.3013,-2.0874,1.23047,-156.775,208
1568040027,257.175,94.9895,-17.3013,-2.0874,1.23047,-156.775,208
1568040027,257.287,94.9895,-17.3013,-2.0874,1.23047,-156.775,204
1568040027,257.287,94.9895,-17.3013,-2.0874,1.23047,-156.775,204
1568040027,257.287,94.9895,-17.3013,-2.0874,1.23047,-156.753,204
1568040027,257.287,94.9895,-17.3013,-2.0874,1.23047,-156.753,204
1568040027,257.287,94.9895,-17.3013,-2.0874,1.23047,-156.753,204
1568040027,257.287,94.9895,-17.3013,-2.0874,1.23047,-156.753,204
1568040027,257.287,94.9895,-17.3013,-2.0874,1.23047,-156.753,204
1568040027,257.287,94.9895,-17.3013,-2.0874,1.23047,-156.753,204
1568040027,257.287,94.9895,-17.3013,-2.0874,1.23047,-156.753,204
1568040027,257.287,94.9895,-17.3013,-2.0874,1.23047,-156.775,204
1568040027,257.287,94.9895,-17.3013,-2.0874,1.23047,-156.775,204
1568040027,257.175,94.9895,-17.3013,-2.0874,1.23047,-156.775,204
1568040027,257.175,94.9895,-17.3013,-2.0874,1.23047,-156.775,204
1568040027,257.175,94.9895,-17.3013,-2.0874,1.23047,-156.775,204
1568040027,257.175,94.9895,-17.3013,-2.0874,1.25244,-156.775,204
1568040027,257.175,94.9895,-17.3013,-2.0874,1.25244,-156.775,204
1568040027,257.175,94.9895,-17.3013,-2.0874,1.25244,-156.775,208
1568040027,257.175,94.9895,-17.3013,-2.0874,1.25244,-156.775,208
1568040027,257.175,94.9895,-17.3013,-2.0874,1.25244,-156.775,208
1568040027,257.175,94.9895,-17.3013,-2.0874,1.25244,-156.775,208
1568040027,257.175,94.9895,-17.3013,-2.0874,1.25244,-156.775,208
1568040027,257.175,94.9895,-17.3013,-2.0874,1.25244,-156.775,208
1568040027,257.175,94.9895,-17.3013,-2.0874,1.25244,-156.775,208
1568040027,257.175,94.9895,-17.3013,-2.0874,1.25244,-156.775,208
1568040027,257.175,94.9895,-17.3013,-2.0874,1.25244,-156.775,208
1568040027,257.175,94.9895,-17.3013,-2.0874,1.25244,-156.775,208
1568040027,257.175,94.9895,-17.3013,-2.0874,1.25244,-156.775,208
1568040027,257.175,94.9895,-17.3013,-2.0874,1.25244,-156.775,208
1568040027,257.175,94.9895,-17.3013,-2.0874,1.25244,-156.775,208
1568040027,257.175,94.9895,-17.3013,-2.0874,1.25244,-156.775,208
1568040027,257.175,94.9895,-17.3013,-2.0874,1.25244,-156.775,208
1568040027,257.175,94.9895,-17.3013,-2.0874,1.25244,-156.775,208
1568040027,257.175,94.9895,-17.3013,-2.0874,1.23047,-156.775,212
1568040027,257.175,94.9895,-17.3013,-2.0874,1.23047,-156.775,212
1568040027,257.175,94.9895,-17.3013,-2.0874,1.23047,-156.775,212
1568040027,257.175,94.9895,-17.3013,-2.0874,1.23047,-156.775,212
1568040027,257.175,94.9895,-17.3013,-2.0874,1.25244,-156.775,212
1568040027,257.175,94.9895,-17.3013,-2.0874,1.25244,-156.775,212
1568040027,257.175,94.9895,-17.3013,-2.0874,1.25244,-156.775,212
1568040027,257.175,94.9895,-17.3013,-2.0874,1.25244,-156.775,212
1568040027,257.175,94.9895,-17.3013,-2.0874,1.25244,-156.775,212
1568040027,257.175,94.9895,-17.3013,-2.0874,1.25244,-156.775,212
1568040027,257.175,94.9895,-17.3013,-2.0874,1.25244,-156.775,212
1568040027,257.175,94.9895,-17.3013,-2.0874,1.25244,-156.775,212
1568040027,257.175,94.9895,-17.3013,-2.0874,1.25244,-156.775,212
1568040027,257.175,94.9895,-17.3013,-2.0874,1.25244,-156.775,212
1568040027,257.175,94.9895,-17.3013,-2.0874,1.25244,-156.775,212
1568040027,257.175,94.9895,-17.3013,-2.0874,1.25244,-156.775,212
1568040027,257.175,94.9895,-17.3013,-2.0874,1.25244,-156.775,212
1568040027,257.175,94.9895,-17.3013,-2.0874,1.25244,-156.775,212
1568040027,257.175,94.9895,-17.3013,-2.0874,1.25244,-156.775,212
1568040027,257.175,94.9895,-17.3013,-2.0874,1.25244,-156.775,212
1568040027,257.175,94.9895,-17.3013,-2.0874,1.25244,-156.775,212
1568040027,257.175,94.9895,-17.3013,-2.0874,1.25244,-156.775,212
1568040027,257.175,94.9895,-17.3013,-2.0874,1.25244,-156.775,212
1568040027,257.175,94.9895,-17.3013,-2.0874,1.25244,-156.775,212
1568040027,257.175,94.9895,-17.3013,-2.0874,1.25244,-156.775,212
1568040027,257.175,94.9895,-17.3013,-2.0874,1.25244,-156.775,212
1568040027,257.175,94.9895,-17.3013,-2.0874,1.25244,-156.775,212
1568040027,257.175,94.9895,-17.3013,-2.0874,1.25244,-156.775,212
1568040027,257.175,94.9895,-17.3013,-2.0874,1.25244,-156.775,212
1568040027,257.175,94.9895,-17.3013,-2.0874,1.25244,-156.775,212
1568040027,257.175,94.9895,-17.3013,-2.0874,1.25244,-156.775,212
1568040027,257.175,94.9895,-17.3013,-2.0874,1.25244,-156.775,212
1568040027,257.175,94.9895,-17.3013,-2.0874,1.25244,-156.775,212
1568040027,257.175,94.9895,-17.3013,-2.0874,1.23047,-156.775,212
1568040027,257.175,94.9895,-17.3013,-2.0874,1.23047,-156.775,212
1568040027,257.175,94.9895,-17.3013,-2.0874,1.23047,-156.775,208
1568040027,257.175,94.9895,-17.3013,-2.0874,1.23047,-156.775,208
1568040027,257.175,94.9895,-17.3013,-2.0874,1.23047,-156.775,208
1568040027,257.175,94.9895,-17.3013,-2.0874,1.23047,-156.775,208
1568040027,257.175,94.9895,-17.3013,-2.0874,1.23047,-156.775,208
1568040027,257.175,94.9895,-17.3013,-2.0874,1.23047,-156.775,208
1568040027,257.175,94.9895,-17.3013,-2.0874,1.23047,-156.775,208
1568040027,257.175,94.9895,-17.3013,-2.0874,1.23047,-156.775,208
1568040027,257.175,94.9895,-17.3013,-2.0874,1.23047,-156.775,208
1568040027,257.175,94.9895,-17.3013,-2.0874,1.23047,-156.775,208
1568040027,257.175,94.9895,-17.3013,-2.0874,1.23047,-156.775,208
1568040027,257.175,94.9895,-17.3013,-2.0874,1.23047,-156.775,208
1568040027,257.175,94.9895,-17.3013,-2.0874,1.23047,-156.775,208
1568040027,257.175,94.9895,-17.3013,-2.0874,1.25244,-156.775,208
1568040027,257.175,94.9895,-17.3013,-2.0874,1.25244,-156.775,208
1568040027,257.175,94.9895,-17.3013,-2.0874,1.25244,-156.775,208
1568040027,257.175,94.9895,-17.3013,-2.0874,1.25244,-156.775,208
1568040027,257.175,94.9895,-17.3013,-2.0874,1.25244,-156.775,208
1568040027,257.175,94.9895,-17.3013,-2.0874,1.25244,-156.775,208
1568040027,257.175,94.9895,-17.3013,-2.0874,1.25244,-156.775,212
1568040027,257.175,94.9895,-17.3013,-2.0874,1.25244,-156.775,212
1568040027,257.175,94.9895,-17.3013,-2.0874,1.25244,-156.775,212
1568040027,257.175,94.9895,-17.3013,-2.0874,1.25244,-156.775,212
1568040027,257.175,94.9895,-17.3013,-2.0874,1.25244,-156.775,212
1568040027,257.175,94.9895,-17.3013,-2.0874,1.25244,-156.775,212
1568040027,257.175,94.9895,-17.3013,-2.0874,1.25244,-156.775,212
1568040027,257.175,94.9895,-17.3013,-2.0874,1.25244,-156.775,212
1568040027,257.175,94.9895,-17.3013,-2.0874,1.25244,-156.775,212
1568040027,257.175,94.9895,-17.3013,-2.0874,1.23047,-156.775,212
1568040028,257.175,94.9895,-17.3013,-2.0874,1.23047,-156.775,212
1568040028,257.175,94.9895,-17.3013,-2.0874,1.23047,-156.775,212
1568040028,257.175,94.9895,-17.3013,-2.0874,1.23047,-156.775,212
1568040028,257.175,94.9895,-17.3013,-2.0874,1.23047,-156.775,212
1568040028,257.175,95.1012,-17.3013,-2.0874,1.23047,-156.775,212
1568040028,257.175,95.1012,-17.3013,-2.0874,1.23047,-156.775,212
1568040028,257.175,95.1012,-17.3013,-2.0874,1.23047,-156.775,212
1568040028,257.175,95.1012,-17.3013,-2.0874,1.23047,-156.775,208
1568040028,257.175,95.1012,-17.3013,-2.0874,1.23047,-156.775,208
1568040028,257.175,95.1012,-17.3013,-2.0874,1.25244,-156.775,208
1568040028,257.175,95.1012,-17.3013,-2.0874,1.25244,-156.775,208
1568040028,257.175,95.1012,-17.3013,-2.0874,1.25244,-156.775,208
1568040028,257.175,95.1012,-17.3013,-2.0874,1.23047,-156.775,208
1568040028,257.175,95.1012,-17.3013,-2.0874,1.23047,-156.775,208
1568040028,257.175,95.1012,-17.3013,-2.0874,1.23047,-156.775,208
1568040028,257.175,95.1012,-17.3013,-2.0874,1.23047,-156.775,208
1568040028,257.175,95.1012,-17.3013,-2.0874,1.23047,-156.775,208
1568040028,257.175,95.1012,-17.3013,-2.0874,1.23047,-156.753,208
1568040028,257.175,95.1012,-17.3013,-2.0874,1.23047,-156.753,208
1568040028,257.175,95.1012,-17.3013,-2.0874,1.23047,-156.753,208
1568040028,257.175,95.1012,-17.3013,-2.0874,1.23047,-156.753,208
1568040028,257.175,95.1012,-17.3013,-2.0874,1.23047,-156.753,208
1568040028,257.175,95.1012,-17.3013,-2.0874,1.23047,-156.753,208
1568040028,257.175,94.9895,-17.3013,-2.0874,1.23047,-156.753,208
1568040028,257.175,94.9895,-17.3013,-2.0874,1.23047,-156.753,208
1568040028,257.175,94.9895,-17.3013,-2.0874,1.23047,-156.753,208
1568040028,257.175,94.9895,-17.3013,-2.0874,1.23047,-156.753,208
1568040028,257.175,94.9895,-17.3013,-2.0874,1.23047,-156.753,208
1568040028,257.175,94.9895,-17.3013,-2.0874,1.23047,-156.753,208
1568040028,257.175,94.9895,-17.3013,-2.0874,1.25244,-156.753,208
1568040028,257.175,94.9895,-17.3013,-2.0874,1.25244,-156.753,204
1568040028,257.175,94.9895,-17.3013,-2.0874,1.25244,-156.753,204
1568040028,257.175,94.9895,-17.3013,-2.0874,1.25244,-156.753,204
1568040028,257.175,94.9895,-17.3013,-2.0874,1.25244,-156.753,204
1568040028,257.175,94.9895,-17.3013,-2.0874,1.25244,-156.753,204
1568040028,257.175,94.9895,-17.3013,-2.0874,1.25244,-156.753,204
1568040028,257.175,94.9895,-17.3013,-2.0874,1.25244,-156.753,204
1568040028,257.175,94.9895,-17.3013,-2.0874,1.25244,-156.753,204
1568040028,257.175,94.9895,-17.3013,-2.0874,1.25244,-156.753,204
1568040028,257.175,94.9895,-17.3013,-2.0874,1.25244,-156.775,204
1568040028,257.175,95.1012,-17.3013,-2.0874,1.25244,-156.775,204
1568040028,257.175,95.1012,-17.3013,-2.0874,1.25244,-156.775,204
1568040028,257.175,95.1012,-17.3013,-2.0874,1.25244,-156.775,204
1568040028,257.175,95.1012,-17.3013,-2.0874,1.25244,-156.775,204
1568040028,257.175,95.1012,-17.3013,-2.0874,1.25244,-156.775,204
1568040028,257.175,95.1012,-17.3013,-2.0874,1.25244,-156.775,204
1568040028,257.175,95.1012,-17.3013,-2.0874,1.25244,-156.775,204
1568040028,257.175,95.1012,-17.3013,-2.0874,1.25244,-156.775,204
1568040028,257.175,95.1012,-17.3013,-2.0874,1.25244,-156.775,204
1568040028,257.175,95.1012,-17.3013,-2.0874,1.25244,-156.775,200
1568040028,257.175,94.9895,-17.3013,-2.0874,1.25244,-156.775,200
1568040028,257.175,94.9895,-17.3013,-2.0874,1.25244,-156.775,200
1568040028,257.175,94.9895,-17.3013,-2.0874,1.25244,-156.775,200
1568040028,257.175,94.9895,-17.3013,-2.0874,1.25244,-156.775,200
1568040028,257.175,94.9895,-17.3013,-2.0874,1.25244,-156.775,200
1568040028,257.175,94.9895,-17.3013,-2.0874,1.25244,-156.775,200
1568040028,257.175,94.9895,-17.3013,-2.0874,1.25244,-156.753,200
1568040028,257.175,94.9895,-17.3013,-2.0874,1.25244,-156.753,200
1568040028,257.175,94.9895,-17.3013,-2.0874,1.25244,-156.753,200
1568040028,257.175,94.9895,-17.3013,-2.0874,1.25244,-156.753,204
1568040028,257.175,94.9895,-17.3013,-2.0874,1.25244,-156.753,204
1568040028,257.175,94.9895,-17.3013,-2.0874,1.23047,-156.753,204
1568040028,257.175,94.9895,-17.3013,-2.0874,1.23047,-156.753,204
1568040028,257.175,94.9895,-17.3013,-2.0874,1.23047,-156.753,204
1568040028,257.175,94.9895,-17.3013,-2.0874,1.23047,-156.753,204
1568040028,257.175,94.9895,-17.3013,-2.0874,1.23047,-156.753,204
1568040028,257.175,94.9895,-17.3013,-2.0874,1.23047,-156.753,204
1568040028,257.175,94.9895,-17.3013,-2.0874,1.23047,-156.753,204
1568040028,257.175,94.9895,-17.3013,-2.0874,1.23047,-156.753,204
1568040028,257.175,94.9895,-17.3013,-2.0874,1.23047,-156.753,204
1568040028,257.175,94.9895,-17.3013,-2.0874,1.25244,-156.753,204
1568040028,257.175,94.9895,-17.3013,-2.0874,1.25244,-156.753,204
1568040028,257.175,94.9895,-17.3013,-2.0874,1.23047,-156.753,204
1568040028,257.175,94.9895,-17.3013,-2.0874,1.23047,-156.753,204
1568040028,257.175,94.9895,-17.3013,-2.0874,1.23047,-156.753,204
1568040028,257.287,94.9895,-17.3013,-2.0874,1.23047,-156.753,204
1568040028,257.287,94.9895,-17.3013,-2.0874,1.23047,-156.753,204
1568040028,257.287,94.9895,-17.3013,-2.0874,1.23047,-156.775,204
1568040028,257.287,94.9895,-17.3013,-2.0874,1.25244,-156.775,204
1568040028,257.287,94.9895,-17.3013,-2.0874,1.25244,-156.775,204
1568040028,257.287,94.9895,-17.3013,-2.0874,1.25244,-156.775,204
1568040028,257.287,94.9895,-17.3013,-2.0874,1.25244,-156.775,208
1568040028,257.287,94.9895,-17.3013,-2.0874,1.25244,-156.775,208
1568040028,257.287,94.9895,-17.3013,-2.0874,1.25244,-156.775,208
1568040028,257.287,94.9895,-17.3013,-2.0874,1.25244,-156.775,208
1568040028,257.175,94.9895,-17.3013,-2.0874,1.25244,-156.775,208
1568040028,257.175,94.9895,-17.3013,-2.0874,1.25244,-156.775,208
1568040028,257.175,94.9895,-17.3013,-2.0874,1.25244,-156.775,208
1568040028,257.175,94.9895,-17.3013,-2.0874,1.25244,-156.775,208
1568040028,257.175,94.9895,-17.3013,-2.0874,1.25244,-156.775,208
1568040028,257.175,94.9895,-17.3013,-2.0874,1.25244,-156.775,208
1568040028,257.175,94.9895,-17.3013,-2.0874,1.25244,-156.775,208
1568040028,257.175,94.9895,-17.3013,-2.0874,1.25244,-156.775,208
1568040028,257.175,94.9895,-17.3013,-2.0874,1.25244,-156.775,208
1568040028,257.175,94.9895,-17.3013,-2.0874,1.25244,-156.775,208
1568040028,257.175,94.9895,-17.3013,-2.0874,1.25244,-156.775,208
1568040028,257.175,94.9895,-17.3013,-2.0874,1.25244,-156.775,208
1568040028,257.175,94.9895,-17.3013,-2.0874,1.25244,-156.775,208
1568040028,257.175,94.9895,-17.3013,-2.0874,1.25244,-156.775,208
1568040028,257.175,94.9895,-17.3013,-2.0874,1.25244,-156.775,208
1568040029,257.175,94.9895,-17.3013,-2.0874,1.25244,-156.775,208
1568040029,257.175,94.9895,-17.3013,-2.0874,1.25244,-156.775,208
1568040029,257.175,94.9895,-17.3013,-2.0874,1.25244,-156.775,208
1568040029,257.175,94.9895,-17.3013,-2.0874,1.25244,-156.775,208
1568040029,257.175,94.9895,-17.3013,-2.0874,1.25244,-156.775,208
1568040029,257.175,94.9895,-17.3013,-2.0874,1.25244,-156.775,208
1568040029,257.175,94.9895,-17.3013,-2.0874,1.25244,-156.775,208
1568040029,257.175,94.9895,-17.3013,-2.0874,1.25244,-156.775,208
1568040029,257.175,94.9895,-17.3013,-2.0874,1.25244,-156.775,208
1568040029,257.175,94.9895,-17.3013,-2.0874,1.25244,-156.775,208
1568040029,257.175,94.9895,-17.3013,-2.0874,1.25244,-156.775,208
1568040029,257.175,94.9895,-17.3013,-2.0874,1.25244,-156.775,212
1568040029,257.175,94.9895,-17.3013,-2.0874,1.25244,-156.775,212
1568040029,257.175,94.9895,-17.3013,-2.0874,1.25244,-156.775,212
1568040029,257.175,94.9895,-17.3013,-2.0874,1.25244,-156.775,212
1568040029,257.175,94.9895,-17.3013,-2.0874,1.25244,-156.775,212
1568040029,257.175,94.9895,-17.3013,-2.0874,1.25244,-156.775,212
1568040029,257.175,94.9895,-17.3013,-2.0874,1.25244,-156.775,212
1568040029,257.175,94.9895,-17.3013,-2.0874,1.25244,-156.775,208
1568040029,257.175,94.9895,-17.3013,-2.0874,1.25244,-156.775,208
1568040029,257.175,94.9895,-17.3013,-2.0874,1.25244,-156.775,208
1568040029,257.175,94.9895,-17.3013,-2.0874,1.25244,-156.775,208
1568040029,257.175,94.9895,-17.3013,-2.10938,1.25244,-156.775,208
1568040029,257.175,94.9895,-17.3013,-2.10938,1.25244,-156.775,208
1568040029,257.175,94.9895,-17.3013,-2.10938,1.25244,-156.775,208
1568040029,257.175,94.9895,-17.3013,-2.10938,1.25244,-156.775,208
1568040029,257.175,94.9895,-17.3013,-2.10938,1.25244,-156.775,208
1568040029,257.175,94.9895,-17.3013,-2.10938,1.25244,-156.775,208
1568040029,257.175,94.9895,-17.3013,-2.10938,1.25244,-156.775,208
1568040029,257.175,94.9895,-17.3013,-2.10938,1.25244,-156.775,208
1568040029,257.175,94.9895,-17.3013,-2.10938,1.25244,-156.775,208
1568040029,257.175,94.9895,-17.3013,-2.10938,1.25244,-156.775,208
1568040029,257.175,94.9895,-17.3013,-2.10938,1.25244,-156.775,208
1568040029,257.175,94.9895,-17.3013,-2.10938,1.25244,-156.775,208
1568040029,257.175,94.9895,-17.3013,-2.10938,1.25244,-156.775,208
1568040029,257.175,94.9895,-17.3013,-2.10938,1.25244,-156.775,208
1568040029,257.175,94.9895,-17.3013,-2.10938,1.23047,-156.775,212
1568040029,257.175,94.9895,-17.3013,-2.10938,1.23047,-156.775,212
1568040029,257.175,94.9895,-17.3013,-2.10938,1.23047,-156.775,212
1568040029,257.175,94.9895,-17.3013,-2.10938,1.23047,-156.775,212
1568040029,257.175,94.9895,-17.3013,-2.10938,1.23047,-156.775,212
1568040029,257.175,94.9895,-17.3013,-2.0874,1.23047,-156.775,212
1568040029,257.175,94.9895,-17.3013,-2.0874,1.23047,-156.775,212
1568040029,257.175,94.9895,-17.3013,-2.0874,1.23047,-156.775,212
1568040029,257.175,94.9895,-17.3013,-2.0874,1.23047,-156.775,212
1568040029,257.175,94.9895,-17.3013,-2.0874,1.25244,-156.775,212
1568040029,257.175,94.9895,-17.3013,-2.0874,1.25244,-156.775,212
1568040029,257.175,94.9895,-17.3013,-2.0874,1.25244,-156.775,212
1568040029,257.175,94.9895,-17.3013,-2.0874,1.25244,-156.775,212
1568040029,257.175,94.9895,-17.3013,-2.0874,1.25244,-156.775,212
1568040029,257.175,94.9895,-17.3013,-2.0874,1.25244,-156.775,212
1568040029,257.175,94.9895,-17.3013,-2.0874,1.25244,-156.775,212
1568040029,257.175,94.9895,-17.3013,-2.0874,1.25244,-156.775,212
1568040029,257.175,94.9895,-17.3013,-2.0874,1.25244,-156.775,212
1568040029,257.175,94.9895,-17.3013,-2.0874,1.25244,-156.775,212
1568040029,257.175,94.9895,-17.3013,-2.0874,1.25244,-156.775,208
1568040029,257.175,94.9895,-17.3013,-2.0874,1.25244,-156.775,208
1568040029,257.175,94.9895,-17.3013,-2.0874,1.25244,-156.775,208
1568040029,257.175,94.9895,-17.3013,-2.0874,1.25244,-156.775,208
1568040029,257.175,94.9895,-17.3013,-2.10938,1.25244,-156.775,208
1568040029,257.175,94.9895,-17.3013,-2.10938,1.25244,-156.775,208
1568040029,257.175,94.9895,-17.3013,-2.10938,1.25244,-156.775,208
1568040029,257.175,94.9895,-17.3013,-2.10938,1.25244,-156.775,208
1568040029,257.175,94.9895,-17.3013,-2.10938,1.25244,-156.775,208
1568040029,257.175,94.9895,-17.3013,-2.10938,1.25244,-156.775,208
1568040029,257.175,94.9895,-17.3013,-2.10938,1.25244,-156.775,208
1568040029,257.175,94.9895,-17.3013,-2.10938,1.25244,-156.775,208
1568040029,257.175,94.9895,-17.3013,-2.0874,1.25244,-156.775,208
1568040029,257.175,94.9895,-17.3013,-2.0874,1.23047,-156.775,208
1568040029,257.175,94.9895,-17.3013,-2.0874,1.23047,-156.775,208
1568040029,257.175,94.9895,-17.3013,-2.0874,1.23047,-156.753,208
1568040029,257.175,94.9895,-17.3013,-2.0874,1.23047,-156.753,208
1568040029,257.175,94.9895,-17.3013,-2.0874,1.23047,-156.753,208
1568040029,257.175,94.9895,-17.3013,-2.0874,1.23047,-156.753,208
1568040029,257.175,94.9895,-17.3013,-2.0874,1.23047,-156.775,208
1568040029,257.175,94.9895,-17.3013,-2.0874,1.23047,-156.775,208
1568040029,257.175,94.9895,-17.3013,-2.0874,1.23047,-156.775,208
1568040029,257.175,94.9895,-17.3013,-2.0874,1.23047,-156.775,208
1568040029,257.175,94.9895,-17.3013,-2.0874,1.23047,-156.775,208
1568040029,257.175,94.9895,-17.3013,-2.0874,1.23047,-156.775,208
1568040029,257.175,94.9895,-17.3013,-2.0874,1.23047,-156.775,208
1568040029,257.175,94.9895,-17.3013,-2.0874,1.23047,-156.775,208
1568040029,257.175,94.9895,-17.3013,-2.0874,1.23047,-156.775,208
1568040029,257.175,94.9895,-17.3013,-2.0874,1.25244,-156.775,208
1568040029,257.175,94.9895,-17.3013,-2.0874,1.25244,-156.775,208
1568040029,257.175,94.9895,-17.3013,-2.0874,1.25244,-156.775,208
1568040029,257.175,94.9895,-17.3013,-2.0874,1.25244,-156.775,208
1568040029,257.175,94.9895,-17.3013,-2.0874,1.25244,-156.775,208
1568040029,257.175,94.9895,-17.3013,-2.0874,1.25244,-156.775,208
1568040029,257.175,94.9895,-17.3013,-2.0874,1.25244,-156.775,208
1568040029,257.175,94.9895,-17.3013,-2.0874,1.25244,-156.775,208
1568040029,257.175,94.9895,-17.3013,-2.0874,1.25244,-156.775,208
1568040029,257.175,94.9895,-17.3013,-2.0874,1.25244,-156.775,208
1568040029,257.175,94.9895,-17.3013,-2.0874,1.23047,-156.775,208
1568040029,257.175,94.9895,-17.3013,-2.0874,1.23047,-156.775,208
1568040029,257.175,94.9895,-17.3013,-2.0874,1.23047,-156.775,208
1568040029,257.175,94.9895,-17.3013,-2.0874,1.23047,-156.775,208
1568040029,257.175,94.9895,-17.3013,-2.0874,1.23047,-156.775,208
1568040029,257.175,94.9895,-17.3013,-2.0874,1.23047,-156.775,208
1568040029,257.175,94.9895,-17.3013,-2.0874,1.23047,-156.775,208
1568040030,257.175,94.9895,-17.3013,-2.0874,1.23047,-156.775,208
1568040030,257.175,94.9895,-17.3013,-2.0874,1.23047,-156.775,208
1568040030,257.175,94.9895,-17.1896,-2.0874,1.23047,-156.775,208
1568040030,257.175,94.9895,-17.1896,-2.0874,1.23047,-156.775,208
1568040030,257.175,94.9895,-17.1896,-2.0874,1.23047,-156.775,208
1568040030,257.175,94.9895,-17.1896,-2.0874,1.23047,-156.775,208
1568040030,257.175,94.9895,-17.1896,-2.0874,1.23047,-156.753,208
1568040030,257.175,94.9895,-17.1896,-2.0874,1.23047,-156.753,208
1568040030,257.175,94.9895,-17.1896,-2.0874,1.23047,-156.753,208
1568040030,257.175,94.9895,-17.1896,-2.0874,1.23047,-156.775,208
1568040030,257.175,94.9895,-17.1896,-2.0874,1.23047,-156.775,212
1568040030,257.175,94.9895,-17.1896,-2.0874,1.23047,-156.775,212
1568040030,257.175,94.9895,-17.1896,-2.0874,1.23047,-156.775,212
1568040030,257.175,94.9895,-17.1896,-2.0874,1.23047,-156.775,212
1568040030,257.175,94.9895,-17.1896,-2.0874,1.23047,-156.775,212
1568040030,257.175,94.9895,-17.3013,-2.0874,1.23047,-156.775,212
1568040030,257.175,94.9895,-17.3013,-2.0874,1.23047,-156.775,212
1568040030,257.175,94.9895,-17.3013,-2.0874,1.23047,-156.775,212
1568040030,257.175,94.9895,-17.3013,-2.0874,1.23047,-156.775,212
1568040030,257.175,94.9895,-17.3013,-2.0874,1.23047,-156.775,212
1568040030,257.175,94.9895,-17.3013,-2.0874,1.23047,-156.775,212
1568040030,257.175,94.9895,-17.3013,-2.0874,1.23047,-156.775,212
1568040030,257.175,94.9895,-17.3013,-2.0874,1.23047,-156.775,212
1568040030,257.175,94.9895,-17.3013,-2.0874,1.23047,-156.775,212
1568040030,257.175,94.9895,-17.3013,-2.0874,1.23047,-156.775,208
1568040030,257.175,94.9895,-17.3013,-2.0874,1.23047,-156.775,208
1568040030,257.175,94.9895,-17.3013,-2.0874,1.23047,-156.775,208
1568040030,257.175,94.9895,-17.3013,-2.0874,1.23047,-156.775,208
1568040030,257.175,94.9895,-17.3013,-2.0874,1.23047,-156.775,208
1568040030,257.175,94.9895,-17.3013,-2.0874,1.23047,-156.775,208
1568040030,257.175,94.9895,-17.3013,-2.0874,1.23047,-156.775,208
1568040030,257.175,94.9895,-17.3013,-2.0874,1.23047,-156.775,208
1568040030,257.175,94.9895,-17.3013,-2.0874,1.23047,-156.775,208
1568040030,257.175,94.9895,-17.3013,-2.0874,1.23047,-156.775,208
1568040030,257.175,94.9895,-17.3013,-2.0874,1.23047,-156.775,208
1568040030,257.287,94.9895,-17.3013,-2.0874,1.23047,-156.775,208
1568040030,257.287,94.9895,-17.3013,-2.0874,1.23047,-156.775,208
1568040030,257.287,94.9895,-17.3013,-2.0874,1.23047,-156.753,208
1568040030,257.287,94.9895,-17.3013,-2.0874,1.23047,-156.753,208
1568040030,257.287,94.9895,-17.3013,-2.0874,1.23047,-156.753,208
1568040030,257.287,94.9895,-17.3013,-2.0874,1.23047,-156.753,208
1568040030,257.287,94.9895,-17.3013,-2.0874,1.23047,-156.753,208
1568040030,257.287,94.9895,-17.3013,-2.0874,1.23047,-156.753,208
1568040030,257.287,94.9895,-17.3013,-2.0874,1.23047,-156.753,208
1568040030,257.175,94.9895,-17.3013,-2.0874,1.23047,-156.753,208
1568040030,257.175,94.9895,-17.1896,-2.0874,1.23047,-156.775,208
1568040030,257.175,94.9895,-17.1896,-2.0874,1.23047,-156.775,208
1568040030,257.175,94.9895,-17.1896,-2.0874,1.23047,-156.775,208
1568040030,257.175,94.9895,-17.1896,-2.0874,1.23047,-156.775,208
1568040030,257.175,94.9895,-17.1896,-2.0874,1.23047,-156.775,208
1568040030,257.175,94.9895,-17.1896,-2.0874,1.23047,-156.775,208
1568040030,257.175,94.9895,-17.1896,-2.0874,1.23047,-156.775,208
1568040030,257.175,94.9895,-17.1896,-2.0874,1.23047,-156.775,208
1568040030,257.175,94.9895,-17.1896,-2.0874,1.23047,-156.775,208
1568040030,257.175,94.9895,-17.1896,-2.0874,1.23047,-156.775,208
1568040030,257.175,94.9895,-17.1896,-2.0874,1.23047,-156.753,208
1568040030,257.175,94.9895,-17.1896,-2.0874,1.23047,-156.753,208
1568040030,257.175,94.9895,-17.3013,-2.0874,1.23047,-156.753,208
1568040030,257.175,94.9895,-17.3013,-2.0874,1.23047,-156.753,208
1568040030,257.175,94.9895,-17.3013,-2.0874,1.23047,-156.775,208
1568040030,257.175,94.9895,-17.3013,-2.0874,1.23047,-156.775,208
1568040030,257.175,94.9895,-17.3013,-2.0874,1.23047,-156.775,208
1568040030,257.175,94.9895,-17.3013,-2.0874,1.23047,-156.775,208
1568040030,257.175,94.9895,-17.3013,-2.0874,1.23047,-156.775,208
1568040030,257.175,94.9895,-17.3013,-2.0874,1.23047,-156.775,212
1568040030,257.175,94.9895,-17.3013,-2.0874,1.23047,-156.775,212
1568040030,257.175,94.9895,-17.3013,-2.0874,1.23047,-156.775,212
1568040030,257.175,94.9895,-17.3013,-2.0874,1.23047,-156.775,212
1568040030,257.175,94.9895,-17.3013,-2.0874,1.23047,-156.775,212
1568040030,257.175,95.1012,-17.3013,-2.0874,1.23047,-156.775,212
1568040030,257.175,95.1012,-17.3013,-2.06543,1.23047,-156.775,212
1568040030,257.175,95.1012,-17.3013,-2.06543,1.23047,-156.775,212
1568040030,257.175,95.1012,-17.3013,-2.06543,1.23047,-156.775,212
1568040030,257.175,95.1012,-17.3013,-2.06543,1.23047,-156.775,212
1568040030,257.175,95.1012,-17.3013,-2.06543,1.23047,-156.775,212
1568040030,257.175,95.1012,-17.3013,-2.06543,1.23047,-156.775,212
1568040030,257.175,95.1012,-17.3013,-2.06543,1.23047,-156.775,212
1568040030,257.175,95.1012,-17.3013,-2.06543,1.23047,-156.775,212
1568040030,257.175,95.1012,-17.3013,-2.06543,1.23047,-156.775,212
1568040030,257.175,95.1012,-17.3013,-2.06543,1.23047,-156.775,212
1568040030,257.175,95.1012,-17.3013,-2.06543,1.23047,-156.775,212
1568040030,257.175,95.1012,-17.3013,-2.06543,1.23047,-156.775,212
1568040030,257.175,95.1012,-17.3013,-2.06543,1.23047,-156.775,212
1568040030,257.175,95.1012,-17.3013,-2.06543,1.23047,-156.775,212
1568040030,257.175,95.1012,-17.3013,-2.0874,1.23047,-156.775,212
1568040030,257.175,95.1012,-17.3013,-2.0874,1.23047,-156.775,212
1568040030,257.175,95.1012,-17.3013,-2.0874,1.23047,-156.775,212
1568040030,257.175,94.9895,-17.3013,-2.0874,1.23047,-156.775,212
1568040030,257.175,94.9895,-17.3013,-2.0874,1.23047,-156.775,212
1568040030,257.175,94.9895,-17.3013,-2.0874,1.23047,-156.775,212
1568040030,257.175,94.9895,-17.3013,-2.0874,1.23047,-156.775,212
1568040030,257.175,94.9895,-17.3013,-2.0874,1.23047,-156.775,212
1568040030,257.175,94.9895,-17.3013,-2.0874,1.23047,-156.775,212
1568040030,257.175,94.9895,-17.3013,-2.0874,1.23047,-156.775,212
1568040030,257.175,94.9895,-17.3013,-2.0874,1.23047,-156.775,208
1568040030,257.175,94.9895,-17.3013,-2.0874,1.23047,-156.775,208
1568040030,257.175,94.9895,-17.3013,-2.0874,1.25244,-156.775,208
1568040030,257.175,94.9895,-17.3013,-2.0874,1.25244,-156.775,208
1568040030,257.175,94.9895,-17.3013,-2.0874,1.25244,-156.775,208
1568040030,257.175,94.9895,-17.3013,-2.0874,1.25244,-156.775,208
1568040031,257.175,94.9895,-17.3013,-2.0874,1.25244,-156.775,208
1568040031,257.175,94.9895,-17.3013,-2.0874,1.25244,-156.775,208
1568040031,257.175,94.9895,-17.3013,-2.0874,1.25244,-156.775,208
1568040031,257.175,94.9895,-17.3013,-2.0874,1.25244,-156.775,208
1568040031,257.175,94.9895,-17.3013,-2.0874,1.25244,-156.775,208
1568040031,257.175,94.9895,-17.3013,-2.0874,1.25244,-156.775,208
1568040031,257.175,94.9895,-17.3013,-2.0874,1.25244,-156.775,208
1568040031,257.175,94.9895,-17.3013,-2.0874,1.25244,-156.775,204
1568040031,257.175,94.9895,-17.3013,-2.0874,1.25244,-156.775,204
1568040031,257.175,94.9895,-17.3013,-2.0874,1.25244,-156.775,204
1568040031,257.175,94.9895,-17.3013,-2.0874,1.25244,-156.775,204
1568040031,257.175,94.9895,-17.3013,-2.0874,1.25244,-156.775,204
1568040031,257.175,94.9895,-17.3013,-2.0874,1.25244,-156.775,204
1568040031,257.175,94.9895,-17.3013,-2.0874,1.25244,-156.775,204
1568040031,257.175,94.9895,-17.3013,-2.0874,1.25244,-156.775,204
1568040031,257.175,94.9895,-17.3013,-2.0874,1.25244,-156.775,204
1568040031,257.175,94.9895,-17.3013,-2.0874,1.25244,-156.775,204
1568040031,257.175,94.9895,-17.3013,-2.0874,1.25244,-156.775,204
1568040031,257.175,94.9895,-17.3013,-2.0874,1.25244,-156.775,204
1568040031,257.175,94.9895,-17.3013,-2.0874,1.25244,-156.775,204
1568040031,257.175,94.9895,-17.3013,-2.0874,1.25244,-156.775,204
1568040031,257.175,94.9895,-17.3013,-2.0874,1.25244,-156.775,204
1568040031,257.175,94.9895,-17.3013,-2.0874,1.25244,-156.775,204
1568040031,257.175,94.9895,-17.3013,-2.0874,1.25244,-156.775,208
1568040031,257.175,94.9895,-17.3013,-2.0874,1.25244,-156.775,208
1568040031,257.175,94.9895,-17.3013,-2.0874,1.25244,-156.775,208
1568040031,257.175,94.9895,-17.3013,-2.0874,1.25244,-156.775,208
1568040031,257.175,94.9895,-17.3013,-2.0874,1.25244,-156.775,208
1568040031,257.175,94.9895,-17.3013,-2.0874,1.25244,-156.775,208
1568040031,257.175,94.9895,-17.3013,-2.0874,1.23047,-156.775,208
1568040031,257.175,94.9895,-17.3013,-2.0874,1.23047,-156.775,208
1568040031,257.175,94.9895,-17.3013,-2.0874,1.23047,-156.775,208
1568040031,257.175,94.9895,-17.3013,-2.0874,1.23047,-156.775,208
1568040031,257.175,94.9895,-17.3013,-2.0874,1.23047,-156.775,208
1568040031,257.175,94.9895,-17.3013,-2.0874,1.23047,-156.775,208
1568040031,257.175,94.9895,-17.3013,-2.0874,1.23047,-156.775,208
1568040031,257.175,94.9895,-17.3013,-2.0874,1.23047,-156.775,208
1568040031,257.175,94.9895,-17.3013,-2.0874,1.23047,-156.775,208
1568040031,257.175,94.9895,-17.3013,-2.0874,1.23047,-156.775,208
1568040031,257.175,94.9895,-17.3013,-2.0874,1.23047,-156.775,208
1568040031,257.175,94.9895,-17.3013,-2.0874,1.23047,-156.775,208
1568040031,257.175,94.9895,-17.3013,-2.0874,1.23047,-156.775,208
1568040031,257.175,94.9895,-17.3013,-2.0874,1.23047,-156.753,208
1568040031,257.175,94.9895,-17.3013,-2.0874,1.23047,-156.753,208
1568040031,257.175,94.9895,-17.3013,-2.0874,1.23047,-156.753,212
1568040031,257.175,94.9895,-17.3013,-2.0874,1.23047,-156.753,212
1568040031,257.175,94.9895,-17.3013,-2.0874,1.23047,-156.753,212
1568040031,257.175,94.9895,-17.3013,-2.0874,1.23047,-156.753,212
1568040031,257.175,94.9895,-17.3013,-2.0874,1.23047,-156.753,212
1568040031,257.175,94.9895,-17.3013,-2.0874,1.23047,-156.753,212
1568040031,257.175,94.9895,-17.3013,-2.0874,1.23047,-156.753,212
1568040031,257.175,94.9895,-17.3013,-2.0874,1.23047,-156.753,212
1568040031,257.175,94.9895,-17.3013,-2.0874,1.23047,-156.753,212
1568040031,257.175,94.9895,-17.3013,-2.0874,1.23047,-156.753,212
1568040031,257.175,94.9895,-17.3013,-2.0874,1.23047,-156.753,212
1568040031,257.175,94.9895,-17.3013,-2.0874,1.23047,-156.753,212
1568040031,257.175,94.9895,-17.3013,-2.0874,1.23047,-156.753,212
1568040031,257.175,94.9895,-17.3013,-2.0874,1.23047,-156.753,212
1568040031,257.175,94.9895,-17.3013,-2.0874,1.23047,-156.753,212
1568040031,257.175,94.9895,-17.3013,-2.0874,1.23047,-156.753,212
1568040031,257.175,94.9895,-17.3013,-2.0874,1.23047,-156.753,212
1568040031,257.175,94.9895,-17.3013,-2.0874,1.23047,-156.753,212
1568040031,257.175,94.9895,-17.3013,-2.0874,1.23047,-156.753,212
1568040031,257.175,94.9895,-17.3013,-2.0874,1.23047,-156.753,212
1568040031,257.175,94.9895,-17.3013,-2.0874,1.23047,-156.775,212
1568040031,257.175,94.9895,-17.3013,-2.0874,1.23047,-156.775,212
1568040031,257.175,94.9895,-17.3013,-2.0874,1.23047,-156.775,212
1568040031,257.175,94.9895,-17.3013,-2.0874,1.23047,-156.775,212
1568040031,257.175,94.9895,-17.3013,-2.0874,1.23047,-156.775,212
1568040031,257.175,94.9895,-17.3013,-2.0874,1.23047,-156.775,212
1568040031,257.175,94.9895,-17.3013,-2.0874,1.23047,-156.775,212
1568040031,257.175,94.9895,-17.3013,-2.0874,1.23047,-156.775,212
1568040031,257.175,94.9895,-17.3013,-2.0874,1.23047,-156.775,212
1568040031,257.175,94.9895,-17.3013,-2.0874,1.23047,-156.775,212
1568040031,257.175,94.9895,-17.3013,-2.0874,1.23047,-156.775,212
1568040031,257.175,94.9895,-17.3013,-2.0874,1.23047,-156.775,212
1568040031,257.175,94.9895,-17.3013,-2.0874,1.23047,-156.775,212
1568040031,257.175,94.9895,-17.3013,-2.0874,1.23047,-156.775,216
1568040031,257.175,94.9895,-17.3013,-2.0874,1.23047,-156.775,216
1568040031,257.175,94.9895,-17.3013,-2.0874,1.23047,-156.775,216
1568040031,257.175,94.9895,-17.3013,-2.0874,1.23047,-156.775,216
1568040031,257.175,94.9895,-17.3013,-2.0874,1.23047,-156.775,216
1568040031,257.175,94.9895,-17.3013,-2.0874,1.23047,-156.775,216
1568040031,257.175,94.9895,-17.3013,-2.0874,1.23047,-156.775,216
1568040031,257.175,94.9895,-17.3013,-2.0874,1.23047,-156.775,216
1568040031,257.175,94.9895,-17.3013,-2.0874,1.25244,-156.775,216
1568040031,257.175,94.9895,-17.3013,-2.0874,1.25244,-156.775,216
1568040031,257.175,94.9895,-17.3013,-2.0874,1.25244,-156.775,216
1568040031,257.175,94.9895,-17.3013,-2.0874,1.23047,-156.775,216
1568040031,257.175,94.9895,-17.3013,-2.0874,1.23047,-156.775,216
1568040031,257.175,94.9895,-17.3013,-2.0874,1.23047,-156.775,216
1568040031,257.175,94.9895,-17.3013,-2.0874,1.23047,-156.775,216
1568040031,257.175,94.9895,-17.3013,-2.0874,1.23047,-156.775,212
1568040031,257.175,94.9895,-17.3013,-2.0874,1.23047,-156.775,212
1568040031,257.175,94.9895,-17.3013,-2.0874,1.23047,-156.775,212
1568040031,257.175,94.9895,-17.3013,-2.0874,1.23047,-156.775,212
1568040031,257.175,94.9895,-17.3013,-2.0874,1.23047,-156.775,212
1568040031,257.175,94.9895,-17.3013,-2.0874,1.23047,-156.775,212
1568040031,257.175,94.9895,-17.3013,-2.0874,1.23047,-156.775,212
1568040031,257.175,94.9895,-17.3013,-2.0874,1.23047,-156.775,212
1568040038,234.069,119.211,-17.3013,-2.28516,1.3623,-157.148,188
1568040038,234.069,119.211,-17.3013,-2.28516,1.3623,-157.148,188
1568040038,234.069,119.211,-17.3013,-2.28516,1.3623,-157.148,188
1568040038,234.069,119.211,-17.3013,-2.28516,1.3623,-157.148,188
1568040038,234.069,119.211,-17.3013,-2.28516,1.3623,-157.148,188
1568040038,234.069,119.211,-17.3013,-2.28516,1.3623,-157.148,184
1568040038,234.069,119.211,-17.3013,-2.28516,1.3623,-157.148,184
1568040038,234.069,119.211,-17.3013,-2.28516,1.3623,-157.148,184
1568040038,234.069,119.211,-17.3013,-2.28516,1.3623,-157.148,184
1568040038,234.069,119.211,-17.3013,-2.28516,1.3623,-157.148,184
1568040038,234.069,119.211,-17.3013,-2.28516,1.3623,-157.148,184
1568040038,234.069,119.211,-17.3013,-2.28516,1.3623,-157.148,184
1568040038,234.069,119.211,-17.3013,-2.28516,1.3623,-157.148,184
1568040038,234.069,119.211,-17.3013,-2.28516,1.3623,-157.148,184
1568040038,234.069,119.211,-17.3013,-2.28516,1.3623,-157.148,184
1568040038,234.069,119.211,-17.3013,-2.28516,1.3623,-157.148,184
1568040038,234.069,119.211,-17.3013,-2.28516,1.3623,-157.148,184
1568040038,234.069,119.211,-17.3013,-2.28516,1.3623,-157.148,184
1568040038,234.069,119.211,-17.3013,-2.28516,1.3623,-157.148,184
1568040038,234.069,119.211,-17.3013,-2.28516,1.3623,-157.148,184
1568040038,234.069,119.211,-17.3013,-2.28516,1.3623,-157.148,184
1568040038,234.069,119.211,-17.3013,-2.28516,1.3623,-157.148,184
1568040038,234.069,119.211,-17.3013,-2.28516,1.3623,-157.148,184
1568040038,234.069,119.211,-17.3013,-2.28516,1.3623,-157.148,184
1568040038,234.069,119.211,-17.3013,-2.28516,1.3623,-157.148,184
1568040038,234.069,119.211,-17.3013,-2.28516,1.3623,-157.148,184
1568040038,234.069,119.211,-17.3013,-2.28516,1.3623,-157.148,184
1568040038,234.069,119.211,-17.3013,-2.28516,1.3623,-157.148,184
1568040038,234.069,119.211,-17.3013,-2.28516,1.3623,-157.148,184
1568040038,234.069,119.211,-17.3013,-2.28516,1.3623,-157.148,184
1568040038,234.069,119.211,-17.3013,-2.28516,1.3623,-157.148,184
1568040038,234.069,119.211,-17.3013,-2.28516,1.3623,-157.148,184
1568040038,234.069,119.211,-17.3013,-2.28516,1.3623,-157.148,184
1568040038,234.069,119.211,-17.3013,-2.28516,1.3623,-157.148,184
1568040038,234.069,119.211,-17.3013,-2.28516,1.3623,-157.148,184
1568040038,234.069,119.211,-17.3013,-2.28516,1.3623,-157.148,184
1568040038,234.069,119.211,-17.3013,-2.28516,1.3623,-157.148,184
1568040038,234.069,119.211,-17.3013,-2.28516,1.3623,-157.148,184
1568040038,234.069,119.211,-17.3013,-2.28516,1.3623,-157.148,184
1568040038,234.069,119.211,-17.3013,-2.28516,1.3623,-157.148,184
1568040038,234.069,119.211,-17.3013,-2.28516,1.3623,-157.148,184
1568040038,234.069,119.211,-17.3013,-2.28516,1.3623,-157.148,184
1568040038,234.069,119.211,-17.3013,-2.28516,1.3623,-157.148,184
1568040038,234.069,119.211,-17.3013,-2.28516,1.3623,-157.148,184
1568040038,234.069,119.211,-17.3013,-2.28516,1.3623,-157.148,184
1568040038,234.069,119.211,-17.3013,-2.28516,1.3623,-157.148,184
1568040038,234.069,119.211,-17.3013,-2.28516,1.3623,-157.148,184
1568040038,234.069,119.211,-17.3013,-2.28516,1.3623,-157.148,184
1568040038,234.069,119.211,-17.3013,-2.28516,1.3623,-157.148,184
1568040038,234.069,119.211,-17.3013,-2.28516,1.3623,-157.148,184
1568040038,234.069,119.211,-17.3013,-2.28516,1.3623,-157.148,184
1568040038,234.069,119.211,-17.3013,-2.28516,1.3623,-157.148,184
1568040038,234.069,119.211,-17.3013,-2.28516,1.3623,-157.148,184
1568040038,234.069,119.211,-17.3013,-2.28516,1.3623,-157.148,184
1568040038,234.069,119.211,-17.3013,-2.28516,1.3623,-157.148,184
1568040038,234.069,119.211,-17.3013,-2.28516,1.3623,-157.148,184
1568040038,234.069,119.211,-17.3013,-2.26318,1.3623,-157.148,184
1568040038,234.069,119.211,-17.3013,-2.26318,1.3623,-157.148,184
1568040038,234.069,119.211,-17.3013,-2.26318,1.3623,-157.148,184
1568040038,234.069,119.211,-17.3013,-2.26318,1.3623,-157.148,184
1568040038,234.069,119.211,-17.3013,-2.26318,1.3623,-157.148,184
1568040038,234.069,119.211,-17.3013,-2.26318,1.3623,-157.148,184
1568040038,234.069,119.211,-17.3013,-2.26318,1.3623,-157.148,184
1568040038,234.069,119.211,-17.3013,-2.26318,1.3623,-157.148,184
1568040038,234.069,119.211,-17.3013,-2.26318,1.3623,-157.148,184
1568040038,234.069,119.211,-17.3013,-2.26318,1.3623,-157.148,184
1568040038,234.069,119.211,-17.3013,-2.26318,1.3623,-157.148,184
1568040038,234.069,119.211,-17.3013,-2.26318,1.3623,-157.148,184
1568040038,234.069,119.211,-17.3013,-2.26318,1.3623,-157.148,184
1568040038,234.069,119.211,-17.3013,-2.26318,1.3623,-157.148,184
1568040038,234.069,119.211,-17.3013,-2.26318,1.3623,-157.148,180
1568040038,234.069,119.211,-17.3013,-2.26318,1.3623,-157.148,180
1568040038,234.069,119.211,-17.3013,-2.26318,1.3623,-157.148,180
1568040038,234.069,119.211,-17.3013,-2.26318,1.3623,-157.148,180
1568040038,234.069,119.211,-17.3013,-2.26318,1.3623,-157.148,180
1568040038,234.069,119.211,-17.3013,-2.26318,1.3623,-157.148,180
1568040038,234.069,119.211,-17.3013,-2.26318,1.3623,-157.148,180
1568040038,234.069,119.211,-17.3013,-2.26318,1.3623,-157.148,180
1568040038,234.069,119.211,-17.3013,-2.26318,1.3623,-157.148,180
1568040038,234.069,119.211,-17.3013,-2.26318,1.3623,-157.148,180
1568040038,234.069,119.211,-17.3013,-2.26318,1.3623,-157.148,180
1568040038,234.069,119.211,-17.3013,-2.26318,1.3623,-157.148,180
1568040038,234.069,119.211,-17.3013,-2.26318,1.3623,-157.148,180
1568040038,234.069,119.211,-17.3013,-2.26318,1.3623,-157.148,180
1568040038,234.069,119.211,-17.3013,-2.26318,1.3623,-157.148,180
1568040038,234.069,119.211,-17.3013,-2.26318,1.3623,-157.148,180
1568040038,234.069,119.211,-17.3013,-2.26318,1.3623,-157.148,180
1568040038,234.069,119.211,-17.3013,-2.26318,1.3623,-157.148,180
1568040038,234.069,119.211,-17.3013,-2.26318,1.3623,-157.148,180
1568040038,234.069,119.211,-17.3013,-2.26318,1.3623,-157.148,180
1568040038,234.069,119.211,-17.3013,-2.28516,1.3623,-157.148,180
1568040038,234.069,119.211,-17.3013,-2.28516,1.3623,-157.148,180
1568040038,234.069,119.211,-17.3013,-2.28516,1.3623,-157.148,180
1568040039,234.069,119.211,-17.3013,-2.28516,1.3623,-157.148,180
1568040039,234.069,119.211,-17.3013,-2.28516,1.34033,-157.148,180
1568040039,234.069,119.211,-17.3013,-2.28516,1.34033,-157.148,180
1568040039,234.069,119.211,-17.3013,-2.28516,1.34033,-157.148,180
1568040039,234.069,119.211,-17.3013,-2.28516,1.34033,-157.148,180
1568040039,234.069,119.211,-17.3013,-2.28516,1.34033,-157.148,180
1568040039,234.069,119.211,-17.3013,-2.28516,1.34033,-157.148,180
1568040039,234.069,119.211,-17.3013,-2.28516,1.34033,-157.148,180
1568040039,234.069,119.211,-17.3013,-2.28516,1.34033,-157.148,180
1568040039,234.069,119.211,-17.3013,-2.28516,1.34033,-157.148,180
1568040039,234.069,119.211,-17.3013,-2.28516,1.34033,-157.148,180
1568040039,234.069,119.211,-17.3013,-2.28516,1.34033,-157.148,180
1568040039,234.069,119.211,-17.3013,-2.28516,1.34033,-157.148,180
1568040039,234.069,119.211,-17.3013,-2.28516,1.34033,-157.148,180
1568040039,234.069,119.211,-17.3013,-2.28516,1.34033,-157.148,180
1568040039,234.069,119.211,-17.3013,-2.28516,1.34033,-157.148,180
1568040039,234.069,119.211,-17.3013,-2.28516,1.34033,-157.148,180
1568040039,234.069,119.211,-17.3013,-2.26318,1.34033,-157.148,180
1568040039,234.069,119.211,-17.3013,-2.26318,1.34033,-157.148,180
1568040039,234.069,119.211,-17.3013,-2.26318,1.34033,-157.148,180
1568040039,234.069,119.211,-17.3013,-2.26318,1.34033,-157.148,180
1568040039,234.069,119.211,-17.3013,-2.26318,1.34033,-157.148,180
1568040039,234.069,119.211,-17.3013,-2.26318,1.3623,-157.148,180
1568040039,234.069,119.211,-17.3013,-2.26318,1.3623,-157.148,180
1568040039,234.069,119.211,-17.3013,-2.26318,1.3623,-157.148,180
1568040039,234.069,119.211,-17.3013,-2.26318,1.3623,-157.148,180
1568040039,234.069,119.211,-17.3013,-2.26318,1.3623,-157.148,180
1568040039,234.069,119.211,-17.3013,-2.26318,1.3623,-157.148,184
1568040039,234.069,119.211,-17.3013,-2.26318,1.3623,-157.148,184
1568040039,234.069,119.211,-17.3013,-2.26318,1.3623,-157.148,184
1568040039,234.069,119.211,-17.3013,-2.26318,1.3623,-157.148,184
1568040039,234.069,119.211,-17.3013,-2.26318,1.3623,-157.148,184
1568040039,234.069,119.211,-17.3013,-2.26318,1.3623,-157.148,184
1568040039,234.069,119.211,-17.3013,-2.26318,1.3623,-157.148,184
1568040039,234.069,119.211,-17.3013,-2.26318,1.3623,-157.148,184
1568040039,234.069,119.211,-17.3013,-2.26318,1.3623,-157.148,184
1568040039,234.069,119.211,-17.3013,-2.26318,1.3623,-157.148,184
1568040039,234.069,119.211,-17.3013,-2.26318,1.3623,-157.148,184
1568040039,234.069,119.211,-17.3013,-2.26318,1.3623,-157.148,184
1568040039,234.069,119.211,-17.3013,-2.28516,1.3623,-157.148,184
1568040039,234.069,119.211,-17.3013,-2.28516,1.3623,-157.148,184
1568040039,234.069,119.211,-17.3013,-2.28516,1.3623,-157.148,184
1568040039,234.069,119.211,-17.3013,-2.28516,1.3623,-157.148,184
1568040039,234.069,119.211,-17.3013,-2.28516,1.3623,-157.148,184
1568040039,234.069,119.211,-17.3013,-2.28516,1.3623,-157.148,184
1568040039,234.069,119.211,-17.3013,-2.28516,1.3623,-157.148,184
1568040039,234.069,119.211,-17.3013,-2.28516,1.3623,-157.148,184
1568040039,234.069,119.211,-17.3013,-2.28516,1.3623,-157.148,184
1568040039,234.069,119.211,-17.3013,-2.28516,1.3623,-157.148,184
1568040039,234.069,119.211,-17.3013,-2.28516,1.3623,-157.148,184
1568040039,234.069,119.211,-17.3013,-2.28516,1.3623,-157.148,184
1568040039,234.069,119.211,-17.3013,-2.28516,1.3623,-157.148,184
1568040039,234.069,119.211,-17.3013,-2.26318,1.3623,-157.148,184
1568040039,234.069,119.211,-17.3013,-2.26318,1.3623,-157.148,184
1568040039,234.069,119.211,-17.3013,-2.26318,1.3623,-157.148,184
1568040039,234.069,119.211,-17.3013,-2.26318,1.3623,-157.148,184
1568040039,234.069,119.211,-17.3013,-2.26318,1.3623,-157.148,184
1568040039,234.069,119.211,-17.3013,-2.26318,1.3623,-157.148,184
1568040039,234.069,119.211,-17.3013,-2.26318,1.3623,-157.148,184
1568040039,234.069,119.211,-17.3013,-2.26318,1.3623,-157.148,184
1568040039,234.069,119.211,-17.3013,-2.26318,1.3623,-157.148,184
1568040039,234.069,119.211,-17.3013,-2.26318,1.3623,-157.148,184
1568040039,234.069,119.211,-17.3013,-2.26318,1.3623,-157.148,184
1568040039,234.069,119.211,-17.3013,-2.26318,1.3623,-157.148,184
1568040039,234.069,119.211,-17.3013,-2.26318,1.3623,-157.148,184
1568040039,234.069,119.211,-17.3013,-2.26318,1.3623,-157.148,184
1568040039,234.069,119.211,-17.3013,-2.26318,1.3623,-157.148,184
1568040039,234.069,119.211,-17.3013,-2.26318,1.3623,-157.148,184
1568040039,234.069,119.211,-17.3013,-2.26318,1.3623,-157.148,184
1568040039,234.069,119.211,-17.3013,-2.26318,1.3623,-157.148,184
1568040039,234.069,119.211,-17.3013,-2.26318,1.3623,-157.148,184
1568040039,234.069,119.211,-17.3013,-2.26318,1.3623,-157.148,180
1568040039,234.069,119.211,-17.3013,-2.26318,1.3623,-157.148,180
1568040039,234.069,119.211,-17.3013,-2.26318,1.3623,-157.148,180
1568040039,234.069,119.211,-17.3013,-2.26318,1.3623,-157.148,180
1568040039,234.069,119.211,-17.3013,-2.26318,1.3623,-157.148,180
1568040039,234.069,119.211,-17.3013,-2.26318,1.3623,-157.148,180
1568040039,234.069,119.211,-17.3013,-2.26318,1.3623,-157.148,180
1568040039,234.069,119.211,-17.3013,-2.26318,1.3623,-157.148,180
1568040039,234.069,119.211,-17.3013,-2.26318,1.3623,-157.148,180
1568040039,234.069,119.211,-17.3013,-2.26318,1.3623,-157.148,180
1568040039,234.069,119.211,-17.3013,-2.26318,1.3623,-157.148,180
1568040039,234.069,119.211,-17.3013,-2.26318,1.3623,-157.148,180
1568040039,234.069,119.211,-17.3013,-2.26318,1.3623,-157.148,180
1568040039,234.069,119.211,-17.3013,-2.26318,1.3623,-157.148,180
1568040039,234.069,119.211,-17.3013,-2.26318,1.3623,-157.148,180
1568040039,234.069,119.211,-17.3013,-2.26318,1.3623,-157.148,180
1568040039,234.069,119.211,-17.3013,-2.26318,1.3623,-157.148,180
1568040039,234.069,119.211,-17.3013,-2.26318,1.3623,-157.148,180
1568040039,234.069,119.211,-17.3013,-2.26318,1.34033,-157.148,184
1568040039,234.069,119.211,-17.3013,-2.26318,1.34033,-157.148,184
1568040039,234.069,119.211,-17.3013,-2.26318,1.34033,-157.148,184
1568040039,234.069,119.211,-17.3013,-2.26318,1.34033,-157.148,184
1568040039,234.069,119.211,-17.3013,-2.26318,1.34033,-157.148,184
1568040039,234.069,119.211,-17.3013,-2.26318,1.3623,-157.148,184
1568040039,234.069,119.211,-17.3013,-2.26318,1.3623,-157.148,184
1568040039,234.069,119.211,-17.3013,-2.26318,1.3623,-157.148,184
1568040039,234.069,119.211,-17.3013,-2.26318,1.3623,-157.148,184
1568040039,234.069,119.211,-17.3013,-2.26318,1.3623,-157.148,184
1568040039,234.069,119.211,-17.3013,-2.26318,1.3623,-157.148,184
1568040040,234.069,119.211,-17.3013,-2.26318,1.3623,-157.148,184
1568040040,234.069,119.211,-17.3013,-2.26318,1.3623,-157.148,184
1568040040,234.069,119.211,-17.3013,-2.26318,1.3623,-157.148,184
1568040040,234.069,119.211,-17.3013,-2.26318,1.3623,-157.148,184
1568040040,234.069,119.211,-17.3013,-2.26318,1.3623,-157.148,184
1568040040,234.069,119.211,-17.3013,-2.26318,1.3623,-157.148,184
1568040040,234.069,119.211,-17.3013,-2.26318,1.3623,-157.148,184
1568040040,234.069,119.211,-17.3013,-2.28516,1.3623,-157.148,184
1568040040,234.069,119.211,-17.3013,-2.28516,1.3623,-157.148,184
1568040040,234.069,119.211,-17.3013,-2.28516,1.3623,-157.148,184
1568040040,234.069,119.211,-17.3013,-2.28516,1.3623,-157.148,184
1568040040,234.069,119.211,-17.3013,-2.28516,1.3623,-157.148,184
1568040040,234.069,119.211,-17.3013,-2.28516,1.3623,-157.148,184
1568040040,234.069,119.211,-17.3013,-2.28516,1.3623,-157.148,184
1568040040,234.069,119.211,-17.3013,-2.28516,1.3623,-157.148,184
1568040040,234.069,119.211,-17.3013,-2.28516,1.3623,-157.148,184
1568040040,234.069,119.211,-17.3013,-2.28516,1.3623,-157.148,184
1568040040,234.069,119.211,-17.3013,-2.28516,1.3623,-157.148,184
1568040040,234.069,119.211,-17.3013,-2.28516,1.3623,-157.148,184
1568040040,234.069,119.211,-17.3013,-2.28516,1.3623,-157.148,184
1568040040,234.069,119.211,-17.3013,-2.28516,1.3623,-157.148,184
1568040040,234.069,119.211,-17.3013,-2.28516,1.3623,-157.148,184
1568040040,234.069,119.211,-17.3013,-2.28516,1.3623,-157.148,184
1568040040,234.069,119.211,-17.3013,-2.28516,1.3623,-157.148,184
1568040040,234.069,119.211,-17.3013,-2.28516,1.3623,-157.148,184
1568040040,234.069,119.211,-17.3013,-2.26318,1.3623,-157.148,184
1568040040,234.069,119.211,-17.3013,-2.26318,1.3623,-157.148,184
1568040040,234.069,119.211,-17.3013,-2.26318,1.3623,-157.148,184
1568040040,234.069,119.211,-17.3013,-2.26318,1.3623,-157.148,184
1568040040,234.069,119.211,-17.3013,-2.26318,1.3623,-157.148,184
1568040040,234.069,119.211,-17.3013,-2.26318,1.3623,-157.148,184
1568040040,234.069,119.211,-17.3013,-2.26318,1.3623,-157.148,184
1568040040,234.069,119.211,-17.3013,-2.26318,1.3623,-157.148,184
1568040040,234.069,119.211,-17.3013,-2.26318,1.3623,-157.148,184
1568040040,234.069,119.211,-17.3013,-2.26318,1.3623,-157.148,184
1568040040,234.069,119.211,-17.3013,-2.26318,1.3623,-157.148,184
1568040040,234.069,119.211,-17.3013,-2.26318,1.3623,-157.148,184
1568040040,234.069,119.211,-17.3013,-2.26318,1.3623,-157.148,184
1568040040,234.069,119.211,-17.3013,-2.26318,1.3623,-157.148,184
1568040040,234.069,119.211,-17.3013,-2.26318,1.3623,-157.148,184
1568040040,234.069,119.211,-17.3013,-2.26318,1.3623,-157.148,184
1568040040,234.069,119.211,-17.3013,-2.26318,1.3623,-157.148,184
1568040040,234.069,119.211,-17.3013,-2.26318,1.3623,-157.148,184
1568040040,234.069,119.211,-17.3013,-2.26318,1.3623,-157.148,184
1568040040,234.069,119.211,-17.3013,-2.26318,1.3623,-157.148,184
1568040040,234.069,119.211,-17.3013,-2.26318,1.3623,-157.148,184
1568040040,234.069,119.211,-17.3013,-2.26318,1.3623,-157.148,184
1568040040,234.069,119.211,-17.3013,-2.26318,1.3623,-157.148,184
1568040040,234.069,119.211,-17.3013,-2.26318,1.3623,-157.148,184
1568040040,234.069,119.211,-17.3013,-2.26318,1.3623,-157.148,184
1568040040,234.069,119.211,-17.3013,-2.28516,1.3623,-157.148,184
1568040040,234.069,119.211,-17.3013,-2.26318,1.3623,-157.148,184
1568040040,234.069,119.211,-17.3013,-2.26318,1.3623,-157.148,184
1568040040,234.069,119.211,-17.3013,-2.26318,1.3623,-157.148,184
1568040040,234.069,119.211,-17.3013,-2.26318,1.3623,-157.148,184
1568040040,234.069,119.211,-17.3013,-2.26318,1.3623,-157.148,184
1568040040,234.069,119.211,-17.3013,-2.26318,1.3623,-157.148,184
1568040040,234.069,119.211,-17.3013,-2.26318,1.3623,-157.148,184
1568040040,234.069,119.211,-17.3013,-2.26318,1.3623,-157.148,184
1568040040,234.069,119.211,-17.3013,-2.26318,1.3623,-157.148,184
1568040040,234.069,119.211,-17.3013,-2.26318,1.3623,-157.148,184
1568040040,234.069,119.211,-17.3013,-2.26318,1.3623,-157.148,184
1568040040,234.069,119.211,-17.3013,-2.26318,1.3623,-157.148,184
1568040040,234.069,119.211,-17.3013,-2.26318,1.3623,-157.148,184
1568040040,234.069,119.211,-17.3013,-2.26318,1.3623,-157.148,184
1568040040,234.069,119.211,-17.3013,-2.26318,1.3623,-157.148,184
1568040040,234.069,119.211,-17.3013,-2.26318,1.3623,-157.148,184
1568040040,234.069,119.211,-17.3013,-2.26318,1.3623,-157.148,184
1568040040,234.069,119.211,-17.3013,-2.26318,1.3623,-157.148,184
1568040040,234.069,119.211,-17.3013,-2.26318,1.3623,-157.148,184
1568040040,234.069,119.211,-17.3013,-2.26318,1.3623,-157.148,184
1568040040,234.069,119.211,-17.3013,-2.26318,1.3623,-157.148,184
1568040040,234.069,119.211,-17.3013,-2.26318,1.3623,-157.148,184
1568040040,234.069,119.211,-17.3013,-2.26318,1.3623,-157.148,184
1568040040,234.069,119.211,-17.3013,-2.26318,1.3623,-157.148,184
1568040040,234.069,119.211,-17.3013,-2.26318,1.3623,-157.148,188
1568040040,234.069,119.211,-17.3013,-2.26318,1.3623,-157.148,188
1568040040,234.069,119.211,-17.3013,-2.26318,1.3623,-157.148,188
1568040040,234.069,119.211,-17.3013,-2.26318,1.3623,-157.148,188
1568040040,234.069,119.211,-17.3013,-2.26318,1.3623,-157.148,188
1568040040,234.069,119.211,-17.3013,-2.26318,1.3623,-157.148,188
1568040040,234.069,119.211,-17.3013,-2.28516,1.3623,-157.148,188
1568040040,234.069,119.211,-17.3013,-2.28516,1.3623,-157.148,188
1568040040,234.069,119.211,-17.3013,-2.28516,1.3623,-157.148,188
1568040040,234.069,119.211,-17.3013,-2.28516,1.3623,-157.148,188
1568040040,234.069,119.211,-17.3013,-2.28516,1.3623,-157.148,188
1568040040,234.069,119.211,-17.3013,-2.28516,1.3623,-157.148,188
1568040040,234.069,119.211,-17.3013,-2.28516,1.3623,-157.148,188
1568040040,234.069,119.211,-17.3013,-2.28516,1.3623,-157.148,188
1568040040,234.069,119.211,-17.3013,-2.28516,1.3623,-157.148,188
1568040040,234.069,119.211,-17.3013,-2.28516,1.3623,-157.148,188
1568040040,234.069,119.211,-17.3013,-2.28516,1.3623,-157.148,188
1568040040,234.069,119.211,-17.3013,-2.28516,1.3623,-157.148,188
1568040040,234.069,119.211,-17.3013,-2.28516,1.3623,-157.148,188
1568040040,234.069,119.211,-17.3013,-2.28516,1.3623,-157.148,188
1568040040,234.069,119.211,-17.3013,-2.28516,1.3623,-157.148,188
1568040040,234.069,119.211,-17.3013,-2.28516,1.3623,-157.148,188
1568040040,234.069,119.211,-17.3013,-2.28516,1.3623,-157.148,184
1568040040,234.069,119.211,-17.3013,-2.28516,1.3623,-157.148,184
1568040040,234.069,119.211,-17.3013,-2.28516,1.3623,-157.148,184
1568040041,234.069,119.211,-17.3013,-2.28516,1.3623,-157.148,184
1568040041,234.069,119.211,-17.3013,-2.28516,1.3623,-157.148,184
1568040041,234.069,119.211,-17.3013,-2.28516,1.3623,-157.148,184
1568040041,234.069,119.211,-17.3013,-2.28516,1.3623,-157.148,184
1568040041,234.069,119.211,-17.3013,-2.28516,1.3623,-157.148,184
1568040041,234.069,119.211,-17.3013,-2.28516,1.3623,-157.148,184
1568040041,234.069,119.211,-17.3013,-2.28516,1.3623,-157.148,184
1568040041,234.069,119.211,-17.3013,-2.28516,1.3623,-157.148,184
1568040041,234.069,119.211,-17.3013,-2.28516,1.3623,-157.148,184
1568040041,234.069,119.211,-17.3013,-2.28516,1.3623,-157.148,184
1568040041,234.069,119.211,-17.3013,-2.28516,1.3623,-157.148,184
1568040041,234.069,119.211,-17.3013,-2.28516,1.3623,-157.148,184
1568040041,234.069,119.211,-17.3013,-2.28516,1.3623,-157.148,184
1568040041,234.069,119.211,-17.3013,-2.28516,1.3623,-157.148,184
1568040041,234.069,119.211,-17.3013,-2.26318,1.3623,-157.148,184
1568040041,234.069,119.211,-17.3013,-2.26318,1.3623,-157.148,184
1568040041,234.069,119.211,-17.3013,-2.26318,1.3623,-157.148,184
1568040041,234.069,119.211,-17.3013,-2.26318,1.3623,-157.148,184
1568040041,234.069,119.211,-17.3013,-2.26318,1.3623,-157.148,184
1568040041,234.069,119.211,-17.3013,-2.26318,1.3623,-157.148,184
1568040041,234.069,119.211,-17.3013,-2.26318,1.3623,-157.148,184
1568040041,234.069,119.211,-17.3013,-2.26318,1.3623,-157.148,184
1568040041,234.069,119.211,-17.3013,-2.26318,1.3623,-157.148,184
1568040041,234.069,119.211,-17.3013,-2.26318,1.3623,-157.148,184
1568040041,234.069,119.211,-17.3013,-2.26318,1.3623,-157.148,184
1568040041,234.069,119.211,-17.3013,-2.26318,1.3623,-157.148,184
1568040041,234.069,119.211,-17.3013,-2.26318,1.3623,-157.148,184
1568040041,234.069,119.211,-17.3013,-2.26318,1.3623,-157.148,184
1568040041,234.069,119.211,-17.3013,-2.26318,1.3623,-157.148,184
1568040041,234.069,119.211,-17.3013,-2.26318,1.3623,-157.148,184
1568040041,234.069,119.211,-17.3013,-2.26318,1.3623,-157.148,184
1568040041,234.069,119.211,-17.3013,-2.26318,1.3623,-157.148,184
1568040041,234.069,119.211,-17.3013,-2.26318,1.3623,-157.148,184
1568040041,234.069,119.211,-17.3013,-2.26318,1.3623,-157.148,184
1568040041,234.069,119.211,-17.3013,-2.26318,1.3623,-157.148,184
1568040041,234.069,119.211,-17.3013,-2.26318,1.3623,-157.148,184
1568040041,234.069,119.211,-17.3013,-2.26318,1.3623,-157.148,184
1568040041,234.069,119.211,-17.3013,-2.26318,1.3623,-157.148,184
1568040041,234.069,119.211,-17.3013,-2.26318,1.34033,-157.148,184
1568040041,234.069,119.211,-17.3013,-2.26318,1.34033,-157.148,184
1568040041,234.069,119.211,-17.3013,-2.26318,1.34033,-157.148,184
1568040041,234.069,119.211,-17.3013,-2.26318,1.34033,-157.148,184
1568040041,234.069,119.211,-17.3013,-2.26318,1.34033,-157.148,184
1568040041,234.069,119.211,-17.3013,-2.26318,1.34033,-157.148,184
1568040041,234.069,119.211,-17.3013,-2.26318,1.34033,-157.148,184
1568040041,234.069,119.211,-17.3013,-2.26318,1.34033,-157.148,184
1568040041,234.069,119.211,-17.3013,-2.26318,1.34033,-157.148,184
1568040041,234.069,119.211,-17.3013,-2.26318,1.34033,-157.148,184
1568040041,234.069,119.211,-17.3013,-2.26318,1.34033,-157.126,184
1568040041,234.069,119.211,-17.3013,-2.26318,1.34033,-157.126,184
1568040041,234.069,119.211,-17.3013,-2.26318,1.34033,-157.126,184
1568040041,234.069,119.211,-17.3013,-2.26318,1.34033,-157.126,184
1568040041,234.069,119.211,-17.3013,-2.26318,1.34033,-157.126,184
1568040041,234.069,119.211,-17.3013,-2.26318,1.34033,-157.126,184
1568040041,234.069,119.211,-17.3013,-2.26318,1.34033,-157.126,184
1568040041,234.069,119.211,-17.3013,-2.26318,1.34033,-157.126,184
1568040041,234.069,119.211,-17.3013,-2.26318,1.34033,-157.126,184
1568040041,234.069,119.211,-17.3013,-2.28516,1.34033,-157.126,184
1568040041,234.069,119.211,-17.3013,-2.28516,1.34033,-157.126,184
1568040041,234.069,119.211,-17.3013,-2.28516,1.34033,-157.126,188
1568040041,234.069,119.211,-17.3013,-2.28516,1.34033,-157.126,188
1568040041,234.069,119.211,-17.3013,-2.28516,1.34033,-157.148,188
1568040041,234.069,119.211,-17.3013,-2.28516,1.34033,-157.148,188
1568040041,234.069,119.211,-17.3013,-2.28516,1.34033,-157.148,188
1568040041,234.069,119.211,-17.3013,-2.28516,1.34033,-157.148,188
1568040041,234.069,119.211,-17.3013,-2.28516,1.34033,-157.148,188
1568040041,234.069,119.211,-17.3013,-2.28516,1.34033,-157.148,188
1568040041,234.069,119.211,-17.3013,-2.28516,1.34033,-157.148,188
1568040041,234.069,119.211,-17.3013,-2.28516,1.34033,-157.148,188
1568040041,234.069,119.211,-17.3013,-2.28516,1.34033,-157.148,184
1568040041,234.069,119.211,-17.3013,-2.28516,1.34033,-157.148,184
1568040041,234.069,119.211,-17.3013,-2.28516,1.34033,-157.148,184
1568040041,234.069,119.211,-17.3013,-2.28516,1.34033,-157.148,184
1568040041,234.069,119.211,-17.3013,-2.28516,1.34033,-157.148,184
1568040041,234.069,119.211,-17.3013,-2.28516,1.34033,-157.148,184
1568040041,234.069,119.211,-17.3013,-2.28516,1.34033,-157.148,184
1568040041,234.069,119.211,-17.3013,-2.28516,1.34033,-157.148,184
1568040041,234.069,119.211,-17.3013,-2.28516,1.34033,-157.148,184
1568040041,234.069,119.211,-17.3013,-2.28516,1.34033,-157.148,184
1568040041,234.069,119.211,-17.3013,-2.28516,1.34033,-157.148,184
1568040041,234.069,119.211,-17.3013,-2.28516,1.34033,-157.148,184
1568040041,234.069,119.211,-17.3013,-2.28516,1.34033,-157.148,184
1568040041,234.069,119.211,-17.3013,-2.28516,1.34033,-157.148,184
1568040041,234.069,119.211,-17.3013,-2.28516,1.34033,-157.148,180
1568040041,234.069,119.211,-17.3013,-2.28516,1.34033,-157.148,180
1568040041,234.069,119.211,-17.3013,-2.28516,1.34033,-157.148,180
1568040041,234.069,119.211,-17.3013,-2.26318,1.34033,-157.148,180
1568040041,234.069,119.211,-17.3013,-2.26318,1.34033,-157.148,180
1568040041,234.069,119.211,-17.3013,-2.26318,1.34033,-157.148,180
1568040041,234.069,119.211,-17.3013,-2.26318,1.34033,-157.148,180
1568040041,234.069,119.211,-17.3013,-2.26318,1.34033,-157.148,180
1568040041,234.069,119.211,-17.3013,-2.26318,1.34033,-157.148,180
1568040041,234.069,119.211,-17.3013,-2.26318,1.34033,-157.148,180
1568040041,234.069,119.211,-17.3013,-2.28516,1.34033,-157.148,180
1568040041,234.069,119.211,-17.3013,-2.28516,1.34033,-157.148,180
1568040041,234.069,119.211,-17.3013,-2.28516,1.34033,-157.148,180
1568040041,234.069,119.211,-17.3013,-2.26318,1.34033,-157.148,180
1568040041,234.069,119.211,-17.3013,-2.26318,1.34033,-157.148,180
1568040041,234.069,119.211,-17.3013,-2.26318,1.34033,-157.148,180
1568040041,234.069,119.211,-17.3013,-2.26318,1.34033,-157.148,180
1568040041,234.069,119.211,-17.3013,-2.26318,1.34033,-157.148,180
1568040042,234.069,119.211,-17.3013,-2.26318,1.34033,-157.148,180
1568040042,234.069,119.211,-17.3013,-2.26318,1.34033,-157.148,180
1568040042,234.069,119.211,-17.3013,-2.26318,1.34033,-157.148,180
1568040042,234.069,119.211,-17.3013,-2.26318,1.34033,-157.148,180
1568040042,234.069,119.211,-17.3013,-2.26318,1.34033,-157.148,180
1568040042,234.069,119.211,-17.3013,-2.26318,1.34033,-157.148,180
1568040042,234.069,119.211,-17.3013,-2.26318,1.34033,-157.148,180
1568040042,234.069,119.211,-17.3013,-2.26318,1.34033,-157.148,180
1568040042,234.069,119.211,-17.3013,-2.26318,1.34033,-157.148,180
1568040042,234.069,119.211,-17.3013,-2.26318,1.34033,-157.148,180
1568040042,234.069,119.211,-17.3013,-2.26318,1.34033,-157.148,180
1568040042,234.069,119.211,-17.3013,-2.26318,1.34033,-157.148,180
1568040042,234.069,119.211,-17.3013,-2.26318,1.34033,-157.148,180
1568040042,234.069,119.211,-17.3013,-2.26318,1.34033,-157.148,180
1568040042,234.069,119.211,-17.3013,-2.26318,1.34033,-157.148,180
1568040042,234.069,119.211,-17.3013,-2.26318,1.34033,-157.148,180
1568040042,234.069,119.211,-17.3013,-2.26318,1.34033,-157.148,180
1568040042,234.069,119.211,-17.3013,-2.26318,1.34033,-157.148,180
1568040042,234.069,119.211,-17.3013,-2.26318,1.34033,-157.148,184
1568040042,234.069,119.211,-17.3013,-2.26318,1.34033,-157.148,184
1568040042,234.069,119.211,-17.3013,-2.26318,1.34033,-157.148,184
1568040042,234.069,119.211,-17.3013,-2.26318,1.3623,-157.148,184
1568040042,234.069,119.211,-17.3013,-2.26318,1.3623,-157.148,184
1568040042,234.069,119.211,-17.3013,-2.26318,1.3623,-157.148,184
1568040042,234.069,119.211,-17.3013,-2.28516,1.3623,-157.148,184
1568040042,234.069,119.211,-17.3013,-2.28516,1.3623,-157.148,184
1568040042,234.069,119.211,-17.3013,-2.28516,1.3623,-157.148,184
1568040042,234.069,119.211,-17.3013,-2.28516,1.3623,-157.148,184
1568040042,234.069,119.211,-17.3013,-2.28516,1.3623,-157.148,184
1568040042,234.069,119.211,-17.3013,-2.28516,1.3623,-157.148,184
1568040042,234.069,119.211,-17.3013,-2.28516,1.3623,-157.148,184
1568040042,234.069,119.211,-17.3013,-2.28516,1.3623,-157.148,184
1568040042,234.069,119.211,-17.3013,-2.28516,1.3623,-157.148,184
1568040042,234.069,119.211,-17.3013,-2.28516,1.3623,-157.148,184
1568040042,234.069,119.211,-17.3013,-2.28516,1.3623,-157.148,184
1568040042,234.069,119.211,-17.3013,-2.28516,1.3623,-157.148,184
1568040042,234.069,119.211,-17.3013,-2.28516,1.3623,-157.148,184
1568040042,234.069,119.211,-17.3013,-2.28516,1.3623,-157.148,184
1568040042,234.069,119.211,-17.3013,-2.28516,1.3623,-157.148,184
1568040042,234.069,119.211,-17.3013,-2.28516,1.3623,-157.148,180
1568040042,234.069,119.211,-17.3013,-2.28516,1.3623,-157.148,180
1568040042,234.069,119.211,-17.3013,-2.28516,1.3623,-157.148,180
1568040042,234.069,119.211,-17.3013,-2.28516,1.3623,-157.148,180
1568040042,234.069,119.211,-17.3013,-2.28516,1.3623,-157.148,180
1568040042,234.069,119.211,-17.3013,-2.28516,1.3623,-157.148,180
1568040042,234.069,119.211,-17.3013,-2.28516,1.3623,-157.148,180
1568040042,234.069,119.211,-17.3013,-2.28516,1.3623,-157.148,180
1568040042,234.069,119.211,-17.3013,-2.28516,1.3623,-157.148,180
1568040042,234.069,119.211,-17.3013,-2.26318,1.3623,-157.148,180
1568040042,234.069,119.211,-17.3013,-2.26318,1.3623,-157.148,180
1568040042,234.069,119.211,-17.3013,-2.26318,1.3623,-157.148,180
1568040042,234.069,119.211,-17.3013,-2.26318,1.3623,-157.148,180
1568040042,234.069,119.211,-17.3013,-2.26318,1.3623,-157.148,180
1568040042,234.069,119.211,-17.3013,-2.26318,1.3623,-157.148,180
1568040042,234.069,119.211,-17.3013,-2.26318,1.3623,-157.148,180
1568040042,234.069,119.211,-17.3013,-2.26318,1.3623,-157.148,180
1568040042,234.069,119.211,-17.3013,-2.28516,1.3623,-157.148,180
1568040042,234.069,119.211,-17.3013,-2.28516,1.3623,-157.148,180
1568040042,234.069,119.211,-17.3013,-2.28516,1.3623,-157.148,180
1568040042,234.069,119.211,-17.3013,-2.28516,1.3623,-157.148,180
1568040042,234.069,119.211,-17.3013,-2.28516,1.3623,-157.148,180
1568040042,234.069,119.211,-17.3013,-2.28516,1.3623,-157.148,180
1568040042,234.069,119.211,-17.3013,-2.28516,1.3623,-157.148,184
1568040042,234.069,119.211,-17.3013,-2.28516,1.3623,-157.148,184
1568040042,234.069,119.211,-17.3013,-2.28516,1.3623,-157.148,184
1568040042,234.069,119.211,-17.3013,-2.28516,1.3623,-157.148,184
1568040042,234.069,119.211,-17.3013,-2.28516,1.3623,-157.148,184
1568040042,234.069,119.211,-17.3013,-2.28516,1.3623,-157.148,184
1568040042,234.069,119.211,-17.3013,-2.28516,1.3623,-157.148,184
1568040042,234.069,119.211,-17.3013,-2.28516,1.3623,-157.148,184
1568040042,234.069,119.211,-17.3013,-2.28516,1.3623,-157.148,184
1568040042,234.069,119.211,-17.3013,-2.28516,1.3623,-157.148,184
1568040042,234.069,119.211,-17.3013,-2.28516,1.3623,-157.148,184
1568040042,234.069,119.211,-17.3013,-2.28516,1.3623,-157.148,184
1568040042,234.069,119.211,-17.3013,-2.28516,1.3623,-157.148,184
1568040042,234.069,119.211,-17.3013,-2.28516,1.3623,-157.148,184
1568040042,234.069,119.211,-17.3013,-2.28516,1.3623,-157.148,184
1568040042,234.069,119.211,-17.3013,-2.28516,1.3623,-157.148,184
1568040042,234.069,119.211,-17.3013,-2.28516,1.3623,-157.148,184
1568040042,234.069,119.211,-17.3013,-2.28516,1.3623,-157.148,184
1568040042,234.069,119.211,-17.3013,-2.28516,1.3623,-157.148,184
1568040042,234.069,119.211,-17.3013,-2.28516,1.3623,-157.148,184
1568040042,234.069,119.211,-17.3013,-2.28516,1.3623,-157.148,184
1568040042,234.069,119.211,-17.3013,-2.28516,1.3623,-157.148,184
1568040042,234.069,119.211,-17.3013,-2.28516,1.3623,-157.148,184
1568040042,234.069,119.211,-17.3013,-2.28516,1.3623,-157.148,184
1568040042,234.069,119.211,-17.3013,-2.28516,1.3623,-157.148,184
1568040042,234.069,119.211,-17.3013,-2.28516,1.3623,-157.148,184
1568040042,234.069,119.211,-17.3013,-2.28516,1.3623,-157.148,184
1568040042,234.069,119.211,-17.3013,-2.28516,1.3623,-157.148,184
1568040042,234.069,119.211,-17.3013,-2.28516,1.3623,-157.148,184
1568040042,234.069,119.211,-17.3013,-2.28516,1.3623,-157.148,184
1568040042,234.069,119.211,-17.3013,-2.28516,1.3623,-157.148,184
1568040042,234.069,119.211,-17.3013,-2.28516,1.3623,-157.148,184
1568040042,234.069,119.211,-17.3013,-2.28516,1.3623,-157.148,184
1568040042,234.069,119.211,-17.3013,-2.28516,1.3623,-157.148,184
1568040042,234.069,119.211,-17.3013,-2.28516,1.3623,-157.148,184
1568040042,234.069,119.211,-17.3013,-2.28516,1.3623,-157.148,184
1568040042,234.069,119.211,-17.3013,-2.28516,1.3623,-157.148,184
1568040042,234.069,119.211,-17.3013,-2.28516,1.3623,-157.148,184
1568040043,234.069,119.211,-17.3013,-2.28516,1.3623,-157.148,184
1568040043,234.069,119.211,-17.3013,-2.28516,1.3623,-157.148,184
1568040043,234.069,119.211,-17.3013,-2.28516,1.3623,-157.148,184
1568040043,234.069,119.211,-17.3013,-2.28516,1.3623,-157.148,184
1568040043,234.069,119.211,-17.3013,-2.28516,1.3623,-157.148,184
1568040043,234.069,119.211,-17.3013,-2.28516,1.3623,-157.148,184
1568040048,195.449,160.288,-17.4129,-2.41699,1.58203,-156.995,132
1568040048,195.449,160.288,-17.4129,-2.41699,1.58203,-156.995,132
1568040048,195.449,160.288,-17.4129,-2.41699,1.58203,-156.995,132
1568040048,195.449,160.288,-17.4129,-2.41699,1.58203,-156.995,132
1568040048,195.449,160.288,-17.4129,-2.41699,1.58203,-156.995,132
1568040048,195.449,160.288,-17.4129,-2.41699,1.58203,-156.995,132
1568040048,195.449,160.288,-17.4129,-2.41699,1.58203,-156.995,132
1568040048,195.449,160.288,-17.4129,-2.43896,1.58203,-156.995,132
1568040048,195.449,160.288,-17.4129,-2.43896,1.58203,-156.995,132
1568040048,195.449,160.288,-17.4129,-2.43896,1.58203,-156.995,132
1568040048,195.449,160.288,-17.4129,-2.43896,1.58203,-156.995,132
1568040048,195.449,160.288,-17.4129,-2.43896,1.58203,-156.995,132
1568040048,195.449,160.288,-17.4129,-2.43896,1.58203,-156.995,132
1568040048,195.449,160.288,-17.4129,-2.43896,1.58203,-156.995,132
1568040048,195.449,160.288,-17.4129,-2.43896,1.58203,-156.995,132
1568040048,195.449,160.288,-17.4129,-2.43896,1.58203,-156.995,132
1568040048,195.449,160.288,-17.4129,-2.43896,1.58203,-156.995,132
1568040048,195.449,160.288,-17.4129,-2.43896,1.58203,-156.995,128
1568040048,195.449,160.288,-17.4129,-2.43896,1.58203,-156.995,128
1568040048,195.449,160.288,-17.4129,-2.43896,1.58203,-156.995,128
1568040048,195.449,160.288,-17.4129,-2.43896,1.58203,-156.995,128
1568040048,195.449,160.288,-17.4129,-2.43896,1.58203,-156.995,128
1568040048,195.449,160.288,-17.4129,-2.43896,1.58203,-156.995,128
1568040048,195.449,160.288,-17.4129,-2.43896,1.58203,-156.995,128
1568040048,195.449,160.288,-17.4129,-2.43896,1.58203,-156.995,128
1568040048,195.449,160.288,-17.4129,-2.43896,1.58203,-156.995,128
1568040048,195.449,160.288,-17.4129,-2.41699,1.58203,-156.995,128
1568040048,195.449,160.288,-17.4129,-2.41699,1.58203,-156.995,128
1568040048,195.449,160.288,-17.4129,-2.41699,1.58203,-156.995,128
1568040048,195.449,160.288,-17.4129,-2.41699,1.58203,-156.995,128
1568040048,195.449,160.288,-17.4129,-2.41699,1.58203,-157.017,128
1568040049,195.449,160.288,-17.4129,-2.41699,1.58203,-157.017,128
1568040049,195.449,160.288,-17.4129,-2.41699,1.58203,-157.017,128
1568040049,195.449,160.288,-17.4129,-2.41699,1.58203,-157.017,128
1568040049,195.449,160.288,-17.4129,-2.43896,1.58203,-157.017,128
1568040049,195.449,160.288,-17.4129,-2.41699,1.58203,-157.017,128
1568040049,195.449,160.288,-17.4129,-2.41699,1.58203,-157.017,128
1568040049,195.449,160.288,-17.4129,-2.41699,1.58203,-157.017,128
1568040049,195.449,160.288,-17.4129,-2.41699,1.58203,-157.017,128
1568040049,195.449,160.288,-17.4129,-2.41699,1.58203,-157.017,128
1568040049,195.449,160.288,-17.4129,-2.41699,1.58203,-157.017,128
1568040049,195.449,160.288,-17.4129,-2.41699,1.58203,-157.017,128
1568040049,195.449,160.288,-17.4129,-2.41699,1.58203,-157.017,128
1568040049,195.449,160.288,-17.4129,-2.41699,1.58203,-157.017,128
1568040049,195.449,160.288,-17.4129,-2.41699,1.58203,-157.017,128
1568040049,195.449,160.288,-17.4129,-2.41699,1.58203,-157.017,128
1568040049,195.449,160.288,-17.4129,-2.41699,1.58203,-157.017,128
1568040049,195.449,160.288,-17.4129,-2.41699,1.58203,-157.017,128
1568040049,195.449,160.288,-17.4129,-2.41699,1.58203,-157.017,128
1568040049,195.449,160.288,-17.4129,-2.41699,1.58203,-157.017,128
1568040049,195.449,160.288,-17.4129,-2.41699,1.58203,-157.017,128
1568040049,195.449,160.288,-17.4129,-2.41699,1.604,-157.017,128
1568040049,195.449,160.288,-17.4129,-2.41699,1.604,-157.017,128
1568040049,195.449,160.288,-17.4129,-2.41699,1.604,-157.017,128
1568040049,195.449,160.288,-17.4129,-2.41699,1.604,-157.017,128
1568040049,195.449,160.288,-17.4129,-2.41699,1.58203,-157.017,128
1568040049,195.449,160.288,-17.4129,-2.41699,1.58203,-157.017,128
1568040049,195.449,160.288,-17.4129,-2.41699,1.604,-157.017,128
1568040049,195.449,160.288,-17.4129,-2.41699,1.604,-157.017,128
1568040049,195.449,160.288,-17.4129,-2.41699,1.604,-157.017,128
1568040049,195.449,160.288,-17.4129,-2.41699,1.604,-157.017,128
1568040049,195.449,160.288,-17.4129,-2.41699,1.604,-157.017,128
1568040049,195.449,160.288,-17.4129,-2.41699,1.604,-157.017,128
1568040049,195.449,160.288,-17.4129,-2.41699,1.604,-157.017,128
1568040049,195.449,160.288,-17.4129,-2.41699,1.604,-157.017,128
1568040049,195.449,160.288,-17.4129,-2.41699,1.604,-157.017,128
1568040049,195.449,160.288,-17.4129,-2.41699,1.604,-157.017,128
1568040049,195.449,160.288,-17.4129,-2.41699,1.604,-157.017,128
1568040049,195.449,160.288,-17.4129,-2.41699,1.604,-157.017,132
1568040049,195.449,160.288,-17.4129,-2.41699,1.604,-157.017,132
1568040049,195.449,160.288,-17.4129,-2.41699,1.604,-157.017,132
1568040049,195.449,160.288,-17.4129,-2.41699,1.604,-157.017,132
1568040049,195.449,160.288,-17.4129,-2.41699,1.604,-157.017,132
1568040049,195.449,160.288,-17.4129,-2.41699,1.604,-157.017,132
1568040049,195.449,160.288,-17.4129,-2.41699,1.604,-157.017,132
1568040049,195.449,160.288,-17.4129,-2.41699,1.604,-157.017,132
1568040049,195.449,160.288,-17.4129,-2.41699,1.604,-157.017,132
1568040049,195.449,160.288,-17.4129,-2.41699,1.604,-157.017,132
1568040049,195.449,160.288,-17.4129,-2.41699,1.604,-157.017,132
1568040049,195.449,160.288,-17.4129,-2.41699,1.604,-157.017,132
1568040049,195.449,160.288,-17.4129,-2.41699,1.604,-157.017,132
1568040049,195.449,160.288,-17.4129,-2.41699,1.604,-157.017,132
1568040049,195.449,160.288,-17.4129,-2.41699,1.604,-157.017,132
1568040049,195.449,160.288,-17.4129,-2.41699,1.604,-157.017,132
1568040049,195.449,160.288,-17.4129,-2.41699,1.604,-157.017,132
1568040049,195.449,160.288,-17.4129,-2.41699,1.604,-157.017,132
1568040049,195.449,160.288,-17.4129,-2.41699,1.604,-157.017,132
1568040049,195.449,160.288,-17.4129,-2.41699,1.604,-157.017,132
1568040049,195.449,160.288,-17.4129,-2.41699,1.604,-157.017,132
1568040049,195.449,160.288,-17.4129,-2.41699,1.604,-157.017,132
1568040049,195.449,160.288,-17.4129,-2.41699,1.604,-157.017,132
1568040049,195.449,160.288,-17.4129,-2.41699,1.604,-157.017,132
1568040049,195.449,160.288,-17.4129,-2.41699,1.604,-157.017,132
1568040049,195.449,160.288,-17.4129,-2.41699,1.604,-157.017,132
1568040049,195.449,160.288,-17.4129,-2.41699,1.604,-157.017,132
1568040049,195.449,160.288,-17.4129,-2.41699,1.604,-157.017,132
1568040049,195.449,160.288,-17.4129,-2.41699,1.604,-157.017,132
1568040049,195.449,160.288,-17.4129,-2.41699,1.604,-157.017,132
1568040049,195.449,160.288,-17.4129,-2.41699,1.604,-157.017,132
1568040049,195.449,160.288,-17.4129,-2.41699,1.604,-157.017,132
1568040049,195.449,160.288,-17.4129,-2.41699,1.604,-157.017,132
1568040049,195.449,160.288,-17.4129,-2.41699,1.604,-157.017,132
1568040049,195.449,160.288,-17.4129,-2.41699,1.604,-157.017,132
1568040049,195.449,160.288,-17.4129,-2.41699,1.604,-157.017,132
1568040049,195.449,160.288,-17.4129,-2.41699,1.604,-157.017,132
1568040049,195.449,160.288,-17.4129,-2.41699,1.604,-157.017,132
1568040049,195.449,160.288,-17.4129,-2.41699,1.604,-157.017,132
1568040049,195.449,160.288,-17.4129,-2.41699,1.604,-157.017,132
1568040049,195.449,160.288,-17.4129,-2.41699,1.604,-157.017,132
1568040049,195.449,160.288,-17.4129,-2.41699,1.604,-157.017,132
1568040049,195.449,160.288,-17.4129,-2.41699,1.604,-157.017,132
1568040049,195.449,160.288,-17.4129,-2.41699,1.604,-157.017,132
1568040049,195.449,160.288,-17.4129,-2.41699,1.604,-157.017,132
1568040049,195.449,160.288,-17.4129,-2.41699,1.604,-157.017,132
1568040049,195.449,160.288,-17.4129,-2.41699,1.604,-157.017,132
1568040049,195.449,160.288,-17.4129,-2.41699,1.604,-157.017,132
1568040049,195.449,160.288,-17.4129,-2.41699,1.604,-157.017,132
1568040049,195.449,160.288,-17.4129,-2.41699,1.604,-157.017,132
1568040049,195.449,160.288,-17.4129,-2.41699,1.604,-157.017,132
1568040049,195.449,160.288,-17.4129,-2.41699,1.604,-157.017,136
1568040049,195.449,160.288,-17.4129,-2.41699,1.604,-157.017,136
1568040049,195.449,160.288,-17.4129,-2.41699,1.58203,-157.017,136
1568040049,195.449,160.288,-17.4129,-2.41699,1.58203,-157.017,136
1568040049,195.449,160.288,-17.4129,-2.41699,1.58203,-157.017,136
1568040049,195.449,160.288,-17.4129,-2.41699,1.58203,-157.017,136
1568040049,195.449,160.288,-17.4129,-2.41699,1.58203,-157.017,136
1568040049,195.449,160.288,-17.4129,-2.41699,1.58203,-157.017,136
1568040049,195.449,160.288,-17.4129,-2.41699,1.58203,-157.017,136
1568040049,195.449,160.288,-17.4129,-2.41699,1.58203,-157.017,136
1568040049,195.449,160.288,-17.4129,-2.41699,1.58203,-157.017,132
1568040049,195.449,160.288,-17.4129,-2.41699,1.58203,-157.017,132
1568040050,195.449,160.288,-17.4129,-2.41699,1.604,-157.017,132
1568040050,195.449,160.288,-17.4129,-2.41699,1.604,-157.017,132
1568040050,195.449,160.288,-17.4129,-2.41699,1.604,-157.017,132
1568040050,195.449,160.176,-17.4129,-2.41699,1.58203,-157.017,132
1568040050,195.449,160.176,-17.4129,-2.41699,1.58203,-157.017,132
1568040050,195.449,160.176,-17.4129,-2.41699,1.58203,-157.017,132
1568040050,195.449,160.176,-17.4129,-2.41699,1.58203,-157.017,132
1568040050,195.449,160.176,-17.4129,-2.41699,1.58203,-157.017,132
1568040050,195.449,160.176,-17.4129,-2.41699,1.58203,-157.017,132
1568040050,195.449,160.176,-17.4129,-2.41699,1.58203,-157.017,132
1568040050,195.449,160.176,-17.4129,-2.41699,1.58203,-157.017,132
1568040050,195.449,160.176,-17.4129,-2.41699,1.58203,-157.017,132
1568040050,195.449,160.288,-17.4129,-2.41699,1.58203,-157.017,132
1568040050,195.449,160.288,-17.4129,-2.41699,1.58203,-157.017,132
1568040050,195.449,160.288,-17.4129,-2.41699,1.58203,-157.017,132
1568040050,195.449,160.288,-17.4129,-2.41699,1.58203,-157.017,132
1568040050,195.449,160.288,-17.4129,-2.41699,1.58203,-157.017,132
1568040050,195.449,160.288,-17.4129,-2.41699,1.58203,-157.017,132
1568040050,195.449,160.288,-17.4129,-2.41699,1.58203,-157.017,132
1568040050,195.449,160.288,-17.4129,-2.41699,1.58203,-157.017,132
1568040050,195.449,160.288,-17.4129,-2.41699,1.58203,-157.017,136
1568040050,195.449,160.288,-17.4129,-2.41699,1.58203,-157.017,136
1568040050,195.449,160.288,-17.4129,-2.41699,1.58203,-157.017,136
1568040050,195.449,160.288,-17.4129,-2.41699,1.58203,-157.017,136
1568040050,195.449,160.176,-17.4129,-2.41699,1.58203,-157.017,136
1568040050,195.449,160.176,-17.4129,-2.41699,1.58203,-157.017,136
1568040050,195.449,160.176,-17.4129,-2.41699,1.58203,-157.017,136
1568040050,195.449,160.288,-17.4129,-2.41699,1.58203,-157.017,136
1568040050,195.449,160.288,-17.4129,-2.41699,1.58203,-157.017,136
1568040050,195.449,160.288,-17.4129,-2.41699,1.58203,-157.017,136
1568040050,195.449,160.288,-17.4129,-2.41699,1.58203,-157.017,136
1568040050,195.449,160.288,-17.4129,-2.41699,1.58203,-157.017,136
1568040050,195.449,160.288,-17.4129,-2.41699,1.58203,-156.995,136
1568040050,195.449,160.288,-17.4129,-2.41699,1.58203,-156.995,136
1568040050,195.449,160.288,-17.4129,-2.41699,1.58203,-156.995,136
1568040050,195.449,160.288,-17.4129,-2.41699,1.58203,-157.017,136
1568040050,195.449,160.288,-17.4129,-2.41699,1.58203,-157.017,136
1568040050,195.449,160.288,-17.4129,-2.41699,1.58203,-157.017,136
1568040050,195.449,160.288,-17.4129,-2.41699,1.58203,-157.017,136
1568040050,195.449,160.288,-17.4129,-2.41699,1.58203,-157.017,136
1568040050,195.449,160.288,-17.4129,-2.41699,1.58203,-157.017,136
1568040050,195.449,160.288,-17.4129,-2.41699,1.58203,-157.017,136
1568040050,195.449,160.288,-17.4129,-2.41699,1.58203,-157.017,136
1568040050,195.449,160.288,-17.4129,-2.41699,1.58203,-157.017,136
1568040050,195.449,160.288,-17.4129,-2.41699,1.58203,-157.017,136
1568040050,195.449,160.288,-17.4129,-2.41699,1.58203,-157.017,136
1568040050,195.449,160.288,-17.4129,-2.41699,1.58203,-157.017,136
1568040050,195.449,160.288,-17.4129,-2.41699,1.58203,-157.017,136
1568040050,195.449,160.288,-17.4129,-2.41699,1.58203,-157.017,136
1568040050,195.449,160.288,-17.4129,-2.41699,1.58203,-157.017,136
1568040050,195.449,160.288,-17.4129,-2.41699,1.58203,-156.995,132
1568040050,195.449,160.288,-17.4129,-2.41699,1.58203,-156.995,132
1568040050,195.449,160.288,-17.4129,-2.41699,1.58203,-156.995,132
1568040050,195.449,160.288,-17.4129,-2.41699,1.58203,-156.995,132
1568040050,195.449,160.288,-17.4129,-2.41699,1.58203,-156.995,132
1568040050,195.449,160.288,-17.4129,-2.41699,1.58203,-156.995,132
1568040050,195.449,160.288,-17.4129,-2.41699,1.58203,-156.995,132
1568040050,195.449,160.288,-17.4129,-2.41699,1.58203,-156.995,132
1568040050,195.449,160.288,-17.4129,-2.41699,1.58203,-156.995,132
1568040050,195.449,160.288,-17.4129,-2.41699,1.58203,-156.995,132
1568040050,195.449,160.288,-17.4129,-2.41699,1.58203,-156.995,132
1568040050,195.449,160.288,-17.4129,-2.41699,1.58203,-156.995,132
1568040050,195.449,160.288,-17.4129,-2.41699,1.58203,-156.995,132
1568040050,195.449,160.288,-17.4129,-2.41699,1.58203,-156.995,132
1568040050,195.449,160.288,-17.4129,-2.41699,1.58203,-156.995,132
1568040050,195.449,160.288,-17.4129,-2.41699,1.58203,-156.995,132
1568040050,195.449,160.288,-17.4129,-2.41699,1.58203,-156.995,132
1568040050,195.449,160.288,-17.4129,-2.41699,1.58203,-156.995,132
1568040050,195.449,160.288,-17.4129,-2.41699,1.58203,-156.995,132
1568040050,195.449,160.288,-17.4129,-2.41699,1.58203,-156.995,132
1568040050,195.449,160.288,-17.4129,-2.41699,1.58203,-156.995,132
1568040050,195.449,160.288,-17.4129,-2.41699,1.58203,-156.995,132
1568040050,195.449,160.288,-17.4129,-2.41699,1.58203,-156.995,132
1568040050,195.449,160.288,-17.4129,-2.41699,1.58203,-156.995,132
1568040050,195.449,160.288,-17.4129,-2.41699,1.58203,-156.995,132
1568040050,195.449,160.288,-17.4129,-2.41699,1.58203,-156.995,132
1568040050,195.449,160.288,-17.4129,-2.41699,1.58203,-156.995,132
1568040050,195.449,160.288,-17.4129,-2.41699,1.58203,-156.995,132
1568040050,195.449,160.288,-17.4129,-2.41699,1.58203,-156.995,132
1568040050,195.449,160.288,-17.4129,-2.41699,1.58203,-156.995,132
1568040050,195.449,160.288,-17.4129,-2.41699,1.58203,-157.017,132
1568040050,195.449,160.288,-17.4129,-2.41699,1.604,-157.017,132
1568040050,195.449,160.288,-17.4129,-2.41699,1.604,-157.017,132
1568040050,195.449,160.288,-17.4129,-2.41699,1.604,-157.017,132
1568040050,195.449,160.288,-17.4129,-2.41699,1.604,-157.017,132
1568040050,195.449,160.288,-17.4129,-2.41699,1.604,-157.017,132
1568040050,195.449,160.288,-17.4129,-2.41699,1.604,-157.017,132
1568040050,195.449,160.288,-17.4129,-2.41699,1.604,-156.995,132
1568040050,195.449,160.288,-17.4129,-2.41699,1.604,-156.995,132
1568040050,195.449,160.288,-17.4129,-2.41699,1.58203,-156.995,132
1568040050,195.449,160.288,-17.4129,-2.41699,1.58203,-156.995,132
1568040050,195.449,160.288,-17.4129,-2.41699,1.58203,-156.995,132
1568040050,195.449,160.288,-17.4129,-2.41699,1.58203,-156.995,132
1568040050,195.449,160.288,-17.4129,-2.41699,1.58203,-156.995,132
1568040050,195.449,160.288,-17.4129,-2.41699,1.58203,-156.995,132
1568040050,195.449,160.288,-17.4129,-2.41699,1.58203,-156.995,132
1568040050,195.449,160.288,-17.4129,-2.41699,1.58203,-156.995,132
1568040050,195.449,160.288,-17.4129,-2.41699,1.58203,-156.995,132
1568040050,195.449,160.288,-17.4129,-2.41699,1.58203,-156.995,132
1568040050,195.449,160.288,-17.4129,-2.41699,1.58203,-156.995,132
1568040051,195.449,160.176,-17.4129,-2.41699,1.58203,-157.017,132
1568040051,195.449,160.176,-17.4129,-2.43896,1.58203,-157.017,132
1568040051,195.449,160.176,-17.4129,-2.43896,1.58203,-157.017,132
1568040051,195.449,160.176,-17.4129,-2.43896,1.58203,-157.017,132
1568040051,195.449,160.176,-17.4129,-2.43896,1.58203,-157.017,132
1568040051,195.449,160.176,-17.4129,-2.43896,1.58203,-157.017,132
1568040051,195.449,160.176,-17.4129,-2.43896,1.58203,-157.017,132
1568040051,195.449,160.176,-17.4129,-2.43896,1.58203,-157.017,132
1568040051,195.449,160.176,-17.4129,-2.43896,1.58203,-157.017,132
1568040051,195.449,160.176,-17.4129,-2.43896,1.58203,-157.017,132
1568040051,195.449,160.176,-17.4129,-2.43896,1.58203,-157.017,132
1568040051,195.449,160.176,-17.4129,-2.43896,1.58203,-157.017,132
1568040051,195.449,160.176,-17.4129,-2.43896,1.58203,-157.017,132
1568040051,195.449,160.176,-17.4129,-2.43896,1.58203,-157.017,132
1568040051,195.449,160.176,-17.4129,-2.43896,1.58203,-157.017,132
1568040051,195.449,160.176,-17.4129,-2.43896,1.58203,-157.017,132
1568040051,195.449,160.176,-17.4129,-2.43896,1.58203,-157.017,132
1568040051,195.449,160.176,-17.4129,-2.43896,1.58203,-157.017,132
1568040051,195.449,160.176,-17.4129,-2.43896,1.58203,-157.017,132
1568040051,195.449,160.176,-17.4129,-2.43896,1.58203,-157.017,132
1568040051,195.449,160.176,-17.4129,-2.43896,1.58203,-157.017,136
1568040051,195.449,160.176,-17.4129,-2.43896,1.604,-157.017,136
1568040051,195.449,160.176,-17.4129,-2.43896,1.604,-157.017,136
1568040051,195.449,160.176,-17.4129,-2.43896,1.604,-157.017,136
1568040051,195.449,160.176,-17.4129,-2.43896,1.604,-157.017,136
1568040051,195.449,160.176,-17.4129,-2.43896,1.604,-157.017,136
1568040051,195.449,160.176,-17.4129,-2.43896,1.604,-157.017,136
1568040051,195.449,160.176,-17.4129,-2.43896,1.604,-157.017,136
1568040051,195.449,160.176,-17.4129,-2.43896,1.604,-157.017,136
1568040051,195.449,160.176,-17.4129,-2.43896,1.604,-157.017,136
1568040051,195.449,160.176,-17.4129,-2.43896,1.604,-157.017,136
1568040051,195.449,160.176,-17.4129,-2.43896,1.604,-157.017,136
1568040051,195.449,160.176,-17.4129,-2.43896,1.604,-157.017,136
1568040051,195.449,160.176,-17.4129,-2.43896,1.604,-157.017,136
1568040051,195.449,160.176,-17.4129,-2.43896,1.604,-157.017,136
1568040051,195.449,160.176,-17.4129,-2.43896,1.604,-157.017,136
1568040051,195.449,160.176,-17.4129,-2.43896,1.604,-157.017,136
1568040051,195.449,160.176,-17.4129,-2.43896,1.604,-157.017,136
1568040051,195.449,160.176,-17.4129,-2.43896,1.604,-157.017,136
1568040051,195.449,160.176,-17.4129,-2.43896,1.604,-157.017,136
1568040051,195.449,160.176,-17.4129,-2.43896,1.604,-157.017,132
1568040051,195.449,160.176,-17.4129,-2.43896,1.604,-157.017,132
1568040051,195.449,160.176,-17.4129,-2.43896,1.604,-157.017,132
1568040051,195.449,160.176,-17.4129,-2.43896,1.604,-157.017,132
1568040051,195.449,160.176,-17.4129,-2.43896,1.604,-157.017,132
1568040051,195.449,160.176,-17.4129,-2.43896,1.604,-157.017,132
1568040051,195.449,160.176,-17.4129,-2.43896,1.604,-157.017,132
1568040051,195.449,160.176,-17.4129,-2.43896,1.604,-156.995,132
1568040051,195.449,160.176,-17.4129,-2.43896,1.604,-156.995,132
1568040051,195.449,160.176,-17.4129,-2.43896,1.604,-156.995,132
1568040051,195.449,160.176,-17.4129,-2.43896,1.604,-156.995,132
1568040051,195.449,160.176,-17.4129,-2.43896,1.604,-156.995,132
1568040051,195.449,160.176,-17.4129,-2.43896,1.58203,-156.995,132
1568040051,195.449,160.176,-17.4129,-2.43896,1.58203,-156.995,132
1568040051,195.449,160.176,-17.4129,-2.43896,1.58203,-156.995,132
1568040051,195.449,160.288,-17.4129,-2.43896,1.58203,-156.995,132
1568040051,195.449,160.288,-17.4129,-2.43896,1.58203,-156.995,132
1568040051,195.449,160.288,-17.4129,-2.41699,1.58203,-156.995,132
1568040051,195.449,160.288,-17.4129,-2.41699,1.58203,-156.995,132
1568040051,195.449,160.288,-17.4129,-2.41699,1.58203,-156.995,132
1568040051,195.449,160.288,-17.4129,-2.41699,1.58203,-156.995,132
1568040051,195.449,160.288,-17.4129,-2.41699,1.58203,-156.995,132
1568040051,195.449,160.288,-17.4129,-2.41699,1.58203,-156.995,132
1568040051,195.449,160.288,-17.4129,-2.41699,1.58203,-156.995,132
1568040051,195.449,160.288,-17.4129,-2.41699,1.58203,-156.995,132
1568040051,195.449,160.288,-17.4129,-2.41699,1.58203,-156.995,132
1568040051,195.449,160.288,-17.4129,-2.41699,1.58203,-156.995,132
1568040051,195.449,160.288,-17.4129,-2.41699,1.58203,-156.995,132
1568040051,195.449,160.288,-17.4129,-2.41699,1.58203,-156.995,132
1568040051,195.449,160.288,-17.4129,-2.41699,1.58203,-156.995,132
1568040051,195.449,160.288,-17.4129,-2.41699,1.604,-156.995,132
1568040051,195.449,160.288,-17.4129,-2.41699,1.604,-156.995,132
1568040051,195.449,160.288,-17.4129,-2.41699,1.604,-156.995,132
1568040051,195.449,160.288,-17.4129,-2.41699,1.604,-156.995,128
1568040051,195.449,160.288,-17.4129,-2.41699,1.604,-156.995,128
1568040051,195.449,160.288,-17.4129,-2.41699,1.604,-156.995,128
1568040051,195.449,160.288,-17.4129,-2.41699,1.604,-156.995,128
1568040051,195.449,160.288,-17.4129,-2.41699,1.604,-156.995,128
