time,x,y,z,ax,ay,az,q
1571222948,320.687,-97.222,-16.4083,179.363,1.31836,-145.525,676
1571222948,320.687,-97.222,-16.4083,179.363,1.31836,-145.525,676
1571222948,320.687,-97.222,-16.4083,179.363,1.31836,-145.525,676
1571222948,320.687,-97.222,-16.4083,179.363,1.31836,-145.525,676
1571222948,320.687,-97.222,-16.4083,179.363,1.31836,-145.525,676
1571222948,320.687,-97.222,-16.4083,179.363,1.31836,-145.525,672
1571222948,320.687,-97.222,-16.4083,179.363,1.34033,-145.525,672
1571222948,320.687,-97.222,-16.4083,179.363,1.34033,-145.525,672
1571222948,320.687,-97.222,-16.4083,179.363,1.34033,-145.525,672
1571222948,320.687,-97.222,-16.4083,179.363,1.34033,-145.525,672
1571222948,320.687,-97.222,-16.4083,179.341,1.34033,-145.525,672
1571222948,320.687,-97.222,-16.4083,179.341,1.34033,-145.525,672
1571222948,320.687,-97.222,-16.4083,179.341,1.34033,-145.525,672
1571222948,320.687,-97.222,-16.4083,179.341,1.34033,-145.525,672
1571222948,320.687,-97.222,-16.4083,179.341,1.34033,-145.525,672
1571222948,320.687,-97.222,-16.4083,179.341,1.34033,-145.525,672
1571222948,320.687,-97.222,-16.4083,179.363,1.34033,-145.525,672
1571222948,320.687,-97.222,-16.4083,179.363,1.34033,-145.525,672
1571222948,320.687,-97.222,-16.4083,179.363,1.34033,-145.525,672
1571222948,320.687,-97.222,-16.4083,179.363,1.34033,-145.525,672
1571222948,320.687,-97.222,-16.4083,179.363,1.3623,-145.525,672
1571222948,320.687,-97.222,-16.4083,179.363,1.3623,-145.525,676
1571222948,320.687,-97.222,-16.4083,179.363,1.34033,-145.525,676
1571222948,320.687,-97.222,-16.4083,179.363,1.34033,-145.525,676
1571222948,320.687,-97.222,-16.4083,179.363,1.34033,-145.525,676
1571222948,320.687,-97.222,-16.4083,179.363,1.34033,-145.525,676
1571222948,320.687,-97.222,-16.4083,179.363,1.34033,-145.525,676
1571222948,320.687,-97.222,-16.4083,179.363,1.34033,-145.525,676
1571222948,320.687,-97.222,-16.4083,179.363,1.3623,-145.525,676
1571222948,320.687,-97.222,-16.4083,179.363,1.3623,-145.525,676
1571222948,320.687,-97.222,-16.4083,179.385,1.3623,-145.525,676
1571222948,320.687,-97.222,-16.4083,179.385,1.3623,-145.525,676
1571222948,320.687,-97.222,-16.4083,179.385,1.3623,-145.525,676
1571222948,320.687,-97.222,-16.4083,179.385,1.3623,-145.525,676
1571222948,320.687,-97.222,-16.4083,179.385,1.3623,-145.525,676
1571222948,320.687,-97.222,-16.4083,179.363,1.3623,-145.525,676
1571222948,320.687,-97.222,-16.4083,179.363,1.3623,-145.525,676
1571222948,320.687,-97.222,-16.4083,179.363,1.3623,-145.525,680
1571222948,320.687,-97.222,-16.4083,179.363,1.3623,-145.525,680
1571222948,320.687,-97.222,-16.4083,179.363,1.3623,-145.525,680
1571222948,320.687,-97.222,-16.4083,179.363,1.3623,-145.525,680
1571222948,320.687,-97.222,-16.4083,179.363,1.34033,-145.525,680
1571222948,320.687,-97.222,-16.4083,179.363,1.34033,-145.525,680
1571222948,320.687,-97.222,-16.4083,179.363,1.34033,-145.525,680
1571222948,320.799,-97.222,-16.4083,179.363,1.34033,-145.525,680
1571222948,320.799,-97.222,-16.4083,179.363,1.34033,-145.525,680
1571222948,320.799,-97.222,-16.4083,179.363,1.34033,-145.525,680
1571222948,320.799,-97.222,-16.4083,179.363,1.34033,-145.525,680
1571222948,320.799,-97.222,-16.4083,179.363,1.34033,-145.547,680
1571222948,320.799,-97.222,-16.4083,179.363,1.34033,-145.547,680
1571222948,320.799,-97.222,-16.4083,179.385,1.31836,-145.547,680
1571222948,320.799,-97.222,-16.4083,179.385,1.31836,-145.547,680
1571222948,320.799,-97.222,-16.5199,179.385,1.31836,-145.547,680
1571222948,320.799,-97.222,-16.5199,179.385,1.31836,-145.547,680
1571222948,320.799,-97.222,-16.5199,179.385,1.31836,-145.547,680
1571222948,320.799,-97.222,-16.5199,179.385,1.31836,-145.547,680
1571222948,320.799,-97.222,-16.4083,179.385,1.31836,-145.547,680
1571222948,320.799,-97.222,-16.4083,179.363,1.31836,-145.547,684
1571222948,320.687,-97.222,-16.4083,179.363,1.31836,-145.547,684
1571222948,320.687,-97.222,-16.4083,179.363,1.31836,-145.525,684
1571222948,320.687,-97.222,-16.4083,179.363,1.31836,-145.525,684
1571222948,320.687,-97.222,-16.4083,179.363,1.31836,-145.525,684
1571222948,320.687,-97.222,-16.4083,179.363,1.31836,-145.547,684
1571222948,320.687,-97.222,-16.4083,179.363,1.31836,-145.547,688
1571222948,320.687,-97.222,-16.4083,179.363,1.31836,-145.547,688
1571222948,320.687,-97.222,-16.5199,179.363,1.31836,-145.547,688
1571222948,320.687,-97.222,-16.5199,179.363,1.31836,-145.547,688
1571222948,320.687,-97.222,-16.5199,179.363,1.31836,-145.547,688
1571222948,320.687,-97.222,-16.5199,179.341,1.31836,-145.547,688
1571222948,320.687,-97.222,-16.5199,179.341,1.31836,-145.547,688
1571222948,320.687,-97.222,-16.5199,179.341,1.31836,-145.547,688
1571222948,320.687,-97.222,-16.4083,179.341,1.31836,-145.547,688
1571222948,320.687,-97.222,-16.4083,179.341,1.31836,-145.547,688
1571222948,320.687,-97.222,-16.4083,179.341,1.31836,-145.547,688
1571222948,320.687,-97.222,-16.4083,179.341,1.31836,-145.547,688
1571222948,320.687,-97.222,-16.4083,179.341,1.31836,-145.547,688
1571222948,320.687,-97.222,-16.4083,179.341,1.31836,-145.547,688
1571222948,320.687,-97.222,-16.4083,179.341,1.31836,-145.547,688
1571222948,320.687,-97.222,-16.5199,179.341,1.31836,-145.547,688
1571222948,320.687,-97.222,-16.5199,179.341,1.31836,-145.547,688
1571222948,320.687,-97.222,-16.5199,179.341,1.31836,-145.547,688
1571222948,320.687,-97.222,-16.5199,179.363,1.31836,-145.547,688
1571222948,320.687,-97.222,-16.5199,179.363,1.31836,-145.547,688
1571222948,320.687,-97.222,-16.5199,179.363,1.29639,-145.547,688
1571222948,320.687,-97.222,-16.5199,179.363,1.29639,-145.547,688
1571222948,320.687,-97.222,-16.5199,179.363,1.29639,-145.547,688
1571222948,320.687,-97.222,-16.5199,179.363,1.29639,-145.547,688
1571222948,320.687,-97.222,-16.5199,179.363,1.29639,-145.547,688
1571222948,320.687,-97.222,-16.5199,179.363,1.31836,-145.547,688
1571222948,320.687,-97.222,-16.5199,179.363,1.31836,-145.547,688
1571222948,320.687,-97.222,-16.5199,179.363,1.31836,-145.547,688
1571222948,320.687,-97.222,-16.5199,179.363,1.31836,-145.547,684
1571222948,320.687,-97.222,-16.5199,179.363,1.31836,-145.547,684
1571222948,320.687,-97.222,-16.5199,179.363,1.31836,-145.547,684
1571222948,320.687,-97.222,-16.5199,179.363,1.31836,-145.547,684
1571222948,320.799,-97.222,-16.5199,179.363,1.31836,-145.547,684
1571222948,320.799,-97.222,-16.5199,179.363,1.31836,-145.525,684
1571222948,320.799,-97.222,-16.5199,179.341,1.31836,-145.525,684
1571222949,320.799,-97.222,-16.4083,179.341,1.31836,-145.525,684
1571222949,320.799,-97.222,-16.4083,179.341,1.31836,-145.525,684
1571222949,320.799,-97.222,-16.4083,179.341,1.31836,-145.525,684
1571222949,320.799,-97.222,-16.4083,179.341,1.31836,-145.525,684
1571222949,320.799,-97.222,-16.4083,179.341,1.31836,-145.525,684
1571222949,320.799,-97.222,-16.4083,179.341,1.31836,-145.525,684
1571222949,320.799,-97.222,-16.4083,179.341,1.31836,-145.525,684
1571222949,320.799,-97.222,-16.4083,179.341,1.31836,-145.525,684
1571222949,320.799,-97.222,-16.4083,179.341,1.31836,-145.525,684
1571222949,320.799,-97.222,-16.4083,179.341,1.31836,-145.525,684
1571222949,320.799,-97.222,-16.4083,179.341,1.31836,-145.547,684
1571222949,320.799,-97.222,-16.4083,179.341,1.31836,-145.547,684
1571222949,320.799,-97.222,-16.5199,179.363,1.31836,-145.547,684
1571222949,320.799,-97.222,-16.5199,179.363,1.31836,-145.547,684
1571222949,320.799,-97.222,-16.5199,179.363,1.31836,-145.547,684
1571222949,320.799,-97.222,-16.5199,179.363,1.31836,-145.547,684
1571222949,320.799,-97.222,-16.5199,179.363,1.34033,-145.547,684
1571222949,320.799,-97.222,-16.4083,179.363,1.34033,-145.547,684
1571222949,320.799,-97.222,-16.4083,179.363,1.34033,-145.547,684
1571222949,320.799,-97.222,-16.4083,179.363,1.34033,-145.525,684
1571222949,320.799,-97.222,-16.4083,179.363,1.34033,-145.525,684
1571222949,320.799,-97.222,-16.4083,179.363,1.34033,-145.525,684
1571222949,320.799,-97.222,-16.4083,179.363,1.34033,-145.525,684
1571222949,320.799,-97.222,-16.4083,179.363,1.34033,-145.525,684
1571222949,320.799,-97.222,-16.4083,179.363,1.34033,-145.525,684
1571222949,320.799,-97.222,-16.4083,179.363,1.34033,-145.525,684
1571222949,320.799,-97.222,-16.4083,179.363,1.34033,-145.525,684
1571222949,320.799,-97.222,-16.4083,179.363,1.34033,-145.525,684
1571222949,320.799,-97.222,-16.4083,179.363,1.34033,-145.525,684
1571222949,320.799,-97.222,-16.4083,179.363,1.34033,-145.525,684
1571222949,320.799,-97.222,-16.4083,179.363,1.34033,-145.525,684
1571222949,320.799,-97.222,-16.4083,179.363,1.34033,-145.525,684
1571222949,320.799,-97.222,-16.4083,179.363,1.34033,-145.525,684
1571222949,320.799,-97.222,-16.4083,179.363,1.34033,-145.525,680
1571222949,320.799,-97.222,-16.4083,179.363,1.34033,-145.525,680
1571222949,320.799,-97.222,-16.4083,179.363,1.34033,-145.525,680
1571222949,320.687,-97.222,-16.4083,179.363,1.34033,-145.525,680
1571222949,320.687,-97.222,-16.4083,179.363,1.34033,-145.525,684
1571222949,320.687,-97.222,-16.4083,179.363,1.34033,-145.525,684
1571222949,320.687,-97.222,-16.4083,179.363,1.34033,-145.525,684
1571222949,320.687,-97.222,-16.4083,179.363,1.34033,-145.525,684
1571222949,320.687,-97.222,-16.4083,179.341,1.34033,-145.525,684
1571222949,320.687,-97.222,-16.4083,179.341,1.34033,-145.525,684
1571222949,320.687,-97.222,-16.4083,179.341,1.34033,-145.525,684
1571222949,320.687,-97.222,-16.4083,179.341,1.34033,-145.525,684
1571222949,320.687,-97.222,-16.4083,179.341,1.34033,-145.525,688
1571222949,320.687,-97.222,-16.4083,179.341,1.34033,-145.525,688
1571222949,320.687,-97.222,-16.4083,179.341,1.34033,-145.547,688
1571222949,320.687,-97.222,-16.4083,179.363,1.34033,-145.547,688
1571222949,320.687,-97.222,-16.4083,179.363,1.34033,-145.547,688
1571222949,320.687,-97.222,-16.4083,179.363,1.34033,-145.547,688
1571222949,320.687,-97.222,-16.4083,179.363,1.34033,-145.547,688
1571222949,320.687,-97.222,-16.4083,179.363,1.34033,-145.547,688
1571222949,320.687,-97.222,-16.4083,179.363,1.34033,-145.547,688
1571222949,320.687,-97.222,-16.4083,179.363,1.34033,-145.547,688
1571222949,320.687,-97.222,-16.4083,179.363,1.34033,-145.547,688
1571222949,320.687,-97.222,-16.4083,179.363,1.34033,-145.547,688
1571222949,320.687,-97.222,-16.4083,179.363,1.34033,-145.547,688
1571222949,320.687,-97.222,-16.4083,179.363,1.34033,-145.547,688
1571222949,320.687,-97.222,-16.4083,179.363,1.34033,-145.547,688
1571222949,320.687,-97.222,-16.4083,179.363,1.34033,-145.547,688
1571222949,320.687,-97.222,-16.4083,179.363,1.34033,-145.547,688
1571222949,320.687,-97.222,-16.4083,179.363,1.34033,-145.547,688
1571222949,320.687,-97.222,-16.4083,179.363,1.34033,-145.547,688
1571222949,320.687,-97.222,-16.4083,179.363,1.34033,-145.547,688
1571222949,320.687,-97.222,-16.4083,179.363,1.34033,-145.547,688
1571222949,320.687,-97.222,-16.4083,179.363,1.34033,-145.547,688
1571222949,320.687,-97.222,-16.4083,179.363,1.34033,-145.547,688
1571222949,320.687,-97.222,-16.4083,179.363,1.34033,-145.547,688
1571222949,320.687,-97.222,-16.4083,179.363,1.34033,-145.547,684
1571222949,320.687,-97.222,-16.4083,179.363,1.34033,-145.547,684
1571222949,320.687,-97.222,-16.4083,179.363,1.34033,-145.547,684
1571222949,320.687,-97.1104,-16.4083,179.363,1.34033,-145.547,684
1571222949,320.687,-97.1104,-16.4083,179.363,1.34033,-145.547,684
1571222949,320.687,-97.1104,-16.4083,179.363,1.34033,-145.547,684
1571222949,320.687,-97.1104,-16.4083,179.363,1.34033,-145.547,684
1571222949,320.687,-97.1104,-16.4083,179.385,1.34033,-145.547,684
1571222949,320.687,-97.1104,-16.4083,179.385,1.34033,-145.547,684
1571222949,320.687,-97.1104,-16.4083,179.385,1.34033,-145.547,684
1571222949,320.687,-97.1104,-16.4083,179.363,1.34033,-145.547,688
1571222949,320.687,-97.1104,-16.4083,179.363,1.34033,-145.547,688
1571222949,320.687,-97.222,-16.4083,179.363,1.34033,-145.547,688
1571222949,320.687,-97.222,-16.4083,179.363,1.34033,-145.547,688
1571222949,320.687,-97.222,-16.4083,179.363,1.34033,-145.547,688
1571222949,320.687,-97.222,-16.4083,179.363,1.34033,-145.547,688
1571222949,320.687,-97.222,-16.4083,179.363,1.34033,-145.547,688
1571222949,320.687,-97.222,-16.4083,179.363,1.34033,-145.547,688
1571222949,320.687,-97.222,-16.4083,179.363,1.34033,-145.547,688
1571222949,320.687,-97.222,-16.4083,179.363,1.34033,-145.547,688
1571222949,320.687,-97.222,-16.4083,179.363,1.34033,-145.547,688
1571222949,320.687,-97.222,-16.4083,179.363,1.34033,-145.547,688
1571222949,320.687,-97.222,-16.4083,179.363,1.34033,-145.547,688
1571222949,320.687,-97.222,-16.4083,179.363,1.34033,-145.525,688
1571222949,320.687,-97.222,-16.4083,179.363,1.31836,-145.525,688
1571222949,320.687,-97.222,-16.4083,179.363,1.31836,-145.525,688
1571222949,320.687,-97.222,-16.4083,179.363,1.31836,-145.525,688
1571222949,320.687,-97.222,-16.4083,179.363,1.31836,-145.525,688
1571222949,320.687,-97.222,-16.4083,179.363,1.31836,-145.525,688
1571222949,320.687,-97.222,-16.4083,179.363,1.31836,-145.525,688
1571222949,320.687,-97.222,-16.4083,179.363,1.31836,-145.525,688
1571222950,320.687,-97.222,-16.5199,179.363,1.31836,-145.525,688
1571222950,320.687,-97.222,-16.5199,179.363,1.31836,-145.525,688
1571222950,320.687,-97.222,-16.5199,179.363,1.31836,-145.525,688
1571222950,320.687,-97.222,-16.5199,179.363,1.31836,-145.525,688
1571222950,320.687,-97.222,-16.5199,179.363,1.31836,-145.525,688
1571222950,320.687,-97.222,-16.5199,179.363,1.29639,-145.525,688
1571222950,320.687,-97.222,-16.5199,179.363,1.29639,-145.525,688
1571222950,320.687,-97.222,-16.5199,179.363,1.29639,-145.525,688
1571222950,320.687,-97.222,-16.5199,179.363,1.29639,-145.525,688
1571222950,320.687,-97.222,-16.5199,179.363,1.29639,-145.525,688
1571222950,320.687,-97.222,-16.5199,179.363,1.29639,-145.525,688
1571222950,320.687,-97.222,-16.5199,179.363,1.29639,-145.525,688
1571222950,320.687,-97.222,-16.5199,179.363,1.29639,-145.525,688
1571222950,320.687,-97.222,-16.5199,179.363,1.29639,-145.525,688
1571222950,320.687,-97.222,-16.5199,179.363,1.29639,-145.525,688
1571222950,320.687,-97.222,-16.5199,179.363,1.29639,-145.525,688
1571222950,320.687,-97.222,-16.5199,179.363,1.29639,-145.547,688
1571222950,320.687,-97.222,-16.5199,179.363,1.29639,-145.547,692
1571222950,320.687,-97.222,-16.5199,179.363,1.29639,-145.547,692
1571222950,320.687,-97.222,-16.5199,179.341,1.29639,-145.547,692
1571222950,320.687,-97.222,-16.5199,179.341,1.29639,-145.547,692
1571222950,320.687,-97.222,-16.5199,179.341,1.29639,-145.547,692
1571222950,320.687,-97.222,-16.5199,179.341,1.29639,-145.547,692
1571222950,320.687,-97.222,-16.5199,179.341,1.29639,-145.547,692
1571222950,320.687,-97.222,-16.5199,179.341,1.29639,-145.525,692
1571222950,320.687,-97.222,-16.5199,179.341,1.29639,-145.547,692
1571222950,320.687,-97.222,-16.5199,179.341,1.29639,-145.547,696
1571222950,320.687,-97.222,-16.5199,179.341,1.29639,-145.547,696
1571222950,320.687,-97.222,-16.5199,179.341,1.29639,-145.547,696
1571222950,320.687,-97.222,-16.5199,179.341,1.29639,-145.547,696
1571222950,320.687,-97.222,-16.5199,179.363,1.31836,-145.547,696
1571222950,320.687,-97.222,-16.5199,179.363,1.31836,-145.547,696
1571222950,320.687,-97.222,-16.5199,179.363,1.31836,-145.547,696
1571222950,320.687,-97.222,-16.5199,179.363,1.31836,-145.547,696
1571222950,320.687,-97.222,-16.5199,179.363,1.31836,-145.547,696
1571222950,320.687,-97.222,-16.5199,179.363,1.31836,-145.547,696
1571222950,320.687,-97.222,-16.5199,179.363,1.31836,-145.547,696
1571222950,320.687,-97.222,-16.5199,179.363,1.31836,-145.547,696
1571222950,320.687,-97.222,-16.5199,179.363,1.31836,-145.525,696
1571222950,320.687,-97.222,-16.5199,179.363,1.31836,-145.525,696
1571222950,320.687,-97.222,-16.5199,179.363,1.31836,-145.525,696
1571222950,320.687,-97.222,-16.5199,179.363,1.31836,-145.525,696
1571222950,320.687,-97.222,-16.5199,179.363,1.31836,-145.525,696
1571222950,320.687,-97.222,-16.4083,179.363,1.31836,-145.525,696
1571222950,320.687,-97.222,-16.4083,179.363,1.31836,-145.525,696
1571222950,320.687,-97.222,-16.4083,179.363,1.31836,-145.525,696
1571222950,320.687,-97.222,-16.4083,179.363,1.31836,-145.525,696
1571222950,320.687,-97.222,-16.4083,179.363,1.31836,-145.525,696
1571222950,320.687,-97.222,-16.4083,179.363,1.31836,-145.525,696
1571222950,320.687,-97.222,-16.4083,179.363,1.34033,-145.525,696
1571222950,320.687,-97.222,-16.4083,179.363,1.34033,-145.525,696
1571222950,320.687,-97.222,-16.4083,179.363,1.34033,-145.525,696
1571222950,320.687,-97.222,-16.4083,179.363,1.31836,-145.525,696
1571222950,320.687,-97.222,-16.4083,179.363,1.31836,-145.525,696
1571222950,320.687,-97.222,-16.4083,179.363,1.31836,-145.525,692
1571222950,320.687,-97.222,-16.4083,179.363,1.31836,-145.525,692
1571222950,320.687,-97.222,-16.4083,179.363,1.31836,-145.525,692
1571222950,320.799,-97.1104,-16.4083,179.363,1.31836,-145.525,692
1571222950,320.799,-97.1104,-16.4083,179.363,1.31836,-145.525,692
1571222950,320.799,-97.1104,-16.5199,179.385,1.31836,-145.525,692
1571222950,320.799,-97.1104,-16.5199,179.385,1.31836,-145.525,688
1571222950,320.799,-97.1104,-16.5199,179.385,1.31836,-145.525,688
1571222950,320.799,-97.1104,-16.5199,179.385,1.31836,-145.525,688
1571222950,320.799,-97.1104,-16.5199,179.385,1.31836,-145.525,688
1571222950,320.799,-97.1104,-16.5199,179.385,1.31836,-145.525,688
1571222950,320.799,-97.222,-16.5199,179.385,1.31836,-145.525,688
1571222950,320.799,-97.222,-16.5199,179.363,1.31836,-145.525,688
1571222950,320.799,-97.222,-16.5199,179.363,1.31836,-145.525,684
1571222950,320.799,-97.222,-16.5199,179.363,1.31836,-145.525,684
1571222950,320.799,-97.222,-16.4083,179.363,1.31836,-145.525,684
1571222950,320.799,-97.222,-16.4083,179.363,1.31836,-145.525,684
1571222950,320.799,-97.222,-16.4083,179.363,1.31836,-145.525,684
1571222950,320.799,-97.222,-16.4083,179.363,1.31836,-145.525,684
1571222950,320.799,-97.222,-16.4083,179.363,1.34033,-145.525,684
1571222950,320.799,-97.222,-16.4083,179.363,1.34033,-145.525,684
1571222950,320.799,-97.222,-16.4083,179.363,1.34033,-145.525,684
1571222950,320.799,-97.222,-16.4083,179.363,1.34033,-145.525,684
1571222950,320.799,-97.222,-16.4083,179.363,1.34033,-145.525,680
1571222950,320.799,-97.222,-16.4083,179.363,1.34033,-145.525,680
1571222950,320.799,-97.222,-16.4083,179.363,1.34033,-145.525,680
1571222950,320.799,-97.222,-16.4083,179.363,1.34033,-145.525,680
1571222950,320.799,-97.222,-16.4083,179.363,1.34033,-145.525,680
1571222950,320.799,-97.222,-16.4083,179.363,1.34033,-145.525,680
1571222950,320.799,-97.222,-16.4083,179.363,1.34033,-145.525,680
1571222950,320.799,-97.222,-16.4083,179.363,1.34033,-145.525,676
1571222950,320.799,-97.222,-16.4083,179.363,1.34033,-145.525,676
1571222950,320.799,-97.222,-16.4083,179.363,1.34033,-145.525,676
1571222950,320.799,-97.222,-16.4083,179.363,1.34033,-145.525,676
1571222950,320.799,-97.222,-16.4083,179.363,1.34033,-145.525,676
1571222950,320.799,-97.222,-16.4083,179.363,1.34033,-145.525,676
1571222950,320.799,-97.222,-16.4083,179.363,1.34033,-145.525,676
1571222950,320.799,-97.222,-16.4083,179.363,1.34033,-145.525,676
1571222950,320.799,-97.222,-16.4083,179.363,1.34033,-145.547,676
1571222950,320.799,-97.222,-16.4083,179.363,1.34033,-145.547,676
1571222950,320.799,-97.222,-16.4083,179.363,1.34033,-145.547,676
1571222950,320.799,-97.222,-16.4083,179.363,1.34033,-145.547,676
1571222950,320.799,-97.222,-16.4083,179.363,1.34033,-145.547,676
1571222950,320.799,-97.222,-16.4083,179.363,1.34033,-145.547,676
1571222950,320.799,-97.222,-16.4083,179.363,1.34033,-145.547,676
1571222951,320.799,-97.222,-16.4083,179.363,1.34033,-145.547,676
1571222951,320.799,-97.222,-16.4083,179.363,1.34033,-145.547,676
1571222951,320.799,-97.222,-16.4083,179.363,1.34033,-145.547,676
1571222951,320.687,-97.222,-16.4083,179.363,1.34033,-145.547,680
1571222951,320.687,-97.222,-16.4083,179.363,1.34033,-145.547,680
1571222951,320.687,-97.222,-16.4083,179.363,1.34033,-145.547,680
1571222951,320.687,-97.222,-16.4083,179.363,1.34033,-145.547,680
1571222951,320.687,-97.222,-16.4083,179.363,1.34033,-145.547,680
1571222951,320.687,-97.222,-16.4083,179.363,1.34033,-145.547,680
1571222951,320.687,-97.222,-16.4083,179.363,1.34033,-145.547,680
1571222951,320.687,-97.222,-16.4083,179.363,1.34033,-145.547,680
1571222951,320.687,-97.222,-16.4083,179.363,1.34033,-145.547,680
1571222951,320.687,-97.222,-16.4083,179.363,1.34033,-145.547,684
1571222951,320.687,-97.222,-16.4083,179.363,1.34033,-145.547,684
1571222951,320.687,-97.222,-16.4083,179.363,1.34033,-145.525,684
1571222951,320.687,-97.222,-16.4083,179.363,1.34033,-145.525,684
1571222951,320.687,-97.222,-16.4083,179.363,1.34033,-145.525,684
1571222951,320.687,-97.222,-16.4083,179.363,1.34033,-145.525,688
1571222951,320.687,-97.222,-16.4083,179.363,1.34033,-145.525,688
1571222951,320.687,-97.222,-16.4083,179.363,1.34033,-145.525,688
1571222951,320.687,-97.222,-16.4083,179.363,1.34033,-145.525,688
1571222951,320.687,-97.222,-16.4083,179.363,1.34033,-145.525,688
1571222951,320.687,-97.222,-16.4083,179.363,1.34033,-145.525,688
1571222951,320.687,-97.1104,-16.4083,179.363,1.34033,-145.525,688
1571222951,320.687,-97.1104,-16.4083,179.363,1.34033,-145.547,688
1571222951,320.687,-97.1104,-16.4083,179.363,1.34033,-145.547,688
1571222951,320.687,-97.1104,-16.4083,179.363,1.34033,-145.547,688
1571222951,320.687,-97.1104,-16.4083,179.363,1.34033,-145.547,688
1571222951,320.687,-97.1104,-16.4083,179.363,1.34033,-145.547,688
1571222951,320.687,-97.1104,-16.4083,179.363,1.34033,-145.547,688
1571222951,320.687,-97.1104,-16.4083,179.363,1.34033,-145.547,688
1571222951,320.687,-97.1104,-16.4083,179.363,1.31836,-145.547,688
1571222951,320.687,-97.222,-16.4083,179.363,1.31836,-145.547,688
1571222951,320.687,-97.222,-16.4083,179.363,1.31836,-145.547,688
1571222951,320.687,-97.222,-16.4083,179.363,1.31836,-145.547,688
1571222951,320.687,-97.222,-16.4083,179.363,1.31836,-145.547,688
1571222951,320.687,-97.222,-16.4083,179.363,1.31836,-145.547,688
1571222951,320.687,-97.222,-16.4083,179.363,1.31836,-145.547,688
1571222951,320.687,-97.1104,-16.4083,179.363,1.31836,-145.547,688
1571222951,320.687,-97.1104,-16.4083,179.363,1.31836,-145.547,688
1571222951,320.687,-97.1104,-16.4083,179.363,1.31836,-145.547,688
1571222951,320.687,-97.1104,-16.4083,179.363,1.31836,-145.547,688
1571222951,320.687,-97.1104,-16.4083,179.385,1.31836,-145.547,688
1571222951,320.687,-97.1104,-16.4083,179.385,1.31836,-145.547,688
1571222951,320.687,-97.1104,-16.4083,179.385,1.31836,-145.547,688
1571222951,320.687,-97.1104,-16.4083,179.385,1.31836,-145.547,688
1571222951,320.687,-97.1104,-16.4083,179.385,1.31836,-145.547,688
1571222951,320.687,-97.1104,-16.4083,179.385,1.31836,-145.547,688
1571222951,320.687,-97.1104,-16.5199,179.385,1.31836,-145.547,688
1571222951,320.687,-97.1104,-16.5199,179.363,1.31836,-145.547,688
1571222951,320.687,-97.1104,-16.5199,179.363,1.31836,-145.547,692
1571222951,320.687,-97.1104,-16.5199,179.363,1.31836,-145.547,692
1571222951,320.687,-97.1104,-16.5199,179.363,1.31836,-145.547,692
1571222951,320.687,-97.1104,-16.5199,179.363,1.31836,-145.547,692
1571222951,320.687,-97.1104,-16.5199,179.385,1.31836,-145.547,692
1571222951,320.687,-97.1104,-16.5199,179.385,1.29639,-145.547,692
1571222951,320.687,-97.1104,-16.5199,179.385,1.29639,-145.547,692
1571222951,320.687,-97.1104,-16.5199,179.385,1.29639,-145.547,692
1571222951,320.687,-97.1104,-16.5199,179.385,1.29639,-145.547,692
1571222951,320.687,-97.1104,-16.5199,179.385,1.29639,-145.547,692
1571222951,320.687,-97.1104,-16.5199,179.385,1.29639,-145.547,692
1571222951,320.687,-97.1104,-16.5199,179.385,1.29639,-145.547,692
1571222951,320.687,-97.1104,-16.5199,179.385,1.29639,-145.547,692
1571222951,320.687,-97.1104,-16.5199,179.363,1.29639,-145.547,692
1571222951,320.687,-97.1104,-16.5199,179.363,1.29639,-145.547,692
1571222951,320.687,-97.1104,-16.5199,179.363,1.29639,-145.547,688
1571222951,320.687,-97.1104,-16.5199,179.363,1.29639,-145.547,688
1571222951,320.687,-97.1104,-16.5199,179.363,1.29639,-145.547,688
1571222951,320.687,-97.1104,-16.5199,179.385,1.29639,-145.547,688
1571222951,320.687,-97.1104,-16.5199,179.385,1.29639,-145.547,688
1571222951,320.799,-97.1104,-16.5199,179.385,1.29639,-145.547,688
1571222951,320.799,-97.1104,-16.5199,179.385,1.29639,-145.547,688
1571222951,320.799,-97.1104,-16.5199,179.385,1.29639,-145.547,688
1571222951,320.799,-97.1104,-16.5199,179.385,1.29639,-145.547,688
1571222951,320.799,-97.1104,-16.5199,179.385,1.29639,-145.547,688
1571222951,320.799,-97.222,-16.5199,179.363,1.29639,-145.547,688
1571222951,320.687,-97.222,-16.5199,179.363,1.29639,-145.547,688
1571222951,320.687,-97.222,-16.5199,179.363,1.29639,-145.547,692
1571222951,320.687,-97.222,-16.5199,179.363,1.29639,-145.547,692
1571222951,320.687,-97.222,-16.5199,179.363,1.29639,-145.547,692
1571222951,320.687,-97.222,-16.5199,179.363,1.29639,-145.547,692
1571222951,320.687,-97.222,-16.5199,179.363,1.29639,-145.547,692
1571222951,320.687,-97.222,-16.5199,179.363,1.29639,-145.547,692
1571222951,320.799,-97.222,-16.5199,179.363,1.29639,-145.547,692
1571222951,320.799,-97.222,-16.5199,179.363,1.29639,-145.547,692
1571222951,320.799,-97.222,-16.5199,179.363,1.29639,-145.547,692
1571222951,320.799,-97.222,-16.5199,179.363,1.29639,-145.547,692
1571222951,320.799,-97.222,-16.5199,179.363,1.29639,-145.547,692
1571222951,320.799,-97.222,-16.5199,179.363,1.31836,-145.547,692
1571222951,320.799,-97.222,-16.5199,179.363,1.31836,-145.547,692
1571222951,320.799,-97.222,-16.5199,179.363,1.31836,-145.547,692
1571222951,320.799,-97.222,-16.5199,179.363,1.31836,-145.547,692
1571222951,320.687,-97.222,-16.5199,179.363,1.31836,-145.547,692
1571222951,320.687,-97.222,-16.5199,179.363,1.31836,-145.547,692
1571222951,320.687,-97.222,-16.5199,179.363,1.31836,-145.547,692
1571222951,320.687,-97.222,-16.5199,179.363,1.31836,-145.547,692
1571222951,320.687,-97.222,-16.5199,179.363,1.31836,-145.547,692
1571222951,320.687,-97.222,-16.5199,179.363,1.31836,-145.547,692
1571222951,320.687,-97.222,-16.5199,179.363,1.31836,-145.547,692
1571222951,320.687,-97.222,-16.5199,179.363,1.31836,-145.547,692
1571222952,320.687,-97.222,-16.5199,179.363,1.31836,-145.547,692
1571222952,320.687,-97.222,-16.5199,179.363,1.31836,-145.547,692
1571222952,320.687,-97.222,-16.5199,179.363,1.31836,-145.547,692
1571222952,320.687,-97.222,-16.5199,179.363,1.31836,-145.547,692
1571222952,320.687,-97.222,-16.5199,179.363,1.31836,-145.547,692
1571222952,320.687,-97.222,-16.5199,179.363,1.31836,-145.547,692
1571222952,320.687,-97.222,-16.5199,179.363,1.29639,-145.547,692
1571222952,320.687,-97.222,-16.5199,179.363,1.29639,-145.547,692
1571222952,320.687,-97.222,-16.5199,179.363,1.29639,-145.547,692
1571222952,320.687,-97.222,-16.5199,179.363,1.29639,-145.547,692
1571222952,320.687,-97.222,-16.5199,179.363,1.29639,-145.547,692
1571222952,320.687,-97.222,-16.5199,179.363,1.29639,-145.547,692
1571222952,320.687,-97.222,-16.5199,179.363,1.29639,-145.547,692
1571222952,320.687,-97.222,-16.5199,179.363,1.29639,-145.547,692
1571222952,320.687,-97.222,-16.5199,179.363,1.29639,-145.547,692
1571222952,320.687,-97.222,-16.5199,179.363,1.29639,-145.547,692
1571222952,320.687,-97.222,-16.5199,179.363,1.29639,-145.547,692
1571222952,320.687,-97.222,-16.5199,179.363,1.29639,-145.547,692
1571222952,320.687,-97.222,-16.5199,179.363,1.31836,-145.547,692
1571222952,320.687,-97.222,-16.5199,179.363,1.31836,-145.547,692
1571222952,320.687,-97.222,-16.5199,179.363,1.31836,-145.547,692
1571222952,320.687,-97.222,-16.5199,179.363,1.31836,-145.547,692
1571222952,320.687,-97.222,-16.4083,179.363,1.31836,-145.547,692
1571222952,320.687,-97.222,-16.4083,179.363,1.31836,-145.547,688
1571222952,320.687,-97.222,-16.4083,179.363,1.31836,-145.547,688
1571222952,320.687,-97.222,-16.4083,179.363,1.31836,-145.547,688
1571222952,320.687,-97.222,-16.4083,179.363,1.31836,-145.547,688
1571222952,320.687,-97.222,-16.4083,179.363,1.31836,-145.547,688
1571222952,320.687,-97.222,-16.4083,179.363,1.31836,-145.547,688
1571222952,320.687,-97.222,-16.4083,179.363,1.31836,-145.547,688
1571222952,320.687,-97.222,-16.5199,179.363,1.31836,-145.547,688
1571222952,320.687,-97.222,-16.5199,179.363,1.31836,-145.547,688
1571222952,320.687,-97.222,-16.5199,179.363,1.31836,-145.547,688
1571222952,320.687,-97.222,-16.5199,179.363,1.31836,-145.547,688
1571222952,320.687,-97.222,-16.5199,179.363,1.31836,-145.547,684
1571222952,320.687,-97.222,-16.5199,179.363,1.31836,-145.547,684
1571222952,320.687,-97.222,-16.5199,179.363,1.31836,-145.547,684
1571222952,320.687,-97.222,-16.5199,179.363,1.31836,-145.547,684
1571222952,320.687,-97.222,-16.5199,179.363,1.31836,-145.547,684
1571222952,320.687,-97.222,-16.4083,179.363,1.31836,-145.547,684
1571222952,320.799,-97.222,-16.4083,179.363,1.31836,-145.547,684
1571222952,320.799,-97.222,-16.4083,179.363,1.31836,-145.547,684
1571222952,320.799,-97.222,-16.4083,179.363,1.31836,-145.547,684
1571222952,320.799,-97.222,-16.4083,179.363,1.34033,-145.547,684
1571222952,320.799,-97.222,-16.4083,179.363,1.34033,-145.547,684
1571222952,320.799,-97.222,-16.4083,179.363,1.34033,-145.547,684
1571222952,320.799,-97.222,-16.4083,179.385,1.34033,-145.547,680
1571222952,320.799,-97.1104,-16.4083,179.385,1.31836,-145.547,680
1571222952,320.799,-97.1104,-16.4083,179.385,1.31836,-145.547,680
1571222952,320.799,-97.1104,-16.4083,179.385,1.31836,-145.547,680
1571222952,320.687,-97.1104,-16.4083,179.363,1.31836,-145.547,680
1571222952,320.687,-97.1104,-16.5199,179.363,1.31836,-145.547,680
1571222952,320.687,-97.222,-16.5199,179.363,1.31836,-145.547,684
1571222952,320.687,-97.222,-16.5199,179.363,1.31836,-145.547,684
1571222952,320.687,-97.222,-16.5199,179.363,1.31836,-145.547,684
1571222952,320.687,-97.222,-16.5199,179.363,1.31836,-145.547,684
1571222952,320.687,-97.222,-16.5199,179.363,1.31836,-145.547,684
1571222952,320.687,-97.222,-16.5199,179.363,1.31836,-145.547,684
1571222952,320.687,-97.222,-16.5199,179.363,1.31836,-145.547,684
1571222952,320.687,-97.222,-16.4083,179.363,1.31836,-145.547,684
1571222952,320.687,-97.222,-16.4083,179.363,1.31836,-145.547,684
1571222952,320.687,-97.222,-16.4083,179.363,1.31836,-145.547,684
1571222952,320.799,-97.222,-16.4083,179.363,1.31836,-145.547,684
1571222952,320.799,-97.222,-16.4083,179.363,1.31836,-145.547,684
1571222952,320.799,-97.222,-16.4083,179.363,1.31836,-145.547,684
1571222952,320.799,-97.222,-16.5199,179.363,1.31836,-145.547,684
1571222952,320.799,-97.222,-16.5199,179.363,1.31836,-145.547,684
1571222952,320.799,-97.222,-16.5199,179.363,1.31836,-145.547,684
1571222952,320.799,-97.222,-16.5199,179.363,1.31836,-145.547,684
1571222952,320.799,-97.1104,-16.5199,179.363,1.31836,-145.547,684
1571222952,320.799,-97.1104,-16.5199,179.385,1.31836,-145.547,684
1571222952,320.799,-97.1104,-16.5199,179.385,1.31836,-145.547,684
1571222952,320.799,-97.1104,-16.5199,179.385,1.31836,-145.547,684
1571222952,320.799,-97.1104,-16.5199,179.385,1.31836,-145.547,684
1571222952,320.799,-97.1104,-16.5199,179.385,1.31836,-145.547,688
1571222952,320.799,-97.1104,-16.5199,179.385,1.31836,-145.547,688
1571222952,320.687,-97.1104,-16.5199,179.385,1.31836,-145.547,688
1571222952,320.687,-97.1104,-16.5199,179.363,1.31836,-145.547,688
1571222952,320.687,-97.222,-16.5199,179.363,1.31836,-145.547,688
1571222952,320.687,-97.222,-16.5199,179.363,1.31836,-145.547,688
1571222952,320.687,-97.222,-16.5199,179.363,1.31836,-145.547,688
1571222952,320.687,-97.222,-16.5199,179.363,1.31836,-145.547,688
1571222952,320.687,-97.222,-16.5199,179.363,1.31836,-145.547,688
1571222952,320.687,-97.222,-16.5199,179.363,1.31836,-145.547,688
1571222952,320.687,-97.222,-16.5199,179.363,1.31836,-145.547,688
1571222952,320.687,-97.222,-16.5199,179.341,1.31836,-145.547,688
1571222952,320.687,-97.222,-16.5199,179.341,1.31836,-145.547,688
1571222952,320.687,-97.222,-16.5199,179.363,1.31836,-145.547,688
1571222952,320.687,-97.222,-16.5199,179.363,1.31836,-145.547,688
1571222952,320.687,-97.222,-16.5199,179.363,1.31836,-145.547,688
1571222952,320.687,-97.222,-16.5199,179.363,1.31836,-145.547,688
1571222952,320.687,-97.222,-16.5199,179.363,1.31836,-145.547,688
1571222952,320.687,-97.222,-16.5199,179.363,1.31836,-145.547,688
1571222952,320.687,-97.222,-16.5199,179.363,1.31836,-145.547,688
1571222952,320.687,-97.222,-16.5199,179.363,1.31836,-145.547,688
1571222952,320.687,-97.222,-16.5199,179.363,1.31836,-145.547,688
1571222952,320.687,-97.222,-16.5199,179.363,1.31836,-145.547,688
1571222952,320.687,-97.222,-16.5199,179.363,1.31836,-145.547,688
1571222952,320.687,-97.222,-16.5199,179.341,1.31836,-145.547,688
1571222952,320.687,-97.222,-16.5199,179.341,1.31836,-145.547,688
1571222952,320.687,-97.222,-16.5199,179.341,1.31836,-145.547,688
1571222953,320.687,-97.222,-16.5199,179.341,1.31836,-145.547,688
1571222953,320.799,-97.222,-16.5199,179.341,1.31836,-145.547,688
1571222957,335.868,-113.519,-16.5199,179.341,1.2085,-145.327,736
1571222957,335.868,-113.519,-16.5199,179.341,1.2085,-145.327,736
1571222957,335.868,-113.519,-16.5199,179.341,1.2085,-145.327,736
1571222957,335.868,-113.519,-16.5199,179.341,1.2085,-145.327,736
1571222957,335.868,-113.519,-16.5199,179.341,1.2085,-145.327,736
1571222957,335.868,-113.519,-16.5199,179.341,1.2085,-145.327,736
1571222957,335.868,-113.519,-16.5199,179.363,1.2085,-145.327,736
1571222957,335.868,-113.519,-16.5199,179.363,1.18652,-145.327,736
1571222957,335.868,-113.519,-16.5199,179.363,1.18652,-145.327,736
1571222957,335.868,-113.519,-16.5199,179.363,1.18652,-145.327,736
1571222957,335.868,-113.519,-16.5199,179.363,1.18652,-145.327,736
1571222957,335.868,-113.519,-16.5199,179.363,1.18652,-145.327,736
1571222957,335.868,-113.519,-16.5199,179.363,1.18652,-145.327,736
1571222957,335.868,-113.519,-16.5199,179.363,1.18652,-145.327,736
1571222957,335.868,-113.519,-16.5199,179.363,1.18652,-145.327,736
1571222957,335.868,-113.519,-16.5199,179.363,1.18652,-145.327,736
1571222957,335.868,-113.519,-16.5199,179.363,1.18652,-145.327,736
1571222957,335.868,-113.519,-16.5199,179.363,1.18652,-145.349,736
1571222957,335.868,-113.519,-16.5199,179.363,1.18652,-145.349,736
1571222958,335.979,-113.519,-16.5199,179.363,1.18652,-145.349,736
1571222958,335.979,-113.407,-16.5199,179.363,1.18652,-145.349,732
1571222958,335.979,-113.407,-16.5199,179.363,1.18652,-145.349,732
1571222958,335.979,-113.407,-16.5199,179.385,1.18652,-145.349,732
1571222958,335.979,-113.407,-16.5199,179.385,1.16455,-145.349,732
1571222958,335.979,-113.407,-16.6315,179.385,1.16455,-145.349,732
1571222958,335.979,-113.407,-16.6315,179.385,1.16455,-145.349,732
1571222958,335.979,-113.407,-16.6315,179.385,1.16455,-145.349,728
1571222958,335.979,-113.407,-16.6315,179.385,1.16455,-145.349,728
1571222958,335.979,-113.407,-16.6315,179.385,1.16455,-145.349,728
1571222958,335.979,-113.407,-16.6315,179.385,1.16455,-145.349,728
1571222958,335.979,-113.407,-16.6315,179.385,1.16455,-145.349,728
1571222958,335.979,-113.407,-16.6315,179.385,1.16455,-145.349,724
1571222958,335.979,-113.407,-16.6315,179.385,1.16455,-145.349,724
1571222958,335.979,-113.407,-16.6315,179.363,1.16455,-145.349,724
1571222958,335.979,-113.519,-16.5199,179.363,1.16455,-145.327,724
1571222958,335.979,-113.519,-16.5199,179.363,1.16455,-145.327,724
1571222958,335.979,-113.519,-16.5199,179.363,1.16455,-145.327,724
1571222958,335.979,-113.519,-16.5199,179.363,1.16455,-145.327,724
1571222958,335.979,-113.407,-16.5199,179.363,1.16455,-145.327,720
1571222958,335.979,-113.407,-16.5199,179.363,1.16455,-145.327,720
1571222958,335.868,-113.407,-16.5199,179.363,1.16455,-145.327,720
1571222958,335.868,-113.407,-16.5199,179.363,1.16455,-145.327,720
1571222958,335.868,-113.407,-16.5199,179.363,1.16455,-145.327,720
1571222958,335.868,-113.407,-16.5199,179.363,1.16455,-145.327,720
1571222958,335.868,-113.519,-16.5199,179.363,1.16455,-145.327,720
1571222958,335.868,-113.519,-16.5199,179.363,1.16455,-145.327,720
1571222958,335.868,-113.519,-16.5199,179.363,1.16455,-145.327,724
1571222958,335.868,-113.519,-16.5199,179.363,1.16455,-145.327,724
1571222958,335.868,-113.519,-16.5199,179.363,1.16455,-145.327,724
1571222958,335.868,-113.519,-16.5199,179.363,1.16455,-145.327,724
1571222958,335.868,-113.519,-16.5199,179.363,1.16455,-145.327,724
1571222958,335.868,-113.519,-16.5199,179.363,1.16455,-145.327,724
1571222958,335.868,-113.519,-16.5199,179.363,1.16455,-145.327,724
1571222958,335.868,-113.519,-16.5199,179.363,1.16455,-145.327,724
1571222958,335.868,-113.519,-16.5199,179.363,1.16455,-145.327,724
1571222958,335.868,-113.519,-16.5199,179.363,1.16455,-145.327,724
1571222958,335.868,-113.519,-16.5199,179.363,1.16455,-145.327,728
1571222958,335.868,-113.519,-16.5199,179.341,1.16455,-145.327,728
1571222958,335.868,-113.519,-16.5199,179.341,1.16455,-145.327,728
1571222958,335.868,-113.519,-16.5199,179.341,1.18652,-145.327,728
1571222958,335.868,-113.519,-16.5199,179.341,1.18652,-145.327,728
1571222958,335.868,-113.519,-16.5199,179.341,1.18652,-145.327,728
1571222958,335.868,-113.519,-16.5199,179.341,1.18652,-145.327,728
1571222958,335.868,-113.519,-16.5199,179.341,1.18652,-145.327,728
1571222958,335.868,-113.519,-16.5199,179.341,1.18652,-145.327,728
1571222958,335.868,-113.519,-16.5199,179.341,1.18652,-145.327,728
1571222958,335.868,-113.519,-16.5199,179.341,1.18652,-145.327,728
1571222958,335.868,-113.519,-16.5199,179.341,1.18652,-145.327,728
1571222958,335.868,-113.519,-16.5199,179.341,1.18652,-145.327,728
1571222958,335.868,-113.519,-16.5199,179.341,1.18652,-145.327,728
1571222958,335.868,-113.519,-16.5199,179.341,1.18652,-145.327,728
1571222958,335.868,-113.519,-16.5199,179.341,1.18652,-145.327,728
1571222958,335.868,-113.519,-16.5199,179.341,1.18652,-145.327,728
1571222958,335.868,-113.519,-16.5199,179.341,1.18652,-145.327,728
1571222958,335.979,-113.519,-16.5199,179.341,1.18652,-145.349,728
1571222958,335.979,-113.519,-16.5199,179.341,1.18652,-145.349,728
1571222958,335.979,-113.519,-16.5199,179.341,1.18652,-145.349,724
1571222958,335.979,-113.519,-16.5199,179.341,1.18652,-145.349,724
1571222958,335.979,-113.519,-16.5199,179.341,1.18652,-145.349,724
1571222958,335.979,-113.519,-16.5199,179.341,1.18652,-145.349,724
1571222958,335.979,-113.519,-16.5199,179.341,1.18652,-145.349,724
1571222958,335.868,-113.519,-16.5199,179.341,1.18652,-145.349,724
1571222958,335.868,-113.519,-16.5199,179.341,1.18652,-145.349,724
1571222958,335.868,-113.519,-16.5199,179.341,1.18652,-145.349,724
1571222958,335.868,-113.519,-16.5199,179.341,1.18652,-145.349,724
1571222958,335.868,-113.519,-16.5199,179.341,1.18652,-145.349,724
1571222958,335.868,-113.519,-16.5199,179.341,1.18652,-145.349,724
1571222958,335.868,-113.519,-16.5199,179.341,1.18652,-145.349,724
1571222958,335.868,-113.519,-16.5199,179.341,1.2085,-145.349,724
1571222958,335.868,-113.519,-16.5199,179.341,1.2085,-145.349,724
1571222958,335.868,-113.519,-16.5199,179.341,1.2085,-145.349,724
1571222958,335.868,-113.519,-16.5199,179.341,1.2085,-145.349,724
1571222958,335.868,-113.519,-16.5199,179.341,1.2085,-145.349,724
1571222958,335.868,-113.519,-16.4083,179.341,1.2085,-145.349,724
1571222958,335.868,-113.519,-16.4083,179.341,1.2085,-145.349,728
1571222958,335.868,-113.519,-16.4083,179.341,1.2085,-145.349,728
1571222958,335.868,-113.519,-16.4083,179.341,1.2085,-145.349,728
1571222958,335.868,-113.519,-16.4083,179.341,1.2085,-145.327,728
1571222958,335.868,-113.519,-16.4083,179.341,1.2085,-145.327,728
1571222958,335.868,-113.519,-16.4083,179.341,1.2085,-145.327,728
1571222958,335.868,-113.519,-16.4083,179.341,1.2085,-145.327,728
1571222958,335.868,-113.519,-16.4083,179.341,1.2085,-145.327,728
1571222958,335.868,-113.519,-16.4083,179.341,1.2085,-145.327,728
1571222958,335.868,-113.519,-16.4083,179.341,1.2085,-145.327,724
1571222958,335.868,-113.519,-16.4083,179.341,1.2085,-145.327,724
1571222958,335.868,-113.519,-16.4083,179.341,1.2085,-145.327,724
1571222958,335.868,-113.519,-16.4083,179.341,1.2085,-145.349,724
1571222958,335.868,-113.519,-16.5199,179.341,1.2085,-145.349,724
1571222958,335.868,-113.519,-16.5199,179.341,1.2085,-145.349,724
1571222958,335.868,-113.519,-16.5199,179.341,1.2085,-145.349,720
1571222958,335.868,-113.519,-16.5199,179.341,1.2085,-145.349,720
1571222958,335.868,-113.519,-16.5199,179.341,1.2085,-145.349,720
1571222958,335.868,-113.519,-16.5199,179.341,1.2085,-145.349,720
1571222958,335.868,-113.519,-16.5199,179.341,1.2085,-145.349,720
1571222958,335.868,-113.519,-16.5199,179.341,1.18652,-145.349,720
1571222958,335.868,-113.519,-16.5199,179.341,1.18652,-145.349,720
1571222958,335.868,-113.519,-16.5199,179.341,1.18652,-145.349,720
1571222958,335.868,-113.519,-16.5199,179.341,1.18652,-145.349,720
1571222958,335.868,-113.519,-16.5199,179.341,1.18652,-145.349,720
1571222959,335.868,-113.519,-16.5199,179.341,1.18652,-145.349,720
1571222959,335.868,-113.519,-16.5199,179.341,1.18652,-145.349,720
1571222959,335.868,-113.519,-16.5199,179.341,1.16455,-145.349,720
1571222959,335.868,-113.519,-16.6315,179.341,1.16455,-145.349,720
1571222959,335.868,-113.519,-16.6315,179.341,1.16455,-145.349,720
1571222959,335.868,-113.519,-16.6315,179.363,1.16455,-145.349,724
1571222959,335.868,-113.519,-16.6315,179.363,1.16455,-145.349,724
1571222959,335.868,-113.519,-16.6315,179.363,1.16455,-145.349,724
1571222959,335.868,-113.407,-16.6315,179.363,1.16455,-145.349,724
1571222959,335.868,-113.407,-16.6315,179.363,1.16455,-145.349,728
1571222959,335.868,-113.407,-16.6315,179.363,1.16455,-145.349,728
1571222959,335.868,-113.407,-16.6315,179.363,1.16455,-145.349,728
1571222959,335.868,-113.407,-16.6315,179.363,1.16455,-145.349,728
1571222959,335.868,-113.407,-16.6315,179.363,1.16455,-145.327,728
1571222959,335.868,-113.407,-16.6315,179.363,1.16455,-145.327,728
1571222959,335.868,-113.407,-16.6315,179.363,1.16455,-145.327,732
1571222959,335.868,-113.407,-16.6315,179.363,1.16455,-145.327,732
1571222959,335.868,-113.407,-16.6315,179.363,1.16455,-145.327,732
1571222959,335.868,-113.407,-16.6315,179.363,1.16455,-145.327,728
1571222959,335.868,-113.407,-16.6315,179.363,1.16455,-145.327,728
1571222959,335.868,-113.519,-16.6315,179.363,1.16455,-145.327,728
1571222959,335.868,-113.519,-16.6315,179.363,1.16455,-145.327,728
1571222959,335.868,-113.519,-16.6315,179.363,1.16455,-145.327,728
1571222959,335.868,-113.519,-16.6315,179.341,1.16455,-145.327,724
1571222959,335.868,-113.519,-16.6315,179.341,1.16455,-145.327,724
1571222959,335.868,-113.519,-16.6315,179.341,1.16455,-145.327,724
1571222959,335.868,-113.519,-16.6315,179.341,1.16455,-145.327,720
1571222959,335.868,-113.519,-16.6315,179.341,1.16455,-145.327,720
1571222959,335.868,-113.519,-16.6315,179.341,1.16455,-145.327,720
1571222959,335.868,-113.519,-16.5199,179.341,1.16455,-145.327,716
1571222959,335.868,-113.519,-16.5199,179.341,1.16455,-145.327,716
1571222959,335.868,-113.519,-16.5199,179.341,1.16455,-145.327,716
1571222959,335.868,-113.519,-16.5199,179.341,1.16455,-145.327,712
1571222959,335.868,-113.519,-16.5199,179.341,1.16455,-145.327,712
1571222959,335.868,-113.519,-16.5199,179.341,1.18652,-145.327,712
1571222959,335.979,-113.519,-16.5199,179.363,1.18652,-145.327,712
1571222959,335.979,-113.519,-16.5199,179.363,1.18652,-145.327,712
1571222959,335.979,-113.519,-16.5199,179.363,1.18652,-145.327,712
1571222959,335.979,-113.519,-16.5199,179.363,1.18652,-145.327,708
1571222959,335.979,-113.519,-16.5199,179.363,1.18652,-145.327,708
1571222959,335.979,-113.519,-16.5199,179.363,1.2085,-145.327,708
1571222959,335.979,-113.519,-16.4083,179.363,1.2085,-145.327,708
1571222959,335.979,-113.519,-16.4083,179.363,1.2085,-145.327,708
1571222959,335.979,-113.519,-16.4083,179.341,1.2085,-145.327,708
1571222959,335.979,-113.519,-16.4083,179.341,1.2085,-145.327,708
1571222959,335.979,-113.519,-16.4083,179.341,1.2085,-145.327,708
1571222959,335.979,-113.519,-16.4083,179.341,1.2085,-145.327,708
1571222959,335.979,-113.519,-16.4083,179.341,1.2085,-145.327,708
1571222959,335.868,-113.519,-16.4083,179.341,1.2085,-145.327,708
1571222959,335.868,-113.519,-16.4083,179.341,1.2085,-145.327,708
1571222959,335.868,-113.519,-16.5199,179.341,1.2085,-145.327,708
1571222959,335.868,-113.519,-16.5199,179.341,1.2085,-145.327,708
1571222959,335.868,-113.519,-16.5199,179.341,1.2085,-145.349,708
1571222959,335.868,-113.519,-16.5199,179.341,1.2085,-145.349,708
1571222959,335.868,-113.519,-16.5199,179.341,1.2085,-145.349,708
1571222959,335.868,-113.519,-16.5199,179.341,1.2085,-145.349,708
1571222959,335.868,-113.519,-16.5199,179.341,1.2085,-145.349,708
1571222959,335.868,-113.519,-16.5199,179.341,1.2085,-145.349,708
1571222959,335.868,-113.519,-16.5199,179.341,1.2085,-145.349,708
1571222959,335.868,-113.519,-16.5199,179.341,1.2085,-145.349,708
1571222959,335.979,-113.519,-16.5199,179.341,1.2085,-145.349,708
1571222959,335.979,-113.519,-16.5199,179.341,1.2085,-145.349,708
1571222959,335.979,-113.519,-16.5199,179.341,1.2085,-145.349,708
1571222959,335.979,-113.519,-16.5199,179.341,1.2085,-145.349,708
1571222959,335.979,-113.519,-16.5199,179.341,1.2085,-145.349,708
1571222959,335.979,-113.519,-16.5199,179.341,1.2085,-145.349,708
1571222959,335.979,-113.519,-16.5199,179.341,1.2085,-145.349,708
1571222959,335.868,-113.519,-16.5199,179.341,1.2085,-145.349,708
1571222959,335.868,-113.519,-16.4083,179.341,1.2085,-145.349,708
1571222959,335.868,-113.519,-16.4083,179.341,1.2085,-145.349,708
1571222959,335.868,-113.519,-16.4083,179.341,1.2085,-145.349,708
1571222959,335.868,-113.519,-16.4083,179.341,1.2085,-145.349,708
1571222959,335.868,-113.519,-16.4083,179.341,1.2085,-145.349,708
1571222959,335.868,-113.519,-16.4083,179.341,1.2085,-145.349,708
1571222959,335.868,-113.519,-16.4083,179.341,1.2085,-145.349,708
1571222959,335.868,-113.519,-16.4083,179.341,1.2085,-145.349,708
1571222959,335.868,-113.519,-16.4083,179.341,1.2085,-145.349,712
1571222959,335.868,-113.519,-16.4083,179.341,1.2085,-145.349,712
1571222959,335.868,-113.519,-16.4083,179.341,1.2085,-145.349,712
1571222959,335.868,-113.519,-16.4083,179.341,1.2085,-145.349,712
1571222959,335.868,-113.519,-16.5199,179.341,1.2085,-145.349,712
1571222959,335.979,-113.519,-16.5199,179.341,1.2085,-145.349,712
1571222959,335.979,-113.519,-16.5199,179.341,1.2085,-145.349,712
1571222959,335.979,-113.519,-16.5199,179.363,1.18652,-145.349,712
1571222959,335.979,-113.519,-16.5199,179.363,1.18652,-145.349,712
1571222959,335.979,-113.519,-16.5199,179.363,1.18652,-145.349,712
1571222959,335.979,-113.519,-16.5199,179.363,1.18652,-145.349,712
1571222959,335.979,-113.519,-16.5199,179.363,1.18652,-145.349,712
1571222959,335.979,-113.519,-16.5199,179.363,1.18652,-145.349,712
1571222959,335.979,-113.519,-16.5199,179.363,1.18652,-145.349,712
1571222959,335.979,-113.519,-16.5199,179.363,1.18652,-145.349,712
1571222959,335.979,-113.519,-16.5199,179.363,1.18652,-145.349,712
1571222959,335.868,-113.519,-16.5199,179.363,1.18652,-145.349,712
1571222959,335.868,-113.519,-16.5199,179.363,1.18652,-145.349,712
1571222959,335.868,-113.519,-16.5199,179.363,1.18652,-145.349,712
1571222959,335.979,-113.519,-16.5199,179.363,1.18652,-145.349,712
1571222959,335.979,-113.519,-16.5199,179.363,1.18652,-145.349,712
1571222959,335.979,-113.519,-16.5199,179.363,1.18652,-145.349,712
1571222959,335.979,-113.519,-16.5199,179.341,1.18652,-145.349,712
1571222959,335.979,-113.519,-16.5199,179.341,1.18652,-145.349,708
1571222960,335.979,-113.519,-16.5199,179.341,1.18652,-145.349,708
1571222960,335.979,-113.519,-16.5199,179.341,1.18652,-145.349,708
1571222960,335.979,-113.519,-16.5199,179.341,1.18652,-145.349,708
1571222960,335.979,-113.519,-16.5199,179.341,1.18652,-145.349,708
1571222960,335.979,-113.519,-16.5199,179.341,1.18652,-145.349,708
1571222960,335.979,-113.519,-16.5199,179.341,1.18652,-145.349,708
1571222960,335.979,-113.519,-16.5199,179.341,1.18652,-145.349,708
1571222960,335.979,-113.519,-16.5199,179.341,1.18652,-145.349,708
1571222960,335.979,-113.519,-16.5199,179.341,1.18652,-145.349,708
1571222960,335.979,-113.519,-16.5199,179.363,1.18652,-145.349,708
1571222960,335.979,-113.519,-16.5199,179.363,1.18652,-145.349,708
1571222960,335.979,-113.519,-16.5199,179.363,1.18652,-145.349,708
1571222960,335.979,-113.519,-16.5199,179.363,1.18652,-145.349,708
1571222960,335.979,-113.519,-16.5199,179.363,1.18652,-145.349,708
1571222960,335.868,-113.519,-16.5199,179.363,1.18652,-145.349,708
1571222960,335.868,-113.519,-16.5199,179.363,1.18652,-145.349,708
1571222960,335.868,-113.519,-16.5199,179.363,1.18652,-145.349,708
1571222960,335.868,-113.519,-16.5199,179.363,1.18652,-145.349,712
1571222960,335.868,-113.519,-16.5199,179.363,1.18652,-145.327,712
1571222960,335.868,-113.519,-16.5199,179.363,1.18652,-145.327,712
1571222960,335.868,-113.519,-16.5199,179.363,1.18652,-145.327,712
1571222960,335.868,-113.519,-16.5199,179.363,1.18652,-145.327,712
1571222960,335.868,-113.519,-16.5199,179.363,1.18652,-145.327,712
1571222960,335.868,-113.519,-16.5199,179.363,1.18652,-145.327,716
1571222960,335.868,-113.519,-16.5199,179.363,1.18652,-145.327,716
1571222960,335.868,-113.519,-16.5199,179.341,1.18652,-145.327,716
1571222960,335.868,-113.519,-16.5199,179.341,1.18652,-145.327,716
1571222960,335.868,-113.519,-16.4083,179.341,1.2085,-145.327,716
1571222960,335.868,-113.519,-16.5199,179.341,1.2085,-145.327,716
1571222960,335.868,-113.519,-16.5199,179.341,1.18652,-145.327,712
1571222960,335.868,-113.519,-16.5199,179.341,1.18652,-145.327,712
1571222960,335.979,-113.519,-16.5199,179.341,1.18652,-145.327,712
1571222960,335.979,-113.519,-16.5199,179.341,1.18652,-145.327,712
1571222960,335.979,-113.519,-16.5199,179.341,1.18652,-145.327,712
1571222960,335.979,-113.519,-16.5199,179.341,1.18652,-145.327,712
1571222960,335.979,-113.519,-16.5199,179.341,1.18652,-145.327,712
1571222960,335.979,-113.519,-16.5199,179.341,1.18652,-145.327,712
1571222960,335.979,-113.519,-16.5199,179.341,1.18652,-145.327,708
1571222960,335.979,-113.519,-16.5199,179.341,1.18652,-145.327,708
1571222960,335.979,-113.519,-16.5199,179.341,1.18652,-145.327,708
1571222960,335.979,-113.519,-16.5199,179.341,1.18652,-145.327,704
1571222960,335.979,-113.519,-16.5199,179.341,1.18652,-145.327,704
1571222960,335.979,-113.519,-16.5199,179.341,1.18652,-145.327,704
1571222960,335.979,-113.519,-16.5199,179.341,1.18652,-145.327,704
1571222960,335.979,-113.519,-16.5199,179.341,1.18652,-145.327,700
1571222960,335.979,-113.519,-16.5199,179.341,1.18652,-145.327,700
1571222960,335.979,-113.519,-16.5199,179.341,1.18652,-145.327,700
1571222960,335.979,-113.519,-16.5199,179.341,1.18652,-145.327,700
1571222960,335.979,-113.519,-16.5199,179.341,1.18652,-145.327,700
1571222960,335.979,-113.519,-16.5199,179.341,1.18652,-145.349,700
1571222960,335.979,-113.519,-16.5199,179.341,1.18652,-145.349,700
1571222960,335.979,-113.519,-16.5199,179.341,1.18652,-145.349,700
1571222960,335.979,-113.519,-16.5199,179.341,1.18652,-145.349,700
1571222960,335.979,-113.519,-16.5199,179.341,1.18652,-145.349,700
1571222960,335.979,-113.519,-16.5199,179.341,1.18652,-145.349,700
1571222960,335.979,-113.519,-16.5199,179.341,1.18652,-145.349,700
1571222960,335.979,-113.519,-16.5199,179.341,1.18652,-145.349,700
1571222960,335.979,-113.519,-16.5199,179.341,1.18652,-145.349,700
1571222960,335.979,-113.519,-16.5199,179.341,1.18652,-145.349,700
1571222960,335.979,-113.519,-16.5199,179.341,1.18652,-145.349,700
1571222960,335.979,-113.519,-16.5199,179.341,1.18652,-145.349,700
1571222960,335.979,-113.519,-16.5199,179.341,1.18652,-145.327,696
1571222960,335.979,-113.519,-16.5199,179.341,1.18652,-145.327,696
1571222960,335.979,-113.519,-16.5199,179.341,1.18652,-145.327,696
1571222960,335.979,-113.519,-16.5199,179.341,1.18652,-145.327,696
1571222960,335.979,-113.519,-16.5199,179.341,1.18652,-145.327,696
1571222960,335.979,-113.519,-16.5199,179.341,1.18652,-145.327,696
1571222960,335.979,-113.519,-16.5199,179.341,1.18652,-145.327,696
1571222960,335.979,-113.519,-16.5199,179.341,1.18652,-145.327,692
1571222960,335.979,-113.519,-16.5199,179.341,1.18652,-145.327,692
1571222960,335.979,-113.519,-16.5199,179.363,1.18652,-145.327,692
1571222960,335.979,-113.519,-16.5199,179.363,1.18652,-145.327,692
1571222960,335.979,-113.519,-16.5199,179.363,1.18652,-145.327,692
1571222960,335.979,-113.519,-16.5199,179.363,1.18652,-145.327,692
1571222960,335.979,-113.519,-16.5199,179.363,1.18652,-145.327,692
1571222960,335.979,-113.519,-16.5199,179.363,1.18652,-145.327,692
1571222960,335.979,-113.519,-16.5199,179.363,1.18652,-145.327,692
1571222960,335.979,-113.519,-16.5199,179.363,1.18652,-145.327,692
1571222960,335.979,-113.519,-16.5199,179.363,1.18652,-145.327,692
1571222960,335.979,-113.519,-16.5199,179.341,1.18652,-145.327,692
1571222960,335.979,-113.519,-16.5199,179.341,1.18652,-145.327,692
1571222960,335.979,-113.519,-16.5199,179.341,1.18652,-145.327,692
1571222960,335.979,-113.519,-16.5199,179.341,1.18652,-145.327,692
1571222960,335.979,-113.519,-16.5199,179.341,1.18652,-145.327,692
1571222960,335.979,-113.63,-16.5199,179.341,1.18652,-145.327,692
1571222960,335.979,-113.63,-16.5199,179.341,1.18652,-145.327,692
1571222960,335.979,-113.63,-16.5199,179.341,1.18652,-145.327,696
1571222960,335.979,-113.63,-16.5199,179.341,1.18652,-145.327,696
1571222960,335.979,-113.63,-16.5199,179.341,1.18652,-145.349,696
1571222960,335.979,-113.63,-16.5199,179.341,1.18652,-145.349,696
1571222960,335.979,-113.63,-16.5199,179.341,1.18652,-145.349,696
1571222960,335.979,-113.63,-16.5199,179.341,1.18652,-145.349,696
1571222960,335.979,-113.63,-16.5199,179.341,1.18652,-145.349,696
1571222960,335.979,-113.63,-16.5199,179.341,1.18652,-145.349,696
1571222960,335.979,-113.63,-16.5199,179.341,1.18652,-145.349,700
1571222960,335.979,-113.63,-16.5199,179.341,1.18652,-145.349,700
1571222960,335.979,-113.519,-16.5199,179.341,1.18652,-145.349,700
1571222960,335.979,-113.519,-16.5199,179.341,1.18652,-145.349,700
1571222960,335.979,-113.519,-16.5199,179.363,1.18652,-145.349,700
1571222960,335.979,-113.519,-16.5199,179.363,1.18652,-145.349,704
1571222961,335.979,-113.519,-16.5199,179.363,1.18652,-145.349,704
1571222961,335.979,-113.519,-16.5199,179.363,1.2085,-145.349,704
1571222961,335.979,-113.519,-16.5199,179.363,1.2085,-145.349,704
1571222961,335.979,-113.519,-16.4083,179.363,1.2085,-145.349,704
1571222961,335.979,-113.519,-16.4083,179.363,1.2085,-145.349,704
1571222961,335.979,-113.519,-16.4083,179.363,1.2085,-145.327,704
1571222961,335.979,-113.519,-16.4083,179.363,1.2085,-145.327,704
1571222961,335.979,-113.519,-16.4083,179.363,1.2085,-145.327,704
1571222961,335.979,-113.519,-16.4083,179.363,1.2085,-145.327,704
1571222961,335.979,-113.519,-16.4083,179.363,1.2085,-145.327,704
1571222961,335.979,-113.519,-16.4083,179.363,1.2085,-145.327,704
1571222961,335.979,-113.519,-16.4083,179.341,1.2085,-145.327,704
1571222961,335.979,-113.519,-16.4083,179.341,1.2085,-145.327,704
1571222961,335.979,-113.519,-16.4083,179.341,1.2085,-145.327,704
1571222961,335.979,-113.519,-16.4083,179.341,1.2085,-145.327,704
1571222961,335.979,-113.519,-16.5199,179.341,1.2085,-145.327,704
1571222961,335.979,-113.519,-16.5199,179.341,1.2085,-145.349,708
1571222961,335.979,-113.519,-16.5199,179.363,1.2085,-145.349,708
1571222961,335.979,-113.519,-16.5199,179.363,1.2085,-145.349,708
1571222961,335.979,-113.519,-16.5199,179.341,1.2085,-145.349,708
1571222961,335.979,-113.519,-16.5199,179.341,1.18652,-145.349,708
1571222961,335.979,-113.519,-16.5199,179.341,1.18652,-145.349,708
1571222961,335.979,-113.519,-16.5199,179.341,1.18652,-145.349,708
1571222961,335.979,-113.519,-16.5199,179.341,1.18652,-145.349,708
1571222961,335.979,-113.519,-16.5199,179.341,1.18652,-145.349,708
1571222961,335.868,-113.519,-16.5199,179.341,1.18652,-145.349,708
1571222961,335.868,-113.519,-16.5199,179.341,1.18652,-145.349,708
1571222961,335.868,-113.519,-16.5199,179.341,1.18652,-145.349,712
1571222961,335.868,-113.519,-16.5199,179.341,1.18652,-145.349,712
1571222961,335.868,-113.519,-16.5199,179.341,1.18652,-145.349,712
1571222961,335.868,-113.519,-16.5199,179.341,1.18652,-145.349,712
1571222961,335.868,-113.519,-16.5199,179.341,1.18652,-145.349,712
1571222961,335.868,-113.63,-16.5199,179.341,1.18652,-145.349,716
1571222961,335.868,-113.63,-16.5199,179.341,1.18652,-145.349,716
1571222961,335.868,-113.63,-16.5199,179.319,1.18652,-145.349,716
1571222961,335.868,-113.63,-16.5199,179.319,1.16455,-145.349,720
1571222961,335.868,-113.63,-16.6315,179.319,1.16455,-145.349,720
1571222961,335.868,-113.63,-16.6315,179.319,1.16455,-145.349,720
1571222961,335.868,-113.63,-16.6315,179.319,1.16455,-145.349,720
1571222961,335.868,-113.63,-16.6315,179.319,1.16455,-145.349,720
1571222961,335.868,-113.519,-16.6315,179.319,1.16455,-145.349,724
1571222961,335.868,-113.519,-16.6315,179.319,1.16455,-145.349,724
1571222961,335.868,-113.519,-16.6315,179.319,1.16455,-145.349,724
1571222961,335.868,-113.63,-16.6315,179.319,1.16455,-145.349,724
1571222961,335.868,-113.63,-16.6315,179.319,1.16455,-145.349,724
1571222961,335.868,-113.63,-16.6315,179.319,1.16455,-145.349,724
1571222961,335.868,-113.63,-16.6315,179.319,1.16455,-145.349,724
1571222961,335.868,-113.63,-16.5199,179.319,1.16455,-145.349,724
1571222961,335.868,-113.63,-16.5199,179.319,1.16455,-145.349,724
1571222961,335.868,-113.63,-16.5199,179.319,1.16455,-145.349,724
1571222961,335.868,-113.63,-16.5199,179.319,1.16455,-145.349,724
1571222961,335.868,-113.63,-16.5199,179.319,1.16455,-145.327,724
1571222961,335.868,-113.63,-16.6315,179.319,1.16455,-145.327,724
1571222961,335.868,-113.63,-16.6315,179.319,1.16455,-145.327,724
1571222961,335.868,-113.63,-16.6315,179.319,1.16455,-145.327,724
1571222961,335.868,-113.63,-16.6315,179.319,1.16455,-145.327,724
1571222961,335.868,-113.63,-16.6315,179.319,1.16455,-145.327,724
1571222961,335.868,-113.63,-16.6315,179.319,1.16455,-145.327,724
1571222961,335.868,-113.63,-16.6315,179.319,1.16455,-145.327,724
1571222961,335.868,-113.63,-16.6315,179.319,1.16455,-145.327,724
1571222961,335.868,-113.63,-16.6315,179.319,1.16455,-145.327,724
1571222961,335.868,-113.519,-16.6315,179.319,1.16455,-145.327,724
1571222961,335.979,-113.519,-16.6315,179.341,1.16455,-145.327,724
1571222961,335.979,-113.519,-16.6315,179.341,1.18652,-145.327,724
1571222961,335.979,-113.519,-16.6315,179.341,1.18652,-145.327,724
1571222961,335.979,-113.519,-16.5199,179.341,1.18652,-145.327,724
1571222961,335.979,-113.519,-16.5199,179.341,1.18652,-145.327,724
1571222961,335.979,-113.519,-16.5199,179.341,1.18652,-145.327,720
1571222961,335.979,-113.519,-16.5199,179.341,1.18652,-145.327,720
1571222961,335.979,-113.63,-16.5199,179.341,1.18652,-145.327,720
1571222961,335.979,-113.63,-16.5199,179.319,1.18652,-145.327,720
1571222961,335.979,-113.63,-16.5199,179.319,1.18652,-145.327,720
1571222961,335.979,-113.63,-16.5199,179.319,1.18652,-145.327,720
1571222961,335.979,-113.63,-16.5199,179.319,1.18652,-145.327,716
1571222961,335.979,-113.63,-16.5199,179.319,1.18652,-145.327,716
1571222961,335.868,-113.63,-16.5199,179.319,1.18652,-145.327,716
1571222961,335.868,-113.63,-16.5199,179.319,1.18652,-145.327,716
1571222961,335.868,-113.63,-16.5199,179.319,1.18652,-145.327,716
1571222961,335.868,-113.63,-16.5199,179.319,1.18652,-145.327,716
1571222961,335.868,-113.63,-16.5199,179.319,1.18652,-145.327,716
1571222961,335.868,-113.63,-16.5199,179.319,1.18652,-145.327,716
1571222961,335.868,-113.63,-16.5199,179.319,1.18652,-145.327,712
1571222961,335.868,-113.63,-16.5199,179.319,1.18652,-145.327,712
1571222961,335.868,-113.63,-16.5199,179.319,1.18652,-145.327,712
1571222961,335.868,-113.63,-16.5199,179.319,1.18652,-145.327,712
1571222961,335.868,-113.63,-16.5199,179.319,1.18652,-145.327,712
1571222961,335.868,-113.63,-16.5199,179.319,1.2085,-145.327,712
1571222961,335.868,-113.63,-16.5199,179.341,1.2085,-145.327,708
1571222961,335.868,-113.519,-16.5199,179.341,1.2085,-145.327,708
1571222961,335.868,-113.519,-16.5199,179.341,1.2085,-145.327,708
1571222961,335.868,-113.519,-16.5199,179.341,1.2085,-145.327,708
1571222961,335.868,-113.519,-16.5199,179.341,1.2085,-145.327,708
1571222961,335.868,-113.519,-16.5199,179.341,1.18652,-145.327,708
1571222961,335.868,-113.519,-16.5199,179.341,1.18652,-145.327,708
1571222961,335.868,-113.519,-16.5199,179.341,1.18652,-145.327,708
1571222961,335.868,-113.519,-16.5199,179.341,1.18652,-145.327,708
1571222961,335.868,-113.519,-16.5199,179.341,1.18652,-145.327,708
1571222961,335.868,-113.519,-16.5199,179.341,1.18652,-145.327,708
1571222961,335.868,-113.519,-16.5199,179.341,1.18652,-145.327,708
1571222961,335.868,-113.519,-16.5199,179.341,1.18652,-145.327,708
1571222962,335.868,-113.519,-16.5199,179.341,1.18652,-145.349,708
1571222962,335.868,-113.519,-16.5199,179.341,1.18652,-145.349,712
1571222962,335.868,-113.519,-16.5199,179.341,1.18652,-145.349,712
1571222962,335.868,-113.519,-16.5199,179.341,1.18652,-145.349,712
1571222962,335.868,-113.519,-16.5199,179.341,1.18652,-145.349,712
1571222962,335.868,-113.519,-16.5199,179.341,1.18652,-145.327,716
1571222962,335.868,-113.519,-16.5199,179.341,1.18652,-145.327,716
1571222962,335.868,-113.519,-16.5199,179.341,1.18652,-145.327,716
1571222962,335.868,-113.519,-16.5199,179.341,1.18652,-145.327,716
1571222962,335.868,-113.519,-16.5199,179.341,1.18652,-145.327,716
1571222962,335.868,-113.519,-16.5199,179.341,1.2085,-145.327,716
1571222962,335.868,-113.519,-16.5199,179.341,1.2085,-145.327,720
1571222962,335.868,-113.519,-16.4083,179.341,1.2085,-145.327,720
1571222962,335.868,-113.519,-16.4083,179.341,1.2085,-145.327,720
1571222962,335.868,-113.519,-16.4083,179.341,1.2085,-145.327,720
1571222962,335.868,-113.519,-16.4083,179.341,1.2085,-145.327,720
1571222962,335.868,-113.519,-16.4083,179.341,1.2085,-145.327,720
1571222962,335.868,-113.519,-16.4083,179.341,1.2085,-145.327,720
1571222962,335.868,-113.519,-16.4083,179.341,1.2085,-145.327,720
1571222962,335.868,-113.519,-16.4083,179.341,1.2085,-145.327,716
1571222962,335.868,-113.519,-16.4083,179.341,1.2085,-145.327,716
1571222962,335.868,-113.519,-16.4083,179.341,1.2085,-145.327,716
1571222962,335.868,-113.519,-16.4083,179.341,1.2085,-145.327,716
1571222962,335.868,-113.519,-16.4083,179.341,1.2085,-145.327,716
1571222962,335.868,-113.519,-16.4083,179.341,1.2085,-145.327,716
1571222962,335.868,-113.519,-16.4083,179.341,1.2085,-145.327,716
1571222962,335.868,-113.519,-16.4083,179.341,1.2085,-145.327,716
1571222962,335.868,-113.519,-16.4083,179.341,1.2085,-145.327,716
1571222962,335.868,-113.519,-16.4083,179.341,1.2085,-145.327,716
1571222962,335.868,-113.519,-16.4083,179.341,1.2085,-145.327,716
1571222962,335.868,-113.519,-16.4083,179.341,1.2085,-145.327,716
1571222962,335.868,-113.519,-16.4083,179.341,1.2085,-145.327,716
1571222962,335.868,-113.519,-16.4083,179.341,1.2085,-145.327,716
1571222962,335.868,-113.519,-16.4083,179.341,1.2085,-145.327,716
1571222962,335.868,-113.519,-16.4083,179.341,1.18652,-145.327,716
1571222962,335.868,-113.519,-16.4083,179.341,1.18652,-145.327,716
1571222962,335.868,-113.519,-16.4083,179.319,1.18652,-145.327,716
1571222962,335.868,-113.519,-16.4083,179.319,1.18652,-145.327,716
1571222962,335.868,-113.519,-16.4083,179.319,1.18652,-145.327,716
1571222962,335.868,-113.519,-16.4083,179.319,1.18652,-145.327,716
1571222962,335.868,-113.519,-16.4083,179.319,1.18652,-145.327,716
1571222962,335.868,-113.519,-16.5199,179.319,1.18652,-145.327,716
1571222962,335.868,-113.519,-16.5199,179.319,1.18652,-145.327,720
1571222962,335.868,-113.63,-16.5199,179.319,1.18652,-145.327,720
1571222962,335.868,-113.63,-16.5199,179.319,1.2085,-145.327,720
1571222962,335.868,-113.63,-16.5199,179.319,1.2085,-145.327,720
1571222962,335.868,-113.63,-16.5199,179.319,1.2085,-145.327,720
1571222962,335.868,-113.63,-16.5199,179.319,1.2085,-145.327,720
1571222962,335.868,-113.519,-16.5199,179.319,1.2085,-145.327,720
1571222962,335.868,-113.519,-16.5199,179.319,1.2085,-145.327,720
1571222962,335.868,-113.519,-16.5199,179.319,1.2085,-145.327,720
1571222962,335.868,-113.519,-16.5199,179.319,1.2085,-145.327,720
1571222962,335.868,-113.519,-16.5199,179.319,1.2085,-145.327,720
1571222962,335.979,-113.519,-16.5199,179.319,1.2085,-145.327,720
1571222962,335.979,-113.519,-16.5199,179.319,1.2085,-145.327,716
1571222962,335.979,-113.519,-16.5199,179.319,1.2085,-145.327,716
1571222962,335.979,-113.519,-16.5199,179.341,1.2085,-145.327,716
1571222962,335.979,-113.519,-16.5199,179.341,1.2085,-145.327,716
1571222962,335.979,-113.519,-16.5199,179.341,1.2085,-145.327,716
1571222962,335.979,-113.519,-16.5199,179.341,1.2085,-145.327,716
1571222962,335.979,-113.519,-16.5199,179.341,1.2085,-145.327,716
1571222962,335.979,-113.519,-16.5199,179.341,1.2085,-145.327,716
1571222962,335.979,-113.519,-16.4083,179.341,1.2085,-145.327,712
1571222962,335.979,-113.519,-16.4083,179.341,1.2085,-145.327,712
1571222962,335.979,-113.519,-16.4083,179.341,1.2085,-145.327,712
1571222962,335.979,-113.519,-16.4083,179.341,1.2085,-145.327,712
1571222962,335.979,-113.519,-16.4083,179.341,1.2085,-145.327,712
1571222962,335.979,-113.519,-16.4083,179.341,1.2085,-145.327,712
1571222962,335.979,-113.519,-16.4083,179.341,1.2085,-145.327,712
1571222962,335.868,-113.519,-16.4083,179.341,1.2085,-145.327,712
1571222962,335.868,-113.519,-16.4083,179.341,1.2085,-145.327,712
1571222962,335.868,-113.519,-16.5199,179.341,1.2085,-145.327,712
1571222962,335.868,-113.519,-16.5199,179.341,1.2085,-145.327,716
1571222962,335.868,-113.519,-16.5199,179.341,1.2085,-145.327,716
1571222962,335.868,-113.519,-16.5199,179.341,1.2085,-145.327,716
1571222962,335.868,-113.519,-16.5199,179.341,1.2085,-145.327,716
1571222962,335.868,-113.519,-16.5199,179.341,1.18652,-145.327,716
1571222962,335.868,-113.519,-16.5199,179.341,1.18652,-145.327,716
1571222962,335.868,-113.519,-16.5199,179.341,1.18652,-145.327,716
1571222962,335.868,-113.519,-16.5199,179.341,1.18652,-145.327,716
1571222962,335.868,-113.519,-16.5199,179.341,1.18652,-145.327,716
1571222966,358.75,-137.852,-16.1851,179.297,1.38428,-145.437,768
1571222966,358.75,-137.852,-16.1851,179.297,1.38428,-145.437,768
1571222966,358.75,-137.964,-16.1851,179.297,1.38428,-145.437,768
1571222966,358.75,-137.964,-16.1851,179.297,1.38428,-145.437,768
1571222966,358.75,-137.964,-16.0734,179.297,1.38428,-145.437,768
1571222966,358.75,-137.964,-16.0734,179.297,1.38428,-145.437,768
1571222966,358.75,-137.964,-16.0734,179.275,1.38428,-145.437,768
1571222966,358.75,-137.964,-16.0734,179.275,1.38428,-145.437,768
1571222966,358.75,-137.964,-16.0734,179.275,1.38428,-145.437,768
1571222966,358.75,-137.964,-16.0734,179.275,1.38428,-145.437,768
1571222966,358.75,-137.964,-16.0734,179.275,1.40625,-145.437,768
1571222966,358.75,-137.964,-16.0734,179.275,1.40625,-145.437,764
1571222966,358.75,-137.964,-16.0734,179.275,1.40625,-145.437,764
1571222966,358.75,-137.964,-16.0734,179.275,1.40625,-145.437,764
1571222966,358.75,-137.964,-16.0734,179.275,1.40625,-145.437,764
1571222966,358.75,-137.964,-16.0734,179.275,1.40625,-145.437,764
1571222966,358.75,-137.964,-16.0734,179.275,1.40625,-145.437,764
1571222966,358.75,-137.964,-16.0734,179.275,1.40625,-145.437,764
1571222966,358.75,-137.964,-16.0734,179.275,1.40625,-145.437,764
1571222966,358.75,-137.964,-16.0734,179.275,1.40625,-145.437,764
1571222966,358.75,-137.964,-16.0734,179.275,1.40625,-145.437,764
1571222966,358.75,-137.964,-16.0734,179.275,1.40625,-145.459,764
1571222966,358.75,-137.964,-16.0734,179.275,1.40625,-145.459,764
1571222966,358.75,-137.964,-16.0734,179.297,1.40625,-145.459,764
1571222966,358.75,-137.964,-16.0734,179.297,1.40625,-145.459,768
1571222966,358.75,-137.964,-16.0734,179.297,1.40625,-145.459,768
1571222966,358.75,-137.964,-16.0734,179.297,1.40625,-145.459,768
1571222966,358.75,-137.964,-16.0734,179.297,1.40625,-145.459,768
1571222966,358.75,-137.964,-16.0734,179.297,1.40625,-145.459,768
1571222966,358.75,-137.852,-16.0734,179.297,1.42822,-145.459,768
1571222966,358.75,-137.852,-16.0734,179.297,1.42822,-145.459,768
1571222966,358.75,-137.852,-16.0734,179.297,1.42822,-145.459,768
1571222966,358.75,-137.852,-16.0734,179.297,1.42822,-145.459,768
1571222966,358.75,-137.852,-16.0734,179.297,1.42822,-145.437,768
1571222966,358.75,-137.852,-16.0734,179.297,1.42822,-145.437,768
1571222966,358.75,-137.852,-16.0734,179.297,1.42822,-145.437,768
1571222966,358.75,-137.852,-16.0734,179.297,1.42822,-145.437,768
1571222966,358.75,-137.852,-16.0734,179.297,1.42822,-145.437,772
1571222966,358.75,-137.852,-16.0734,179.297,1.42822,-145.437,772
1571222966,358.75,-137.852,-16.0734,179.297,1.42822,-145.437,772
1571222966,358.75,-137.852,-16.0734,179.297,1.42822,-145.459,772
1571222966,358.75,-137.852,-16.0734,179.297,1.42822,-145.459,772
1571222966,358.75,-137.852,-16.0734,179.297,1.40625,-145.459,772
1571222966,358.75,-137.852,-16.0734,179.297,1.40625,-145.459,772
1571222966,358.75,-137.852,-16.0734,179.297,1.40625,-145.459,776
1571222966,358.75,-137.852,-16.0734,179.297,1.40625,-145.459,776
1571222966,358.75,-137.852,-16.0734,179.297,1.40625,-145.459,776
1571222966,358.75,-137.852,-16.0734,179.297,1.40625,-145.459,776
1571222966,358.75,-137.852,-16.0734,179.297,1.40625,-145.459,776
1571222967,358.75,-137.852,-16.0734,179.297,1.40625,-145.459,780
1571222967,358.75,-137.852,-16.0734,179.297,1.40625,-145.459,780
1571222967,358.75,-137.852,-16.0734,179.297,1.40625,-145.459,780
1571222967,358.75,-137.852,-16.0734,179.297,1.42822,-145.459,780
1571222967,358.75,-137.852,-16.0734,179.297,1.42822,-145.437,780
1571222967,358.75,-137.852,-16.0734,179.297,1.42822,-145.437,780
1571222967,358.75,-137.852,-16.0734,179.297,1.42822,-145.437,780
1571222967,358.75,-137.852,-16.0734,179.297,1.40625,-145.437,780
1571222967,358.75,-137.852,-16.0734,179.297,1.40625,-145.437,780
1571222967,358.75,-137.852,-16.0734,179.297,1.40625,-145.437,780
1571222967,358.75,-137.852,-16.0734,179.297,1.40625,-145.437,780
1571222967,358.75,-137.852,-16.0734,179.297,1.40625,-145.437,784
1571222967,358.75,-137.852,-16.1851,179.297,1.40625,-145.459,784
1571222967,358.75,-137.852,-16.1851,179.297,1.40625,-145.459,784
1571222967,358.75,-137.852,-16.1851,179.297,1.38428,-145.459,784
1571222967,358.75,-137.852,-16.1851,179.297,1.38428,-145.459,780
1571222967,358.75,-137.964,-16.1851,179.297,1.38428,-145.459,780
1571222967,358.75,-137.964,-16.1851,179.297,1.38428,-145.459,780
1571222967,358.75,-137.964,-16.1851,179.297,1.38428,-145.459,780
1571222967,358.75,-137.964,-16.1851,179.297,1.38428,-145.459,780
1571222967,358.75,-137.964,-16.1851,179.297,1.38428,-145.459,776
1571222967,358.75,-137.964,-16.1851,179.297,1.38428,-145.459,776
1571222967,358.75,-137.964,-16.1851,179.297,1.38428,-145.459,776
1571222967,358.75,-137.964,-16.1851,179.297,1.38428,-145.459,772
1571222967,358.75,-137.964,-16.1851,179.297,1.38428,-145.459,772
1571222967,358.75,-137.964,-16.1851,179.297,1.38428,-145.459,772
1571222967,358.75,-137.964,-16.1851,179.297,1.38428,-145.459,772
1571222967,358.75,-137.964,-16.1851,179.297,1.38428,-145.459,768
1571222967,358.75,-137.964,-16.1851,179.297,1.38428,-145.459,768
1571222967,358.75,-137.964,-16.1851,179.297,1.38428,-145.459,768
1571222967,358.75,-137.964,-16.1851,179.297,1.38428,-145.459,764
1571222967,358.75,-137.964,-16.1851,179.297,1.38428,-145.459,764
1571222967,358.75,-137.964,-16.1851,179.297,1.38428,-145.459,764
1571222967,358.75,-137.964,-16.1851,179.297,1.38428,-145.459,760
1571222967,358.75,-137.964,-16.1851,179.297,1.38428,-145.459,760
1571222967,358.75,-137.964,-16.1851,179.297,1.38428,-145.459,760
1571222967,358.75,-137.964,-16.1851,179.297,1.38428,-145.459,760
1571222967,358.75,-137.964,-16.1851,179.297,1.38428,-145.459,760
1571222967,358.75,-137.964,-16.1851,179.297,1.38428,-145.459,756
1571222967,358.75,-137.964,-16.1851,179.297,1.38428,-145.459,756
1571222967,358.75,-137.964,-16.1851,179.297,1.38428,-145.459,756
1571222967,358.75,-137.964,-16.1851,179.297,1.38428,-145.459,756
1571222967,358.75,-137.964,-16.1851,179.297,1.38428,-145.459,756
1571222967,358.75,-137.964,-16.1851,179.297,1.38428,-145.459,756
1571222967,358.75,-137.964,-16.1851,179.297,1.38428,-145.459,756
1571222967,358.75,-137.964,-16.1851,179.297,1.38428,-145.459,756
1571222967,358.75,-137.964,-16.1851,179.297,1.38428,-145.459,756
1571222967,358.75,-137.964,-16.1851,179.297,1.38428,-145.459,756
1571222967,358.75,-137.964,-16.1851,179.297,1.38428,-145.459,756
1571222967,358.75,-137.964,-16.1851,179.297,1.38428,-145.459,756
1571222967,358.75,-137.964,-16.1851,179.297,1.38428,-145.459,756
1571222967,358.75,-137.964,-16.1851,179.297,1.38428,-145.459,756
1571222967,358.75,-137.964,-16.0734,179.297,1.38428,-145.459,756
1571222967,358.75,-137.964,-16.0734,179.297,1.38428,-145.459,756
1571222967,358.75,-137.964,-16.0734,179.297,1.40625,-145.459,756
1571222967,358.75,-137.964,-16.0734,179.297,1.40625,-145.459,756
1571222967,358.75,-137.964,-16.0734,179.297,1.40625,-145.459,756
1571222967,358.75,-137.964,-16.0734,179.297,1.40625,-145.459,756
1571222967,358.75,-137.964,-16.0734,179.297,1.40625,-145.459,756
1571222967,358.75,-137.964,-16.0734,179.297,1.40625,-145.459,756
1571222967,358.75,-137.964,-16.0734,179.297,1.40625,-145.437,756
1571222967,358.75,-137.964,-16.0734,179.297,1.40625,-145.437,756
1571222967,358.75,-137.964,-16.0734,179.297,1.40625,-145.437,756
1571222967,358.75,-137.964,-16.0734,179.297,1.40625,-145.437,756
1571222967,358.75,-137.964,-16.0734,179.297,1.40625,-145.437,760
1571222967,358.75,-137.964,-16.0734,179.297,1.40625,-145.437,760
1571222967,358.75,-137.852,-16.0734,179.297,1.40625,-145.437,760
1571222967,358.75,-137.852,-16.0734,179.297,1.40625,-145.459,760
1571222967,358.75,-137.852,-16.0734,179.297,1.40625,-145.459,760
1571222967,358.75,-137.852,-16.0734,179.297,1.40625,-145.459,760
1571222967,358.75,-137.852,-16.0734,179.297,1.40625,-145.459,760
1571222967,358.75,-137.852,-16.0734,179.297,1.40625,-145.459,760
1571222967,358.75,-137.852,-16.1851,179.297,1.40625,-145.459,760
1571222967,358.75,-137.852,-16.1851,179.297,1.38428,-145.459,760
1571222967,358.75,-137.852,-16.1851,179.297,1.38428,-145.459,760
1571222967,358.75,-137.852,-16.1851,179.297,1.38428,-145.459,760
1571222967,358.75,-137.852,-16.1851,179.297,1.38428,-145.437,760
1571222967,358.75,-137.852,-16.1851,179.297,1.38428,-145.437,760
1571222967,358.75,-137.852,-16.1851,179.297,1.38428,-145.437,760
1571222967,358.75,-137.852,-16.1851,179.297,1.38428,-145.437,760
1571222967,358.75,-137.852,-16.1851,179.297,1.38428,-145.437,760
1571222967,358.75,-137.852,-16.1851,179.297,1.38428,-145.437,760
1571222967,358.75,-137.852,-16.1851,179.297,1.38428,-145.437,760
1571222967,358.75,-137.852,-16.1851,179.297,1.38428,-145.437,760
1571222967,358.75,-137.852,-16.1851,179.319,1.38428,-145.437,760
1571222967,358.75,-137.852,-16.1851,179.319,1.38428,-145.437,760
1571222967,358.75,-137.852,-16.1851,179.319,1.38428,-145.437,756
1571222967,358.75,-137.852,-16.1851,179.319,1.38428,-145.437,756
1571222967,358.75,-137.852,-16.1851,179.319,1.38428,-145.459,756
1571222967,358.75,-137.852,-16.1851,179.319,1.38428,-145.459,756
1571222967,358.75,-137.852,-16.1851,179.319,1.38428,-145.459,752
1571222967,358.75,-137.852,-16.1851,179.297,1.38428,-145.459,752
1571222967,358.75,-137.852,-16.1851,179.297,1.38428,-145.459,752
1571222967,358.75,-137.852,-16.1851,179.297,1.38428,-145.459,752
1571222967,358.75,-137.852,-16.1851,179.297,1.38428,-145.459,752
1571222967,358.75,-137.852,-16.1851,179.297,1.38428,-145.459,752
1571222967,358.75,-137.852,-16.1851,179.297,1.38428,-145.459,748
1571222967,358.75,-137.852,-16.1851,179.297,1.38428,-145.459,748
1571222967,358.75,-137.852,-16.1851,179.297,1.38428,-145.459,748
1571222967,358.75,-137.852,-16.1851,179.297,1.38428,-145.459,748
1571222968,358.75,-137.852,-16.1851,179.297,1.38428,-145.459,748
1571222968,358.75,-137.852,-16.1851,179.297,1.38428,-145.459,748
1571222968,358.75,-137.852,-16.1851,179.297,1.38428,-145.459,748
1571222968,358.75,-137.852,-16.1851,179.319,1.38428,-145.459,748
1571222968,358.75,-137.852,-16.1851,179.319,1.38428,-145.459,748
1571222968,358.75,-137.852,-16.1851,179.319,1.38428,-145.459,748
1571222968,358.75,-137.852,-16.1851,179.319,1.3623,-145.459,748
1571222968,358.75,-137.74,-16.1851,179.319,1.3623,-145.459,748
1571222968,358.862,-137.74,-16.1851,179.341,1.3623,-145.459,748
1571222968,358.862,-137.74,-16.2967,179.341,1.3623,-145.459,748
1571222968,358.862,-137.74,-16.2967,179.341,1.3623,-145.459,748
1571222968,358.862,-137.74,-16.2967,179.341,1.3623,-145.459,748
1571222968,358.862,-137.74,-16.2967,179.341,1.3623,-145.459,748
1571222968,358.862,-137.74,-16.2967,179.341,1.34033,-145.459,748
1571222968,358.862,-137.74,-16.2967,179.341,1.34033,-145.459,748
1571222968,358.862,-137.74,-16.2967,179.341,1.34033,-145.459,748
1571222968,358.862,-137.74,-16.2967,179.341,1.34033,-145.459,748
1571222968,358.862,-137.74,-16.2967,179.341,1.34033,-145.459,748
1571222968,358.862,-137.74,-16.2967,179.341,1.34033,-145.459,748
1571222968,358.862,-137.852,-16.2967,179.319,1.34033,-145.459,748
1571222968,358.862,-137.852,-16.2967,179.319,1.34033,-145.459,748
1571222968,358.862,-137.852,-16.2967,179.319,1.34033,-145.459,748
1571222968,358.75,-137.852,-16.2967,179.319,1.3623,-145.459,748
1571222968,358.75,-137.852,-16.2967,179.319,1.3623,-145.459,748
1571222968,358.75,-137.852,-16.2967,179.319,1.3623,-145.459,748
1571222968,358.75,-137.852,-16.2967,179.319,1.3623,-145.459,748
1571222968,358.75,-137.852,-16.2967,179.319,1.3623,-145.459,748
1571222968,358.75,-137.852,-16.2967,179.319,1.3623,-145.459,752
1571222968,358.75,-137.852,-16.2967,179.319,1.3623,-145.459,752
1571222968,358.75,-137.852,-16.2967,179.319,1.3623,-145.459,748
1571222968,358.862,-137.852,-16.2967,179.319,1.3623,-145.459,748
1571222968,358.862,-137.852,-16.2967,179.319,1.3623,-145.459,748
1571222968,358.862,-137.852,-16.2967,179.319,1.3623,-145.437,748
1571222968,358.862,-137.852,-16.2967,179.319,1.3623,-145.437,748
1571222968,358.862,-137.852,-16.2967,179.319,1.3623,-145.437,748
1571222968,358.862,-137.852,-16.2967,179.319,1.34033,-145.459,748
1571222968,358.862,-137.852,-16.2967,179.319,1.34033,-145.459,748
1571222968,358.862,-137.852,-16.2967,179.319,1.34033,-145.459,744
1571222968,358.862,-137.852,-16.2967,179.319,1.34033,-145.459,744
1571222968,358.862,-137.852,-16.2967,179.319,1.34033,-145.459,744
1571222968,358.862,-137.852,-16.2967,179.319,1.3623,-145.459,744
1571222968,358.862,-137.852,-16.2967,179.319,1.3623,-145.437,744
1571222968,358.862,-137.852,-16.2967,179.319,1.3623,-145.437,744
1571222968,358.862,-137.852,-16.2967,179.319,1.3623,-145.437,744
1571222968,358.862,-137.852,-16.1851,179.297,1.3623,-145.437,744
1571222968,358.862,-137.852,-16.1851,179.319,1.3623,-145.437,744
1571222968,358.862,-137.852,-16.1851,179.319,1.3623,-145.437,744
1571222968,358.862,-137.852,-16.1851,179.319,1.38428,-145.437,748
1571222968,358.862,-137.852,-16.1851,179.319,1.38428,-145.437,748
1571222968,358.862,-137.852,-16.1851,179.319,1.38428,-145.437,748
1571222968,358.862,-137.852,-16.1851,179.319,1.38428,-145.437,748
1571222968,358.862,-137.852,-16.1851,179.319,1.38428,-145.437,752
1571222968,358.862,-137.852,-16.1851,179.319,1.38428,-145.437,752
1571222968,358.862,-137.852,-16.1851,179.341,1.38428,-145.437,752
1571222968,358.862,-137.74,-16.1851,179.341,1.38428,-145.437,756
1571222968,358.862,-137.74,-16.1851,179.341,1.38428,-145.437,756
1571222968,358.862,-137.74,-16.1851,179.341,1.38428,-145.437,756
1571222968,358.862,-137.74,-16.1851,179.341,1.38428,-145.437,760
1571222968,358.862,-137.74,-16.1851,179.341,1.38428,-145.437,760
1571222968,358.862,-137.74,-16.1851,179.341,1.38428,-145.437,760
1571222968,358.862,-137.74,-16.1851,179.341,1.38428,-145.437,764
1571222968,358.862,-137.74,-16.1851,179.341,1.38428,-145.437,764
1571222968,358.862,-137.852,-16.1851,179.319,1.38428,-145.437,764
1571222968,358.862,-137.852,-16.1851,179.319,1.38428,-145.437,764
1571222968,358.862,-137.852,-16.1851,179.319,1.38428,-145.437,768
1571222968,358.862,-137.852,-16.1851,179.319,1.38428,-145.437,768
1571222968,358.862,-137.852,-16.1851,179.319,1.40625,-145.437,768
1571222968,358.862,-137.852,-16.1851,179.319,1.40625,-145.437,768
1571222968,358.862,-137.852,-16.1851,179.319,1.40625,-145.437,768
1571222968,358.862,-137.852,-16.1851,179.319,1.40625,-145.437,768
1571222968,358.862,-137.852,-16.1851,179.319,1.40625,-145.437,768
1571222968,358.862,-137.852,-16.1851,179.319,1.38428,-145.437,768
1571222968,358.862,-137.852,-16.1851,179.319,1.38428,-145.437,768
1571222968,358.862,-137.852,-16.1851,179.319,1.38428,-145.437,768
1571222968,358.862,-137.852,-16.1851,179.341,1.38428,-145.437,764
1571222968,358.862,-137.852,-16.1851,179.341,1.38428,-145.437,764
1571222968,358.862,-137.852,-16.1851,179.341,1.38428,-145.437,764
1571222968,358.862,-137.852,-16.1851,179.341,1.38428,-145.437,764
1571222968,358.862,-137.852,-16.1851,179.341,1.38428,-145.437,764
1571222968,358.862,-137.852,-16.1851,179.319,1.38428,-145.437,764
1571222968,358.862,-137.852,-16.1851,179.319,1.38428,-145.437,760
1571222968,358.862,-137.852,-16.1851,179.319,1.38428,-145.437,760
1571222968,358.862,-137.852,-16.1851,179.319,1.38428,-145.437,760
1571222968,358.862,-137.852,-16.1851,179.319,1.38428,-145.437,760
1571222968,358.862,-137.852,-16.1851,179.319,1.38428,-145.437,760
1571222968,358.862,-137.852,-16.1851,179.319,1.38428,-145.437,760
1571222968,358.862,-137.852,-16.1851,179.319,1.3623,-145.437,760
1571222968,358.862,-137.852,-16.1851,179.319,1.3623,-145.437,760
1571222968,358.862,-137.852,-16.1851,179.297,1.3623,-145.437,760
1571222968,358.862,-137.852,-16.1851,179.297,1.3623,-145.437,760
1571222968,358.75,-137.964,-16.1851,179.297,1.3623,-145.437,760
1571222968,358.75,-137.964,-16.1851,179.297,1.3623,-145.437,760
1571222968,358.75,-137.964,-16.1851,179.297,1.3623,-145.437,760
1571222968,358.75,-137.964,-16.1851,179.297,1.3623,-145.437,760
1571222968,358.75,-137.964,-16.1851,179.275,1.3623,-145.459,760
1571222968,358.75,-137.964,-16.1851,179.275,1.3623,-145.459,760
1571222968,358.75,-137.964,-16.1851,179.275,1.3623,-145.459,760
1571222968,358.75,-137.964,-16.1851,179.275,1.3623,-145.459,760
1571222968,358.75,-137.964,-16.1851,179.275,1.38428,-145.459,760
1571222968,358.75,-137.964,-16.1851,179.275,1.38428,-145.459,760
1571222969,358.75,-137.964,-16.1851,179.275,1.38428,-145.459,760
1571222969,358.75,-137.964,-16.1851,179.275,1.38428,-145.459,760
1571222969,358.75,-137.964,-16.1851,179.275,1.38428,-145.459,760
1571222969,358.75,-137.964,-16.1851,179.275,1.38428,-145.459,760
1571222969,358.75,-137.964,-16.1851,179.275,1.38428,-145.459,760
1571222969,358.75,-137.964,-16.1851,179.275,1.38428,-145.459,760
1571222969,358.75,-137.964,-16.1851,179.275,1.38428,-145.459,760
1571222969,358.75,-137.964,-16.1851,179.275,1.38428,-145.459,760
1571222969,358.75,-137.964,-16.1851,179.275,1.40625,-145.459,760
1571222969,358.75,-137.964,-16.1851,179.275,1.40625,-145.459,760
1571222969,358.75,-137.964,-16.1851,179.275,1.40625,-145.459,760
1571222969,358.75,-137.964,-16.1851,179.275,1.40625,-145.459,760
1571222969,358.75,-137.964,-16.1851,179.275,1.40625,-145.459,756
1571222969,358.75,-137.964,-16.1851,179.275,1.40625,-145.459,756
1571222969,358.75,-137.964,-16.0734,179.275,1.40625,-145.459,756
1571222969,358.75,-137.964,-16.0734,179.275,1.40625,-145.459,756
1571222969,358.75,-137.964,-16.0734,179.275,1.40625,-145.459,756
1571222969,358.75,-137.964,-16.0734,179.275,1.40625,-145.459,756
1571222969,358.75,-137.964,-16.0734,179.275,1.40625,-145.459,756
1571222969,358.75,-137.964,-16.0734,179.275,1.38428,-145.459,756
1571222969,358.75,-137.964,-16.0734,179.275,1.38428,-145.459,756
1571222969,358.75,-137.964,-16.0734,179.275,1.38428,-145.459,756
1571222969,358.639,-137.964,-16.1851,179.275,1.38428,-145.459,760
1571222969,358.639,-137.964,-16.1851,179.275,1.38428,-145.459,760
1571222969,358.639,-137.964,-16.1851,179.275,1.38428,-145.459,760
1571222969,358.639,-137.964,-16.1851,179.275,1.38428,-145.459,760
1571222969,358.639,-137.964,-16.1851,179.275,1.38428,-145.459,764
1571222969,358.639,-137.964,-16.1851,179.275,1.38428,-145.459,764
1571222969,358.639,-137.964,-16.1851,179.275,1.38428,-145.437,764
1571222969,358.639,-137.964,-16.1851,179.275,1.38428,-145.437,768
1571222969,358.639,-137.964,-16.1851,179.275,1.38428,-145.437,768
1571222969,358.639,-137.964,-16.1851,179.275,1.38428,-145.437,768
1571222969,358.639,-137.964,-16.0734,179.275,1.38428,-145.437,772
1571222969,358.639,-137.964,-16.0734,179.275,1.38428,-145.437,772
1571222969,358.639,-137.964,-16.0734,179.275,1.40625,-145.437,772
1571222969,358.639,-137.964,-16.0734,179.275,1.40625,-145.437,772
1571222969,358.639,-137.964,-16.0734,179.275,1.40625,-145.437,776
1571222969,358.639,-137.964,-16.0734,179.275,1.40625,-145.437,776
1571222969,358.639,-137.852,-16.0734,179.275,1.40625,-145.437,776
1571222969,358.639,-137.852,-16.0734,179.275,1.40625,-145.437,776
1571222969,358.639,-137.852,-16.0734,179.275,1.40625,-145.437,780
1571222969,358.639,-137.852,-16.0734,179.275,1.40625,-145.437,780
1571222969,358.639,-137.852,-16.0734,179.275,1.40625,-145.437,780
1571222969,358.639,-137.852,-16.1851,179.275,1.40625,-145.437,780
1571222969,358.639,-137.964,-16.1851,179.275,1.40625,-145.437,784
1571222969,358.639,-137.964,-16.1851,179.275,1.40625,-145.437,784
1571222969,358.639,-137.964,-16.1851,179.275,1.38428,-145.437,784
1571222969,358.639,-137.964,-16.1851,179.275,1.38428,-145.437,784
1571222969,358.639,-137.964,-16.1851,179.275,1.38428,-145.437,784
1571222969,358.639,-137.964,-16.1851,179.275,1.38428,-145.437,788
1571222969,358.639,-137.964,-16.1851,179.275,1.38428,-145.437,788
1571222969,358.639,-137.964,-16.1851,179.275,1.38428,-145.437,788
1571222969,358.639,-137.964,-16.1851,179.275,1.38428,-145.437,788
1571222969,358.639,-137.964,-16.1851,179.275,1.40625,-145.437,788
1571222969,358.639,-137.964,-16.1851,179.253,1.40625,-145.437,788
1571222969,358.639,-137.964,-16.1851,179.253,1.40625,-145.437,788
1571222969,358.639,-137.964,-16.1851,179.253,1.40625,-145.437,788
1571222969,358.639,-137.964,-16.1851,179.253,1.40625,-145.437,788
1571222969,358.639,-137.964,-16.1851,179.275,1.40625,-145.437,792
1571222969,358.639,-137.964,-16.1851,179.275,1.40625,-145.459,792
1571222969,358.639,-137.964,-16.1851,179.275,1.40625,-145.459,792
1571222969,358.639,-137.964,-16.1851,179.275,1.40625,-145.459,792
1571222969,358.639,-137.964,-16.1851,179.275,1.40625,-145.459,792
1571222969,358.639,-137.964,-16.1851,179.275,1.40625,-145.459,796
1571222969,358.639,-137.964,-16.1851,179.275,1.40625,-145.437,796
1571222969,358.639,-137.964,-16.1851,179.275,1.40625,-145.437,796
1571222969,358.639,-137.964,-16.1851,179.275,1.40625,-145.437,796
1571222969,358.639,-137.964,-16.1851,179.275,1.40625,-145.437,796
1571222969,358.639,-137.964,-16.1851,179.275,1.40625,-145.437,796
1571222969,358.639,-137.964,-16.1851,179.275,1.40625,-145.437,800
1571222969,358.639,-137.964,-16.1851,179.275,1.40625,-145.437,800
1571222969,358.75,-137.964,-16.1851,179.275,1.40625,-145.437,800
1571222969,358.75,-137.964,-16.1851,179.275,1.40625,-145.437,800
1571222969,358.75,-137.964,-16.1851,179.275,1.40625,-145.437,800
1571222969,358.75,-137.964,-16.0734,179.275,1.40625,-145.437,800
1571222969,358.75,-137.964,-16.0734,179.275,1.40625,-145.437,800
1571222969,358.75,-137.964,-16.0734,179.275,1.40625,-145.437,800
1571222969,358.75,-137.964,-16.0734,179.275,1.42822,-145.437,800
1571222969,358.75,-137.852,-16.0734,179.297,1.42822,-145.437,800
1571222969,358.75,-137.852,-16.0734,179.297,1.42822,-145.437,800
1571222969,358.75,-137.852,-16.0734,179.297,1.42822,-145.437,800
1571222969,358.75,-137.852,-16.0734,179.297,1.42822,-145.437,800
1571222969,358.75,-137.852,-16.0734,179.297,1.42822,-145.437,796
1571222969,358.75,-137.852,-16.0734,179.297,1.42822,-145.437,796
1571222969,358.75,-137.852,-16.0734,179.319,1.42822,-145.437,796
1571222969,358.75,-137.852,-16.0734,179.319,1.42822,-145.437,792
1571222969,358.75,-137.852,-16.0734,179.319,1.42822,-145.437,792
1571222969,358.75,-137.852,-16.0734,179.319,1.42822,-145.437,792
1571222969,358.75,-137.852,-16.0734,179.319,1.42822,-145.437,788
1571222969,358.75,-137.852,-16.0734,179.319,1.42822,-145.437,788
1571222969,358.75,-137.852,-16.0734,179.319,1.42822,-145.437,788
1571222969,358.75,-137.852,-16.0734,179.319,1.42822,-145.437,784
1571222969,358.75,-137.852,-16.0734,179.297,1.42822,-145.437,784
1571222969,358.75,-137.852,-16.0734,179.297,1.42822,-145.437,784
1571222969,358.75,-137.852,-16.0734,179.297,1.42822,-145.437,780
1571222969,358.75,-137.852,-16.0734,179.297,1.42822,-145.437,780
1571222969,358.75,-137.852,-16.0734,179.297,1.42822,-145.437,780
1571222969,358.75,-137.852,-16.0734,179.319,1.42822,-145.437,776
1571222969,358.75,-137.852,-16.0734,179.319,1.42822,-145.437,776
1571222969,358.75,-137.852,-16.0734,179.319,1.42822,-145.437,772
1571222970,358.75,-137.852,-16.0734,179.319,1.42822,-145.437,772
1571222970,358.75,-137.852,-16.0734,179.319,1.42822,-145.437,772
1571222970,358.75,-137.852,-16.0734,179.319,1.42822,-145.437,768
1571222970,358.75,-137.852,-16.0734,179.319,1.42822,-145.437,768
1571222970,358.75,-137.852,-16.0734,179.319,1.42822,-145.437,768
1571222970,358.75,-137.852,-16.0734,179.319,1.42822,-145.437,768
1571222970,358.75,-137.852,-16.0734,179.319,1.42822,-145.437,764
1571222970,358.75,-137.852,-16.0734,179.319,1.42822,-145.437,764
1571222970,358.75,-137.852,-16.0734,179.319,1.42822,-145.437,764
1571222970,358.75,-137.852,-16.0734,179.319,1.42822,-145.437,764
1571222970,358.75,-137.852,-16.0734,179.319,1.42822,-145.437,764
1571222970,358.75,-137.852,-16.0734,179.319,1.42822,-145.437,764
1571222970,358.75,-137.852,-16.0734,179.319,1.42822,-145.437,760
1571222970,358.75,-137.852,-16.0734,179.319,1.42822,-145.437,760
1571222970,358.75,-137.852,-16.0734,179.297,1.42822,-145.437,760
1571222970,358.75,-137.852,-16.0734,179.319,1.42822,-145.437,764
1571222970,358.75,-137.852,-16.0734,179.319,1.40625,-145.437,764
1571222970,358.75,-137.852,-16.0734,179.319,1.40625,-145.437,764
1571222970,358.75,-137.852,-16.0734,179.319,1.40625,-145.437,764
1571222970,358.75,-137.852,-16.0734,179.319,1.40625,-145.437,764
1571222970,358.75,-137.852,-16.1851,179.319,1.40625,-145.437,764
1571222970,358.75,-137.852,-16.1851,179.319,1.40625,-145.437,768
1571222970,358.75,-137.852,-16.1851,179.319,1.40625,-145.437,768
1571222970,358.75,-137.852,-16.1851,179.319,1.40625,-145.437,768
1571222970,358.75,-137.852,-16.1851,179.319,1.40625,-145.437,772
1571222970,358.75,-137.852,-16.1851,179.319,1.40625,-145.437,772
1571222970,358.75,-137.852,-16.1851,179.319,1.40625,-145.437,772
1571222970,358.75,-137.852,-16.1851,179.319,1.40625,-145.437,772
1571222970,358.75,-137.852,-16.1851,179.319,1.40625,-145.437,772
1571222970,358.75,-137.852,-16.1851,179.319,1.40625,-145.437,772
1571222970,358.75,-137.852,-16.1851,179.319,1.38428,-145.437,772
1571222970,358.75,-137.852,-16.1851,179.319,1.38428,-145.437,772
1571222970,358.75,-137.852,-16.1851,179.319,1.38428,-145.437,772
1571222970,358.75,-137.852,-16.1851,179.319,1.38428,-145.437,772
1571222970,358.75,-137.852,-16.1851,179.319,1.38428,-145.437,772
1571222970,358.75,-137.852,-16.1851,179.319,1.38428,-145.437,772
1571222970,358.75,-137.852,-16.1851,179.319,1.38428,-145.437,772
1571222970,358.75,-137.852,-16.1851,179.319,1.38428,-145.437,772
1571222970,358.75,-137.852,-16.1851,179.319,1.38428,-145.415,772
1571222970,358.75,-137.852,-16.1851,179.319,1.38428,-145.415,772
1571222970,358.75,-137.852,-16.1851,179.319,1.38428,-145.415,772
1571222970,358.75,-137.852,-16.1851,179.319,1.38428,-145.415,772
1571222970,358.75,-137.852,-16.1851,179.319,1.38428,-145.415,772
1571222970,358.75,-137.852,-16.1851,179.319,1.38428,-145.415,772
1571222970,358.75,-137.74,-16.1851,179.319,1.38428,-145.415,772
1571222970,358.75,-137.74,-16.1851,179.319,1.38428,-145.415,772
1571222970,358.75,-137.74,-16.1851,179.319,1.38428,-145.415,772
1571222970,358.75,-137.74,-16.1851,179.319,1.38428,-145.415,772
1571222970,358.75,-137.74,-16.1851,179.319,1.38428,-145.415,772
1571222970,358.75,-137.74,-16.0734,179.319,1.38428,-145.415,772
1571222970,358.75,-137.74,-16.0734,179.319,1.38428,-145.415,772
1571222970,358.75,-137.74,-16.0734,179.319,1.38428,-145.415,772
1571222970,358.75,-137.74,-16.0734,179.319,1.40625,-145.415,772
1571222970,358.75,-137.74,-16.0734,179.319,1.40625,-145.415,776
1571222970,358.75,-137.74,-16.0734,179.319,1.40625,-145.415,776
1571222970,358.75,-137.74,-16.0734,179.319,1.40625,-145.415,776
1571222970,358.75,-137.74,-16.0734,179.319,1.40625,-145.415,780
1571222970,358.75,-137.74,-16.0734,179.319,1.40625,-145.415,780
1571222970,358.75,-137.74,-16.0734,179.319,1.40625,-145.415,780
1571222970,358.75,-137.852,-16.0734,179.319,1.40625,-145.415,780
1571222970,358.75,-137.852,-16.0734,179.319,1.40625,-145.415,784
1571222970,358.75,-137.852,-16.0734,179.297,1.40625,-145.437,784
1571222970,358.75,-137.852,-16.0734,179.297,1.40625,-145.437,784
1571222970,358.75,-137.852,-16.0734,179.297,1.40625,-145.437,784
1571222970,358.75,-137.852,-16.0734,179.297,1.40625,-145.437,784
1571222970,358.75,-137.852,-16.0734,179.297,1.40625,-145.437,784
1571222970,358.75,-137.852,-16.0734,179.297,1.40625,-145.415,784
1571222970,358.75,-137.852,-16.0734,179.297,1.40625,-145.415,784
1571222970,358.75,-137.852,-16.0734,179.297,1.40625,-145.415,784
1571222970,358.75,-137.852,-16.0734,179.297,1.38428,-145.415,784
1571222970,358.75,-137.852,-16.0734,179.297,1.38428,-145.415,788
1571222970,358.75,-137.852,-16.1851,179.297,1.38428,-145.415,788
1571222970,358.75,-137.852,-16.1851,179.297,1.38428,-145.415,788
1571222970,358.75,-137.852,-16.1851,179.297,1.38428,-145.415,788
1571222970,358.75,-137.852,-16.1851,179.297,1.38428,-145.415,788
1571222970,358.75,-137.852,-16.1851,179.297,1.38428,-145.415,788
1571222970,358.75,-137.852,-16.1851,179.297,1.38428,-145.437,788
1571222970,358.75,-137.852,-16.1851,179.297,1.38428,-145.437,788
1571222970,358.75,-137.852,-16.1851,179.297,1.38428,-145.437,788
1571222970,358.75,-137.852,-16.1851,179.297,1.38428,-145.437,788
1571222970,358.75,-137.852,-16.1851,179.297,1.38428,-145.437,788
1571222970,358.75,-137.852,-16.1851,179.297,1.38428,-145.437,788
1571222970,358.75,-137.852,-16.1851,179.297,1.38428,-145.437,788
1571222970,358.75,-137.852,-16.1851,179.297,1.38428,-145.437,784
1571222970,358.75,-137.852,-16.0734,179.297,1.38428,-145.437,784
1571222970,358.75,-137.852,-16.0734,179.297,1.40625,-145.437,784
1571222970,358.75,-137.852,-16.0734,179.297,1.38428,-145.437,784
1571222970,358.75,-137.852,-16.0734,179.297,1.40625,-145.437,780
1571222970,358.75,-137.852,-16.0734,179.297,1.40625,-145.437,780
1571222970,358.75,-137.852,-16.0734,179.297,1.40625,-145.437,780
1571222970,358.75,-137.852,-16.0734,179.297,1.38428,-145.437,780
1571222970,358.75,-137.852,-16.0734,179.297,1.38428,-145.437,780
1571222970,358.75,-137.852,-16.0734,179.297,1.38428,-145.437,780
1571222970,358.75,-137.852,-16.0734,179.297,1.38428,-145.437,780
1571222970,358.75,-137.852,-16.0734,179.297,1.40625,-145.437,784
1571222970,358.75,-137.852,-16.0734,179.297,1.40625,-145.437,784
1571222970,358.75,-137.852,-16.0734,179.297,1.40625,-145.437,784
1571222970,358.75,-137.852,-16.0734,179.297,1.40625,-145.437,784
1571222970,358.75,-137.852,-16.0734,179.297,1.40625,-145.437,784
1571222970,358.75,-137.852,-16.0734,179.297,1.40625,-145.415,784
1571222971,358.75,-137.852,-16.0734,179.297,1.40625,-145.415,784
1571222971,358.75,-137.852,-16.0734,179.297,1.40625,-145.415,784
1571222971,358.75,-137.852,-16.0734,179.297,1.40625,-145.415,784
1571222971,358.75,-137.852,-16.0734,179.275,1.40625,-145.415,784
1571222971,358.75,-137.852,-16.0734,179.275,1.40625,-145.415,784
1571222971,358.75,-137.852,-16.0734,179.275,1.40625,-145.415,784
1571222971,358.75,-137.964,-16.0734,179.275,1.40625,-145.415,784
1571222971,358.75,-137.964,-16.0734,179.275,1.40625,-145.415,784
1571222971,358.75,-137.964,-16.0734,179.275,1.40625,-145.415,784
1571222971,358.75,-137.964,-16.0734,179.275,1.40625,-145.415,784
1571222971,358.75,-137.964,-16.0734,179.275,1.40625,-145.415,784
1571222971,358.75,-137.964,-16.0734,179.275,1.40625,-145.415,780
1571222971,358.75,-137.964,-16.0734,179.275,1.40625,-145.415,780
1571222971,358.75,-137.964,-16.0734,179.275,1.42822,-145.415,780
1571222971,358.75,-137.964,-16.0734,179.275,1.42822,-145.415,780
1571222971,358.75,-137.964,-16.0734,179.275,1.42822,-145.415,780
1571222971,358.75,-137.964,-16.0734,179.275,1.42822,-145.415,780
1571222971,358.75,-137.964,-16.0734,179.275,1.40625,-145.415,780
1571222971,358.75,-137.964,-16.0734,179.275,1.40625,-145.437,780
1571222971,358.75,-137.964,-16.0734,179.275,1.42822,-145.437,776
1571222971,358.75,-137.964,-16.0734,179.275,1.42822,-145.437,776
1571222971,358.75,-137.964,-16.0734,179.275,1.40625,-145.437,776
1571222971,358.75,-137.964,-16.0734,179.275,1.40625,-145.437,776
1571222971,358.75,-137.964,-16.0734,179.275,1.40625,-145.437,776
1571222971,358.75,-137.964,-16.0734,179.275,1.40625,-145.437,776
1571222971,358.75,-137.964,-16.0734,179.275,1.40625,-145.437,776
1571222971,358.75,-137.964,-16.0734,179.275,1.40625,-145.437,776
1571222971,358.75,-137.964,-16.0734,179.275,1.40625,-145.437,776
1571222971,358.75,-137.964,-16.0734,179.275,1.40625,-145.437,780
1571222971,358.75,-137.964,-16.0734,179.275,1.40625,-145.437,780
1571222971,358.75,-137.964,-16.0734,179.275,1.40625,-145.437,780
1571222971,358.75,-137.964,-16.0734,179.275,1.40625,-145.437,780
1571222971,358.75,-137.964,-16.0734,179.275,1.40625,-145.437,780
1571222971,358.75,-137.964,-16.0734,179.275,1.40625,-145.437,780
1571222971,358.75,-137.964,-16.0734,179.275,1.40625,-145.437,780
1571222971,358.75,-137.964,-16.0734,179.275,1.40625,-145.437,780
1571222971,358.75,-137.964,-16.0734,179.275,1.40625,-145.437,780
1571222971,358.75,-137.964,-16.0734,179.275,1.40625,-145.437,780
1571222971,358.75,-137.964,-16.0734,179.275,1.40625,-145.437,780
1571222971,358.75,-137.964,-16.0734,179.275,1.40625,-145.437,780
1571222971,358.75,-137.964,-16.0734,179.275,1.40625,-145.437,776
1571222971,358.75,-137.964,-16.0734,179.275,1.40625,-145.437,776
1571222971,358.75,-137.964,-16.0734,179.275,1.40625,-145.437,776
1571222971,358.75,-137.964,-16.0734,179.275,1.42822,-145.437,776
1571222971,358.75,-137.964,-16.0734,179.275,1.42822,-145.437,776
1571222971,358.75,-137.964,-16.0734,179.275,1.42822,-145.437,776
1571222971,358.75,-137.964,-16.0734,179.275,1.42822,-145.437,776
1571222971,358.75,-137.964,-16.0734,179.275,1.42822,-145.437,776
1571222971,358.75,-137.964,-16.0734,179.275,1.42822,-145.437,776
1571222971,358.75,-137.964,-16.0734,179.275,1.42822,-145.437,776
1571222971,358.75,-137.964,-16.0734,179.275,1.40625,-145.437,776
1571222976,397.148,-178.594,-15.4037,179.275,1.91162,-145.305,744
1571222976,397.148,-178.482,-15.4037,179.275,1.91162,-145.305,744
1571222976,397.148,-178.482,-15.4037,179.275,1.91162,-145.305,744
1571222976,397.036,-178.482,-15.4037,179.275,1.91162,-145.327,744
1571222976,397.036,-178.482,-15.4037,179.275,1.91162,-145.327,744
1571222976,397.036,-178.482,-15.4037,179.275,1.91162,-145.327,744
1571222976,397.036,-178.482,-15.4037,179.275,1.91162,-145.327,744
1571222976,397.036,-178.482,-15.4037,179.275,1.91162,-145.327,748
1571222976,397.036,-178.482,-15.4037,179.275,1.88965,-145.327,748
1571222976,397.036,-178.482,-15.4037,179.275,1.88965,-145.327,752
1571222976,397.036,-178.482,-15.4037,179.275,1.88965,-145.327,752
1571222976,397.036,-178.482,-15.5153,179.253,1.86768,-145.327,756
1571222976,397.036,-178.594,-15.5153,179.253,1.86768,-145.327,756
1571222976,397.036,-178.594,-15.5153,179.253,1.86768,-145.349,756
1571222976,397.036,-178.594,-15.5153,179.253,1.86768,-145.349,760
1571222976,397.036,-178.594,-15.5153,179.253,1.8457,-145.349,760
1571222976,397.036,-178.594,-15.627,179.253,1.8457,-145.349,760
1571222976,397.036,-178.594,-15.627,179.253,1.8457,-145.349,760
1571222976,397.036,-178.594,-15.627,179.231,1.8457,-145.349,760
1571222976,397.036,-178.594,-15.627,179.231,1.8457,-145.349,760
1571222976,397.036,-178.705,-15.627,179.231,1.8457,-145.349,760
1571222976,397.036,-178.705,-15.627,179.231,1.8457,-145.349,760
1571222976,397.036,-178.705,-15.627,179.231,1.8457,-145.349,760
1571222976,397.036,-178.705,-15.627,179.231,1.8457,-145.349,760
1571222976,397.036,-178.705,-15.5153,179.231,1.8457,-145.349,760
1571222976,397.036,-178.705,-15.5153,179.231,1.8457,-145.349,760
1571222976,397.036,-178.705,-15.5153,179.231,1.8457,-145.349,764
1571222976,397.036,-178.705,-15.5153,179.231,1.8457,-145.349,764
1571222976,397.036,-178.705,-15.5153,179.231,1.8457,-145.349,764
1571222976,397.036,-178.705,-15.5153,179.231,1.8457,-145.349,764
1571222976,397.036,-178.705,-15.5153,179.231,1.8457,-145.327,764
1571222976,397.036,-178.705,-15.5153,179.231,1.8457,-145.327,768
1571222976,397.036,-178.705,-15.5153,179.231,1.8457,-145.327,768
1571222976,397.036,-178.705,-15.5153,179.253,1.8457,-145.327,768
1571222976,397.036,-178.705,-15.5153,179.253,1.8457,-145.327,772
1571222976,397.036,-178.705,-15.5153,179.253,1.8457,-145.327,772
1571222976,397.036,-178.705,-15.5153,179.253,1.8457,-145.327,776
1571222976,397.036,-178.594,-15.5153,179.253,1.8457,-145.327,776
1571222976,396.925,-178.594,-15.5153,179.275,1.8457,-145.327,780
1571222976,396.925,-178.594,-15.5153,179.275,1.8457,-145.327,780
1571222976,396.925,-178.594,-15.5153,179.275,1.8457,-145.349,780
1571222976,396.925,-178.594,-15.5153,179.275,1.8457,-145.349,784
1571222976,396.925,-178.594,-15.5153,179.275,1.8457,-145.349,784
1571222976,396.925,-178.594,-15.5153,179.275,1.86768,-145.349,784
1571222976,396.925,-178.594,-15.5153,179.275,1.86768,-145.349,784
1571222976,396.925,-178.594,-15.5153,179.253,1.86768,-145.349,784
1571222976,396.925,-178.594,-15.5153,179.253,1.86768,-145.349,784
1571222976,396.925,-178.594,-15.5153,179.253,1.86768,-145.349,784
1571222976,396.925,-178.594,-15.5153,179.253,1.86768,-145.349,784
1571222976,396.925,-178.594,-15.5153,179.253,1.88965,-145.349,784
1571222976,396.925,-178.594,-15.4037,179.253,1.88965,-145.349,784
1571222976,396.925,-178.594,-15.4037,179.253,1.88965,-145.349,784
1571222976,396.925,-178.594,-15.4037,179.253,1.88965,-145.349,784
1571222977,396.925,-178.594,-15.4037,179.253,1.88965,-145.327,784
1571222977,396.813,-178.594,-15.4037,179.253,1.88965,-145.327,784
1571222977,396.813,-178.594,-15.4037,179.253,1.88965,-145.327,784
1571222977,396.925,-178.594,-15.4037,179.253,1.88965,-145.327,780
1571222977,396.925,-178.594,-15.4037,179.253,1.86768,-145.327,780
1571222977,396.925,-178.482,-15.4037,179.275,1.86768,-145.327,780
1571222977,396.925,-178.482,-15.4037,179.275,1.86768,-145.327,780
1571222977,396.925,-178.482,-15.4037,179.275,1.86768,-145.327,780
1571222977,396.925,-178.482,-15.4037,179.275,1.86768,-145.305,776
1571222977,396.925,-178.482,-15.4037,179.297,1.86768,-145.305,776
1571222977,397.036,-178.482,-15.4037,179.297,1.86768,-145.305,776
1571222977,397.036,-178.482,-15.4037,179.297,1.86768,-145.305,772
1571222977,397.036,-178.482,-15.4037,179.297,1.86768,-145.305,772
1571222977,397.036,-178.482,-15.4037,179.297,1.86768,-145.305,772
1571222977,397.036,-178.482,-15.4037,179.297,1.88965,-145.305,768
1571222977,397.036,-178.594,-15.4037,179.297,1.88965,-145.305,768
1571222977,397.036,-178.594,-15.2921,179.275,1.88965,-145.305,768
1571222977,397.036,-178.594,-15.2921,179.275,1.88965,-145.305,768
1571222977,397.036,-178.594,-15.2921,179.275,1.88965,-145.305,764
1571222977,397.036,-178.594,-15.2921,179.275,1.91162,-145.305,764
1571222977,397.036,-178.594,-15.2921,179.275,1.91162,-145.305,764
1571222977,397.036,-178.594,-15.2921,179.297,1.91162,-145.305,764
1571222977,397.036,-178.482,-15.2921,179.297,1.91162,-145.305,768
1571222977,397.036,-178.482,-15.2921,179.297,1.91162,-145.305,768
1571222977,397.036,-178.482,-15.2921,179.297,1.91162,-145.305,768
1571222977,397.036,-178.482,-15.2921,179.297,1.88965,-145.305,768
1571222977,397.036,-178.482,-15.2921,179.297,1.88965,-145.305,768
1571222977,397.036,-178.482,-15.4037,179.297,1.88965,-145.305,772
1571222977,397.036,-178.482,-15.4037,179.319,1.88965,-145.305,772
1571222977,397.036,-178.482,-15.4037,179.319,1.88965,-145.305,772
1571222977,397.036,-178.482,-15.4037,179.319,1.88965,-145.305,772
1571222977,397.036,-178.482,-15.4037,179.319,1.86768,-145.305,772
1571222977,397.036,-178.482,-15.4037,179.319,1.86768,-145.305,772
1571222977,397.036,-178.482,-15.4037,179.319,1.86768,-145.305,768
1571222977,397.148,-178.482,-15.4037,179.319,1.86768,-145.305,768
1571222977,397.148,-178.482,-15.4037,179.319,1.86768,-145.305,764
1571222977,397.148,-178.482,-15.4037,179.319,1.86768,-145.305,764
1571222977,397.148,-178.482,-15.4037,179.319,1.86768,-145.305,764
1571222977,397.148,-178.482,-15.4037,179.319,1.86768,-145.327,760
1571222977,397.148,-178.482,-15.4037,179.297,1.86768,-145.327,760
1571222977,397.148,-178.482,-15.4037,179.297,1.86768,-145.327,756
1571222977,397.148,-178.594,-15.4037,179.297,1.86768,-145.327,756
1571222977,397.148,-178.594,-15.4037,179.297,1.86768,-145.305,756
1571222977,397.148,-178.594,-15.4037,179.297,1.86768,-145.305,752
1571222977,397.148,-178.594,-15.4037,179.297,1.86768,-145.305,752
1571222977,397.148,-178.594,-15.4037,179.297,1.86768,-145.305,752
1571222977,397.148,-178.594,-15.4037,179.297,1.86768,-145.305,752
1571222977,397.148,-178.594,-15.4037,179.297,1.86768,-145.305,752
1571222977,397.148,-178.594,-15.4037,179.297,1.86768,-145.305,752
1571222977,397.148,-178.594,-15.4037,179.275,1.88965,-145.305,752
1571222977,397.148,-178.594,-15.4037,179.275,1.88965,-145.305,752
1571222977,397.148,-178.594,-15.4037,179.275,1.88965,-145.305,752
1571222977,397.148,-178.705,-15.2921,179.275,1.88965,-145.305,748
1571222977,397.148,-178.705,-15.2921,179.275,1.88965,-145.305,748
1571222977,397.148,-178.705,-15.2921,179.275,1.88965,-145.305,748
1571222977,397.148,-178.705,-15.2921,179.275,1.88965,-145.305,744
1571222977,397.148,-178.705,-15.2921,179.253,1.88965,-145.305,744
1571222977,397.148,-178.817,-15.2921,179.253,1.88965,-145.305,744
1571222977,397.148,-178.817,-15.2921,179.253,1.88965,-145.305,740
1571222977,397.148,-178.817,-15.2921,179.253,1.88965,-145.305,740
1571222977,397.148,-178.817,-15.2921,179.253,1.88965,-145.305,736
1571222977,397.148,-178.817,-15.2921,179.253,1.88965,-145.305,736
1571222977,397.148,-178.817,-15.2921,179.253,1.88965,-145.305,732
1571222977,397.148,-178.817,-15.2921,179.231,1.88965,-145.305,732
1571222977,397.148,-178.817,-15.2921,179.231,1.88965,-145.305,732
1571222977,397.148,-178.817,-15.2921,179.231,1.88965,-145.305,728
1571222977,397.148,-178.817,-15.2921,179.231,1.88965,-145.305,728
1571222977,397.148,-178.817,-15.2921,179.231,1.91162,-145.305,728
1571222977,397.148,-178.817,-15.2921,179.231,1.91162,-145.283,728
1571222977,397.148,-178.817,-15.2921,179.231,1.91162,-145.283,728
1571222977,397.148,-178.817,-15.2921,179.231,1.91162,-145.283,728
1571222977,397.148,-178.817,-15.2921,179.231,1.91162,-145.283,728
1571222977,397.148,-178.817,-15.2921,179.231,1.91162,-145.305,728
1571222977,397.148,-178.817,-15.2921,179.253,1.91162,-145.305,728
1571222977,397.148,-178.817,-15.2921,179.253,1.91162,-145.305,728
1571222977,397.148,-178.817,-15.2921,179.253,1.91162,-145.305,728
1571222977,397.148,-178.705,-15.2921,179.253,1.91162,-145.305,728
1571222977,397.148,-178.705,-15.2921,179.253,1.91162,-145.305,728
1571222977,397.148,-178.705,-15.2921,179.253,1.91162,-145.305,728
1571222977,397.148,-178.705,-15.2921,179.253,1.91162,-145.305,728
1571222977,397.148,-178.705,-15.2921,179.275,1.91162,-145.305,732
1571222977,397.148,-178.705,-15.2921,179.275,1.91162,-145.305,732
1571222977,397.148,-178.705,-15.2921,179.275,1.91162,-145.305,732
1571222977,397.148,-178.705,-15.2921,179.275,1.91162,-145.305,732
1571222977,397.148,-178.705,-15.2921,179.275,1.91162,-145.305,732
1571222977,397.148,-178.705,-15.2921,179.275,1.91162,-145.305,732
1571222977,397.148,-178.594,-15.2921,179.275,1.91162,-145.305,732
1571222977,397.148,-178.594,-15.2921,179.275,1.91162,-145.305,732
1571222977,397.148,-178.594,-15.2921,179.297,1.91162,-145.305,732
1571222977,397.148,-178.594,-15.2921,179.297,1.91162,-145.305,732
1571222977,397.148,-178.594,-15.2921,179.297,1.91162,-145.305,736
1571222977,397.148,-178.594,-15.2921,179.297,1.91162,-145.305,736
1571222977,397.148,-178.594,-15.2921,179.297,1.91162,-145.305,736
1571222977,397.148,-178.594,-15.2921,179.297,1.91162,-145.305,736
1571222977,397.148,-178.594,-15.2921,179.297,1.91162,-145.305,736
1571222977,397.148,-178.594,-15.2921,179.297,1.91162,-145.305,736
1571222977,397.148,-178.594,-15.2921,179.319,1.91162,-145.305,736
1571222977,397.148,-178.594,-15.2921,179.319,1.91162,-145.305,736
1571222977,397.148,-178.482,-15.2921,179.319,1.91162,-145.305,732
1571222977,397.148,-178.482,-15.2921,179.319,1.91162,-145.305,732
1571222978,397.148,-178.482,-15.2921,179.319,1.91162,-145.305,732
1571222978,397.148,-178.482,-15.2921,179.319,1.91162,-145.305,732
1571222978,397.148,-178.482,-15.2921,179.319,1.91162,-145.305,732
1571222978,397.148,-178.482,-15.2921,179.319,1.91162,-145.305,728
1571222978,397.148,-178.482,-15.2921,179.319,1.91162,-145.305,728
1571222978,397.148,-178.482,-15.2921,179.341,1.91162,-145.305,728
1571222978,397.148,-178.482,-15.2921,179.341,1.91162,-145.305,728
1571222978,397.148,-178.482,-15.2921,179.319,1.91162,-145.327,728
1571222978,397.148,-178.482,-15.2921,179.319,1.91162,-145.327,724
1571222978,397.148,-178.482,-15.2921,179.319,1.91162,-145.327,724
1571222978,397.148,-178.594,-15.4037,179.319,1.88965,-145.327,724
1571222978,397.148,-178.594,-15.4037,179.319,1.88965,-145.327,724
1571222978,397.148,-178.594,-15.4037,179.319,1.88965,-145.327,724
1571222978,397.148,-178.594,-15.4037,179.319,1.88965,-145.327,724
1571222978,397.148,-178.594,-15.4037,179.319,1.88965,-145.327,724
1571222978,397.148,-178.594,-15.4037,179.319,1.88965,-145.327,724
1571222978,397.148,-178.594,-15.4037,179.319,1.88965,-145.327,728
1571222978,397.148,-178.594,-15.4037,179.319,1.88965,-145.327,728
1571222978,397.148,-178.594,-15.4037,179.319,1.88965,-145.327,728
1571222978,397.148,-178.594,-15.4037,179.319,1.86768,-145.327,732
1571222978,397.148,-178.482,-15.5153,179.319,1.86768,-145.327,732
1571222978,397.148,-178.482,-15.5153,179.319,1.86768,-145.327,732
1571222978,397.148,-178.482,-15.5153,179.319,1.86768,-145.327,736
1571222978,397.148,-178.482,-15.5153,179.319,1.86768,-145.305,736
1571222978,397.148,-178.482,-15.5153,179.319,1.86768,-145.305,736
1571222978,397.148,-178.482,-15.5153,179.319,1.86768,-145.305,740
1571222978,397.148,-178.482,-15.5153,179.319,1.8457,-145.305,740
1571222978,397.148,-178.482,-15.5153,179.319,1.8457,-145.305,740
1571222978,397.036,-178.482,-15.5153,179.319,1.8457,-145.305,744
1571222978,397.036,-178.482,-15.5153,179.319,1.8457,-145.305,744
1571222978,397.036,-178.482,-15.5153,179.319,1.8457,-145.327,744
1571222978,397.036,-178.482,-15.5153,179.319,1.8457,-145.327,748
1571222978,397.036,-178.482,-15.627,179.319,1.8457,-145.327,748
1571222978,397.036,-178.482,-15.627,179.319,1.8457,-145.327,748
1571222978,397.036,-178.482,-15.627,179.319,1.8457,-145.327,748
1571222978,397.036,-178.482,-15.627,179.319,1.8457,-145.327,752
1571222978,397.036,-178.482,-15.627,179.319,1.8457,-145.349,752
1571222978,397.036,-178.482,-15.627,179.319,1.8457,-145.349,752
1571222978,397.036,-178.482,-15.5153,179.319,1.8457,-145.349,752
1571222978,397.036,-178.482,-15.5153,179.319,1.8457,-145.349,752
1571222978,397.036,-178.482,-15.5153,179.319,1.8457,-145.349,752
1571222978,397.036,-178.482,-15.5153,179.319,1.8457,-145.349,752
1571222978,397.036,-178.482,-15.5153,179.319,1.8457,-145.349,752
1571222978,397.036,-178.482,-15.5153,179.319,1.8457,-145.349,752
1571222978,397.036,-178.482,-15.5153,179.319,1.8457,-145.349,752
1571222978,397.036,-178.482,-15.5153,179.319,1.8457,-145.327,752
1571222978,397.036,-178.482,-15.5153,179.319,1.8457,-145.327,752
1571222978,397.036,-178.482,-15.5153,179.319,1.8457,-145.327,752
1571222978,397.036,-178.482,-15.5153,179.297,1.8457,-145.327,752
1571222978,397.036,-178.482,-15.5153,179.297,1.8457,-145.327,752
1571222978,397.036,-178.482,-15.5153,179.297,1.8457,-145.305,752
1571222978,397.036,-178.482,-15.5153,179.297,1.8457,-145.305,756
1571222978,397.036,-178.482,-15.5153,179.297,1.8457,-145.305,756
1571222978,397.036,-178.594,-15.5153,179.297,1.8457,-145.305,756
1571222978,397.036,-178.594,-15.5153,179.297,1.8457,-145.305,760
1571222978,397.036,-178.594,-15.5153,179.275,1.8457,-145.305,760
1571222978,397.036,-178.594,-15.5153,179.275,1.8457,-145.305,760
1571222978,397.036,-178.594,-15.5153,179.275,1.8457,-145.305,764
1571222978,397.036,-178.594,-15.5153,179.275,1.86768,-145.305,764
1571222978,397.148,-178.594,-15.5153,179.275,1.86768,-145.305,764
1571222978,397.148,-178.594,-15.4037,179.275,1.86768,-145.305,768
1571222978,397.148,-178.594,-15.4037,179.275,1.86768,-145.305,768
1571222978,397.148,-178.594,-15.4037,179.275,1.86768,-145.305,768
1571222978,397.148,-178.594,-15.4037,179.275,1.86768,-145.305,768
1571222978,397.148,-178.594,-15.4037,179.275,1.86768,-145.305,768
1571222978,397.148,-178.594,-15.4037,179.275,1.86768,-145.305,772
1571222978,397.148,-178.594,-15.4037,179.275,1.86768,-145.305,772
1571222978,397.148,-178.594,-15.4037,179.275,1.86768,-145.305,772
1571222978,397.148,-178.594,-15.4037,179.275,1.86768,-145.327,772
1571222978,397.148,-178.594,-15.4037,179.297,1.86768,-145.327,772
1571222978,397.148,-178.482,-15.4037,179.297,1.86768,-145.327,772
1571222978,397.148,-178.482,-15.4037,179.297,1.86768,-145.327,772
1571222978,397.148,-178.482,-15.5153,179.297,1.86768,-145.327,772
1571222978,397.148,-178.594,-15.5153,179.275,1.86768,-145.327,772
1571222978,397.148,-178.594,-15.5153,179.275,1.8457,-145.327,772
1571222978,397.148,-178.594,-15.5153,179.297,1.8457,-145.327,772
1571222978,397.148,-178.594,-15.5153,179.297,1.86768,-145.327,772
1571222978,397.148,-178.594,-15.5153,179.297,1.86768,-145.327,772
1571222978,397.036,-178.482,-15.5153,179.297,1.86768,-145.327,768
1571222978,397.036,-178.482,-15.5153,179.297,1.86768,-145.327,768
1571222978,397.036,-178.482,-15.5153,179.297,1.86768,-145.327,768
1571222978,397.148,-178.482,-15.5153,179.297,1.86768,-145.327,768
1571222978,397.148,-178.482,-15.5153,179.297,1.86768,-145.327,768
1571222978,397.148,-178.482,-15.5153,179.297,1.86768,-145.349,768
1571222978,397.148,-178.482,-15.5153,179.297,1.86768,-145.349,768
1571222978,397.148,-178.482,-15.5153,179.297,1.86768,-145.349,768
1571222978,397.148,-178.482,-15.5153,179.297,1.86768,-145.349,768
1571222978,397.148,-178.482,-15.5153,179.297,1.86768,-145.349,768
1571222978,397.148,-178.482,-15.5153,179.297,1.86768,-145.349,768
1571222978,397.148,-178.482,-15.5153,179.319,1.86768,-145.349,768
1571222978,397.148,-178.482,-15.5153,179.319,1.86768,-145.349,768
1571222978,397.148,-178.482,-15.5153,179.297,1.86768,-145.349,768
1571222978,397.148,-178.482,-15.5153,179.297,1.86768,-145.327,768
1571222978,397.148,-178.482,-15.5153,179.297,1.86768,-145.327,768
1571222978,397.148,-178.482,-15.5153,179.297,1.86768,-145.327,768
1571222978,397.148,-178.482,-15.5153,179.297,1.86768,-145.327,768
1571222978,397.148,-178.482,-15.5153,179.297,1.86768,-145.327,768
1571222978,397.148,-178.482,-15.5153,179.297,1.86768,-145.327,768
1571222978,397.148,-178.482,-15.5153,179.297,1.86768,-145.327,768
1571222978,397.148,-178.482,-15.5153,179.319,1.86768,-145.349,768
1571222979,397.148,-178.482,-15.5153,179.319,1.86768,-145.349,768
1571222979,397.148,-178.482,-15.5153,179.319,1.86768,-145.349,768
1571222979,397.148,-178.482,-15.5153,179.319,1.86768,-145.349,768
1571222979,397.148,-178.482,-15.5153,179.319,1.86768,-145.349,768
1571222979,397.148,-178.482,-15.5153,179.319,1.86768,-145.349,764
1571222979,397.148,-178.482,-15.5153,179.319,1.86768,-145.327,764
1571222979,397.148,-178.482,-15.5153,179.319,1.86768,-145.327,764
1571222979,397.148,-178.482,-15.4037,179.319,1.86768,-145.327,764
1571222979,397.148,-178.482,-15.4037,179.319,1.88965,-145.327,764
1571222979,397.148,-178.482,-15.4037,179.319,1.88965,-145.327,764
1571222979,397.148,-178.482,-15.4037,179.319,1.88965,-145.327,760
1571222979,397.148,-178.594,-15.4037,179.319,1.88965,-145.327,760
1571222979,397.148,-178.594,-15.4037,179.319,1.88965,-145.327,760
1571222979,397.148,-178.594,-15.4037,179.319,1.88965,-145.327,756
1571222979,397.148,-178.594,-15.4037,179.319,1.88965,-145.327,756
1571222979,397.259,-178.594,-15.4037,179.319,1.88965,-145.327,752
1571222979,397.259,-178.594,-15.2921,179.319,1.91162,-145.327,752
1571222979,397.259,-178.594,-15.2921,179.297,1.91162,-145.327,752
1571222979,397.259,-178.594,-15.2921,179.297,1.91162,-145.327,748
1571222979,397.259,-178.594,-15.2921,179.297,1.91162,-145.327,748
1571222979,397.259,-178.594,-15.2921,179.297,1.91162,-145.327,744
1571222979,397.259,-178.594,-15.2921,179.297,1.91162,-145.327,744
1571222979,397.259,-178.594,-15.2921,179.297,1.91162,-145.327,740
1571222979,397.259,-178.594,-15.2921,179.297,1.91162,-145.327,740
1571222979,397.259,-178.705,-15.2921,179.297,1.91162,-145.327,740
1571222979,397.259,-178.705,-15.2921,179.297,1.91162,-145.327,736
1571222979,397.148,-178.705,-15.2921,179.297,1.91162,-145.327,736
1571222979,397.148,-178.705,-15.2921,179.275,1.91162,-145.327,736
1571222979,397.148,-178.705,-15.2921,179.275,1.91162,-145.327,736
1571222979,397.148,-178.705,-15.2921,179.275,1.91162,-145.327,736
1571222979,397.148,-178.705,-15.2921,179.275,1.91162,-145.327,736
1571222979,397.148,-178.705,-15.2921,179.275,1.91162,-145.327,736
1571222979,397.148,-178.705,-15.2921,179.275,1.91162,-145.327,736
1571222979,397.148,-178.705,-15.2921,179.275,1.91162,-145.327,736
1571222979,397.036,-178.705,-15.2921,179.275,1.91162,-145.327,736
1571222979,397.036,-178.705,-15.2921,179.275,1.91162,-145.327,736
1571222979,397.148,-178.705,-15.2921,179.275,1.88965,-145.327,736
1571222979,397.148,-178.705,-15.4037,179.275,1.88965,-145.327,736
1571222979,397.148,-178.705,-15.4037,179.275,1.88965,-145.327,736
1571222979,397.148,-178.705,-15.4037,179.275,1.88965,-145.327,736
1571222979,397.148,-178.705,-15.4037,179.275,1.88965,-145.327,736
1571222979,397.148,-178.705,-15.4037,179.275,1.86768,-145.327,736
1571222979,397.148,-178.705,-15.4037,179.275,1.86768,-145.327,736
1571222979,397.148,-178.594,-15.4037,179.275,1.86768,-145.327,736
1571222979,397.148,-178.594,-15.4037,179.297,1.86768,-145.327,736
1571222979,397.148,-178.594,-15.4037,179.297,1.86768,-145.305,736
1571222979,397.148,-178.594,-15.4037,179.297,1.86768,-145.305,736
1571222979,397.148,-178.594,-15.4037,179.297,1.86768,-145.305,736
1571222979,397.148,-178.594,-15.4037,179.297,1.86768,-145.305,736
1571222979,397.148,-178.594,-15.4037,179.297,1.86768,-145.305,736
1571222979,397.148,-178.594,-15.4037,179.297,1.86768,-145.305,740
1571222979,397.148,-178.594,-15.4037,179.297,1.86768,-145.305,740
1571222979,397.148,-178.594,-15.4037,179.297,1.88965,-145.305,740
1571222979,397.036,-178.594,-15.4037,179.297,1.88965,-145.305,740
1571222979,397.036,-178.594,-15.4037,179.297,1.88965,-145.305,740
