time,x,y,z,ax,ay,az,q
1569933663,322.138,-52.7968,-14.5107,178.594,2.37305,-144.976,356
1569933663,322.138,-52.7968,-14.5107,178.594,2.37305,-144.976,356
1569933663,322.138,-52.7968,-14.5107,178.594,2.37305,-144.976,356
1569933663,322.138,-52.6852,-14.5107,178.594,2.37305,-144.976,356
1569933663,322.138,-52.6852,-14.5107,178.594,2.37305,-144.976,356
1569933663,322.138,-52.6852,-14.5107,178.594,2.37305,-144.976,352
1569933663,322.138,-52.6852,-14.5107,178.594,2.37305,-144.976,352
1569933663,322.138,-52.6852,-14.5107,178.594,2.37305,-144.976,352
1569933663,322.138,-52.6852,-14.5107,178.594,2.37305,-144.976,352
1569933663,322.138,-52.6852,-14.5107,178.594,2.37305,-144.976,352
1569933663,322.138,-52.6852,-14.5107,178.594,2.37305,-144.976,352
1569933663,322.138,-52.7968,-14.5107,178.594,2.37305,-144.976,352
1569933663,322.138,-52.7968,-14.5107,178.594,2.37305,-144.976,352
1569933663,322.138,-52.7968,-14.5107,178.594,2.37305,-144.976,352
1569933663,322.138,-52.7968,-14.5107,178.594,2.37305,-144.976,352
1569933663,322.138,-52.7968,-14.5107,178.594,2.37305,-144.976,352
1569933663,322.138,-52.7968,-14.5107,178.594,2.37305,-144.976,352
1569933663,322.138,-52.7968,-14.5107,178.594,2.37305,-144.976,352
1569933663,322.138,-52.7968,-14.5107,178.594,2.37305,-144.976,348
1569933663,322.138,-52.7968,-14.5107,178.594,2.37305,-144.976,348
1569933663,322.138,-52.7968,-14.5107,178.594,2.37305,-144.976,348
1569933663,322.138,-52.7968,-14.5107,178.594,2.37305,-144.976,348
1569933663,322.138,-52.7968,-14.5107,178.594,2.37305,-144.976,348
1569933663,322.138,-52.7968,-14.5107,178.594,2.37305,-144.976,348
1569933663,322.138,-52.7968,-14.5107,178.594,2.37305,-144.976,348
1569933663,322.138,-52.7968,-14.5107,178.594,2.37305,-144.976,348
1569933663,322.138,-52.7968,-14.5107,178.594,2.37305,-144.976,348
1569933663,322.138,-52.7968,-14.5107,178.594,2.37305,-144.976,348
1569933663,322.138,-52.7968,-14.5107,178.594,2.37305,-144.976,348
1569933663,322.138,-52.7968,-14.5107,178.594,2.37305,-144.976,348
1569933663,322.138,-52.7968,-14.5107,178.594,2.37305,-144.976,348
1569933663,322.138,-52.7968,-14.5107,178.594,2.37305,-144.976,348
1569933663,322.138,-52.7968,-14.5107,178.594,2.37305,-144.976,348
1569933663,322.138,-52.7968,-14.5107,178.594,2.37305,-144.976,348
1569933663,322.138,-52.7968,-14.5107,178.594,2.37305,-144.976,348
1569933663,322.138,-52.7968,-14.5107,178.594,2.37305,-144.976,348
1569933663,322.138,-52.7968,-14.5107,178.594,2.37305,-144.976,348
1569933663,322.138,-52.7968,-14.5107,178.594,2.39502,-144.976,348
1569933663,322.138,-52.7968,-14.5107,178.594,2.39502,-144.976,348
1569933663,322.138,-52.7968,-14.5107,178.594,2.39502,-144.976,348
1569933663,322.138,-52.6852,-14.5107,178.594,2.39502,-144.976,348
1569933663,322.138,-52.6852,-14.5107,178.594,2.39502,-144.976,348
1569933663,322.138,-52.6852,-14.5107,178.594,2.39502,-144.976,348
1569933663,322.138,-52.7968,-14.5107,178.594,2.39502,-144.976,344
1569933663,322.138,-52.7968,-14.3991,178.594,2.39502,-144.976,344
1569933663,322.138,-52.7968,-14.3991,178.594,2.39502,-144.976,344
1569933663,322.138,-52.7968,-14.3991,178.594,2.39502,-144.976,344
1569933663,322.138,-52.7968,-14.3991,178.594,2.39502,-144.976,344
1569933663,322.138,-52.7968,-14.3991,178.594,2.39502,-144.976,344
1569933663,322.138,-52.7968,-14.3991,178.594,2.39502,-144.976,344
1569933663,322.138,-52.7968,-14.3991,178.594,2.39502,-144.976,344
1569933663,322.138,-52.7968,-14.3991,178.594,2.39502,-144.976,344
1569933663,322.138,-52.7968,-14.3991,178.594,2.39502,-144.976,344
1569933663,322.138,-52.7968,-14.3991,178.594,2.39502,-144.976,344
1569933663,322.138,-52.7968,-14.3991,178.594,2.39502,-144.976,344
1569933663,322.138,-52.7968,-14.3991,178.594,2.39502,-144.976,344
1569933663,322.138,-52.7968,-14.3991,178.594,2.39502,-144.976,344
1569933663,322.138,-52.7968,-14.3991,178.594,2.39502,-144.998,344
1569933663,322.138,-52.6852,-14.3991,178.594,2.39502,-144.998,344
1569933663,322.138,-52.6852,-14.3991,178.594,2.39502,-144.998,344
1569933663,322.138,-52.6852,-14.3991,178.594,2.39502,-144.998,344
1569933663,322.138,-52.6852,-14.3991,178.594,2.39502,-144.998,344
1569933663,322.138,-52.6852,-14.3991,178.594,2.39502,-144.998,344
1569933663,322.138,-52.6852,-14.3991,178.594,2.39502,-144.998,344
1569933663,322.138,-52.7968,-14.3991,178.594,2.39502,-144.976,344
1569933663,322.138,-52.7968,-14.3991,178.594,2.39502,-144.976,344
1569933663,322.138,-52.7968,-14.3991,178.594,2.39502,-144.976,344
1569933663,322.138,-52.7968,-14.3991,178.594,2.39502,-144.976,348
1569933663,322.138,-52.7968,-14.3991,178.594,2.39502,-144.976,348
1569933663,322.138,-52.7968,-14.3991,178.594,2.39502,-144.976,348
1569933663,322.138,-52.7968,-14.3991,178.594,2.39502,-144.976,348
1569933663,322.138,-52.7968,-14.3991,178.594,2.39502,-144.976,348
1569933663,322.138,-52.7968,-14.3991,178.594,2.39502,-144.976,348
1569933663,322.138,-52.7968,-14.3991,178.594,2.39502,-144.976,348
1569933663,322.138,-52.7968,-14.3991,178.594,2.39502,-144.976,348
1569933663,322.138,-52.7968,-14.3991,178.594,2.39502,-144.976,348
1569933663,322.138,-52.7968,-14.3991,178.594,2.39502,-144.976,348
1569933663,322.138,-52.6852,-14.3991,178.594,2.39502,-144.976,348
1569933664,322.138,-52.6852,-14.3991,178.594,2.39502,-144.976,348
1569933664,322.138,-52.6852,-14.3991,178.594,2.39502,-144.976,348
1569933664,322.138,-52.6852,-14.3991,178.594,2.39502,-144.976,348
1569933664,322.138,-52.6852,-14.3991,178.594,2.39502,-144.976,348
1569933664,322.138,-52.6852,-14.3991,178.616,2.39502,-144.976,352
1569933664,322.138,-52.6852,-14.3991,178.616,2.39502,-144.976,352
1569933664,322.138,-52.6852,-14.3991,178.616,2.39502,-144.976,352
1569933664,322.138,-52.6852,-14.3991,178.616,2.39502,-144.976,352
1569933664,322.138,-52.6852,-14.3991,178.616,2.39502,-144.976,352
1569933664,322.138,-52.6852,-14.3991,178.616,2.39502,-144.976,352
1569933664,322.138,-52.6852,-14.3991,178.616,2.39502,-144.976,352
1569933664,322.138,-52.6852,-14.3991,178.616,2.39502,-144.976,352
1569933664,322.138,-52.6852,-14.3991,178.616,2.39502,-144.976,352
1569933664,322.138,-52.6852,-14.3991,178.616,2.39502,-144.976,352
1569933664,322.138,-52.6852,-14.3991,178.616,2.39502,-144.976,352
1569933664,322.138,-52.6852,-14.3991,178.616,2.39502,-144.976,352
1569933664,322.138,-52.6852,-14.3991,178.616,2.39502,-144.976,352
1569933664,322.138,-52.6852,-14.3991,178.616,2.39502,-144.976,352
1569933664,322.138,-52.6852,-14.3991,178.616,2.39502,-144.976,352
1569933664,322.138,-52.6852,-14.3991,178.616,2.39502,-144.976,352
1569933664,322.138,-52.6852,-14.3991,178.616,2.39502,-144.976,352
1569933664,322.138,-52.6852,-14.3991,178.616,2.39502,-144.976,352
1569933664,322.138,-52.6852,-14.3991,178.616,2.39502,-144.976,352
1569933664,322.138,-52.6852,-14.3991,178.616,2.39502,-144.976,352
1569933664,322.138,-52.6852,-14.3991,178.616,2.39502,-144.976,352
1569933664,322.138,-52.6852,-14.3991,178.616,2.39502,-144.976,352
1569933664,322.138,-52.6852,-14.3991,178.616,2.39502,-144.976,352
1569933664,322.138,-52.6852,-14.3991,178.616,2.39502,-144.976,352
1569933664,322.138,-52.6852,-14.3991,178.616,2.39502,-144.976,352
1569933664,322.138,-52.6852,-14.3991,178.616,2.39502,-144.976,352
1569933664,322.138,-52.6852,-14.3991,178.616,2.39502,-144.976,352
1569933664,322.138,-52.6852,-14.3991,178.616,2.39502,-144.976,352
1569933664,322.138,-52.6852,-14.3991,178.616,2.39502,-144.976,352
1569933664,322.138,-52.6852,-14.3991,178.616,2.39502,-144.976,352
1569933664,322.138,-52.6852,-14.3991,178.616,2.39502,-144.976,352
1569933664,322.138,-52.6852,-14.3991,178.616,2.39502,-144.976,352
1569933664,322.138,-52.6852,-14.3991,178.616,2.39502,-144.976,352
1569933664,322.138,-52.6852,-14.3991,178.616,2.39502,-144.976,352
1569933664,322.138,-52.6852,-14.3991,178.616,2.39502,-144.976,352
1569933664,322.138,-52.6852,-14.3991,178.616,2.39502,-144.976,352
1569933664,322.138,-52.6852,-14.3991,178.616,2.39502,-144.976,352
1569933664,322.138,-52.6852,-14.3991,178.616,2.39502,-144.976,352
1569933664,322.138,-52.6852,-14.3991,178.616,2.39502,-144.976,352
1569933664,322.138,-52.6852,-14.3991,178.616,2.39502,-144.976,352
1569933664,322.138,-52.6852,-14.3991,178.616,2.39502,-144.976,352
1569933664,322.138,-52.6852,-14.3991,178.616,2.39502,-144.976,352
1569933664,322.138,-52.6852,-14.3991,178.616,2.39502,-144.976,352
1569933664,322.138,-52.6852,-14.3991,178.616,2.39502,-144.976,352
1569933664,322.138,-52.6852,-14.3991,178.616,2.39502,-144.976,352
1569933664,322.138,-52.6852,-14.3991,178.616,2.39502,-144.998,352
1569933664,322.138,-52.6852,-14.3991,178.616,2.39502,-144.998,352
1569933664,322.138,-52.6852,-14.3991,178.616,2.39502,-144.998,352
1569933664,322.138,-52.6852,-14.5107,178.616,2.39502,-144.998,352
1569933664,322.138,-52.6852,-14.5107,178.616,2.39502,-144.998,356
1569933664,322.138,-52.6852,-14.5107,178.616,2.37305,-144.998,356
1569933664,322.138,-52.6852,-14.5107,178.616,2.37305,-144.998,356
1569933664,322.138,-52.6852,-14.5107,178.616,2.37305,-144.998,356
1569933664,322.138,-52.6852,-14.3991,178.616,2.37305,-144.998,356
1569933664,322.138,-52.6852,-14.3991,178.616,2.39502,-144.998,356
1569933664,322.138,-52.6852,-14.3991,178.616,2.39502,-144.998,356
1569933664,322.138,-52.6852,-14.3991,178.616,2.39502,-144.998,356
1569933664,322.138,-52.6852,-14.3991,178.616,2.39502,-144.998,356
1569933664,322.138,-52.6852,-14.3991,178.616,2.39502,-144.998,356
1569933664,322.138,-52.6852,-14.3991,178.616,2.39502,-144.998,356
1569933664,322.138,-52.6852,-14.3991,178.616,2.39502,-144.976,356
1569933664,322.138,-52.6852,-14.3991,178.616,2.39502,-144.976,356
1569933664,322.138,-52.6852,-14.3991,178.616,2.39502,-144.976,356
1569933664,322.138,-52.6852,-14.3991,178.616,2.39502,-144.976,356
1569933664,322.138,-52.6852,-14.3991,178.616,2.39502,-144.976,356
1569933664,322.138,-52.6852,-14.3991,178.616,2.39502,-144.976,356
1569933664,322.138,-52.6852,-14.3991,178.616,2.39502,-144.976,356
1569933664,322.138,-52.6852,-14.3991,178.616,2.39502,-144.976,356
1569933664,322.138,-52.6852,-14.3991,178.616,2.39502,-144.976,352
1569933664,322.138,-52.6852,-14.3991,178.616,2.39502,-144.976,352
1569933664,322.138,-52.6852,-14.3991,178.616,2.39502,-144.976,352
1569933664,322.138,-52.6852,-14.3991,178.616,2.39502,-144.976,352
1569933664,322.138,-52.6852,-14.3991,178.616,2.39502,-144.976,352
1569933664,322.138,-52.6852,-14.3991,178.616,2.39502,-144.976,352
1569933664,322.138,-52.6852,-14.3991,178.594,2.37305,-144.976,352
1569933664,322.138,-52.6852,-14.5107,178.594,2.37305,-144.976,348
1569933664,322.138,-52.6852,-14.5107,178.594,2.37305,-144.976,348
1569933664,322.138,-52.6852,-14.5107,178.594,2.37305,-144.976,348
1569933664,322.138,-52.6852,-14.5107,178.594,2.37305,-144.976,348
1569933664,322.138,-52.6852,-14.5107,178.594,2.37305,-144.976,348
1569933664,322.138,-52.6852,-14.5107,178.594,2.37305,-144.976,348
1569933664,322.138,-52.6852,-14.5107,178.594,2.37305,-144.976,344
1569933664,322.138,-52.6852,-14.5107,178.594,2.37305,-144.976,344
1569933664,322.138,-52.6852,-14.5107,178.594,2.37305,-144.976,344
1569933664,322.138,-52.6852,-14.5107,178.594,2.39502,-144.976,344
1569933664,322.138,-52.6852,-14.5107,178.594,2.39502,-144.976,344
1569933664,322.138,-52.6852,-14.3991,178.594,2.39502,-144.976,340
1569933664,322.138,-52.6852,-14.3991,178.594,2.39502,-144.976,340
1569933664,322.138,-52.6852,-14.3991,178.594,2.39502,-144.976,340
1569933664,322.138,-52.6852,-14.3991,178.594,2.39502,-144.976,340
1569933664,322.138,-52.6852,-14.3991,178.594,2.39502,-144.976,340
1569933664,322.138,-52.6852,-14.3991,178.594,2.39502,-144.976,340
1569933664,322.138,-52.6852,-14.3991,178.594,2.39502,-144.976,340
1569933664,322.138,-52.6852,-14.3991,178.594,2.39502,-144.976,340
1569933664,322.138,-52.6852,-14.3991,178.594,2.39502,-144.976,340
1569933664,322.138,-52.6852,-14.3991,178.594,2.39502,-144.976,340
1569933665,322.138,-52.6852,-14.3991,178.616,2.39502,-144.976,340
1569933665,322.138,-52.6852,-14.3991,178.616,2.39502,-144.976,340
1569933665,322.138,-52.6852,-14.3991,178.616,2.39502,-144.976,340
1569933665,322.138,-52.6852,-14.3991,178.616,2.39502,-144.976,340
1569933665,322.138,-52.6852,-14.3991,178.616,2.39502,-144.976,340
1569933665,322.138,-52.6852,-14.3991,178.616,2.39502,-144.976,340
1569933665,322.138,-52.6852,-14.3991,178.616,2.39502,-144.976,340
1569933665,322.138,-52.6852,-14.3991,178.616,2.39502,-144.976,340
1569933665,322.138,-52.6852,-14.5107,178.616,2.39502,-144.976,340
1569933665,322.138,-52.6852,-14.5107,178.616,2.37305,-144.976,344
1569933665,322.138,-52.6852,-14.5107,178.616,2.37305,-144.976,344
1569933665,322.138,-52.6852,-14.5107,178.616,2.37305,-144.998,344
1569933665,322.138,-52.6852,-14.5107,178.616,2.37305,-144.998,344
1569933665,322.138,-52.6852,-14.5107,178.616,2.37305,-144.998,344
1569933665,322.138,-52.6852,-14.5107,178.616,2.37305,-144.998,344
1569933665,322.138,-52.6852,-14.5107,178.616,2.37305,-144.998,344
1569933665,322.138,-52.6852,-14.5107,178.594,2.37305,-144.998,344
1569933665,322.138,-52.6852,-14.5107,178.594,2.37305,-144.998,344
1569933665,322.138,-52.6852,-14.5107,178.594,2.37305,-144.998,344
1569933665,322.138,-52.6852,-14.5107,178.594,2.37305,-144.998,344
1569933665,322.138,-52.6852,-14.5107,178.594,2.37305,-144.998,344
1569933665,322.138,-52.6852,-14.5107,178.594,2.37305,-144.998,344
1569933665,322.138,-52.6852,-14.5107,178.594,2.37305,-144.976,344
1569933665,322.138,-52.6852,-14.5107,178.594,2.37305,-144.976,344
1569933665,322.138,-52.7968,-14.5107,178.594,2.37305,-144.976,344
1569933665,322.138,-52.7968,-14.5107,178.594,2.37305,-144.976,344
1569933665,322.138,-52.7968,-14.5107,178.594,2.37305,-144.976,344
1569933665,322.138,-52.7968,-14.5107,178.594,2.37305,-144.976,344
1569933665,322.138,-52.7968,-14.5107,178.594,2.37305,-144.976,344
1569933665,322.138,-52.7968,-14.5107,178.594,2.37305,-144.976,344
1569933665,322.138,-52.7968,-14.5107,178.594,2.37305,-144.976,344
1569933665,322.138,-52.7968,-14.5107,178.594,2.37305,-144.976,344
1569933665,322.138,-52.7968,-14.5107,178.572,2.37305,-144.976,344
1569933665,322.138,-52.7968,-14.5107,178.572,2.37305,-144.976,344
1569933665,322.138,-52.7968,-14.5107,178.572,2.37305,-144.976,344
1569933665,322.138,-52.7968,-14.5107,178.572,2.37305,-144.976,344
1569933665,322.138,-52.7968,-14.5107,178.572,2.37305,-144.976,344
1569933665,322.138,-52.7968,-14.5107,178.572,2.37305,-144.976,344
1569933665,322.138,-52.7968,-14.5107,178.572,2.37305,-144.976,344
1569933665,322.138,-52.7968,-14.5107,178.572,2.37305,-144.976,344
1569933665,322.138,-52.7968,-14.5107,178.572,2.37305,-144.976,344
1569933665,322.138,-52.7968,-14.5107,178.572,2.37305,-144.976,344
1569933665,322.138,-52.7968,-14.5107,178.572,2.37305,-144.976,344
1569933665,322.138,-52.7968,-14.5107,178.572,2.39502,-144.976,344
1569933665,322.138,-52.7968,-14.5107,178.572,2.39502,-144.976,344
1569933665,322.138,-52.7968,-14.3991,178.572,2.39502,-144.976,344
1569933665,322.138,-52.7968,-14.3991,178.572,2.39502,-144.976,344
1569933665,322.138,-52.7968,-14.3991,178.572,2.39502,-144.976,344
1569933665,322.138,-52.7968,-14.3991,178.572,2.39502,-144.976,344
1569933665,322.138,-52.7968,-14.5107,178.572,2.39502,-144.976,344
1569933665,322.138,-52.7968,-14.5107,178.594,2.39502,-144.976,344
1569933665,322.138,-52.7968,-14.5107,178.594,2.39502,-144.976,344
1569933665,322.138,-52.7968,-14.5107,178.594,2.39502,-144.976,344
1569933665,322.138,-52.7968,-14.5107,178.594,2.39502,-144.976,344
1569933665,322.138,-52.7968,-14.5107,178.594,2.39502,-144.976,344
1569933665,322.138,-52.7968,-14.5107,178.594,2.39502,-144.976,344
1569933665,322.138,-52.7968,-14.5107,178.594,2.39502,-144.976,344
1569933665,322.138,-52.7968,-14.5107,178.594,2.39502,-144.976,344
1569933665,322.138,-52.7968,-14.5107,178.594,2.39502,-144.976,344
1569933665,322.138,-52.7968,-14.5107,178.594,2.39502,-144.976,344
1569933665,322.138,-52.7968,-14.5107,178.594,2.39502,-144.976,344
1569933665,322.138,-52.7968,-14.5107,178.594,2.39502,-144.976,344
1569933665,322.138,-52.7968,-14.5107,178.594,2.39502,-144.976,348
1569933665,322.138,-52.7968,-14.5107,178.594,2.39502,-144.976,348
1569933665,322.138,-52.7968,-14.5107,178.594,2.39502,-144.976,348
1569933665,322.138,-52.7968,-14.3991,178.594,2.39502,-144.976,348
1569933665,322.138,-52.7968,-14.3991,178.594,2.39502,-144.976,348
1569933665,322.138,-52.7968,-14.3991,178.594,2.39502,-144.976,348
1569933665,322.138,-52.7968,-14.3991,178.594,2.39502,-144.976,352
1569933665,322.138,-52.7968,-14.3991,178.572,2.39502,-144.976,352
1569933665,322.138,-52.7968,-14.3991,178.572,2.39502,-144.976,352
1569933665,322.138,-52.7968,-14.3991,178.572,2.39502,-144.976,352
1569933665,322.138,-52.7968,-14.5107,178.572,2.39502,-144.976,352
1569933665,322.138,-52.7968,-14.5107,178.572,2.39502,-144.976,352
1569933665,322.138,-52.7968,-14.5107,178.572,2.39502,-144.976,352
1569933665,322.138,-52.7968,-14.5107,178.572,2.39502,-144.976,352
1569933665,322.138,-52.7968,-14.5107,178.572,2.39502,-144.976,352
1569933665,322.138,-52.7968,-14.5107,178.572,2.39502,-144.976,352
1569933665,322.138,-52.7968,-14.5107,178.572,2.39502,-144.976,352
1569933665,322.138,-52.7968,-14.5107,178.572,2.39502,-144.976,352
1569933665,322.138,-52.7968,-14.5107,178.572,2.39502,-144.976,352
1569933665,322.138,-52.7968,-14.5107,178.572,2.39502,-144.976,352
1569933665,322.138,-52.7968,-14.5107,178.572,2.39502,-144.976,352
1569933665,322.138,-52.7968,-14.5107,178.572,2.39502,-144.976,356
1569933665,322.138,-52.7968,-14.5107,178.572,2.39502,-144.976,356
1569933665,322.138,-52.7968,-14.5107,178.572,2.39502,-144.976,356
1569933665,322.138,-52.7968,-14.5107,178.572,2.39502,-144.976,356
1569933665,322.138,-52.7968,-14.5107,178.594,2.39502,-144.976,356
1569933665,322.138,-52.7968,-14.5107,178.594,2.39502,-144.976,352
1569933665,322.138,-52.7968,-14.5107,178.594,2.39502,-144.976,352
1569933665,322.138,-52.7968,-14.5107,178.594,2.39502,-144.976,352
1569933665,322.138,-52.7968,-14.5107,178.594,2.39502,-144.976,352
1569933665,322.138,-52.7968,-14.5107,178.594,2.39502,-144.976,352
1569933665,322.138,-52.6852,-14.5107,178.594,2.39502,-144.976,352
1569933665,322.138,-52.6852,-14.5107,178.594,2.39502,-144.976,352
1569933665,322.138,-52.6852,-14.5107,178.594,2.39502,-144.976,352
1569933665,322.138,-52.6852,-14.5107,178.594,2.39502,-144.976,352
1569933665,322.138,-52.6852,-14.5107,178.594,2.39502,-144.976,352
1569933665,322.138,-52.6852,-14.5107,178.594,2.39502,-144.976,352
1569933665,322.138,-52.6852,-14.5107,178.594,2.39502,-144.976,352
1569933666,322.138,-52.6852,-14.5107,178.594,2.39502,-144.976,352
1569933666,322.138,-52.6852,-14.5107,178.594,2.39502,-144.976,352
1569933666,322.138,-52.6852,-14.5107,178.594,2.39502,-144.976,352
1569933666,322.138,-52.6852,-14.5107,178.594,2.39502,-144.976,352
1569933666,322.138,-52.6852,-14.5107,178.594,2.39502,-144.976,352
1569933666,322.138,-52.6852,-14.5107,178.616,2.39502,-144.976,352
1569933666,322.138,-52.6852,-14.5107,178.616,2.39502,-144.976,352
1569933666,322.138,-52.6852,-14.5107,178.616,2.39502,-144.976,352
1569933666,322.138,-52.6852,-14.3991,178.616,2.39502,-144.976,352
1569933666,322.138,-52.6852,-14.3991,178.616,2.39502,-144.976,352
1569933666,322.138,-52.6852,-14.3991,178.616,2.39502,-144.976,352
1569933666,322.138,-52.6852,-14.3991,178.616,2.39502,-144.976,352
1569933666,322.138,-52.6852,-14.3991,178.616,2.39502,-144.976,352
1569933666,322.138,-52.6852,-14.3991,178.616,2.39502,-144.976,352
1569933666,322.138,-52.6852,-14.3991,178.616,2.39502,-144.976,352
1569933666,322.138,-52.6852,-14.3991,178.616,2.39502,-144.976,352
1569933666,322.138,-52.6852,-14.3991,178.616,2.39502,-144.976,352
1569933666,322.138,-52.6852,-14.3991,178.616,2.39502,-144.976,352
1569933666,322.138,-52.6852,-14.3991,178.616,2.39502,-144.976,352
1569933666,322.138,-52.6852,-14.3991,178.616,2.39502,-144.976,352
1569933666,322.138,-52.6852,-14.3991,178.616,2.39502,-144.976,352
1569933666,322.138,-52.6852,-14.3991,178.616,2.39502,-144.976,352
1569933666,322.138,-52.6852,-14.3991,178.616,2.39502,-144.976,352
1569933666,322.138,-52.6852,-14.3991,178.616,2.39502,-144.976,352
1569933666,322.138,-52.6852,-14.3991,178.616,2.39502,-144.976,352
1569933666,322.138,-52.6852,-14.3991,178.616,2.39502,-144.976,352
1569933666,322.138,-52.6852,-14.3991,178.616,2.39502,-144.976,352
1569933666,322.138,-52.6852,-14.3991,178.616,2.39502,-144.976,352
1569933666,322.138,-52.6852,-14.3991,178.616,2.39502,-144.976,352
1569933666,322.138,-52.6852,-14.3991,178.616,2.39502,-144.976,352
1569933666,322.138,-52.6852,-14.3991,178.616,2.39502,-144.976,348
1569933666,322.138,-52.6852,-14.3991,178.616,2.39502,-144.976,348
1569933666,322.138,-52.6852,-14.3991,178.616,2.39502,-144.976,348
1569933666,322.138,-52.6852,-14.3991,178.616,2.39502,-144.976,348
1569933666,322.138,-52.6852,-14.3991,178.616,2.39502,-144.976,348
1569933666,322.138,-52.6852,-14.3991,178.616,2.39502,-144.976,348
1569933666,322.138,-52.6852,-14.3991,178.616,2.39502,-144.976,352
1569933666,322.138,-52.6852,-14.3991,178.594,2.39502,-144.976,352
1569933666,322.138,-52.6852,-14.3991,178.594,2.39502,-144.976,352
1569933666,322.138,-52.6852,-14.3991,178.594,2.39502,-144.976,352
1569933666,322.138,-52.6852,-14.3991,178.594,2.39502,-144.976,352
1569933666,322.138,-52.7968,-14.3991,178.594,2.39502,-144.976,352
1569933666,322.138,-52.7968,-14.3991,178.594,2.39502,-144.976,352
1569933666,322.138,-52.7968,-14.3991,178.594,2.39502,-144.976,352
1569933666,322.138,-52.7968,-14.3991,178.594,2.39502,-144.976,352
1569933666,322.138,-52.7968,-14.3991,178.594,2.39502,-144.976,352
1569933666,322.138,-52.7968,-14.3991,178.594,2.39502,-144.976,352
1569933666,322.138,-52.7968,-14.3991,178.594,2.39502,-144.976,356
1569933666,322.138,-52.7968,-14.3991,178.594,2.39502,-144.976,356
1569933666,322.138,-52.7968,-14.3991,178.594,2.39502,-144.976,356
1569933666,322.138,-52.6852,-14.3991,178.594,2.39502,-144.976,356
1569933666,322.138,-52.6852,-14.3991,178.594,2.39502,-144.976,356
1569933666,322.138,-52.6852,-14.3991,178.594,2.39502,-144.976,356
1569933666,322.138,-52.6852,-14.3991,178.594,2.39502,-144.976,360
1569933666,322.138,-52.6852,-14.3991,178.594,2.39502,-144.998,360
1569933666,322.138,-52.6852,-14.3991,178.594,2.39502,-144.998,360
1569933666,322.138,-52.6852,-14.3991,178.594,2.39502,-144.998,360
1569933666,322.138,-52.6852,-14.3991,178.594,2.39502,-144.998,360
1569933666,322.138,-52.7968,-14.3991,178.594,2.39502,-144.998,360
1569933666,322.138,-52.7968,-14.3991,178.594,2.39502,-144.998,360
1569933666,322.138,-52.7968,-14.3991,178.594,2.39502,-144.998,360
1569933666,322.138,-52.7968,-14.3991,178.594,2.39502,-144.998,356
1569933666,322.138,-52.7968,-14.3991,178.594,2.39502,-144.976,356
1569933666,322.138,-52.7968,-14.3991,178.594,2.39502,-144.976,356
1569933666,322.138,-52.7968,-14.3991,178.594,2.39502,-144.976,356
1569933666,322.138,-52.7968,-14.3991,178.594,2.39502,-144.976,356
1569933666,322.138,-52.7968,-14.3991,178.594,2.39502,-144.976,356
1569933666,322.138,-52.7968,-14.3991,178.594,2.39502,-144.976,356
1569933666,322.138,-52.7968,-14.3991,178.572,2.39502,-144.976,356
1569933666,322.138,-52.7968,-14.3991,178.572,2.39502,-144.976,356
1569933666,322.138,-52.7968,-14.3991,178.594,2.39502,-144.976,356
1569933666,322.138,-52.7968,-14.3991,178.594,2.39502,-144.976,356
1569933666,322.138,-52.7968,-14.3991,178.594,2.39502,-144.976,356
1569933666,322.138,-52.7968,-14.3991,178.594,2.39502,-144.976,356
1569933666,322.138,-52.7968,-14.3991,178.594,2.39502,-144.976,356
1569933666,322.138,-52.7968,-14.3991,178.594,2.39502,-144.976,356
1569933666,322.138,-52.7968,-14.3991,178.572,2.39502,-144.976,352
1569933666,322.138,-52.7968,-14.3991,178.594,2.39502,-144.976,352
1569933666,322.138,-52.7968,-14.3991,178.594,2.39502,-144.976,352
1569933666,322.138,-52.7968,-14.3991,178.594,2.39502,-144.976,352
1569933666,322.138,-52.7968,-14.3991,178.594,2.39502,-144.976,352
1569933666,322.138,-52.7968,-14.3991,178.594,2.39502,-144.976,352
1569933666,322.138,-52.7968,-14.3991,178.594,2.39502,-144.976,352
1569933666,322.138,-52.7968,-14.3991,178.594,2.39502,-144.976,352
1569933666,322.138,-52.7968,-14.3991,178.594,2.39502,-144.976,352
1569933666,322.138,-52.7968,-14.3991,178.594,2.39502,-144.976,352
1569933666,322.138,-52.7968,-14.3991,178.572,2.39502,-144.976,352
1569933666,322.138,-52.7968,-14.3991,178.572,2.39502,-144.976,352
1569933666,322.138,-52.7968,-14.3991,178.572,2.39502,-144.976,352
1569933666,322.138,-52.7968,-14.3991,178.572,2.39502,-144.976,352
1569933666,322.138,-52.7968,-14.3991,178.572,2.39502,-144.976,352
1569933666,322.138,-52.7968,-14.3991,178.572,2.39502,-144.976,352
1569933666,322.138,-52.7968,-14.3991,178.572,2.39502,-144.976,352
1569933666,322.138,-52.7968,-14.3991,178.572,2.39502,-144.976,352
1569933666,322.138,-52.7968,-14.5107,178.572,2.39502,-144.976,352
1569933666,322.138,-52.7968,-14.5107,178.572,2.39502,-144.976,352
1569933666,322.138,-52.7968,-14.5107,178.572,2.39502,-144.976,352
1569933666,322.138,-52.7968,-14.5107,178.572,2.39502,-144.976,352
1569933666,322.138,-52.7968,-14.5107,178.572,2.39502,-144.976,352
1569933666,322.138,-52.7968,-14.5107,178.572,2.37305,-144.976,352
1569933667,322.138,-52.7968,-14.5107,178.572,2.37305,-144.976,352
1569933667,322.138,-52.7968,-14.5107,178.572,2.37305,-144.976,352
1569933667,322.138,-52.7968,-14.5107,178.572,2.37305,-144.976,352
1569933667,322.138,-52.7968,-14.5107,178.572,2.37305,-144.976,352
1569933667,322.138,-52.7968,-14.5107,178.572,2.37305,-144.976,352
1569933667,322.138,-52.7968,-14.5107,178.594,2.37305,-144.976,352
1569933667,322.138,-52.7968,-14.5107,178.594,2.37305,-144.976,352
1569933667,322.138,-52.7968,-14.5107,178.594,2.37305,-144.976,352
1569933667,322.138,-52.7968,-14.5107,178.594,2.37305,-144.976,352
1569933667,322.138,-52.7968,-14.5107,178.594,2.37305,-144.976,352
1569933667,322.138,-52.6852,-14.5107,178.594,2.37305,-144.976,352
1569933667,322.138,-52.6852,-14.5107,178.594,2.37305,-144.976,352
1569933667,322.138,-52.6852,-14.5107,178.616,2.37305,-144.976,352
1569933667,322.138,-52.6852,-14.5107,178.616,2.37305,-144.976,352
1569933667,322.138,-52.6852,-14.5107,178.616,2.37305,-144.976,352
1569933667,322.138,-52.6852,-14.5107,178.616,2.37305,-144.976,352
1569933667,322.138,-52.6852,-14.5107,178.616,2.37305,-144.976,352
1569933667,322.138,-52.6852,-14.5107,178.616,2.37305,-144.976,352
1569933667,322.138,-52.6852,-14.5107,178.616,2.37305,-144.976,352
1569933667,322.138,-52.6852,-14.5107,178.616,2.37305,-144.976,352
1569933667,322.138,-52.6852,-14.5107,178.616,2.37305,-144.976,352
1569933667,322.138,-52.6852,-14.5107,178.616,2.37305,-144.976,352
1569933667,322.138,-52.6852,-14.5107,178.616,2.37305,-144.976,352
1569933667,322.138,-52.6852,-14.5107,178.616,2.37305,-144.976,352
1569933667,322.138,-52.6852,-14.5107,178.616,2.37305,-144.976,352
1569933667,322.138,-52.6852,-14.5107,178.616,2.37305,-144.976,352
1569933667,322.138,-52.6852,-14.5107,178.616,2.35107,-144.976,352
1569933667,322.138,-52.6852,-14.5107,178.616,2.35107,-144.976,352
1569933667,322.138,-52.6852,-14.5107,178.616,2.35107,-144.976,352
1569933667,322.138,-52.6852,-14.5107,178.616,2.35107,-144.976,352
1569933667,322.138,-52.6852,-14.5107,178.616,2.35107,-144.976,352
1569933667,322.138,-52.6852,-14.5107,178.616,2.35107,-144.976,352
1569933667,322.138,-52.6852,-14.5107,178.616,2.35107,-144.976,352
1569933667,322.138,-52.6852,-14.5107,178.616,2.35107,-144.976,352
1569933667,322.138,-52.6852,-14.5107,178.616,2.35107,-144.976,352
1569933667,322.138,-52.6852,-14.5107,178.616,2.35107,-144.976,352
1569933667,322.138,-52.6852,-14.5107,178.616,2.35107,-144.976,352
1569933667,322.138,-52.6852,-14.5107,178.594,2.35107,-144.976,352
1569933667,322.138,-52.6852,-14.5107,178.594,2.37305,-144.976,352
1569933667,322.138,-52.6852,-14.5107,178.594,2.37305,-144.976,352
1569933667,322.138,-52.6852,-14.5107,178.594,2.37305,-144.976,352
1569933667,322.138,-52.6852,-14.5107,178.594,2.37305,-144.976,352
1569933667,322.138,-52.6852,-14.5107,178.594,2.37305,-144.976,352
1569933667,322.138,-52.6852,-14.5107,178.594,2.37305,-144.976,352
1569933667,322.138,-52.6852,-14.5107,178.594,2.37305,-144.976,352
1569933667,322.138,-52.6852,-14.5107,178.594,2.37305,-144.976,352
1569933667,322.138,-52.6852,-14.5107,178.594,2.37305,-144.976,352
1569933667,322.138,-52.6852,-14.3991,178.594,2.39502,-144.976,352
1569933667,322.138,-52.6852,-14.3991,178.594,2.39502,-144.976,352
1569933667,322.138,-52.6852,-14.3991,178.594,2.39502,-144.976,352
1569933667,322.138,-52.6852,-14.3991,178.594,2.39502,-144.976,352
1569933667,322.138,-52.6852,-14.3991,178.594,2.39502,-144.976,356
1569933667,322.138,-52.6852,-14.3991,178.594,2.39502,-144.976,356
1569933667,322.138,-52.6852,-14.3991,178.616,2.39502,-144.976,356
1569933667,322.138,-52.6852,-14.3991,178.616,2.39502,-144.976,356
1569933667,322.138,-52.6852,-14.3991,178.616,2.39502,-144.976,356
1569933667,322.138,-52.6852,-14.3991,178.616,2.39502,-144.976,356
1569933667,322.138,-52.6852,-14.3991,178.616,2.39502,-144.976,356
1569933667,322.138,-52.6852,-14.3991,178.616,2.39502,-144.976,356
1569933667,322.138,-52.6852,-14.3991,178.616,2.39502,-144.976,356
1569933667,322.138,-52.6852,-14.3991,178.616,2.39502,-144.976,356
1569933667,322.138,-52.6852,-14.3991,178.616,2.39502,-144.976,352
1569933667,322.138,-52.6852,-14.3991,178.616,2.39502,-144.976,352
1569933667,322.138,-52.6852,-14.3991,178.616,2.39502,-144.976,352
1569933667,322.138,-52.6852,-14.3991,178.616,2.39502,-144.976,352
1569933667,322.138,-52.6852,-14.3991,178.616,2.39502,-144.976,352
1569933667,322.138,-52.6852,-14.3991,178.594,2.39502,-144.976,352
1569933667,322.138,-52.6852,-14.3991,178.594,2.39502,-144.976,352
1569933667,322.138,-52.6852,-14.3991,178.594,2.39502,-144.976,352
1569933667,322.138,-52.6852,-14.3991,178.594,2.39502,-144.976,352
1569933667,322.138,-52.6852,-14.3991,178.594,2.39502,-144.976,352
1569933667,322.138,-52.6852,-14.3991,178.594,2.39502,-144.976,352
1569933667,322.138,-52.6852,-14.3991,178.594,2.39502,-144.976,352
1569933667,322.138,-52.6852,-14.3991,178.594,2.39502,-144.976,352
1569933667,322.138,-52.6852,-14.3991,178.594,2.39502,-144.976,352
1569933667,322.138,-52.6852,-14.3991,178.594,2.39502,-144.976,352
1569933667,322.138,-52.6852,-14.3991,178.594,2.39502,-144.976,352
1569933667,322.138,-52.6852,-14.3991,178.594,2.39502,-144.976,352
1569933667,322.138,-52.6852,-14.3991,178.594,2.39502,-144.976,352
1569933667,322.138,-52.6852,-14.3991,178.594,2.39502,-144.976,352
1569933667,322.138,-52.6852,-14.3991,178.594,2.39502,-144.976,352
1569933667,322.138,-52.6852,-14.3991,178.594,2.39502,-144.976,352
1569933667,322.138,-52.6852,-14.3991,178.594,2.39502,-144.976,352
1569933667,322.138,-52.6852,-14.3991,178.594,2.39502,-144.976,352
1569933667,322.138,-52.6852,-14.3991,178.594,2.39502,-144.976,352
1569933667,322.138,-52.7968,-14.3991,178.594,2.39502,-144.976,348
1569933667,322.138,-52.7968,-14.3991,178.594,2.39502,-144.976,348
1569933667,322.138,-52.7968,-14.3991,178.594,2.39502,-144.976,348
1569933667,322.138,-52.7968,-14.5107,178.594,2.39502,-144.976,348
1569933667,322.138,-52.7968,-14.5107,178.594,2.39502,-144.976,348
1569933667,322.138,-52.7968,-14.5107,178.594,2.39502,-144.976,348
1569933667,322.138,-52.6852,-14.5107,178.594,2.37305,-144.976,348
1569933667,322.138,-52.6852,-14.5107,178.594,2.37305,-144.976,348
1569933667,322.138,-52.6852,-14.5107,178.594,2.37305,-144.976,348
1569933667,322.138,-52.6852,-14.5107,178.594,2.37305,-144.976,348
1569933667,322.138,-52.6852,-14.5107,178.594,2.37305,-144.976,348
1569933667,322.138,-52.6852,-14.5107,178.594,2.37305,-144.976,348
1569933667,322.138,-52.6852,-14.5107,178.594,2.37305,-144.976,348
1569933667,322.138,-52.6852,-14.5107,178.594,2.37305,-144.976,348
1569933667,322.138,-52.6852,-14.5107,178.594,2.37305,-144.998,348
1569933668,322.138,-52.6852,-14.5107,178.616,2.37305,-144.998,348
1569933668,322.138,-52.6852,-14.5107,178.616,2.37305,-144.998,352
1569933668,322.138,-52.6852,-14.5107,178.616,2.37305,-144.998,352
1569933668,322.138,-52.6852,-14.5107,178.616,2.37305,-144.976,352
1569933668,322.138,-52.6852,-14.5107,178.616,2.37305,-144.976,352
1569933668,322.027,-52.6852,-14.5107,178.616,2.37305,-144.976,352
1569933668,322.027,-52.6852,-14.5107,178.616,2.37305,-144.976,352
1569933668,322.027,-52.6852,-14.5107,178.616,2.37305,-144.976,352
1569933668,322.027,-52.6852,-14.5107,178.616,2.37305,-144.976,356
1569933668,322.027,-52.6852,-14.5107,178.616,2.37305,-144.976,356
1569933668,322.138,-52.6852,-14.5107,178.616,2.37305,-144.976,356
1569933668,322.138,-52.6852,-14.5107,178.616,2.37305,-144.976,356
1569933668,322.138,-52.6852,-14.5107,178.594,2.37305,-144.976,356
1569933668,322.138,-52.6852,-14.5107,178.594,2.37305,-144.976,356
1569933668,322.138,-52.6852,-14.5107,178.594,2.37305,-144.976,356
1569933668,322.138,-52.6852,-14.5107,178.594,2.37305,-144.976,356
1569933668,322.138,-52.6852,-14.3991,178.594,2.39502,-144.976,360
1569933668,322.138,-52.6852,-14.3991,178.594,2.39502,-144.976,360
1569933668,322.138,-52.6852,-14.3991,178.594,2.39502,-144.976,360
1569933668,322.138,-52.6852,-14.3991,178.594,2.39502,-144.976,360
1569933668,322.138,-52.6852,-14.3991,178.594,2.39502,-144.976,360
1569933668,322.138,-52.6852,-14.3991,178.594,2.39502,-144.976,360
1569933671,306.958,-35.7188,-14.734,178.66,2.48291,-145.657,348
1569933671,306.958,-35.7188,-14.734,178.66,2.48291,-145.657,348
1569933671,306.958,-35.7188,-14.734,178.66,2.48291,-145.657,348
1569933671,306.958,-35.7188,-14.734,178.66,2.48291,-145.657,348
1569933671,306.958,-35.7188,-14.734,178.66,2.48291,-145.657,344
1569933671,306.958,-35.7188,-14.734,178.66,2.48291,-145.657,344
1569933671,306.958,-35.7188,-14.734,178.66,2.48291,-145.657,344
1569933671,306.958,-35.7188,-14.734,178.66,2.48291,-145.657,344
1569933671,306.958,-35.7188,-14.734,178.66,2.48291,-145.657,344
1569933671,306.958,-35.7188,-14.734,178.66,2.48291,-145.657,344
1569933671,306.958,-35.7188,-14.734,178.66,2.48291,-145.657,344
1569933671,306.958,-35.7188,-14.734,178.66,2.48291,-145.657,344
1569933671,306.958,-35.7188,-14.734,178.66,2.48291,-145.657,344
1569933671,306.958,-35.7188,-14.734,178.66,2.48291,-145.679,344
1569933671,306.958,-35.7188,-14.734,178.66,2.48291,-145.679,344
1569933671,306.958,-35.7188,-14.734,178.66,2.48291,-145.679,344
1569933671,306.958,-35.7188,-14.734,178.66,2.48291,-145.679,344
1569933671,306.958,-35.7188,-14.734,178.66,2.48291,-145.679,344
1569933671,306.958,-35.7188,-14.734,178.66,2.48291,-145.679,340
1569933671,306.958,-35.7188,-14.734,178.66,2.48291,-145.679,344
1569933671,306.958,-35.7188,-14.734,178.66,2.48291,-145.679,344
1569933671,306.958,-35.7188,-14.734,178.66,2.48291,-145.679,344
1569933671,306.958,-35.7188,-14.734,178.66,2.48291,-145.679,344
1569933671,306.958,-35.7188,-14.734,178.66,2.48291,-145.679,344
1569933671,306.958,-35.7188,-14.734,178.66,2.48291,-145.679,344
1569933671,306.958,-35.7188,-14.734,178.66,2.48291,-145.679,344
1569933671,306.958,-35.7188,-14.734,178.66,2.48291,-145.679,344
1569933671,306.958,-35.7188,-14.734,178.66,2.48291,-145.679,344
1569933671,306.958,-35.7188,-14.734,178.66,2.48291,-145.679,344
1569933671,306.958,-35.7188,-14.734,178.66,2.48291,-145.679,344
1569933671,306.958,-35.7188,-14.734,178.66,2.48291,-145.679,344
1569933671,306.958,-35.7188,-14.734,178.66,2.48291,-145.679,344
1569933671,306.958,-35.7188,-14.734,178.66,2.48291,-145.679,340
1569933672,306.958,-35.7188,-14.734,178.66,2.48291,-145.679,340
1569933672,306.958,-35.7188,-14.734,178.66,2.48291,-145.657,340
1569933672,306.958,-35.7188,-14.734,178.66,2.48291,-145.657,340
1569933672,306.958,-35.7188,-14.734,178.66,2.48291,-145.657,340
1569933672,306.958,-35.7188,-14.734,178.66,2.48291,-145.657,340
1569933672,306.958,-35.7188,-14.734,178.66,2.48291,-145.657,340
1569933672,306.958,-35.7188,-14.734,178.66,2.48291,-145.657,340
1569933672,306.958,-35.7188,-14.734,178.66,2.48291,-145.657,340
1569933672,306.958,-35.7188,-14.734,178.66,2.48291,-145.657,340
1569933672,306.958,-35.7188,-14.734,178.66,2.48291,-145.679,340
1569933672,306.958,-35.7188,-14.734,178.66,2.48291,-145.679,340
1569933672,306.958,-35.7188,-14.734,178.66,2.48291,-145.679,340
1569933672,306.958,-35.7188,-14.734,178.66,2.48291,-145.679,340
1569933672,306.958,-35.7188,-14.734,178.66,2.48291,-145.679,340
1569933672,306.958,-35.7188,-14.734,178.66,2.48291,-145.679,344
1569933672,306.958,-35.7188,-14.734,178.66,2.48291,-145.657,344
1569933672,306.958,-35.7188,-14.734,178.66,2.48291,-145.679,344
1569933672,306.958,-35.7188,-14.734,178.66,2.48291,-145.679,344
1569933672,306.958,-35.7188,-14.734,178.66,2.48291,-145.679,344
1569933672,306.958,-35.7188,-14.734,178.66,2.48291,-145.679,340
1569933672,306.958,-35.7188,-14.734,178.66,2.48291,-145.679,340
1569933672,306.958,-35.7188,-14.6224,178.66,2.48291,-145.679,340
1569933672,306.958,-35.7188,-14.6224,178.66,2.48291,-145.679,340
1569933672,306.958,-35.7188,-14.6224,178.66,2.48291,-145.679,340
1569933672,306.958,-35.7188,-14.6224,178.66,2.48291,-145.679,340
1569933672,306.958,-35.7188,-14.6224,178.66,2.50488,-145.679,340
1569933672,306.958,-35.7188,-14.6224,178.66,2.48291,-145.657,340
1569933672,306.958,-35.7188,-14.6224,178.682,2.48291,-145.657,340
1569933672,306.958,-35.7188,-14.6224,178.682,2.48291,-145.657,340
1569933672,306.958,-35.6071,-14.6224,178.682,2.50488,-145.657,340
1569933672,306.958,-35.6071,-14.6224,178.682,2.50488,-145.657,340
1569933672,306.958,-35.6071,-14.6224,178.682,2.50488,-145.657,340
1569933672,306.958,-35.6071,-14.6224,178.682,2.50488,-145.657,340
1569933672,306.958,-35.6071,-14.6224,178.682,2.50488,-145.657,340
1569933672,306.958,-35.6071,-14.6224,178.682,2.50488,-145.657,340
1569933672,306.958,-35.6071,-14.6224,178.682,2.50488,-145.657,340
1569933672,306.958,-35.6071,-14.6224,178.682,2.50488,-145.657,340
1569933672,306.958,-35.6071,-14.6224,178.682,2.50488,-145.657,340
1569933672,306.958,-35.6071,-14.6224,178.682,2.50488,-145.657,340
1569933672,306.958,-35.6071,-14.6224,178.682,2.50488,-145.657,340
1569933672,306.958,-35.6071,-14.6224,178.682,2.50488,-145.657,336
1569933672,306.958,-35.6071,-14.6224,178.682,2.50488,-145.657,336
1569933672,306.958,-35.6071,-14.6224,178.682,2.50488,-145.657,336
1569933672,306.958,-35.6071,-14.6224,178.682,2.50488,-145.657,336
1569933672,306.958,-35.6071,-14.6224,178.682,2.50488,-145.657,336
1569933672,306.958,-35.6071,-14.6224,178.682,2.50488,-145.657,336
1569933672,306.958,-35.6071,-14.6224,178.682,2.50488,-145.657,336
1569933672,306.958,-35.6071,-14.6224,178.682,2.50488,-145.657,336
1569933672,306.958,-35.6071,-14.6224,178.682,2.50488,-145.657,336
1569933672,306.958,-35.6071,-14.6224,178.682,2.50488,-145.657,336
1569933672,306.958,-35.6071,-14.6224,178.682,2.50488,-145.657,336
1569933672,306.958,-35.6071,-14.6224,178.682,2.50488,-145.657,336
1569933672,306.958,-35.7188,-14.6224,178.682,2.50488,-145.657,336
1569933672,306.958,-35.7188,-14.6224,178.682,2.50488,-145.657,336
1569933672,306.958,-35.7188,-14.6224,178.682,2.50488,-145.657,336
1569933672,306.958,-35.7188,-14.6224,178.682,2.50488,-145.657,336
1569933672,306.958,-35.7188,-14.6224,178.682,2.50488,-145.657,336
1569933672,306.958,-35.7188,-14.6224,178.682,2.50488,-145.657,336
1569933672,306.958,-35.6071,-14.6224,178.682,2.50488,-145.657,336
1569933672,306.958,-35.6071,-14.6224,178.682,2.50488,-145.657,340
1569933672,306.958,-35.6071,-14.6224,178.682,2.50488,-145.657,340
1569933672,306.958,-35.6071,-14.6224,178.682,2.50488,-145.679,340
1569933672,306.958,-35.6071,-14.6224,178.682,2.50488,-145.679,340
1569933672,306.958,-35.6071,-14.6224,178.682,2.50488,-145.679,340
1569933672,306.958,-35.6071,-14.6224,178.682,2.50488,-145.679,340
1569933672,306.958,-35.6071,-14.6224,178.66,2.50488,-145.679,340
1569933672,306.958,-35.7188,-14.6224,178.66,2.50488,-145.679,340
1569933672,306.958,-35.7188,-14.6224,178.66,2.50488,-145.679,340
1569933672,306.958,-35.7188,-14.6224,178.66,2.50488,-145.679,340
1569933672,306.958,-35.7188,-14.6224,178.66,2.50488,-145.679,340
1569933672,306.958,-35.7188,-14.6224,178.66,2.50488,-145.679,340
1569933672,306.958,-35.7188,-14.6224,178.66,2.50488,-145.679,340
1569933672,306.958,-35.7188,-14.6224,178.66,2.50488,-145.679,340
1569933672,306.958,-35.7188,-14.6224,178.66,2.50488,-145.679,340
1569933672,306.958,-35.7188,-14.6224,178.66,2.50488,-145.679,340
1569933672,306.958,-35.7188,-14.6224,178.66,2.50488,-145.679,340
1569933672,306.958,-35.7188,-14.6224,178.66,2.50488,-145.679,340
1569933672,306.958,-35.7188,-14.6224,178.66,2.50488,-145.679,340
1569933672,306.958,-35.7188,-14.6224,178.66,2.50488,-145.679,340
1569933672,306.958,-35.7188,-14.6224,178.66,2.50488,-145.679,340
1569933672,306.958,-35.7188,-14.6224,178.66,2.50488,-145.679,336
1569933672,306.958,-35.7188,-14.6224,178.66,2.50488,-145.679,336
1569933672,306.958,-35.7188,-14.6224,178.66,2.50488,-145.679,336
1569933672,306.958,-35.7188,-14.6224,178.66,2.50488,-145.679,336
1569933672,306.958,-35.7188,-14.6224,178.66,2.50488,-145.679,336
1569933672,306.958,-35.7188,-14.6224,178.66,2.50488,-145.679,336
1569933672,306.958,-35.7188,-14.6224,178.66,2.50488,-145.679,336
1569933672,306.958,-35.7188,-14.6224,178.66,2.50488,-145.679,336
1569933672,306.958,-35.7188,-14.6224,178.66,2.50488,-145.679,336
1569933672,306.958,-35.7188,-14.6224,178.66,2.50488,-145.679,336
1569933672,306.958,-35.7188,-14.6224,178.66,2.50488,-145.679,336
1569933672,306.958,-35.7188,-14.6224,178.66,2.50488,-145.679,336
1569933672,306.958,-35.7188,-14.6224,178.66,2.50488,-145.679,336
1569933672,306.958,-35.7188,-14.6224,178.66,2.50488,-145.679,336
1569933672,306.958,-35.7188,-14.6224,178.66,2.50488,-145.679,336
1569933672,306.958,-35.7188,-14.6224,178.66,2.50488,-145.679,336
1569933672,306.958,-35.7188,-14.6224,178.66,2.50488,-145.679,336
1569933672,306.958,-35.7188,-14.6224,178.638,2.50488,-145.679,336
1569933672,306.958,-35.7188,-14.6224,178.638,2.50488,-145.679,336
1569933672,306.958,-35.7188,-14.6224,178.638,2.50488,-145.679,336
1569933673,306.958,-35.7188,-14.6224,178.638,2.50488,-145.679,336
1569933673,306.958,-35.7188,-14.6224,178.638,2.50488,-145.679,336
1569933673,306.958,-35.7188,-14.6224,178.638,2.50488,-145.679,336
1569933673,306.958,-35.7188,-14.6224,178.638,2.50488,-145.679,336
1569933673,306.958,-35.7188,-14.6224,178.638,2.50488,-145.679,336
1569933673,306.958,-35.7188,-14.6224,178.638,2.50488,-145.679,336
1569933673,306.958,-35.7188,-14.6224,178.66,2.50488,-145.679,336
1569933673,306.958,-35.7188,-14.6224,178.66,2.50488,-145.679,336
1569933673,306.958,-35.7188,-14.6224,178.66,2.50488,-145.679,336
1569933673,306.958,-35.7188,-14.6224,178.66,2.50488,-145.679,336
1569933673,306.958,-35.7188,-14.6224,178.66,2.50488,-145.679,336
1569933673,306.958,-35.7188,-14.6224,178.66,2.50488,-145.679,336
1569933673,306.958,-35.7188,-14.6224,178.66,2.50488,-145.679,336
1569933673,306.958,-35.7188,-14.6224,178.66,2.50488,-145.679,336
1569933673,306.958,-35.7188,-14.6224,178.66,2.50488,-145.679,336
1569933673,306.958,-35.7188,-14.6224,178.66,2.50488,-145.679,336
1569933673,306.958,-35.7188,-14.6224,178.66,2.50488,-145.679,336
1569933673,306.958,-35.7188,-14.6224,178.66,2.50488,-145.679,332
1569933673,306.958,-35.7188,-14.6224,178.66,2.50488,-145.679,332
1569933673,306.958,-35.7188,-14.6224,178.66,2.50488,-145.679,332
1569933673,306.958,-35.7188,-14.6224,178.66,2.50488,-145.679,332
1569933673,306.958,-35.7188,-14.6224,178.66,2.50488,-145.679,332
1569933673,306.958,-35.7188,-14.6224,178.66,2.50488,-145.679,332
1569933673,306.958,-35.7188,-14.6224,178.66,2.50488,-145.679,332
1569933673,306.958,-35.7188,-14.6224,178.66,2.50488,-145.679,332
1569933673,306.958,-35.7188,-14.6224,178.66,2.50488,-145.679,332
1569933673,306.958,-35.7188,-14.6224,178.66,2.50488,-145.679,332
1569933673,306.958,-35.7188,-14.6224,178.66,2.50488,-145.679,332
1569933673,306.958,-35.7188,-14.6224,178.66,2.50488,-145.679,332
1569933673,306.958,-35.7188,-14.6224,178.66,2.50488,-145.679,332
1569933673,306.958,-35.7188,-14.6224,178.66,2.50488,-145.679,336
1569933673,306.958,-35.7188,-14.6224,178.66,2.50488,-145.679,336
1569933673,306.958,-35.7188,-14.6224,178.66,2.50488,-145.679,336
1569933673,306.958,-35.7188,-14.6224,178.66,2.50488,-145.679,336
1569933673,306.958,-35.7188,-14.6224,178.66,2.50488,-145.679,336
1569933673,306.958,-35.7188,-14.6224,178.66,2.50488,-145.679,336
1569933673,306.958,-35.7188,-14.6224,178.66,2.50488,-145.679,336
1569933673,306.958,-35.7188,-14.6224,178.66,2.50488,-145.679,336
1569933673,306.958,-35.7188,-14.6224,178.66,2.50488,-145.679,336
1569933673,306.958,-35.7188,-14.6224,178.66,2.50488,-145.679,336
1569933673,306.958,-35.7188,-14.6224,178.66,2.50488,-145.679,336
1569933673,306.958,-35.7188,-14.6224,178.66,2.50488,-145.679,336
1569933673,306.958,-35.7188,-14.6224,178.66,2.50488,-145.679,336
1569933673,306.958,-35.7188,-14.6224,178.66,2.50488,-145.679,336
1569933673,306.958,-35.7188,-14.6224,178.66,2.50488,-145.679,336
1569933673,306.958,-35.7188,-14.6224,178.66,2.50488,-145.679,336
1569933673,306.958,-35.7188,-14.6224,178.66,2.50488,-145.679,336
1569933673,306.958,-35.7188,-14.6224,178.66,2.50488,-145.679,336
1569933673,306.958,-35.7188,-14.6224,178.66,2.50488,-145.679,336
1569933673,306.958,-35.7188,-14.6224,178.66,2.50488,-145.679,336
1569933673,306.958,-35.7188,-14.6224,178.66,2.50488,-145.679,336
1569933673,306.958,-35.7188,-14.6224,178.66,2.50488,-145.679,340
1569933673,306.958,-35.7188,-14.6224,178.66,2.50488,-145.657,340
1569933673,306.958,-35.7188,-14.6224,178.66,2.50488,-145.657,340
1569933673,306.958,-35.6071,-14.6224,178.682,2.50488,-145.657,340
1569933673,306.958,-35.6071,-14.6224,178.682,2.50488,-145.657,340
1569933673,306.958,-35.6071,-14.6224,178.682,2.50488,-145.657,340
1569933673,306.958,-35.6071,-14.6224,178.682,2.48291,-145.657,340
1569933673,306.958,-35.6071,-14.6224,178.682,2.48291,-145.657,340
1569933673,306.958,-35.6071,-14.6224,178.682,2.48291,-145.657,340
1569933673,306.958,-35.6071,-14.6224,178.682,2.48291,-145.657,340
1569933673,306.958,-35.6071,-14.6224,178.682,2.48291,-145.657,340
1569933673,306.958,-35.6071,-14.6224,178.682,2.48291,-145.657,340
1569933673,306.958,-35.6071,-14.734,178.682,2.48291,-145.657,340
1569933673,306.958,-35.6071,-14.734,178.682,2.48291,-145.657,340
1569933673,306.958,-35.6071,-14.734,178.682,2.48291,-145.657,340
1569933673,306.958,-35.6071,-14.734,178.682,2.48291,-145.657,340
1569933673,306.958,-35.6071,-14.734,178.682,2.48291,-145.657,340
1569933673,306.958,-35.6071,-14.734,178.682,2.48291,-145.657,340
1569933673,306.958,-35.6071,-14.734,178.682,2.48291,-145.679,340
1569933673,306.958,-35.6071,-14.734,178.682,2.48291,-145.679,340
1569933673,306.958,-35.6071,-14.734,178.682,2.48291,-145.679,340
1569933673,306.958,-35.6071,-14.734,178.682,2.50488,-145.679,340
1569933673,306.958,-35.6071,-14.6224,178.682,2.50488,-145.679,340
1569933673,306.958,-35.6071,-14.6224,178.682,2.50488,-145.679,340
1569933673,306.958,-35.6071,-14.6224,178.66,2.50488,-145.679,340
1569933673,306.958,-35.6071,-14.6224,178.66,2.50488,-145.679,340
1569933673,306.958,-35.6071,-14.6224,178.66,2.50488,-145.679,340
1569933673,306.958,-35.6071,-14.6224,178.66,2.50488,-145.679,340
1569933673,306.958,-35.7188,-14.6224,178.66,2.50488,-145.679,340
1569933673,306.958,-35.7188,-14.6224,178.66,2.50488,-145.679,340
1569933673,306.958,-35.7188,-14.6224,178.66,2.50488,-145.679,340
1569933673,306.958,-35.7188,-14.6224,178.66,2.50488,-145.679,340
1569933673,306.958,-35.7188,-14.6224,178.66,2.50488,-145.679,340
1569933673,306.958,-35.7188,-14.6224,178.66,2.50488,-145.679,340
1569933673,306.958,-35.6071,-14.6224,178.66,2.50488,-145.679,340
1569933673,306.958,-35.6071,-14.6224,178.66,2.50488,-145.679,340
1569933673,306.958,-35.6071,-14.6224,178.66,2.50488,-145.679,340
1569933673,306.958,-35.6071,-14.6224,178.66,2.50488,-145.679,340
1569933673,306.958,-35.6071,-14.6224,178.66,2.50488,-145.679,340
1569933673,306.958,-35.6071,-14.6224,178.66,2.50488,-145.679,340
1569933673,306.958,-35.6071,-14.6224,178.66,2.50488,-145.679,340
1569933673,306.958,-35.6071,-14.6224,178.682,2.50488,-145.679,340
1569933673,306.958,-35.6071,-14.6224,178.682,2.50488,-145.679,340
1569933673,306.958,-35.6071,-14.6224,178.682,2.50488,-145.679,340
1569933673,306.958,-35.7188,-14.6224,178.66,2.50488,-145.657,340
1569933673,306.958,-35.7188,-14.6224,178.66,2.50488,-145.657,336
1569933673,306.958,-35.7188,-14.6224,178.66,2.50488,-145.657,336
1569933673,306.958,-35.7188,-14.6224,178.66,2.50488,-145.657,336
1569933673,306.958,-35.7188,-14.6224,178.66,2.50488,-145.657,336
1569933674,306.958,-35.7188,-14.6224,178.66,2.50488,-145.657,336
1569933674,306.958,-35.7188,-14.6224,178.66,2.50488,-145.657,336
1569933674,306.958,-35.7188,-14.6224,178.66,2.50488,-145.657,336
1569933674,306.958,-35.7188,-14.6224,178.66,2.50488,-145.657,336
1569933674,306.958,-35.7188,-14.6224,178.66,2.50488,-145.657,336
1569933674,306.958,-35.7188,-14.6224,178.66,2.50488,-145.657,336
1569933674,306.958,-35.7188,-14.6224,178.66,2.50488,-145.657,336
1569933674,306.958,-35.7188,-14.6224,178.66,2.48291,-145.657,332
1569933674,306.958,-35.7188,-14.6224,178.66,2.48291,-145.657,332
1569933674,306.958,-35.7188,-14.734,178.66,2.48291,-145.657,332
1569933674,306.958,-35.7188,-14.734,178.66,2.48291,-145.679,332
1569933674,306.958,-35.7188,-14.734,178.66,2.48291,-145.679,332
1569933674,306.958,-35.7188,-14.734,178.66,2.48291,-145.679,332
1569933674,306.958,-35.7188,-14.734,178.66,2.48291,-145.679,332
1569933674,306.958,-35.7188,-14.734,178.66,2.48291,-145.679,332
1569933674,306.958,-35.7188,-14.734,178.66,2.48291,-145.679,332
1569933674,306.958,-35.7188,-14.734,178.66,2.48291,-145.679,332
1569933674,306.958,-35.7188,-14.734,178.66,2.48291,-145.679,332
1569933674,306.958,-35.7188,-14.734,178.682,2.48291,-145.679,332
1569933674,306.958,-35.7188,-14.734,178.682,2.48291,-145.679,332
1569933674,306.958,-35.7188,-14.734,178.682,2.48291,-145.679,332
1569933674,306.958,-35.7188,-14.734,178.682,2.48291,-145.679,332
1569933674,306.958,-35.7188,-14.734,178.682,2.48291,-145.679,332
1569933674,306.958,-35.7188,-14.734,178.682,2.48291,-145.679,336
1569933674,306.958,-35.7188,-14.734,178.682,2.48291,-145.679,336
1569933674,306.958,-35.7188,-14.734,178.682,2.48291,-145.679,336
1569933674,306.958,-35.6071,-14.734,178.682,2.48291,-145.679,336
1569933674,306.958,-35.6071,-14.734,178.682,2.48291,-145.679,336
1569933674,306.958,-35.6071,-14.734,178.682,2.48291,-145.679,336
1569933674,306.958,-35.6071,-14.734,178.682,2.48291,-145.679,336
1569933674,306.958,-35.6071,-14.734,178.682,2.48291,-145.679,340
1569933674,306.958,-35.6071,-14.734,178.682,2.48291,-145.679,340
1569933674,306.958,-35.6071,-14.734,178.682,2.48291,-145.679,340
1569933674,306.958,-35.6071,-14.734,178.682,2.48291,-145.679,340
1569933674,306.958,-35.6071,-14.734,178.682,2.48291,-145.679,340
1569933674,306.958,-35.6071,-14.734,178.682,2.48291,-145.679,340
1569933674,306.958,-35.6071,-14.734,178.682,2.48291,-145.679,340
1569933674,306.958,-35.6071,-14.734,178.682,2.48291,-145.679,340
1569933674,306.958,-35.6071,-14.734,178.682,2.48291,-145.679,340
1569933674,306.958,-35.6071,-14.734,178.682,2.48291,-145.679,340
1569933674,306.958,-35.6071,-14.734,178.682,2.48291,-145.679,340
1569933674,306.958,-35.6071,-14.734,178.682,2.48291,-145.679,340
1569933674,306.958,-35.6071,-14.734,178.682,2.48291,-145.679,340
1569933674,306.958,-35.6071,-14.734,178.682,2.48291,-145.679,340
1569933674,306.958,-35.6071,-14.734,178.682,2.48291,-145.679,340
1569933674,306.958,-35.6071,-14.734,178.682,2.48291,-145.679,340
1569933674,306.958,-35.6071,-14.734,178.682,2.48291,-145.679,340
1569933674,306.958,-35.6071,-14.734,178.682,2.48291,-145.679,336
1569933674,306.958,-35.6071,-14.734,178.682,2.48291,-145.679,336
1569933674,306.958,-35.6071,-14.734,178.682,2.48291,-145.679,336
1569933674,306.958,-35.6071,-14.734,178.682,2.48291,-145.679,336
1569933674,306.958,-35.6071,-14.734,178.682,2.48291,-145.679,336
1569933674,306.958,-35.6071,-14.734,178.682,2.48291,-145.679,336
1569933674,306.958,-35.6071,-14.734,178.682,2.48291,-145.679,336
1569933674,306.958,-35.6071,-14.734,178.682,2.48291,-145.679,336
1569933674,306.958,-35.6071,-14.734,178.682,2.48291,-145.679,336
1569933674,306.958,-35.6071,-14.734,178.682,2.48291,-145.679,336
1569933674,306.958,-35.6071,-14.734,178.682,2.48291,-145.679,336
1569933674,306.958,-35.6071,-14.734,178.682,2.48291,-145.679,336
1569933674,306.958,-35.6071,-14.734,178.682,2.48291,-145.679,336
1569933674,306.958,-35.6071,-14.734,178.682,2.48291,-145.679,336
1569933674,306.958,-35.6071,-14.734,178.682,2.48291,-145.679,336
1569933674,306.958,-35.6071,-14.734,178.682,2.48291,-145.679,336
1569933674,306.958,-35.6071,-14.734,178.682,2.48291,-145.679,336
1569933674,306.958,-35.6071,-14.734,178.682,2.48291,-145.679,336
1569933674,306.958,-35.6071,-14.734,178.682,2.48291,-145.679,336
1569933674,306.958,-35.6071,-14.734,178.682,2.48291,-145.679,336
1569933674,306.958,-35.6071,-14.734,178.682,2.48291,-145.679,336
1569933674,306.958,-35.6071,-14.734,178.682,2.48291,-145.679,336
1569933674,306.958,-35.6071,-14.734,178.682,2.48291,-145.679,336
1569933674,306.958,-35.6071,-14.734,178.682,2.48291,-145.679,336
1569933674,306.958,-35.6071,-14.734,178.682,2.48291,-145.679,336
1569933674,306.958,-35.7188,-14.734,178.682,2.48291,-145.679,332
1569933674,306.958,-35.7188,-14.734,178.682,2.48291,-145.679,332
1569933674,306.958,-35.7188,-14.734,178.682,2.48291,-145.679,336
1569933674,306.958,-35.7188,-14.734,178.682,2.48291,-145.679,336
1569933674,306.958,-35.7188,-14.734,178.682,2.50488,-145.679,336
1569933674,306.958,-35.7188,-14.734,178.682,2.50488,-145.679,336
1569933674,306.958,-35.7188,-14.734,178.682,2.50488,-145.657,336
1569933674,306.958,-35.7188,-14.734,178.682,2.50488,-145.657,336
1569933674,306.958,-35.7188,-14.734,178.682,2.50488,-145.679,336
1569933674,306.958,-35.7188,-14.734,178.682,2.48291,-145.679,336
1569933674,306.958,-35.7188,-14.734,178.682,2.48291,-145.679,336
1569933674,306.958,-35.7188,-14.734,178.682,2.48291,-145.679,336
1569933674,306.958,-35.7188,-14.734,178.682,2.48291,-145.679,336
1569933674,306.958,-35.7188,-14.734,178.682,2.48291,-145.679,336
1569933674,306.958,-35.7188,-14.734,178.682,2.48291,-145.679,336
1569933674,306.958,-35.6071,-14.734,178.682,2.48291,-145.679,336
1569933674,306.958,-35.6071,-14.734,178.682,2.48291,-145.679,332
1569933674,306.958,-35.6071,-14.734,178.682,2.48291,-145.679,332
1569933674,306.958,-35.6071,-14.734,178.682,2.50488,-145.679,332
1569933674,306.958,-35.6071,-14.734,178.682,2.50488,-145.679,332
1569933674,306.958,-35.6071,-14.734,178.682,2.50488,-145.679,332
1569933674,306.958,-35.6071,-14.734,178.682,2.50488,-145.679,332
1569933674,306.958,-35.6071,-14.734,178.682,2.50488,-145.679,332
1569933674,306.958,-35.6071,-14.734,178.682,2.50488,-145.679,336
1569933674,306.958,-35.6071,-14.734,178.682,2.50488,-145.679,336
1569933674,306.958,-35.6071,-14.734,178.682,2.48291,-145.679,336
1569933674,306.958,-35.7188,-14.734,178.682,2.48291,-145.679,336
1569933674,306.958,-35.7188,-14.734,178.682,2.48291,-145.679,336
1569933675,306.958,-35.7188,-14.734,178.66,2.48291,-145.679,336
1569933675,306.958,-35.7188,-14.734,178.66,2.48291,-145.679,336
1569933675,306.958,-35.7188,-14.734,178.682,2.48291,-145.679,336
1569933675,306.958,-35.7188,-14.734,178.682,2.48291,-145.657,336
1569933675,306.958,-35.7188,-14.734,178.66,2.48291,-145.657,336
1569933675,306.958,-35.7188,-14.734,178.66,2.48291,-145.657,336
1569933675,306.958,-35.7188,-14.734,178.682,2.48291,-145.657,340
1569933675,306.958,-35.7188,-14.734,178.682,2.48291,-145.657,340
1569933675,306.958,-35.7188,-14.734,178.682,2.48291,-145.657,340
1569933675,306.958,-35.6071,-14.734,178.682,2.48291,-145.657,340
1569933675,306.958,-35.7188,-14.734,178.682,2.48291,-145.657,340
1569933675,306.958,-35.7188,-14.734,178.682,2.48291,-145.657,344
1569933675,306.958,-35.7188,-14.734,178.66,2.48291,-145.657,344
1569933675,306.958,-35.7188,-14.734,178.66,2.48291,-145.657,344
1569933675,306.958,-35.7188,-14.734,178.66,2.48291,-145.657,344
1569933675,306.958,-35.7188,-14.6224,178.66,2.50488,-145.657,344
1569933675,306.958,-35.7188,-14.6224,178.66,2.50488,-145.657,344
1569933675,306.958,-35.7188,-14.6224,178.66,2.50488,-145.657,344
1569933675,306.958,-35.7188,-14.6224,178.66,2.50488,-145.657,344
1569933675,306.958,-35.7188,-14.6224,178.66,2.50488,-145.657,344
1569933675,306.958,-35.7188,-14.6224,178.66,2.50488,-145.657,344
1569933675,306.958,-35.7188,-14.6224,178.66,2.50488,-145.657,344
1569933675,306.958,-35.7188,-14.6224,178.66,2.50488,-145.657,348
1569933675,306.958,-35.7188,-14.6224,178.66,2.50488,-145.657,348
1569933675,306.958,-35.7188,-14.6224,178.66,2.50488,-145.657,348
1569933675,306.958,-35.7188,-14.6224,178.66,2.50488,-145.657,348
1569933675,306.958,-35.7188,-14.6224,178.66,2.50488,-145.657,348
1569933675,306.958,-35.7188,-14.6224,178.66,2.50488,-145.657,348
1569933675,306.958,-35.7188,-14.6224,178.66,2.50488,-145.657,348
1569933675,306.958,-35.7188,-14.6224,178.66,2.50488,-145.657,352
1569933675,306.958,-35.7188,-14.6224,178.66,2.50488,-145.657,352
1569933675,306.958,-35.7188,-14.6224,178.66,2.50488,-145.657,352
1569933675,306.958,-35.7188,-14.6224,178.66,2.50488,-145.657,352
1569933675,306.958,-35.7188,-14.6224,178.682,2.50488,-145.657,352
1569933675,306.958,-35.7188,-14.6224,178.682,2.50488,-145.657,352
1569933675,306.958,-35.7188,-14.6224,178.682,2.50488,-145.657,352
1569933675,306.958,-35.7188,-14.6224,178.682,2.48291,-145.657,352
1569933675,306.958,-35.7188,-14.734,178.682,2.48291,-145.657,352
1569933675,306.958,-35.7188,-14.734,178.682,2.48291,-145.657,352
1569933675,306.958,-35.7188,-14.734,178.66,2.48291,-145.657,352
1569933675,306.958,-35.7188,-14.734,178.66,2.48291,-145.657,348
1569933675,306.958,-35.7188,-14.734,178.66,2.48291,-145.657,348
1569933675,306.958,-35.7188,-14.734,178.66,2.48291,-145.657,348
1569933675,306.958,-35.7188,-14.734,178.66,2.48291,-145.657,348
1569933675,306.958,-35.7188,-14.734,178.66,2.48291,-145.657,348
1569933675,306.958,-35.7188,-14.734,178.66,2.48291,-145.657,348
1569933675,306.958,-35.7188,-14.734,178.66,2.48291,-145.657,348
1569933675,306.958,-35.7188,-14.734,178.66,2.48291,-145.657,344
1569933675,306.958,-35.7188,-14.734,178.66,2.48291,-145.657,344
1569933675,306.958,-35.7188,-14.734,178.66,2.48291,-145.657,344
1569933675,306.958,-35.7188,-14.734,178.682,2.48291,-145.657,344
1569933675,306.958,-35.7188,-14.734,178.682,2.48291,-145.657,344
1569933675,306.958,-35.7188,-14.734,178.682,2.48291,-145.657,344
1569933675,306.958,-35.7188,-14.734,178.682,2.48291,-145.657,344
1569933675,306.958,-35.7188,-14.734,178.682,2.48291,-145.657,340
1569933675,306.958,-35.7188,-14.734,178.66,2.48291,-145.657,340
1569933675,306.958,-35.7188,-14.734,178.66,2.48291,-145.657,340
1569933675,306.958,-35.7188,-14.734,178.66,2.48291,-145.657,340
1569933675,306.958,-35.7188,-14.734,178.66,2.48291,-145.657,340
1569933675,306.958,-35.7188,-14.734,178.66,2.48291,-145.657,340
1569933675,306.958,-35.7188,-14.734,178.66,2.48291,-145.657,340
1569933675,306.958,-35.7188,-14.734,178.66,2.48291,-145.657,340
1569933675,306.958,-35.7188,-14.734,178.66,2.48291,-145.657,340
1569933675,306.958,-35.7188,-14.734,178.66,2.48291,-145.657,340
1569933675,306.958,-35.7188,-14.734,178.66,2.48291,-145.657,340
1569933675,306.958,-35.7188,-14.734,178.66,2.48291,-145.657,340
1569933675,306.958,-35.7188,-14.734,178.66,2.48291,-145.657,340
1569933675,306.958,-35.7188,-14.734,178.66,2.48291,-145.657,340
1569933675,306.958,-35.7188,-14.734,178.66,2.48291,-145.657,340
1569933675,306.958,-35.7188,-14.734,178.66,2.48291,-145.657,340
1569933675,306.958,-35.7188,-14.734,178.682,2.48291,-145.657,340
1569933675,306.958,-35.7188,-14.734,178.682,2.48291,-145.657,340
1569933675,306.958,-35.7188,-14.734,178.682,2.48291,-145.657,340
1569933675,306.958,-35.7188,-14.734,178.682,2.48291,-145.657,340
1569933675,306.958,-35.7188,-14.734,178.682,2.48291,-145.657,340
1569933675,306.958,-35.6071,-14.734,178.682,2.48291,-145.657,340
1569933675,306.958,-35.6071,-14.734,178.682,2.48291,-145.657,340
1569933675,306.958,-35.6071,-14.734,178.682,2.48291,-145.657,340
1569933675,306.958,-35.6071,-14.734,178.682,2.48291,-145.657,340
1569933675,306.958,-35.6071,-14.734,178.682,2.48291,-145.679,340
1569933675,306.958,-35.6071,-14.734,178.682,2.48291,-145.679,340
1569933675,306.958,-35.6071,-14.734,178.682,2.48291,-145.679,340
1569933675,306.958,-35.6071,-14.734,178.682,2.48291,-145.679,340
1569933675,306.958,-35.6071,-14.734,178.682,2.48291,-145.679,340
1569933675,306.958,-35.6071,-14.734,178.682,2.48291,-145.679,340
1569933675,306.958,-35.6071,-14.734,178.682,2.48291,-145.679,340
1569933675,306.958,-35.6071,-14.734,178.682,2.48291,-145.679,340
1569933675,306.958,-35.6071,-14.734,178.682,2.48291,-145.679,340
1569933675,306.958,-35.6071,-14.734,178.682,2.48291,-145.679,340
1569933675,306.958,-35.6071,-14.734,178.682,2.48291,-145.679,340
1569933675,306.958,-35.6071,-14.734,178.682,2.48291,-145.679,340
1569933675,306.958,-35.6071,-14.734,178.682,2.48291,-145.679,340
1569933675,306.958,-35.6071,-14.6224,178.682,2.48291,-145.679,340
1569933675,306.958,-35.6071,-14.6224,178.682,2.48291,-145.679,340
1569933675,306.958,-35.6071,-14.6224,178.682,2.48291,-145.679,340
1569933675,306.958,-35.6071,-14.6224,178.682,2.48291,-145.657,340
1569933675,306.958,-35.6071,-14.6224,178.682,2.48291,-145.657,340
1569933675,306.958,-35.6071,-14.6224,178.682,2.48291,-145.657,340
1569933675,306.958,-35.6071,-14.6224,178.682,2.48291,-145.657,340
1569933675,306.958,-35.6071,-14.6224,178.682,2.48291,-145.657,340
1569933676,306.958,-35.6071,-14.6224,178.682,2.48291,-145.657,340
1569933676,306.958,-35.6071,-14.6224,178.682,2.48291,-145.657,340
1569933676,306.958,-35.6071,-14.6224,178.682,2.48291,-145.657,340
1569933676,306.958,-35.6071,-14.6224,178.682,2.48291,-145.657,340
1569933676,306.958,-35.6071,-14.6224,178.682,2.48291,-145.657,340
1569933676,306.958,-35.6071,-14.6224,178.682,2.48291,-145.657,340
1569933676,306.958,-35.7188,-14.6224,178.682,2.50488,-145.657,340
1569933676,306.958,-35.6071,-14.6224,178.682,2.50488,-145.657,340
1569933676,306.958,-35.6071,-14.6224,178.682,2.50488,-145.657,340
1569933676,306.958,-35.6071,-14.6224,178.682,2.50488,-145.657,340
1569933676,306.958,-35.6071,-14.6224,178.682,2.50488,-145.657,340
1569933676,306.958,-35.6071,-14.6224,178.682,2.50488,-145.657,340
1569933676,306.958,-35.6071,-14.6224,178.682,2.50488,-145.657,340
1569933676,306.958,-35.6071,-14.6224,178.682,2.50488,-145.657,340
1569933676,306.958,-35.6071,-14.6224,178.682,2.50488,-145.657,340
1569933676,306.958,-35.6071,-14.6224,178.682,2.50488,-145.657,340
1569933676,306.958,-35.6071,-14.6224,178.682,2.50488,-145.657,340
1569933676,306.958,-35.6071,-14.6224,178.682,2.50488,-145.657,340
1569933676,306.958,-35.6071,-14.6224,178.682,2.50488,-145.657,340
1569933676,306.958,-35.6071,-14.6224,178.682,2.50488,-145.657,340
1569933676,306.958,-35.6071,-14.6224,178.682,2.50488,-145.657,340
1569933676,306.958,-35.6071,-14.6224,178.682,2.48291,-145.657,340
1569933676,306.958,-35.6071,-14.6224,178.682,2.48291,-145.657,340
1569933676,306.958,-35.6071,-14.6224,178.682,2.48291,-145.657,340
1569933676,306.958,-35.6071,-14.6224,178.682,2.48291,-145.657,340
1569933676,306.958,-35.6071,-14.6224,178.682,2.48291,-145.679,340
1569933676,306.958,-35.6071,-14.6224,178.682,2.48291,-145.679,340
1569933676,306.958,-35.6071,-14.6224,178.682,2.48291,-145.679,340
1569933676,306.958,-35.6071,-14.6224,178.682,2.48291,-145.679,340
1569933676,306.958,-35.6071,-14.6224,178.682,2.48291,-145.679,340
1569933676,306.958,-35.6071,-14.6224,178.682,2.48291,-145.657,340
1569933676,306.958,-35.6071,-14.6224,178.682,2.48291,-145.657,340
1569933676,306.958,-35.6071,-14.6224,178.682,2.48291,-145.657,340
1569933676,306.958,-35.6071,-14.6224,178.682,2.48291,-145.657,340
1569933676,306.958,-35.6071,-14.6224,178.682,2.48291,-145.657,340
1569933676,306.958,-35.6071,-14.734,178.682,2.48291,-145.657,340
1569933676,306.958,-35.6071,-14.734,178.682,2.48291,-145.657,340
1569933676,306.958,-35.6071,-14.734,178.682,2.48291,-145.657,340
1569933676,306.958,-35.6071,-14.734,178.682,2.48291,-145.657,340
1569933676,306.958,-35.6071,-14.734,178.682,2.48291,-145.657,340
1569933676,306.958,-35.6071,-14.6224,178.682,2.48291,-145.657,344
1569933676,306.958,-35.6071,-14.6224,178.682,2.48291,-145.657,344
1569933676,306.958,-35.6071,-14.6224,178.682,2.50488,-145.657,344
1569933676,306.958,-35.6071,-14.6224,178.682,2.50488,-145.657,344
1569933676,306.958,-35.6071,-14.6224,178.682,2.50488,-145.657,344
1569933676,306.958,-35.6071,-14.6224,178.682,2.50488,-145.657,344
1569933676,306.958,-35.6071,-14.6224,178.682,2.50488,-145.657,344
1569933676,306.958,-35.6071,-14.6224,178.682,2.50488,-145.657,344
1569933676,306.958,-35.6071,-14.6224,178.682,2.50488,-145.657,344
1569933676,306.958,-35.6071,-14.6224,178.682,2.50488,-145.657,344
1569933676,306.958,-35.6071,-14.6224,178.682,2.50488,-145.657,344
1569933676,306.958,-35.6071,-14.6224,178.682,2.50488,-145.657,344
1569933676,306.958,-35.6071,-14.6224,178.682,2.50488,-145.657,344
1569933676,306.958,-35.6071,-14.6224,178.682,2.50488,-145.657,344
1569933676,306.958,-35.6071,-14.6224,178.682,2.50488,-145.657,344
1569933676,306.958,-35.6071,-14.6224,178.682,2.50488,-145.657,344
1569933676,306.958,-35.6071,-14.6224,178.682,2.50488,-145.657,344
1569933676,306.958,-35.6071,-14.6224,178.682,2.50488,-145.657,344
1569933676,306.958,-35.6071,-14.6224,178.682,2.50488,-145.657,344
1569933676,306.958,-35.6071,-14.6224,178.682,2.50488,-145.657,340
1569933676,306.958,-35.6071,-14.6224,178.682,2.50488,-145.657,340
1569933676,306.958,-35.6071,-14.6224,178.682,2.50488,-145.657,340
1569933676,306.958,-35.6071,-14.6224,178.66,2.50488,-145.679,340
1569933676,306.958,-35.6071,-14.6224,178.66,2.50488,-145.679,340
1569933676,306.958,-35.7188,-14.6224,178.66,2.50488,-145.679,340
1569933676,306.958,-35.7188,-14.6224,178.66,2.50488,-145.679,336
1569933676,306.958,-35.7188,-14.6224,178.66,2.50488,-145.679,336
1569933679,283.852,-10.604,-15.2921,178.792,2.10938,-145.679,356
1569933679,283.852,-10.604,-15.2921,178.792,2.10938,-145.679,356
1569933679,283.852,-10.604,-15.2921,178.792,2.10938,-145.679,356
1569933679,283.852,-10.604,-15.2921,178.792,2.10938,-145.679,352
1569933679,283.852,-10.604,-15.2921,178.792,2.10938,-145.679,352
1569933679,283.852,-10.604,-15.2921,178.792,2.10938,-145.679,352
1569933679,283.852,-10.604,-15.2921,178.77,2.10938,-145.679,352
1569933679,283.852,-10.604,-15.2921,178.77,2.10938,-145.679,352
1569933679,283.852,-10.604,-15.2921,178.77,2.10938,-145.679,352
1569933680,283.852,-10.604,-15.2921,178.77,2.10938,-145.679,352
1569933680,283.852,-10.604,-15.2921,178.77,2.10938,-145.679,352
1569933680,283.852,-10.604,-15.2921,178.77,2.10938,-145.679,352
1569933680,283.852,-10.604,-15.2921,178.77,2.10938,-145.679,352
1569933680,283.852,-10.604,-15.2921,178.77,2.10938,-145.679,352
1569933680,283.852,-10.604,-15.2921,178.77,2.10938,-145.679,352
1569933680,283.852,-10.604,-15.2921,178.77,2.10938,-145.679,352
1569933680,283.852,-10.604,-15.2921,178.77,2.10938,-145.679,356
1569933680,283.852,-10.604,-15.2921,178.77,2.10938,-145.679,356
1569933680,283.852,-10.604,-15.2921,178.77,2.10938,-145.679,356
1569933680,283.852,-10.604,-15.2921,178.77,2.10938,-145.679,356
1569933680,283.852,-10.604,-15.2921,178.77,2.10938,-145.679,356
1569933680,283.852,-10.604,-15.2921,178.77,2.10938,-145.679,356
1569933680,283.852,-10.604,-15.2921,178.77,2.10938,-145.679,356
1569933680,283.852,-10.604,-15.2921,178.77,2.10938,-145.679,356
1569933680,283.852,-10.604,-15.2921,178.77,2.0874,-145.679,356
1569933680,283.852,-10.604,-15.2921,178.792,2.0874,-145.679,356
1569933680,283.852,-10.604,-15.2921,178.792,2.0874,-145.679,356
1569933680,283.852,-10.604,-15.2921,178.792,2.0874,-145.679,360
1569933680,283.852,-10.604,-15.2921,178.792,2.0874,-145.679,360
1569933680,283.852,-10.604,-15.2921,178.792,2.0874,-145.679,360
1569933680,283.852,-10.604,-15.2921,178.792,2.0874,-145.679,360
1569933680,283.852,-10.604,-15.2921,178.792,2.0874,-145.679,360
1569933680,283.852,-10.604,-15.2921,178.792,2.0874,-145.679,360
1569933680,283.852,-10.604,-15.2921,178.792,2.0874,-145.679,360
1569933680,283.852,-10.604,-15.2921,178.792,2.0874,-145.679,360
1569933680,283.852,-10.604,-15.2921,178.792,2.10938,-145.679,360
1569933680,283.852,-10.604,-15.2921,178.792,2.10938,-145.679,360
1569933680,283.852,-10.604,-15.2921,178.792,2.10938,-145.679,360
1569933680,283.852,-10.604,-15.2921,178.792,2.10938,-145.679,360
1569933680,283.852,-10.604,-15.2921,178.792,2.10938,-145.679,360
1569933680,283.852,-10.604,-15.2921,178.792,2.10938,-145.679,360
1569933680,283.852,-10.604,-15.2921,178.792,2.10938,-145.679,360
1569933680,283.852,-10.604,-15.2921,178.792,2.10938,-145.679,360
1569933680,283.852,-10.604,-15.2921,178.792,2.10938,-145.679,360
1569933680,283.852,-10.604,-15.2921,178.792,2.10938,-145.679,360
1569933680,283.852,-10.604,-15.2921,178.792,2.10938,-145.679,360
1569933680,283.852,-10.604,-15.2921,178.792,2.10938,-145.679,360
1569933680,283.852,-10.604,-15.2921,178.792,2.10938,-145.679,360
1569933680,283.852,-10.604,-15.2921,178.792,2.10938,-145.679,360
1569933680,283.852,-10.604,-15.2921,178.792,2.10938,-145.679,360
1569933680,283.852,-10.604,-15.2921,178.792,2.10938,-145.679,360
1569933680,283.852,-10.604,-15.2921,178.792,2.10938,-145.679,360
1569933680,283.852,-10.604,-15.2921,178.792,2.10938,-145.679,360
1569933680,283.852,-10.604,-15.2921,178.792,2.10938,-145.679,360
1569933680,283.852,-10.604,-15.2921,178.792,2.10938,-145.679,360
1569933680,283.852,-10.604,-15.2921,178.792,2.10938,-145.679,360
1569933680,283.852,-10.604,-15.2921,178.792,2.10938,-145.679,360
1569933680,283.852,-10.604,-15.2921,178.792,2.10938,-145.679,360
1569933680,283.852,-10.604,-15.2921,178.792,2.10938,-145.679,360
1569933680,283.852,-10.604,-15.2921,178.792,2.10938,-145.679,360
1569933680,283.852,-10.604,-15.2921,178.792,2.10938,-145.679,360
1569933680,283.852,-10.604,-15.2921,178.792,2.10938,-145.679,360
1569933680,283.852,-10.604,-15.2921,178.792,2.10938,-145.679,360
1569933680,283.852,-10.604,-15.2921,178.792,2.10938,-145.679,360
1569933680,283.852,-10.604,-15.2921,178.792,2.10938,-145.679,360
1569933680,283.852,-10.604,-15.2921,178.792,2.10938,-145.679,360
1569933680,283.852,-10.604,-15.2921,178.792,2.10938,-145.679,360
1569933680,283.852,-10.604,-15.2921,178.792,2.10938,-145.679,360
1569933680,283.852,-10.604,-15.2921,178.792,2.10938,-145.679,360
1569933680,283.852,-10.604,-15.2921,178.792,2.10938,-145.679,364
1569933680,283.852,-10.604,-15.2921,178.792,2.10938,-145.679,364
1569933680,283.852,-10.604,-15.2921,178.792,2.10938,-145.679,364
1569933680,283.852,-10.604,-15.2921,178.792,2.10938,-145.679,364
1569933680,283.852,-10.604,-15.2921,178.792,2.10938,-145.679,364
1569933680,283.852,-10.604,-15.2921,178.792,2.0874,-145.679,364
1569933680,283.852,-10.604,-15.2921,178.792,2.0874,-145.679,364
1569933680,283.852,-10.604,-15.2921,178.792,2.0874,-145.679,364
1569933680,283.852,-10.604,-15.2921,178.792,2.0874,-145.679,364
1569933680,283.852,-10.604,-15.2921,178.792,2.0874,-145.679,364
1569933680,283.852,-10.604,-15.2921,178.792,2.0874,-145.679,364
1569933680,283.852,-10.604,-15.2921,178.792,2.0874,-145.679,364
1569933680,283.852,-10.604,-15.2921,178.792,2.0874,-145.679,364
1569933680,283.852,-10.604,-15.2921,178.792,2.0874,-145.679,364
1569933680,283.852,-10.604,-15.2921,178.792,2.0874,-145.679,364
1569933680,283.852,-10.604,-15.2921,178.792,2.0874,-145.679,364
1569933680,283.852,-10.604,-15.2921,178.792,2.0874,-145.679,364
1569933680,283.852,-10.604,-15.2921,178.792,2.0874,-145.679,364
1569933680,283.852,-10.604,-15.2921,178.792,2.0874,-145.679,364
1569933680,283.852,-10.604,-15.2921,178.792,2.0874,-145.679,364
1569933680,283.852,-10.604,-15.2921,178.77,2.0874,-145.679,364
1569933680,283.852,-10.604,-15.2921,178.77,2.0874,-145.679,364
1569933680,283.852,-10.604,-15.2921,178.77,2.0874,-145.679,364
1569933680,283.852,-10.604,-15.2921,178.77,2.0874,-145.679,364
1569933680,283.852,-10.604,-15.2921,178.77,2.0874,-145.679,364
1569933680,283.852,-10.604,-15.2921,178.77,2.0874,-145.679,364
1569933680,283.852,-10.604,-15.2921,178.77,2.0874,-145.679,364
1569933680,283.852,-10.604,-15.2921,178.77,2.0874,-145.679,364
1569933680,283.852,-10.604,-15.2921,178.77,2.0874,-145.679,364
1569933680,283.852,-10.604,-15.2921,178.77,2.0874,-145.679,364
1569933680,283.852,-10.604,-15.2921,178.792,2.0874,-145.679,364
1569933680,283.852,-10.604,-15.2921,178.792,2.0874,-145.679,364
1569933680,283.852,-10.604,-15.2921,178.792,2.0874,-145.679,364
1569933680,283.852,-10.604,-15.2921,178.792,2.0874,-145.679,364
1569933680,283.852,-10.604,-15.2921,178.792,2.0874,-145.679,364
1569933680,283.852,-10.604,-15.2921,178.792,2.0874,-145.679,364
1569933680,283.852,-10.604,-15.2921,178.792,2.0874,-145.679,364
1569933680,283.852,-10.604,-15.2921,178.792,2.0874,-145.679,364
1569933680,283.852,-10.604,-15.2921,178.792,2.0874,-145.679,364
1569933680,283.852,-10.604,-15.2921,178.792,2.0874,-145.679,364
1569933681,283.852,-10.604,-15.2921,178.792,2.0874,-145.679,364
1569933681,283.852,-10.604,-15.2921,178.792,2.0874,-145.679,364
1569933681,283.852,-10.604,-15.2921,178.792,2.0874,-145.679,364
1569933681,283.852,-10.604,-15.2921,178.792,2.0874,-145.679,364
1569933681,283.852,-10.604,-15.2921,178.792,2.0874,-145.679,364
1569933681,283.852,-10.604,-15.2921,178.792,2.0874,-145.679,364
1569933681,283.852,-10.604,-15.2921,178.792,2.0874,-145.679,364
1569933681,283.852,-10.604,-15.2921,178.792,2.0874,-145.679,360
1569933681,283.852,-10.604,-15.2921,178.792,2.0874,-145.679,360
1569933681,283.852,-10.604,-15.2921,178.792,2.0874,-145.679,360
1569933681,283.852,-10.604,-15.2921,178.792,2.0874,-145.679,360
1569933681,283.852,-10.604,-15.2921,178.792,2.0874,-145.679,360
1569933681,283.852,-10.604,-15.2921,178.792,2.0874,-145.679,360
1569933681,283.852,-10.604,-15.2921,178.792,2.0874,-145.679,360
1569933681,283.852,-10.604,-15.2921,178.792,2.0874,-145.679,360
1569933681,283.852,-10.604,-15.2921,178.792,2.0874,-145.679,360
1569933681,283.852,-10.604,-15.2921,178.792,2.0874,-145.679,360
1569933681,283.852,-10.604,-15.2921,178.792,2.0874,-145.679,360
1569933681,283.852,-10.604,-15.2921,178.792,2.0874,-145.679,360
1569933681,283.852,-10.604,-15.2921,178.792,2.0874,-145.679,360
1569933681,283.852,-10.604,-15.2921,178.792,2.0874,-145.679,360
1569933681,283.852,-10.604,-15.2921,178.77,2.0874,-145.679,360
1569933681,283.852,-10.604,-15.2921,178.77,2.0874,-145.679,360
1569933681,283.852,-10.604,-15.2921,178.77,2.0874,-145.679,360
1569933681,283.852,-10.604,-15.2921,178.77,2.0874,-145.679,360
1569933681,283.852,-10.604,-15.2921,178.77,2.0874,-145.679,360
1569933681,283.852,-10.604,-15.2921,178.77,2.0874,-145.679,360
1569933681,283.852,-10.604,-15.2921,178.77,2.0874,-145.679,360
1569933681,283.852,-10.604,-15.2921,178.77,2.0874,-145.679,360
1569933681,283.852,-10.604,-15.2921,178.77,2.0874,-145.679,360
1569933681,283.852,-10.604,-15.2921,178.77,2.0874,-145.679,360
1569933681,283.852,-10.604,-15.2921,178.77,2.0874,-145.679,360
1569933681,283.852,-10.604,-15.2921,178.792,2.0874,-145.679,360
1569933681,283.852,-10.604,-15.2921,178.792,2.0874,-145.679,360
1569933681,283.852,-10.604,-15.2921,178.792,2.0874,-145.679,360
1569933681,283.852,-10.604,-15.2921,178.792,2.0874,-145.679,360
1569933681,283.852,-10.604,-15.2921,178.792,2.0874,-145.679,360
1569933681,283.852,-10.604,-15.2921,178.792,2.0874,-145.679,360
1569933681,283.852,-10.604,-15.2921,178.792,2.0874,-145.679,360
1569933681,283.852,-10.604,-15.2921,178.792,2.0874,-145.679,360
1569933681,283.852,-10.604,-15.2921,178.792,2.0874,-145.679,360
1569933681,283.852,-10.604,-15.2921,178.792,2.0874,-145.679,360
1569933681,283.852,-10.604,-15.2921,178.792,2.0874,-145.679,360
1569933681,283.852,-10.604,-15.2921,178.792,2.0874,-145.679,360
1569933681,283.852,-10.604,-15.2921,178.792,2.0874,-145.679,360
1569933681,283.852,-10.604,-15.2921,178.792,2.0874,-145.679,364
1569933681,283.852,-10.604,-15.2921,178.792,2.0874,-145.679,364
1569933681,283.852,-10.604,-15.2921,178.792,2.0874,-145.679,364
1569933681,283.852,-10.604,-15.2921,178.792,2.0874,-145.679,364
1569933681,283.852,-10.604,-15.2921,178.792,2.0874,-145.679,364
1569933681,283.852,-10.604,-15.2921,178.792,2.0874,-145.679,364
1569933681,283.852,-10.604,-15.2921,178.792,2.0874,-145.679,364
1569933681,283.852,-10.604,-15.2921,178.792,2.0874,-145.679,364
1569933681,283.852,-10.604,-15.2921,178.792,2.0874,-145.679,364
1569933681,283.852,-10.604,-15.2921,178.792,2.0874,-145.679,364
1569933681,283.852,-10.604,-15.2921,178.792,2.0874,-145.679,364
1569933681,283.852,-10.604,-15.2921,178.792,2.0874,-145.679,360
1569933681,283.852,-10.604,-15.2921,178.792,2.0874,-145.679,360
1569933681,283.852,-10.604,-15.2921,178.792,2.0874,-145.679,360
1569933681,283.852,-10.604,-15.2921,178.792,2.0874,-145.679,360
1569933681,283.852,-10.604,-15.2921,178.792,2.0874,-145.679,360
1569933681,283.852,-10.604,-15.2921,178.792,2.0874,-145.679,360
1569933681,283.852,-10.604,-15.2921,178.792,2.0874,-145.679,360
1569933681,283.852,-10.604,-15.2921,178.792,2.0874,-145.679,360
1569933681,283.852,-10.604,-15.2921,178.792,2.0874,-145.679,360
1569933681,283.852,-10.604,-15.2921,178.792,2.0874,-145.679,360
1569933681,283.852,-10.604,-15.2921,178.792,2.0874,-145.679,360
1569933681,283.852,-10.604,-15.2921,178.792,2.0874,-145.679,360
1569933681,283.852,-10.604,-15.2921,178.792,2.0874,-145.679,360
1569933681,283.852,-10.604,-15.2921,178.792,2.0874,-145.679,360
1569933681,283.852,-10.604,-15.2921,178.792,2.10938,-145.679,360
1569933681,283.852,-10.604,-15.2921,178.792,2.10938,-145.679,360
1569933681,283.852,-10.604,-15.2921,178.792,2.10938,-145.679,360
1569933681,283.852,-10.604,-15.2921,178.792,2.10938,-145.679,360
1569933681,283.852,-10.604,-15.2921,178.792,2.10938,-145.679,360
1569933681,283.852,-10.604,-15.2921,178.792,2.10938,-145.679,360
1569933681,283.852,-10.604,-15.2921,178.792,2.10938,-145.679,360
1569933681,283.852,-10.604,-15.2921,178.792,2.10938,-145.679,360
1569933681,283.852,-10.604,-15.2921,178.792,2.10938,-145.679,360
1569933681,283.852,-10.604,-15.2921,178.792,2.10938,-145.679,360
1569933681,283.852,-10.604,-15.2921,178.792,2.10938,-145.679,360
1569933681,283.852,-10.604,-15.2921,178.792,2.10938,-145.679,360
1569933681,283.852,-10.604,-15.2921,178.792,2.10938,-145.679,360
1569933681,283.852,-10.604,-15.2921,178.792,2.10938,-145.679,360
1569933681,283.852,-10.604,-15.2921,178.792,2.10938,-145.679,360
1569933681,283.852,-10.604,-15.2921,178.792,2.10938,-145.679,360
1569933681,283.852,-10.604,-15.2921,178.792,2.10938,-145.679,360
1569933681,283.852,-10.604,-15.2921,178.792,2.10938,-145.679,360
1569933681,283.852,-10.604,-15.2921,178.792,2.10938,-145.679,360
1569933681,283.852,-10.604,-15.2921,178.792,2.10938,-145.679,360
1569933681,283.852,-10.604,-15.2921,178.792,2.10938,-145.679,360
1569933681,283.852,-10.604,-15.2921,178.792,2.10938,-145.679,360
1569933681,283.852,-10.604,-15.2921,178.792,2.10938,-145.679,360
1569933681,283.852,-10.604,-15.2921,178.792,2.10938,-145.679,360
1569933681,283.852,-10.604,-15.2921,178.792,2.10938,-145.679,360
1569933681,283.852,-10.604,-15.2921,178.792,2.10938,-145.679,360
1569933681,283.852,-10.604,-15.2921,178.792,2.10938,-145.679,360
1569933681,283.852,-10.604,-15.2921,178.792,2.10938,-145.679,360
1569933681,283.852,-10.604,-15.2921,178.792,2.10938,-145.679,360
1569933682,283.852,-10.604,-15.2921,178.792,2.10938,-145.679,360
1569933682,283.852,-10.604,-15.2921,178.792,2.10938,-145.679,360
1569933682,283.852,-10.604,-15.2921,178.792,2.10938,-145.679,360
1569933682,283.852,-10.604,-15.2921,178.792,2.10938,-145.679,360
1569933682,283.852,-10.604,-15.2921,178.792,2.10938,-145.679,360
1569933682,283.852,-10.604,-15.2921,178.792,2.10938,-145.679,360
1569933682,283.852,-10.604,-15.2921,178.792,2.10938,-145.679,360
1569933682,283.852,-10.604,-15.2921,178.792,2.10938,-145.679,360
1569933682,283.852,-10.604,-15.2921,178.792,2.0874,-145.679,360
1569933682,283.852,-10.604,-15.2921,178.792,2.0874,-145.679,360
1569933682,283.852,-10.604,-15.2921,178.792,2.0874,-145.679,360
1569933682,283.852,-10.604,-15.2921,178.792,2.0874,-145.679,360
1569933682,283.852,-10.604,-15.2921,178.792,2.0874,-145.679,360
1569933682,283.852,-10.604,-15.2921,178.792,2.0874,-145.679,360
1569933682,283.852,-10.604,-15.2921,178.792,2.0874,-145.679,360
1569933682,283.852,-10.604,-15.2921,178.792,2.0874,-145.679,360
1569933682,283.852,-10.604,-15.2921,178.792,2.0874,-145.679,360
1569933682,283.852,-10.604,-15.2921,178.792,2.0874,-145.679,360
1569933682,283.852,-10.604,-15.2921,178.792,2.0874,-145.679,360
1569933682,283.852,-10.604,-15.2921,178.792,2.0874,-145.679,360
1569933682,283.852,-10.604,-15.2921,178.792,2.0874,-145.679,360
1569933682,283.852,-10.604,-15.2921,178.792,2.0874,-145.679,360
1569933682,283.852,-10.604,-15.2921,178.792,2.0874,-145.679,360
1569933682,283.852,-10.604,-15.2921,178.792,2.0874,-145.679,360
1569933682,283.852,-10.604,-15.2921,178.792,2.0874,-145.679,360
1569933682,283.852,-10.604,-15.2921,178.792,2.0874,-145.679,360
1569933682,283.852,-10.604,-15.2921,178.792,2.0874,-145.679,364
1569933682,283.852,-10.604,-15.2921,178.792,2.0874,-145.679,364
1569933682,283.852,-10.604,-15.2921,178.792,2.10938,-145.679,364
1569933682,283.852,-10.604,-15.2921,178.792,2.10938,-145.679,364
1569933682,283.852,-10.604,-15.2921,178.792,2.10938,-145.679,364
1569933682,283.852,-10.604,-15.2921,178.792,2.10938,-145.679,364
1569933682,283.852,-10.604,-15.2921,178.792,2.10938,-145.679,360
1569933682,283.852,-10.604,-15.2921,178.792,2.10938,-145.679,360
1569933682,283.852,-10.604,-15.2921,178.792,2.0874,-145.679,360
1569933682,283.852,-10.604,-15.2921,178.792,2.0874,-145.679,360
1569933682,283.852,-10.604,-15.2921,178.792,2.0874,-145.679,360
1569933682,283.852,-10.604,-15.2921,178.792,2.0874,-145.679,360
1569933682,283.852,-10.604,-15.2921,178.792,2.0874,-145.679,360
1569933682,283.852,-10.604,-15.2921,178.792,2.0874,-145.679,360
1569933682,283.852,-10.604,-15.2921,178.792,2.10938,-145.679,360
1569933682,283.852,-10.604,-15.2921,178.792,2.10938,-145.679,360
1569933682,283.852,-10.604,-15.2921,178.792,2.10938,-145.679,360
1569933682,283.852,-10.604,-15.2921,178.792,2.10938,-145.679,360
1569933682,283.852,-10.604,-15.2921,178.792,2.10938,-145.679,360
1569933682,283.852,-10.604,-15.2921,178.792,2.10938,-145.679,360
1569933682,283.852,-10.604,-15.2921,178.792,2.10938,-145.679,360
1569933682,283.852,-10.604,-15.2921,178.792,2.10938,-145.679,360
1569933682,283.852,-10.604,-15.2921,178.792,2.10938,-145.679,360
1569933682,283.852,-10.604,-15.2921,178.792,2.10938,-145.679,360
1569933682,283.852,-10.604,-15.2921,178.792,2.10938,-145.679,360
1569933682,283.852,-10.604,-15.2921,178.792,2.10938,-145.679,360
1569933682,283.852,-10.604,-15.2921,178.792,2.10938,-145.679,360
1569933682,283.852,-10.604,-15.2921,178.792,2.10938,-145.679,360
1569933682,283.852,-10.604,-15.2921,178.792,2.10938,-145.679,360
1569933682,283.852,-10.604,-15.2921,178.792,2.10938,-145.679,360
1569933682,283.852,-10.604,-15.2921,178.792,2.10938,-145.679,360
1569933682,283.852,-10.604,-15.2921,178.792,2.10938,-145.679,360
1569933682,283.852,-10.604,-15.2921,178.77,2.10938,-145.679,356
1569933682,283.852,-10.604,-15.2921,178.77,2.10938,-145.679,356
1569933682,283.852,-10.604,-15.2921,178.77,2.10938,-145.679,356
1569933682,283.852,-10.604,-15.2921,178.77,2.10938,-145.679,356
1569933682,283.852,-10.604,-15.2921,178.77,2.10938,-145.679,356
1569933682,283.852,-10.604,-15.2921,178.792,2.10938,-145.679,356
1569933682,283.852,-10.604,-15.2921,178.792,2.10938,-145.679,356
1569933682,283.852,-10.604,-15.2921,178.792,2.10938,-145.679,356
1569933682,283.852,-10.604,-15.2921,178.792,2.10938,-145.679,356
1569933682,283.852,-10.604,-15.2921,178.792,2.10938,-145.679,356
1569933682,283.852,-10.604,-15.2921,178.792,2.10938,-145.679,356
1569933682,283.852,-10.604,-15.2921,178.792,2.10938,-145.679,356
1569933682,283.852,-10.604,-15.2921,178.792,2.10938,-145.679,356
1569933682,283.852,-10.604,-15.2921,178.792,2.10938,-145.679,356
1569933682,283.852,-10.604,-15.2921,178.792,2.0874,-145.679,356
1569933682,283.852,-10.604,-15.2921,178.792,2.0874,-145.679,356
1569933682,283.852,-10.604,-15.2921,178.792,2.0874,-145.679,356
1569933682,283.852,-10.604,-15.2921,178.792,2.0874,-145.679,356
1569933682,283.852,-10.604,-15.2921,178.792,2.0874,-145.679,360
1569933682,283.852,-10.604,-15.2921,178.792,2.0874,-145.679,360
1569933682,283.852,-10.604,-15.2921,178.792,2.0874,-145.679,360
1569933682,283.852,-10.604,-15.2921,178.792,2.0874,-145.679,360
1569933682,283.852,-10.604,-15.2921,178.792,2.0874,-145.679,360
1569933682,283.852,-10.604,-15.2921,178.792,2.0874,-145.679,360
1569933682,283.852,-10.604,-15.2921,178.792,2.0874,-145.679,364
1569933682,283.852,-10.604,-15.2921,178.792,2.0874,-145.679,364
1569933682,283.852,-10.604,-15.2921,178.77,2.0874,-145.679,364
1569933682,283.852,-10.604,-15.2921,178.77,2.0874,-145.679,364
1569933682,283.852,-10.604,-15.2921,178.77,2.0874,-145.679,364
1569933682,283.852,-10.604,-15.2921,178.77,2.0874,-145.679,364
1569933682,283.852,-10.604,-15.2921,178.77,2.0874,-145.679,364
1569933682,283.852,-10.604,-15.2921,178.77,2.0874,-145.679,364
1569933682,283.852,-10.604,-15.2921,178.77,2.0874,-145.679,364
1569933682,283.852,-10.604,-15.2921,178.77,2.0874,-145.679,364
1569933682,283.852,-10.604,-15.2921,178.77,2.0874,-145.679,364
1569933682,283.852,-10.604,-15.2921,178.77,2.0874,-145.679,368
1569933682,283.852,-10.604,-15.2921,178.77,2.0874,-145.679,368
1569933682,283.852,-10.604,-15.2921,178.77,2.0874,-145.679,368
1569933682,283.852,-10.604,-15.2921,178.77,2.0874,-145.679,368
1569933682,283.852,-10.604,-15.2921,178.77,2.0874,-145.679,368
1569933682,283.852,-10.604,-15.2921,178.77,2.0874,-145.679,368
1569933682,283.852,-10.604,-15.2921,178.77,2.0874,-145.679,368
1569933682,283.852,-10.604,-15.2921,178.77,2.0874,-145.679,368
1569933683,283.852,-10.604,-15.2921,178.77,2.0874,-145.679,368
1569933683,283.852,-10.604,-15.2921,178.792,2.0874,-145.679,368
1569933683,283.852,-10.604,-15.2921,178.792,2.0874,-145.679,368
1569933683,283.852,-10.604,-15.2921,178.792,2.0874,-145.679,368
1569933683,283.852,-10.604,-15.2921,178.792,2.0874,-145.679,368
1569933683,283.852,-10.604,-15.2921,178.792,2.0874,-145.679,368
1569933683,283.852,-10.604,-15.2921,178.792,2.0874,-145.679,368
1569933683,283.852,-10.604,-15.2921,178.792,2.0874,-145.679,368
1569933683,283.852,-10.604,-15.2921,178.792,2.0874,-145.679,368
1569933683,283.852,-10.604,-15.2921,178.792,2.0874,-145.679,368
1569933683,283.852,-10.604,-15.2921,178.792,2.0874,-145.679,368
1569933683,283.852,-10.604,-15.2921,178.792,2.0874,-145.679,368
1569933683,283.852,-10.604,-15.2921,178.792,2.0874,-145.679,368
1569933683,283.852,-10.604,-15.2921,178.792,2.0874,-145.679,368
1569933683,283.852,-10.604,-15.2921,178.792,2.0874,-145.679,368
1569933683,283.852,-10.604,-15.2921,178.792,2.0874,-145.679,368
1569933683,283.852,-10.604,-15.2921,178.792,2.0874,-145.679,368
1569933683,283.852,-10.604,-15.2921,178.792,2.0874,-145.679,368
1569933683,283.852,-10.604,-15.2921,178.792,2.0874,-145.679,368
1569933683,283.852,-10.604,-15.2921,178.792,2.0874,-145.679,368
1569933683,283.852,-10.604,-15.2921,178.792,2.0874,-145.679,368
1569933683,283.852,-10.604,-15.2921,178.792,2.0874,-145.679,368
1569933683,283.852,-10.604,-15.2921,178.792,2.0874,-145.679,368
1569933683,283.852,-10.604,-15.2921,178.792,2.0874,-145.679,368
1569933683,283.852,-10.604,-15.2921,178.792,2.0874,-145.679,368
1569933683,283.852,-10.604,-15.2921,178.792,2.0874,-145.679,368
1569933683,283.852,-10.604,-15.2921,178.792,2.0874,-145.679,368
1569933683,283.852,-10.604,-15.2921,178.792,2.0874,-145.679,368
1569933683,283.852,-10.604,-15.2921,178.792,2.0874,-145.679,368
1569933683,283.852,-10.604,-15.2921,178.792,2.0874,-145.679,368
1569933683,283.852,-10.604,-15.2921,178.792,2.0874,-145.679,368
1569933683,283.852,-10.604,-15.2921,178.792,2.0874,-145.679,368
1569933683,283.852,-10.604,-15.2921,178.792,2.0874,-145.679,368
1569933683,283.852,-10.604,-15.2921,178.792,2.0874,-145.679,368
1569933683,283.852,-10.604,-15.2921,178.792,2.0874,-145.679,368
1569933683,283.852,-10.604,-15.2921,178.792,2.0874,-145.679,368
1569933683,283.852,-10.604,-15.2921,178.792,2.0874,-145.679,368
1569933683,283.852,-10.604,-15.2921,178.792,2.0874,-145.679,368
1569933683,283.852,-10.604,-15.2921,178.792,2.0874,-145.679,368
1569933683,283.852,-10.604,-15.2921,178.792,2.0874,-145.679,368
1569933683,283.852,-10.604,-15.2921,178.792,2.0874,-145.679,368
1569933683,283.852,-10.604,-15.2921,178.792,2.0874,-145.679,368
1569933683,283.852,-10.604,-15.2921,178.792,2.0874,-145.679,368
1569933683,283.852,-10.604,-15.2921,178.792,2.0874,-145.679,368
1569933683,283.852,-10.604,-15.2921,178.792,2.0874,-145.679,368
1569933683,283.852,-10.604,-15.2921,178.792,2.0874,-145.679,368
1569933683,283.852,-10.604,-15.4037,178.792,2.0874,-145.679,368
1569933683,283.852,-10.604,-15.4037,178.792,2.0874,-145.679,368
1569933683,283.852,-10.604,-15.4037,178.792,2.0874,-145.679,368
1569933683,283.852,-10.604,-15.4037,178.792,2.0874,-145.679,368
1569933683,283.852,-10.604,-15.4037,178.792,2.0874,-145.679,368
1569933683,283.852,-10.604,-15.4037,178.792,2.0874,-145.679,368
1569933683,283.852,-10.604,-15.4037,178.792,2.0874,-145.679,368
1569933683,283.852,-10.604,-15.4037,178.792,2.0874,-145.679,368
1569933683,283.852,-10.604,-15.4037,178.792,2.0874,-145.679,368
1569933683,283.852,-10.604,-15.4037,178.792,2.0874,-145.679,364
1569933683,283.852,-10.604,-15.2921,178.792,2.0874,-145.679,364
1569933683,283.852,-10.604,-15.2921,178.792,2.0874,-145.679,364
1569933683,283.852,-10.604,-15.2921,178.792,2.0874,-145.679,364
1569933683,283.852,-10.604,-15.2921,178.792,2.0874,-145.679,364
1569933683,283.852,-10.604,-15.2921,178.792,2.0874,-145.679,364
1569933683,283.852,-10.604,-15.2921,178.792,2.0874,-145.679,364
1569933683,283.852,-10.604,-15.2921,178.792,2.0874,-145.679,364
1569933683,283.852,-10.604,-15.2921,178.792,2.0874,-145.679,364
1569933683,283.852,-10.604,-15.4037,178.792,2.0874,-145.679,364
1569933683,283.852,-10.604,-15.4037,178.792,2.0874,-145.679,364
1569933683,283.852,-10.604,-15.4037,178.792,2.0874,-145.679,364
1569933683,283.852,-10.604,-15.4037,178.792,2.0874,-145.679,364
1569933683,283.852,-10.604,-15.4037,178.792,2.0874,-145.679,360
1569933683,283.852,-10.604,-15.4037,178.792,2.0874,-145.679,360
1569933683,283.852,-10.604,-15.4037,178.792,2.0874,-145.679,360
1569933683,283.964,-10.604,-15.4037,178.792,2.0874,-145.679,360
1569933683,283.964,-10.604,-15.4037,178.792,2.0874,-145.679,360
1569933683,283.964,-10.604,-15.4037,178.792,2.0874,-145.679,356
1569933683,283.964,-10.604,-15.4037,178.792,2.0874,-145.679,356
1569933683,283.852,-10.604,-15.4037,178.792,2.0874,-145.679,356
1569933683,283.964,-10.604,-15.2921,178.792,2.0874,-145.679,356
1569933683,283.964,-10.604,-15.2921,178.792,2.0874,-145.679,356
1569933683,283.852,-10.604,-15.2921,178.792,2.0874,-145.679,356
1569933683,283.852,-10.604,-15.2921,178.792,2.0874,-145.679,356
1569933683,283.852,-10.604,-15.2921,178.792,2.0874,-145.679,356
1569933683,283.852,-10.604,-15.2921,178.77,2.10938,-145.679,356
1569933683,283.852,-10.604,-15.2921,178.77,2.10938,-145.679,356
1569933683,283.852,-10.604,-15.2921,178.77,2.10938,-145.679,356
1569933683,283.964,-10.604,-15.2921,178.77,2.10938,-145.679,356
1569933683,283.964,-10.604,-15.2921,178.792,2.10938,-145.679,356
1569933683,283.964,-10.604,-15.2921,178.792,2.10938,-145.679,356
1569933683,283.964,-10.604,-15.2921,178.792,2.10938,-145.679,356
1569933683,283.964,-10.604,-15.2921,178.792,2.10938,-145.679,356
1569933683,283.964,-10.604,-15.2921,178.792,2.10938,-145.679,356
1569933683,283.964,-10.604,-15.2921,178.792,2.10938,-145.679,356
1569933683,283.964,-10.604,-15.2921,178.792,2.10938,-145.679,356
1569933683,283.964,-10.604,-15.2921,178.792,2.10938,-145.679,356
1569933683,283.964,-10.604,-15.2921,178.792,2.10938,-145.679,356
1569933683,283.964,-10.604,-15.2921,178.792,2.10938,-145.679,356
1569933683,283.964,-10.604,-15.2921,178.792,2.10938,-145.679,356
1569933683,283.964,-10.604,-15.2921,178.792,2.10938,-145.679,356
1569933683,283.964,-10.604,-15.2921,178.792,2.10938,-145.679,356
1569933683,283.964,-10.604,-15.2921,178.792,2.10938,-145.679,356
1569933683,283.964,-10.604,-15.2921,178.792,2.10938,-145.679,356
1569933684,283.964,-10.604,-15.2921,178.792,2.10938,-145.679,356
1569933684,283.964,-10.604,-15.2921,178.792,2.10938,-145.679,356
1569933684,283.964,-10.604,-15.2921,178.792,2.10938,-145.679,356
1569933684,283.964,-10.604,-15.2921,178.792,2.10938,-145.679,356
1569933684,283.964,-10.604,-15.2921,178.792,2.10938,-145.679,356
1569933684,283.964,-10.604,-15.2921,178.792,2.10938,-145.679,356
1569933684,283.964,-10.604,-15.2921,178.792,2.10938,-145.679,356
1569933684,283.964,-10.604,-15.2921,178.77,2.10938,-145.679,356
1569933684,283.964,-10.604,-15.2921,178.77,2.10938,-145.679,356
1569933684,283.964,-10.604,-15.2921,178.77,2.10938,-145.679,356
1569933684,283.964,-10.604,-15.2921,178.77,2.10938,-145.679,356
1569933684,283.852,-10.604,-15.2921,178.77,2.10938,-145.679,356
1569933684,283.852,-10.604,-15.2921,178.792,2.10938,-145.679,356
1569933684,283.852,-10.604,-15.2921,178.792,2.10938,-145.679,356
1569933684,283.852,-10.604,-15.2921,178.792,2.0874,-145.679,356
1569933684,283.852,-10.604,-15.2921,178.792,2.0874,-145.679,356
1569933684,283.852,-10.604,-15.2921,178.792,2.0874,-145.679,356
1569933684,283.852,-10.604,-15.2921,178.792,2.0874,-145.679,356
1569933684,283.852,-10.604,-15.2921,178.792,2.0874,-145.679,356
1569933684,283.852,-10.604,-15.2921,178.792,2.0874,-145.679,356
1569933684,283.852,-10.604,-15.2921,178.792,2.0874,-145.679,356
1569933684,283.852,-10.604,-15.4037,178.792,2.0874,-145.679,356
1569933684,283.852,-10.604,-15.4037,178.792,2.0874,-145.679,356
1569933684,283.852,-10.604,-15.4037,178.792,2.0874,-145.679,356
1569933684,283.852,-10.604,-15.4037,178.792,2.0874,-145.679,356
1569933684,283.852,-10.604,-15.4037,178.792,2.0874,-145.679,356
1569933684,283.852,-10.604,-15.4037,178.792,2.0874,-145.679,356
1569933684,283.852,-10.604,-15.4037,178.792,2.0874,-145.679,356
1569933684,283.852,-10.604,-15.4037,178.792,2.0874,-145.679,356
1569933684,283.852,-10.604,-15.4037,178.792,2.0874,-145.679,356
1569933684,283.852,-10.604,-15.4037,178.792,2.0874,-145.679,356
1569933684,283.852,-10.604,-15.2921,178.792,2.0874,-145.679,356
1569933684,283.852,-10.604,-15.2921,178.792,2.0874,-145.679,356
1569933684,283.852,-10.604,-15.2921,178.792,2.0874,-145.679,356
1569933684,283.852,-10.604,-15.2921,178.792,2.10938,-145.679,356
1569933684,283.852,-10.604,-15.2921,178.792,2.10938,-145.679,356
1569933684,283.852,-10.604,-15.2921,178.792,2.10938,-145.679,360
1569933684,283.852,-10.604,-15.2921,178.792,2.10938,-145.679,360
1569933684,283.852,-10.604,-15.2921,178.792,2.10938,-145.679,360
1569933684,283.852,-10.604,-15.2921,178.792,2.10938,-145.679,360
1569933684,283.852,-10.604,-15.2921,178.792,2.10938,-145.679,360
1569933684,283.852,-10.604,-15.2921,178.792,2.10938,-145.679,360
1569933684,283.852,-10.604,-15.2921,178.792,2.10938,-145.679,360
1569933684,283.852,-10.604,-15.2921,178.792,2.10938,-145.679,360
1569933684,283.852,-10.604,-15.2921,178.792,2.10938,-145.679,360
1569933684,283.852,-10.604,-15.2921,178.792,2.10938,-145.679,360
1569933684,283.852,-10.604,-15.2921,178.792,2.10938,-145.679,360
1569933684,283.852,-10.604,-15.2921,178.792,2.10938,-145.679,360
1569933684,283.852,-10.604,-15.2921,178.792,2.10938,-145.679,360
1569933684,283.852,-10.604,-15.2921,178.792,2.10938,-145.679,360
1569933684,283.852,-10.604,-15.2921,178.792,2.10938,-145.679,360
1569933684,283.852,-10.604,-15.2921,178.792,2.10938,-145.679,360
1569933684,283.852,-10.604,-15.2921,178.792,2.10938,-145.679,360
1569933684,283.852,-10.604,-15.2921,178.792,2.10938,-145.679,360
1569933684,283.852,-10.604,-15.2921,178.792,2.10938,-145.679,360
1569933684,283.852,-10.604,-15.2921,178.792,2.10938,-145.679,360
1569933684,283.852,-10.604,-15.2921,178.77,2.10938,-145.679,360
1569933684,283.852,-10.604,-15.2921,178.77,2.10938,-145.679,360
1569933684,283.852,-10.604,-15.2921,178.77,2.10938,-145.679,360
1569933684,283.852,-10.604,-15.2921,178.77,2.10938,-145.679,364
1569933684,283.852,-10.604,-15.2921,178.792,2.10938,-145.679,364
1569933684,283.852,-10.604,-15.2921,178.792,2.10938,-145.679,364
1569933684,283.852,-10.604,-15.2921,178.792,2.10938,-145.679,364
1569933684,283.852,-10.604,-15.2921,178.792,2.10938,-145.679,364
1569933684,283.852,-10.604,-15.2921,178.792,2.10938,-145.679,364
1569933684,283.852,-10.604,-15.2921,178.792,2.10938,-145.679,364
1569933684,283.852,-10.604,-15.2921,178.792,2.10938,-145.679,364
1569933684,283.852,-10.604,-15.2921,178.792,2.10938,-145.679,364
1569933684,283.852,-10.604,-15.2921,178.792,2.10938,-145.679,368
1569933684,283.852,-10.604,-15.2921,178.792,2.10938,-145.679,368
1569933684,283.852,-10.604,-15.2921,178.792,2.10938,-145.679,368
1569933684,283.852,-10.604,-15.2921,178.792,2.10938,-145.679,368
1569933684,283.852,-10.604,-15.2921,178.792,2.10938,-145.679,368
1569933684,283.852,-10.604,-15.2921,178.792,2.10938,-145.679,368
1569933684,283.852,-10.604,-15.2921,178.792,2.10938,-145.679,368
1569933684,283.852,-10.604,-15.2921,178.792,2.10938,-145.679,368
1569933684,283.852,-10.604,-15.2921,178.792,2.10938,-145.679,368
1569933684,283.852,-10.604,-15.2921,178.792,2.10938,-145.679,368
1569933684,283.852,-10.604,-15.2921,178.792,2.10938,-145.679,368
1569933684,283.852,-10.604,-15.2921,178.792,2.10938,-145.657,368
1569933684,283.852,-10.604,-15.2921,178.792,2.10938,-145.657,368
1569933684,283.852,-10.604,-15.2921,178.792,2.10938,-145.657,368
1569933684,283.852,-10.604,-15.2921,178.792,2.10938,-145.657,368
1569933684,283.852,-10.604,-15.2921,178.792,2.10938,-145.657,368
1569933684,283.852,-10.604,-15.2921,178.792,2.10938,-145.657,368
1569933684,283.852,-10.604,-15.2921,178.792,2.10938,-145.657,368
1569933684,283.852,-10.604,-15.2921,178.792,2.10938,-145.657,368
1569933684,283.852,-10.604,-15.2921,178.792,2.10938,-145.657,368
1569933684,283.852,-10.604,-15.2921,178.792,2.10938,-145.657,368
1569933684,283.852,-10.604,-15.2921,178.792,2.10938,-145.657,368
1569933684,283.852,-10.604,-15.2921,178.792,2.10938,-145.657,368
1569933688,245.566,30.4726,-15.8502,178.857,1.99951,-145.261,340
1569933688,245.566,30.4726,-15.8502,178.857,1.99951,-145.261,340
1569933688,245.566,30.4726,-15.8502,178.857,1.99951,-145.261,340
1569933688,245.566,30.4726,-15.8502,178.857,1.99951,-145.261,340
1569933688,245.566,30.4726,-15.8502,178.857,1.99951,-145.261,340
1569933688,245.566,30.4726,-15.8502,178.857,1.99951,-145.261,340
1569933688,245.566,30.4726,-15.8502,178.857,1.99951,-145.261,340
1569933688,245.566,30.4726,-15.8502,178.857,1.99951,-145.261,340
1569933688,245.566,30.4726,-15.8502,178.857,1.99951,-145.261,340
1569933688,245.566,30.4726,-15.8502,178.857,1.99951,-145.261,340
1569933688,245.566,30.4726,-15.8502,178.857,1.99951,-145.261,340
1569933688,245.566,30.4726,-15.8502,178.857,1.99951,-145.261,340
1569933688,245.566,30.4726,-15.8502,178.857,1.99951,-145.261,340
1569933688,245.566,30.4726,-15.8502,178.857,1.99951,-145.261,340
1569933688,245.566,30.4726,-15.8502,178.857,1.99951,-145.261,340
1569933688,245.566,30.4726,-15.8502,178.857,1.99951,-145.261,340
1569933688,245.566,30.4726,-15.8502,178.857,1.99951,-145.261,340
1569933688,245.566,30.4726,-15.8502,178.857,1.99951,-145.261,340
1569933688,245.566,30.4726,-15.8502,178.857,1.99951,-145.261,340
1569933688,245.566,30.4726,-15.8502,178.857,1.99951,-145.261,340
1569933688,245.566,30.4726,-15.8502,178.857,1.99951,-145.261,340
1569933688,245.566,30.4726,-15.8502,178.857,1.99951,-145.261,340
1569933688,245.566,30.4726,-15.8502,178.857,1.99951,-145.261,340
1569933688,245.566,30.4726,-15.8502,178.857,1.99951,-145.239,340
1569933688,245.566,30.4726,-15.8502,178.857,1.99951,-145.239,340
1569933688,245.566,30.4726,-15.8502,178.857,1.99951,-145.239,340
1569933688,245.566,30.4726,-15.8502,178.857,1.99951,-145.261,340
1569933688,245.566,30.4726,-15.8502,178.857,1.99951,-145.239,340
1569933688,245.566,30.4726,-15.8502,178.857,1.99951,-145.261,344
1569933688,245.566,30.4726,-15.8502,178.857,1.99951,-145.261,344
1569933688,245.566,30.4726,-15.8502,178.857,1.99951,-145.261,344
1569933688,245.566,30.4726,-15.8502,178.857,1.99951,-145.261,344
1569933688,245.566,30.4726,-15.8502,178.857,1.99951,-145.261,344
1569933688,245.566,30.4726,-15.8502,178.857,1.99951,-145.261,344
1569933688,245.566,30.4726,-15.8502,178.857,1.99951,-145.261,344
1569933688,245.566,30.4726,-15.8502,178.857,1.99951,-145.261,344
1569933688,245.566,30.4726,-15.8502,178.857,1.99951,-145.261,344
1569933688,245.566,30.4726,-15.8502,178.857,1.99951,-145.261,344
1569933688,245.566,30.4726,-15.8502,178.857,1.99951,-145.261,344
1569933688,245.566,30.4726,-15.8502,178.857,1.99951,-145.261,344
1569933688,245.566,30.4726,-15.8502,178.857,1.99951,-145.261,344
1569933688,245.566,30.4726,-15.8502,178.857,1.99951,-145.261,344
1569933688,245.566,30.4726,-15.8502,178.857,1.99951,-145.261,344
1569933688,245.566,30.4726,-15.8502,178.857,1.99951,-145.261,344
1569933688,245.566,30.4726,-15.8502,178.857,1.99951,-145.261,344
1569933688,245.566,30.4726,-15.8502,178.857,1.99951,-145.261,344
1569933688,245.566,30.4726,-15.8502,178.857,1.99951,-145.261,344
1569933688,245.566,30.4726,-15.8502,178.857,1.99951,-145.261,344
1569933688,245.566,30.4726,-15.8502,178.857,1.99951,-145.261,344
1569933688,245.566,30.4726,-15.8502,178.857,1.99951,-145.261,344
1569933688,245.566,30.4726,-15.8502,178.879,1.99951,-145.261,344
1569933688,245.566,30.4726,-15.8502,178.879,1.99951,-145.261,344
1569933688,245.566,30.4726,-15.8502,178.857,1.99951,-145.261,344
1569933688,245.566,30.4726,-15.8502,178.857,1.99951,-145.261,340
1569933688,245.566,30.4726,-15.8502,178.857,1.99951,-145.261,340
1569933688,245.566,30.4726,-15.8502,178.857,1.99951,-145.261,340
1569933688,245.566,30.4726,-15.8502,178.857,1.99951,-145.261,340
1569933688,245.566,30.4726,-15.8502,178.857,1.99951,-145.261,340
1569933688,245.566,30.4726,-15.8502,178.857,1.99951,-145.261,340
1569933688,245.566,30.4726,-15.8502,178.857,1.99951,-145.261,344
1569933689,245.566,30.4726,-15.8502,178.857,1.99951,-145.261,344
1569933689,245.566,30.4726,-15.8502,178.857,1.99951,-145.261,344
1569933689,245.566,30.4726,-15.8502,178.857,1.99951,-145.261,344
1569933689,245.566,30.4726,-15.8502,178.857,1.99951,-145.261,344
1569933689,245.566,30.4726,-15.8502,178.857,1.99951,-145.261,344
1569933689,245.566,30.4726,-15.8502,178.857,1.99951,-145.261,344
1569933689,245.566,30.4726,-15.8502,178.857,1.99951,-145.261,344
1569933689,245.566,30.4726,-15.8502,178.857,1.99951,-145.261,344
1569933689,245.566,30.4726,-15.8502,178.857,1.99951,-145.261,344
1569933689,245.566,30.4726,-15.8502,178.857,1.99951,-145.261,344
1569933689,245.566,30.4726,-15.8502,178.857,1.99951,-145.261,344
1569933689,245.566,30.4726,-15.8502,178.857,1.99951,-145.261,340
1569933689,245.566,30.4726,-15.8502,178.857,1.99951,-145.261,340
1569933689,245.566,30.4726,-15.8502,178.857,1.99951,-145.261,340
1569933689,245.566,30.4726,-15.8502,178.857,1.99951,-145.261,340
1569933689,245.566,30.4726,-15.8502,178.857,1.99951,-145.261,340
1569933689,245.566,30.4726,-15.8502,178.857,1.99951,-145.261,340
1569933689,245.566,30.4726,-15.8502,178.857,1.99951,-145.261,340
1569933689,245.566,30.4726,-15.8502,178.857,1.99951,-145.261,340
1569933689,245.566,30.4726,-15.8502,178.857,1.99951,-145.261,340
1569933689,245.566,30.4726,-15.8502,178.857,1.99951,-145.261,340
1569933689,245.566,30.4726,-15.8502,178.857,1.99951,-145.261,340
1569933689,245.566,30.4726,-15.8502,178.857,1.99951,-145.261,340
1569933689,245.566,30.4726,-15.8502,178.857,1.99951,-145.261,340
1569933689,245.566,30.4726,-15.8502,178.857,1.99951,-145.261,340
1569933689,245.566,30.4726,-15.8502,178.857,1.99951,-145.261,344
1569933689,245.566,30.4726,-15.8502,178.857,1.99951,-145.261,344
1569933689,245.566,30.4726,-15.8502,178.857,1.99951,-145.261,344
1569933689,245.566,30.4726,-15.8502,178.857,1.99951,-145.261,344
1569933689,245.566,30.4726,-15.8502,178.857,1.99951,-145.261,344
1569933689,245.566,30.4726,-15.8502,178.857,1.99951,-145.261,344
1569933689,245.566,30.4726,-15.8502,178.857,1.99951,-145.261,344
1569933689,245.566,30.4726,-15.8502,178.857,1.99951,-145.261,344
1569933689,245.566,30.4726,-15.8502,178.857,1.99951,-145.261,344
1569933689,245.566,30.4726,-15.8502,178.857,1.99951,-145.261,344
1569933689,245.566,30.4726,-15.8502,178.857,1.99951,-145.261,344
1569933689,245.566,30.4726,-15.8502,178.857,1.99951,-145.261,344
1569933689,245.566,30.4726,-15.8502,178.857,1.99951,-145.261,344
1569933689,245.566,30.4726,-15.8502,178.857,1.99951,-145.261,344
1569933689,245.566,30.4726,-15.8502,178.857,1.99951,-145.261,344
1569933689,245.566,30.4726,-15.8502,178.857,1.99951,-145.261,344
1569933689,245.566,30.4726,-15.8502,178.857,1.99951,-145.261,344
1569933689,245.566,30.4726,-15.8502,178.857,1.99951,-145.261,344
1569933689,245.566,30.4726,-15.8502,178.857,1.97754,-145.261,344
1569933689,245.566,30.4726,-15.8502,178.857,1.97754,-145.261,344
1569933689,245.566,30.4726,-15.9618,178.857,1.97754,-145.261,344
1569933689,245.566,30.4726,-15.9618,178.857,1.97754,-145.261,344
1569933689,245.566,30.4726,-15.9618,178.857,1.97754,-145.261,340
1569933689,245.566,30.4726,-15.9618,178.857,1.97754,-145.261,340
1569933689,245.566,30.4726,-15.9618,178.857,1.97754,-145.261,340
1569933689,245.566,30.4726,-15.9618,178.857,1.97754,-145.261,340
1569933689,245.566,30.4726,-15.9618,178.857,1.97754,-145.261,340
1569933689,245.566,30.4726,-15.9618,178.857,1.97754,-145.261,340
1569933689,245.566,30.4726,-15.9618,178.857,1.97754,-145.261,340
1569933689,245.566,30.4726,-15.9618,178.857,1.97754,-145.261,340
1569933689,245.566,30.4726,-15.9618,178.857,1.99951,-145.261,340
1569933689,245.566,30.4726,-15.8502,178.857,1.99951,-145.261,336
1569933689,245.566,30.4726,-15.8502,178.857,1.99951,-145.261,336
1569933689,245.566,30.4726,-15.8502,178.857,1.99951,-145.261,336
1569933689,245.566,30.4726,-15.8502,178.857,1.99951,-145.261,336
1569933689,245.566,30.4726,-15.8502,178.857,1.99951,-145.261,336
1569933689,245.566,30.4726,-15.8502,178.857,1.99951,-145.261,336
1569933689,245.566,30.4726,-15.8502,178.857,1.99951,-145.261,336
1569933689,245.566,30.4726,-15.8502,178.857,1.99951,-145.261,336
1569933689,245.566,30.4726,-15.8502,178.857,1.99951,-145.261,336
1569933689,245.566,30.4726,-15.8502,178.857,1.99951,-145.261,336
1569933689,245.566,30.4726,-15.8502,178.879,1.99951,-145.261,336
1569933689,245.566,30.5842,-15.8502,178.879,1.99951,-145.261,336
1569933689,245.566,30.5842,-15.8502,178.879,1.99951,-145.261,336
1569933689,245.566,30.5842,-15.8502,178.879,1.99951,-145.261,336
1569933689,245.566,30.5842,-15.8502,178.879,1.99951,-145.261,336
1569933689,245.566,30.5842,-15.8502,178.879,1.99951,-145.261,336
1569933689,245.566,30.5842,-15.8502,178.879,1.99951,-145.261,336
1569933689,245.566,30.5842,-15.8502,178.879,1.99951,-145.261,336
1569933689,245.566,30.5842,-15.8502,178.879,1.99951,-145.261,336
1569933689,245.566,30.5842,-15.8502,178.879,1.99951,-145.261,336
1569933689,245.566,30.5842,-15.8502,178.879,1.99951,-145.261,336
1569933689,245.566,30.5842,-15.8502,178.879,1.99951,-145.261,336
1569933689,245.566,30.4726,-15.8502,178.857,1.99951,-145.261,336
1569933689,245.566,30.4726,-15.8502,178.857,1.99951,-145.261,336
1569933689,245.566,30.4726,-15.8502,178.857,1.99951,-145.261,340
1569933689,245.566,30.4726,-15.8502,178.857,1.99951,-145.261,340
1569933689,245.566,30.4726,-15.8502,178.857,1.99951,-145.261,340
1569933689,245.566,30.4726,-15.8502,178.857,1.99951,-145.261,340
1569933689,245.566,30.4726,-15.8502,178.857,1.99951,-145.261,340
1569933689,245.566,30.4726,-15.8502,178.857,1.99951,-145.261,340
1569933689,245.566,30.4726,-15.8502,178.879,1.99951,-145.261,340
1569933689,245.566,30.4726,-15.8502,178.879,1.99951,-145.261,340
1569933689,245.566,30.4726,-15.8502,178.879,1.99951,-145.261,340
1569933689,245.566,30.4726,-15.8502,178.857,1.99951,-145.261,340
1569933689,245.566,30.4726,-15.8502,178.857,1.99951,-145.261,340
1569933689,245.566,30.4726,-15.8502,178.857,1.99951,-145.261,340
1569933689,245.566,30.4726,-15.8502,178.857,1.99951,-145.261,340
1569933689,245.566,30.4726,-15.8502,178.857,1.99951,-145.261,340
1569933689,245.566,30.4726,-15.8502,178.857,1.99951,-145.261,340
1569933689,245.566,30.4726,-15.8502,178.857,1.99951,-145.261,340
1569933689,245.566,30.4726,-15.8502,178.857,1.99951,-145.261,340
1569933689,245.566,30.4726,-15.8502,178.857,1.99951,-145.261,340
1569933689,245.566,30.4726,-15.8502,178.857,1.99951,-145.261,340
1569933689,245.566,30.4726,-15.8502,178.857,1.99951,-145.261,340
1569933690,245.566,30.4726,-15.8502,178.857,1.99951,-145.261,340
1569933690,245.566,30.4726,-15.8502,178.857,1.99951,-145.261,340
1569933690,245.566,30.4726,-15.8502,178.857,1.99951,-145.261,340
1569933690,245.566,30.4726,-15.8502,178.857,1.99951,-145.261,340
1569933690,245.566,30.4726,-15.8502,178.857,1.99951,-145.261,340
1569933690,245.566,30.4726,-15.8502,178.857,1.99951,-145.261,340
1569933690,245.566,30.4726,-15.8502,178.857,1.99951,-145.261,340
1569933690,245.566,30.4726,-15.8502,178.857,1.99951,-145.261,340
1569933690,245.566,30.4726,-15.8502,178.857,1.99951,-145.261,340
1569933690,245.566,30.4726,-15.8502,178.857,1.99951,-145.261,340
1569933690,245.566,30.4726,-15.8502,178.857,1.99951,-145.261,340
1569933690,245.566,30.4726,-15.8502,178.857,1.99951,-145.261,340
1569933690,245.566,30.4726,-15.8502,178.857,1.99951,-145.261,340
1569933690,245.566,30.4726,-15.8502,178.857,1.99951,-145.261,340
1569933690,245.566,30.5842,-15.8502,178.857,1.99951,-145.261,340
1569933690,245.566,30.5842,-15.8502,178.879,1.99951,-145.261,340
1569933690,245.566,30.5842,-15.8502,178.879,1.99951,-145.261,340
1569933690,245.566,30.5842,-15.8502,178.879,1.99951,-145.261,340
1569933690,245.566,30.5842,-15.8502,178.879,1.99951,-145.261,340
1569933690,245.566,30.5842,-15.8502,178.857,1.99951,-145.261,340
1569933690,245.566,30.4726,-15.8502,178.857,1.99951,-145.261,340
1569933690,245.566,30.4726,-15.8502,178.857,1.99951,-145.261,340
1569933690,245.566,30.4726,-15.8502,178.857,1.99951,-145.261,340
1569933690,245.566,30.4726,-15.8502,178.857,1.99951,-145.261,340
1569933690,245.566,30.4726,-15.8502,178.857,1.99951,-145.261,340
1569933690,245.566,30.4726,-15.8502,178.857,1.99951,-145.261,340
1569933690,245.566,30.4726,-15.8502,178.857,1.99951,-145.261,340
1569933690,245.566,30.4726,-15.8502,178.857,1.99951,-145.239,340
1569933690,245.566,30.4726,-15.8502,178.857,1.99951,-145.239,340
1569933690,245.566,30.4726,-15.8502,178.857,1.99951,-145.239,340
1569933690,245.566,30.4726,-15.8502,178.857,1.99951,-145.239,340
1569933690,245.566,30.4726,-15.8502,178.857,1.99951,-145.239,340
1569933690,245.566,30.4726,-15.8502,178.857,1.99951,-145.261,340
1569933690,245.566,30.4726,-15.8502,178.857,1.99951,-145.261,340
1569933690,245.566,30.4726,-15.8502,178.857,1.99951,-145.261,340
1569933690,245.566,30.4726,-15.8502,178.857,1.99951,-145.261,340
1569933690,245.566,30.4726,-15.8502,178.857,1.99951,-145.261,340
1569933690,245.566,30.4726,-15.8502,178.857,1.99951,-145.261,340
1569933690,245.566,30.4726,-15.8502,178.857,1.99951,-145.261,340
1569933690,245.566,30.4726,-15.8502,178.857,1.99951,-145.261,340
1569933690,245.566,30.4726,-15.8502,178.857,1.99951,-145.261,340
1569933690,245.566,30.4726,-15.8502,178.857,1.99951,-145.261,340
1569933690,245.566,30.4726,-15.8502,178.857,1.99951,-145.261,340
1569933690,245.566,30.4726,-15.8502,178.857,1.99951,-145.261,340
1569933690,245.566,30.4726,-15.8502,178.857,1.99951,-145.261,340
1569933690,245.566,30.4726,-15.8502,178.857,1.99951,-145.239,340
1569933690,245.566,30.4726,-15.8502,178.857,1.99951,-145.239,340
1569933690,245.566,30.4726,-15.8502,178.857,1.99951,-145.239,340
1569933690,245.566,30.4726,-15.8502,178.857,1.99951,-145.239,340
1569933690,245.566,30.4726,-15.8502,178.857,1.99951,-145.239,340
1569933690,245.566,30.4726,-15.8502,178.857,1.99951,-145.239,340
1569933690,245.566,30.4726,-15.8502,178.857,1.99951,-145.239,340
1569933690,245.566,30.4726,-15.8502,178.857,1.99951,-145.239,340
1569933690,245.566,30.4726,-15.8502,178.857,1.99951,-145.239,340
1569933690,245.566,30.4726,-15.8502,178.857,1.99951,-145.239,340
1569933690,245.566,30.4726,-15.8502,178.857,1.99951,-145.239,340
1569933690,245.566,30.4726,-15.8502,178.857,1.99951,-145.239,340
1569933690,245.566,30.4726,-15.8502,178.857,1.99951,-145.239,340
1569933690,245.566,30.4726,-15.8502,178.857,1.99951,-145.239,340
1569933690,245.566,30.4726,-15.8502,178.857,1.99951,-145.239,340
1569933690,245.566,30.4726,-15.8502,178.857,1.99951,-145.239,340
1569933690,245.566,30.4726,-15.8502,178.857,1.99951,-145.239,340
1569933690,245.566,30.4726,-15.8502,178.857,1.99951,-145.239,340
1569933690,245.566,30.4726,-15.8502,178.857,1.99951,-145.239,340
1569933690,245.566,30.4726,-15.8502,178.857,1.99951,-145.239,340
1569933690,245.566,30.4726,-15.8502,178.857,1.99951,-145.239,340
1569933690,245.566,30.4726,-15.8502,178.857,1.99951,-145.239,340
1569933690,245.566,30.4726,-15.8502,178.857,1.99951,-145.239,340
1569933690,245.566,30.4726,-15.8502,178.857,1.99951,-145.239,340
1569933690,245.566,30.4726,-15.8502,178.857,1.99951,-145.239,340
1569933690,245.566,30.4726,-15.8502,178.857,1.99951,-145.239,340
1569933690,245.566,30.4726,-15.8502,178.879,1.99951,-145.239,340
1569933690,245.566,30.4726,-15.8502,178.879,1.99951,-145.239,340
1569933690,245.566,30.5842,-15.8502,178.879,1.99951,-145.239,340
1569933690,245.566,30.5842,-15.8502,178.879,1.99951,-145.239,340
1569933690,245.566,30.5842,-15.8502,178.879,1.99951,-145.239,340
1569933690,245.566,30.5842,-15.8502,178.879,1.99951,-145.239,340
1569933690,245.566,30.5842,-15.8502,178.879,1.99951,-145.239,340
1569933690,245.566,30.5842,-15.8502,178.879,1.99951,-145.239,340
1569933690,245.566,30.5842,-15.8502,178.879,1.99951,-145.239,340
1569933690,245.566,30.5842,-15.8502,178.879,1.99951,-145.239,340
1569933690,245.566,30.5842,-15.8502,178.879,1.99951,-145.239,340
1569933690,245.566,30.4726,-15.8502,178.879,1.99951,-145.239,340
1569933690,245.566,30.4726,-15.8502,178.879,1.99951,-145.239,340
1569933690,245.566,30.4726,-15.8502,178.857,1.99951,-145.239,340
1569933690,245.566,30.4726,-15.8502,178.857,1.99951,-145.239,340
1569933690,245.566,30.4726,-15.8502,178.857,1.99951,-145.239,340
1569933690,245.566,30.4726,-15.8502,178.857,1.99951,-145.239,340
1569933690,245.566,30.4726,-15.8502,178.857,1.99951,-145.239,340
1569933690,245.566,30.4726,-15.8502,178.857,1.99951,-145.239,340
1569933690,245.566,30.4726,-15.8502,178.857,1.99951,-145.239,340
1569933690,245.566,30.4726,-15.8502,178.857,1.99951,-145.261,340
1569933690,245.566,30.4726,-15.8502,178.857,1.99951,-145.261,340
1569933690,245.566,30.4726,-15.8502,178.857,1.99951,-145.261,340
1569933690,245.566,30.4726,-15.8502,178.857,1.99951,-145.261,340
1569933690,245.566,30.4726,-15.8502,178.857,1.99951,-145.261,336
1569933690,245.566,30.4726,-15.8502,178.857,1.99951,-145.261,336
1569933690,245.566,30.4726,-15.8502,178.857,1.99951,-145.261,336
1569933690,245.566,30.4726,-15.8502,178.857,1.99951,-145.261,336
1569933690,245.566,30.4726,-15.8502,178.857,1.99951,-145.261,336
1569933691,245.566,30.4726,-15.8502,178.857,1.99951,-145.261,336
1569933691,245.566,30.4726,-15.8502,178.857,1.99951,-145.261,336
1569933691,245.566,30.4726,-15.8502,178.857,1.99951,-145.261,336
1569933691,245.566,30.4726,-15.8502,178.857,1.99951,-145.261,336
1569933691,245.566,30.4726,-15.8502,178.857,1.99951,-145.261,336
1569933691,245.566,30.4726,-15.8502,178.857,1.99951,-145.261,336
1569933691,245.566,30.4726,-15.8502,178.857,1.99951,-145.261,336
1569933691,245.566,30.4726,-15.8502,178.857,1.99951,-145.261,336
1569933691,245.566,30.4726,-15.8502,178.857,1.99951,-145.261,336
1569933691,245.566,30.4726,-15.8502,178.857,1.99951,-145.261,336
1569933691,245.566,30.4726,-15.8502,178.857,1.99951,-145.261,336
1569933691,245.566,30.4726,-15.8502,178.857,1.99951,-145.261,336
1569933691,245.566,30.4726,-15.8502,178.857,1.99951,-145.261,336
1569933691,245.566,30.4726,-15.8502,178.857,1.99951,-145.261,336
1569933691,245.566,30.4726,-15.8502,178.857,1.99951,-145.261,336
1569933691,245.566,30.4726,-15.8502,178.857,1.99951,-145.261,336
1569933691,245.566,30.4726,-15.8502,178.857,1.99951,-145.261,336
1569933691,245.566,30.4726,-15.8502,178.857,1.99951,-145.261,336
1569933691,245.566,30.4726,-15.8502,178.857,1.99951,-145.261,336
1569933691,245.566,30.5842,-15.8502,178.857,1.99951,-145.261,336
1569933691,245.566,30.5842,-15.8502,178.857,1.99951,-145.261,336
1569933691,245.566,30.5842,-15.8502,178.857,1.99951,-145.261,336
1569933691,245.566,30.5842,-15.8502,178.857,1.99951,-145.261,336
1569933691,245.566,30.4726,-15.8502,178.857,1.99951,-145.261,336
1569933691,245.566,30.4726,-15.8502,178.857,1.99951,-145.261,336
1569933691,245.566,30.4726,-15.8502,178.857,1.99951,-145.261,336
1569933691,245.566,30.4726,-15.8502,178.857,1.99951,-145.261,336
1569933691,245.566,30.4726,-15.8502,178.857,1.99951,-145.261,336
1569933691,245.566,30.4726,-15.8502,178.857,1.99951,-145.261,336
1569933691,245.566,30.4726,-15.8502,178.857,1.99951,-145.261,336
1569933691,245.566,30.4726,-15.8502,178.857,1.99951,-145.261,336
1569933691,245.566,30.4726,-15.8502,178.857,1.99951,-145.261,336
1569933691,245.566,30.4726,-15.8502,178.857,1.99951,-145.261,336
1569933691,245.566,30.4726,-15.8502,178.857,1.99951,-145.261,336
1569933691,245.566,30.4726,-15.8502,178.857,1.99951,-145.261,336
1569933691,245.566,30.4726,-15.8502,178.857,1.99951,-145.239,336
1569933691,245.566,30.4726,-15.8502,178.857,1.99951,-145.261,340
1569933691,245.566,30.4726,-15.8502,178.857,1.99951,-145.261,340
1569933691,245.566,30.4726,-15.8502,178.857,1.99951,-145.261,340
1569933691,245.566,30.4726,-15.8502,178.857,1.99951,-145.261,340
1569933691,245.566,30.4726,-15.8502,178.857,1.99951,-145.261,340
1569933691,245.566,30.4726,-15.8502,178.857,1.99951,-145.261,340
1569933691,245.566,30.4726,-15.8502,178.857,1.99951,-145.261,340
1569933691,245.566,30.4726,-15.8502,178.857,1.99951,-145.261,340
1569933691,245.566,30.4726,-15.8502,178.857,1.99951,-145.261,340
1569933691,245.566,30.4726,-15.8502,178.857,1.99951,-145.261,340
1569933691,245.566,30.4726,-15.8502,178.857,1.99951,-145.261,340
1569933691,245.566,30.4726,-15.8502,178.857,1.99951,-145.261,340
1569933691,245.566,30.4726,-15.8502,178.857,1.99951,-145.261,340
1569933691,245.566,30.4726,-15.8502,178.857,1.99951,-145.261,340
1569933691,245.566,30.4726,-15.8502,178.857,1.99951,-145.261,344
1569933691,245.566,30.4726,-15.8502,178.857,1.99951,-145.261,344
1569933691,245.566,30.4726,-15.8502,178.857,1.99951,-145.261,344
1569933691,245.566,30.4726,-15.8502,178.857,1.99951,-145.261,344
1569933691,245.566,30.4726,-15.8502,178.857,1.99951,-145.261,344
