time,x,y,z,ax,ay,az,q
1567619791,329.059,156.381,-17.1896,178.813,1.25244,-155.127,236
1567619791,329.059,156.381,-17.1896,178.813,1.27441,-155.127,236
1567619791,329.059,156.381,-17.1896,178.813,1.27441,-155.127,232
1567619791,329.059,156.381,-17.1896,178.813,1.27441,-155.127,232
1567619791,329.059,156.381,-17.1896,178.813,1.27441,-155.127,232
1567619791,329.059,156.381,-17.078,178.813,1.27441,-155.127,232
1567619791,329.059,156.381,-17.078,178.813,1.27441,-155.127,232
1567619791,329.059,156.381,-17.078,178.813,1.27441,-155.127,232
1567619791,329.059,156.381,-17.078,178.813,1.27441,-155.127,232
1567619791,329.059,156.381,-17.078,178.813,1.27441,-155.127,232
1567619791,329.059,156.381,-17.078,178.813,1.27441,-155.127,232
1567619791,329.059,156.381,-17.078,178.813,1.27441,-155.127,228
1567619791,329.059,156.381,-17.078,178.813,1.27441,-155.127,228
1567619791,329.059,156.381,-17.078,178.813,1.27441,-155.127,228
1567619791,329.059,156.381,-17.078,178.813,1.27441,-155.127,228
1567619791,329.171,156.381,-17.078,178.813,1.27441,-155.127,228
1567619791,329.171,156.381,-17.078,178.813,1.27441,-155.127,228
1567619791,329.171,156.381,-17.078,178.792,1.27441,-155.127,228
1567619791,329.171,156.381,-17.078,178.792,1.27441,-155.127,228
1567619791,329.171,156.381,-17.078,178.792,1.27441,-155.127,228
1567619791,329.171,156.381,-17.078,178.792,1.27441,-155.127,228
1567619791,329.171,156.381,-17.078,178.792,1.27441,-155.127,228
1567619791,329.171,156.381,-17.078,178.792,1.27441,-155.127,228
1567619791,329.171,156.381,-17.078,178.792,1.27441,-155.127,228
1567619791,329.171,156.381,-17.078,178.792,1.27441,-155.127,228
1567619792,329.171,156.381,-17.078,178.792,1.27441,-155.127,228
1567619792,329.171,156.381,-17.078,178.792,1.27441,-155.127,228
1567619792,329.171,156.381,-17.078,178.792,1.27441,-155.127,228
1567619792,329.171,156.381,-17.078,178.792,1.29639,-155.127,228
1567619792,329.171,156.381,-17.078,178.792,1.29639,-155.127,228
1567619792,329.171,156.381,-17.078,178.792,1.29639,-155.127,228
1567619792,329.171,156.381,-17.078,178.792,1.29639,-155.127,228
1567619792,329.171,156.381,-17.078,178.813,1.29639,-155.127,228
1567619792,329.171,156.381,-17.078,178.813,1.29639,-155.127,228
1567619792,329.171,156.381,-17.078,178.813,1.29639,-155.127,228
1567619792,329.171,156.381,-17.078,178.813,1.29639,-155.127,228
1567619792,329.059,156.381,-17.078,178.813,1.29639,-155.127,228
1567619792,329.059,156.381,-17.078,178.813,1.29639,-155.127,232
1567619792,329.059,156.381,-17.078,178.813,1.29639,-155.127,232
1567619792,329.059,156.381,-17.078,178.813,1.29639,-155.127,232
1567619792,329.059,156.381,-17.078,178.813,1.29639,-155.127,232
1567619792,329.059,156.381,-17.078,178.813,1.29639,-155.127,232
1567619792,329.059,156.381,-17.078,178.813,1.29639,-155.127,232
1567619792,329.059,156.381,-17.078,178.813,1.29639,-155.127,236
1567619792,329.059,156.381,-17.078,178.813,1.29639,-155.127,236
1567619792,329.059,156.381,-17.078,178.813,1.29639,-155.127,236
1567619792,329.059,156.381,-17.078,178.813,1.27441,-155.127,236
1567619792,329.059,156.381,-17.1896,178.813,1.27441,-155.127,240
1567619792,329.059,156.381,-17.1896,178.813,1.27441,-155.127,240
1567619792,329.059,156.381,-17.1896,178.813,1.27441,-155.127,240
1567619792,329.059,156.381,-17.1896,178.813,1.27441,-155.127,240
1567619792,329.059,156.381,-17.1896,178.813,1.27441,-155.127,240
1567619792,329.059,156.381,-17.1896,178.813,1.27441,-155.127,244
1567619792,329.059,156.381,-17.1896,178.813,1.27441,-155.127,244
1567619792,329.059,156.381,-17.1896,178.813,1.27441,-155.127,244
1567619792,329.059,156.381,-17.1896,178.813,1.27441,-155.127,244
1567619792,329.059,156.381,-17.1896,178.813,1.25244,-155.149,244
1567619792,329.059,156.381,-17.1896,178.813,1.25244,-155.149,244
1567619792,329.059,156.381,-17.1896,178.813,1.25244,-155.149,244
1567619792,329.059,156.381,-17.1896,178.813,1.25244,-155.149,244
1567619792,329.059,156.381,-17.1896,178.813,1.25244,-155.149,244
1567619792,329.059,156.381,-17.1896,178.813,1.25244,-155.149,244
1567619792,329.059,156.381,-17.1896,178.813,1.25244,-155.149,244
1567619792,329.059,156.381,-17.1896,178.813,1.25244,-155.149,244
1567619792,329.059,156.381,-17.1896,178.792,1.25244,-155.149,244
1567619792,329.059,156.381,-17.1896,178.792,1.25244,-155.149,244
1567619792,329.059,156.381,-17.1896,178.792,1.25244,-155.149,244
1567619792,329.059,156.381,-17.1896,178.792,1.25244,-155.149,244
1567619792,329.059,156.381,-17.1896,178.792,1.25244,-155.149,244
1567619792,329.059,156.381,-17.1896,178.792,1.25244,-155.149,244
1567619792,329.059,156.381,-17.1896,178.792,1.25244,-155.149,244
1567619792,329.059,156.381,-17.1896,178.792,1.25244,-155.149,244
1567619792,329.059,156.381,-17.1896,178.792,1.25244,-155.149,244
1567619792,329.059,156.381,-17.1896,178.792,1.25244,-155.149,244
1567619792,329.059,156.381,-17.1896,178.792,1.25244,-155.149,244
1567619792,329.059,156.381,-17.1896,178.792,1.25244,-155.149,244
1567619792,329.059,156.381,-17.1896,178.813,1.25244,-155.149,240
1567619792,329.059,156.381,-17.1896,178.813,1.25244,-155.149,240
1567619792,329.059,156.381,-17.1896,178.813,1.25244,-155.149,240
1567619792,329.059,156.381,-17.1896,178.813,1.25244,-155.149,240
1567619792,329.059,156.381,-17.1896,178.813,1.25244,-155.149,240
1567619792,329.059,156.381,-17.1896,178.813,1.25244,-155.127,240
1567619792,329.059,156.381,-17.1896,178.813,1.25244,-155.127,240
1567619792,329.059,156.381,-17.1896,178.813,1.25244,-155.127,240
1567619792,329.059,156.381,-17.1896,178.792,1.25244,-155.127,240
1567619792,329.059,156.381,-17.1896,178.792,1.25244,-155.127,240
1567619792,329.059,156.381,-17.1896,178.792,1.25244,-155.127,240
1567619792,329.059,156.381,-17.1896,178.792,1.25244,-155.127,240
1567619792,329.059,156.381,-17.1896,178.792,1.25244,-155.127,240
1567619792,329.059,156.381,-17.1896,178.792,1.25244,-155.149,240
1567619792,329.059,156.381,-17.1896,178.792,1.25244,-155.149,240
1567619792,329.059,156.381,-17.1896,178.792,1.27441,-155.149,240
1567619792,329.059,156.381,-17.1896,178.792,1.27441,-155.149,240
1567619792,329.059,156.381,-17.1896,178.792,1.27441,-155.149,240
1567619792,329.059,156.381,-17.1896,178.813,1.27441,-155.149,240
1567619792,329.059,156.381,-17.1896,178.813,1.27441,-155.149,240
1567619792,329.059,156.381,-17.1896,178.813,1.27441,-155.149,240
1567619792,329.059,156.381,-17.1896,178.813,1.27441,-155.149,240
1567619792,329.059,156.381,-17.1896,178.813,1.27441,-155.149,240
1567619792,329.059,156.381,-17.1896,178.813,1.27441,-155.127,240
1567619792,329.059,156.381,-17.1896,178.813,1.27441,-155.127,240
1567619792,329.059,156.381,-17.1896,178.813,1.27441,-155.127,244
1567619792,329.059,156.381,-17.1896,178.813,1.27441,-155.127,244
1567619792,329.059,156.381,-17.1896,178.813,1.27441,-155.127,244
1567619792,329.059,156.381,-17.1896,178.813,1.27441,-155.127,244
1567619792,329.059,156.381,-17.1896,178.813,1.27441,-155.127,244
1567619792,329.059,156.381,-17.1896,178.813,1.27441,-155.127,244
1567619792,329.059,156.381,-17.1896,178.813,1.27441,-155.127,244
1567619792,329.059,156.381,-17.078,178.792,1.27441,-155.127,244
1567619792,329.059,156.27,-17.078,178.792,1.27441,-155.127,244
1567619792,329.059,156.27,-17.078,178.792,1.27441,-155.127,244
1567619792,329.059,156.27,-17.078,178.792,1.29639,-155.127,244
1567619792,329.059,156.27,-17.078,178.792,1.29639,-155.127,244
1567619792,329.059,156.27,-17.078,178.792,1.29639,-155.127,244
1567619792,329.059,156.27,-17.078,178.792,1.29639,-155.127,240
1567619792,329.059,156.27,-17.078,178.792,1.29639,-155.127,240
1567619792,329.059,156.27,-17.078,178.792,1.29639,-155.127,240
1567619792,329.059,156.27,-17.078,178.792,1.29639,-155.127,236
1567619792,329.059,156.27,-17.078,178.792,1.29639,-155.127,236
1567619792,329.059,156.27,-17.078,178.792,1.29639,-155.127,236
1567619792,329.059,156.27,-17.078,178.792,1.29639,-155.127,236
1567619792,329.059,156.27,-17.078,178.792,1.27441,-155.127,236
1567619792,329.059,156.27,-17.078,178.792,1.27441,-155.127,236
1567619792,329.059,156.27,-17.078,178.792,1.27441,-155.127,236
1567619792,329.059,156.27,-17.078,178.792,1.27441,-155.149,232
1567619793,329.171,156.27,-17.078,178.792,1.27441,-155.149,232
1567619793,329.171,156.27,-17.078,178.792,1.27441,-155.149,232
1567619793,329.171,156.27,-17.078,178.792,1.27441,-155.149,232
1567619793,329.171,156.27,-17.078,178.792,1.27441,-155.149,232
1567619793,329.171,156.27,-17.078,178.792,1.27441,-155.149,232
1567619793,329.171,156.27,-17.078,178.792,1.27441,-155.127,232
1567619793,329.171,156.27,-17.078,178.792,1.27441,-155.127,232
1567619793,329.171,156.27,-17.078,178.792,1.27441,-155.127,232
1567619793,329.171,156.27,-17.078,178.792,1.27441,-155.127,232
1567619793,329.171,156.27,-17.078,178.792,1.29639,-155.127,232
1567619793,329.171,156.27,-17.078,178.792,1.29639,-155.127,228
1567619793,329.171,156.27,-17.078,178.792,1.29639,-155.127,228
1567619793,329.171,156.27,-17.078,178.792,1.29639,-155.127,228
1567619793,329.171,156.27,-17.078,178.792,1.29639,-155.127,228
1567619793,329.171,156.381,-17.078,178.792,1.29639,-155.149,228
1567619793,329.171,156.381,-17.078,178.792,1.29639,-155.149,228
1567619793,329.171,156.381,-17.078,178.792,1.29639,-155.149,224
1567619793,329.171,156.381,-17.078,178.792,1.29639,-155.149,224
1567619793,329.171,156.27,-17.078,178.792,1.29639,-155.149,224
1567619793,329.171,156.27,-17.078,178.792,1.29639,-155.149,224
1567619793,329.171,156.27,-17.078,178.792,1.29639,-155.149,224
1567619793,329.171,156.27,-17.078,178.792,1.29639,-155.149,224
1567619793,329.171,156.27,-17.078,178.792,1.29639,-155.149,224
1567619793,329.171,156.27,-17.078,178.792,1.29639,-155.149,224
1567619793,329.171,156.27,-17.078,178.792,1.29639,-155.149,224
1567619793,329.171,156.27,-17.078,178.792,1.29639,-155.149,224
1567619793,329.171,156.27,-17.078,178.792,1.29639,-155.149,224
1567619793,329.171,156.27,-17.078,178.792,1.29639,-155.149,228
1567619793,329.171,156.27,-17.078,178.792,1.29639,-155.149,228
1567619793,329.171,156.381,-17.078,178.792,1.29639,-155.149,228
1567619793,329.171,156.381,-17.078,178.792,1.29639,-155.149,228
1567619793,329.059,156.381,-17.078,178.792,1.29639,-155.149,228
1567619793,329.059,156.381,-17.078,178.792,1.29639,-155.149,228
1567619793,329.059,156.27,-17.078,178.792,1.29639,-155.171,228
1567619793,329.059,156.27,-17.078,178.792,1.29639,-155.149,228
1567619793,329.059,156.381,-17.078,178.792,1.29639,-155.149,232
1567619793,329.059,156.381,-17.078,178.792,1.27441,-155.149,232
1567619793,329.059,156.381,-17.078,178.792,1.27441,-155.149,232
1567619793,329.059,156.381,-17.078,178.792,1.27441,-155.149,232
1567619793,329.059,156.381,-17.078,178.792,1.27441,-155.149,232
1567619793,329.059,156.381,-17.078,178.792,1.27441,-155.149,232
1567619793,329.059,156.381,-17.078,178.792,1.27441,-155.149,232
1567619793,329.059,156.381,-17.078,178.792,1.27441,-155.149,232
1567619793,329.059,156.381,-17.078,178.792,1.27441,-155.149,232
1567619793,329.059,156.381,-17.078,178.792,1.25244,-155.149,232
1567619793,329.059,156.381,-17.078,178.792,1.25244,-155.149,232
1567619793,329.059,156.381,-17.078,178.792,1.27441,-155.149,232
1567619793,329.059,156.381,-17.078,178.792,1.27441,-155.149,232
1567619793,329.059,156.381,-17.078,178.792,1.27441,-155.149,232
1567619793,329.059,156.381,-17.078,178.792,1.27441,-155.149,232
1567619793,329.059,156.381,-17.078,178.792,1.27441,-155.149,232
1567619793,329.059,156.381,-17.078,178.792,1.27441,-155.149,232
1567619793,329.059,156.381,-17.078,178.792,1.27441,-155.149,232
1567619793,329.059,156.381,-17.078,178.792,1.27441,-155.149,232
1567619793,329.059,156.381,-17.078,178.792,1.27441,-155.149,228
1567619793,329.059,156.381,-17.078,178.792,1.27441,-155.149,228
1567619793,329.059,156.381,-17.078,178.792,1.27441,-155.149,228
1567619793,329.059,156.381,-17.1896,178.792,1.27441,-155.149,228
1567619793,329.059,156.381,-17.1896,178.813,1.27441,-155.149,228
1567619793,329.059,156.381,-17.1896,178.813,1.27441,-155.149,228
1567619793,329.059,156.381,-17.1896,178.813,1.25244,-155.149,228
1567619793,329.059,156.381,-17.1896,178.813,1.25244,-155.149,232
1567619793,329.059,156.381,-17.1896,178.813,1.25244,-155.149,232
1567619793,329.059,156.381,-17.1896,178.813,1.25244,-155.149,232
1567619793,329.059,156.381,-17.1896,178.813,1.25244,-155.149,232
1567619793,329.059,156.381,-17.1896,178.813,1.27441,-155.149,232
1567619793,329.059,156.381,-17.1896,178.813,1.27441,-155.149,232
1567619793,329.059,156.381,-17.1896,178.813,1.25244,-155.149,232
1567619793,329.059,156.381,-17.1896,178.813,1.25244,-155.149,232
1567619793,329.059,156.381,-17.1896,178.813,1.27441,-155.149,232
1567619793,329.059,156.381,-17.1896,178.813,1.27441,-155.149,232
1567619793,329.059,156.381,-17.1896,178.813,1.27441,-155.149,236
1567619793,329.059,156.381,-17.1896,178.813,1.25244,-155.149,236
1567619793,329.059,156.381,-17.1896,178.813,1.25244,-155.149,236
1567619793,329.059,156.381,-17.1896,178.813,1.25244,-155.149,236
1567619793,329.059,156.381,-17.1896,178.813,1.25244,-155.149,236
1567619793,329.059,156.381,-17.1896,178.813,1.25244,-155.127,236
1567619793,329.059,156.381,-17.1896,178.813,1.25244,-155.127,236
1567619793,329.059,156.381,-17.1896,178.813,1.27441,-155.127,236
1567619793,329.059,156.381,-17.1896,178.813,1.27441,-155.127,236
1567619793,329.059,156.381,-17.1896,178.813,1.27441,-155.127,236
1567619793,329.059,156.381,-17.1896,178.813,1.25244,-155.127,236
1567619793,329.059,156.381,-17.1896,178.813,1.25244,-155.127,236
1567619793,329.059,156.381,-17.1896,178.813,1.25244,-155.127,236
1567619793,329.059,156.381,-17.1896,178.813,1.25244,-155.127,236
1567619793,329.059,156.381,-17.1896,178.813,1.25244,-155.127,236
1567619793,329.059,156.381,-17.1896,178.792,1.25244,-155.127,236
1567619793,329.059,156.381,-17.1896,178.792,1.25244,-155.127,236
1567619793,329.059,156.381,-17.1896,178.792,1.25244,-155.127,236
1567619793,329.059,156.381,-17.1896,178.792,1.25244,-155.127,236
1567619793,329.059,156.381,-17.1896,178.792,1.25244,-155.127,236
1567619793,329.059,156.381,-17.1896,178.792,1.25244,-155.127,236
1567619793,329.171,156.381,-17.1896,178.792,1.27441,-155.127,236
1567619793,329.171,156.381,-17.1896,178.792,1.27441,-155.127,236
1567619793,329.171,156.381,-17.1896,178.792,1.27441,-155.127,236
1567619793,329.171,156.381,-17.1896,178.792,1.27441,-155.127,236
1567619793,329.059,156.381,-17.1896,178.792,1.27441,-155.149,236
1567619793,329.059,156.381,-17.1896,178.792,1.27441,-155.149,236
1567619793,329.059,156.381,-17.078,178.792,1.27441,-155.149,232
1567619793,329.059,156.381,-17.078,178.792,1.27441,-155.149,232
1567619794,329.059,156.381,-17.078,178.792,1.27441,-155.149,232
1567619794,329.059,156.381,-17.078,178.792,1.27441,-155.149,232
1567619794,329.059,156.381,-17.078,178.792,1.27441,-155.149,232
1567619794,329.059,156.381,-17.078,178.792,1.27441,-155.149,232
1567619794,329.059,156.381,-17.078,178.792,1.27441,-155.149,232
1567619794,329.059,156.381,-17.078,178.792,1.27441,-155.149,232
1567619794,329.059,156.381,-17.078,178.792,1.27441,-155.149,232
1567619794,329.059,156.381,-17.078,178.792,1.27441,-155.149,232
1567619794,329.059,156.381,-17.078,178.792,1.27441,-155.149,232
1567619794,329.059,156.381,-17.078,178.792,1.27441,-155.149,232
1567619794,329.059,156.381,-17.1896,178.792,1.25244,-155.149,232
1567619794,329.059,156.381,-17.1896,178.792,1.25244,-155.149,232
1567619794,329.059,156.381,-17.1896,178.792,1.25244,-155.149,232
1567619794,329.059,156.381,-17.1896,178.792,1.25244,-155.149,228
1567619794,329.059,156.381,-17.1896,178.792,1.25244,-155.149,228
1567619794,329.059,156.381,-17.1896,178.813,1.25244,-155.149,228
1567619794,329.059,156.381,-17.1896,178.813,1.25244,-155.149,228
1567619794,329.059,156.381,-17.1896,178.813,1.25244,-155.149,228
1567619794,329.059,156.381,-17.1896,178.813,1.25244,-155.149,228
1567619794,329.059,156.381,-17.1896,178.813,1.25244,-155.149,228
1567619794,329.059,156.381,-17.1896,178.813,1.25244,-155.149,228
1567619794,329.059,156.381,-17.1896,178.813,1.25244,-155.149,228
1567619794,329.059,156.381,-17.1896,178.813,1.25244,-155.149,228
1567619794,329.059,156.381,-17.1896,178.813,1.25244,-155.149,228
1567619794,329.059,156.381,-17.1896,178.813,1.25244,-155.149,228
1567619794,329.059,156.381,-17.1896,178.813,1.25244,-155.149,228
1567619794,329.059,156.381,-17.1896,178.813,1.25244,-155.149,228
1567619794,329.059,156.381,-17.1896,178.813,1.25244,-155.149,228
1567619794,329.059,156.381,-17.1896,178.813,1.25244,-155.149,228
1567619794,329.059,156.381,-17.1896,178.813,1.25244,-155.149,228
1567619794,329.059,156.381,-17.1896,178.813,1.25244,-155.149,228
1567619794,329.059,156.381,-17.1896,178.813,1.25244,-155.149,228
1567619794,329.059,156.381,-17.1896,178.813,1.25244,-155.149,228
1567619794,329.059,156.381,-17.1896,178.813,1.25244,-155.149,228
1567619794,329.059,156.381,-17.1896,178.813,1.25244,-155.149,228
1567619794,329.059,156.381,-17.1896,178.813,1.25244,-155.149,228
1567619794,329.059,156.381,-17.1896,178.813,1.25244,-155.149,228
1567619794,329.059,156.381,-17.1896,178.813,1.25244,-155.149,228
1567619794,329.059,156.381,-17.1896,178.813,1.25244,-155.149,228
1567619794,329.171,156.381,-17.1896,178.813,1.25244,-155.149,228
1567619794,329.171,156.381,-17.1896,178.813,1.25244,-155.149,228
1567619794,329.171,156.493,-17.1896,178.813,1.25244,-155.149,224
1567619794,329.171,156.493,-17.1896,178.813,1.25244,-155.149,224
1567619794,329.171,156.493,-17.1896,178.813,1.25244,-155.149,224
1567619794,329.171,156.493,-17.1896,178.813,1.25244,-155.149,224
1567619794,329.171,156.493,-17.1896,178.813,1.25244,-155.149,224
1567619794,329.171,156.493,-17.1896,178.813,1.25244,-155.149,220
1567619794,329.171,156.493,-17.1896,178.813,1.25244,-155.149,220
1567619794,329.171,156.493,-17.1896,178.813,1.27441,-155.149,220
1567619794,329.171,156.493,-17.1896,178.813,1.27441,-155.149,220
1567619794,329.171,156.493,-17.1896,178.813,1.27441,-155.149,220
1567619794,329.171,156.493,-17.1896,178.813,1.27441,-155.171,216
1567619794,329.171,156.493,-17.1896,178.813,1.27441,-155.171,216
1567619794,329.171,156.493,-17.1896,178.813,1.27441,-155.171,216
1567619794,329.171,156.493,-17.1896,178.813,1.27441,-155.171,216
1567619794,329.171,156.493,-17.1896,178.813,1.27441,-155.171,220
1567619794,329.171,156.493,-17.1896,178.813,1.27441,-155.149,220
1567619794,329.171,156.493,-17.1896,178.813,1.27441,-155.149,220
1567619794,329.171,156.493,-17.1896,178.813,1.27441,-155.149,220
1567619794,329.171,156.493,-17.1896,178.813,1.27441,-155.149,220
1567619794,329.171,156.493,-17.1896,178.813,1.27441,-155.149,220
1567619794,329.171,156.493,-17.1896,178.813,1.25244,-155.149,224
1567619794,329.171,156.493,-17.1896,178.813,1.25244,-155.149,224
1567619794,329.171,156.493,-17.1896,178.813,1.25244,-155.149,224
1567619794,329.171,156.493,-17.1896,178.813,1.25244,-155.149,224
1567619794,329.171,156.493,-17.1896,178.813,1.25244,-155.149,224
1567619794,329.171,156.493,-17.1896,178.813,1.25244,-155.149,224
1567619794,329.171,156.381,-17.1896,178.813,1.27441,-155.149,224
1567619794,329.171,156.381,-17.1896,178.813,1.27441,-155.149,224
1567619794,329.171,156.381,-17.1896,178.813,1.27441,-155.149,224
1567619794,329.059,156.381,-17.1896,178.813,1.27441,-155.149,228
1567619794,329.059,156.381,-17.1896,178.813,1.27441,-155.149,228
1567619794,329.059,156.381,-17.078,178.813,1.27441,-155.149,228
1567619794,329.059,156.381,-17.078,178.813,1.27441,-155.149,228
1567619794,329.059,156.381,-17.078,178.813,1.27441,-155.149,228
1567619794,329.059,156.381,-17.078,178.792,1.27441,-155.149,228
1567619794,329.059,156.381,-17.1896,178.792,1.27441,-155.149,228
1567619794,329.059,156.381,-17.1896,178.792,1.27441,-155.149,232
1567619794,329.171,156.381,-17.1896,178.792,1.27441,-155.149,232
1567619794,329.171,156.381,-17.1896,178.792,1.27441,-155.149,232
1567619794,329.171,156.381,-17.1896,178.792,1.27441,-155.149,232
1567619794,329.171,156.381,-17.1896,178.792,1.27441,-155.149,232
1567619794,329.171,156.381,-17.1896,178.792,1.27441,-155.149,232
1567619794,329.171,156.381,-17.1896,178.792,1.27441,-155.149,232
1567619794,329.171,156.381,-17.078,178.792,1.27441,-155.149,232
1567619794,329.171,156.381,-17.078,178.792,1.27441,-155.149,232
1567619794,329.171,156.381,-17.078,178.792,1.27441,-155.149,228
1567619794,329.171,156.381,-17.078,178.792,1.29639,-155.149,228
1567619794,329.171,156.381,-17.078,178.792,1.29639,-155.149,228
1567619794,329.171,156.381,-17.078,178.813,1.29639,-155.149,228
1567619794,329.059,156.381,-17.078,178.813,1.29639,-155.149,228
1567619794,329.059,156.381,-17.078,178.813,1.29639,-155.149,228
1567619794,329.059,156.381,-17.078,178.813,1.29639,-155.149,228
1567619794,329.059,156.381,-17.078,178.813,1.29639,-155.149,224
1567619794,329.059,156.381,-17.078,178.813,1.29639,-155.149,224
1567619794,329.059,156.381,-17.078,178.813,1.29639,-155.149,224
1567619794,329.059,156.381,-17.078,178.813,1.29639,-155.149,224
1567619794,329.059,156.381,-17.078,178.813,1.29639,-155.149,224
1567619794,329.059,156.381,-17.078,178.813,1.29639,-155.149,224
1567619794,329.059,156.381,-17.078,178.813,1.29639,-155.149,224
1567619795,329.059,156.381,-17.078,178.813,1.29639,-155.149,224
1567619795,329.059,156.381,-17.078,178.813,1.29639,-155.149,224
1567619795,329.059,156.381,-17.078,178.813,1.29639,-155.149,224
1567619795,329.059,156.381,-17.078,178.813,1.29639,-155.149,224
1567619795,329.059,156.381,-17.078,178.813,1.29639,-155.149,224
1567619795,329.059,156.381,-17.078,178.813,1.29639,-155.149,224
1567619795,329.059,156.381,-17.078,178.813,1.29639,-155.149,228
1567619795,329.059,156.381,-17.078,178.813,1.29639,-155.149,228
1567619795,329.059,156.381,-17.078,178.813,1.29639,-155.149,228
1567619795,329.059,156.381,-17.078,178.792,1.29639,-155.149,228
1567619795,329.059,156.381,-17.078,178.792,1.29639,-155.149,228
1567619795,329.059,156.381,-17.078,178.792,1.29639,-155.149,228
1567619795,329.059,156.381,-17.078,178.792,1.29639,-155.171,232
1567619795,329.059,156.381,-17.078,178.792,1.29639,-155.171,232
1567619795,329.059,156.381,-17.078,178.792,1.29639,-155.171,232
1567619795,329.171,156.381,-17.078,178.792,1.29639,-155.171,232
1567619795,329.171,156.381,-17.078,178.792,1.29639,-155.171,232
1567619795,329.171,156.381,-17.078,178.792,1.29639,-155.149,232
1567619795,329.171,156.381,-17.078,178.792,1.29639,-155.149,232
1567619795,329.171,156.381,-17.078,178.792,1.29639,-155.149,232
1567619795,329.171,156.381,-17.078,178.792,1.29639,-155.149,232
1567619795,329.171,156.381,-17.078,178.792,1.29639,-155.149,232
1567619795,329.171,156.381,-17.078,178.792,1.29639,-155.149,232
1567619795,329.171,156.381,-17.078,178.792,1.29639,-155.149,228
1567619795,329.171,156.381,-17.078,178.792,1.29639,-155.149,228
1567619795,329.171,156.381,-17.078,178.792,1.29639,-155.149,228
1567619795,329.171,156.381,-17.078,178.792,1.29639,-155.149,228
1567619795,329.171,156.381,-17.078,178.792,1.29639,-155.149,228
1567619795,329.171,156.381,-17.078,178.792,1.29639,-155.171,224
1567619795,329.171,156.381,-17.078,178.792,1.29639,-155.171,224
1567619795,329.171,156.381,-17.078,178.792,1.29639,-155.171,224
1567619795,329.171,156.381,-17.078,178.792,1.29639,-155.171,224
1567619795,329.171,156.381,-17.078,178.792,1.29639,-155.171,224
1567619795,329.171,156.381,-17.078,178.792,1.29639,-155.171,220
1567619795,329.171,156.381,-17.078,178.792,1.29639,-155.171,220
1567619795,329.171,156.381,-17.078,178.792,1.29639,-155.171,220
1567619795,329.171,156.381,-17.078,178.792,1.29639,-155.171,220
1567619795,329.171,156.493,-17.078,178.792,1.29639,-155.171,220
1567619795,329.171,156.493,-17.078,178.813,1.29639,-155.171,220
1567619795,329.171,156.493,-17.078,178.813,1.29639,-155.171,220
1567619795,329.171,156.493,-17.078,178.813,1.29639,-155.171,220
1567619795,329.171,156.493,-17.078,178.813,1.29639,-155.149,216
1567619795,329.171,156.493,-17.078,178.813,1.29639,-155.149,216
1567619795,329.171,156.493,-17.078,178.813,1.29639,-155.149,216
1567619795,329.171,156.493,-17.078,178.813,1.29639,-155.149,216
1567619795,329.171,156.493,-17.078,178.813,1.29639,-155.149,216
1567619795,329.171,156.493,-17.078,178.813,1.29639,-155.149,216
1567619795,329.171,156.493,-17.078,178.813,1.29639,-155.149,216
1567619795,329.171,156.493,-17.078,178.813,1.29639,-155.149,216
1567619795,329.171,156.493,-17.078,178.813,1.29639,-155.149,216
1567619795,329.171,156.493,-17.078,178.813,1.29639,-155.149,216
1567619795,329.171,156.493,-17.078,178.813,1.27441,-155.149,216
1567619795,329.171,156.493,-17.078,178.813,1.27441,-155.149,212
1567619795,329.171,156.381,-17.078,178.813,1.27441,-155.149,212
1567619795,329.171,156.381,-17.078,178.813,1.27441,-155.149,216
1567619795,329.171,156.381,-17.078,178.813,1.27441,-155.149,216
1567619795,329.171,156.381,-17.078,178.813,1.27441,-155.149,216
1567619795,329.171,156.381,-17.078,178.813,1.27441,-155.149,216
1567619795,329.171,156.381,-17.078,178.813,1.27441,-155.149,216
1567619795,329.059,156.381,-17.078,178.813,1.27441,-155.149,216
1567619795,329.059,156.381,-17.078,178.813,1.27441,-155.149,216
1567619795,329.059,156.381,-17.078,178.813,1.27441,-155.149,216
1567619795,329.059,156.381,-17.1896,178.813,1.27441,-155.149,216
1567619795,329.059,156.381,-17.1896,178.813,1.27441,-155.149,216
1567619795,329.059,156.381,-17.1896,178.813,1.27441,-155.149,220
1567619795,329.059,156.381,-17.1896,178.813,1.27441,-155.149,220
1567619795,329.059,156.381,-17.1896,178.792,1.27441,-155.149,220
1567619795,329.171,156.381,-17.1896,178.792,1.27441,-155.149,220
1567619795,329.171,156.381,-17.078,178.792,1.27441,-155.149,220
1567619795,329.171,156.381,-17.1896,178.792,1.27441,-155.149,220
1567619795,329.171,156.381,-17.1896,178.792,1.27441,-155.149,220
1567619795,329.171,156.381,-17.1896,178.792,1.27441,-155.149,220
1567619795,329.171,156.381,-17.1896,178.792,1.27441,-155.149,220
1567619795,329.171,156.381,-17.1896,178.792,1.27441,-155.149,220
1567619795,329.171,156.381,-17.1896,178.792,1.27441,-155.149,224
1567619795,329.171,156.381,-17.1896,178.792,1.27441,-155.149,224
1567619795,329.171,156.381,-17.1896,178.792,1.27441,-155.127,224
1567619795,329.171,156.381,-17.1896,178.792,1.27441,-155.127,228
1567619795,329.171,156.381,-17.1896,178.792,1.27441,-155.127,228
1567619795,329.171,156.381,-17.1896,178.792,1.27441,-155.127,228
1567619795,329.171,156.381,-17.1896,178.792,1.27441,-155.127,232
1567619795,329.171,156.381,-17.1896,178.792,1.27441,-155.127,232
1567619795,329.171,156.381,-17.1896,178.792,1.27441,-155.127,232
1567619795,329.171,156.381,-17.1896,178.792,1.27441,-155.127,232
1567619795,329.171,156.381,-17.1896,178.792,1.27441,-155.127,232
1567619795,329.171,156.381,-17.1896,178.792,1.27441,-155.127,232
1567619795,329.171,156.381,-17.1896,178.792,1.27441,-155.127,232
1567619795,329.171,156.381,-17.1896,178.792,1.27441,-155.127,232
1567619795,329.171,156.381,-17.1896,178.792,1.27441,-155.127,236
1567619795,329.171,156.381,-17.1896,178.792,1.27441,-155.127,236
1567619795,329.171,156.381,-17.1896,178.792,1.27441,-155.127,236
1567619795,329.171,156.381,-17.1896,178.792,1.27441,-155.127,236
1567619795,329.171,156.381,-17.1896,178.792,1.27441,-155.127,232
1567619795,329.059,156.381,-17.1896,178.792,1.27441,-155.127,232
1567619795,329.059,156.381,-17.1896,178.792,1.25244,-155.127,232
1567619795,329.059,156.381,-17.1896,178.792,1.25244,-155.127,232
1567619795,329.059,156.381,-17.1896,178.792,1.25244,-155.127,232
1567619795,329.059,156.381,-17.1896,178.792,1.25244,-155.127,232
1567619795,329.059,156.381,-17.1896,178.813,1.25244,-155.127,232
1567619795,329.059,156.381,-17.1896,178.813,1.25244,-155.127,232
1567619796,329.059,156.381,-17.1896,178.813,1.25244,-155.127,232
1567619796,329.059,156.381,-17.1896,178.813,1.25244,-155.127,232
1567619796,329.059,156.381,-17.1896,178.813,1.25244,-155.127,232
1567619796,329.059,156.381,-17.1896,178.813,1.25244,-155.127,232
1567619796,329.059,156.381,-17.1896,178.813,1.25244,-155.127,232
1567619796,329.059,156.381,-17.1896,178.813,1.27441,-155.127,232
1567619796,329.059,156.381,-17.1896,178.813,1.27441,-155.127,232
1567619796,329.059,156.381,-17.1896,178.813,1.27441,-155.127,232
1567619796,329.059,156.381,-17.1896,178.813,1.27441,-155.127,232
1567619796,329.059,156.381,-17.1896,178.813,1.27441,-155.127,232
1567619796,329.059,156.381,-17.078,178.792,1.27441,-155.127,232
1567619796,329.059,156.381,-17.078,178.792,1.27441,-155.127,232
1567619796,329.059,156.381,-17.078,178.792,1.27441,-155.127,236
1567619796,329.059,156.27,-17.078,178.792,1.27441,-155.127,236
1567619796,329.059,156.27,-17.078,178.792,1.27441,-155.127,236
1567619796,329.059,156.27,-17.078,178.792,1.27441,-155.127,236
1567619796,329.059,156.381,-17.078,178.792,1.27441,-155.127,236
1567619796,329.059,156.381,-17.078,178.792,1.27441,-155.127,236
1567619796,329.059,156.381,-17.078,178.792,1.27441,-155.127,236
1567619796,329.059,156.381,-17.078,178.792,1.27441,-155.127,236
1567619796,329.059,156.381,-17.078,178.813,1.27441,-155.127,236
1567619796,329.059,156.381,-17.078,178.813,1.27441,-155.127,236
1567619796,329.059,156.381,-17.078,178.813,1.27441,-155.127,236
1567619796,329.059,156.381,-17.1896,178.813,1.27441,-155.127,236
1567619796,329.059,156.381,-17.1896,178.813,1.27441,-155.127,236
1567619796,329.059,156.381,-17.1896,178.813,1.27441,-155.127,236
1567619796,329.059,156.381,-17.1896,178.813,1.27441,-155.127,232
1567619796,329.059,156.381,-17.1896,178.813,1.27441,-155.127,232
1567619796,329.059,156.381,-17.1896,178.813,1.27441,-155.127,232
1567619796,329.059,156.381,-17.1896,178.792,1.27441,-155.127,232
1567619796,329.059,156.381,-17.1896,178.792,1.27441,-155.127,232
1567619796,329.059,156.381,-17.1896,178.792,1.27441,-155.127,232
1567619796,329.059,156.381,-17.1896,178.792,1.27441,-155.127,232
1567619796,329.059,156.381,-17.1896,178.792,1.27441,-155.127,232
1567619796,329.059,156.381,-17.1896,178.792,1.27441,-155.127,232
1567619796,329.059,156.381,-17.1896,178.792,1.27441,-155.127,232
1567619796,329.059,156.381,-17.1896,178.792,1.27441,-155.127,232
1567619796,329.059,156.381,-17.1896,178.792,1.27441,-155.127,232
1567619796,329.059,156.381,-17.1896,178.792,1.25244,-155.127,232
1567619796,329.059,156.381,-17.1896,178.792,1.25244,-155.127,232
1567619796,329.059,156.381,-17.1896,178.792,1.25244,-155.127,232
1567619796,329.059,156.381,-17.1896,178.792,1.25244,-155.127,232
1567619796,329.059,156.381,-17.1896,178.792,1.25244,-155.127,232
1567619796,329.059,156.381,-17.1896,178.792,1.25244,-155.127,232
1567619796,329.059,156.381,-17.1896,178.792,1.25244,-155.127,232
1567619796,329.059,156.381,-17.1896,178.792,1.25244,-155.127,232
1567619796,329.059,156.381,-17.1896,178.792,1.25244,-155.127,232
1567619796,329.059,156.381,-17.1896,178.813,1.25244,-155.127,232
1567619796,329.059,156.381,-17.1896,178.813,1.27441,-155.127,232
1567619796,329.059,156.381,-17.1896,178.813,1.27441,-155.127,232
1567619796,329.059,156.381,-17.1896,178.813,1.27441,-155.127,232
1567619796,329.059,156.381,-17.1896,178.813,1.27441,-155.127,232
1567619796,329.059,156.381,-17.1896,178.813,1.27441,-155.127,232
1567619796,329.059,156.381,-17.1896,178.813,1.27441,-155.127,228
1567619796,329.171,156.381,-17.1896,178.792,1.27441,-155.127,228
1567619796,329.171,156.381,-17.1896,178.792,1.27441,-155.127,228
1567619796,329.171,156.381,-17.1896,178.792,1.27441,-155.127,228
1567619796,329.171,156.381,-17.1896,178.792,1.27441,-155.127,224
1567619796,329.171,156.381,-17.1896,178.792,1.27441,-155.127,224
1567619796,329.171,156.381,-17.1896,178.792,1.27441,-155.127,224
1567619796,329.171,156.381,-17.1896,178.792,1.27441,-155.127,224
1567619796,329.171,156.381,-17.1896,178.792,1.27441,-155.149,224
1567619796,329.171,156.381,-17.1896,178.792,1.25244,-155.149,224
1567619796,329.171,156.381,-17.1896,178.792,1.25244,-155.149,224
1567619796,329.171,156.381,-17.1896,178.792,1.25244,-155.149,224
1567619796,329.171,156.381,-17.1896,178.77,1.25244,-155.149,224
1567619796,329.171,156.381,-17.1896,178.77,1.25244,-155.149,224
1567619796,329.171,156.381,-17.1896,178.77,1.25244,-155.149,224
1567619796,329.171,156.381,-17.1896,178.77,1.25244,-155.149,224
1567619796,329.171,156.381,-17.1896,178.77,1.25244,-155.149,224
1567619796,329.171,156.381,-17.1896,178.77,1.25244,-155.149,220
1567619796,329.171,156.27,-17.1896,178.77,1.25244,-155.127,220
1567619796,329.171,156.27,-17.1896,178.77,1.25244,-155.127,220
1567619796,329.171,156.27,-17.1896,178.77,1.25244,-155.127,220
1567619796,329.171,156.27,-17.1896,178.77,1.25244,-155.127,220
1567619824,344.351,139.973,-17.4129,178.879,0.98877,-154.885,252
1567619824,344.351,139.973,-17.4129,178.879,0.98877,-154.885,252
1567619824,344.351,139.973,-17.4129,178.879,0.98877,-154.885,252
1567619824,344.351,139.973,-17.4129,178.879,0.98877,-154.885,252
1567619824,344.351,139.973,-17.4129,178.879,0.98877,-154.885,252
1567619824,344.351,139.973,-17.4129,178.879,0.98877,-154.885,252
1567619824,344.351,139.973,-17.4129,178.879,0.98877,-154.885,252
1567619824,344.351,139.973,-17.4129,178.879,0.98877,-154.885,252
1567619824,344.351,139.973,-17.4129,178.879,0.98877,-154.885,252
1567619824,344.351,139.973,-17.4129,178.879,0.98877,-154.885,252
1567619824,344.351,139.973,-17.4129,178.879,0.98877,-154.885,252
1567619824,344.351,139.861,-17.4129,178.879,0.98877,-154.885,252
1567619824,344.351,139.861,-17.4129,178.879,0.98877,-154.885,252
1567619824,344.351,139.861,-17.4129,178.879,0.98877,-154.885,252
1567619824,344.351,139.861,-17.4129,178.879,0.98877,-154.885,252
1567619824,344.351,139.861,-17.4129,178.879,0.98877,-154.885,252
1567619824,344.351,139.861,-17.4129,178.879,0.98877,-154.885,252
1567619824,344.351,139.861,-17.4129,178.879,0.98877,-154.885,252
1567619824,344.351,139.861,-17.4129,178.857,0.98877,-154.885,252
1567619824,344.351,139.861,-17.4129,178.857,0.98877,-154.885,252
1567619824,344.351,139.861,-17.4129,178.857,0.98877,-154.885,252
1567619824,344.351,139.861,-17.4129,178.857,0.98877,-154.885,252
1567619824,344.351,139.861,-17.4129,178.857,0.98877,-154.885,252
1567619824,344.351,139.861,-17.4129,178.857,0.98877,-154.885,252
1567619824,344.351,139.861,-17.4129,178.857,0.98877,-154.885,252
1567619824,344.351,139.861,-17.4129,178.857,0.98877,-154.885,252
1567619824,344.351,139.861,-17.4129,178.857,0.98877,-154.885,252
1567619824,344.351,139.861,-17.4129,178.879,0.98877,-154.885,248
1567619824,344.351,139.861,-17.4129,178.879,0.98877,-154.885,248
1567619824,344.351,139.861,-17.4129,178.879,0.98877,-154.885,248
1567619824,344.351,139.861,-17.4129,178.879,0.98877,-154.885,248
1567619824,344.351,139.973,-17.4129,178.879,0.98877,-154.885,248
1567619824,344.351,139.973,-17.4129,178.879,0.98877,-154.885,248
1567619824,344.351,139.973,-17.4129,178.879,0.98877,-154.885,248
1567619824,344.351,139.973,-17.4129,178.879,0.98877,-154.885,248
1567619824,344.351,139.973,-17.4129,178.879,0.98877,-154.907,248
1567619824,344.351,139.973,-17.4129,178.879,0.98877,-154.907,248
1567619824,344.351,139.973,-17.4129,178.879,0.98877,-154.907,248
1567619824,344.351,139.973,-17.4129,178.879,0.98877,-154.907,248
1567619824,344.351,139.973,-17.4129,178.879,0.98877,-154.907,248
1567619824,344.351,139.973,-17.4129,178.901,0.98877,-154.907,248
1567619824,344.351,139.973,-17.4129,178.901,0.98877,-154.907,248
1567619824,344.351,139.973,-17.4129,178.901,0.98877,-154.907,248
1567619824,344.351,139.973,-17.4129,178.901,0.98877,-154.907,248
1567619824,344.351,139.973,-17.4129,178.901,0.98877,-154.907,248
1567619824,344.351,139.973,-17.4129,178.901,0.98877,-154.907,244
1567619824,344.351,139.973,-17.4129,178.901,0.98877,-154.907,244
1567619824,344.351,139.973,-17.4129,178.901,0.98877,-154.907,244
1567619824,344.351,139.973,-17.4129,178.901,0.98877,-154.907,244
1567619824,344.351,139.973,-17.4129,178.901,0.98877,-154.907,244
1567619824,344.351,139.973,-17.4129,178.901,0.98877,-154.907,248
1567619824,344.351,139.973,-17.4129,178.901,0.98877,-154.907,248
1567619824,344.351,139.973,-17.4129,178.901,0.98877,-154.907,248
1567619824,344.351,139.973,-17.4129,178.901,0.98877,-154.907,248
1567619824,344.351,139.973,-17.4129,178.901,0.98877,-154.907,248
1567619824,344.351,139.973,-17.4129,178.901,0.98877,-154.907,248
1567619824,344.351,139.973,-17.4129,178.901,0.98877,-154.907,252
1567619824,344.351,139.973,-17.4129,178.901,0.98877,-154.907,252
1567619824,344.351,139.973,-17.4129,178.901,0.98877,-154.907,252
1567619824,344.351,139.973,-17.4129,178.901,0.98877,-154.907,252
1567619824,344.351,139.973,-17.4129,178.901,0.98877,-154.907,252
1567619824,344.351,139.973,-17.4129,178.901,0.98877,-154.907,252
1567619824,344.351,139.973,-17.4129,178.901,0.98877,-154.907,252
1567619824,344.351,139.973,-17.4129,178.923,0.98877,-154.907,252
1567619824,344.351,139.973,-17.4129,178.923,0.98877,-154.907,252
1567619824,344.351,139.973,-17.4129,178.923,0.98877,-154.907,252
1567619824,344.351,139.973,-17.4129,178.923,0.98877,-154.885,252
1567619824,344.351,139.973,-17.4129,178.923,0.98877,-154.885,252
1567619824,344.351,139.973,-17.4129,178.923,0.98877,-154.885,252
1567619824,344.351,139.973,-17.4129,178.901,0.98877,-154.907,252
1567619824,344.351,139.973,-17.4129,178.901,0.98877,-154.907,252
1567619824,344.351,139.973,-17.4129,178.901,0.98877,-154.907,252
1567619824,344.351,139.973,-17.4129,178.901,0.98877,-154.907,252
1567619824,344.351,139.973,-17.4129,178.901,0.98877,-154.907,252
1567619824,344.351,139.973,-17.4129,178.901,0.98877,-154.907,252
1567619824,344.351,139.973,-17.4129,178.901,0.98877,-154.907,252
1567619825,344.351,139.973,-17.4129,178.879,0.98877,-154.907,252
1567619825,344.351,139.973,-17.4129,178.879,0.98877,-154.907,252
1567619825,344.351,139.973,-17.4129,178.879,0.98877,-154.907,252
1567619825,344.351,139.973,-17.4129,178.879,0.98877,-154.907,252
1567619825,344.351,139.973,-17.4129,178.879,0.966797,-154.907,252
1567619825,344.351,139.973,-17.4129,178.879,0.966797,-154.907,256
1567619825,344.351,139.973,-17.4129,178.879,0.966797,-154.907,256
1567619825,344.351,139.973,-17.4129,178.879,0.966797,-154.907,256
1567619825,344.351,139.973,-17.4129,178.879,0.966797,-154.907,256
1567619825,344.351,139.973,-17.4129,178.879,0.966797,-154.907,256
1567619825,344.351,139.973,-17.4129,178.879,0.966797,-154.907,256
1567619825,344.351,139.973,-17.4129,178.879,0.966797,-154.907,256
1567619825,344.351,139.973,-17.4129,178.901,0.966797,-154.907,256
1567619825,344.351,139.973,-17.4129,178.901,0.966797,-154.907,256
1567619825,344.351,139.973,-17.4129,178.901,0.966797,-154.907,256
1567619825,344.351,139.973,-17.4129,178.901,0.966797,-154.907,256
1567619825,344.351,139.973,-17.4129,178.901,0.966797,-154.907,256
1567619825,344.351,139.973,-17.4129,178.901,0.966797,-154.907,256
1567619825,344.351,139.973,-17.4129,178.901,0.966797,-154.907,252
1567619825,344.351,139.973,-17.4129,178.901,0.966797,-154.907,252
1567619825,344.351,139.973,-17.4129,178.901,0.966797,-154.907,252
1567619825,344.351,139.973,-17.4129,178.901,0.966797,-154.907,252
1567619825,344.351,139.973,-17.4129,178.901,0.966797,-154.907,252
1567619825,344.351,139.973,-17.4129,178.901,0.966797,-154.907,252
1567619825,344.351,139.973,-17.4129,178.901,0.966797,-154.907,248
1567619825,344.351,139.973,-17.4129,178.901,0.966797,-154.907,248
1567619825,344.351,139.973,-17.4129,178.901,0.966797,-154.907,248
1567619825,344.351,139.973,-17.4129,178.901,0.966797,-154.907,248
1567619825,344.351,139.973,-17.4129,178.901,0.966797,-154.907,248
1567619825,344.351,139.973,-17.4129,178.901,0.966797,-154.907,248
1567619825,344.351,139.973,-17.4129,178.901,0.966797,-154.907,248
1567619825,344.351,139.973,-17.4129,178.901,0.966797,-154.907,248
1567619825,344.351,139.973,-17.4129,178.879,0.966797,-154.907,248
1567619825,344.351,139.973,-17.4129,178.879,0.966797,-154.907,248
1567619825,344.351,139.973,-17.4129,178.879,0.98877,-154.907,248
1567619825,344.351,139.973,-17.4129,178.879,0.98877,-154.907,248
1567619825,344.351,139.973,-17.4129,178.879,0.98877,-154.907,248
1567619825,344.351,139.973,-17.4129,178.879,0.98877,-154.907,248
1567619825,344.351,139.973,-17.4129,178.879,0.98877,-154.907,248
1567619825,344.351,139.973,-17.4129,178.879,0.98877,-154.907,248
1567619825,344.351,139.973,-17.4129,178.879,0.98877,-154.907,248
1567619825,344.351,139.973,-17.3013,178.879,0.98877,-154.907,248
1567619825,344.351,139.973,-17.3013,178.879,0.98877,-154.907,248
1567619825,344.351,139.973,-17.3013,178.879,0.98877,-154.907,248
1567619825,344.351,139.973,-17.3013,178.879,0.98877,-154.907,248
1567619825,344.351,139.973,-17.3013,178.879,0.98877,-154.907,248
1567619825,344.351,139.973,-17.3013,178.879,0.98877,-154.907,248
1567619825,344.351,139.973,-17.4129,178.901,0.98877,-154.907,248
1567619825,344.351,139.973,-17.4129,178.901,0.98877,-154.907,248
1567619825,344.351,139.973,-17.4129,178.901,0.98877,-154.907,248
1567619825,344.351,139.973,-17.4129,178.901,0.98877,-154.907,248
1567619825,344.351,139.973,-17.4129,178.901,0.98877,-154.907,248
1567619825,344.351,139.973,-17.4129,178.901,0.98877,-154.907,248
1567619825,344.351,139.973,-17.4129,178.901,0.98877,-154.907,248
1567619825,344.351,139.973,-17.4129,178.901,0.98877,-154.907,248
1567619825,344.351,139.973,-17.4129,178.901,0.98877,-154.907,248
1567619825,344.239,139.973,-17.3013,178.901,0.98877,-154.907,248
1567619825,344.239,139.973,-17.3013,178.901,0.98877,-154.907,248
1567619825,344.239,139.973,-17.3013,178.901,0.98877,-154.907,248
1567619825,344.239,139.973,-17.3013,178.901,0.98877,-154.907,248
1567619825,344.239,139.973,-17.3013,178.901,0.98877,-154.907,248
1567619825,344.239,139.973,-17.3013,178.901,0.98877,-154.907,248
1567619825,344.239,139.973,-17.3013,178.901,0.98877,-154.907,252
1567619825,344.239,139.973,-17.3013,178.901,0.98877,-154.907,252
1567619825,344.351,139.973,-17.3013,178.901,0.98877,-154.929,252
1567619825,344.351,139.973,-17.3013,178.901,0.98877,-154.929,252
1567619825,344.351,139.973,-17.3013,178.901,0.98877,-154.929,252
1567619825,344.351,139.973,-17.3013,178.901,0.98877,-154.929,252
1567619825,344.351,139.973,-17.3013,178.901,0.98877,-154.929,252
1567619825,344.351,139.973,-17.3013,178.901,0.98877,-154.929,252
1567619825,344.351,139.973,-17.3013,178.901,0.98877,-154.929,252
1567619825,344.351,140.084,-17.3013,178.901,0.98877,-154.929,252
1567619825,344.351,140.084,-17.3013,178.923,0.98877,-154.929,252
1567619825,344.351,140.084,-17.3013,178.923,0.98877,-154.929,252
1567619825,344.351,140.084,-17.3013,178.923,0.98877,-154.929,252
1567619825,344.351,140.084,-17.3013,178.923,0.98877,-154.929,252
1567619825,344.351,140.084,-17.3013,178.923,0.98877,-154.929,252
1567619825,344.351,140.084,-17.3013,178.923,0.98877,-154.929,252
1567619825,344.351,140.084,-17.4129,178.923,0.966797,-154.929,252
1567619825,344.351,139.973,-17.4129,178.923,0.966797,-154.929,252
1567619825,344.351,139.973,-17.4129,178.923,0.966797,-154.929,252
1567619825,344.351,139.973,-17.4129,178.901,0.966797,-154.929,256
1567619825,344.351,139.973,-17.4129,178.901,0.966797,-154.929,256
1567619825,344.351,139.973,-17.4129,178.901,0.966797,-154.929,256
1567619825,344.351,139.973,-17.4129,178.901,0.966797,-154.929,256
1567619825,344.351,139.973,-17.4129,178.901,0.966797,-154.929,256
1567619825,344.351,139.973,-17.4129,178.901,0.98877,-154.929,256
1567619825,344.351,139.973,-17.4129,178.901,0.98877,-154.929,256
1567619825,344.351,139.973,-17.3013,178.901,0.98877,-154.929,256
1567619825,344.351,139.973,-17.3013,178.901,0.98877,-154.929,252
1567619825,344.351,139.973,-17.3013,178.901,0.98877,-154.929,252
1567619825,344.351,139.973,-17.3013,178.901,0.98877,-154.929,252
1567619825,344.351,139.973,-17.3013,178.901,0.98877,-154.929,252
1567619825,344.351,139.973,-17.3013,178.901,0.98877,-154.929,252
1567619825,344.351,139.973,-17.4129,178.901,0.966797,-154.929,252
1567619825,344.351,139.973,-17.4129,178.901,0.966797,-154.929,252
1567619825,344.351,139.973,-17.4129,178.901,0.966797,-154.929,252
1567619825,344.351,139.973,-17.4129,178.901,0.966797,-154.907,252
1567619825,344.351,139.973,-17.4129,178.901,0.966797,-154.907,252
1567619825,344.351,139.973,-17.4129,178.901,0.966797,-154.907,252
1567619826,344.351,139.973,-17.4129,178.901,0.966797,-154.907,256
1567619826,344.351,139.973,-17.4129,178.901,0.966797,-154.907,256
1567619826,344.351,139.973,-17.4129,178.901,0.966797,-154.907,256
1567619826,344.351,139.973,-17.4129,178.901,0.966797,-154.907,256
1567619826,344.351,139.973,-17.4129,178.901,0.966797,-154.907,256
1567619826,344.351,139.973,-17.4129,178.901,0.966797,-154.907,256
1567619826,344.351,139.973,-17.4129,178.901,0.966797,-154.907,256
1567619826,344.351,139.973,-17.4129,178.901,0.966797,-154.907,256
1567619826,344.351,139.973,-17.4129,178.901,0.966797,-154.907,256
1567619826,344.351,139.973,-17.4129,178.901,0.966797,-154.907,256
1567619826,344.351,139.973,-17.4129,178.901,0.966797,-154.907,256
1567619826,344.351,139.973,-17.4129,178.901,0.966797,-154.907,256
1567619826,344.351,139.973,-17.4129,178.901,0.966797,-154.907,256
1567619826,344.351,139.973,-17.4129,178.901,0.966797,-154.907,256
1567619826,344.351,139.973,-17.4129,178.901,0.966797,-154.907,256
1567619826,344.351,139.973,-17.4129,178.901,0.966797,-154.907,256
1567619826,344.351,139.973,-17.4129,178.901,0.98877,-154.907,252
1567619826,344.351,139.973,-17.4129,178.901,0.98877,-154.907,252
1567619826,344.351,139.973,-17.4129,178.901,0.98877,-154.907,252
1567619826,344.351,140.084,-17.4129,178.901,0.98877,-154.907,252
1567619826,344.351,140.084,-17.4129,178.923,0.98877,-154.907,252
1567619826,344.351,140.084,-17.4129,178.923,0.98877,-154.907,248
1567619826,344.351,140.084,-17.4129,178.923,0.98877,-154.907,248
1567619826,344.351,140.084,-17.4129,178.923,0.98877,-154.907,248
1567619826,344.351,140.084,-17.4129,178.923,0.98877,-154.907,244
1567619826,344.351,140.084,-17.4129,178.923,0.98877,-154.907,244
1567619826,344.351,140.084,-17.4129,178.923,0.98877,-154.907,244
1567619826,344.351,140.084,-17.4129,178.923,0.966797,-154.907,244
1567619826,344.351,140.084,-17.4129,178.923,0.966797,-154.907,244
1567619826,344.351,140.084,-17.4129,178.923,0.966797,-154.907,244
1567619826,344.351,140.084,-17.4129,178.923,0.966797,-154.907,240
1567619826,344.351,140.084,-17.4129,178.923,0.966797,-154.907,240
1567619826,344.351,140.084,-17.4129,178.923,0.966797,-154.907,240
1567619826,344.351,140.084,-17.4129,178.923,0.966797,-154.907,240
1567619826,344.351,140.084,-17.4129,178.923,0.966797,-154.907,240
1567619826,344.351,139.973,-17.4129,178.923,0.98877,-154.907,240
1567619826,344.351,139.973,-17.4129,178.901,0.98877,-154.907,240
1567619826,344.351,139.973,-17.4129,178.901,0.98877,-154.907,240
1567619826,344.351,139.973,-17.4129,178.901,0.98877,-154.907,240
1567619826,344.351,139.973,-17.4129,178.901,0.98877,-154.907,240
1567619826,344.351,139.973,-17.4129,178.901,0.98877,-154.907,244
1567619826,344.351,139.973,-17.4129,178.901,0.98877,-154.907,244
1567619826,344.351,139.973,-17.4129,178.901,0.98877,-154.907,244
1567619826,344.351,139.973,-17.4129,178.901,0.98877,-154.907,244
1567619826,344.351,139.973,-17.4129,178.901,0.98877,-154.907,244
1567619826,344.351,139.973,-17.4129,178.901,0.966797,-154.907,244
1567619826,344.351,139.973,-17.4129,178.901,0.966797,-154.907,244
1567619826,344.351,139.973,-17.4129,178.901,0.966797,-154.907,244
1567619826,344.351,139.973,-17.4129,178.901,0.966797,-154.907,244
1567619826,344.351,139.861,-17.4129,178.901,0.966797,-154.907,248
1567619826,344.351,139.861,-17.4129,178.901,0.966797,-154.907,248
1567619826,344.351,139.861,-17.4129,178.901,0.966797,-154.907,248
1567619826,344.351,139.861,-17.4129,178.901,0.966797,-154.907,248
1567619826,344.351,139.861,-17.4129,178.901,0.966797,-154.907,252
1567619826,344.351,139.861,-17.4129,178.901,0.966797,-154.907,252
1567619826,344.351,139.861,-17.4129,178.901,0.966797,-154.907,252
1567619826,344.351,139.861,-17.5245,178.901,0.966797,-154.907,256
1567619826,344.351,139.861,-17.5245,178.901,0.944824,-154.907,256
1567619826,344.351,139.861,-17.5245,178.901,0.944824,-154.907,256
1567619826,344.351,139.861,-17.5245,178.901,0.944824,-154.907,260
1567619826,344.351,139.861,-17.5245,178.901,0.944824,-154.907,260
1567619826,344.351,139.861,-17.5245,178.901,0.944824,-154.907,260
1567619826,344.351,139.861,-17.5245,178.901,0.944824,-154.907,264
1567619826,344.239,139.861,-17.5245,178.901,0.944824,-154.907,264
1567619826,344.239,139.973,-17.5245,178.901,0.944824,-154.907,264
1567619826,344.239,139.973,-17.5245,178.901,0.944824,-154.907,268
1567619826,344.239,139.973,-17.5245,178.901,0.944824,-154.885,268
1567619826,344.239,139.973,-17.5245,178.901,0.966797,-154.885,268
1567619826,344.239,139.973,-17.5245,178.901,0.966797,-154.885,268
1567619826,344.239,139.973,-17.4129,178.901,0.966797,-154.885,268
1567619826,344.239,139.973,-17.4129,178.901,0.966797,-154.885,268
1567619826,344.239,139.973,-17.4129,178.901,0.966797,-154.885,268
1567619826,344.351,139.973,-17.4129,178.901,0.966797,-154.885,268
1567619826,344.351,139.973,-17.4129,178.901,0.966797,-154.885,264
1567619826,344.351,139.973,-17.4129,178.901,0.966797,-154.885,264
1567619826,344.351,139.973,-17.4129,178.901,0.966797,-154.885,264
1567619826,344.351,139.973,-17.4129,178.901,0.966797,-154.885,264
1567619826,344.351,139.973,-17.4129,178.901,0.966797,-154.885,264
1567619826,344.351,139.973,-17.4129,178.901,0.966797,-154.885,260
1567619826,344.351,139.973,-17.4129,178.901,0.966797,-154.885,260
1567619826,344.351,139.861,-17.4129,178.901,0.966797,-154.907,260
1567619826,344.351,139.861,-17.4129,178.879,0.966797,-154.907,260
1567619826,344.351,139.861,-17.4129,178.879,0.966797,-154.907,260
1567619826,344.351,139.861,-17.4129,178.879,0.966797,-154.907,260
1567619826,344.351,139.861,-17.4129,178.879,0.966797,-154.907,260
1567619826,344.351,139.861,-17.4129,178.879,0.966797,-154.907,260
1567619826,344.351,139.861,-17.4129,178.879,0.966797,-154.907,260
1567619826,344.351,139.861,-17.4129,178.879,0.966797,-154.907,260
1567619826,344.351,139.861,-17.4129,178.879,0.966797,-154.907,260
1567619826,344.351,139.861,-17.4129,178.879,0.98877,-154.907,260
1567619826,344.351,139.861,-17.4129,178.879,0.98877,-154.907,260
1567619826,344.351,139.861,-17.4129,178.879,0.98877,-154.907,264
1567619826,344.351,139.861,-17.4129,178.857,0.98877,-154.907,264
1567619826,344.351,139.861,-17.4129,178.857,0.98877,-154.907,264
1567619826,344.351,139.861,-17.4129,178.857,0.98877,-154.907,264
1567619826,344.351,139.861,-17.4129,178.857,0.98877,-154.907,264
1567619826,344.351,139.861,-17.4129,178.857,0.98877,-154.907,264
1567619826,344.351,139.861,-17.4129,178.857,0.98877,-154.907,264
1567619826,344.351,139.861,-17.4129,178.857,0.98877,-154.907,268
1567619826,344.351,139.861,-17.4129,178.879,0.98877,-154.907,268
1567619827,344.351,139.861,-17.4129,178.879,0.98877,-154.907,268
1567619827,344.351,139.973,-17.4129,178.879,0.98877,-154.907,268
1567619827,344.351,139.973,-17.4129,178.879,0.98877,-154.907,268
1567619827,344.351,139.973,-17.4129,178.879,0.98877,-154.907,268
1567619827,344.351,139.973,-17.4129,178.879,0.98877,-154.907,268
1567619827,344.351,139.973,-17.4129,178.879,0.98877,-154.907,268
1567619827,344.351,139.973,-17.4129,178.879,0.98877,-154.907,268
1567619827,344.351,139.973,-17.4129,178.879,0.98877,-154.907,268
1567619827,344.351,139.973,-17.4129,178.879,0.98877,-154.907,268
1567619827,344.351,139.973,-17.4129,178.879,0.98877,-154.907,268
1567619827,344.351,139.973,-17.4129,178.879,0.98877,-154.907,268
1567619827,344.351,139.973,-17.4129,178.879,0.98877,-154.907,268
1567619827,344.351,139.973,-17.4129,178.879,0.98877,-154.907,268
1567619827,344.351,139.973,-17.4129,178.879,0.98877,-154.907,268
1567619827,344.351,139.973,-17.4129,178.879,0.98877,-154.907,268
1567619827,344.351,139.973,-17.4129,178.879,0.98877,-154.907,268
1567619827,344.351,139.973,-17.4129,178.879,0.98877,-154.907,264
1567619827,344.351,139.973,-17.4129,178.879,0.98877,-154.907,264
1567619827,344.351,139.973,-17.4129,178.879,0.98877,-154.907,264
1567619827,344.351,139.973,-17.4129,178.879,0.98877,-154.907,264
1567619827,344.351,139.973,-17.4129,178.879,0.98877,-154.907,264
1567619827,344.351,139.973,-17.4129,178.879,0.966797,-154.907,260
1567619827,344.351,139.973,-17.4129,178.879,0.966797,-154.907,260
1567619827,344.351,139.973,-17.4129,178.879,0.966797,-154.907,260
1567619827,344.351,139.973,-17.4129,178.901,0.966797,-154.907,260
1567619827,344.351,139.973,-17.4129,178.901,0.966797,-154.907,260
1567619827,344.351,139.973,-17.4129,178.879,0.966797,-154.907,256
1567619827,344.351,139.973,-17.4129,178.879,0.966797,-154.907,256
1567619827,344.351,139.973,-17.4129,178.879,0.966797,-154.907,256
1567619827,344.351,139.973,-17.4129,178.879,0.966797,-154.907,256
1567619827,344.351,139.973,-17.4129,178.879,0.966797,-154.907,256
1567619827,344.351,139.973,-17.4129,178.879,0.966797,-154.907,252
1567619827,344.351,139.973,-17.5245,178.879,0.966797,-154.907,252
1567619827,344.351,139.973,-17.5245,178.879,0.966797,-154.907,252
1567619827,344.351,139.973,-17.5245,178.879,0.966797,-154.885,252
1567619827,344.351,139.973,-17.5245,178.879,0.944824,-154.885,252
1567619827,344.351,139.973,-17.5245,178.879,0.944824,-154.885,248
1567619827,344.351,139.973,-17.5245,178.879,0.944824,-154.885,248
1567619827,344.351,139.973,-17.5245,178.879,0.944824,-154.885,248
1567619827,344.351,139.973,-17.5245,178.879,0.944824,-154.885,248
1567619827,344.351,139.973,-17.5245,178.879,0.944824,-154.885,248
1567619827,344.351,139.973,-17.5245,178.879,0.944824,-154.885,252
1567619827,344.351,139.973,-17.5245,178.879,0.944824,-154.885,252
1567619827,344.351,139.973,-17.5245,178.879,0.944824,-154.885,252
1567619827,344.351,139.973,-17.5245,178.879,0.966797,-154.885,252
1567619827,344.351,139.973,-17.4129,178.879,0.966797,-154.885,252
1567619827,344.351,139.973,-17.4129,178.879,0.966797,-154.885,252
1567619827,344.351,139.973,-17.4129,178.879,0.966797,-154.885,252
1567619827,344.351,139.973,-17.4129,178.879,0.966797,-154.885,252
1567619827,344.351,139.973,-17.4129,178.879,0.966797,-154.885,256
1567619827,344.351,139.973,-17.4129,178.879,0.966797,-154.885,256
1567619827,344.351,139.973,-17.4129,178.879,0.966797,-154.885,256
1567619827,344.351,139.973,-17.4129,178.879,0.966797,-154.885,256
1567619827,344.351,139.973,-17.4129,178.879,0.966797,-154.885,256
1567619827,344.351,139.973,-17.4129,178.879,0.966797,-154.885,256
1567619827,344.351,139.973,-17.4129,178.879,0.966797,-154.885,256
1567619827,344.351,139.973,-17.4129,178.879,0.966797,-154.907,260
1567619827,344.351,139.973,-17.4129,178.879,0.966797,-154.907,260
1567619827,344.351,139.973,-17.4129,178.901,0.966797,-154.885,260
1567619827,344.351,139.973,-17.4129,178.901,0.966797,-154.885,260
1567619827,344.351,139.973,-17.4129,178.901,0.966797,-154.885,260
1567619827,344.351,139.973,-17.4129,178.901,0.944824,-154.885,260
1567619827,344.351,139.973,-17.4129,178.901,0.944824,-154.885,260
1567619827,344.239,139.973,-17.4129,178.901,0.944824,-154.885,260
1567619827,344.239,139.973,-17.4129,178.923,0.944824,-154.885,260
1567619827,344.239,140.084,-17.4129,178.923,0.944824,-154.885,260
1567619827,344.239,140.084,-17.5245,178.923,0.944824,-154.885,260
1567619827,344.239,140.084,-17.5245,178.923,0.944824,-154.885,260
1567619827,344.239,140.084,-17.4129,178.923,0.944824,-154.885,260
1567619827,344.351,140.084,-17.4129,178.923,0.944824,-154.885,260
1567619827,344.351,140.084,-17.4129,178.923,0.944824,-154.885,260
1567619827,344.351,140.084,-17.4129,178.923,0.944824,-154.885,260
1567619827,344.351,140.084,-17.4129,178.923,0.966797,-154.885,260
1567619827,344.351,140.084,-17.4129,178.923,0.966797,-154.885,260
1567619827,344.351,139.973,-17.4129,178.901,0.966797,-154.885,260
1567619827,344.351,139.973,-17.4129,178.901,0.966797,-154.885,264
1567619827,344.351,139.973,-17.4129,178.901,0.966797,-154.885,264
1567619827,344.351,139.973,-17.4129,178.901,0.966797,-154.885,264
1567619827,344.351,139.973,-17.4129,178.901,0.966797,-154.885,264
1567619827,344.351,139.973,-17.4129,178.901,0.966797,-154.885,264
1567619827,344.351,139.973,-17.4129,178.901,0.966797,-154.885,264
1567619827,344.351,139.973,-17.4129,178.901,0.966797,-154.907,264
1567619827,344.351,139.973,-17.4129,178.901,0.966797,-154.907,264
1567619827,344.351,139.973,-17.4129,178.901,0.966797,-154.907,264
1567619827,344.351,139.973,-17.4129,178.901,0.966797,-154.907,264
1567619827,344.351,139.973,-17.4129,178.901,0.98877,-154.907,264
1567619827,344.351,139.973,-17.4129,178.901,0.98877,-154.907,264
1567619827,344.351,139.973,-17.4129,178.901,0.98877,-154.907,264
1567619827,344.351,139.973,-17.4129,178.901,0.98877,-154.907,264
1567619827,344.351,139.973,-17.4129,178.901,0.98877,-154.907,268
1567619827,344.351,139.973,-17.3013,178.901,0.98877,-154.907,268
1567619827,344.351,139.973,-17.3013,178.901,0.98877,-154.907,268
1567619827,344.351,139.973,-17.3013,178.879,0.98877,-154.907,268
1567619827,344.351,139.973,-17.3013,178.879,0.98877,-154.907,268
1567619827,344.351,139.973,-17.3013,178.879,1.01074,-154.907,268
1567619827,344.351,139.973,-17.3013,178.879,1.01074,-154.907,272
1567619827,344.351,139.861,-17.3013,178.879,1.01074,-154.907,272
1567619827,344.351,139.973,-17.3013,178.879,1.01074,-154.907,272
1567619827,344.351,139.973,-17.3013,178.879,1.01074,-154.907,272
1567619827,344.351,139.973,-17.3013,178.879,1.01074,-154.907,272
1567619828,344.351,139.973,-17.3013,178.879,1.01074,-154.907,272
1567619828,344.351,139.973,-17.3013,178.901,1.01074,-154.907,272
1567619828,344.351,139.973,-17.3013,178.901,1.01074,-154.907,272
1567619828,344.351,139.973,-17.3013,178.901,1.01074,-154.907,272
1567619828,344.351,139.973,-17.3013,178.901,1.01074,-154.907,272
1567619828,344.351,139.973,-17.3013,178.901,1.01074,-154.907,268
1567619828,344.351,139.973,-17.3013,178.901,1.01074,-154.907,268
1567619828,344.351,139.973,-17.3013,178.901,1.01074,-154.907,268
1567619828,344.351,139.973,-17.3013,178.901,1.01074,-154.907,268
1567619828,344.351,139.973,-17.3013,178.901,1.01074,-154.907,264
1567619828,344.351,139.973,-17.3013,178.901,1.01074,-154.907,264
1567619828,344.351,139.973,-17.3013,178.901,1.01074,-154.907,260
1567619828,344.351,139.973,-17.3013,178.901,1.01074,-154.907,260
1567619828,344.351,139.973,-17.3013,178.901,0.98877,-154.907,256
1567619828,344.351,139.973,-17.3013,178.901,0.98877,-154.907,256
1567619828,344.351,139.973,-17.3013,178.901,0.98877,-154.907,256
1567619828,344.351,139.973,-17.4129,178.901,0.98877,-154.907,252
1567619828,344.351,139.973,-17.4129,178.901,0.98877,-154.907,252
1567619828,344.351,139.973,-17.4129,178.901,0.98877,-154.907,252
1567619828,344.351,139.973,-17.4129,178.901,0.966797,-154.907,252
1567619828,344.351,139.973,-17.4129,178.901,0.966797,-154.907,252
1567619828,344.351,139.973,-17.4129,178.901,0.966797,-154.907,248
1567619828,344.351,139.973,-17.4129,178.901,0.966797,-154.907,248
1567619828,344.351,139.973,-17.4129,178.901,0.966797,-154.907,248
1567619828,344.351,139.973,-17.4129,178.901,0.966797,-154.907,248
1567619828,344.351,139.973,-17.4129,178.901,0.966797,-154.907,248
1567619828,344.351,139.973,-17.4129,178.901,0.966797,-154.907,248
1567619828,344.351,139.973,-17.4129,178.901,0.966797,-154.907,248
1567619828,344.351,139.973,-17.4129,178.901,0.966797,-154.885,248
1567619828,344.351,139.973,-17.4129,178.901,0.966797,-154.885,248
1567619828,344.351,139.973,-17.4129,178.901,0.966797,-154.885,248
1567619828,344.351,139.973,-17.4129,178.901,0.966797,-154.885,248
1567619828,344.351,139.973,-17.4129,178.901,0.966797,-154.885,248
1567619828,344.351,139.973,-17.4129,178.901,0.966797,-154.885,248
1567619828,344.351,139.973,-17.4129,178.901,0.966797,-154.885,248
1567619828,344.351,139.973,-17.4129,178.901,0.966797,-154.885,248
1567619828,344.351,139.973,-17.4129,178.901,0.966797,-154.885,252
1567619828,344.351,139.973,-17.4129,178.901,0.966797,-154.885,252
1567619828,344.351,139.973,-17.4129,178.901,0.966797,-154.885,252
1567619828,344.351,139.973,-17.4129,178.901,0.966797,-154.885,252
1567619828,344.351,139.973,-17.4129,178.901,0.966797,-154.885,252
1567619828,344.351,139.973,-17.4129,178.901,0.966797,-154.907,252
1567619828,344.351,140.084,-17.4129,178.901,0.966797,-154.885,252
1567619828,344.351,140.084,-17.4129,178.901,0.966797,-154.907,252
1567619828,344.351,140.084,-17.4129,178.901,0.966797,-154.907,252
1567619828,344.351,140.084,-17.4129,178.923,0.966797,-154.907,252
1567619828,344.351,140.084,-17.4129,178.923,0.966797,-154.907,252
1567619828,344.351,140.084,-17.4129,178.923,0.966797,-154.907,252
1567619828,344.351,140.084,-17.4129,178.923,0.966797,-154.907,252
1567619828,344.351,140.084,-17.4129,178.923,0.966797,-154.907,252
1567619828,344.351,140.084,-17.4129,178.923,0.966797,-154.907,252
1567619828,344.351,140.084,-17.4129,178.923,0.966797,-154.907,252
1567619828,344.351,140.084,-17.4129,178.923,0.966797,-154.907,248
1567619828,344.351,140.084,-17.4129,178.901,0.966797,-154.907,248
1567619828,344.351,140.084,-17.4129,178.901,0.966797,-154.907,248
1567619828,344.351,140.084,-17.4129,178.901,0.966797,-154.907,248
1567619828,344.351,140.084,-17.4129,178.901,0.966797,-154.907,248
1567619828,344.351,139.973,-17.4129,178.901,0.966797,-154.907,248
1567619828,344.351,139.973,-17.4129,178.901,0.966797,-154.907,248
1567619828,344.351,139.973,-17.4129,178.901,0.966797,-154.907,248
1567619828,344.351,139.973,-17.4129,178.901,0.966797,-154.907,248
1567619828,344.351,139.973,-17.4129,178.901,0.966797,-154.907,248
1567619828,344.351,139.973,-17.4129,178.901,0.966797,-154.907,248
1567619828,344.351,139.973,-17.4129,178.901,0.966797,-154.907,252
1567619828,344.351,139.973,-17.4129,178.901,0.966797,-154.907,252
1567619828,344.351,139.973,-17.4129,178.901,0.966797,-154.907,252
1567619828,344.239,139.973,-17.4129,178.901,0.966797,-154.907,252
1567619828,344.239,139.973,-17.4129,178.901,0.966797,-154.907,256
1567619828,344.239,139.973,-17.4129,178.901,0.966797,-154.907,256
1567619828,344.351,139.973,-17.4129,178.879,0.966797,-154.907,256
1567619828,344.351,139.973,-17.4129,178.879,0.966797,-154.907,256
1567619828,344.351,139.973,-17.4129,178.879,0.98877,-154.907,256
1567619828,344.351,139.973,-17.4129,178.879,0.98877,-154.907,256
1567619828,344.351,139.973,-17.4129,178.879,0.98877,-154.907,256
1567619828,344.351,139.973,-17.4129,178.879,0.98877,-154.907,256
1567619828,344.351,139.973,-17.4129,178.879,0.98877,-154.907,256
1567619828,344.351,139.973,-17.3013,178.879,0.98877,-154.907,256
1567619828,344.351,139.973,-17.3013,178.879,0.98877,-154.907,256
1567619828,344.351,139.973,-17.3013,178.879,0.98877,-154.907,256
1567619828,344.351,139.973,-17.3013,178.901,1.01074,-154.907,256
1567619828,344.351,139.973,-17.3013,178.901,1.01074,-154.907,256
1567619828,344.351,139.973,-17.3013,178.901,1.01074,-154.907,260
1567619828,344.239,139.973,-17.3013,178.901,1.01074,-154.907,260
1567619828,344.239,139.973,-17.3013,178.901,1.01074,-154.907,260
1567619828,344.239,139.973,-17.3013,178.901,1.01074,-154.907,260
1567619828,344.239,139.973,-17.3013,178.901,1.01074,-154.907,260
1567619828,344.239,139.973,-17.3013,178.901,1.01074,-154.907,260
1567619828,344.239,139.973,-17.3013,178.901,1.01074,-154.907,264
1567619828,344.239,139.973,-17.3013,178.901,1.01074,-154.907,264
1567619828,344.239,139.973,-17.3013,178.901,1.01074,-154.907,264
1567619828,344.239,139.973,-17.3013,178.901,1.01074,-154.907,264
1567619828,344.239,139.973,-17.3013,178.901,1.01074,-154.907,264
1567619828,344.239,139.973,-17.3013,178.901,0.98877,-154.885,264
1567619828,344.239,139.973,-17.3013,178.923,0.98877,-154.885,264
1567619828,344.239,139.973,-17.3013,178.901,0.98877,-154.885,264
1567619828,344.239,139.973,-17.4129,178.901,0.98877,-154.885,264
1567619828,344.239,139.973,-17.4129,178.901,0.98877,-154.885,264
1567619828,344.239,139.973,-17.4129,178.901,0.98877,-154.885,264
1567619828,344.239,139.973,-17.4129,178.901,0.98877,-154.885,264
1567619828,344.239,139.973,-17.4129,178.901,0.98877,-154.885,264
1567619829,344.239,139.973,-17.4129,178.901,0.98877,-154.885,264
1567619829,344.239,139.973,-17.4129,178.901,0.98877,-154.885,264
1567619829,344.239,139.973,-17.4129,178.901,0.98877,-154.885,264
1567619829,344.239,139.973,-17.4129,178.901,0.98877,-154.885,264
1567619829,344.239,139.973,-17.4129,178.901,0.98877,-154.885,264
1567619829,344.239,139.973,-17.4129,178.901,0.98877,-154.885,264
1567619829,344.239,139.973,-17.4129,178.901,0.98877,-154.885,264
1567619829,344.239,139.973,-17.4129,178.901,0.98877,-154.885,264
1567619829,344.239,139.973,-17.4129,178.901,0.98877,-154.885,264
1567619829,344.239,139.973,-17.3013,178.901,0.98877,-154.885,264
1567619829,344.239,139.973,-17.3013,178.901,0.98877,-154.885,264
1567619829,344.239,139.973,-17.3013,178.901,0.98877,-154.885,264
1567619829,344.239,139.973,-17.3013,178.901,0.98877,-154.885,264
1567619829,344.239,139.973,-17.3013,178.901,0.98877,-154.885,260
1567619829,344.351,139.973,-17.3013,178.901,1.01074,-154.885,260
1567619829,344.351,139.973,-17.3013,178.901,1.01074,-154.885,260
1567619829,344.351,139.973,-17.3013,178.901,1.01074,-154.885,260
1567619829,344.351,139.973,-17.3013,178.901,0.98877,-154.885,260
1567619829,344.351,139.973,-17.3013,178.901,0.98877,-154.885,260
1567619829,344.351,139.973,-17.3013,178.901,0.98877,-154.885,256
1567619829,344.351,139.973,-17.3013,178.901,0.98877,-154.885,256
1567619829,344.351,139.973,-17.3013,178.901,0.98877,-154.885,256
1567619829,344.351,139.973,-17.3013,178.901,0.98877,-154.885,256
1567619829,344.351,139.973,-17.4129,178.901,0.98877,-154.885,256
1567619837,367.457,115.639,-17.4129,179.033,1.07666,-155.061,284
1567619837,367.457,115.639,-17.4129,179.033,1.07666,-155.061,284
1567619837,367.457,115.639,-17.4129,179.033,1.07666,-155.061,284
1567619837,367.457,115.639,-17.4129,179.033,1.07666,-155.061,288
1567619837,367.457,115.639,-17.3013,179.055,1.07666,-155.061,288
1567619837,367.457,115.639,-17.3013,179.055,1.07666,-155.061,288
1567619837,367.457,115.639,-17.3013,179.055,1.07666,-155.061,288
1567619837,367.457,115.639,-17.3013,179.033,1.07666,-155.061,288
1567619837,367.457,115.639,-17.3013,179.033,1.07666,-155.061,288
1567619837,367.457,115.639,-17.3013,179.033,1.07666,-155.061,288
1567619837,367.457,115.639,-17.3013,179.033,1.07666,-155.061,292
1567619837,367.457,115.528,-17.3013,179.033,1.07666,-155.061,292
1567619837,367.457,115.528,-17.3013,179.033,1.07666,-155.061,292
1567619837,367.457,115.528,-17.3013,179.033,1.07666,-155.061,292
1567619837,367.457,115.528,-17.3013,179.033,1.07666,-155.061,292
1567619837,367.457,115.528,-17.3013,179.033,1.07666,-155.061,292
1567619837,367.457,115.528,-17.3013,179.011,1.07666,-155.061,292
1567619837,367.457,115.528,-17.3013,179.011,1.07666,-155.061,292
1567619837,367.457,115.528,-17.3013,179.011,1.07666,-155.061,292
1567619837,367.457,115.528,-17.3013,179.011,1.07666,-155.061,292
1567619837,367.457,115.528,-17.3013,179.011,1.07666,-155.061,292
1567619837,367.457,115.528,-17.3013,179.011,1.07666,-155.061,292
1567619837,367.457,115.528,-17.3013,179.011,1.07666,-155.061,292
1567619837,367.568,115.528,-17.3013,179.011,1.07666,-155.061,292
1567619837,367.568,115.528,-17.3013,179.011,1.07666,-155.061,292
1567619837,367.568,115.528,-17.3013,179.011,1.07666,-155.061,292
1567619837,367.568,115.528,-17.3013,179.011,1.07666,-155.061,288
1567619837,367.568,115.528,-17.3013,179.011,1.07666,-155.061,288
1567619837,367.457,115.528,-17.3013,179.011,1.07666,-155.061,288
1567619837,367.457,115.528,-17.3013,179.011,1.07666,-155.061,288
1567619837,367.457,115.528,-17.3013,179.011,1.07666,-155.061,288
1567619837,367.457,115.528,-17.3013,179.011,1.07666,-155.061,292
1567619837,367.457,115.528,-17.3013,179.011,1.07666,-155.061,292
1567619837,367.457,115.528,-17.3013,179.033,1.07666,-155.061,292
1567619837,367.457,115.528,-17.3013,179.033,1.07666,-155.061,292
1567619837,367.457,115.528,-17.3013,179.033,1.07666,-155.061,292
1567619837,367.457,115.528,-17.3013,179.033,1.07666,-155.039,292
1567619837,367.457,115.528,-17.3013,179.033,1.07666,-155.039,292
1567619837,367.457,115.639,-17.3013,179.033,1.07666,-155.039,288
1567619837,367.568,115.639,-17.3013,179.033,1.07666,-155.039,288
1567619837,367.568,115.639,-17.3013,179.033,1.07666,-155.039,288
1567619837,367.568,115.639,-17.3013,179.033,1.07666,-155.039,288
1567619837,367.568,115.639,-17.3013,179.033,1.07666,-155.039,288
1567619837,367.457,115.639,-17.3013,179.033,1.09863,-155.039,284
1567619837,367.457,115.639,-17.3013,179.055,1.09863,-155.039,284
1567619837,367.457,115.639,-17.3013,179.055,1.09863,-155.039,284
1567619837,367.457,115.639,-17.3013,179.055,1.09863,-155.039,284
1567619837,367.457,115.639,-17.3013,179.055,1.09863,-155.039,284
1567619837,367.457,115.639,-17.1896,179.055,1.09863,-155.061,284
1567619837,367.457,115.639,-17.1896,179.055,1.09863,-155.061,284
1567619837,367.457,115.639,-17.1896,179.055,1.09863,-155.061,280
1567619837,367.457,115.639,-17.1896,179.055,1.09863,-155.061,280
1567619837,367.457,115.639,-17.1896,179.055,1.09863,-155.061,280
1567619837,367.457,115.639,-17.1896,179.055,1.09863,-155.061,280
1567619837,367.457,115.639,-17.1896,179.033,1.09863,-155.061,284
1567619837,367.457,115.639,-17.1896,179.033,1.09863,-155.061,284
1567619837,367.457,115.639,-17.1896,179.033,1.09863,-155.061,284
1567619837,367.457,115.639,-17.1896,179.033,1.09863,-155.061,284
1567619837,367.457,115.639,-17.1896,179.033,1.09863,-155.061,284
1567619837,367.457,115.639,-17.1896,179.033,1.09863,-155.061,284
1567619837,367.457,115.528,-17.1896,179.033,1.09863,-155.061,284
1567619837,367.457,115.528,-17.1896,179.033,1.09863,-155.061,284
1567619837,367.457,115.528,-17.3013,179.033,1.09863,-155.061,284
1567619837,367.457,115.528,-17.1896,179.033,1.09863,-155.061,284
1567619837,367.457,115.528,-17.1896,179.033,1.09863,-155.061,284
1567619837,367.457,115.528,-17.1896,179.033,1.09863,-155.039,284
1567619837,367.457,115.528,-17.1896,179.033,1.09863,-155.039,284
1567619837,367.457,115.528,-17.1896,179.033,1.09863,-155.039,284
1567619837,367.457,115.528,-17.1896,179.033,1.09863,-155.039,284
1567619837,367.457,115.528,-17.1896,179.033,1.09863,-155.039,284
1567619837,367.457,115.528,-17.1896,179.033,1.09863,-155.039,288
1567619837,367.457,115.528,-17.1896,179.033,1.09863,-155.039,288
1567619837,367.457,115.528,-17.1896,179.033,1.09863,-155.039,288
1567619837,367.457,115.528,-17.1896,179.033,1.09863,-155.039,288
1567619838,367.457,115.528,-17.1896,179.033,1.09863,-155.039,288
1567619838,367.457,115.528,-17.1896,179.033,1.09863,-155.039,288
1567619838,367.457,115.639,-17.1896,179.033,1.09863,-155.061,288
1567619838,367.457,115.639,-17.1896,179.033,1.09863,-155.061,288
1567619838,367.457,115.639,-17.1896,179.033,1.09863,-155.061,288
1567619838,367.457,115.639,-17.1896,179.033,1.09863,-155.061,288
1567619838,367.457,115.639,-17.1896,179.033,1.09863,-155.061,288
1567619838,367.457,115.639,-17.1896,179.033,1.12061,-155.061,288
1567619838,367.457,115.639,-17.1896,179.055,1.12061,-155.061,284
1567619838,367.457,115.639,-17.1896,179.055,1.12061,-155.061,284
1567619838,367.457,115.639,-17.1896,179.055,1.12061,-155.061,284
1567619838,367.457,115.639,-17.1896,179.055,1.12061,-155.061,284
1567619838,367.457,115.639,-17.1896,179.055,1.12061,-155.061,284
1567619838,367.457,115.639,-17.1896,179.055,1.12061,-155.061,284
1567619838,367.457,115.639,-17.1896,179.055,1.12061,-155.061,288
1567619838,367.457,115.639,-17.1896,179.055,1.12061,-155.061,288
1567619838,367.457,115.639,-17.1896,179.055,1.12061,-155.061,288
1567619838,367.457,115.639,-17.1896,179.055,1.09863,-155.061,288
1567619838,367.457,115.639,-17.1896,179.055,1.09863,-155.061,288
1567619838,367.457,115.639,-17.3013,179.055,1.09863,-155.061,288
1567619838,367.457,115.639,-17.3013,179.055,1.09863,-155.061,292
1567619838,367.457,115.639,-17.3013,179.055,1.09863,-155.061,292
1567619838,367.457,115.639,-17.3013,179.055,1.09863,-155.061,292
1567619838,367.457,115.639,-17.3013,179.055,1.09863,-155.061,292
1567619838,367.457,115.639,-17.3013,179.077,1.09863,-155.061,292
1567619838,367.457,115.639,-17.3013,179.055,1.09863,-155.061,292
1567619838,367.457,115.639,-17.3013,179.055,1.09863,-155.061,292
1567619838,367.457,115.639,-17.3013,179.055,1.09863,-155.061,292
1567619838,367.457,115.639,-17.3013,179.055,1.09863,-155.083,292
1567619838,367.457,115.639,-17.3013,179.055,1.09863,-155.083,292
1567619838,367.457,115.639,-17.3013,179.055,1.09863,-155.083,292
1567619838,367.457,115.639,-17.3013,179.055,1.09863,-155.083,292
1567619838,367.457,115.639,-17.3013,179.055,1.09863,-155.083,292
1567619838,367.457,115.639,-17.3013,179.055,1.09863,-155.083,292
1567619838,367.457,115.639,-17.3013,179.033,1.09863,-155.083,292
1567619838,367.457,115.639,-17.3013,179.033,1.09863,-155.083,292
1567619838,367.457,115.639,-17.3013,179.033,1.09863,-155.083,292
1567619838,367.457,115.639,-17.3013,179.033,1.09863,-155.083,292
1567619838,367.457,115.639,-17.3013,179.033,1.09863,-155.083,292
1567619838,367.457,115.639,-17.3013,179.033,1.09863,-155.083,292
1567619838,367.457,115.639,-17.3013,179.033,1.09863,-155.083,292
1567619838,367.457,115.639,-17.3013,179.033,1.09863,-155.083,292
1567619838,367.457,115.639,-17.3013,179.033,1.09863,-155.083,292
1567619838,367.457,115.528,-17.3013,179.033,1.09863,-155.061,292
1567619838,367.457,115.528,-17.3013,179.033,1.07666,-155.061,292
1567619838,367.457,115.528,-17.3013,179.033,1.07666,-155.061,292
1567619838,367.457,115.528,-17.3013,179.033,1.07666,-155.061,292
1567619838,367.457,115.528,-17.3013,179.011,1.07666,-155.061,292
1567619838,367.457,115.528,-17.3013,179.011,1.07666,-155.061,292
1567619838,367.457,115.528,-17.3013,179.011,1.07666,-155.061,292
1567619838,367.457,115.528,-17.3013,179.011,1.07666,-155.061,292
1567619838,367.457,115.528,-17.3013,179.011,1.07666,-155.061,288
1567619838,367.457,115.528,-17.3013,179.011,1.07666,-155.061,288
1567619838,367.457,115.528,-17.3013,178.989,1.07666,-155.061,288
1567619838,367.457,115.528,-17.3013,178.989,1.07666,-155.061,284
1567619838,367.457,115.528,-17.3013,178.989,1.07666,-155.061,284
1567619838,367.457,115.528,-17.3013,178.989,1.07666,-155.061,284
1567619838,367.457,115.416,-17.3013,178.989,1.07666,-155.061,284
1567619838,367.457,115.416,-17.3013,178.989,1.07666,-155.039,284
1567619838,367.457,115.416,-17.3013,178.989,1.07666,-155.039,284
1567619838,367.457,115.416,-17.3013,178.989,1.07666,-155.039,284
1567619838,367.457,115.528,-17.3013,178.989,1.07666,-155.039,284
1567619838,367.457,115.528,-17.3013,178.989,1.07666,-155.039,284
1567619838,367.457,115.528,-17.3013,178.989,1.07666,-155.039,284
1567619838,367.457,115.528,-17.3013,179.011,1.07666,-155.039,284
1567619838,367.457,115.528,-17.3013,179.011,1.07666,-155.039,284
1567619838,367.457,115.528,-17.3013,179.011,1.07666,-155.039,284
1567619838,367.457,115.528,-17.3013,179.011,1.07666,-155.039,284
1567619838,367.457,115.528,-17.3013,179.011,1.07666,-155.039,284
1567619838,367.457,115.528,-17.3013,179.011,1.07666,-155.039,284
1567619838,367.457,115.528,-17.3013,179.011,1.07666,-155.039,284
1567619838,367.457,115.528,-17.3013,179.011,1.07666,-155.039,284
1567619838,367.457,115.528,-17.3013,179.011,1.07666,-155.039,284
1567619838,367.457,115.528,-17.3013,179.011,1.07666,-155.039,284
1567619838,367.457,115.528,-17.3013,179.011,1.07666,-155.039,284
1567619838,367.457,115.528,-17.3013,179.011,1.07666,-155.039,288
1567619838,367.457,115.528,-17.3013,179.011,1.07666,-155.039,288
1567619838,367.457,115.528,-17.3013,179.011,1.07666,-155.039,288
1567619838,367.457,115.528,-17.3013,179.011,1.09863,-155.039,288
1567619838,367.457,115.528,-17.3013,179.011,1.09863,-155.039,288
1567619838,367.457,115.528,-17.3013,179.011,1.09863,-155.039,288
1567619838,367.457,115.528,-17.3013,179.011,1.07666,-155.039,288
1567619838,367.457,115.528,-17.3013,179.011,1.07666,-155.039,288
1567619838,367.457,115.528,-17.3013,179.011,1.07666,-155.061,288
1567619838,367.457,115.528,-17.3013,179.011,1.07666,-155.061,284
1567619838,367.457,115.528,-17.3013,179.011,1.07666,-155.061,284
1567619838,367.457,115.528,-17.3013,179.011,1.07666,-155.061,284
1567619838,367.457,115.528,-17.3013,179.011,1.07666,-155.061,284
1567619838,367.457,115.528,-17.3013,179.011,1.07666,-155.061,284
1567619838,367.457,115.528,-17.3013,179.011,1.07666,-155.061,284
1567619838,367.457,115.528,-17.3013,179.011,1.07666,-155.061,284
1567619838,367.457,115.528,-17.3013,179.011,1.07666,-155.061,284
1567619838,367.457,115.528,-17.3013,179.011,1.07666,-155.061,284
1567619838,367.457,115.528,-17.3013,179.011,1.07666,-155.061,284
1567619838,367.457,115.528,-17.3013,179.011,1.07666,-155.061,284
1567619838,367.457,115.528,-17.3013,179.011,1.07666,-155.061,284
1567619838,367.457,115.528,-17.3013,179.011,1.07666,-155.061,284
1567619838,367.457,115.528,-17.3013,179.011,1.07666,-155.061,284
1567619838,367.457,115.528,-17.3013,179.011,1.09863,-155.061,284
1567619838,367.457,115.639,-17.3013,179.033,1.09863,-155.061,288
1567619839,367.457,115.639,-17.3013,179.033,1.09863,-155.061,288
1567619839,367.457,115.639,-17.3013,179.033,1.09863,-155.061,288
1567619839,367.457,115.639,-17.3013,179.033,1.09863,-155.061,288
1567619839,367.457,115.639,-17.3013,179.033,1.09863,-155.061,288
1567619839,367.457,115.639,-17.3013,179.033,1.09863,-155.061,288
1567619839,367.457,115.639,-17.3013,179.033,1.09863,-155.061,288
1567619839,367.457,115.639,-17.3013,179.033,1.09863,-155.061,288
1567619839,367.457,115.639,-17.3013,179.033,1.09863,-155.061,288
1567619839,367.457,115.639,-17.3013,179.033,1.09863,-155.061,288
1567619839,367.457,115.639,-17.3013,179.033,1.09863,-155.061,288
1567619839,367.568,115.639,-17.3013,179.033,1.09863,-155.061,288
1567619839,367.568,115.639,-17.3013,179.033,1.09863,-155.061,288
1567619839,367.568,115.639,-17.3013,179.033,1.09863,-155.061,288
1567619839,367.568,115.639,-17.3013,179.033,1.07666,-155.061,288
1567619839,367.568,115.639,-17.3013,179.033,1.07666,-155.061,288
1567619839,367.568,115.639,-17.3013,179.033,1.07666,-155.061,288
1567619839,367.568,115.639,-17.3013,179.033,1.07666,-155.061,288
1567619839,367.568,115.639,-17.3013,179.033,1.07666,-155.061,288
1567619839,367.568,115.639,-17.3013,179.033,1.07666,-155.039,288
1567619839,367.568,115.639,-17.3013,179.033,1.07666,-155.039,288
1567619839,367.568,115.639,-17.3013,179.033,1.07666,-155.039,288
1567619839,367.457,115.528,-17.3013,179.033,1.07666,-155.039,292
1567619839,367.457,115.528,-17.3013,179.011,1.07666,-155.039,292
1567619839,367.457,115.528,-17.3013,179.011,1.07666,-155.039,292
1567619839,367.457,115.528,-17.3013,179.011,1.07666,-155.061,292
1567619839,367.457,115.528,-17.3013,179.011,1.07666,-155.061,292
1567619839,367.457,115.528,-17.3013,179.011,1.07666,-155.061,296
1567619839,367.457,115.528,-17.3013,179.011,1.07666,-155.061,296
1567619839,367.457,115.528,-17.3013,179.011,1.09863,-155.061,296
1567619839,367.457,115.528,-17.3013,179.011,1.09863,-155.061,296
1567619839,367.457,115.528,-17.3013,179.011,1.09863,-155.061,296
1567619839,367.457,115.528,-17.3013,179.011,1.09863,-155.061,296
1567619839,367.457,115.528,-17.3013,179.011,1.09863,-155.061,296
1567619839,367.457,115.528,-17.3013,179.011,1.09863,-155.061,296
1567619839,367.568,115.528,-17.3013,179.011,1.09863,-155.061,296
1567619839,367.568,115.528,-17.3013,179.011,1.09863,-155.061,296
1567619839,367.568,115.528,-17.3013,179.011,1.09863,-155.061,296
1567619839,367.568,115.528,-17.1896,179.011,1.09863,-155.061,296
1567619839,367.568,115.528,-17.1896,179.011,1.09863,-155.061,296
1567619839,367.568,115.528,-17.1896,179.011,1.12061,-155.061,292
1567619839,367.568,115.528,-17.1896,179.011,1.12061,-155.061,292
1567619839,367.568,115.528,-17.1896,179.011,1.12061,-155.061,292
1567619839,367.568,115.528,-17.1896,179.011,1.12061,-155.061,292
1567619839,367.568,115.528,-17.1896,179.011,1.12061,-155.061,292
1567619839,367.568,115.528,-17.1896,179.011,1.12061,-155.061,292
1567619839,367.568,115.528,-17.1896,179.011,1.12061,-155.061,292
1567619839,367.568,115.528,-17.1896,178.989,1.12061,-155.061,292
1567619839,367.568,115.528,-17.1896,178.989,1.12061,-155.061,292
1567619839,367.568,115.528,-17.1896,178.989,1.12061,-155.061,292
1567619839,367.568,115.528,-17.1896,179.011,1.12061,-155.061,292
1567619839,367.568,115.528,-17.1896,179.011,1.12061,-155.061,292
1567619839,367.568,115.528,-17.1896,179.011,1.12061,-155.061,292
1567619839,367.568,115.528,-17.1896,179.011,1.12061,-155.061,292
1567619839,367.568,115.528,-17.1896,179.011,1.12061,-155.061,288
1567619839,367.568,115.528,-17.1896,179.011,1.12061,-155.061,288
1567619839,367.568,115.528,-17.1896,179.011,1.12061,-155.061,288
1567619839,367.568,115.639,-17.1896,179.011,1.12061,-155.061,288
1567619839,367.568,115.639,-17.1896,179.033,1.12061,-155.061,288
1567619839,367.568,115.639,-17.1896,179.033,1.12061,-155.061,284
1567619839,367.568,115.639,-17.1896,179.033,1.12061,-155.061,284
1567619839,367.568,115.639,-17.1896,179.033,1.12061,-155.061,284
1567619839,367.568,115.639,-17.1896,179.033,1.12061,-155.061,284
1567619839,367.568,115.639,-17.1896,179.033,1.12061,-155.061,284
1567619839,367.568,115.639,-17.1896,179.033,1.12061,-155.061,284
1567619839,367.568,115.528,-17.1896,179.033,1.12061,-155.061,284
1567619839,367.568,115.528,-17.1896,179.011,1.12061,-155.061,284
1567619839,367.568,115.528,-17.1896,179.011,1.12061,-155.061,284
1567619839,367.568,115.528,-17.1896,179.011,1.12061,-155.061,284
1567619839,367.568,115.528,-17.1896,179.011,1.12061,-155.061,288
1567619839,367.568,115.528,-17.1896,179.011,1.09863,-155.061,288
1567619839,367.568,115.528,-17.1896,179.011,1.09863,-155.061,288
1567619839,367.568,115.528,-17.1896,178.989,1.09863,-155.061,292
1567619839,367.568,115.528,-17.3013,178.989,1.09863,-155.061,292
1567619839,367.568,115.528,-17.3013,178.989,1.09863,-155.061,292
1567619839,367.568,115.416,-17.3013,178.989,1.09863,-155.061,292
1567619839,367.568,115.416,-17.3013,178.989,1.09863,-155.061,292
1567619839,367.568,115.416,-17.3013,178.989,1.09863,-155.061,292
1567619839,367.568,115.416,-17.3013,178.989,1.09863,-155.061,292
1567619839,367.568,115.416,-17.3013,178.989,1.09863,-155.061,292
1567619839,367.568,115.416,-17.3013,178.989,1.09863,-155.061,292
1567619839,367.568,115.416,-17.3013,178.989,1.09863,-155.061,292
1567619839,367.568,115.416,-17.3013,178.989,1.09863,-155.061,292
1567619839,367.568,115.416,-17.3013,178.989,1.09863,-155.061,292
1567619839,367.568,115.416,-17.3013,178.989,1.09863,-155.061,288
1567619839,367.568,115.416,-17.3013,178.989,1.09863,-155.083,288
1567619839,367.568,115.416,-17.3013,178.989,1.09863,-155.083,288
1567619839,367.568,115.416,-17.3013,178.989,1.09863,-155.083,288
1567619839,367.568,115.416,-17.3013,178.989,1.09863,-155.083,288
1567619839,367.568,115.416,-17.3013,178.989,1.09863,-155.083,288
1567619839,367.568,115.416,-17.3013,178.989,1.09863,-155.083,288
1567619839,367.568,115.416,-17.3013,178.989,1.09863,-155.083,288
1567619839,367.457,115.416,-17.3013,178.989,1.09863,-155.083,292
1567619839,367.457,115.416,-17.3013,178.989,1.09863,-155.083,292
1567619839,367.457,115.416,-17.3013,178.989,1.09863,-155.083,292
1567619839,367.457,115.416,-17.3013,178.989,1.09863,-155.083,292
1567619839,367.457,115.416,-17.3013,178.989,1.09863,-155.083,292
1567619839,367.457,115.528,-17.3013,178.989,1.09863,-155.083,296
1567619839,367.457,115.528,-17.3013,178.989,1.09863,-155.083,296
1567619839,367.457,115.528,-17.3013,179.011,1.09863,-155.083,296
1567619839,367.457,115.528,-17.3013,179.011,1.09863,-155.083,296
1567619840,367.457,115.528,-17.3013,179.011,1.09863,-155.083,296
1567619840,367.457,115.416,-17.3013,179.011,1.09863,-155.083,296
1567619840,367.457,115.416,-17.3013,179.011,1.09863,-155.083,296
1567619840,367.457,115.416,-17.3013,179.011,1.09863,-155.061,300
1567619840,367.457,115.416,-17.3013,179.011,1.09863,-155.061,300
1567619840,367.457,115.416,-17.3013,179.011,1.09863,-155.061,300
1567619840,367.457,115.416,-17.3013,179.011,1.09863,-155.061,300
1567619840,367.457,115.416,-17.3013,179.011,1.09863,-155.061,300
1567619840,367.457,115.416,-17.3013,179.011,1.09863,-155.061,300
1567619840,367.457,115.416,-17.3013,178.989,1.09863,-155.061,296
1567619840,367.457,115.416,-17.3013,179.011,1.09863,-155.061,296
1567619840,367.457,115.416,-17.3013,179.011,1.09863,-155.061,296
1567619840,367.457,115.416,-17.3013,179.011,1.09863,-155.061,296
1567619840,367.457,115.416,-17.3013,179.011,1.09863,-155.061,296
1567619840,367.457,115.528,-17.3013,179.011,1.09863,-155.061,296
1567619840,367.457,115.528,-17.3013,179.011,1.07666,-155.061,296
1567619840,367.457,115.528,-17.3013,179.011,1.07666,-155.061,296
1567619840,367.457,115.528,-17.3013,179.011,1.07666,-155.061,296
1567619840,367.457,115.528,-17.3013,179.011,1.07666,-155.061,296
1567619840,367.457,115.528,-17.3013,179.011,1.07666,-155.061,296
1567619840,367.457,115.528,-17.3013,179.011,1.07666,-155.061,296
1567619840,367.457,115.528,-17.4129,179.011,1.07666,-155.061,296
1567619840,367.457,115.528,-17.4129,179.011,1.07666,-155.061,296
1567619840,367.457,115.528,-17.4129,179.011,1.07666,-155.039,296
1567619840,367.457,115.528,-17.4129,179.011,1.07666,-155.039,292
1567619840,367.457,115.528,-17.4129,179.011,1.05469,-155.039,292
1567619840,367.457,115.528,-17.4129,179.011,1.05469,-155.039,292
1567619840,367.457,115.528,-17.4129,179.011,1.05469,-155.039,292
1567619840,367.457,115.528,-17.4129,179.011,1.05469,-155.039,292
1567619840,367.457,115.528,-17.4129,179.011,1.05469,-155.039,292
1567619840,367.457,115.528,-17.4129,179.011,1.05469,-155.061,292
1567619840,367.457,115.528,-17.4129,179.011,1.05469,-155.061,288
1567619840,367.457,115.528,-17.4129,179.011,1.05469,-155.061,288
1567619840,367.457,115.528,-17.4129,179.011,1.05469,-155.061,288
1567619840,367.457,115.528,-17.4129,179.011,1.05469,-155.061,288
1567619840,367.568,115.528,-17.4129,179.011,1.05469,-155.061,288
1567619840,367.568,115.528,-17.4129,179.033,1.05469,-155.061,288
1567619840,367.568,115.639,-17.4129,179.033,1.05469,-155.061,284
1567619840,367.568,115.639,-17.4129,179.033,1.05469,-155.061,284
1567619840,367.568,115.639,-17.4129,179.033,1.05469,-155.061,284
1567619840,367.568,115.639,-17.4129,179.033,1.05469,-155.061,284
1567619840,367.568,115.639,-17.4129,179.033,1.05469,-155.061,284
1567619840,367.457,115.639,-17.4129,179.033,1.05469,-155.061,284
1567619840,367.457,115.639,-17.4129,179.033,1.07666,-155.061,284
1567619840,367.457,115.639,-17.4129,179.055,1.07666,-155.061,284
1567619840,367.457,115.639,-17.4129,179.055,1.07666,-155.061,284
1567619840,367.568,115.639,-17.3013,179.055,1.07666,-155.061,284
1567619840,367.568,115.639,-17.3013,179.055,1.07666,-155.061,284
1567619840,367.568,115.639,-17.3013,179.055,1.09863,-155.061,284
1567619840,367.568,115.639,-17.3013,179.055,1.09863,-155.061,284
1567619840,367.568,115.639,-17.3013,179.055,1.09863,-155.061,288
1567619840,367.568,115.639,-17.3013,179.055,1.09863,-155.061,288
1567619840,367.568,115.639,-17.3013,179.055,1.09863,-155.061,288
1567619840,367.568,115.639,-17.3013,179.055,1.09863,-155.061,288
1567619840,367.457,115.639,-17.3013,179.055,1.09863,-155.061,288
1567619840,367.457,115.639,-17.3013,179.055,1.09863,-155.061,288
1567619840,367.457,115.639,-17.3013,179.055,1.09863,-155.061,288
1567619840,367.457,115.639,-17.3013,179.055,1.09863,-155.061,292
1567619840,367.457,115.639,-17.3013,179.055,1.09863,-155.061,292
1567619840,367.457,115.639,-17.3013,179.055,1.09863,-155.061,292
1567619840,367.457,115.639,-17.3013,179.055,1.09863,-155.061,292
1567619840,367.457,115.639,-17.3013,179.033,1.09863,-155.061,292
1567619840,367.457,115.639,-17.3013,179.033,1.09863,-155.061,296
1567619840,367.457,115.639,-17.3013,179.033,1.09863,-155.061,296
1567619840,367.457,115.639,-17.3013,179.033,1.09863,-155.061,296
1567619840,367.457,115.639,-17.3013,179.033,1.09863,-155.061,296
1567619840,367.457,115.639,-17.3013,179.033,1.09863,-155.061,300
1567619840,367.457,115.639,-17.3013,179.033,1.09863,-155.061,300
1567619840,367.457,115.639,-17.3013,179.033,1.09863,-155.061,300
1567619840,367.457,115.639,-17.3013,179.033,1.09863,-155.061,300
1567619840,367.457,115.639,-17.3013,179.033,1.09863,-155.083,304
1567619840,367.457,115.639,-17.3013,179.033,1.09863,-155.083,304
1567619840,367.457,115.639,-17.3013,179.033,1.09863,-155.083,304
1567619840,367.457,115.639,-17.3013,179.033,1.09863,-155.083,304
1567619840,367.457,115.639,-17.3013,179.055,1.09863,-155.083,304
1567619840,367.457,115.639,-17.3013,179.055,1.09863,-155.083,304
1567619840,367.457,115.639,-17.3013,179.055,1.09863,-155.083,304
1567619840,367.457,115.639,-17.3013,179.055,1.09863,-155.083,304
1567619840,367.457,115.639,-17.3013,179.055,1.09863,-155.083,304
1567619840,367.457,115.639,-17.3013,179.055,1.09863,-155.083,300
1567619840,367.457,115.639,-17.3013,179.055,1.09863,-155.083,300
1567619840,367.457,115.639,-17.3013,179.055,1.09863,-155.083,300
1567619840,367.457,115.639,-17.3013,179.055,1.07666,-155.083,300
1567619840,367.457,115.639,-17.3013,179.055,1.07666,-155.083,300
1567619840,367.457,115.639,-17.3013,179.055,1.07666,-155.083,300
1567619840,367.457,115.639,-17.3013,179.055,1.07666,-155.083,300
1567619840,367.457,115.639,-17.3013,179.033,1.07666,-155.083,300
1567619840,367.457,115.528,-17.3013,179.033,1.07666,-155.083,300
1567619840,367.457,115.528,-17.3013,179.033,1.07666,-155.083,300
1567619840,367.457,115.528,-17.3013,179.033,1.07666,-155.083,296
1567619840,367.457,115.528,-17.3013,179.033,1.07666,-155.083,296
1567619840,367.457,115.528,-17.3013,179.033,1.07666,-155.083,296
1567619840,367.457,115.528,-17.3013,179.011,1.07666,-155.083,296
1567619840,367.457,115.528,-17.3013,179.011,1.07666,-155.083,296
1567619840,367.457,115.528,-17.3013,179.011,1.07666,-155.083,296
1567619840,367.457,115.528,-17.3013,179.011,1.07666,-155.083,296
1567619840,367.457,115.528,-17.3013,179.011,1.07666,-155.083,296
1567619840,367.457,115.528,-17.3013,179.011,1.07666,-155.083,296
1567619840,367.457,115.528,-17.3013,179.011,1.07666,-155.083,296
1567619840,367.457,115.528,-17.3013,179.011,1.07666,-155.083,296
1567619841,367.457,115.528,-17.3013,179.011,1.07666,-155.083,296
1567619841,367.457,115.528,-17.3013,179.011,1.07666,-155.083,296
1567619841,367.457,115.528,-17.3013,179.011,1.07666,-155.083,296
1567619841,367.457,115.528,-17.3013,179.011,1.07666,-155.083,296
1567619841,367.457,115.528,-17.3013,179.011,1.07666,-155.083,292
1567619841,367.457,115.528,-17.3013,179.011,1.07666,-155.083,292
1567619841,367.457,115.528,-17.3013,179.011,1.07666,-155.083,292
1567619841,367.457,115.528,-17.3013,179.033,1.07666,-155.083,296
1567619841,367.457,115.528,-17.3013,179.033,1.07666,-155.083,296
1567619841,367.457,115.528,-17.3013,179.033,1.07666,-155.083,296
1567619841,367.457,115.528,-17.1896,179.033,1.07666,-155.083,296
1567619841,367.457,115.528,-17.1896,179.033,1.09863,-155.083,296
1567619841,367.457,115.528,-17.1896,179.033,1.09863,-155.083,296
1567619841,367.457,115.528,-17.1896,179.033,1.09863,-155.083,296
1567619841,367.457,115.528,-17.1896,179.033,1.09863,-155.061,296
1567619841,367.457,115.639,-17.1896,179.033,1.09863,-155.061,296
1567619841,367.457,115.639,-17.1896,179.033,1.09863,-155.061,296
1567619841,367.457,115.639,-17.1896,179.033,1.09863,-155.061,296
1567619841,367.457,115.639,-17.1896,179.033,1.09863,-155.061,296
1567619841,367.457,115.639,-17.3013,179.033,1.09863,-155.061,296
1567619841,367.457,115.639,-17.3013,179.033,1.07666,-155.061,296
1567619841,367.457,115.639,-17.3013,179.033,1.07666,-155.039,292
1567619841,367.568,115.639,-17.3013,179.033,1.07666,-155.039,292
1567619841,367.568,115.639,-17.3013,179.033,1.07666,-155.039,292
1567619841,367.568,115.639,-17.3013,179.033,1.07666,-155.039,292
1567619841,367.568,115.639,-17.3013,179.033,1.07666,-155.039,292
1567619841,367.568,115.639,-17.4129,179.011,1.07666,-155.039,292
1567619841,367.568,115.639,-17.4129,179.011,1.07666,-155.039,292
1567619841,367.568,115.639,-17.4129,179.011,1.07666,-155.039,288
1567619841,367.568,115.528,-17.4129,179.011,1.07666,-155.017,288
1567619841,367.568,115.528,-17.4129,179.011,1.05469,-155.039,288
1567619841,367.568,115.528,-17.4129,179.011,1.05469,-155.039,288
1567619841,367.568,115.528,-17.4129,179.011,1.05469,-155.039,288
1567619841,367.568,115.639,-17.4129,179.011,1.05469,-155.039,284
1567619841,367.568,115.639,-17.4129,179.033,1.05469,-155.039,284
1567619841,367.568,115.639,-17.4129,179.033,1.05469,-155.039,284
1567619841,367.568,115.639,-17.4129,179.033,1.05469,-155.039,284
1567619841,367.568,115.639,-17.4129,179.033,1.05469,-155.039,284
1567619841,367.568,115.639,-17.4129,179.033,1.05469,-155.039,284
1567619841,367.457,115.639,-17.4129,179.033,1.05469,-155.039,284
1567619841,367.457,115.639,-17.4129,179.033,1.05469,-155.039,284
1567619841,367.457,115.639,-17.4129,179.033,1.05469,-155.039,284
1567619841,367.457,115.639,-17.4129,179.033,1.05469,-155.039,284
1567619841,367.457,115.639,-17.4129,179.033,1.05469,-155.039,284
1567619841,367.457,115.639,-17.4129,179.033,1.05469,-155.039,288
1567619841,367.457,115.639,-17.4129,179.055,1.05469,-155.039,288
1567619841,367.457,115.639,-17.4129,179.055,1.05469,-155.039,288
1567619841,367.457,115.639,-17.4129,179.055,1.05469,-155.039,288
1567619841,367.457,115.639,-17.4129,179.055,1.05469,-155.039,288
1567619841,367.457,115.639,-17.4129,179.055,1.05469,-155.039,288
1567619841,367.457,115.639,-17.4129,179.055,1.05469,-155.039,292
1567619841,367.457,115.639,-17.4129,179.055,1.05469,-155.017,292
1567619841,367.457,115.639,-17.4129,179.033,1.05469,-155.017,292
1567619841,367.457,115.639,-17.4129,179.033,1.05469,-155.017,292
1567619841,367.457,115.639,-17.4129,179.055,1.05469,-155.017,292
1567619841,367.457,115.639,-17.4129,179.055,1.07666,-155.017,296
1567619841,367.457,115.639,-17.4129,179.055,1.07666,-155.017,296
1567619841,367.457,115.639,-17.3013,179.055,1.07666,-155.017,296
1567619841,367.457,115.639,-17.3013,179.055,1.07666,-155.017,296
1567619841,367.457,115.639,-17.3013,179.055,1.07666,-155.017,296
1567619841,367.457,115.639,-17.3013,179.055,1.07666,-155.039,300
1567619841,367.457,115.639,-17.3013,179.055,1.07666,-155.039,300
1567619841,367.457,115.639,-17.3013,179.055,1.07666,-155.039,300
1567619841,367.457,115.639,-17.3013,179.055,1.09863,-155.039,300
1567619841,367.457,115.639,-17.3013,179.055,1.09863,-155.039,300
1567619841,367.457,115.639,-17.3013,179.055,1.09863,-155.039,304
1567619841,367.457,115.639,-17.3013,179.055,1.09863,-155.039,304
1567619841,367.457,115.639,-17.3013,179.055,1.07666,-155.039,304
1567619841,367.457,115.639,-17.3013,179.033,1.09863,-155.039,304
1567619841,367.457,115.639,-17.3013,179.033,1.09863,-155.039,304
1567619841,367.457,115.639,-17.3013,179.033,1.09863,-155.039,304
1567619841,367.457,115.639,-17.3013,179.033,1.09863,-155.039,304
1567619841,367.457,115.639,-17.3013,179.033,1.09863,-155.039,308
1567619841,367.457,115.639,-17.3013,179.033,1.09863,-155.039,308
1567619841,367.457,115.639,-17.3013,179.033,1.09863,-155.039,308
1567619841,367.457,115.639,-17.3013,179.033,1.09863,-155.039,308
1567619841,367.457,115.639,-17.1896,179.011,1.09863,-155.039,308
1567619841,367.457,115.639,-17.1896,179.011,1.09863,-155.039,308
1567619841,367.568,115.639,-17.1896,179.011,1.09863,-155.039,308
1567619841,367.568,115.528,-17.1896,179.011,1.09863,-155.039,308
1567619841,367.568,115.528,-17.1896,179.011,1.09863,-155.039,308
1567619841,367.568,115.528,-17.1896,179.011,1.09863,-155.039,308
1567619841,367.568,115.528,-17.1896,179.011,1.09863,-155.039,308
1567619841,367.568,115.528,-17.1896,178.989,1.09863,-155.039,308
1567619841,367.568,115.528,-17.1896,178.989,1.09863,-155.039,308
1567619841,367.568,115.528,-17.1896,178.989,1.09863,-155.039,308
1567619841,367.568,115.528,-17.1896,178.989,1.09863,-155.039,308
1567619841,367.457,115.528,-17.1896,178.989,1.09863,-155.039,308
1567619841,367.457,115.528,-17.3013,178.989,1.09863,-155.039,308
1567619841,367.457,115.528,-17.3013,178.989,1.09863,-155.039,308
1567619841,367.457,115.528,-17.3013,178.989,1.09863,-155.039,308
1567619841,367.457,115.416,-17.3013,178.989,1.09863,-155.039,304
1567619841,367.457,115.416,-17.3013,178.989,1.09863,-155.039,304
1567619841,367.457,115.416,-17.3013,178.989,1.09863,-155.039,304
1567619841,367.457,115.416,-17.3013,178.989,1.09863,-155.039,304
1567619841,367.457,115.416,-17.1896,178.989,1.09863,-155.039,304
1567619841,367.457,115.416,-17.1896,178.989,1.12061,-155.039,300
1567619841,367.457,115.416,-17.1896,178.989,1.12061,-155.039,300
1567619841,367.457,115.416,-17.1896,178.989,1.12061,-155.039,300
1567619841,367.457,115.416,-17.1896,178.989,1.12061,-155.039,300
1567619842,367.457,115.416,-17.1896,178.989,1.12061,-155.039,300
1567619842,367.457,115.528,-17.1896,178.989,1.12061,-155.039,296
1567619842,367.457,115.528,-17.1896,178.989,1.12061,-155.039,296
1567619842,367.457,115.528,-17.1896,178.989,1.12061,-155.039,296
1567619842,367.457,115.528,-17.1896,178.989,1.12061,-155.039,296
1567619842,367.457,115.528,-17.1896,178.989,1.12061,-155.039,296
1567619842,367.568,115.528,-17.1896,178.989,1.12061,-155.039,296
1567619842,367.568,115.528,-17.1896,178.989,1.12061,-155.039,296
1567619842,367.568,115.528,-17.1896,178.989,1.12061,-155.039,296
1567619842,367.568,115.528,-17.1896,178.989,1.12061,-155.039,296
1567619842,367.568,115.528,-17.1896,178.989,1.12061,-155.039,296
1567619842,367.568,115.528,-17.1896,178.989,1.12061,-155.039,296
1567619842,367.568,115.528,-17.1896,178.989,1.12061,-155.039,292
1567619842,367.568,115.528,-17.1896,178.989,1.12061,-155.039,292
1567619842,367.568,115.528,-17.1896,178.989,1.12061,-155.039,292
1567619842,367.568,115.528,-17.1896,178.989,1.12061,-155.039,292
1567619842,367.568,115.528,-17.1896,178.989,1.12061,-155.039,292
1567619842,367.568,115.528,-17.1896,178.989,1.12061,-155.039,288
1567619842,367.568,115.528,-17.1896,178.989,1.12061,-155.039,288
1567619842,367.568,115.528,-17.1896,178.989,1.12061,-155.039,288
1567619842,367.568,115.528,-17.1896,178.989,1.12061,-155.039,288
1567619842,367.568,115.528,-17.1896,178.989,1.12061,-155.039,288
1567619842,367.568,115.528,-17.3013,178.989,1.12061,-155.039,288
1567619842,367.568,115.528,-17.3013,178.989,1.09863,-155.039,288
1567619842,367.568,115.528,-17.3013,178.989,1.09863,-155.039,288
1567619842,367.568,115.528,-17.3013,178.989,1.09863,-155.039,288
1567619849,406.301,75.0094,-16.5199,179.363,1.82373,-155.061,332
1567619849,406.301,75.0094,-16.5199,179.363,1.82373,-155.061,332
1567619849,406.301,75.0094,-16.5199,179.363,1.82373,-155.061,332
1567619849,406.301,75.0094,-16.5199,179.363,1.82373,-155.061,336
1567619849,406.301,75.0094,-16.5199,179.363,1.82373,-155.061,336
1567619849,406.301,75.0094,-16.5199,179.363,1.82373,-155.061,336
1567619849,406.301,75.0094,-16.5199,179.363,1.82373,-155.061,340
1567619849,406.301,75.0094,-16.5199,179.363,1.82373,-155.083,340
1567619849,406.301,75.0094,-16.5199,179.363,1.82373,-155.083,340
1567619849,406.301,75.0094,-16.5199,179.363,1.8457,-155.083,340
1567619849,406.301,75.0094,-16.5199,179.363,1.8457,-155.083,340
1567619849,406.412,75.121,-16.5199,179.363,1.8457,-155.083,340
1567619849,406.412,75.121,-16.5199,179.363,1.8457,-155.083,340
1567619849,406.412,75.121,-16.5199,179.363,1.82373,-155.061,340
1567619849,406.412,75.121,-16.5199,179.363,1.82373,-155.061,340
1567619849,406.412,75.121,-16.5199,179.363,1.82373,-155.061,340
1567619849,406.412,75.121,-16.5199,179.363,1.8457,-155.061,340
1567619849,406.301,75.121,-16.5199,179.363,1.82373,-155.061,340
1567619849,406.301,75.121,-16.5199,179.363,1.82373,-155.061,340
1567619849,406.301,75.121,-16.5199,179.385,1.8457,-155.061,340
1567619849,406.301,75.121,-16.5199,179.385,1.8457,-155.061,340
1567619849,406.301,75.121,-16.4083,179.385,1.8457,-155.061,340
1567619849,406.301,75.121,-16.4083,179.385,1.8457,-155.061,340
1567619849,406.301,75.121,-16.4083,179.385,1.86768,-155.061,340
1567619849,406.301,75.121,-16.4083,179.385,1.86768,-155.061,340
1567619849,406.301,75.121,-16.4083,179.385,1.86768,-155.061,340
1567619849,406.301,75.121,-16.2967,179.385,1.86768,-155.061,340
1567619849,406.301,75.121,-16.2967,179.385,1.88965,-155.061,340
1567619849,406.412,75.2326,-16.2967,179.385,1.88965,-155.061,340
1567619849,406.412,75.2326,-16.2967,179.385,1.88965,-155.061,344
1567619850,406.412,75.2326,-16.2967,179.385,1.88965,-155.061,344
1567619850,406.412,75.2326,-16.2967,179.385,1.88965,-155.061,344
1567619850,406.412,75.2326,-16.2967,179.385,1.88965,-155.061,344
1567619850,406.412,75.2326,-16.2967,179.385,1.88965,-155.061,344
1567619850,406.412,75.2326,-16.2967,179.385,1.88965,-155.061,344
1567619850,406.412,75.2326,-16.2967,179.385,1.88965,-155.061,344
1567619850,406.412,75.2326,-16.2967,179.385,1.88965,-155.061,344
1567619850,406.412,75.2326,-16.2967,179.385,1.88965,-155.061,344
1567619850,406.412,75.2326,-16.2967,179.385,1.88965,-155.061,340
1567619850,406.412,75.2326,-16.2967,179.385,1.88965,-155.061,340
1567619850,406.412,75.2326,-16.2967,179.385,1.88965,-155.061,340
1567619850,406.412,75.2326,-16.2967,179.385,1.88965,-155.061,340
1567619850,406.412,75.2326,-16.2967,179.385,1.88965,-155.039,336
1567619850,406.412,75.2326,-16.2967,179.385,1.88965,-155.039,336
1567619850,406.412,75.2326,-16.2967,179.385,1.88965,-155.039,332
1567619850,406.412,75.2326,-16.2967,179.407,1.88965,-155.039,332
1567619850,406.412,75.2326,-16.2967,179.407,1.88965,-155.039,332
1567619850,406.412,75.2326,-16.2967,179.407,1.88965,-155.039,328
1567619850,406.412,75.2326,-16.2967,179.407,1.88965,-155.039,328
1567619850,406.412,75.2326,-16.2967,179.407,1.88965,-155.039,324
1567619850,406.412,75.2326,-16.2967,179.407,1.88965,-155.061,324
1567619850,406.412,75.2326,-16.2967,179.407,1.88965,-155.061,324
1567619850,406.301,75.2326,-16.2967,179.407,1.88965,-155.061,324
1567619850,406.301,75.2326,-16.2967,179.407,1.88965,-155.061,324
1567619850,406.301,75.2326,-16.2967,179.407,1.88965,-155.061,320
1567619850,406.301,75.2326,-16.2967,179.407,1.88965,-155.061,320
1567619850,406.301,75.2326,-16.2967,179.407,1.88965,-155.061,320
1567619850,406.301,75.2326,-16.2967,179.407,1.88965,-155.061,324
1567619850,406.301,75.2326,-16.2967,179.407,1.88965,-155.061,324
1567619850,406.301,75.2326,-16.2967,179.407,1.88965,-155.061,324
1567619850,406.301,75.2326,-16.2967,179.407,1.88965,-155.061,324
1567619850,406.301,75.2326,-16.2967,179.407,1.88965,-155.061,324
1567619850,406.301,75.2326,-16.2967,179.407,1.88965,-155.061,324
1567619850,406.301,75.2326,-16.2967,179.407,1.88965,-155.061,328
1567619850,406.301,75.2326,-16.2967,179.407,1.88965,-155.061,328
1567619850,406.301,75.121,-16.2967,179.385,1.88965,-155.061,328
1567619850,406.301,75.121,-16.2967,179.385,1.86768,-155.061,328
1567619850,406.301,75.121,-16.2967,179.385,1.86768,-155.061,332
1567619850,406.301,75.121,-16.2967,179.385,1.86768,-155.061,332
1567619850,406.301,75.121,-16.2967,179.385,1.86768,-155.061,332
1567619850,406.301,75.121,-16.2967,179.385,1.86768,-155.061,332
1567619850,406.301,75.121,-16.4083,179.385,1.86768,-155.061,336
1567619850,406.301,75.121,-16.2967,179.385,1.86768,-155.061,336
1567619850,406.301,75.121,-16.2967,179.385,1.86768,-155.061,336
1567619850,406.301,75.121,-16.2967,179.385,1.86768,-155.061,336
1567619850,406.301,75.121,-16.2967,179.385,1.86768,-155.061,336
1567619850,406.301,75.121,-16.2967,179.385,1.88965,-155.061,336
1567619850,406.301,75.121,-16.2967,179.385,1.88965,-155.061,336
1567619850,406.301,75.121,-16.2967,179.385,1.88965,-155.061,340
1567619850,406.301,75.121,-16.2967,179.385,1.88965,-155.061,340
1567619850,406.301,75.121,-16.1851,179.385,1.88965,-155.061,340
1567619850,406.301,75.2326,-16.1851,179.407,1.88965,-155.061,340
1567619850,406.301,75.2326,-16.1851,179.407,1.91162,-155.061,340
1567619850,406.301,75.2326,-16.1851,179.407,1.91162,-155.061,344
1567619850,406.301,75.2326,-16.1851,179.407,1.91162,-155.061,344
1567619850,406.301,75.2326,-16.1851,179.407,1.91162,-155.039,344
1567619850,406.301,75.2326,-16.1851,179.407,1.88965,-155.039,344
1567619850,406.301,75.2326,-16.1851,179.407,1.88965,-155.039,344
1567619850,406.301,75.2326,-16.1851,179.407,1.88965,-155.061,344
1567619850,406.301,75.2326,-16.1851,179.407,1.88965,-155.061,344
1567619850,406.301,75.2326,-16.1851,179.429,1.88965,-155.061,344
1567619850,406.301,75.3442,-16.1851,179.429,1.88965,-155.061,348
1567619850,406.301,75.3442,-16.1851,179.429,1.88965,-155.061,348
1567619850,406.301,75.3442,-16.1851,179.429,1.88965,-155.061,348
1567619850,406.301,75.3442,-16.2967,179.429,1.88965,-155.061,348
1567619850,406.301,75.3442,-16.2967,179.429,1.88965,-155.061,348
1567619850,406.301,75.3442,-16.2967,179.429,1.88965,-155.061,348
1567619850,406.301,75.3442,-16.2967,179.429,1.88965,-155.061,348
1567619850,406.301,75.3442,-16.2967,179.451,1.88965,-155.061,348
1567619850,406.301,75.3442,-16.2967,179.451,1.88965,-155.061,348
1567619850,406.301,75.3442,-16.2967,179.451,1.88965,-155.061,348
1567619850,406.301,75.3442,-16.2967,179.451,1.86768,-155.061,348
1567619850,406.301,75.3442,-16.2967,179.451,1.86768,-155.061,348
1567619850,406.301,75.3442,-16.2967,179.451,1.86768,-155.061,348
1567619850,406.301,75.3442,-16.2967,179.451,1.86768,-155.061,348
1567619850,406.301,75.3442,-16.2967,179.451,1.86768,-155.061,348
1567619850,406.301,75.3442,-16.4083,179.451,1.86768,-155.061,348
1567619850,406.301,75.3442,-16.4083,179.451,1.86768,-155.061,348
1567619850,406.301,75.3442,-16.4083,179.451,1.86768,-155.061,348
1567619850,406.301,75.3442,-16.4083,179.451,1.86768,-155.061,348
1567619850,406.301,75.3442,-16.4083,179.451,1.86768,-155.061,348
1567619850,406.301,75.3442,-16.4083,179.451,1.86768,-155.061,348
1567619850,406.301,75.3442,-16.4083,179.451,1.86768,-155.061,348
1567619850,406.301,75.3442,-16.4083,179.429,1.8457,-155.061,348
1567619850,406.301,75.3442,-16.4083,179.429,1.8457,-155.061,348
1567619850,406.301,75.3442,-16.4083,179.429,1.8457,-155.061,348
1567619850,406.301,75.2326,-16.4083,179.429,1.8457,-155.061,348
1567619850,406.301,75.2326,-16.4083,179.429,1.8457,-155.061,348
1567619850,406.301,75.2326,-16.4083,179.407,1.8457,-155.061,348
1567619850,406.301,75.2326,-16.4083,179.407,1.8457,-155.061,348
1567619850,406.301,75.2326,-16.4083,179.407,1.8457,-155.061,348
1567619850,406.301,75.2326,-16.4083,179.407,1.8457,-155.061,348
1567619850,406.301,75.2326,-16.4083,179.407,1.8457,-155.061,348
1567619850,406.301,75.2326,-16.4083,179.407,1.86768,-155.061,348
1567619850,406.301,75.2326,-16.4083,179.407,1.86768,-155.061,344
1567619850,406.301,75.2326,-16.4083,179.407,1.86768,-155.061,344
1567619850,406.301,75.2326,-16.4083,179.407,1.86768,-155.061,344
1567619850,406.301,75.2326,-16.4083,179.407,1.86768,-155.061,344
1567619850,406.301,75.2326,-16.4083,179.407,1.86768,-155.061,344
1567619850,406.301,75.2326,-16.4083,179.407,1.86768,-155.061,344
1567619851,406.301,75.2326,-16.4083,179.407,1.86768,-155.061,344
1567619851,406.301,75.2326,-16.4083,179.407,1.86768,-155.061,340
1567619851,406.412,75.2326,-16.4083,179.407,1.86768,-155.061,340
1567619851,406.412,75.2326,-16.4083,179.407,1.86768,-155.061,340
1567619851,406.412,75.2326,-16.4083,179.407,1.86768,-155.061,340
1567619851,406.412,75.2326,-16.4083,179.407,1.86768,-155.039,340
1567619851,406.412,75.2326,-16.4083,179.407,1.86768,-155.039,340
1567619851,406.412,75.2326,-16.4083,179.407,1.86768,-155.039,340
1567619851,406.412,75.2326,-16.4083,179.407,1.86768,-155.039,340
1567619851,406.412,75.2326,-16.2967,179.407,1.86768,-155.039,340
1567619851,406.412,75.2326,-16.2967,179.407,1.86768,-155.039,340
1567619851,406.412,75.2326,-16.2967,179.385,1.86768,-155.039,340
1567619851,406.412,75.121,-16.2967,179.385,1.86768,-155.039,340
1567619851,406.412,75.121,-16.2967,179.385,1.86768,-155.039,340
1567619851,406.412,75.121,-16.2967,179.385,1.86768,-155.039,340
1567619851,406.412,75.121,-16.2967,179.385,1.86768,-155.039,340
1567619851,406.412,75.121,-16.2967,179.385,1.86768,-155.039,340
1567619851,406.412,75.121,-16.2967,179.385,1.86768,-155.039,340
1567619851,406.412,75.121,-16.4083,179.385,1.86768,-155.039,340
1567619851,406.412,75.121,-16.4083,179.385,1.86768,-155.039,340
1567619851,406.412,75.121,-16.4083,179.385,1.86768,-155.039,340
1567619851,406.412,75.121,-16.4083,179.385,1.86768,-155.039,340
1567619851,406.412,75.121,-16.4083,179.385,1.86768,-155.039,340
1567619851,406.412,75.121,-16.4083,179.385,1.86768,-155.039,340
1567619851,406.412,75.121,-16.4083,179.385,1.86768,-155.039,340
1567619851,406.412,75.121,-16.4083,179.385,1.86768,-155.039,340
1567619851,406.412,75.121,-16.4083,179.385,1.86768,-155.039,340
1567619851,406.412,75.121,-16.4083,179.385,1.86768,-155.039,336
1567619851,406.412,75.121,-16.4083,179.385,1.86768,-155.039,336
1567619851,406.412,75.121,-16.4083,179.385,1.86768,-155.039,336
1567619851,406.412,75.121,-16.4083,179.385,1.86768,-155.039,336
1567619851,406.412,75.121,-16.4083,179.363,1.86768,-155.039,336
1567619851,406.412,75.121,-16.4083,179.363,1.86768,-155.039,332
1567619851,406.412,75.121,-16.4083,179.363,1.86768,-155.039,332
1567619851,406.412,75.121,-16.4083,179.363,1.86768,-155.039,332
1567619851,406.412,75.121,-16.4083,179.363,1.86768,-155.039,332
1567619851,406.412,75.121,-16.4083,179.363,1.86768,-155.039,332
1567619851,406.412,75.121,-16.4083,179.363,1.86768,-155.039,328
1567619851,406.412,75.121,-16.4083,179.363,1.86768,-155.039,328
1567619851,406.412,75.121,-16.2967,179.363,1.86768,-155.039,328
1567619851,406.412,75.121,-16.2967,179.363,1.86768,-155.039,328
1567619851,406.412,75.121,-16.2967,179.363,1.86768,-155.039,328
1567619851,406.412,75.121,-16.2967,179.363,1.86768,-155.039,328
1567619851,406.412,75.121,-16.2967,179.363,1.86768,-155.039,324
1567619851,406.412,75.121,-16.2967,179.385,1.86768,-155.039,324
1567619851,406.412,75.121,-16.2967,179.385,1.88965,-155.039,324
1567619851,406.301,75.121,-16.2967,179.385,1.88965,-155.039,328
1567619851,406.301,75.121,-16.2967,179.385,1.88965,-155.039,328
1567619851,406.301,75.121,-16.2967,179.385,1.88965,-155.039,328
1567619851,406.301,75.121,-16.2967,179.385,1.86768,-155.039,328
1567619851,406.301,75.121,-16.2967,179.385,1.86768,-155.039,328
1567619851,406.301,75.121,-16.2967,179.385,1.86768,-155.039,332
1567619851,406.301,75.121,-16.2967,179.385,1.86768,-155.039,332
1567619851,406.301,75.121,-16.4083,179.385,1.86768,-155.039,332
1567619851,406.301,75.121,-16.4083,179.385,1.86768,-155.039,336
1567619851,406.301,75.2326,-16.4083,179.385,1.8457,-155.039,336
1567619851,406.301,75.2326,-16.4083,179.385,1.8457,-155.039,336
1567619851,406.301,75.2326,-16.4083,179.407,1.8457,-155.039,336
1567619851,406.301,75.2326,-16.4083,179.407,1.8457,-155.039,336
1567619851,406.301,75.2326,-16.4083,179.407,1.8457,-155.039,340
1567619851,406.301,75.2326,-16.4083,179.407,1.8457,-155.039,340
1567619851,406.301,75.2326,-16.4083,179.407,1.86768,-155.039,340
1567619851,406.301,75.2326,-16.4083,179.407,1.86768,-155.039,340
1567619851,406.301,75.2326,-16.4083,179.407,1.86768,-155.039,340
1567619851,406.301,75.2326,-16.4083,179.407,1.86768,-155.039,340
1567619851,406.301,75.2326,-16.4083,179.407,1.86768,-155.039,340
1567619851,406.301,75.2326,-16.4083,179.407,1.8457,-155.039,340
1567619851,406.301,75.2326,-16.4083,179.407,1.8457,-155.039,340
1567619851,406.301,75.2326,-16.4083,179.407,1.8457,-155.039,340
1567619851,406.301,75.2326,-16.4083,179.407,1.8457,-155.039,340
1567619851,406.301,75.2326,-16.4083,179.407,1.8457,-155.017,336
1567619851,406.301,75.2326,-16.4083,179.407,1.8457,-155.017,336
1567619851,406.301,75.2326,-16.4083,179.407,1.8457,-155.017,336
1567619851,406.301,75.2326,-16.4083,179.407,1.8457,-155.017,336
1567619851,406.301,75.2326,-16.4083,179.407,1.8457,-155.017,336
1567619851,406.301,75.2326,-16.4083,179.385,1.8457,-155.017,336
1567619851,406.301,75.121,-16.4083,179.385,1.8457,-155.017,336
1567619851,406.301,75.121,-16.4083,179.385,1.8457,-155.017,340
1567619851,406.301,75.121,-16.4083,179.385,1.8457,-155.017,340
1567619851,406.301,75.121,-16.4083,179.385,1.8457,-155.017,340
1567619851,406.301,75.121,-16.4083,179.385,1.8457,-155.017,340
1567619851,406.301,75.121,-16.4083,179.385,1.8457,-155.017,340
1567619851,406.301,75.121,-16.4083,179.385,1.8457,-155.017,340
1567619851,406.301,75.121,-16.4083,179.385,1.8457,-155.017,340
1567619851,406.301,75.121,-16.4083,179.385,1.8457,-155.017,340
1567619851,406.301,75.121,-16.4083,179.385,1.8457,-155.017,340
1567619851,406.301,75.121,-16.4083,179.385,1.8457,-155.017,340
1567619851,406.301,75.121,-16.4083,179.385,1.8457,-155.017,340
1567619851,406.301,75.121,-16.4083,179.385,1.8457,-155.017,340
1567619851,406.301,75.121,-16.4083,179.385,1.8457,-155.017,340
1567619851,406.301,75.121,-16.4083,179.385,1.8457,-155.017,336
1567619851,406.301,75.121,-16.4083,179.385,1.8457,-155.017,336
1567619851,406.301,75.121,-16.4083,179.385,1.8457,-155.017,336
1567619851,406.301,75.121,-16.4083,179.385,1.86768,-155.017,336
1567619851,406.301,75.121,-16.4083,179.385,1.86768,-155.017,336
1567619851,406.301,75.121,-16.4083,179.385,1.86768,-155.017,336
1567619851,406.301,75.121,-16.4083,179.385,1.86768,-155.017,336
1567619851,406.301,75.121,-16.2967,179.385,1.88965,-155.017,336
1567619851,406.301,75.121,-16.2967,179.385,1.88965,-155.017,336
1567619851,406.301,75.121,-16.2967,179.385,1.88965,-155.039,336
1567619852,406.301,75.121,-16.2967,179.385,1.88965,-155.039,336
1567619852,406.301,75.121,-16.2967,179.385,1.88965,-155.039,336
1567619852,406.301,75.121,-16.2967,179.385,1.88965,-155.039,336
1567619852,406.301,75.121,-16.2967,179.385,1.88965,-155.039,336
1567619852,406.301,75.121,-16.2967,179.385,1.88965,-155.039,336
1567619852,406.301,75.121,-16.2967,179.385,1.88965,-155.039,336
1567619852,406.301,75.121,-16.2967,179.385,1.88965,-155.039,336
1567619852,406.301,75.121,-16.2967,179.385,1.88965,-155.039,336
1567619852,406.301,75.121,-16.2967,179.385,1.88965,-155.039,336
1567619852,406.301,75.121,-16.2967,179.385,1.88965,-155.039,336
1567619852,406.301,75.121,-16.2967,179.407,1.88965,-155.039,336
1567619852,406.301,75.121,-16.2967,179.407,1.88965,-155.039,336
1567619852,406.301,75.121,-16.2967,179.407,1.88965,-155.039,336
1567619852,406.301,75.121,-16.2967,179.407,1.88965,-155.039,332
1567619852,406.301,75.2326,-16.2967,179.407,1.88965,-155.039,332
1567619852,406.301,75.2326,-16.2967,179.407,1.88965,-155.039,332
1567619852,406.301,75.2326,-16.2967,179.429,1.88965,-155.039,332
1567619852,406.301,75.2326,-16.2967,179.429,1.88965,-155.039,332
1567619852,406.301,75.2326,-16.2967,179.429,1.88965,-155.039,332
1567619852,406.301,75.2326,-16.2967,179.429,1.88965,-155.017,332
1567619852,406.301,75.2326,-16.2967,179.429,1.88965,-155.017,332
1567619852,406.301,75.2326,-16.2967,179.429,1.86768,-155.017,332
1567619852,406.301,75.2326,-16.2967,179.429,1.86768,-155.039,332
1567619852,406.301,75.2326,-16.2967,179.451,1.86768,-155.039,332
1567619852,406.301,75.2326,-16.2967,179.429,1.86768,-155.039,332
1567619852,406.301,75.2326,-16.2967,179.429,1.86768,-155.039,332
1567619852,406.301,75.2326,-16.2967,179.429,1.86768,-155.039,332
1567619852,406.301,75.2326,-16.2967,179.429,1.86768,-155.039,336
1567619852,406.301,75.2326,-16.2967,179.429,1.86768,-155.039,336
1567619852,406.301,75.2326,-16.2967,179.429,1.88965,-155.039,336
1567619852,406.301,75.2326,-16.2967,179.429,1.88965,-155.039,340
1567619852,406.301,75.2326,-16.2967,179.429,1.88965,-155.039,340
1567619852,406.301,75.2326,-16.2967,179.407,1.88965,-155.039,340
1567619852,406.301,75.2326,-16.2967,179.407,1.88965,-155.039,340
1567619852,406.301,75.2326,-16.1851,179.407,1.88965,-155.039,344
1567619852,406.301,75.2326,-16.1851,179.407,1.88965,-155.039,344
1567619852,406.412,75.121,-16.2967,179.407,1.88965,-155.039,344
1567619852,406.412,75.121,-16.2967,179.385,1.88965,-155.039,344
1567619852,406.412,75.121,-16.2967,179.385,1.88965,-155.039,344
1567619852,406.412,75.121,-16.2967,179.385,1.88965,-155.039,344
1567619852,406.412,75.121,-16.2967,179.385,1.88965,-155.039,344
1567619852,406.412,75.121,-16.2967,179.385,1.88965,-155.039,344
1567619852,406.412,75.121,-16.2967,179.385,1.88965,-155.039,344
1567619852,406.412,75.121,-16.2967,179.385,1.88965,-155.039,344
1567619852,406.412,75.121,-16.2967,179.385,1.88965,-155.039,344
1567619852,406.412,75.121,-16.2967,179.385,1.88965,-155.039,344
1567619852,406.301,75.121,-16.2967,179.385,1.88965,-155.039,344
1567619852,406.301,75.121,-16.2967,179.385,1.88965,-155.039,344
1567619852,406.301,75.121,-16.2967,179.385,1.88965,-155.039,344
1567619852,406.301,75.121,-16.2967,179.385,1.88965,-155.039,344
1567619852,406.301,75.121,-16.2967,179.385,1.88965,-155.039,344
1567619852,406.301,75.121,-16.2967,179.385,1.88965,-155.039,344
1567619852,406.301,75.121,-16.2967,179.385,1.88965,-155.039,344
1567619852,406.301,75.121,-16.2967,179.385,1.88965,-155.039,344
1567619852,406.301,75.121,-16.2967,179.385,1.91162,-155.039,344
1567619852,406.301,75.121,-16.2967,179.385,1.91162,-155.039,344
1567619852,406.189,75.121,-16.1851,179.385,1.91162,-155.039,348
1567619852,406.189,75.121,-16.1851,179.385,1.91162,-155.039,348
1567619852,406.189,75.121,-16.1851,179.385,1.91162,-155.039,348
1567619852,406.189,75.121,-16.1851,179.385,1.93359,-155.039,348
1567619852,406.301,75.121,-16.1851,179.385,1.93359,-155.039,348
1567619852,406.301,75.121,-16.1851,179.363,1.93359,-155.039,348
1567619852,406.301,75.121,-16.1851,179.363,1.93359,-155.039,352
1567619852,406.301,75.121,-16.1851,179.363,1.93359,-155.039,352
1567619852,406.301,75.121,-16.1851,179.363,1.93359,-155.039,352
1567619852,406.301,75.121,-16.1851,179.363,1.93359,-155.039,352
1567619852,406.301,75.121,-16.1851,179.363,1.93359,-155.039,352
1567619852,406.301,75.121,-16.1851,179.385,1.93359,-155.039,352
1567619852,406.301,75.121,-16.1851,179.385,1.93359,-155.039,356
1567619852,406.301,75.121,-16.1851,179.385,1.93359,-155.039,356
1567619852,406.301,75.121,-16.1851,179.385,1.93359,-155.039,356
1567619852,406.301,75.121,-16.1851,179.385,1.93359,-155.039,356
1567619852,406.301,75.121,-16.1851,179.385,1.93359,-155.039,360
1567619852,406.301,75.121,-16.1851,179.385,1.93359,-155.017,360
1567619852,406.189,75.121,-16.1851,179.385,1.93359,-155.017,360
1567619852,406.189,75.121,-16.1851,179.385,1.93359,-155.017,360
1567619852,406.189,75.121,-16.1851,179.363,1.93359,-155.017,364
1567619852,406.189,75.121,-16.1851,179.363,1.93359,-155.017,364
1567619852,406.189,75.0094,-16.1851,179.363,1.93359,-155.017,364
1567619852,406.189,75.0094,-16.1851,179.363,1.93359,-155.017,364
1567619852,406.189,75.0094,-16.1851,179.363,1.93359,-155.017,364
1567619852,406.189,75.0094,-16.1851,179.363,1.93359,-155.017,364
1567619852,406.189,75.0094,-16.1851,179.363,1.93359,-155.017,364
1567619852,406.189,75.0094,-16.1851,179.363,1.93359,-155.017,368
1567619852,406.189,75.0094,-16.1851,179.363,1.93359,-155.017,368
1567619852,406.189,75.0094,-16.1851,179.363,1.93359,-155.017,368
1567619852,406.301,75.0094,-16.1851,179.363,1.93359,-155.017,368
1567619852,406.301,75.0094,-16.1851,179.341,1.93359,-155.017,372
1567619852,406.301,75.0094,-16.1851,179.341,1.91162,-155.017,372
1567619852,406.301,75.0094,-16.2967,179.341,1.91162,-155.039,372
1567619852,406.301,75.0094,-16.2967,179.341,1.91162,-155.039,372
