time,x,y,z,ax,ay,az,q
1569667013,405.185,72.8886,-16.4083,178.726,1.58203,-145.173,472
1569667013,405.185,72.8886,-16.4083,178.726,1.58203,-145.195,472
1569667013,405.185,72.8886,-16.4083,178.726,1.58203,-145.195,472
1569667013,405.185,72.8886,-16.4083,178.726,1.58203,-145.195,472
1569667013,405.185,72.8886,-16.4083,178.726,1.58203,-145.195,476
1569667013,405.185,72.8886,-16.4083,178.726,1.58203,-145.195,476
1569667013,405.185,72.8886,-16.4083,178.726,1.58203,-145.195,476
1569667013,405.185,72.8886,-16.4083,178.726,1.58203,-145.195,476
1569667013,405.185,72.8886,-16.4083,178.726,1.58203,-145.195,480
1569667013,405.185,72.8886,-16.4083,178.726,1.58203,-145.195,480
1569667013,405.185,72.8886,-16.4083,178.726,1.58203,-145.195,480
1569667013,405.073,72.8886,-16.4083,178.726,1.58203,-145.195,484
1569667013,405.073,72.8886,-16.4083,178.726,1.58203,-145.195,484
1569667013,405.073,72.8886,-16.4083,178.726,1.58203,-145.195,484
1569667013,405.073,72.8886,-16.4083,178.726,1.58203,-145.195,488
1569667013,405.073,72.8886,-16.4083,178.726,1.58203,-145.195,488
1569667013,405.073,72.8886,-16.4083,178.726,1.58203,-145.195,488
1569667013,405.073,72.8886,-16.4083,178.726,1.58203,-145.195,488
1569667013,405.073,72.8886,-16.4083,178.726,1.58203,-145.173,488
1569667013,405.185,72.8886,-16.4083,178.726,1.58203,-145.173,492
1569667013,405.185,72.8886,-16.4083,178.726,1.58203,-145.173,492
1569667013,405.185,72.8886,-16.4083,178.726,1.58203,-145.173,492
1569667013,405.185,72.8886,-16.4083,178.726,1.58203,-145.173,492
1569667013,405.185,72.8886,-16.4083,178.726,1.58203,-145.173,492
1569667013,405.185,72.8886,-16.4083,178.726,1.58203,-145.173,492
1569667013,405.185,72.8886,-16.4083,178.726,1.58203,-145.173,492
1569667013,405.185,72.8886,-16.4083,178.726,1.58203,-145.173,492
1569667013,405.185,72.8886,-16.4083,178.726,1.58203,-145.173,492
1569667013,405.185,72.8886,-16.5199,178.726,1.58203,-145.173,492
1569667013,405.185,72.8886,-16.5199,178.726,1.56006,-145.173,492
1569667013,405.185,72.777,-16.5199,178.726,1.56006,-145.173,492
1569667013,405.185,72.777,-16.5199,178.704,1.56006,-145.173,492
1569667013,405.185,72.777,-16.5199,178.704,1.56006,-145.173,492
1569667013,405.185,72.777,-16.5199,178.704,1.56006,-145.173,492
1569667013,405.185,72.777,-16.5199,178.704,1.56006,-145.173,496
1569667013,405.185,72.777,-16.5199,178.704,1.56006,-145.173,496
1569667013,405.185,72.777,-16.5199,178.704,1.56006,-145.173,496
1569667013,405.185,72.777,-16.5199,178.704,1.56006,-145.173,496
1569667013,405.185,72.777,-16.5199,178.704,1.56006,-145.151,496
1569667013,405.185,72.777,-16.5199,178.704,1.56006,-145.151,496
1569667013,405.185,72.777,-16.5199,178.704,1.56006,-145.151,496
1569667013,405.185,72.777,-16.6315,178.726,1.53809,-145.151,496
1569667013,405.185,72.777,-16.6315,178.726,1.53809,-145.151,496
1569667013,405.185,72.777,-16.6315,178.726,1.53809,-145.173,496
1569667013,405.185,72.777,-16.6315,178.726,1.53809,-145.173,496
1569667013,405.185,72.777,-16.6315,178.726,1.53809,-145.173,496
1569667013,405.185,72.777,-16.6315,178.726,1.53809,-145.173,496
1569667013,405.185,72.8886,-16.6315,178.726,1.53809,-145.173,496
1569667014,405.073,72.777,-16.6315,178.726,1.53809,-145.173,496
1569667014,405.073,72.777,-16.6315,178.726,1.51611,-145.173,496
1569667014,405.073,72.777,-16.6315,178.726,1.51611,-145.173,496
1569667014,405.073,72.777,-16.6315,178.726,1.51611,-145.173,496
1569667014,405.185,72.777,-16.6315,178.726,1.51611,-145.173,496
1569667014,405.185,72.777,-16.6315,178.704,1.51611,-145.173,496
1569667014,405.185,72.777,-16.6315,178.704,1.53809,-145.173,496
1569667014,405.185,72.777,-16.6315,178.704,1.53809,-145.173,496
1569667014,405.185,72.6653,-16.6315,178.704,1.53809,-145.173,496
1569667014,405.185,72.6653,-16.6315,178.704,1.53809,-145.173,496
1569667014,405.185,72.6653,-16.5199,178.682,1.53809,-145.173,496
1569667014,405.185,72.6653,-16.5199,178.682,1.53809,-145.173,492
1569667014,405.185,72.6653,-16.5199,178.682,1.56006,-145.173,492
1569667014,405.185,72.6653,-16.5199,178.704,1.56006,-145.173,492
1569667014,405.185,72.6653,-16.5199,178.704,1.56006,-145.173,492
1569667014,405.185,72.6653,-16.5199,178.704,1.56006,-145.173,492
1569667014,405.185,72.6653,-16.5199,178.704,1.56006,-145.173,492
1569667014,405.185,72.6653,-16.4083,178.704,1.56006,-145.173,492
1569667014,405.073,72.6653,-16.4083,178.704,1.58203,-145.173,492
1569667014,405.073,72.6653,-16.4083,178.704,1.58203,-145.173,492
1569667014,405.073,72.777,-16.4083,178.704,1.58203,-145.173,496
1569667014,405.073,72.777,-16.4083,178.704,1.58203,-145.173,496
1569667014,405.185,72.777,-16.4083,178.704,1.58203,-145.173,496
1569667014,405.185,72.777,-16.4083,178.704,1.58203,-145.173,496
1569667014,405.185,72.777,-16.4083,178.704,1.58203,-145.173,496
1569667014,405.185,72.777,-16.4083,178.704,1.58203,-145.173,496
1569667014,405.185,72.777,-16.4083,178.704,1.58203,-145.173,496
1569667014,405.185,72.777,-16.4083,178.704,1.58203,-145.173,496
1569667014,405.185,72.777,-16.4083,178.704,1.58203,-145.173,496
1569667014,405.185,72.777,-16.4083,178.704,1.58203,-145.173,496
1569667014,405.185,72.777,-16.4083,178.704,1.58203,-145.195,496
1569667014,405.185,72.777,-16.4083,178.704,1.58203,-145.195,496
1569667014,405.185,72.777,-16.4083,178.704,1.58203,-145.195,496
1569667014,405.185,72.777,-16.4083,178.704,1.58203,-145.195,496
1569667014,405.185,72.777,-16.4083,178.704,1.58203,-145.195,500
1569667014,405.185,72.777,-16.4083,178.704,1.58203,-145.195,500
1569667014,405.185,72.777,-16.4083,178.704,1.58203,-145.195,500
1569667014,405.185,72.777,-16.4083,178.704,1.58203,-145.195,500
1569667014,405.185,72.777,-16.4083,178.704,1.58203,-145.195,500
1569667014,405.185,72.777,-16.5199,178.704,1.58203,-145.195,500
1569667014,405.185,72.777,-16.5199,178.704,1.58203,-145.195,500
1569667014,405.185,72.777,-16.5199,178.704,1.58203,-145.195,500
1569667014,405.185,72.777,-16.5199,178.704,1.58203,-145.195,500
1569667014,405.296,72.777,-16.5199,178.704,1.56006,-145.195,500
1569667014,405.296,72.777,-16.5199,178.704,1.58203,-145.195,500
1569667014,405.296,72.777,-16.5199,178.682,1.58203,-145.195,500
1569667014,405.296,72.777,-16.5199,178.682,1.58203,-145.195,500
1569667014,405.296,72.6653,-16.4083,178.682,1.58203,-145.195,500
1569667014,405.185,72.6653,-16.4083,178.682,1.58203,-145.195,496
1569667014,405.185,72.6653,-16.4083,178.682,1.58203,-145.195,496
1569667014,405.185,72.6653,-16.4083,178.682,1.58203,-145.195,496
1569667014,405.185,72.6653,-16.4083,178.682,1.58203,-145.195,496
1569667014,405.185,72.6653,-16.4083,178.682,1.58203,-145.195,496
1569667014,405.185,72.6653,-16.4083,178.682,1.58203,-145.195,492
1569667014,405.185,72.6653,-16.4083,178.682,1.58203,-145.195,492
1569667014,405.185,72.6653,-16.4083,178.682,1.58203,-145.195,492
1569667014,405.185,72.6653,-16.4083,178.682,1.58203,-145.195,488
1569667014,405.296,72.6653,-16.4083,178.682,1.604,-145.195,488
1569667014,405.296,72.6653,-16.4083,178.682,1.604,-145.195,488
1569667014,405.296,72.6653,-16.4083,178.682,1.604,-145.195,488
1569667014,405.296,72.6653,-16.4083,178.682,1.604,-145.195,488
1569667014,405.296,72.777,-16.4083,178.682,1.604,-145.195,488
1569667014,405.296,72.777,-16.4083,178.704,1.604,-145.195,488
1569667014,405.296,72.777,-16.4083,178.704,1.58203,-145.195,488
1569667014,405.296,72.777,-16.4083,178.704,1.58203,-145.195,488
1569667014,405.296,72.777,-16.4083,178.682,1.58203,-145.195,484
1569667014,405.296,72.777,-16.4083,178.682,1.58203,-145.195,484
1569667014,405.185,72.777,-16.5199,178.682,1.58203,-145.195,484
1569667014,405.185,72.777,-16.5199,178.682,1.58203,-145.195,484
1569667014,405.185,72.6653,-16.5199,178.682,1.58203,-145.195,484
1569667014,405.185,72.6653,-16.5199,178.682,1.58203,-145.173,484
1569667014,405.185,72.6653,-16.5199,178.682,1.58203,-145.173,484
1569667014,405.185,72.6653,-16.5199,178.682,1.58203,-145.173,484
1569667014,405.185,72.6653,-16.5199,178.704,1.58203,-145.173,484
1569667014,405.185,72.6653,-16.4083,178.704,1.58203,-145.173,484
1569667014,405.185,72.6653,-16.4083,178.704,1.58203,-145.173,484
1569667014,405.185,72.6653,-16.4083,178.704,1.58203,-145.173,484
1569667014,405.185,72.6653,-16.4083,178.704,1.58203,-145.173,484
1569667014,405.185,72.777,-16.4083,178.704,1.58203,-145.173,484
1569667014,405.185,72.777,-16.4083,178.704,1.58203,-145.173,484
1569667014,405.185,72.777,-16.5199,178.704,1.58203,-145.173,484
1569667014,405.185,72.777,-16.5199,178.704,1.58203,-145.173,488
1569667014,405.073,72.777,-16.5199,178.704,1.56006,-145.173,488
1569667014,405.073,72.777,-16.5199,178.704,1.56006,-145.173,488
1569667014,405.073,72.777,-16.5199,178.704,1.56006,-145.173,492
1569667014,405.073,72.777,-16.5199,178.704,1.56006,-145.173,492
1569667014,405.073,72.777,-16.5199,178.704,1.56006,-145.173,492
1569667014,405.073,72.777,-16.5199,178.704,1.56006,-145.173,496
1569667014,405.073,72.777,-16.5199,178.726,1.56006,-145.173,496
1569667014,405.073,72.8886,-16.5199,178.726,1.56006,-145.173,496
1569667014,405.073,72.8886,-16.5199,178.726,1.56006,-145.173,496
1569667014,405.073,72.8886,-16.5199,178.748,1.56006,-145.173,496
1569667014,405.073,72.8886,-16.5199,178.748,1.56006,-145.173,496
1569667014,405.073,72.8886,-16.5199,178.748,1.56006,-145.173,496
1569667014,405.073,72.8886,-16.5199,178.748,1.56006,-145.173,496
1569667014,405.073,72.8886,-16.5199,178.748,1.56006,-145.173,496
1569667014,405.073,73.0002,-16.5199,178.748,1.56006,-145.173,496
1569667014,405.073,72.8886,-16.5199,178.748,1.56006,-145.173,496
1569667014,405.073,72.8886,-16.5199,178.748,1.56006,-145.173,496
1569667014,405.073,72.8886,-16.5199,178.748,1.56006,-145.173,496
1569667015,405.073,72.8886,-16.5199,178.748,1.56006,-145.173,496
1569667015,405.073,72.8886,-16.5199,178.748,1.56006,-145.173,496
1569667015,405.073,72.8886,-16.5199,178.748,1.56006,-145.173,496
1569667015,405.073,72.8886,-16.5199,178.748,1.56006,-145.173,496
1569667015,405.073,72.8886,-16.5199,178.748,1.56006,-145.173,496
1569667015,405.073,72.8886,-16.5199,178.748,1.53809,-145.173,496
1569667015,405.073,72.8886,-16.5199,178.748,1.53809,-145.173,496
1569667015,405.073,72.8886,-16.6315,178.748,1.53809,-145.173,496
1569667015,405.073,72.8886,-16.6315,178.748,1.53809,-145.173,496
1569667015,405.073,72.8886,-16.6315,178.748,1.53809,-145.173,492
1569667015,405.073,72.8886,-16.6315,178.748,1.53809,-145.173,492
1569667015,405.073,72.8886,-16.5199,178.748,1.53809,-145.173,492
1569667015,405.073,72.8886,-16.5199,178.748,1.53809,-145.173,492
1569667015,405.073,72.8886,-16.5199,178.726,1.56006,-145.173,488
1569667015,405.073,72.8886,-16.5199,178.726,1.56006,-145.173,488
1569667015,405.073,72.8886,-16.5199,178.726,1.56006,-145.173,488
1569667015,405.073,72.8886,-16.5199,178.726,1.56006,-145.173,488
1569667015,405.073,72.8886,-16.5199,178.726,1.56006,-145.173,488
1569667015,405.073,72.8886,-16.5199,178.726,1.56006,-145.173,488
1569667015,405.073,72.8886,-16.5199,178.726,1.58203,-145.173,488
1569667015,405.073,72.8886,-16.5199,178.726,1.58203,-145.195,488
1569667015,405.073,72.777,-16.5199,178.726,1.58203,-145.195,488
1569667015,405.185,72.777,-16.5199,178.726,1.58203,-145.195,488
1569667015,405.185,72.777,-16.5199,178.726,1.58203,-145.195,488
1569667015,405.185,72.777,-16.4083,178.726,1.58203,-145.195,488
1569667015,405.185,72.777,-16.4083,178.704,1.58203,-145.195,488
1569667015,405.185,72.777,-16.4083,178.704,1.58203,-145.195,484
1569667015,405.185,72.777,-16.4083,178.704,1.58203,-145.195,484
1569667015,405.185,72.777,-16.4083,178.704,1.58203,-145.195,484
1569667015,405.185,72.777,-16.4083,178.704,1.58203,-145.195,484
1569667015,405.185,72.777,-16.4083,178.704,1.58203,-145.195,484
1569667015,405.185,72.777,-16.4083,178.704,1.604,-145.195,484
1569667015,405.185,72.777,-16.4083,178.682,1.604,-145.195,484
1569667015,405.185,72.6653,-16.4083,178.682,1.604,-145.195,484
1569667015,405.185,72.6653,-16.4083,178.682,1.604,-145.195,484
1569667015,405.185,72.6653,-16.4083,178.682,1.604,-145.195,480
1569667015,405.185,72.6653,-16.4083,178.682,1.604,-145.195,480
1569667015,405.185,72.6653,-16.4083,178.682,1.604,-145.195,480
1569667015,405.185,72.6653,-16.4083,178.682,1.604,-145.195,480
1569667015,405.185,72.6653,-16.4083,178.682,1.604,-145.195,480
1569667015,405.185,72.6653,-16.4083,178.682,1.604,-145.173,480
1569667015,405.185,72.6653,-16.4083,178.682,1.604,-145.173,480
1569667015,405.185,72.6653,-16.4083,178.682,1.604,-145.173,480
1569667015,405.185,72.6653,-16.4083,178.682,1.604,-145.173,480
1569667015,405.185,72.6653,-16.4083,178.682,1.604,-145.173,480
1569667015,405.185,72.6653,-16.4083,178.682,1.62598,-145.173,480
1569667015,405.185,72.6653,-16.4083,178.682,1.62598,-145.173,480
1569667015,405.185,72.6653,-16.4083,178.682,1.62598,-145.173,480
1569667015,405.185,72.6653,-16.4083,178.682,1.62598,-145.173,480
1569667015,405.185,72.6653,-16.4083,178.704,1.62598,-145.173,480
1569667015,405.185,72.6653,-16.4083,178.704,1.62598,-145.173,480
1569667015,405.185,72.6653,-16.4083,178.704,1.62598,-145.173,480
1569667015,405.185,72.6653,-16.4083,178.704,1.604,-145.195,476
1569667015,405.185,72.6653,-16.4083,178.704,1.604,-145.195,476
1569667015,405.185,72.6653,-16.4083,178.704,1.604,-145.195,476
1569667015,405.073,72.6653,-16.4083,178.682,1.604,-145.195,476
1569667015,405.073,72.6653,-16.4083,178.682,1.604,-145.195,476
1569667015,405.073,72.6653,-16.4083,178.682,1.604,-145.195,476
1569667015,405.073,72.6653,-16.4083,178.682,1.604,-145.195,476
1569667015,405.073,72.6653,-16.4083,178.682,1.604,-145.195,476
1569667015,405.073,72.6653,-16.4083,178.682,1.604,-145.195,476
1569667015,405.073,72.6653,-16.4083,178.682,1.604,-145.195,472
1569667015,405.073,72.6653,-16.4083,178.682,1.604,-145.195,472
1569667015,405.073,72.6653,-16.4083,178.682,1.604,-145.195,472
1569667015,405.073,72.6653,-16.4083,178.682,1.58203,-145.195,472
1569667015,405.073,72.6653,-16.4083,178.682,1.58203,-145.173,472
1569667015,405.073,72.6653,-16.4083,178.682,1.58203,-145.173,472
1569667015,405.073,72.6653,-16.4083,178.682,1.58203,-145.173,472
1569667015,405.073,72.6653,-16.4083,178.682,1.58203,-145.173,472
1569667015,405.073,72.6653,-16.4083,178.682,1.58203,-145.173,472
1569667015,405.073,72.6653,-16.4083,178.704,1.58203,-145.173,472
1569667015,405.073,72.6653,-16.4083,178.704,1.58203,-145.173,472
1569667015,405.073,72.6653,-16.4083,178.704,1.58203,-145.173,472
1569667015,405.073,72.6653,-16.4083,178.704,1.604,-145.173,472
1569667015,405.073,72.6653,-16.4083,178.704,1.604,-145.173,472
1569667015,405.073,72.6653,-16.4083,178.704,1.604,-145.173,472
1569667015,405.073,72.6653,-16.4083,178.704,1.604,-145.173,472
1569667015,405.073,72.6653,-16.4083,178.704,1.604,-145.173,476
1569667015,405.073,72.6653,-16.4083,178.704,1.604,-145.173,476
1569667015,405.073,72.6653,-16.4083,178.704,1.604,-145.173,476
1569667015,405.073,72.6653,-16.4083,178.704,1.604,-145.173,476
1569667015,405.073,72.777,-16.4083,178.704,1.604,-145.173,476
1569667015,405.073,72.777,-16.4083,178.704,1.58203,-145.173,476
1569667015,405.073,72.777,-16.4083,178.726,1.58203,-145.173,476
1569667015,405.073,72.777,-16.4083,178.726,1.58203,-145.173,476
1569667015,405.073,72.777,-16.4083,178.726,1.58203,-145.173,480
1569667015,405.073,72.777,-16.4083,178.726,1.58203,-145.173,480
1569667015,405.073,72.777,-16.4083,178.726,1.58203,-145.173,480
1569667015,405.073,72.777,-16.4083,178.726,1.604,-145.173,480
1569667015,405.073,72.777,-16.4083,178.726,1.604,-145.173,480
1569667015,405.073,72.777,-16.4083,178.704,1.604,-145.173,480
1569667015,405.073,72.777,-16.4083,178.704,1.604,-145.173,484
1569667015,405.073,72.777,-16.4083,178.704,1.604,-145.173,484
1569667015,405.073,72.777,-16.4083,178.704,1.604,-145.173,484
1569667015,405.073,72.777,-16.4083,178.704,1.604,-145.173,484
1569667015,405.073,72.777,-16.4083,178.704,1.604,-145.173,484
1569667015,405.073,72.777,-16.4083,178.704,1.58203,-145.173,488
1569667015,405.073,72.777,-16.4083,178.704,1.58203,-145.173,488
1569667015,405.073,72.777,-16.4083,178.704,1.58203,-145.173,488
1569667015,405.073,72.777,-16.4083,178.704,1.58203,-145.173,488
1569667016,405.073,72.777,-16.4083,178.726,1.58203,-145.173,488
1569667016,405.073,72.777,-16.4083,178.726,1.58203,-145.173,488
1569667016,405.073,72.777,-16.4083,178.726,1.604,-145.173,488
1569667016,405.185,72.777,-16.4083,178.726,1.604,-145.173,488
1569667016,405.185,72.777,-16.2967,178.726,1.604,-145.173,488
1569667016,405.185,72.777,-16.2967,178.726,1.604,-145.173,488
1569667016,405.185,72.777,-16.2967,178.726,1.604,-145.173,488
1569667016,405.073,72.777,-16.2967,178.726,1.604,-145.173,488
1569667016,405.073,72.777,-16.2967,178.726,1.604,-145.173,488
1569667016,405.073,72.777,-16.2967,178.726,1.62598,-145.173,488
1569667016,405.073,72.777,-16.2967,178.726,1.62598,-145.173,488
1569667016,405.073,72.777,-16.2967,178.726,1.62598,-145.173,488
1569667016,405.073,72.777,-16.2967,178.726,1.62598,-145.173,488
1569667016,405.073,72.777,-16.2967,178.726,1.62598,-145.151,488
1569667016,405.073,72.777,-16.2967,178.726,1.62598,-145.151,488
1569667016,405.073,72.777,-16.2967,178.726,1.62598,-145.151,488
1569667016,405.073,72.777,-16.2967,178.726,1.62598,-145.151,488
1569667016,405.073,72.777,-16.2967,178.726,1.62598,-145.151,488
1569667016,405.073,72.777,-16.2967,178.726,1.62598,-145.151,488
1569667016,405.073,72.777,-16.2967,178.726,1.62598,-145.151,488
1569667016,405.073,72.777,-16.2967,178.726,1.62598,-145.151,488
1569667016,405.073,72.777,-16.2967,178.726,1.62598,-145.151,492
1569667016,405.073,72.777,-16.2967,178.726,1.62598,-145.151,492
1569667016,405.073,72.777,-16.2967,178.726,1.62598,-145.151,492
1569667016,405.073,72.777,-16.2967,178.726,1.62598,-145.151,492
1569667016,405.073,72.777,-16.2967,178.726,1.62598,-145.151,492
1569667016,405.073,72.777,-16.2967,178.726,1.62598,-145.151,492
1569667016,405.073,72.777,-16.2967,178.726,1.62598,-145.151,492
1569667016,405.073,72.777,-16.2967,178.726,1.62598,-145.151,492
1569667016,405.073,72.777,-16.2967,178.748,1.62598,-145.151,492
1569667016,405.073,72.8886,-16.2967,178.748,1.62598,-145.151,492
1569667016,405.073,72.8886,-16.2967,178.748,1.62598,-145.151,492
1569667016,405.073,72.8886,-16.2967,178.748,1.62598,-145.151,492
1569667016,405.073,72.8886,-16.2967,178.748,1.62598,-145.151,492
1569667016,405.073,72.8886,-16.2967,178.748,1.62598,-145.151,492
1569667016,405.073,72.8886,-16.2967,178.748,1.62598,-145.151,488
1569667016,405.073,72.8886,-16.2967,178.748,1.62598,-145.151,488
1569667016,405.073,72.8886,-16.2967,178.748,1.604,-145.173,488
1569667016,405.073,72.8886,-16.2967,178.748,1.604,-145.173,488
1569667016,405.073,72.8886,-16.4083,178.748,1.604,-145.173,484
1569667016,405.073,72.8886,-16.4083,178.726,1.604,-145.173,484
1569667016,405.073,72.777,-16.4083,178.726,1.604,-145.173,484
1569667016,405.073,72.777,-16.4083,178.726,1.604,-145.173,484
1569667016,405.073,72.777,-16.4083,178.726,1.604,-145.173,484
1569667016,405.073,72.777,-16.4083,178.726,1.604,-145.173,484
1569667016,405.073,72.777,-16.4083,178.726,1.604,-145.173,484
1569667016,405.073,72.777,-16.4083,178.726,1.58203,-145.173,484
1569667016,405.073,72.777,-16.4083,178.704,1.58203,-145.173,484
1569667016,405.073,72.777,-16.4083,178.704,1.58203,-145.173,484
1569667016,405.073,72.777,-16.4083,178.726,1.58203,-145.173,484
1569667016,405.073,72.777,-16.4083,178.726,1.58203,-145.173,480
1569667016,405.073,72.777,-16.4083,178.726,1.58203,-145.173,480
1569667016,405.073,72.777,-16.4083,178.726,1.58203,-145.173,480
1569667016,405.185,72.777,-16.4083,178.726,1.58203,-145.173,480
1569667016,405.185,72.777,-16.4083,178.726,1.58203,-145.151,480
1569667016,405.073,72.777,-16.4083,178.726,1.58203,-145.151,480
1569667016,405.073,72.777,-16.4083,178.726,1.58203,-145.151,476
1569667016,405.073,72.777,-16.4083,178.726,1.604,-145.151,476
1569667016,405.073,72.777,-16.4083,178.704,1.604,-145.151,476
1569667016,405.073,72.777,-16.4083,178.704,1.604,-145.151,480
1569667016,405.073,72.777,-16.4083,178.704,1.604,-145.151,480
1569667016,405.073,72.777,-16.4083,178.704,1.604,-145.173,480
1569667016,405.073,72.777,-16.2967,178.704,1.604,-145.173,480
1569667016,405.073,72.6653,-16.2967,178.704,1.604,-145.173,480
1569667016,405.073,72.6653,-16.2967,178.682,1.62598,-145.173,480
1569667016,405.073,72.6653,-16.2967,178.682,1.62598,-145.173,480
1569667016,405.073,72.6653,-16.2967,178.682,1.62598,-145.173,480
1569667016,405.073,72.6653,-16.2967,178.682,1.62598,-145.173,484
1569667016,405.073,72.6653,-16.2967,178.682,1.62598,-145.173,484
1569667016,405.073,72.6653,-16.2967,178.682,1.62598,-145.173,484
1569667016,405.073,72.6653,-16.2967,178.682,1.604,-145.173,484
1569667016,405.073,72.777,-16.2967,178.682,1.604,-145.173,484
1569667016,405.073,72.777,-16.4083,178.704,1.604,-145.173,488
1569667016,405.073,72.777,-16.4083,178.704,1.604,-145.173,488
1569667016,405.073,72.777,-16.4083,178.704,1.604,-145.173,488
1569667016,405.185,72.777,-16.4083,178.704,1.604,-145.173,488
1569667016,405.185,72.777,-16.4083,178.704,1.604,-145.173,488
1569667016,405.185,72.777,-16.4083,178.704,1.604,-145.173,488
1569667016,405.185,72.777,-16.4083,178.704,1.604,-145.173,488
1569667016,405.185,72.777,-16.4083,178.704,1.604,-145.173,488
1569667016,405.185,72.777,-16.4083,178.704,1.58203,-145.173,488
1569667016,405.185,72.777,-16.4083,178.704,1.58203,-145.173,488
1569667016,405.185,72.777,-16.4083,178.704,1.58203,-145.173,488
1569667016,405.185,72.777,-16.4083,178.704,1.58203,-145.173,488
1569667016,405.185,72.777,-16.4083,178.704,1.58203,-145.173,488
1569667016,405.185,72.777,-16.4083,178.704,1.58203,-145.173,488
1569667016,405.185,72.777,-16.4083,178.704,1.58203,-145.173,488
1569667016,405.185,72.777,-16.4083,178.704,1.604,-145.173,484
1569667016,405.185,72.777,-16.4083,178.704,1.604,-145.173,484
1569667016,405.185,72.777,-16.4083,178.704,1.604,-145.173,484
1569667016,405.185,72.777,-16.4083,178.704,1.604,-145.173,484
1569667016,405.185,72.777,-16.4083,178.704,1.604,-145.173,484
1569667016,405.185,72.777,-16.4083,178.704,1.604,-145.173,484
1569667016,405.185,72.777,-16.4083,178.704,1.604,-145.173,484
1569667016,405.185,72.777,-16.4083,178.704,1.62598,-145.173,484
1569667016,405.185,72.777,-16.4083,178.704,1.62598,-145.195,484
1569667016,405.185,72.777,-16.4083,178.682,1.604,-145.195,484
1569667016,405.185,72.777,-16.4083,178.682,1.604,-145.195,480
1569667016,405.185,72.6653,-16.4083,178.682,1.604,-145.195,480
1569667016,405.185,72.6653,-16.4083,178.682,1.604,-145.195,480
1569667016,405.185,72.6653,-16.4083,178.682,1.604,-145.195,480
1569667017,405.185,72.6653,-16.4083,178.682,1.604,-145.195,480
1569667017,405.185,72.6653,-16.4083,178.682,1.604,-145.195,480
1569667017,405.185,72.6653,-16.4083,178.682,1.604,-145.195,480
1569667017,405.185,72.6653,-16.4083,178.682,1.604,-145.195,480
1569667017,405.185,72.6653,-16.4083,178.66,1.604,-145.195,484
1569667017,405.185,72.6653,-16.4083,178.66,1.604,-145.195,484
1569667017,405.185,72.6653,-16.4083,178.66,1.604,-145.195,484
1569667017,405.185,72.6653,-16.4083,178.66,1.604,-145.195,484
1569667017,405.185,72.6653,-16.4083,178.66,1.604,-145.173,484
1569667017,405.185,72.6653,-16.4083,178.66,1.604,-145.173,488
1569667017,405.185,72.6653,-16.4083,178.66,1.604,-145.173,488
1569667017,405.185,72.6653,-16.4083,178.66,1.604,-145.173,488
1569667017,405.185,72.6653,-16.4083,178.66,1.604,-145.173,488
1569667017,405.185,72.6653,-16.4083,178.66,1.604,-145.173,488
1569667017,405.185,72.6653,-16.4083,178.682,1.604,-145.173,492
1569667017,405.185,72.6653,-16.4083,178.682,1.604,-145.173,492
1569667017,405.185,72.777,-16.4083,178.682,1.604,-145.173,492
1569667017,405.185,72.777,-16.4083,178.682,1.604,-145.173,492
1569667017,405.185,72.777,-16.4083,178.682,1.604,-145.173,492
1569667017,405.185,72.777,-16.4083,178.704,1.604,-145.173,488
1569667017,405.185,72.777,-16.4083,178.704,1.604,-145.173,488
1569667017,405.185,72.777,-16.4083,178.704,1.62598,-145.173,488
1569667017,405.185,72.777,-16.4083,178.704,1.62598,-145.173,488
1569667017,405.185,72.777,-16.4083,178.704,1.62598,-145.173,484
1569667017,405.185,72.777,-16.4083,178.704,1.62598,-145.173,484
1569667017,405.185,72.777,-16.4083,178.704,1.62598,-145.173,484
1569667017,405.185,72.777,-16.2967,178.704,1.62598,-145.173,480
1569667017,405.185,72.777,-16.2967,178.704,1.62598,-145.173,480
1569667017,405.073,72.777,-16.2967,178.704,1.62598,-145.173,480
1569667017,405.073,72.777,-16.2967,178.704,1.62598,-145.173,476
1569667017,405.073,72.777,-16.2967,178.704,1.62598,-145.151,476
1569667017,405.073,72.777,-16.2967,178.704,1.62598,-145.151,476
1569667017,405.073,72.777,-16.4083,178.704,1.62598,-145.151,476
1569667017,405.073,72.777,-16.4083,178.726,1.604,-145.151,476
1569667017,405.185,72.777,-16.4083,178.726,1.604,-145.151,472
1569667017,405.185,72.777,-16.4083,178.726,1.604,-145.151,472
1569667017,405.185,72.777,-16.4083,178.704,1.604,-145.151,472
1569667017,405.185,72.777,-16.4083,178.704,1.62598,-145.151,472
1569667017,405.185,72.777,-16.2967,178.704,1.62598,-145.151,472
1569667017,405.185,72.777,-16.2967,178.704,1.62598,-145.151,468
1569667017,405.185,72.777,-16.2967,178.704,1.62598,-145.173,468
1569667017,405.185,72.777,-16.2967,178.704,1.62598,-145.173,468
1569667017,405.185,72.777,-16.2967,178.704,1.604,-145.173,468
1569667017,405.185,72.777,-16.2967,178.704,1.604,-145.173,468
1569667017,405.185,72.777,-16.2967,178.704,1.604,-145.173,468
1569667017,405.185,72.777,-16.2967,178.704,1.604,-145.173,468
1569667017,405.185,72.777,-16.2967,178.704,1.604,-145.173,468
1569667017,405.185,72.777,-16.2967,178.704,1.604,-145.173,468
1569667017,405.185,72.777,-16.2967,178.704,1.604,-145.151,468
1569667017,405.185,72.777,-16.2967,178.704,1.604,-145.151,468
1569667017,405.185,72.777,-16.2967,178.704,1.604,-145.151,468
1569667017,405.185,72.777,-16.2967,178.704,1.604,-145.151,472
1569667017,405.185,72.777,-16.2967,178.704,1.604,-145.151,472
1569667017,405.185,72.777,-16.2967,178.726,1.604,-145.151,472
1569667017,405.185,72.8886,-16.2967,178.726,1.604,-145.151,476
1569667017,405.185,72.8886,-16.2967,178.726,1.604,-145.151,476
1569667017,405.185,72.8886,-16.2967,178.726,1.604,-145.151,480
1569667017,405.185,72.8886,-16.2967,178.726,1.604,-145.151,480
1569667017,405.185,72.8886,-16.2967,178.726,1.604,-145.151,480
1569667017,405.185,72.8886,-16.2967,178.726,1.604,-145.151,484
1569667017,405.185,72.777,-16.2967,178.726,1.62598,-145.151,484
1569667017,405.073,72.777,-16.2967,178.726,1.62598,-145.173,484
1569667017,405.073,72.777,-16.2967,178.726,1.62598,-145.173,488
1569667017,405.073,72.777,-16.2967,178.704,1.62598,-145.173,488
1569667017,405.073,72.777,-16.2967,178.704,1.62598,-145.173,488
1569667017,405.073,72.777,-16.2967,178.704,1.62598,-145.173,492
1569667017,405.073,72.777,-16.2967,178.704,1.62598,-145.173,492
1569667017,405.073,72.777,-16.2967,178.704,1.62598,-145.173,492
1569667017,405.073,72.777,-16.2967,178.704,1.64795,-145.173,492
1569667017,405.073,72.777,-16.2967,178.704,1.64795,-145.173,496
1569667017,405.073,72.777,-16.2967,178.726,1.64795,-145.195,496
1569667017,405.073,72.777,-16.2967,178.726,1.64795,-145.195,500
1569667017,405.073,72.777,-16.2967,178.726,1.64795,-145.195,500
1569667017,405.073,72.777,-16.2967,178.726,1.62598,-145.195,500
1569667017,405.073,72.777,-16.2967,178.726,1.62598,-145.195,500
1569667017,405.073,72.777,-16.2967,178.726,1.62598,-145.217,504
1569667017,405.073,72.777,-16.2967,178.726,1.62598,-145.217,504
1569667017,405.073,72.777,-16.2967,178.726,1.62598,-145.217,504
1569667017,405.073,72.777,-16.2967,178.726,1.62598,-145.217,504
1569667017,405.073,72.777,-16.2967,178.726,1.62598,-145.217,508
1569667017,405.073,72.777,-16.2967,178.704,1.62598,-145.217,508
1569667017,405.073,72.777,-16.2967,178.704,1.62598,-145.217,508
1569667017,405.073,72.777,-16.2967,178.704,1.62598,-145.217,508
1569667017,405.073,72.777,-16.2967,178.704,1.604,-145.217,508
1569667017,405.073,72.777,-16.2967,178.704,1.604,-145.217,508
1569667017,405.073,72.777,-16.2967,178.704,1.604,-145.217,504
1569667017,405.073,72.6653,-16.4083,178.704,1.604,-145.217,504
1569667017,405.073,72.6653,-16.4083,178.704,1.604,-145.217,504
1569667017,405.073,72.777,-16.4083,178.704,1.604,-145.217,504
1569667017,405.073,72.777,-16.4083,178.704,1.58203,-145.217,504
1569667017,405.073,72.777,-16.4083,178.704,1.58203,-145.217,504
1569667017,405.073,72.777,-16.4083,178.704,1.58203,-145.217,504
1569667017,405.073,72.777,-16.4083,178.704,1.56006,-145.217,500
1569667017,405.073,72.777,-16.4083,178.704,1.56006,-145.217,500
1569667017,405.073,72.777,-16.5199,178.704,1.56006,-145.217,500
1569667017,405.073,72.777,-16.5199,178.704,1.56006,-145.195,500
1569667017,405.073,72.777,-16.5199,178.704,1.56006,-145.195,500
1569667017,405.073,72.777,-16.5199,178.704,1.56006,-145.195,500
1569667017,405.185,72.777,-16.5199,178.704,1.56006,-145.195,500
1569667017,405.185,72.777,-16.5199,178.704,1.56006,-145.195,500
1569667018,405.185,72.777,-16.5199,178.704,1.58203,-145.195,500
1569667018,405.185,72.777,-16.5199,178.704,1.58203,-145.195,500
1569667018,405.185,72.777,-16.5199,178.704,1.58203,-145.195,500
1569667018,405.185,72.6653,-16.5199,178.704,1.58203,-145.195,500
1569667018,405.185,72.6653,-16.5199,178.704,1.58203,-145.195,500
1569667018,405.185,72.6653,-16.5199,178.682,1.58203,-145.195,500
1569667018,405.185,72.6653,-16.5199,178.704,1.58203,-145.195,500
1569667018,405.185,72.6653,-16.5199,178.704,1.58203,-145.195,500
1569667018,405.185,72.777,-16.5199,178.682,1.58203,-145.195,500
1569667018,405.185,72.777,-16.5199,178.682,1.58203,-145.195,500
1569667018,405.185,72.777,-16.5199,178.704,1.58203,-145.195,500
1569667018,405.185,72.777,-16.5199,178.704,1.58203,-145.195,500
1569667018,405.185,72.777,-16.5199,178.704,1.58203,-145.195,500
1569667018,405.185,72.777,-16.5199,178.704,1.58203,-145.195,500
1569667018,405.185,72.777,-16.5199,178.704,1.58203,-145.195,500
1569667018,405.185,72.777,-16.5199,178.704,1.58203,-145.195,500
1569667018,405.185,72.777,-16.5199,178.704,1.58203,-145.195,500
1569667018,405.185,72.777,-16.5199,178.704,1.58203,-145.195,500
1569667018,405.185,72.777,-16.5199,178.704,1.58203,-145.195,500
1569667018,405.185,72.777,-16.5199,178.704,1.58203,-145.195,500
1569667018,405.185,72.777,-16.5199,178.704,1.58203,-145.195,500
1569667018,405.185,72.777,-16.5199,178.704,1.58203,-145.195,500
1569667018,405.185,72.777,-16.5199,178.704,1.58203,-145.217,500
1569667018,405.185,72.777,-16.5199,178.704,1.58203,-145.217,500
1569667018,405.185,72.777,-16.5199,178.704,1.58203,-145.217,500
1569667018,405.185,72.777,-16.5199,178.704,1.58203,-145.195,500
1569667018,405.073,72.777,-16.5199,178.704,1.58203,-145.195,500
1569667018,405.073,72.777,-16.5199,178.704,1.56006,-145.195,500
1569667018,405.185,72.777,-16.5199,178.704,1.56006,-145.195,500
1569667018,405.185,72.777,-16.5199,178.682,1.56006,-145.195,500
1569667018,405.185,72.777,-16.5199,178.682,1.56006,-145.195,500
1569667018,405.185,72.6653,-16.5199,178.682,1.56006,-145.195,500
1569667018,405.185,72.6653,-16.5199,178.682,1.56006,-145.195,500
1569667018,405.185,72.6653,-16.5199,178.682,1.56006,-145.195,500
1569667018,405.185,72.6653,-16.5199,178.682,1.56006,-145.195,500
1569667018,405.185,72.6653,-16.5199,178.682,1.56006,-145.195,500
1569667018,405.185,72.6653,-16.5199,178.682,1.56006,-145.195,500
1569667018,405.185,72.6653,-16.5199,178.682,1.56006,-145.195,500
1569667018,405.185,72.6653,-16.5199,178.682,1.56006,-145.195,500
1569667018,405.073,72.6653,-16.5199,178.682,1.56006,-145.195,500
1569667018,405.073,72.6653,-16.5199,178.682,1.56006,-145.195,500
1569667018,405.073,72.6653,-16.5199,178.682,1.56006,-145.195,500
1569667018,405.073,72.6653,-16.5199,178.704,1.56006,-145.195,500
1569667018,405.073,72.6653,-16.5199,178.704,1.56006,-145.195,504
1569667018,405.073,72.777,-16.6315,178.704,1.56006,-145.195,504
1569667018,405.073,72.777,-16.6315,178.704,1.56006,-145.195,504
1569667018,405.073,72.777,-16.6315,178.704,1.56006,-145.173,504
1569667018,405.073,72.777,-16.6315,178.704,1.56006,-145.173,500
1569667018,405.073,72.777,-16.6315,178.704,1.53809,-145.173,500
1569667018,405.073,72.777,-16.6315,178.704,1.56006,-145.173,500
1569667018,405.073,72.777,-16.6315,178.704,1.56006,-145.173,500
1569667022,389.892,89.4085,-16.4083,178.726,1.71387,-145.349,464
1569667022,389.892,89.4085,-16.4083,178.726,1.71387,-145.349,464
1569667022,389.892,89.4085,-16.4083,178.726,1.71387,-145.349,464
1569667022,389.892,89.4085,-16.4083,178.726,1.71387,-145.349,464
1569667022,389.892,89.4085,-16.4083,178.726,1.71387,-145.349,464
1569667022,389.892,89.4085,-16.4083,178.726,1.69189,-145.349,464
1569667022,389.892,89.4085,-16.4083,178.726,1.69189,-145.349,464
1569667022,389.892,89.4085,-16.4083,178.748,1.69189,-145.349,464
1569667022,389.892,89.4085,-16.4083,178.748,1.69189,-145.349,464
1569667022,389.892,89.4085,-16.4083,178.748,1.69189,-145.349,464
1569667022,389.892,89.4085,-16.4083,178.748,1.69189,-145.349,464
1569667022,389.892,89.4085,-16.4083,178.748,1.69189,-145.349,464
1569667022,389.892,89.4085,-16.4083,178.748,1.69189,-145.349,464
1569667022,389.892,89.4085,-16.4083,178.748,1.69189,-145.349,460
1569667022,389.892,89.4085,-16.4083,178.748,1.69189,-145.349,460
1569667022,389.892,89.4085,-16.4083,178.748,1.71387,-145.349,460
1569667022,389.892,89.4085,-16.4083,178.748,1.71387,-145.349,460
1569667022,389.892,89.4085,-16.4083,178.726,1.71387,-145.349,460
1569667022,389.892,89.4085,-16.4083,178.726,1.71387,-145.349,460
1569667022,389.892,89.4085,-16.4083,178.726,1.71387,-145.371,460
1569667022,389.892,89.4085,-16.4083,178.726,1.71387,-145.371,460
1569667022,389.892,89.4085,-16.4083,178.726,1.71387,-145.371,460
1569667022,389.892,89.4085,-16.4083,178.726,1.71387,-145.371,460
1569667022,389.892,89.4085,-16.4083,178.726,1.71387,-145.371,460
1569667022,389.892,89.4085,-16.4083,178.726,1.71387,-145.371,456
1569667022,389.892,89.4085,-16.4083,178.726,1.71387,-145.371,456
1569667022,389.892,89.2969,-16.4083,178.726,1.71387,-145.371,456
1569667022,389.892,89.2969,-16.4083,178.726,1.73584,-145.371,456
1569667022,389.892,89.2969,-16.4083,178.726,1.73584,-145.371,456
1569667022,389.892,89.2969,-16.4083,178.726,1.73584,-145.371,456
1569667022,389.892,89.2969,-16.2967,178.704,1.73584,-145.371,456
1569667022,389.892,89.2969,-16.4083,178.704,1.73584,-145.371,456
1569667022,389.892,89.2969,-16.4083,178.704,1.73584,-145.371,456
1569667022,389.892,89.2969,-16.4083,178.704,1.71387,-145.371,456
1569667022,389.892,89.4085,-16.4083,178.704,1.71387,-145.371,456
1569667022,389.892,89.4085,-16.4083,178.726,1.71387,-145.371,456
1569667022,389.892,89.4085,-16.4083,178.726,1.71387,-145.371,456
1569667022,390.004,89.4085,-16.4083,178.726,1.71387,-145.371,452
1569667022,390.004,89.4085,-16.4083,178.726,1.71387,-145.371,452
1569667022,390.004,89.4085,-16.4083,178.726,1.71387,-145.371,452
1569667023,390.004,89.4085,-16.4083,178.726,1.71387,-145.371,448
1569667023,390.004,89.4085,-16.4083,178.726,1.71387,-145.371,448
1569667023,390.004,89.4085,-16.4083,178.726,1.71387,-145.371,448
1569667023,390.004,89.4085,-16.4083,178.704,1.71387,-145.371,448
1569667023,390.004,89.4085,-16.4083,178.704,1.71387,-145.371,444
1569667023,390.004,89.2969,-16.4083,178.704,1.71387,-145.371,444
1569667023,390.004,89.2969,-16.4083,178.704,1.71387,-145.371,444
1569667023,390.004,89.2969,-16.4083,178.704,1.71387,-145.371,440
1569667023,390.004,89.2969,-16.4083,178.682,1.71387,-145.371,440
1569667023,390.004,89.2969,-16.4083,178.682,1.71387,-145.371,440
1569667023,390.004,89.2969,-16.4083,178.682,1.71387,-145.371,436
1569667023,390.004,89.2969,-16.4083,178.682,1.71387,-145.371,436
1569667023,390.004,89.2969,-16.4083,178.682,1.71387,-145.371,436
1569667023,390.004,89.2969,-16.2967,178.682,1.73584,-145.371,436
1569667023,390.004,89.2969,-16.2967,178.682,1.73584,-145.371,436
1569667023,390.004,89.2969,-16.2967,178.682,1.73584,-145.371,436
1569667023,390.004,89.2969,-16.2967,178.682,1.73584,-145.371,436
1569667023,390.004,89.2969,-16.2967,178.682,1.71387,-145.371,436
1569667023,390.004,89.2969,-16.2967,178.704,1.71387,-145.371,436
1569667023,389.892,89.2969,-16.2967,178.704,1.71387,-145.393,436
1569667023,389.892,89.2969,-16.2967,178.704,1.71387,-145.393,436
1569667023,389.892,89.2969,-16.2967,178.704,1.71387,-145.393,436
1569667023,389.892,89.2969,-16.4083,178.704,1.71387,-145.393,436
1569667023,389.892,89.2969,-16.4083,178.704,1.71387,-145.393,436
1569667023,389.892,89.2969,-16.4083,178.704,1.71387,-145.393,440
1569667023,389.892,89.2969,-16.4083,178.704,1.71387,-145.393,440
1569667023,389.892,89.2969,-16.2967,178.704,1.71387,-145.393,440
1569667023,389.892,89.2969,-16.2967,178.704,1.71387,-145.393,440
1569667023,389.892,89.2969,-16.2967,178.704,1.71387,-145.393,444
1569667023,389.892,89.2969,-16.2967,178.704,1.71387,-145.393,444
1569667023,389.892,89.2969,-16.2967,178.704,1.71387,-145.393,444
1569667023,389.892,89.2969,-16.2967,178.704,1.71387,-145.393,448
1569667023,389.892,89.2969,-16.2967,178.704,1.73584,-145.393,448
1569667023,389.892,89.2969,-16.2967,178.726,1.73584,-145.393,448
1569667023,389.892,89.4085,-16.2967,178.726,1.73584,-145.393,452
1569667023,389.892,89.4085,-16.2967,178.726,1.73584,-145.393,452
1569667023,389.892,89.4085,-16.2967,178.726,1.73584,-145.393,452
1569667023,389.892,89.4085,-16.2967,178.726,1.73584,-145.393,452
1569667023,389.892,89.4085,-16.2967,178.726,1.73584,-145.393,456
1569667023,389.892,89.4085,-16.2967,178.726,1.73584,-145.393,456
1569667023,389.892,89.4085,-16.2967,178.726,1.73584,-145.393,456
1569667023,389.892,89.4085,-16.2967,178.726,1.73584,-145.393,456
1569667023,389.892,89.4085,-16.2967,178.726,1.73584,-145.393,460
1569667023,389.892,89.4085,-16.2967,178.726,1.73584,-145.393,460
1569667023,389.781,89.2969,-16.2967,178.726,1.73584,-145.393,460
1569667023,389.781,89.2969,-16.2967,178.726,1.73584,-145.393,460
1569667023,389.781,89.2969,-16.2967,178.726,1.73584,-145.393,460
1569667023,389.781,89.2969,-16.2967,178.726,1.73584,-145.371,460
1569667023,389.892,89.2969,-16.2967,178.726,1.73584,-145.371,460
1569667023,389.892,89.2969,-16.2967,178.726,1.73584,-145.371,456
1569667023,389.892,89.2969,-16.2967,178.726,1.73584,-145.371,456
1569667023,389.892,89.2969,-16.2967,178.726,1.73584,-145.371,456
1569667023,389.892,89.2969,-16.2967,178.726,1.73584,-145.371,456
1569667023,389.892,89.2969,-16.2967,178.726,1.71387,-145.371,456
1569667023,389.892,89.2969,-16.2967,178.726,1.71387,-145.371,456
1569667023,390.004,89.2969,-16.2967,178.726,1.71387,-145.371,452
1569667023,390.004,89.2969,-16.2967,178.726,1.71387,-145.349,452
1569667023,390.004,89.4085,-16.4083,178.726,1.71387,-145.349,452
1569667023,390.004,89.4085,-16.4083,178.726,1.71387,-145.349,452
1569667023,390.004,89.4085,-16.4083,178.726,1.71387,-145.349,452
1569667023,390.004,89.4085,-16.4083,178.726,1.71387,-145.371,452
1569667023,390.004,89.4085,-16.4083,178.726,1.71387,-145.371,452
1569667023,390.004,89.4085,-16.4083,178.726,1.71387,-145.371,452
1569667023,390.004,89.4085,-16.4083,178.726,1.71387,-145.371,452
1569667023,390.004,89.4085,-16.4083,178.748,1.69189,-145.371,452
1569667023,390.004,89.4085,-16.4083,178.748,1.69189,-145.371,452
1569667023,390.004,89.4085,-16.4083,178.748,1.69189,-145.371,452
1569667023,390.004,89.4085,-16.4083,178.748,1.69189,-145.371,456
1569667023,390.004,89.4085,-16.4083,178.748,1.69189,-145.371,456
1569667023,390.004,89.4085,-16.4083,178.748,1.69189,-145.371,456
1569667023,390.004,89.4085,-16.4083,178.748,1.69189,-145.371,456
1569667023,390.004,89.4085,-16.4083,178.726,1.69189,-145.371,456
1569667023,390.004,89.4085,-16.4083,178.726,1.69189,-145.371,456
1569667023,390.004,89.4085,-16.4083,178.726,1.69189,-145.371,456
1569667023,390.004,89.4085,-16.4083,178.726,1.71387,-145.371,456
1569667023,390.004,89.4085,-16.4083,178.726,1.71387,-145.371,456
1569667023,390.004,89.4085,-16.4083,178.726,1.71387,-145.371,456
1569667023,390.004,89.4085,-16.4083,178.726,1.71387,-145.371,456
1569667023,389.892,89.4085,-16.4083,178.748,1.71387,-145.371,456
1569667023,389.892,89.4085,-16.4083,178.748,1.71387,-145.371,456
1569667023,389.892,89.4085,-16.4083,178.748,1.73584,-145.371,456
1569667023,389.892,89.4085,-16.4083,178.748,1.73584,-145.371,456
1569667023,389.892,89.4085,-16.4083,178.726,1.73584,-145.371,456
1569667023,389.892,89.4085,-16.4083,178.726,1.73584,-145.393,456
1569667023,389.892,89.4085,-16.2967,178.726,1.73584,-145.393,456
1569667023,389.892,89.2969,-16.2967,178.726,1.73584,-145.393,456
1569667023,389.892,89.2969,-16.2967,178.726,1.73584,-145.393,456
1569667023,389.892,89.2969,-16.2967,178.726,1.73584,-145.393,456
1569667023,389.892,89.2969,-16.2967,178.726,1.73584,-145.393,456
1569667023,389.892,89.2969,-16.2967,178.726,1.73584,-145.393,456
1569667023,389.892,89.2969,-16.2967,178.726,1.73584,-145.393,456
1569667023,389.892,89.2969,-16.2967,178.726,1.73584,-145.393,452
1569667023,389.892,89.2969,-16.2967,178.726,1.73584,-145.371,452
1569667023,389.892,89.2969,-16.2967,178.726,1.73584,-145.371,452
1569667023,389.892,89.2969,-16.2967,178.726,1.73584,-145.371,452
1569667023,389.892,89.2969,-16.2967,178.726,1.73584,-145.371,452
1569667023,390.004,89.2969,-16.2967,178.726,1.73584,-145.371,452
1569667023,390.004,89.4085,-16.2967,178.726,1.73584,-145.371,448
1569667023,390.004,89.4085,-16.2967,178.726,1.73584,-145.371,448
1569667023,390.004,89.4085,-16.2967,178.726,1.73584,-145.371,448
1569667024,390.004,89.4085,-16.2967,178.726,1.73584,-145.371,448
1569667024,390.004,89.4085,-16.2967,178.748,1.73584,-145.371,448
1569667024,390.004,89.4085,-16.2967,178.748,1.73584,-145.371,448
1569667024,390.004,89.4085,-16.2967,178.748,1.73584,-145.371,444
1569667024,390.004,89.5201,-16.2967,178.748,1.73584,-145.371,444
1569667024,390.004,89.5201,-16.2967,178.748,1.73584,-145.371,444
1569667024,390.004,89.5201,-16.2967,178.748,1.75781,-145.371,444
1569667024,390.004,89.5201,-16.2967,178.77,1.75781,-145.371,444
1569667024,390.004,89.5201,-16.2967,178.77,1.75781,-145.371,444
1569667024,390.004,89.5201,-16.2967,178.77,1.75781,-145.371,444
1569667024,390.004,89.5201,-16.2967,178.77,1.75781,-145.371,444
1569667024,390.004,89.5201,-16.1851,178.77,1.75781,-145.371,444
1569667024,390.004,89.5201,-16.1851,178.77,1.75781,-145.371,444
1569667024,390.004,89.5201,-16.1851,178.77,1.75781,-145.371,444
1569667024,390.004,89.5201,-16.1851,178.77,1.75781,-145.371,444
1569667024,390.004,89.5201,-16.1851,178.77,1.75781,-145.371,448
1569667024,390.004,89.5201,-16.1851,178.77,1.75781,-145.371,448
1569667024,390.004,89.5201,-16.1851,178.77,1.75781,-145.371,448
1569667024,390.004,89.5201,-16.1851,178.748,1.75781,-145.371,452
1569667024,390.004,89.5201,-16.2967,178.748,1.75781,-145.371,452
1569667024,390.004,89.5201,-16.2967,178.748,1.75781,-145.371,456
1569667024,390.004,89.4085,-16.2967,178.748,1.75781,-145.371,456
1569667024,390.004,89.4085,-16.2967,178.748,1.75781,-145.371,460
1569667024,390.004,89.4085,-16.2967,178.748,1.75781,-145.371,460
1569667024,390.004,89.4085,-16.2967,178.748,1.73584,-145.371,464
1569667024,390.004,89.4085,-16.2967,178.748,1.73584,-145.371,464
1569667024,390.004,89.4085,-16.2967,178.748,1.73584,-145.371,464
1569667024,390.004,89.4085,-16.2967,178.748,1.73584,-145.393,464
1569667024,390.004,89.4085,-16.2967,178.748,1.73584,-145.393,468
1569667024,389.892,89.4085,-16.2967,178.748,1.73584,-145.393,468
1569667024,389.892,89.4085,-16.2967,178.748,1.73584,-145.393,468
1569667024,389.892,89.4085,-16.2967,178.726,1.73584,-145.393,468
1569667024,389.892,89.4085,-16.2967,178.726,1.73584,-145.393,468
1569667024,389.892,89.4085,-16.2967,178.726,1.73584,-145.393,468
1569667024,389.892,89.4085,-16.2967,178.726,1.73584,-145.393,468
1569667024,389.892,89.4085,-16.2967,178.726,1.73584,-145.393,468
1569667024,389.892,89.4085,-16.2967,178.726,1.73584,-145.393,468
1569667024,389.892,89.4085,-16.2967,178.726,1.73584,-145.393,468
1569667024,389.892,89.4085,-16.2967,178.726,1.73584,-145.393,468
1569667024,389.892,89.4085,-16.2967,178.726,1.73584,-145.393,468
1569667024,389.892,89.4085,-16.2967,178.726,1.73584,-145.393,468
1569667024,389.892,89.4085,-16.2967,178.726,1.73584,-145.393,468
1569667024,389.892,89.4085,-16.2967,178.726,1.73584,-145.393,468
1569667024,389.892,89.4085,-16.2967,178.726,1.73584,-145.393,472
1569667024,389.892,89.4085,-16.2967,178.726,1.73584,-145.393,472
1569667024,389.892,89.4085,-16.1851,178.726,1.73584,-145.393,472
1569667024,389.892,89.4085,-16.1851,178.726,1.75781,-145.393,472
1569667024,389.892,89.4085,-16.1851,178.726,1.75781,-145.393,472
1569667024,389.892,89.4085,-16.1851,178.748,1.75781,-145.393,468
1569667024,389.892,89.4085,-16.1851,178.748,1.75781,-145.393,468
1569667024,389.892,89.4085,-16.1851,178.748,1.75781,-145.393,468
1569667024,389.892,89.4085,-16.1851,178.726,1.77979,-145.393,468
1569667024,389.892,89.4085,-16.1851,178.726,1.77979,-145.393,468
1569667024,389.892,89.4085,-16.1851,178.726,1.77979,-145.393,464
1569667024,390.004,89.4085,-16.1851,178.726,1.77979,-145.393,464
1569667024,390.004,89.4085,-16.1851,178.726,1.77979,-145.393,464
1569667024,390.004,89.4085,-16.1851,178.726,1.77979,-145.393,464
1569667024,390.004,89.4085,-16.1851,178.726,1.77979,-145.393,460
1569667024,390.004,89.4085,-16.1851,178.726,1.77979,-145.371,460
1569667024,390.004,89.4085,-16.1851,178.726,1.77979,-145.371,460
1569667024,390.004,89.4085,-16.1851,178.726,1.77979,-145.371,460
1569667024,390.004,89.4085,-16.1851,178.726,1.77979,-145.371,460
1569667024,390.004,89.4085,-16.1851,178.726,1.77979,-145.371,456
1569667024,390.004,89.4085,-16.1851,178.726,1.77979,-145.371,456
1569667024,390.004,89.4085,-16.1851,178.726,1.77979,-145.371,456
1569667024,390.004,89.4085,-16.1851,178.726,1.77979,-145.371,456
1569667024,390.004,89.4085,-16.1851,178.726,1.77979,-145.371,452
1569667024,390.004,89.4085,-16.1851,178.726,1.77979,-145.371,452
1569667024,390.004,89.2969,-16.1851,178.726,1.77979,-145.371,452
1569667024,389.892,89.2969,-16.1851,178.726,1.77979,-145.371,452
1569667024,389.892,89.2969,-16.1851,178.726,1.77979,-145.371,448
1569667024,389.892,89.2969,-16.1851,178.726,1.75781,-145.371,448
1569667024,389.892,89.2969,-16.1851,178.726,1.75781,-145.371,448
1569667024,389.892,89.2969,-16.1851,178.726,1.75781,-145.371,448
1569667024,389.892,89.2969,-16.1851,178.704,1.75781,-145.393,448
1569667024,389.892,89.2969,-16.1851,178.704,1.75781,-145.393,448
1569667024,389.892,89.2969,-16.1851,178.704,1.75781,-145.393,448
1569667024,389.892,89.2969,-16.1851,178.704,1.75781,-145.393,448
1569667024,389.892,89.2969,-16.1851,178.704,1.75781,-145.393,448
1569667024,389.892,89.2969,-16.1851,178.704,1.75781,-145.393,448
1569667024,389.892,89.2969,-16.1851,178.704,1.75781,-145.393,448
1569667024,389.892,89.2969,-16.1851,178.704,1.77979,-145.393,448
1569667024,389.892,89.2969,-16.1851,178.704,1.77979,-145.393,452
1569667024,389.892,89.2969,-16.1851,178.704,1.77979,-145.393,452
1569667024,389.892,89.2969,-16.1851,178.704,1.77979,-145.393,452
1569667024,389.892,89.2969,-16.1851,178.704,1.77979,-145.393,452
1569667024,389.892,89.2969,-16.1851,178.704,1.77979,-145.393,452
1569667024,389.892,89.2969,-16.1851,178.704,1.77979,-145.393,452
1569667024,389.892,89.2969,-16.1851,178.704,1.75781,-145.393,452
1569667024,389.892,89.2969,-16.1851,178.704,1.75781,-145.393,452
1569667024,389.892,89.2969,-16.1851,178.704,1.75781,-145.393,452
1569667024,389.892,89.2969,-16.1851,178.704,1.75781,-145.393,452
1569667024,389.892,89.2969,-16.1851,178.704,1.75781,-145.393,452
1569667024,390.004,89.2969,-16.1851,178.704,1.75781,-145.393,452
1569667024,390.004,89.2969,-16.1851,178.704,1.75781,-145.393,452
1569667024,390.004,89.2969,-16.1851,178.704,1.75781,-145.393,448
1569667024,390.004,89.2969,-16.1851,178.704,1.75781,-145.393,448
1569667024,390.004,89.2969,-16.1851,178.704,1.75781,-145.393,448
1569667024,390.004,89.2969,-16.1851,178.704,1.75781,-145.393,448
1569667024,389.892,89.2969,-16.1851,178.704,1.75781,-145.393,448
1569667025,389.892,89.2969,-16.1851,178.704,1.75781,-145.393,448
1569667025,389.892,89.2969,-16.1851,178.704,1.75781,-145.393,448
1569667025,389.892,89.2969,-16.1851,178.682,1.75781,-145.393,448
1569667025,389.892,89.2969,-16.1851,178.682,1.75781,-145.393,448
1569667025,389.892,89.2969,-16.1851,178.682,1.75781,-145.393,448
1569667025,389.892,89.2969,-16.1851,178.682,1.75781,-145.393,448
1569667025,389.892,89.2969,-16.1851,178.682,1.75781,-145.393,448
1569667025,389.892,89.2969,-16.2967,178.682,1.75781,-145.393,452
1569667025,389.892,89.2969,-16.2967,178.704,1.75781,-145.371,452
1569667025,389.892,89.2969,-16.2967,178.704,1.73584,-145.371,452
1569667025,389.892,89.2969,-16.2967,178.704,1.73584,-145.371,452
1569667025,389.892,89.2969,-16.2967,178.704,1.73584,-145.371,452
1569667025,389.892,89.2969,-16.2967,178.704,1.73584,-145.371,452
1569667025,389.892,89.2969,-16.2967,178.704,1.73584,-145.371,452
1569667025,389.892,89.2969,-16.2967,178.704,1.73584,-145.371,456
1569667025,389.892,89.2969,-16.2967,178.704,1.73584,-145.371,456
1569667025,389.892,89.2969,-16.2967,178.704,1.71387,-145.371,456
1569667025,389.892,89.2969,-16.2967,178.704,1.71387,-145.371,460
1569667025,389.892,89.2969,-16.2967,178.704,1.71387,-145.371,460
1569667025,389.892,89.2969,-16.2967,178.704,1.71387,-145.371,460
1569667025,389.892,89.2969,-16.2967,178.704,1.71387,-145.371,464
1569667025,389.892,89.2969,-16.4083,178.704,1.71387,-145.371,464
1569667025,389.892,89.2969,-16.4083,178.704,1.71387,-145.371,464
1569667025,389.892,89.2969,-16.4083,178.704,1.71387,-145.371,468
1569667025,389.892,89.2969,-16.4083,178.704,1.69189,-145.371,468
1569667025,389.892,89.2969,-16.4083,178.704,1.69189,-145.371,468
1569667025,389.892,89.2969,-16.4083,178.704,1.69189,-145.371,472
1569667025,389.892,89.2969,-16.4083,178.704,1.69189,-145.371,472
1569667025,389.892,89.2969,-16.4083,178.704,1.69189,-145.371,476
1569667025,389.892,89.2969,-16.4083,178.704,1.69189,-145.371,476
1569667025,389.892,89.2969,-16.4083,178.726,1.69189,-145.371,476
1569667025,389.892,89.2969,-16.4083,178.726,1.69189,-145.371,480
1569667025,389.892,89.2969,-16.4083,178.726,1.69189,-145.371,480
1569667025,389.892,89.2969,-16.4083,178.726,1.69189,-145.371,480
1569667025,389.892,89.2969,-16.5199,178.726,1.69189,-145.371,484
1569667025,389.892,89.2969,-16.5199,178.726,1.69189,-145.371,484
1569667025,389.892,89.2969,-16.5199,178.726,1.69189,-145.371,484
1569667025,389.892,89.2969,-16.5199,178.726,1.69189,-145.371,484
1569667025,389.892,89.2969,-16.5199,178.726,1.66992,-145.371,484
1569667025,389.892,89.2969,-16.5199,178.726,1.66992,-145.371,484
1569667025,389.892,89.2969,-16.5199,178.726,1.66992,-145.371,484
1569667025,389.892,89.2969,-16.5199,178.726,1.66992,-145.371,484
1569667025,389.892,89.2969,-16.5199,178.726,1.66992,-145.371,488
1569667025,389.892,89.2969,-16.5199,178.726,1.66992,-145.371,488
1569667025,389.892,89.2969,-16.5199,178.726,1.69189,-145.371,488
1569667025,389.892,89.2969,-16.5199,178.726,1.69189,-145.371,484
1569667025,389.892,89.2969,-16.4083,178.726,1.69189,-145.371,484
1569667025,389.892,89.4085,-16.4083,178.726,1.69189,-145.371,484
1569667025,389.892,89.4085,-16.4083,178.726,1.69189,-145.371,484
1569667025,389.892,89.4085,-16.4083,178.726,1.69189,-145.371,484
1569667025,389.892,89.4085,-16.4083,178.726,1.69189,-145.371,484
1569667025,389.892,89.4085,-16.4083,178.726,1.69189,-145.371,484
1569667025,389.892,89.4085,-16.4083,178.726,1.71387,-145.371,480
1569667025,389.892,89.4085,-16.4083,178.726,1.71387,-145.393,480
1569667025,389.892,89.4085,-16.4083,178.726,1.71387,-145.393,480
1569667025,389.892,89.4085,-16.4083,178.726,1.71387,-145.393,480
1569667025,389.892,89.4085,-16.4083,178.726,1.71387,-145.393,480
1569667025,389.892,89.4085,-16.4083,178.726,1.71387,-145.393,476
1569667025,389.892,89.4085,-16.2967,178.726,1.71387,-145.393,476
1569667025,389.892,89.4085,-16.2967,178.726,1.71387,-145.393,476
1569667025,389.892,89.4085,-16.2967,178.726,1.73584,-145.393,476
1569667025,389.892,89.4085,-16.2967,178.726,1.73584,-145.393,476
1569667025,390.004,89.4085,-16.2967,178.726,1.73584,-145.393,472
1569667025,390.004,89.4085,-16.2967,178.726,1.73584,-145.393,472
1569667025,390.004,89.4085,-16.2967,178.726,1.73584,-145.393,472
1569667025,390.004,89.4085,-16.2967,178.726,1.73584,-145.393,468
1569667025,390.004,89.4085,-16.2967,178.726,1.73584,-145.393,468
1569667025,390.004,89.4085,-16.2967,178.726,1.73584,-145.393,468
1569667025,390.004,89.4085,-16.2967,178.704,1.75781,-145.371,464
1569667025,390.004,89.4085,-16.2967,178.704,1.75781,-145.371,464
1569667025,390.004,89.4085,-16.2967,178.704,1.75781,-145.371,464
1569667025,390.004,89.4085,-16.2967,178.704,1.75781,-145.371,464
1569667025,390.004,89.4085,-16.2967,178.704,1.75781,-145.393,464
1569667025,390.004,89.2969,-16.1851,178.704,1.75781,-145.393,464
1569667025,390.004,89.2969,-16.1851,178.704,1.75781,-145.393,460
1569667025,390.004,89.2969,-16.1851,178.704,1.75781,-145.393,460
1569667025,390.004,89.2969,-16.1851,178.704,1.75781,-145.393,460
1569667025,390.004,89.2969,-16.1851,178.704,1.75781,-145.393,460
1569667025,390.004,89.2969,-16.1851,178.704,1.75781,-145.393,460
1569667025,390.004,89.2969,-16.1851,178.704,1.75781,-145.393,460
1569667025,390.004,89.2969,-16.1851,178.704,1.75781,-145.393,460
1569667025,390.004,89.2969,-16.1851,178.704,1.75781,-145.393,460
1569667025,390.004,89.2969,-16.1851,178.704,1.75781,-145.393,460
1569667025,390.004,89.2969,-16.1851,178.704,1.75781,-145.393,460
1569667025,390.004,89.2969,-16.1851,178.704,1.75781,-145.393,460
1569667025,390.004,89.2969,-16.1851,178.704,1.75781,-145.393,460
1569667025,390.004,89.2969,-16.1851,178.704,1.75781,-145.393,460
1569667025,390.004,89.2969,-16.1851,178.704,1.75781,-145.393,460
1569667025,389.892,89.2969,-16.1851,178.704,1.75781,-145.393,460
1569667025,389.892,89.2969,-16.1851,178.704,1.75781,-145.393,460
1569667025,389.892,89.2969,-16.1851,178.704,1.75781,-145.393,460
1569667025,389.892,89.2969,-16.1851,178.704,1.75781,-145.393,460
1569667025,389.892,89.2969,-16.1851,178.704,1.75781,-145.393,460
1569667025,389.892,89.2969,-16.1851,178.704,1.75781,-145.393,460
1569667025,389.892,89.2969,-16.1851,178.704,1.75781,-145.393,460
1569667025,389.892,89.2969,-16.1851,178.704,1.75781,-145.393,460
1569667025,389.892,89.2969,-16.1851,178.704,1.75781,-145.393,460
1569667025,389.892,89.2969,-16.2967,178.704,1.75781,-145.393,464
1569667025,389.892,89.2969,-16.2967,178.704,1.73584,-145.393,464
1569667025,389.892,89.2969,-16.2967,178.704,1.73584,-145.393,464
1569667026,389.892,89.2969,-16.2967,178.704,1.73584,-145.393,464
1569667026,389.892,89.2969,-16.2967,178.704,1.73584,-145.393,464
1569667026,389.892,89.2969,-16.2967,178.704,1.73584,-145.393,468
1569667026,389.892,89.2969,-16.2967,178.682,1.73584,-145.393,468
1569667026,389.892,89.2969,-16.2967,178.682,1.73584,-145.393,468
1569667026,389.892,89.2969,-16.2967,178.682,1.75781,-145.393,468
1569667026,389.892,89.2969,-16.2967,178.682,1.75781,-145.393,468
1569667026,389.892,89.2969,-16.2967,178.682,1.75781,-145.393,472
1569667026,389.892,89.2969,-16.2967,178.704,1.75781,-145.393,472
1569667026,389.892,89.2969,-16.2967,178.682,1.75781,-145.393,472
1569667026,389.892,89.2969,-16.2967,178.682,1.75781,-145.393,472
1569667026,389.892,89.1853,-16.2967,178.682,1.75781,-145.393,476
1569667026,389.892,89.1853,-16.1851,178.682,1.75781,-145.393,476
1569667026,389.892,89.1853,-16.1851,178.682,1.75781,-145.393,476
1569667026,389.892,89.1853,-16.1851,178.682,1.75781,-145.393,476
1569667026,389.892,89.1853,-16.1851,178.682,1.75781,-145.393,480
1569667026,389.892,89.1853,-16.1851,178.682,1.75781,-145.393,480
1569667026,389.892,89.1853,-16.1851,178.682,1.75781,-145.393,480
1569667026,390.004,89.1853,-16.1851,178.682,1.75781,-145.393,480
1569667026,390.004,89.1853,-16.1851,178.682,1.75781,-145.393,480
1569667026,390.004,89.1853,-16.1851,178.682,1.75781,-145.393,480
1569667026,390.004,89.1853,-16.1851,178.682,1.75781,-145.393,480
1569667026,390.004,89.1853,-16.1851,178.682,1.75781,-145.393,476
1569667026,390.004,89.1853,-16.1851,178.682,1.75781,-145.393,476
1569667026,390.004,89.1853,-16.1851,178.682,1.75781,-145.371,476
1569667026,390.004,89.1853,-16.1851,178.682,1.75781,-145.371,472
1569667026,389.892,89.1853,-16.1851,178.682,1.75781,-145.371,472
1569667026,389.892,89.1853,-16.2967,178.682,1.75781,-145.371,472
1569667026,389.892,89.1853,-16.2967,178.682,1.75781,-145.371,468
1569667026,389.892,89.1853,-16.2967,178.682,1.75781,-145.371,468
1569667026,389.892,89.1853,-16.2967,178.682,1.75781,-145.371,468
1569667026,389.892,89.1853,-16.2967,178.682,1.75781,-145.371,468
1569667026,389.892,89.1853,-16.2967,178.682,1.75781,-145.371,468
1569667026,389.892,89.1853,-16.2967,178.682,1.75781,-145.371,464
1569667026,389.892,89.1853,-16.2967,178.682,1.75781,-145.371,464
1569667026,389.892,89.1853,-16.2967,178.682,1.75781,-145.371,464
1569667026,389.892,89.1853,-16.2967,178.682,1.75781,-145.371,464
1569667026,390.004,89.1853,-16.2967,178.682,1.75781,-145.371,460
1569667026,390.004,89.1853,-16.2967,178.682,1.75781,-145.371,460
1569667026,390.004,89.1853,-16.2967,178.682,1.75781,-145.371,456
1569667026,390.004,89.1853,-16.2967,178.682,1.75781,-145.371,456
1569667026,390.004,89.1853,-16.2967,178.682,1.75781,-145.371,456
1569667026,390.004,89.2969,-16.2967,178.682,1.75781,-145.371,452
1569667026,390.004,89.2969,-16.2967,178.682,1.75781,-145.371,452
1569667026,390.004,89.2969,-16.2967,178.682,1.75781,-145.371,448
1569667026,390.004,89.2969,-16.2967,178.682,1.75781,-145.371,448
1569667026,390.004,89.2969,-16.2967,178.682,1.75781,-145.371,448
1569667026,390.004,89.2969,-16.2967,178.682,1.75781,-145.371,444
1569667026,390.004,89.2969,-16.2967,178.704,1.75781,-145.349,444
1569667026,390.004,89.2969,-16.2967,178.704,1.75781,-145.349,444
1569667026,390.004,89.2969,-16.2967,178.704,1.75781,-145.349,444
1569667026,390.004,89.2969,-16.2967,178.704,1.75781,-145.349,444
1569667026,390.004,89.2969,-16.2967,178.704,1.73584,-145.349,444
1569667026,390.004,89.2969,-16.2967,178.704,1.73584,-145.349,444
1569667026,390.004,89.2969,-16.2967,178.682,1.73584,-145.371,444
1569667026,390.004,89.2969,-16.2967,178.682,1.73584,-145.371,444
1569667026,390.004,89.2969,-16.2967,178.682,1.73584,-145.371,444
1569667026,390.004,89.2969,-16.2967,178.682,1.73584,-145.371,448
1569667026,390.004,89.2969,-16.2967,178.682,1.73584,-145.371,448
1569667026,390.004,89.2969,-16.2967,178.682,1.73584,-145.371,448
1569667026,390.004,89.2969,-16.2967,178.682,1.73584,-145.371,448
1569667026,390.004,89.2969,-16.2967,178.682,1.73584,-145.371,452
1569667026,390.004,89.2969,-16.2967,178.682,1.73584,-145.371,452
1569667026,390.004,89.2969,-16.2967,178.682,1.73584,-145.371,452
1569667026,390.004,89.2969,-16.4083,178.682,1.73584,-145.371,452
1569667026,390.004,89.2969,-16.4083,178.704,1.73584,-145.371,452
1569667026,390.004,89.2969,-16.4083,178.704,1.71387,-145.371,456
1569667026,390.004,89.2969,-16.4083,178.704,1.71387,-145.371,456
1569667026,390.004,89.2969,-16.4083,178.704,1.71387,-145.371,456
1569667026,390.004,89.2969,-16.4083,178.704,1.71387,-145.349,456
1569667026,390.004,89.2969,-16.4083,178.704,1.71387,-145.349,456
1569667026,390.004,89.4085,-16.4083,178.704,1.71387,-145.349,456
1569667026,390.004,89.4085,-16.4083,178.726,1.71387,-145.349,456
1569667026,390.004,89.4085,-16.4083,178.726,1.71387,-145.349,456
1569667026,390.004,89.4085,-16.4083,178.726,1.71387,-145.349,456
1569667026,390.004,89.4085,-16.4083,178.726,1.71387,-145.349,460
1569667026,390.004,89.4085,-16.4083,178.726,1.71387,-145.349,460
1569667026,390.004,89.2969,-16.4083,178.726,1.71387,-145.349,460
1569667026,390.004,89.2969,-16.4083,178.704,1.71387,-145.349,460
1569667026,390.004,89.2969,-16.4083,178.704,1.71387,-145.349,464
1569667026,389.892,89.2969,-16.4083,178.704,1.71387,-145.349,464
1569667026,389.892,89.2969,-16.4083,178.726,1.73584,-145.371,468
1569667026,389.892,89.2969,-16.4083,178.726,1.73584,-145.371,468
1569667026,389.892,89.2969,-16.4083,178.726,1.73584,-145.371,472
1569667026,389.892,89.2969,-16.4083,178.726,1.71387,-145.371,472
1569667026,389.892,89.2969,-16.4083,178.726,1.71387,-145.371,472
1569667026,389.892,89.2969,-16.4083,178.726,1.73584,-145.371,476
1569667026,389.892,89.2969,-16.4083,178.726,1.73584,-145.371,476
1569667026,389.892,89.4085,-16.4083,178.726,1.73584,-145.371,476
1569667026,389.892,89.4085,-16.4083,178.726,1.73584,-145.371,476
1569667026,389.892,89.4085,-16.4083,178.726,1.73584,-145.371,476
1569667026,390.004,89.4085,-16.4083,178.726,1.73584,-145.371,476
1569667026,390.004,89.4085,-16.4083,178.726,1.73584,-145.371,472
1569667026,390.004,89.4085,-16.4083,178.726,1.73584,-145.371,472
1569667026,390.004,89.4085,-16.4083,178.726,1.73584,-145.371,472
1569667026,390.004,89.4085,-16.4083,178.726,1.73584,-145.371,468
1569667026,390.004,89.4085,-16.4083,178.726,1.73584,-145.371,468
1569667026,390.004,89.4085,-16.4083,178.726,1.73584,-145.371,468
1569667026,390.004,89.4085,-16.4083,178.726,1.71387,-145.371,468
1569667026,390.004,89.4085,-16.4083,178.726,1.71387,-145.371,464
1569667027,390.004,89.4085,-16.4083,178.726,1.71387,-145.371,464
1569667027,390.004,89.4085,-16.4083,178.726,1.71387,-145.371,464
1569667027,390.004,89.4085,-16.4083,178.726,1.71387,-145.371,464
1569667027,390.004,89.4085,-16.4083,178.726,1.71387,-145.371,464
1569667027,390.004,89.4085,-16.4083,178.726,1.71387,-145.371,460
1569667027,390.004,89.4085,-16.4083,178.726,1.71387,-145.371,460
1569667027,390.004,89.4085,-16.4083,178.726,1.71387,-145.371,460
1569667027,390.004,89.4085,-16.4083,178.726,1.71387,-145.371,460
1569667027,390.004,89.4085,-16.2967,178.726,1.71387,-145.371,460
1569667027,390.004,89.4085,-16.2967,178.726,1.73584,-145.371,456
1569667027,390.004,89.4085,-16.2967,178.726,1.73584,-145.371,456
1569667027,390.004,89.4085,-16.2967,178.726,1.73584,-145.371,456
1569667027,390.004,89.4085,-16.2967,178.726,1.73584,-145.371,452
1569667027,390.004,89.4085,-16.2967,178.726,1.73584,-145.393,452
1569667027,390.004,89.4085,-16.2967,178.726,1.73584,-145.393,452
1569667027,390.004,89.4085,-16.2967,178.726,1.75781,-145.393,448
1569667027,390.004,89.4085,-16.1851,178.726,1.75781,-145.393,448
1569667027,390.004,89.4085,-16.1851,178.726,1.75781,-145.393,448
1569667027,390.004,89.4085,-16.1851,178.726,1.75781,-145.393,448
1569667027,390.004,89.4085,-16.1851,178.704,1.75781,-145.393,444
1569667027,390.004,89.4085,-16.1851,178.704,1.75781,-145.393,444
1569667027,390.004,89.2969,-16.2967,178.704,1.75781,-145.393,444
1569667027,390.004,89.2969,-16.2967,178.704,1.75781,-145.393,444
1569667027,390.004,89.2969,-16.2967,178.704,1.75781,-145.393,444
1569667027,390.004,89.2969,-16.2967,178.682,1.75781,-145.393,448
1569667027,390.004,89.2969,-16.2967,178.682,1.75781,-145.393,448
1569667027,390.004,89.2969,-16.2967,178.682,1.73584,-145.393,448
1569667027,390.004,89.2969,-16.2967,178.682,1.73584,-145.393,448
1569667027,390.004,89.2969,-16.2967,178.682,1.73584,-145.393,452
1569667027,390.004,89.2969,-16.2967,178.682,1.73584,-145.371,452
1569667027,390.004,89.2969,-16.2967,178.682,1.73584,-145.371,452
1569667027,390.004,89.2969,-16.2967,178.682,1.73584,-145.371,456
1569667027,390.004,89.2969,-16.2967,178.704,1.71387,-145.371,456
1569667027,390.004,89.2969,-16.4083,178.704,1.71387,-145.371,456
1569667027,390.004,89.2969,-16.4083,178.704,1.71387,-145.371,456
1569667027,389.892,89.2969,-16.4083,178.704,1.71387,-145.371,460
1569667027,389.892,89.2969,-16.4083,178.704,1.71387,-145.371,460
1569667027,389.892,89.2969,-16.4083,178.704,1.69189,-145.371,460
1569667027,389.892,89.2969,-16.4083,178.704,1.69189,-145.371,464
1569667027,389.892,89.2969,-16.4083,178.704,1.69189,-145.371,464
1569667027,389.892,89.2969,-16.4083,178.704,1.69189,-145.371,464
1569667027,389.892,89.2969,-16.4083,178.704,1.69189,-145.371,468
1569667027,389.892,89.2969,-16.4083,178.704,1.69189,-145.371,468
1569667027,389.892,89.2969,-16.4083,178.704,1.69189,-145.371,468
1569667027,389.892,89.2969,-16.4083,178.704,1.71387,-145.371,472
1569667027,389.781,89.2969,-16.4083,178.704,1.71387,-145.371,472
1569667027,389.781,89.2969,-16.4083,178.704,1.71387,-145.371,472
1569667027,389.892,89.2969,-16.4083,178.704,1.71387,-145.371,472
1569667027,389.892,89.2969,-16.4083,178.704,1.71387,-145.371,472
1569667027,389.892,89.2969,-16.4083,178.704,1.71387,-145.371,472
1569667027,389.892,89.2969,-16.2967,178.704,1.71387,-145.371,472
1569667027,389.892,89.2969,-16.2967,178.704,1.71387,-145.371,472
1569667027,389.892,89.2969,-16.2967,178.704,1.71387,-145.371,472
1569667027,389.892,89.2969,-16.2967,178.704,1.71387,-145.371,468
1569667027,389.892,89.2969,-16.4083,178.704,1.71387,-145.371,468
1569667027,389.892,89.2969,-16.4083,178.704,1.71387,-145.371,468
1569667027,389.892,89.2969,-16.4083,178.704,1.71387,-145.371,468
1569667027,389.892,89.2969,-16.4083,178.726,1.71387,-145.371,468
1569667027,389.892,89.2969,-16.4083,178.726,1.69189,-145.371,468
1569667027,389.892,89.2969,-16.4083,178.726,1.69189,-145.371,468
1569667032,367.01,113.854,-16.5199,178.726,1.64795,-145.107,412
1569667032,367.01,113.854,-16.5199,178.726,1.64795,-145.107,412
1569667032,367.01,113.854,-16.5199,178.726,1.64795,-145.107,412
1569667032,367.01,113.854,-16.5199,178.726,1.64795,-145.129,412
1569667032,367.01,113.965,-16.5199,178.726,1.64795,-145.129,412
1569667032,367.01,113.965,-16.5199,178.726,1.64795,-145.129,408
1569667032,367.01,113.965,-16.5199,178.726,1.64795,-145.129,408
1569667032,367.01,113.965,-16.5199,178.726,1.64795,-145.129,408
1569667032,367.01,113.965,-16.5199,178.726,1.64795,-145.129,408
1569667032,367.01,113.965,-16.5199,178.726,1.64795,-145.129,408
1569667032,367.01,113.965,-16.5199,178.726,1.64795,-145.129,408
1569667032,367.01,113.965,-16.5199,178.726,1.64795,-145.129,408
1569667032,367.01,113.965,-16.5199,178.726,1.64795,-145.129,408
1569667032,367.01,113.854,-16.5199,178.726,1.64795,-145.129,408
1569667032,367.01,113.854,-16.5199,178.726,1.64795,-145.129,408
1569667032,367.01,113.854,-16.5199,178.726,1.64795,-145.129,408
1569667032,367.01,113.854,-16.5199,178.726,1.64795,-145.129,408
1569667032,367.01,113.854,-16.5199,178.726,1.64795,-145.129,408
1569667032,367.01,113.854,-16.5199,178.726,1.64795,-145.129,408
1569667032,367.01,113.854,-16.4083,178.726,1.64795,-145.129,408
1569667032,367.01,113.854,-16.4083,178.726,1.64795,-145.129,408
1569667032,367.01,113.854,-16.4083,178.726,1.64795,-145.151,408
1569667032,367.01,113.854,-16.4083,178.726,1.64795,-145.151,408
1569667032,367.01,113.854,-16.4083,178.726,1.64795,-145.151,412
1569667032,367.01,113.854,-16.4083,178.726,1.64795,-145.151,412
1569667032,367.01,113.965,-16.4083,178.726,1.64795,-145.151,412
1569667032,367.01,113.965,-16.4083,178.726,1.64795,-145.151,412
1569667032,367.01,113.965,-16.4083,178.726,1.64795,-145.151,408
1569667032,367.01,113.965,-16.4083,178.726,1.64795,-145.151,408
1569667032,367.01,113.965,-16.5199,178.726,1.64795,-145.151,408
1569667032,367.01,113.965,-16.5199,178.726,1.64795,-145.151,408
1569667032,367.01,113.965,-16.5199,178.726,1.64795,-145.151,408
1569667032,367.01,113.965,-16.5199,178.726,1.62598,-145.151,408
1569667032,367.01,113.965,-16.5199,178.726,1.62598,-145.129,408
1569667032,367.01,113.965,-16.5199,178.726,1.62598,-145.129,408
1569667032,367.01,113.965,-16.5199,178.726,1.62598,-145.129,408
1569667032,367.01,113.965,-16.5199,178.726,1.62598,-145.129,408
1569667032,367.01,113.965,-16.5199,178.726,1.62598,-145.129,408
1569667032,367.01,113.965,-16.5199,178.726,1.62598,-145.129,408
1569667032,367.01,113.965,-16.5199,178.726,1.62598,-145.129,408
1569667032,367.01,113.965,-16.5199,178.726,1.62598,-145.129,408
1569667032,367.01,113.965,-16.5199,178.726,1.62598,-145.129,408
1569667032,367.01,113.965,-16.5199,178.726,1.62598,-145.129,408
1569667032,367.01,113.965,-16.5199,178.726,1.62598,-145.129,408
1569667032,367.01,113.965,-16.5199,178.726,1.62598,-145.129,408
1569667032,367.01,113.965,-16.5199,178.726,1.62598,-145.129,408
1569667032,367.01,113.965,-16.5199,178.726,1.62598,-145.129,408
1569667032,367.01,113.965,-16.5199,178.748,1.604,-145.129,408
1569667032,367.01,113.965,-16.5199,178.748,1.604,-145.129,408
1569667032,367.01,113.965,-16.6315,178.748,1.604,-145.129,408
1569667032,367.01,113.965,-16.6315,178.748,1.604,-145.129,408
1569667032,367.01,113.965,-16.6315,178.748,1.604,-145.129,408
1569667032,367.01,114.077,-16.6315,178.748,1.604,-145.129,408
1569667032,367.01,114.077,-16.6315,178.748,1.604,-145.129,404
1569667032,367.01,114.077,-16.6315,178.748,1.604,-145.129,404
1569667032,367.01,113.965,-16.6315,178.748,1.604,-145.129,404
1569667032,367.01,113.965,-16.6315,178.748,1.604,-145.129,404
1569667032,367.01,113.965,-16.6315,178.748,1.604,-145.129,404
1569667032,367.01,113.965,-16.6315,178.726,1.604,-145.129,404
1569667032,367.01,113.965,-16.6315,178.726,1.604,-145.129,404
1569667032,367.01,113.965,-16.6315,178.726,1.604,-145.129,404
1569667032,367.01,113.965,-16.6315,178.726,1.604,-145.129,404
1569667032,367.01,113.965,-16.6315,178.726,1.604,-145.129,404
1569667032,367.01,113.965,-16.6315,178.726,1.604,-145.129,404
1569667032,367.01,113.965,-16.6315,178.726,1.62598,-145.129,404
1569667032,367.01,113.965,-16.5199,178.726,1.62598,-145.129,404
1569667032,367.01,113.965,-16.5199,178.726,1.62598,-145.129,408
1569667032,367.01,113.854,-16.6315,178.726,1.62598,-145.129,408
1569667032,367.01,113.854,-16.6315,178.726,1.62598,-145.129,408
1569667032,367.01,113.854,-16.6315,178.726,1.62598,-145.107,408
1569667032,367.01,113.854,-16.6315,178.726,1.62598,-145.107,408
1569667032,366.899,113.854,-16.6315,178.726,1.604,-145.107,412
1569667032,366.899,113.854,-16.6315,178.726,1.604,-145.107,412
1569667032,366.899,113.854,-16.6315,178.726,1.604,-145.107,412
1569667032,366.899,113.854,-16.6315,178.726,1.604,-145.107,412
1569667032,366.899,113.854,-16.6315,178.726,1.604,-145.107,412
1569667032,366.899,113.854,-16.6315,178.726,1.604,-145.107,412
1569667032,366.899,113.854,-16.6315,178.726,1.604,-145.107,412
1569667032,366.899,113.854,-16.6315,178.726,1.604,-145.107,412
1569667032,366.899,113.854,-16.6315,178.726,1.604,-145.107,412
1569667032,366.899,113.854,-16.6315,178.726,1.604,-145.107,412
1569667032,366.899,113.965,-16.6315,178.726,1.62598,-145.107,412
1569667032,366.899,113.965,-16.6315,178.726,1.62598,-145.107,408
1569667032,366.899,113.965,-16.6315,178.748,1.62598,-145.107,408
1569667032,366.899,113.965,-16.5199,178.748,1.62598,-145.107,408
1569667032,366.899,113.965,-16.5199,178.748,1.62598,-145.107,408
1569667032,366.899,113.965,-16.5199,178.748,1.62598,-145.129,404
1569667032,366.899,113.965,-16.5199,178.748,1.62598,-145.129,404
1569667033,366.899,113.965,-16.5199,178.748,1.62598,-145.129,404
1569667033,367.01,113.965,-16.5199,178.748,1.62598,-145.129,404
1569667033,367.01,113.965,-16.5199,178.748,1.62598,-145.129,404
1569667033,367.01,113.965,-16.5199,178.726,1.62598,-145.129,400
1569667033,367.01,113.965,-16.5199,178.726,1.64795,-145.129,400
1569667033,367.01,113.965,-16.5199,178.726,1.64795,-145.107,400
1569667033,367.01,113.965,-16.5199,178.726,1.64795,-145.107,400
1569667033,367.01,113.965,-16.5199,178.726,1.64795,-145.107,400
1569667033,367.01,113.965,-16.5199,178.726,1.64795,-145.107,400
1569667033,367.01,113.965,-16.5199,178.726,1.64795,-145.107,400
1569667033,367.01,113.965,-16.5199,178.726,1.64795,-145.107,400
1569667033,367.01,113.965,-16.5199,178.726,1.64795,-145.107,400
1569667033,367.01,113.965,-16.5199,178.726,1.64795,-145.107,400
1569667033,367.01,113.965,-16.5199,178.726,1.64795,-145.107,400
1569667033,367.01,113.965,-16.5199,178.726,1.64795,-145.107,400
1569667033,367.01,113.965,-16.5199,178.726,1.64795,-145.107,400
1569667033,367.01,113.965,-16.5199,178.726,1.62598,-145.107,400
1569667033,367.01,113.965,-16.5199,178.726,1.62598,-145.107,400
1569667033,367.01,113.965,-16.5199,178.726,1.62598,-145.107,400
1569667033,367.01,113.965,-16.5199,178.726,1.62598,-145.107,400
1569667033,367.01,113.965,-16.5199,178.726,1.62598,-145.107,400
1569667033,367.01,113.965,-16.6315,178.726,1.62598,-145.107,400
1569667033,367.01,113.965,-16.6315,178.726,1.62598,-145.107,400
1569667033,367.01,113.965,-16.6315,178.726,1.62598,-145.107,400
1569667033,367.01,113.965,-16.6315,178.726,1.62598,-145.107,400
1569667033,367.01,113.965,-16.6315,178.726,1.62598,-145.107,400
1569667033,367.01,113.965,-16.6315,178.726,1.62598,-145.129,404
1569667033,367.01,113.965,-16.6315,178.748,1.62598,-145.129,404
1569667033,367.01,113.965,-16.6315,178.748,1.62598,-145.129,404
1569667033,367.01,113.965,-16.6315,178.726,1.62598,-145.129,404
1569667033,367.01,113.965,-16.6315,178.726,1.62598,-145.129,404
1569667033,367.01,113.965,-16.5199,178.726,1.62598,-145.129,404
1569667033,367.01,113.965,-16.5199,178.726,1.62598,-145.129,400
1569667033,367.01,113.965,-16.5199,178.726,1.62598,-145.129,400
1569667033,367.01,113.965,-16.5199,178.726,1.62598,-145.129,400
1569667033,367.122,113.965,-16.5199,178.726,1.62598,-145.129,400
1569667033,367.122,113.965,-16.5199,178.726,1.62598,-145.129,400
1569667033,367.122,113.965,-16.5199,178.726,1.62598,-145.129,400
1569667033,367.122,113.965,-16.5199,178.726,1.62598,-145.129,400
1569667033,367.122,113.965,-16.5199,178.726,1.64795,-145.129,396
1569667033,367.122,113.965,-16.5199,178.726,1.64795,-145.129,396
1569667033,367.122,113.965,-16.5199,178.726,1.64795,-145.129,396
1569667033,367.122,113.965,-16.5199,178.726,1.64795,-145.129,396
1569667033,367.122,113.965,-16.5199,178.726,1.64795,-145.129,396
1569667033,367.122,113.965,-16.5199,178.726,1.64795,-145.129,396
1569667033,367.122,113.965,-16.5199,178.726,1.64795,-145.129,396
1569667033,367.122,113.965,-16.5199,178.726,1.64795,-145.129,396
1569667033,367.122,113.965,-16.5199,178.726,1.64795,-145.129,392
1569667033,367.122,113.965,-16.5199,178.726,1.64795,-145.129,392
1569667033,367.01,113.965,-16.5199,178.726,1.64795,-145.129,392
1569667033,367.01,113.965,-16.5199,178.726,1.64795,-145.129,392
1569667033,367.01,113.965,-16.5199,178.726,1.64795,-145.129,392
1569667033,367.01,113.965,-16.5199,178.726,1.64795,-145.129,392
1569667033,367.01,113.965,-16.5199,178.726,1.64795,-145.129,392
1569667033,367.01,113.965,-16.5199,178.726,1.66992,-145.129,392
1569667033,367.01,113.965,-16.5199,178.726,1.66992,-145.129,392
1569667033,367.01,113.965,-16.4083,178.726,1.66992,-145.129,392
1569667033,367.01,113.965,-16.4083,178.748,1.66992,-145.129,392
1569667033,367.01,113.965,-16.4083,178.748,1.66992,-145.129,392
1569667033,367.01,113.965,-16.4083,178.748,1.66992,-145.129,392
1569667033,367.01,113.965,-16.4083,178.748,1.66992,-145.129,392
1569667033,367.01,113.965,-16.4083,178.726,1.66992,-145.129,392
1569667033,367.01,113.965,-16.4083,178.726,1.66992,-145.129,392
1569667033,367.01,113.965,-16.4083,178.726,1.66992,-145.107,392
1569667033,367.01,113.965,-16.5199,178.726,1.66992,-145.107,392
1569667033,367.01,113.965,-16.5199,178.726,1.64795,-145.107,388
1569667033,367.01,113.965,-16.5199,178.726,1.64795,-145.107,388
1569667033,367.01,113.965,-16.5199,178.726,1.64795,-145.107,388
1569667033,367.01,113.965,-16.5199,178.726,1.64795,-145.107,388
1569667033,367.01,113.965,-16.5199,178.726,1.64795,-145.107,388
1569667033,367.01,113.965,-16.5199,178.726,1.64795,-145.107,388
1569667033,367.01,113.965,-16.5199,178.726,1.64795,-145.107,384
1569667033,367.122,113.965,-16.5199,178.726,1.64795,-145.107,384
1569667033,367.122,113.965,-16.5199,178.726,1.64795,-145.107,384
1569667033,367.122,113.965,-16.5199,178.726,1.64795,-145.107,384
1569667033,367.122,113.965,-16.5199,178.726,1.64795,-145.107,384
1569667033,367.122,113.965,-16.5199,178.726,1.64795,-145.107,380
1569667033,367.122,113.965,-16.5199,178.726,1.64795,-145.107,380
1569667033,367.122,113.965,-16.5199,178.726,1.64795,-145.107,380
1569667033,367.122,113.965,-16.5199,178.726,1.64795,-145.129,380
1569667033,367.122,113.965,-16.5199,178.726,1.64795,-145.129,380
1569667033,367.122,113.965,-16.5199,178.726,1.64795,-145.129,380
1569667033,367.122,113.965,-16.5199,178.726,1.64795,-145.129,380
1569667033,367.122,113.965,-16.5199,178.726,1.64795,-145.129,380
1569667033,367.122,113.965,-16.5199,178.726,1.64795,-145.129,384
1569667033,367.122,113.965,-16.5199,178.726,1.64795,-145.129,384
1569667033,367.122,113.965,-16.5199,178.726,1.62598,-145.129,384
1569667033,367.122,113.965,-16.5199,178.726,1.62598,-145.129,384
1569667033,367.122,113.965,-16.5199,178.726,1.62598,-145.129,384
1569667033,367.122,113.965,-16.5199,178.726,1.62598,-145.129,384
1569667033,367.122,113.965,-16.5199,178.726,1.62598,-145.129,384
1569667033,367.122,113.965,-16.6315,178.726,1.604,-145.129,388
1569667033,367.01,113.965,-16.6315,178.726,1.604,-145.129,388
1569667033,367.01,113.965,-16.6315,178.726,1.604,-145.129,388
1569667033,367.01,113.965,-16.6315,178.726,1.604,-145.129,388
1569667033,367.01,113.965,-16.6315,178.726,1.604,-145.129,388
1569667033,367.01,113.965,-16.6315,178.726,1.604,-145.129,392
1569667033,367.122,113.965,-16.6315,178.726,1.604,-145.129,392
1569667033,367.122,113.965,-16.6315,178.726,1.604,-145.129,392
1569667033,367.122,113.965,-16.6315,178.726,1.604,-145.129,392
1569667034,367.122,113.965,-16.6315,178.726,1.604,-145.129,392
1569667034,367.122,113.965,-16.6315,178.726,1.604,-145.107,392
1569667034,367.122,113.965,-16.6315,178.726,1.604,-145.107,396
1569667034,367.122,113.965,-16.5199,178.726,1.604,-145.107,396
1569667034,367.122,113.965,-16.5199,178.726,1.604,-145.129,396
1569667034,367.122,113.965,-16.5199,178.726,1.604,-145.129,396
1569667034,367.01,113.965,-16.5199,178.726,1.62598,-145.129,396
1569667034,367.01,113.965,-16.5199,178.726,1.62598,-145.129,396
1569667034,367.01,113.965,-16.5199,178.726,1.62598,-145.129,396
1569667034,367.01,113.965,-16.5199,178.726,1.62598,-145.129,396
1569667034,367.01,113.965,-16.5199,178.726,1.62598,-145.129,396
1569667034,367.01,113.854,-16.4083,178.726,1.62598,-145.129,400
1569667034,367.01,113.854,-16.4083,178.726,1.62598,-145.129,400
1569667034,367.01,113.854,-16.4083,178.726,1.64795,-145.129,400
1569667034,367.01,113.854,-16.4083,178.726,1.64795,-145.129,400
1569667034,367.01,113.854,-16.4083,178.704,1.64795,-145.129,400
1569667034,367.01,113.854,-16.4083,178.704,1.64795,-145.129,400
1569667034,367.01,113.854,-16.4083,178.704,1.64795,-145.129,400
1569667034,367.01,113.854,-16.5199,178.704,1.62598,-145.129,400
1569667034,367.01,113.854,-16.5199,178.704,1.62598,-145.129,400
1569667034,367.01,113.854,-16.5199,178.704,1.62598,-145.129,400
1569667034,367.01,113.854,-16.5199,178.704,1.62598,-145.129,400
1569667034,367.01,113.854,-16.5199,178.726,1.62598,-145.129,400
1569667034,367.01,113.854,-16.5199,178.726,1.62598,-145.129,400
1569667034,367.01,113.854,-16.5199,178.726,1.62598,-145.129,400
1569667034,367.01,113.854,-16.5199,178.726,1.62598,-145.107,400
1569667034,367.01,113.854,-16.5199,178.726,1.62598,-145.107,400
1569667034,367.01,113.854,-16.5199,178.726,1.62598,-145.107,400
1569667034,367.01,113.854,-16.5199,178.726,1.62598,-145.107,400
1569667034,367.01,113.854,-16.5199,178.726,1.62598,-145.107,400
1569667034,367.01,113.854,-16.5199,178.726,1.62598,-145.107,400
1569667034,367.01,113.854,-16.5199,178.704,1.62598,-145.107,396
1569667034,367.01,113.854,-16.5199,178.704,1.62598,-145.107,396
1569667034,367.01,113.854,-16.5199,178.704,1.62598,-145.107,396
1569667034,367.01,113.854,-16.5199,178.704,1.62598,-145.107,396
1569667034,367.01,113.854,-16.5199,178.704,1.62598,-145.129,396
1569667034,367.01,113.854,-16.5199,178.704,1.62598,-145.129,396
1569667034,367.01,113.854,-16.5199,178.704,1.62598,-145.129,396
1569667034,367.01,113.854,-16.5199,178.704,1.62598,-145.129,392
1569667034,367.01,113.854,-16.5199,178.704,1.62598,-145.129,392
1569667034,367.01,113.854,-16.5199,178.704,1.62598,-145.129,392
1569667034,367.01,113.854,-16.5199,178.704,1.62598,-145.129,392
1569667034,367.01,113.854,-16.5199,178.704,1.64795,-145.129,392
1569667034,367.01,113.854,-16.4083,178.726,1.64795,-145.129,396
1569667034,367.01,113.854,-16.4083,178.726,1.64795,-145.129,396
1569667034,367.01,113.854,-16.4083,178.726,1.64795,-145.107,396
1569667034,367.01,113.854,-16.4083,178.726,1.64795,-145.107,396
1569667034,367.01,113.854,-16.4083,178.726,1.64795,-145.107,396
1569667034,367.01,113.965,-16.4083,178.726,1.64795,-145.107,396
1569667034,367.01,113.965,-16.5199,178.726,1.64795,-145.107,396
1569667034,367.01,113.965,-16.5199,178.726,1.64795,-145.107,400
1569667034,367.01,113.965,-16.5199,178.726,1.64795,-145.107,400
1569667034,367.01,113.965,-16.5199,178.726,1.62598,-145.107,400
1569667034,367.01,113.965,-16.5199,178.726,1.62598,-145.107,400
1569667034,367.01,113.965,-16.5199,178.726,1.62598,-145.107,400
1569667034,367.01,113.965,-16.5199,178.726,1.62598,-145.107,400
1569667034,367.01,113.854,-16.5199,178.726,1.62598,-145.107,400
1569667034,367.01,113.854,-16.5199,178.726,1.62598,-145.107,400
1569667034,367.01,113.854,-16.5199,178.726,1.62598,-145.107,400
1569667034,367.01,113.854,-16.5199,178.726,1.604,-145.107,404
1569667034,367.01,113.854,-16.5199,178.726,1.604,-145.107,404
1569667034,367.01,113.854,-16.5199,178.704,1.604,-145.107,404
1569667034,367.01,113.854,-16.6315,178.704,1.604,-145.107,404
1569667034,367.01,113.854,-16.6315,178.704,1.604,-145.107,404
1569667034,367.01,113.854,-16.6315,178.704,1.604,-145.107,404
1569667034,367.01,113.854,-16.6315,178.704,1.604,-145.107,404
1569667034,367.01,113.854,-16.6315,178.704,1.604,-145.107,404
1569667034,367.01,113.854,-16.6315,178.704,1.604,-145.107,404
1569667034,367.01,113.854,-16.6315,178.704,1.604,-145.107,404
1569667034,367.01,113.854,-16.6315,178.704,1.604,-145.107,404
1569667034,367.01,113.742,-16.6315,178.682,1.604,-145.107,404
1569667034,367.01,113.742,-16.6315,178.682,1.604,-145.107,404
1569667034,367.01,113.742,-16.6315,178.682,1.604,-145.107,404
1569667034,367.01,113.742,-16.6315,178.682,1.604,-145.107,404
1569667034,367.01,113.742,-16.6315,178.682,1.604,-145.107,404
1569667034,367.01,113.742,-16.6315,178.682,1.604,-145.107,400
1569667034,367.01,113.742,-16.6315,178.682,1.62598,-145.107,400
1569667034,367.01,113.742,-16.6315,178.682,1.62598,-145.107,400
1569667034,367.01,113.742,-16.5199,178.682,1.62598,-145.129,400
1569667034,367.01,113.742,-16.5199,178.682,1.62598,-145.129,400
1569667034,367.01,113.742,-16.5199,178.682,1.62598,-145.129,400
1569667034,367.01,113.742,-16.5199,178.682,1.62598,-145.129,400
1569667034,367.01,113.742,-16.5199,178.682,1.62598,-145.129,400
1569667034,367.01,113.742,-16.5199,178.682,1.604,-145.129,400
1569667034,367.01,113.742,-16.5199,178.682,1.604,-145.129,400
1569667034,367.01,113.742,-16.5199,178.682,1.604,-145.129,400
1569667034,367.01,113.742,-16.5199,178.682,1.604,-145.129,400
1569667034,367.01,113.742,-16.5199,178.682,1.604,-145.129,400
1569667034,367.01,113.742,-16.5199,178.682,1.604,-145.129,400
1569667034,367.01,113.742,-16.5199,178.682,1.604,-145.129,400
1569667034,367.01,113.742,-16.5199,178.682,1.604,-145.129,404
1569667034,367.01,113.742,-16.6315,178.682,1.604,-145.129,404
1569667034,367.01,113.742,-16.6315,178.682,1.604,-145.129,404
1569667034,367.01,113.742,-16.6315,178.682,1.604,-145.129,408
1569667034,367.01,113.742,-16.6315,178.682,1.604,-145.129,408
1569667034,367.01,113.742,-16.6315,178.682,1.604,-145.129,408
1569667034,367.01,113.742,-16.6315,178.682,1.604,-145.129,408
1569667034,367.01,113.742,-16.6315,178.682,1.604,-145.129,408
1569667034,367.01,113.742,-16.6315,178.682,1.604,-145.129,408
1569667034,367.01,113.742,-16.6315,178.682,1.604,-145.129,412
1569667035,367.01,113.742,-16.6315,178.682,1.604,-145.129,412
1569667035,367.01,113.742,-16.6315,178.682,1.604,-145.129,412
1569667035,367.01,113.742,-16.6315,178.682,1.604,-145.129,412
1569667035,367.01,113.742,-16.6315,178.682,1.604,-145.129,412
1569667035,367.01,113.742,-16.6315,178.682,1.604,-145.129,412
1569667035,367.01,113.742,-16.6315,178.682,1.604,-145.129,412
1569667035,367.01,113.742,-16.6315,178.682,1.604,-145.129,416
1569667035,367.01,113.742,-16.6315,178.682,1.604,-145.107,416
1569667035,367.01,113.742,-16.5199,178.682,1.604,-145.107,416
1569667035,367.01,113.742,-16.5199,178.682,1.604,-145.107,416
1569667035,367.01,113.742,-16.5199,178.682,1.604,-145.107,416
1569667035,367.01,113.742,-16.5199,178.682,1.604,-145.129,420
1569667035,367.01,113.742,-16.5199,178.682,1.604,-145.129,420
1569667035,367.01,113.742,-16.5199,178.682,1.604,-145.129,420
1569667035,367.01,113.742,-16.5199,178.682,1.62598,-145.129,420
1569667035,367.01,113.742,-16.5199,178.682,1.62598,-145.129,420
1569667035,367.01,113.742,-16.5199,178.682,1.62598,-145.129,420
1569667035,367.01,113.742,-16.5199,178.682,1.62598,-145.129,420
1569667035,367.01,113.742,-16.5199,178.682,1.62598,-145.129,420
1569667035,367.01,113.742,-16.5199,178.682,1.62598,-145.129,420
1569667035,367.01,113.742,-16.5199,178.682,1.62598,-145.129,416
1569667035,367.01,113.742,-16.5199,178.682,1.64795,-145.129,416
1569667035,367.01,113.742,-16.5199,178.682,1.64795,-145.129,416
1569667035,367.01,113.742,-16.4083,178.682,1.64795,-145.129,416
1569667035,367.01,113.854,-16.4083,178.682,1.64795,-145.129,416
1569667035,367.01,113.854,-16.4083,178.682,1.64795,-145.129,416
1569667035,367.01,113.854,-16.4083,178.682,1.64795,-145.129,416
1569667035,367.01,113.854,-16.4083,178.682,1.64795,-145.129,416
1569667035,367.01,113.854,-16.4083,178.704,1.64795,-145.129,416
1569667035,367.01,113.854,-16.4083,178.704,1.64795,-145.129,416
1569667035,367.01,113.854,-16.4083,178.704,1.64795,-145.129,416
1569667035,367.01,113.854,-16.4083,178.704,1.64795,-145.129,416
1569667035,367.01,113.854,-16.4083,178.704,1.64795,-145.129,412
1569667035,367.01,113.854,-16.4083,178.704,1.64795,-145.129,412
1569667035,367.01,113.854,-16.4083,178.704,1.64795,-145.129,412
1569667035,367.01,113.854,-16.5199,178.704,1.64795,-145.129,412
1569667035,367.01,113.854,-16.5199,178.704,1.64795,-145.129,412
1569667035,367.01,113.854,-16.5199,178.704,1.64795,-145.129,412
1569667035,367.01,113.854,-16.5199,178.704,1.64795,-145.129,408
1569667035,367.01,113.854,-16.5199,178.704,1.64795,-145.129,408
1569667035,367.122,113.854,-16.5199,178.704,1.64795,-145.129,408
1569667035,367.122,113.854,-16.5199,178.704,1.62598,-145.107,404
1569667035,367.122,113.742,-16.5199,178.682,1.62598,-145.107,404
1569667035,367.122,113.742,-16.5199,178.682,1.62598,-145.107,404
1569667035,367.122,113.742,-16.5199,178.682,1.62598,-145.107,400
1569667035,367.122,113.742,-16.5199,178.682,1.62598,-145.107,400
1569667035,367.122,113.742,-16.5199,178.704,1.62598,-145.107,396
1569667035,367.122,113.854,-16.5199,178.704,1.62598,-145.107,396
1569667035,367.122,113.854,-16.5199,178.704,1.62598,-145.107,396
1569667035,367.122,113.854,-16.5199,178.704,1.62598,-145.129,396
1569667035,367.122,113.854,-16.5199,178.704,1.62598,-145.129,392
1569667035,367.122,113.854,-16.5199,178.704,1.62598,-145.129,392
1569667035,367.122,113.854,-16.5199,178.704,1.62598,-145.129,392
1569667035,367.122,113.854,-16.5199,178.704,1.62598,-145.129,388
1569667035,367.122,113.854,-16.5199,178.704,1.62598,-145.129,388
1569667035,367.122,113.854,-16.5199,178.704,1.62598,-145.129,388
1569667035,367.122,113.854,-16.5199,178.704,1.62598,-145.129,388
1569667035,367.122,113.854,-16.5199,178.704,1.62598,-145.129,384
1569667035,367.122,113.854,-16.5199,178.704,1.62598,-145.129,384
1569667035,367.122,113.854,-16.5199,178.704,1.62598,-145.129,384
1569667035,367.122,113.854,-16.5199,178.704,1.62598,-145.129,384
1569667035,367.122,113.854,-16.5199,178.704,1.64795,-145.129,380
1569667035,367.122,113.854,-16.5199,178.704,1.64795,-145.129,380
1569667035,367.122,113.854,-16.5199,178.704,1.64795,-145.129,380
1569667035,367.122,113.854,-16.5199,178.704,1.64795,-145.129,380
1569667035,367.01,113.854,-16.4083,178.704,1.64795,-145.129,380
1569667035,367.01,113.854,-16.4083,178.704,1.64795,-145.129,380
1569667035,367.01,113.854,-16.4083,178.704,1.64795,-145.129,380
1569667035,367.01,113.854,-16.4083,178.704,1.64795,-145.129,380
1569667035,367.01,113.854,-16.4083,178.704,1.64795,-145.129,384
1569667035,367.01,113.854,-16.5199,178.704,1.64795,-145.129,384
1569667035,367.01,113.854,-16.5199,178.704,1.64795,-145.129,384
1569667035,367.01,113.854,-16.5199,178.704,1.64795,-145.129,388
1569667035,367.01,113.854,-16.5199,178.704,1.62598,-145.129,388
1569667035,367.01,113.854,-16.5199,178.704,1.62598,-145.129,388
1569667035,367.01,113.854,-16.5199,178.704,1.62598,-145.129,392
1569667035,367.01,113.854,-16.5199,178.704,1.62598,-145.129,392
1569667035,367.01,113.854,-16.5199,178.704,1.62598,-145.129,392
1569667035,367.01,113.854,-16.5199,178.704,1.62598,-145.129,396
1569667035,367.01,113.854,-16.5199,178.704,1.62598,-145.129,396
1569667035,367.01,113.854,-16.5199,178.704,1.62598,-145.129,396
1569667035,367.01,113.854,-16.5199,178.704,1.62598,-145.129,396
1569667035,367.01,113.854,-16.5199,178.704,1.62598,-145.129,396
1569667035,367.01,113.854,-16.5199,178.704,1.62598,-145.129,400
1569667035,367.01,113.854,-16.5199,178.704,1.62598,-145.129,400
1569667035,367.01,113.854,-16.5199,178.704,1.62598,-145.129,400
1569667035,367.01,113.854,-16.5199,178.704,1.62598,-145.129,400
1569667035,367.01,113.854,-16.5199,178.704,1.62598,-145.129,400
1569667035,367.01,113.854,-16.5199,178.704,1.62598,-145.129,400
1569667035,367.01,113.854,-16.5199,178.704,1.62598,-145.129,400
1569667035,367.01,113.854,-16.5199,178.704,1.62598,-145.129,400
1569667035,367.01,113.854,-16.5199,178.704,1.62598,-145.129,396
1569667035,367.01,113.854,-16.5199,178.704,1.62598,-145.129,396
1569667035,367.01,113.854,-16.5199,178.704,1.62598,-145.129,396
1569667035,367.01,113.854,-16.5199,178.704,1.62598,-145.129,396
1569667035,367.01,113.854,-16.5199,178.704,1.62598,-145.129,396
1569667035,367.01,113.854,-16.5199,178.704,1.62598,-145.129,400
1569667035,367.01,113.854,-16.5199,178.704,1.62598,-145.129,400
1569667035,367.01,113.854,-16.5199,178.704,1.62598,-145.129,400
1569667035,367.01,113.854,-16.5199,178.682,1.62598,-145.129,400
1569667036,367.01,113.854,-16.5199,178.682,1.62598,-145.129,400
1569667036,367.01,113.854,-16.5199,178.682,1.62598,-145.129,404
1569667036,367.01,113.742,-16.5199,178.682,1.62598,-145.129,404
1569667036,367.01,113.742,-16.5199,178.682,1.62598,-145.129,404
1569667036,367.01,113.742,-16.5199,178.682,1.62598,-145.129,404
1569667036,367.01,113.742,-16.5199,178.682,1.62598,-145.129,404
1569667036,367.01,113.742,-16.5199,178.682,1.62598,-145.129,408
1569667036,367.01,113.742,-16.5199,178.682,1.62598,-145.129,408
1569667036,367.01,113.742,-16.5199,178.682,1.62598,-145.129,408
1569667036,367.01,113.742,-16.5199,178.682,1.62598,-145.129,408
1569667036,367.01,113.742,-16.5199,178.682,1.62598,-145.129,408
1569667036,367.01,113.742,-16.5199,178.66,1.62598,-145.129,412
1569667036,367.01,113.742,-16.5199,178.66,1.62598,-145.129,412
1569667036,367.01,113.742,-16.5199,178.66,1.62598,-145.129,412
1569667036,367.01,113.742,-16.5199,178.66,1.62598,-145.129,412
1569667036,367.01,113.742,-16.5199,178.66,1.62598,-145.129,412
1569667036,367.01,113.742,-16.5199,178.682,1.62598,-145.129,412
1569667036,367.01,113.742,-16.5199,178.682,1.62598,-145.129,412
1569667036,367.01,113.742,-16.5199,178.682,1.62598,-145.129,416
1569667036,367.01,113.742,-16.5199,178.682,1.62598,-145.129,416
1569667036,367.01,113.742,-16.5199,178.682,1.62598,-145.129,416
1569667036,367.01,113.742,-16.5199,178.682,1.62598,-145.129,416
1569667036,367.01,113.854,-16.5199,178.682,1.62598,-145.129,416
1569667036,367.01,113.854,-16.5199,178.682,1.62598,-145.129,416
1569667036,367.01,113.854,-16.5199,178.682,1.62598,-145.129,416
1569667036,367.01,113.854,-16.5199,178.704,1.62598,-145.129,416
1569667036,367.01,113.854,-16.5199,178.704,1.62598,-145.129,416
1569667036,367.01,113.854,-16.5199,178.704,1.62598,-145.129,416
1569667036,367.01,113.854,-16.5199,178.704,1.62598,-145.129,416
1569667036,367.01,113.854,-16.5199,178.704,1.62598,-145.129,416
1569667036,367.01,113.854,-16.5199,178.704,1.62598,-145.129,416
1569667036,367.01,113.854,-16.5199,178.704,1.62598,-145.129,416
1569667036,367.01,113.854,-16.5199,178.704,1.62598,-145.129,420
1569667036,367.01,113.854,-16.5199,178.704,1.62598,-145.129,420
1569667036,367.01,113.854,-16.5199,178.704,1.62598,-145.129,420
1569667036,367.01,113.854,-16.5199,178.704,1.62598,-145.129,420
1569667036,367.01,113.854,-16.5199,178.704,1.62598,-145.129,420
1569667036,367.01,113.854,-16.5199,178.704,1.62598,-145.129,420
1569667036,367.01,113.854,-16.5199,178.704,1.62598,-145.129,420
1569667036,367.01,113.854,-16.5199,178.704,1.62598,-145.129,420
1569667036,367.01,113.854,-16.5199,178.704,1.62598,-145.129,420
1569667036,367.01,113.854,-16.5199,178.704,1.62598,-145.129,420
1569667036,367.01,113.854,-16.5199,178.704,1.62598,-145.129,420
1569667036,367.01,113.854,-16.5199,178.704,1.62598,-145.129,420
1569667036,367.01,113.854,-16.5199,178.704,1.62598,-145.129,420
1569667036,367.01,113.854,-16.5199,178.704,1.62598,-145.129,416
1569667036,367.01,113.854,-16.5199,178.704,1.62598,-145.129,416
1569667036,367.01,113.854,-16.5199,178.704,1.62598,-145.129,416
1569667036,367.01,113.854,-16.5199,178.704,1.62598,-145.129,416
1569667036,367.01,113.854,-16.5199,178.704,1.62598,-145.129,416
1569667036,367.01,113.854,-16.5199,178.726,1.62598,-145.129,412
1569667036,367.01,113.854,-16.5199,178.726,1.62598,-145.129,412
1569667036,367.01,113.854,-16.5199,178.726,1.62598,-145.129,412
1569667036,367.01,113.965,-16.5199,178.726,1.62598,-145.129,412
1569667036,367.01,113.965,-16.5199,178.726,1.62598,-145.129,412
1569667036,367.01,113.965,-16.5199,178.726,1.62598,-145.129,412
1569667036,367.01,113.965,-16.5199,178.726,1.62598,-145.129,412
1569667036,367.01,113.965,-16.5199,178.726,1.62598,-145.129,412
1569667036,367.01,113.965,-16.5199,178.726,1.62598,-145.129,408
1569667036,367.01,113.965,-16.5199,178.726,1.62598,-145.129,408
1569667036,367.01,113.965,-16.5199,178.726,1.604,-145.129,408
1569667036,367.01,113.965,-16.5199,178.726,1.604,-145.129,408
1569667036,367.01,113.965,-16.6315,178.726,1.604,-145.129,404
1569667036,367.01,113.965,-16.6315,178.726,1.604,-145.129,404
1569667036,367.01,113.965,-16.6315,178.726,1.604,-145.129,404
1569667036,367.01,113.965,-16.6315,178.748,1.604,-145.129,404
1569667036,367.01,113.965,-16.6315,178.748,1.604,-145.129,404
1569667036,367.01,113.965,-16.6315,178.748,1.604,-145.129,400
1569667036,367.01,113.965,-16.6315,178.748,1.604,-145.129,400
1569667036,367.01,113.965,-16.6315,178.748,1.604,-145.129,400
1569667036,367.01,113.965,-16.6315,178.748,1.604,-145.129,400
1569667036,367.01,113.965,-16.6315,178.748,1.58203,-145.129,400
1569667036,367.01,113.965,-16.6315,178.748,1.58203,-145.129,400
1569667036,367.01,113.965,-16.6315,178.748,1.58203,-145.129,400
1569667036,367.01,113.965,-16.6315,178.748,1.58203,-145.129,400
1569667036,367.01,114.077,-16.6315,178.748,1.58203,-145.129,400
1569667036,367.01,114.077,-16.6315,178.748,1.58203,-145.129,400
1569667036,367.01,114.077,-16.6315,178.748,1.58203,-145.129,400
1569667036,367.01,114.077,-16.7432,178.748,1.58203,-145.129,400
1569667036,367.01,114.077,-16.7432,178.748,1.58203,-145.129,404
1569667036,367.01,114.077,-16.7432,178.748,1.58203,-145.107,404
1569667036,367.01,114.077,-16.7432,178.748,1.58203,-145.107,404
1569667036,367.01,114.077,-16.7432,178.748,1.58203,-145.107,404
1569667036,367.01,113.965,-16.7432,178.748,1.58203,-145.107,408
1569667036,367.01,113.965,-16.7432,178.748,1.58203,-145.107,408
1569667036,367.01,113.965,-16.7432,178.726,1.58203,-145.107,408
1569667036,367.01,113.965,-16.7432,178.726,1.58203,-145.107,412
1569667036,367.01,113.965,-16.7432,178.726,1.58203,-145.107,412
1569667036,367.01,113.965,-16.7432,178.726,1.58203,-145.129,412
1569667036,367.01,113.965,-16.6315,178.726,1.58203,-145.129,412
1569667036,367.01,113.965,-16.6315,178.726,1.58203,-145.129,416
1569667036,367.01,113.965,-16.6315,178.726,1.58203,-145.129,416
1569667036,367.01,113.965,-16.6315,178.726,1.58203,-145.129,416
1569667036,367.01,113.965,-16.6315,178.726,1.58203,-145.129,416
1569667036,367.01,113.965,-16.6315,178.726,1.58203,-145.129,416
1569667036,367.01,113.965,-16.6315,178.726,1.58203,-145.129,416
1569667036,367.01,113.965,-16.6315,178.726,1.58203,-145.129,416
1569667036,367.01,113.965,-16.6315,178.726,1.58203,-145.129,416
1569667036,367.01,113.965,-16.7432,178.726,1.58203,-145.129,416
1569667036,367.01,113.965,-16.6315,178.726,1.58203,-145.129,416
1569667037,367.01,113.965,-16.6315,178.726,1.58203,-145.129,416
1569667037,367.01,113.965,-16.6315,178.726,1.58203,-145.129,416
1569667037,367.01,113.854,-16.6315,178.726,1.58203,-145.129,416
1569667037,367.01,113.854,-16.6315,178.726,1.58203,-145.129,416
1569667037,367.01,113.854,-16.6315,178.726,1.58203,-145.129,416
1569667037,367.01,113.854,-16.6315,178.726,1.58203,-145.129,412
1569667037,367.01,113.854,-16.6315,178.726,1.58203,-145.129,412
1569667037,367.01,113.854,-16.6315,178.726,1.58203,-145.129,412
1569667037,367.01,113.854,-16.6315,178.726,1.58203,-145.129,408
1569667037,367.01,113.854,-16.6315,178.726,1.58203,-145.129,408
1569667037,367.01,113.854,-16.6315,178.726,1.58203,-145.129,404
1569667037,367.01,113.854,-16.6315,178.726,1.58203,-145.129,404
1569667041,328.501,154.93,-16.9664,178.682,1.27441,-145.107,328
1569667041,328.501,154.93,-16.9664,178.682,1.27441,-145.107,328
1569667041,328.501,154.93,-16.9664,178.682,1.27441,-145.107,328
1569667041,328.501,154.93,-16.9664,178.682,1.27441,-145.107,332
1569667041,328.501,154.93,-16.9664,178.682,1.27441,-145.107,332
1569667041,328.501,154.93,-16.9664,178.682,1.27441,-145.107,332
1569667041,328.501,154.93,-16.9664,178.682,1.27441,-145.107,332
1569667041,328.501,154.93,-16.9664,178.682,1.27441,-145.107,332
1569667041,328.501,154.93,-16.9664,178.682,1.27441,-145.085,332
1569667041,328.612,154.93,-16.9664,178.704,1.27441,-145.085,332
1569667041,328.612,154.93,-16.9664,178.704,1.27441,-145.085,332
1569667041,328.612,154.93,-16.9664,178.704,1.27441,-145.085,332
1569667041,328.612,154.93,-16.9664,178.704,1.27441,-145.085,328
1569667041,328.612,154.93,-16.9664,178.704,1.27441,-145.085,328
1569667041,328.612,154.93,-16.9664,178.704,1.27441,-145.085,328
1569667041,328.612,155.042,-16.9664,178.704,1.27441,-145.085,328
1569667041,328.612,155.042,-16.9664,178.704,1.27441,-145.085,328
1569667041,328.612,155.042,-16.9664,178.704,1.27441,-145.085,328
1569667041,328.612,155.042,-16.9664,178.704,1.27441,-145.085,324
1569667041,328.612,155.042,-16.9664,178.704,1.29639,-145.085,324
1569667041,328.612,154.93,-16.9664,178.704,1.29639,-145.085,324
1569667041,328.612,154.93,-16.9664,178.704,1.29639,-145.107,320
1569667041,328.612,154.93,-16.9664,178.682,1.29639,-145.107,320
1569667041,328.612,154.93,-16.9664,178.682,1.29639,-145.107,320
1569667041,328.612,154.93,-16.9664,178.682,1.29639,-145.107,320
1569667041,328.612,154.93,-16.9664,178.682,1.29639,-145.107,320
1569667041,328.612,154.93,-16.9664,178.682,1.29639,-145.107,320
1569667041,328.612,154.93,-16.9664,178.682,1.29639,-145.107,320
1569667041,328.612,154.93,-16.9664,178.682,1.29639,-145.107,320
1569667041,328.612,154.93,-16.9664,178.682,1.27441,-145.107,320
1569667041,328.612,154.93,-16.9664,178.682,1.27441,-145.107,320
1569667041,328.612,154.93,-16.9664,178.682,1.27441,-145.107,320
1569667041,328.612,154.93,-16.9664,178.682,1.27441,-145.107,320
1569667041,328.612,154.93,-16.9664,178.682,1.27441,-145.107,320
1569667041,328.612,154.93,-16.9664,178.682,1.27441,-145.107,320
1569667041,328.612,154.93,-16.9664,178.682,1.27441,-145.107,324
1569667041,328.612,154.93,-16.9664,178.682,1.27441,-145.107,324
1569667041,328.612,154.93,-16.9664,178.682,1.27441,-145.107,324
1569667041,328.612,154.93,-16.9664,178.66,1.27441,-145.107,324
1569667041,328.612,154.93,-16.9664,178.66,1.27441,-145.107,324
1569667041,328.612,154.93,-16.9664,178.66,1.29639,-145.107,328
1569667041,328.612,154.93,-16.9664,178.66,1.29639,-145.107,328
1569667041,328.612,154.93,-16.9664,178.66,1.29639,-145.107,328
1569667041,328.612,154.93,-16.9664,178.682,1.29639,-145.107,328
1569667041,328.612,154.93,-16.8548,178.682,1.29639,-145.107,328
1569667041,328.612,154.93,-16.8548,178.682,1.29639,-145.107,328
1569667041,328.612,154.93,-16.8548,178.682,1.29639,-145.107,328
1569667041,328.612,154.93,-16.8548,178.682,1.29639,-145.107,328
1569667041,328.612,154.93,-16.8548,178.682,1.29639,-145.085,328
1569667041,328.612,154.93,-16.8548,178.682,1.29639,-145.085,328
1569667041,328.612,155.042,-16.8548,178.682,1.29639,-145.085,328
1569667041,328.612,155.042,-16.9664,178.704,1.29639,-145.085,328
1569667041,328.501,155.042,-16.9664,178.704,1.29639,-145.085,328
1569667041,328.501,155.042,-16.9664,178.704,1.29639,-145.085,328
1569667041,328.501,155.042,-16.9664,178.704,1.27441,-145.085,328
1569667041,328.501,155.042,-16.9664,178.704,1.27441,-145.085,328
1569667041,328.501,155.042,-16.9664,178.704,1.27441,-145.085,328
1569667041,328.501,155.042,-16.9664,178.704,1.27441,-145.085,328
1569667041,328.501,155.042,-16.9664,178.704,1.27441,-145.085,324
1569667041,328.501,154.93,-16.9664,178.682,1.27441,-145.085,324
1569667041,328.501,154.93,-16.9664,178.682,1.27441,-145.085,324
1569667041,328.501,154.93,-16.9664,178.682,1.27441,-145.085,324
1569667041,328.501,154.93,-16.9664,178.682,1.27441,-145.107,324
1569667041,328.501,154.93,-16.9664,178.682,1.27441,-145.107,328
1569667041,328.501,154.93,-16.9664,178.682,1.27441,-145.107,328
1569667041,328.501,154.93,-16.9664,178.682,1.27441,-145.107,328
1569667041,328.501,154.93,-16.9664,178.682,1.27441,-145.107,328
1569667041,328.501,154.93,-16.9664,178.682,1.27441,-145.107,328
1569667041,328.501,154.93,-16.9664,178.682,1.27441,-145.107,328
1569667041,328.501,154.93,-16.9664,178.682,1.27441,-145.107,328
1569667041,328.501,154.93,-16.9664,178.682,1.25244,-145.107,328
1569667041,328.501,154.93,-16.9664,178.682,1.25244,-145.107,332
1569667041,328.501,154.93,-16.9664,178.682,1.25244,-145.107,332
1569667041,328.501,154.93,-16.9664,178.682,1.25244,-145.107,332
1569667041,328.501,154.93,-16.9664,178.682,1.27441,-145.107,332
1569667042,328.501,154.93,-16.9664,178.682,1.27441,-145.107,332
1569667042,328.501,154.93,-16.9664,178.682,1.27441,-145.107,332
1569667042,328.501,154.93,-16.9664,178.682,1.27441,-145.107,332
1569667042,328.501,154.93,-16.9664,178.682,1.27441,-145.107,332
1569667042,328.501,154.93,-16.9664,178.682,1.27441,-145.107,332
1569667042,328.501,154.93,-16.9664,178.682,1.27441,-145.107,332
1569667042,328.501,154.93,-16.9664,178.682,1.27441,-145.107,332
1569667042,328.501,154.93,-16.9664,178.682,1.27441,-145.107,332
1569667042,328.501,154.93,-16.9664,178.682,1.27441,-145.107,332
1569667042,328.501,154.93,-16.9664,178.682,1.27441,-145.107,332
1569667042,328.501,154.93,-16.9664,178.682,1.27441,-145.107,332
1569667042,328.501,154.93,-16.9664,178.682,1.27441,-145.107,332
1569667042,328.501,154.93,-16.9664,178.682,1.27441,-145.107,332
1569667042,328.501,154.93,-16.9664,178.682,1.27441,-145.107,332
1569667042,328.501,154.93,-16.9664,178.682,1.27441,-145.107,332
1569667042,328.501,154.93,-16.9664,178.682,1.27441,-145.107,332
1569667042,328.501,154.93,-16.9664,178.682,1.27441,-145.107,332
1569667042,328.501,154.93,-16.9664,178.682,1.27441,-145.107,332
1569667042,328.501,154.93,-16.9664,178.682,1.27441,-145.107,332
1569667042,328.501,154.93,-16.9664,178.682,1.27441,-145.107,332
1569667042,328.501,154.93,-16.9664,178.682,1.27441,-145.107,332
1569667042,328.501,154.93,-16.9664,178.682,1.27441,-145.107,332
1569667042,328.501,154.93,-16.9664,178.682,1.27441,-145.107,332
1569667042,328.501,154.93,-16.9664,178.704,1.27441,-145.107,332
1569667042,328.501,154.93,-16.9664,178.704,1.25244,-145.107,332
1569667042,328.501,154.93,-16.9664,178.704,1.25244,-145.107,332
1569667042,328.501,154.93,-16.9664,178.704,1.25244,-145.107,332
1569667042,328.501,154.93,-17.078,178.704,1.25244,-145.107,332
1569667042,328.501,154.93,-17.078,178.704,1.25244,-145.107,332
1569667042,328.501,154.93,-17.078,178.704,1.25244,-145.107,332
1569667042,328.501,154.93,-17.078,178.704,1.25244,-145.107,332
1569667042,328.501,154.93,-17.078,178.704,1.25244,-145.107,336
1569667042,328.501,154.93,-17.078,178.704,1.25244,-145.107,336
1569667042,328.501,154.93,-16.9664,178.704,1.25244,-145.107,336
1569667042,328.501,154.93,-16.9664,178.704,1.25244,-145.107,336
1569667042,328.501,154.93,-16.9664,178.704,1.27441,-145.107,336
1569667042,328.501,154.93,-16.9664,178.704,1.27441,-145.107,340
1569667042,328.501,154.93,-16.9664,178.704,1.27441,-145.107,340
1569667042,328.501,154.93,-16.9664,178.704,1.27441,-145.107,340
1569667042,328.501,154.93,-16.9664,178.682,1.27441,-145.107,340
1569667042,328.501,154.93,-16.9664,178.682,1.27441,-145.107,340
1569667042,328.501,154.93,-16.9664,178.682,1.27441,-145.107,340
1569667042,328.501,154.93,-16.9664,178.682,1.27441,-145.107,340
1569667042,328.501,154.93,-16.9664,178.682,1.27441,-145.107,340
1569667042,328.612,154.93,-16.9664,178.682,1.27441,-145.107,340
1569667042,328.501,154.93,-16.9664,178.682,1.27441,-145.107,340
1569667042,328.501,154.93,-16.9664,178.682,1.27441,-145.107,340
1569667042,328.501,154.93,-16.9664,178.682,1.27441,-145.107,340
1569667042,328.501,154.93,-16.9664,178.682,1.27441,-145.107,344
1569667042,328.501,154.93,-16.9664,178.682,1.27441,-145.107,344
1569667042,328.501,154.818,-16.9664,178.682,1.27441,-145.107,344
1569667042,328.501,154.818,-16.9664,178.66,1.27441,-145.107,344
1569667042,328.501,154.818,-16.9664,178.66,1.27441,-145.107,348
1569667042,328.501,154.818,-16.9664,178.66,1.27441,-145.107,348
1569667042,328.501,154.818,-16.9664,178.66,1.27441,-145.107,348
1569667042,328.501,154.818,-16.9664,178.66,1.27441,-145.107,348
1569667042,328.501,154.818,-16.9664,178.66,1.27441,-145.107,348
1569667042,328.501,154.818,-16.9664,178.66,1.27441,-145.107,352
1569667042,328.501,154.818,-16.9664,178.66,1.29639,-145.107,352
1569667042,328.501,154.818,-16.9664,178.66,1.29639,-145.107,352
1569667042,328.501,154.818,-16.9664,178.66,1.29639,-145.107,352
1569667042,328.501,154.93,-16.9664,178.682,1.29639,-145.107,352
1569667042,328.501,154.93,-16.9664,178.682,1.27441,-145.107,352
1569667042,328.501,154.93,-16.9664,178.682,1.27441,-145.107,352
1569667042,328.501,154.93,-16.9664,178.682,1.27441,-145.107,352
1569667042,328.501,154.93,-16.9664,178.682,1.27441,-145.107,352
1569667042,328.501,154.93,-16.9664,178.682,1.27441,-145.107,352
1569667042,328.501,154.93,-16.9664,178.682,1.27441,-145.107,352
1569667042,328.501,154.93,-16.9664,178.682,1.27441,-145.107,348
1569667042,328.501,154.93,-16.9664,178.682,1.27441,-145.107,348
1569667042,328.501,154.93,-16.9664,178.682,1.27441,-145.107,348
1569667042,328.501,154.93,-16.9664,178.682,1.27441,-145.107,348
1569667042,328.501,154.93,-16.9664,178.682,1.27441,-145.107,348
1569667042,328.501,154.93,-16.9664,178.682,1.27441,-145.107,344
1569667042,328.501,154.93,-16.9664,178.682,1.27441,-145.107,344
1569667042,328.501,154.93,-16.9664,178.682,1.27441,-145.107,344
1569667042,328.501,154.93,-16.9664,178.682,1.27441,-145.107,344
1569667042,328.501,154.93,-16.9664,178.682,1.27441,-145.085,344
1569667042,328.501,154.93,-16.9664,178.682,1.27441,-145.085,340
1569667042,328.501,154.93,-16.9664,178.682,1.27441,-145.085,340
1569667042,328.501,154.93,-16.9664,178.682,1.29639,-145.085,340
1569667042,328.501,154.93,-16.9664,178.682,1.29639,-145.085,340
1569667042,328.501,154.93,-16.9664,178.682,1.29639,-145.085,340
1569667042,328.501,154.93,-16.9664,178.682,1.29639,-145.107,340
1569667042,328.501,154.93,-16.9664,178.682,1.29639,-145.107,340
1569667042,328.501,154.93,-16.9664,178.682,1.29639,-145.107,340
1569667042,328.501,154.93,-16.9664,178.682,1.29639,-145.107,340
1569667042,328.501,154.93,-16.9664,178.682,1.29639,-145.107,340
1569667042,328.501,154.93,-16.9664,178.682,1.29639,-145.107,340
1569667042,328.501,154.93,-16.9664,178.682,1.29639,-145.107,340
1569667042,328.501,154.93,-16.9664,178.682,1.27441,-145.107,340
1569667042,328.501,154.93,-16.9664,178.682,1.27441,-145.107,340
1569667042,328.501,154.93,-16.9664,178.682,1.27441,-145.107,340
1569667042,328.501,154.93,-16.9664,178.682,1.29639,-145.107,340
1569667042,328.501,154.93,-16.9664,178.682,1.29639,-145.107,340
1569667042,328.501,154.93,-16.9664,178.682,1.29639,-145.107,340
1569667042,328.501,154.93,-16.9664,178.682,1.29639,-145.107,340
1569667042,328.501,154.93,-16.9664,178.682,1.29639,-145.107,340
1569667042,328.501,154.93,-16.8548,178.682,1.29639,-145.107,344
1569667042,328.501,154.93,-16.8548,178.682,1.29639,-145.107,344
1569667043,328.501,154.93,-16.8548,178.682,1.29639,-145.107,344
1569667043,328.501,154.93,-16.8548,178.682,1.29639,-145.107,344
1569667043,328.501,154.93,-16.8548,178.682,1.29639,-145.107,344
1569667043,328.501,154.93,-16.8548,178.682,1.29639,-145.107,344
1569667043,328.501,154.93,-16.8548,178.682,1.29639,-145.107,344
1569667043,328.501,154.93,-16.8548,178.682,1.29639,-145.107,344
1569667043,328.501,154.93,-16.8548,178.682,1.29639,-145.107,340
1569667043,328.501,154.93,-16.9664,178.682,1.29639,-145.107,340
1569667043,328.501,154.93,-16.9664,178.682,1.29639,-145.107,340
1569667043,328.501,154.93,-16.9664,178.682,1.29639,-145.107,340
1569667043,328.501,154.93,-16.9664,178.682,1.29639,-145.107,340
1569667043,328.501,154.93,-16.9664,178.682,1.27441,-145.085,340
1569667043,328.501,154.93,-16.9664,178.682,1.27441,-145.085,340
1569667043,328.501,154.93,-16.9664,178.682,1.27441,-145.085,336
1569667043,328.501,154.93,-16.9664,178.682,1.27441,-145.085,336
1569667043,328.501,154.93,-16.9664,178.682,1.27441,-145.085,336
1569667043,328.501,154.93,-16.9664,178.682,1.27441,-145.085,336
1569667043,328.612,154.93,-16.9664,178.682,1.27441,-145.085,336
1569667043,328.612,154.93,-17.078,178.682,1.25244,-145.085,332
1569667043,328.612,154.93,-17.078,178.682,1.25244,-145.085,332
1569667043,328.501,154.93,-17.078,178.682,1.25244,-145.085,332
1569667043,328.501,154.93,-17.078,178.682,1.25244,-145.085,332
1569667043,328.501,154.93,-17.078,178.682,1.25244,-145.085,332
1569667043,328.501,154.93,-17.078,178.682,1.25244,-145.085,332
1569667043,328.501,154.93,-16.9664,178.682,1.25244,-145.085,332
1569667043,328.501,154.93,-16.9664,178.682,1.25244,-145.085,332
1569667043,328.501,154.93,-16.9664,178.682,1.25244,-145.085,332
1569667043,328.501,154.93,-16.9664,178.682,1.25244,-145.085,332
1569667043,328.501,154.93,-17.078,178.682,1.25244,-145.085,336
1569667043,328.501,154.93,-17.078,178.682,1.25244,-145.085,336
1569667043,328.501,154.93,-17.078,178.682,1.25244,-145.085,336
1569667043,328.501,154.93,-17.078,178.704,1.25244,-145.085,336
1569667043,328.501,154.93,-17.078,178.704,1.25244,-145.085,336
1569667043,328.501,154.93,-17.078,178.704,1.25244,-145.085,336
1569667043,328.501,154.93,-17.078,178.704,1.25244,-145.085,336
1569667043,328.501,154.93,-17.078,178.704,1.25244,-145.085,336
1569667043,328.501,154.93,-17.078,178.704,1.25244,-145.085,336
1569667043,328.501,154.93,-17.078,178.704,1.25244,-145.085,336
1569667043,328.501,154.93,-17.078,178.704,1.25244,-145.085,340
1569667043,328.501,154.93,-17.078,178.704,1.25244,-145.085,340
1569667043,328.501,154.93,-16.9664,178.704,1.25244,-145.085,340
1569667043,328.501,154.93,-16.9664,178.704,1.25244,-145.085,340
1569667043,328.501,154.93,-16.9664,178.704,1.27441,-145.085,340
1569667043,328.501,154.93,-16.9664,178.704,1.27441,-145.085,340
1569667043,328.501,154.93,-16.9664,178.704,1.27441,-145.085,340
1569667043,328.501,154.93,-16.9664,178.704,1.27441,-145.085,340
1569667043,328.501,154.93,-16.9664,178.704,1.27441,-145.085,340
1569667043,328.501,154.93,-16.9664,178.704,1.27441,-145.085,340
1569667043,328.501,154.93,-16.9664,178.704,1.27441,-145.085,336
1569667043,328.501,155.042,-16.9664,178.704,1.27441,-145.085,336
1569667043,328.501,154.93,-16.9664,178.704,1.27441,-145.107,336
1569667043,328.501,154.93,-16.9664,178.704,1.27441,-145.107,336
1569667043,328.501,154.93,-16.9664,178.704,1.27441,-145.107,336
1569667043,328.501,154.93,-16.9664,178.704,1.29639,-145.107,332
1569667043,328.501,154.93,-16.9664,178.704,1.29639,-145.107,332
1569667043,328.501,154.93,-16.8548,178.704,1.29639,-145.107,332
1569667043,328.501,154.93,-16.8548,178.704,1.29639,-145.107,332
1569667043,328.501,154.93,-16.8548,178.704,1.29639,-145.107,332
1569667043,328.501,154.93,-16.8548,178.704,1.29639,-145.107,332
1569667043,328.501,155.042,-16.8548,178.704,1.29639,-145.107,328
1569667043,328.501,155.042,-16.8548,178.704,1.29639,-145.107,328
1569667043,328.501,155.042,-16.8548,178.704,1.29639,-145.107,328
1569667043,328.501,155.042,-16.8548,178.704,1.29639,-145.107,328
1569667043,328.501,155.042,-16.8548,178.704,1.29639,-145.107,328
1569667043,328.501,155.042,-16.8548,178.704,1.29639,-145.107,328
1569667043,328.501,155.042,-16.8548,178.704,1.29639,-145.107,328
1569667043,328.501,155.042,-16.8548,178.704,1.29639,-145.107,328
1569667043,328.501,155.042,-16.8548,178.704,1.29639,-145.107,328
1569667043,328.501,155.042,-16.8548,178.704,1.29639,-145.107,328
1569667043,328.501,155.042,-16.8548,178.704,1.29639,-145.107,324
1569667043,328.501,155.042,-16.8548,178.704,1.29639,-145.107,324
1569667043,328.501,155.042,-16.8548,178.704,1.29639,-145.107,324
1569667043,328.501,155.042,-16.8548,178.704,1.29639,-145.107,324
1569667043,328.501,155.042,-16.8548,178.704,1.29639,-145.107,324
1569667043,328.501,155.042,-16.8548,178.704,1.29639,-145.107,324
1569667043,328.501,155.042,-16.8548,178.704,1.29639,-145.107,324
1569667043,328.501,154.93,-16.8548,178.704,1.29639,-145.107,324
1569667043,328.501,154.93,-16.8548,178.704,1.29639,-145.107,324
1569667043,328.501,154.93,-16.8548,178.704,1.29639,-145.107,328
1569667043,328.501,154.93,-16.8548,178.704,1.29639,-145.107,328
1569667043,328.501,154.93,-16.8548,178.682,1.29639,-145.107,328
1569667043,328.501,154.93,-16.8548,178.682,1.29639,-145.107,328
1569667043,328.501,154.93,-16.8548,178.682,1.29639,-145.107,328
1569667043,328.501,154.93,-16.9664,178.682,1.29639,-145.107,332
1569667043,328.501,154.93,-16.9664,178.682,1.29639,-145.107,332
1569667043,328.501,154.93,-16.9664,178.682,1.29639,-145.107,332
1569667043,328.501,154.93,-16.9664,178.682,1.29639,-145.107,332
1569667043,328.501,154.93,-16.9664,178.682,1.29639,-145.107,332
1569667043,328.501,154.93,-16.9664,178.682,1.29639,-145.107,332
1569667043,328.501,154.93,-16.9664,178.682,1.29639,-145.107,332
1569667043,328.501,154.93,-16.9664,178.682,1.29639,-145.107,332
1569667043,328.501,154.93,-16.9664,178.682,1.29639,-145.107,332
1569667043,328.501,154.93,-16.9664,178.682,1.29639,-145.107,332
1569667043,328.501,154.93,-16.9664,178.682,1.29639,-145.107,332
1569667043,328.501,154.93,-16.9664,178.682,1.29639,-145.107,332
1569667043,328.501,154.93,-16.9664,178.682,1.29639,-145.107,332
1569667043,328.501,154.93,-16.8548,178.704,1.29639,-145.107,332
1569667043,328.501,154.93,-16.8548,178.704,1.29639,-145.107,332
1569667043,328.501,154.93,-16.8548,178.704,1.29639,-145.107,328
1569667043,328.501,154.93,-16.8548,178.704,1.29639,-145.107,328
1569667044,328.501,155.042,-16.8548,178.704,1.29639,-145.107,328
1569667044,328.501,155.042,-16.8548,178.704,1.29639,-145.107,328
1569667044,328.501,155.042,-16.8548,178.704,1.29639,-145.107,328
1569667044,328.501,155.042,-16.8548,178.704,1.29639,-145.107,328
1569667044,328.501,155.042,-16.8548,178.704,1.29639,-145.107,328
1569667044,328.501,155.042,-16.8548,178.704,1.29639,-145.107,328
1569667044,328.501,155.042,-16.8548,178.704,1.29639,-145.107,328
1569667044,328.501,155.042,-16.8548,178.704,1.29639,-145.107,328
1569667044,328.501,155.042,-16.8548,178.704,1.29639,-145.129,328
1569667044,328.501,155.042,-16.8548,178.704,1.29639,-145.129,328
1569667044,328.501,155.042,-16.8548,178.704,1.29639,-145.129,328
1569667044,328.501,155.042,-16.8548,178.704,1.29639,-145.129,324
1569667044,328.501,155.042,-16.8548,178.704,1.29639,-145.129,324
1569667044,328.501,155.042,-16.8548,178.704,1.29639,-145.129,324
1569667044,328.501,155.042,-16.8548,178.704,1.29639,-145.129,324
1569667044,328.501,155.042,-16.8548,178.704,1.29639,-145.129,324
1569667044,328.501,155.042,-16.8548,178.704,1.29639,-145.107,324
1569667044,328.501,155.042,-16.8548,178.704,1.29639,-145.107,324
1569667044,328.501,155.042,-16.8548,178.704,1.29639,-145.107,324
1569667044,328.501,155.042,-16.8548,178.704,1.29639,-145.107,324
1569667044,328.501,155.042,-16.8548,178.704,1.29639,-145.107,324
1569667044,328.501,155.042,-16.8548,178.704,1.29639,-145.107,324
1569667044,328.501,155.042,-16.8548,178.704,1.29639,-145.107,324
1569667044,328.501,155.042,-16.8548,178.682,1.29639,-145.107,324
1569667044,328.501,155.042,-16.8548,178.682,1.29639,-145.107,324
1569667044,328.501,155.042,-16.8548,178.682,1.29639,-145.107,328
1569667044,328.501,154.93,-16.8548,178.682,1.29639,-145.107,328
1569667044,328.501,154.93,-16.8548,178.682,1.29639,-145.107,328
1569667044,328.501,154.93,-16.8548,178.682,1.29639,-145.107,328
1569667044,328.501,154.93,-16.9664,178.682,1.29639,-145.107,328
1569667044,328.501,154.93,-16.9664,178.682,1.29639,-145.107,328
1569667044,328.612,154.93,-16.8548,178.682,1.29639,-145.107,328
1569667044,328.612,154.93,-16.8548,178.682,1.29639,-145.107,328
1569667044,328.612,154.93,-16.8548,178.682,1.29639,-145.107,328
1569667044,328.612,154.93,-16.8548,178.682,1.29639,-145.107,328
1569667044,328.612,154.93,-16.8548,178.682,1.29639,-145.107,328
1569667044,328.612,154.93,-16.8548,178.682,1.29639,-145.107,328
1569667044,328.612,154.93,-16.8548,178.682,1.29639,-145.107,328
1569667044,328.612,155.042,-16.8548,178.682,1.29639,-145.107,328
1569667044,328.612,155.042,-16.8548,178.682,1.29639,-145.107,328
1569667044,328.612,155.042,-16.8548,178.682,1.29639,-145.107,324
1569667044,328.612,155.042,-16.8548,178.682,1.29639,-145.107,324
1569667044,328.612,155.042,-16.8548,178.682,1.29639,-145.107,324
1569667044,328.612,155.042,-16.8548,178.704,1.29639,-145.107,324
1569667044,328.612,155.042,-16.8548,178.704,1.29639,-145.107,324
1569667044,328.612,155.042,-16.8548,178.704,1.29639,-145.107,324
1569667044,328.612,155.042,-16.8548,178.704,1.29639,-145.107,324
1569667044,328.612,155.042,-16.8548,178.704,1.29639,-145.107,324
1569667044,328.612,155.042,-16.8548,178.704,1.29639,-145.107,320
1569667044,328.612,155.042,-16.8548,178.704,1.29639,-145.107,320
1569667044,328.612,155.153,-16.8548,178.726,1.29639,-145.107,320
1569667044,328.612,155.153,-16.8548,178.726,1.29639,-145.107,320
1569667044,328.612,155.153,-16.8548,178.726,1.29639,-145.107,320
1569667044,328.612,155.153,-16.9664,178.726,1.29639,-145.107,320
1569667044,328.612,155.153,-16.9664,178.704,1.29639,-145.107,320
1569667044,328.612,155.042,-16.9664,178.704,1.29639,-145.107,320
1569667044,328.612,155.042,-16.9664,178.704,1.29639,-145.107,320
1569667044,328.612,155.042,-16.9664,178.704,1.29639,-145.107,320
1569667044,328.612,155.042,-16.9664,178.704,1.29639,-145.107,324
1569667044,328.612,155.042,-16.9664,178.704,1.29639,-145.107,324
1569667044,328.612,155.042,-16.9664,178.704,1.29639,-145.107,324
1569667044,328.612,155.042,-16.9664,178.704,1.29639,-145.107,324
1569667044,328.612,155.042,-16.9664,178.704,1.29639,-145.107,324
1569667044,328.612,155.042,-16.9664,178.704,1.29639,-145.107,324
1569667044,328.612,155.042,-16.9664,178.704,1.29639,-145.107,324
